»»»»»»»»»»»»»»»»»»»»»»»»»»»»»»»»»»»» Hysteresis ««««««««««««««««««««««««««««««««««««
»»»  Executed Version:	5.48.1
»»»  Vision Version:	5.48.4 (R)
»»»  Vision Compiled:	9/18/24
»»»  Driver Version:	5.47.0
»»»  Windows Version:	Windows 8 or 8.1
»»»  Processor Information:	x86 (AMD or Intel) - 32 Processors
»»»  Tester Name:	PMF21124-494 (100V)
»»»  Tester S/N:	PMF21124-494
»»»  Internal Amp Type:	100V RevK 270k
»»»  Internal Amp S/N:	iAB2-596/K     
»»»  Execution Count:	1
»»»»»»»»»»»»»»»»»»»»»»»»»»»»»»»»»»»»»»»»»»««««««««««««««««««««««««««««««««««««««««««

Stored:	7/8/2025 - 15:45:53
Configured:	07/08/25 02:50:47 PM
Executed:	07/08/25 03:45:24 PM

»»»»»»»»»»»»»»»»»»»»»»»»»»»»»»»»»»» Sample Info ««««««««««««««««««««««««««««««««««««
Sample Name:	
Lot Name:	
Wafer Name:	
Die Row/Column:	0/0
Capacitor Number:	0
Sample Area (cm2):	1.00e-04
Sample Thickness (microns):	1.50e-01

Amplifier:	Internal

»»»»»»»»»»»»»»»»»»»»»»»»»»»»»»»»»»» Tester Info «««««««««««««««««««««««««««««««««««
Tester Name:	PMF21124-494 (100V)
Tester Serial Number:	PMF21124-494
Return Signal Amp. Level:	0.19 [Index: 3]

»»»»»»»»»»»»»»»»»»»»»»»»»»»»»»»» Hysteresis Info ««««««««««««««««««««««««««««««««««
Task Name:	Hyst-724
Volts:	10.00
Field:	666.67 (kV/cm)
DCBias:	0.00
DCField:	0.00 (kV/cm)
Hysteresis Period (ms):	2.00e+02
Preset:	Enabled
Preset Delay (ms):	1.00e+03
Profile:	Standard Bipolar

»»»»»»»»»»»»»»»»»»»»»»»»»»»»»»»»»»»»»» Data «««««««««««««««««««««««««««««««««««««««
Points:	2009

Valid Data

Point	Time (ms)	Drive Voltage	Measured Polarization (uC/cm2)	Capacitance (uF)	Normalized Capacitance (uF/cm2)	Dielectric Constant	Instantaneous Current (mA)
   1	0.0000e+00	-0.0001	16.332233	0.000750	7.499134	1.270388	0.000150
   2	9.9500e-02	0.0187	16.481607	0.000750	7.499134	1.270388	0.000150
   3	1.9900e-01	0.0393	16.606758	0.000628	6.283058	1.064379	0.000126
   4	2.9850e-01	0.0591	16.760169	0.000770	7.701813	1.304722	0.000154
   5	3.9800e-01	0.0790	16.945877	0.000932	9.323247	1.579401	0.000187
   6	4.9750e-01	0.0979	17.079103	0.000669	6.688417	1.133048	0.000134
   7	5.9700e-01	0.1184	17.240588	0.000811	8.107172	1.373392	0.000162
   8	6.9650e-01	0.1395	17.385925	0.000730	7.296454	1.236053	0.000146
   9	7.9600e-01	0.1594	17.539336	0.000770	7.701813	1.304722	0.000154
  10	8.9550e-01	0.1781	17.696785	0.000790	7.904492	1.339057	0.000158
  11	9.9500e-01	0.1989	17.866344	0.000851	8.512530	1.442062	0.000170
  12	1.0945e+00	0.2189	18.015718	0.000750	7.499134	1.270388	0.000150
  13	1.1940e+00	0.2389	18.165092	0.000750	7.499134	1.270388	0.000150
  14	1.2935e+00	0.2577	18.314466	0.000750	7.499134	1.270388	0.000150
  15	1.3930e+00	0.2786	18.467877	0.000770	7.701813	1.304722	0.000154
  16	1.4925e+00	0.2981	18.645511	0.000892	8.917889	1.510731	0.000179
  17	1.5920e+00	0.3180	18.770663	0.000628	6.283058	1.064379	0.000126
  18	1.6915e+00	0.3382	18.920037	0.000750	7.499134	1.270388	0.000150
  19	1.7910e+00	0.3583	19.113819	0.000973	9.728606	1.648070	0.000195
  20	1.8905e+00	0.3776	19.259156	0.000730	7.296454	1.236053	0.000146
  21	1.9900e+00	0.3979	19.432753	0.000872	8.715209	1.476396	0.000174
  22	2.0895e+00	0.4172	19.586164	0.000770	7.701813	1.304722	0.000154
  23	2.1890e+00	0.4375	19.731501	0.000730	7.296454	1.236053	0.000146
  24	2.2885e+00	0.4575	19.872801	0.000709	7.093775	1.201718	0.000142
  25	2.3880e+00	0.4771	20.042360	0.000851	8.512530	1.442062	0.000170
  26	2.4875e+00	0.4977	20.199809	0.000790	7.904492	1.339057	0.000158
  27	2.5870e+00	0.5177	20.328997	0.000649	6.485737	1.098714	0.000130
  28	2.6865e+00	0.5376	20.567188	0.001196	11.958078	2.025753	0.000239
  29	2.7860e+00	0.5570	20.684265	0.000588	5.877699	0.995709	0.000118
  30	2.8855e+00	0.5772	20.845750	0.000811	8.107172	1.373392	0.000162
  31	2.9850e+00	0.5968	20.991087	0.000730	7.296454	1.236053	0.000146
  32	3.0845e+00	0.6174	21.128350	0.000689	6.891096	1.167383	0.000138
  33	3.1840e+00	0.6377	21.301947	0.000872	8.715209	1.476396	0.000174
  34	3.2835e+00	0.6567	21.483618	0.000912	9.120568	1.545066	0.000183
  35	3.3830e+00	0.6768	21.677400	0.000973	9.728606	1.648070	0.000195
  36	3.4825e+00	0.6974	21.806589	0.000649	6.485737	1.098714	0.000130
  37	3.5820e+00	0.7169	21.960000	0.000770	7.701813	1.304722	0.000154
  38	3.6815e+00	0.7362	22.133597	0.000872	8.715209	1.476396	0.000174
  39	3.7810e+00	0.7561	22.319305	0.000932	9.323247	1.579401	0.000187
  40	3.8805e+00	0.7763	22.420233	0.000507	5.066982	0.858370	0.000101
  41	3.9800e+00	0.7969	22.614016	0.000973	9.728606	1.648070	0.000195
  42	4.0795e+00	0.8165	22.787613	0.000872	8.715209	1.476396	0.000174
  43	4.1790e+00	0.8360	22.981395	0.000973	9.728606	1.648070	0.000195
  44	4.2785e+00	0.8559	23.150955	0.000851	8.512530	1.442062	0.000170
  45	4.3780e+00	0.8762	23.284180	0.000669	6.688417	1.133048	0.000134
  46	4.4775e+00	0.8948	23.425480	0.000709	7.093775	1.201718	0.000142
  47	4.5770e+00	0.9158	23.619263	0.000973	9.728606	1.648070	0.000195
  48	4.6765e+00	0.9357	23.748451	0.000649	6.485737	1.098714	0.000130
  49	4.7760e+00	0.9555	23.950308	0.001013	10.133965	1.716740	0.000203
  50	4.8755e+00	0.9753	24.103719	0.000770	7.701813	1.304722	0.000154
  51	4.9750e+00	0.9960	24.240982	0.000689	6.891096	1.167383	0.000138
  52	5.0745e+00	1.0159	24.442838	0.001013	10.133965	1.716740	0.000203
  53	5.1740e+00	1.0351	24.596249	0.000770	7.701813	1.304722	0.000154
  54	5.2735e+00	1.0557	24.798106	0.001013	10.133965	1.716740	0.000203
  55	5.3730e+00	1.0750	24.927295	0.000649	6.485737	1.098714	0.000130
  56	5.4725e+00	1.0956	25.060520	0.000669	6.688417	1.133048	0.000134
  57	5.5720e+00	1.1156	25.230080	0.000851	8.512530	1.442062	0.000170
  58	5.6715e+00	1.1343	25.440011	0.001054	10.539323	1.785410	0.000211
  59	5.7710e+00	1.1549	25.613608	0.000872	8.715209	1.476396	0.000174
  60	5.8705e+00	1.1749	25.771056	0.000790	7.904492	1.339057	0.000158
  61	5.9700e+00	1.1952	25.940616	0.000851	8.512530	1.442062	0.000170
  62	6.0695e+00	1.2157	26.073841	0.000669	6.688417	1.133048	0.000134
  63	6.1690e+00	1.2348	26.251475	0.000892	8.917889	1.510731	0.000179
  64	6.2685e+00	1.2547	26.404886	0.000770	7.701813	1.304722	0.000154
  65	6.3680e+00	1.2735	26.566372	0.000811	8.107172	1.373392	0.000162
  66	6.4675e+00	1.2949	26.731894	0.000831	8.309851	1.407727	0.000166
  67	6.5670e+00	1.3138	26.873194	0.000709	7.093775	1.201718	0.000142
  68	6.6665e+00	1.3340	27.038717	0.000831	8.309851	1.407727	0.000166
  69	6.7660e+00	1.3535	27.256722	0.001094	10.944682	1.854079	0.000219
  70	6.8655e+00	1.3725	27.393985	0.000689	6.891096	1.167383	0.000138
  71	6.9650e+00	1.3939	27.559507	0.000831	8.309851	1.407727	0.000166
  72	7.0645e+00	1.4133	27.733104	0.000872	8.715209	1.476396	0.000174
  73	7.1640e+00	1.4338	27.850181	0.000588	5.877699	0.995709	0.000118
  74	7.2635e+00	1.4527	28.039926	0.000953	9.525927	1.613736	0.000191
  75	7.3630e+00	1.4733	28.225635	0.000932	9.323247	1.579401	0.000187
  76	7.4625e+00	1.4930	28.338674	0.000568	5.675020	0.961374	0.000114
  77	7.5620e+00	1.5133	28.552643	0.001074	10.742002	1.819744	0.000215
  78	7.6615e+00	1.5336	28.722202	0.000851	8.512530	1.442062	0.000170
  79	7.7610e+00	1.5532	28.855428	0.000669	6.688417	1.133048	0.000134
  80	7.8605e+00	1.5730	29.049210	0.000973	9.728606	1.648070	0.000195
  81	7.9600e+00	1.5932	29.178399	0.000649	6.485737	1.098714	0.000130
  82	8.0595e+00	1.6124	29.364107	0.000932	9.323247	1.579401	0.000187
  83	8.1590e+00	1.6339	29.513481	0.000750	7.499134	1.270388	0.000150
  84	8.2585e+00	1.6530	29.695152	0.000912	9.120568	1.545066	0.000183
  85	8.3580e+00	1.6724	29.884897	0.000953	9.525927	1.613736	0.000191
  86	8.4575e+00	1.6924	30.042346	0.000790	7.904492	1.339057	0.000158
  87	8.5570e+00	1.7131	30.195757	0.000770	7.701813	1.304722	0.000154
  88	8.6565e+00	1.7326	30.369354	0.000872	8.715209	1.476396	0.000174
  89	8.7560e+00	1.7522	30.494505	0.000628	6.283058	1.064379	0.000126
  90	8.8555e+00	1.7724	30.684250	0.000953	9.525927	1.613736	0.000191
  91	8.9550e+00	1.7920	30.902256	0.001094	10.944682	1.854079	0.000219
  92	9.0545e+00	1.8122	31.051630	0.000750	7.499134	1.270388	0.000150
  93	9.1540e+00	1.8316	31.188892	0.000689	6.891096	1.167383	0.000138
  94	9.2535e+00	1.8523	31.358452	0.000851	8.512530	1.442062	0.000170
  95	9.3530e+00	1.8723	31.528012	0.000851	8.512530	1.442062	0.000170
  96	9.4525e+00	1.8916	31.725831	0.000993	9.931285	1.682405	0.000199
  97	9.5520e+00	1.9119	31.867131	0.000709	7.093775	1.201718	0.000142
  98	9.6515e+00	1.9316	32.016505	0.000750	7.499134	1.270388	0.000150
  99	9.7510e+00	1.9523	32.198176	0.000912	9.120568	1.545066	0.000183
 100	9.8505e+00	1.9714	32.335439	0.000689	6.891096	1.167383	0.000138
 101	9.9500e+00	1.9904	32.533258	0.000993	9.931285	1.682405	0.000199
 102	1.0050e+01	2.0112	32.690707	0.000790	7.904492	1.339057	0.000158
 103	1.0149e+01	2.0315	32.832006	0.000709	7.093775	1.201718	0.000142
 104	1.0248e+01	2.0510	33.062123	0.001155	11.552720	1.957084	0.000231
 105	1.0348e+01	2.0708	33.187274	0.000628	6.283058	1.064379	0.000126
 106	1.0447e+01	2.0908	33.385094	0.000993	9.931285	1.682405	0.000199
 107	1.0547e+01	2.1117	33.518319	0.000669	6.688417	1.133048	0.000134
 108	1.0646e+01	2.1307	33.691916	0.000872	8.715209	1.476396	0.000174
 109	1.0746e+01	2.1514	33.849365	0.000790	7.904492	1.339057	0.000158
 110	1.0845e+01	2.1704	34.014887	0.000831	8.309851	1.407727	0.000166
 111	1.0945e+01	2.1903	34.196558	0.000912	9.120568	1.545066	0.000183
 112	1.1044e+01	2.2107	34.349969	0.000770	7.701813	1.304722	0.000154
 113	1.1144e+01	2.2298	34.523566	0.000872	8.715209	1.476396	0.000174
 114	1.1243e+01	2.2503	34.689089	0.000831	8.309851	1.407727	0.000166
 115	1.1343e+01	2.2701	34.834426	0.000730	7.296454	1.236053	0.000146
 116	1.1443e+01	2.2902	34.995911	0.000811	8.107172	1.373392	0.000162
 117	1.1542e+01	2.3107	35.153359	0.000790	7.904492	1.339057	0.000158
 118	1.1642e+01	2.3302	35.339068	0.000932	9.323247	1.579401	0.000187
 119	1.1741e+01	2.3504	35.496516	0.000790	7.904492	1.339057	0.000158
 120	1.1841e+01	2.3698	35.666076	0.000851	8.512530	1.442062	0.000170
 121	1.1940e+01	2.3906	35.835635	0.000851	8.512530	1.442062	0.000170
 122	1.2040e+01	2.4100	35.997121	0.000811	8.107172	1.373392	0.000162
 123	1.2139e+01	2.4303	36.154569	0.000790	7.904492	1.339057	0.000158
 124	1.2239e+01	2.4490	36.356426	0.001013	10.133965	1.716740	0.000203
 125	1.2338e+01	2.4700	36.477540	0.000608	6.080379	1.030044	0.000122
 126	1.2438e+01	2.4905	36.630951	0.000770	7.701813	1.304722	0.000154
 127	1.2537e+01	2.5085	36.792437	0.000811	8.107172	1.373392	0.000162
 128	1.2636e+01	2.5291	36.974108	0.000912	9.120568	1.545066	0.000183
 129	1.2736e+01	2.5498	37.171927	0.000993	9.931285	1.682405	0.000199
 130	1.2835e+01	2.5695	37.345524	0.000872	8.715209	1.476396	0.000174
 131	1.2935e+01	2.5890	37.482787	0.000689	6.891096	1.167383	0.000138
 132	1.3034e+01	2.6093	37.628124	0.000730	7.296454	1.236053	0.000146
 133	1.3134e+01	2.6295	37.789609	0.000811	8.107172	1.373392	0.000162
 134	1.3233e+01	2.6493	37.926872	0.000689	6.891096	1.167383	0.000138
 135	1.3333e+01	2.6690	38.144877	0.001094	10.944682	1.854079	0.000219
 136	1.3432e+01	2.6879	38.257917	0.000568	5.675020	0.961374	0.000114
 137	1.3532e+01	2.7082	38.463811	0.001034	10.336644	1.751075	0.000207
 138	1.3632e+01	2.7281	38.609148	0.000730	7.296454	1.236053	0.000146
 139	1.3731e+01	2.7488	38.766596	0.000790	7.904492	1.339057	0.000158
 140	1.3831e+01	2.7680	38.948267	0.000912	9.120568	1.545066	0.000183
 141	1.3930e+01	2.7885	39.113790	0.000831	8.309851	1.407727	0.000166
 142	1.4030e+01	2.8079	39.251052	0.000689	6.891096	1.167383	0.000138
 143	1.4129e+01	2.8277	39.420612	0.000851	8.512530	1.442062	0.000170
 144	1.4229e+01	2.8475	39.618432	0.000993	9.931285	1.682405	0.000199
 145	1.4328e+01	2.8677	39.739546	0.000608	6.080379	1.030044	0.000122
 146	1.4428e+01	2.8881	39.921217	0.000912	9.120568	1.545066	0.000183
 147	1.4527e+01	2.9082	40.074628	0.000770	7.701813	1.304722	0.000154
 148	1.4627e+01	2.9272	40.272448	0.000993	9.931285	1.682405	0.000199
 149	1.4726e+01	2.9479	40.417784	0.000730	7.296454	1.236053	0.000146
 150	1.4825e+01	2.9678	40.591381	0.000872	8.715209	1.476396	0.000174
 151	1.4925e+01	2.9877	40.748830	0.000790	7.904492	1.339057	0.000158
 152	1.5024e+01	3.0074	40.926464	0.000892	8.917889	1.510731	0.000179
 153	1.5124e+01	3.0280	41.096023	0.000851	8.512530	1.442062	0.000170
 154	1.5223e+01	3.0481	41.221174	0.000628	6.283058	1.064379	0.000126
 155	1.5323e+01	3.0677	41.427068	0.001034	10.336644	1.751075	0.000207
 156	1.5422e+01	3.0866	41.564331	0.000689	6.891096	1.167383	0.000138
 157	1.5522e+01	3.1074	41.729854	0.000831	8.309851	1.407727	0.000166
 158	1.5621e+01	3.1274	41.891339	0.000811	8.107172	1.373392	0.000162
 159	1.5721e+01	3.1474	42.048787	0.000790	7.904492	1.339057	0.000158
 160	1.5820e+01	3.1667	42.238533	0.000953	9.525927	1.613736	0.000191
 161	1.5920e+01	3.1866	42.367721	0.000649	6.485737	1.098714	0.000130
 162	1.6020e+01	3.2071	42.541318	0.000872	8.715209	1.476396	0.000174
 163	1.6119e+01	3.2261	42.727026	0.000932	9.323247	1.579401	0.000187
 164	1.6218e+01	3.2466	42.860252	0.000669	6.688417	1.133048	0.000134
 165	1.6318e+01	3.2668	43.033848	0.000872	8.715209	1.476396	0.000174
 166	1.6418e+01	3.2867	43.159000	0.000628	6.283058	1.064379	0.000126
 167	1.6517e+01	3.3070	43.356819	0.000993	9.931285	1.682405	0.000199
 168	1.6616e+01	3.3262	43.514268	0.000790	7.904492	1.339057	0.000158
 169	1.6716e+01	3.3463	43.691902	0.000892	8.917889	1.510731	0.000179
 170	1.6816e+01	3.3659	43.849350	0.000790	7.904492	1.339057	0.000158
 171	1.6915e+01	3.3852	43.998724	0.000750	7.499134	1.270388	0.000150
 172	1.7015e+01	3.4056	44.099652	0.000507	5.066982	0.858370	0.000101
 173	1.7114e+01	3.4257	44.313620	0.001074	10.742002	1.819744	0.000215
 174	1.7213e+01	3.4459	44.458957	0.000730	7.296454	1.236053	0.000146
 175	1.7313e+01	3.4673	44.584109	0.000628	6.283058	1.064379	0.000126
 176	1.7413e+01	3.4853	44.777891	0.000973	9.728606	1.648070	0.000195
 177	1.7512e+01	3.5052	44.923228	0.000730	7.296454	1.236053	0.000146
 178	1.7611e+01	3.5259	45.068565	0.000730	7.296454	1.236053	0.000146
 179	1.7711e+01	3.5458	45.266384	0.000993	9.931285	1.682405	0.000199
 180	1.7811e+01	3.5651	45.419796	0.000770	7.701813	1.304722	0.000154
 181	1.7910e+01	3.5857	45.585318	0.000831	8.309851	1.407727	0.000166
 182	1.8009e+01	3.6048	45.750841	0.000831	8.309851	1.407727	0.000166
 183	1.8109e+01	3.6257	45.875992	0.000628	6.283058	1.064379	0.000126
 184	1.8209e+01	3.6452	46.065737	0.000953	9.525927	1.613736	0.000191
 185	1.8308e+01	3.6650	46.211074	0.000730	7.296454	1.236053	0.000146
 186	1.8407e+01	3.6865	46.376597	0.000831	8.309851	1.407727	0.000166
 187	1.8507e+01	3.7041	46.517897	0.000709	7.093775	1.201718	0.000142
 188	1.8607e+01	3.7247	46.643048	0.000628	6.283058	1.064379	0.000126
 189	1.8706e+01	3.7453	46.804533	0.000811	8.107172	1.373392	0.000162
 190	1.8805e+01	3.7651	46.974093	0.000851	8.512530	1.442062	0.000170
 191	1.8905e+01	3.7846	47.127504	0.000770	7.701813	1.304722	0.000154
 192	1.9005e+01	3.8043	47.236507	0.000547	5.472341	0.927040	0.000110
 193	1.9104e+01	3.8260	47.410104	0.000872	8.715209	1.476396	0.000174
 194	1.9203e+01	3.8436	47.583700	0.000872	8.715209	1.476396	0.000174
 195	1.9303e+01	3.8642	47.733074	0.000750	7.499134	1.270388	0.000150
 196	1.9402e+01	3.8845	47.906671	0.000872	8.715209	1.476396	0.000174
 197	1.9502e+01	3.9036	48.052008	0.000730	7.296454	1.236053	0.000146
 198	1.9602e+01	3.9237	48.197345	0.000730	7.296454	1.236053	0.000146
 199	1.9701e+01	3.9442	48.374979	0.000892	8.917889	1.510731	0.000179
 200	1.9800e+01	3.9647	48.536464	0.000811	8.107172	1.373392	0.000162
 201	1.9900e+01	3.9834	48.649504	0.000568	5.675020	0.961374	0.000114
 202	2.0000e+01	4.0030	48.819064	0.000851	8.512530	1.442062	0.000170
 203	2.0099e+01	4.0247	48.968438	0.000750	7.499134	1.270388	0.000150
 204	2.0198e+01	4.0429	49.137998	0.000851	8.512530	1.442062	0.000170
 205	2.0298e+01	4.0629	49.263149	0.000628	6.283058	1.064379	0.000126
 206	2.0398e+01	4.0826	49.420597	0.000790	7.904492	1.339057	0.000158
 207	2.0497e+01	4.1044	49.557860	0.000689	6.891096	1.167383	0.000138
 208	2.0596e+01	4.1228	49.771828	0.001074	10.742002	1.819744	0.000215
 209	2.0696e+01	4.1439	49.880831	0.000547	5.472341	0.927040	0.000110
 210	2.0796e+01	4.1634	50.030205	0.000750	7.499134	1.270388	0.000150
 211	2.0895e+01	4.1836	50.187653	0.000790	7.904492	1.339057	0.000158
 212	2.0994e+01	4.2028	50.332990	0.000730	7.296454	1.236053	0.000146
 213	2.1094e+01	4.2225	50.498512	0.000831	8.309851	1.407727	0.000166
 214	2.1194e+01	4.2429	50.623664	0.000628	6.283058	1.064379	0.000126
 215	2.1293e+01	4.2626	50.801298	0.000892	8.917889	1.510731	0.000179
 216	2.1392e+01	4.2840	50.966820	0.000831	8.309851	1.407727	0.000166
 217	2.1492e+01	4.3029	51.096008	0.000649	6.485737	1.098714	0.000130
 218	2.1591e+01	4.3224	51.241345	0.000730	7.296454	1.236053	0.000146
 219	2.1691e+01	4.3430	51.390719	0.000750	7.499134	1.270388	0.000150
 220	2.1791e+01	4.3620	51.568353	0.000892	8.917889	1.510731	0.000179
 221	2.1890e+01	4.3812	51.685430	0.000588	5.877699	0.995709	0.000118
 222	2.1989e+01	4.4014	51.834804	0.000750	7.499134	1.270388	0.000150
 223	2.2089e+01	4.4221	52.004364	0.000851	8.512530	1.442062	0.000170
 224	2.2189e+01	4.4424	52.145664	0.000709	7.093775	1.201718	0.000142
 225	2.2288e+01	4.4616	52.274852	0.000649	6.485737	1.098714	0.000130
 226	2.2387e+01	4.4814	52.452486	0.000892	8.917889	1.510731	0.000179
 227	2.2487e+01	4.5010	52.585712	0.000669	6.688417	1.133048	0.000134
 228	2.2587e+01	4.5216	52.727011	0.000709	7.093775	1.201718	0.000142
 229	2.2686e+01	4.5410	52.892534	0.000831	8.309851	1.407727	0.000166
 230	2.2785e+01	4.5607	53.001537	0.000547	5.472341	0.927040	0.000110
 231	2.2885e+01	4.5815	53.146873	0.000730	7.296454	1.236053	0.000146
 232	2.2985e+01	4.6009	53.312396	0.000831	8.309851	1.407727	0.000166
 233	2.3084e+01	4.6218	53.449659	0.000689	6.891096	1.167383	0.000138
 234	2.3183e+01	4.6407	53.607107	0.000790	7.904492	1.339057	0.000158
 235	2.3283e+01	4.6610	53.695924	0.000446	4.458944	0.755366	0.000089
 236	2.3383e+01	4.6806	53.845298	0.000750	7.499134	1.270388	0.000150
 237	2.3482e+01	4.7009	54.014858	0.000851	8.512530	1.442062	0.000170
 238	2.3581e+01	4.7210	54.188454	0.000872	8.715209	1.476396	0.000174
 239	2.3681e+01	4.7401	54.329754	0.000709	7.093775	1.201718	0.000142
 240	2.3780e+01	4.7601	54.430683	0.000507	5.066982	0.858370	0.000101
 241	2.3880e+01	4.7811	54.571982	0.000709	7.093775	1.201718	0.000142
 242	2.3980e+01	4.8003	54.737505	0.000831	8.309851	1.407727	0.000166
 243	2.4079e+01	4.8208	54.866693	0.000649	6.485737	1.098714	0.000130
 244	2.4178e+01	4.8405	55.012030	0.000730	7.296454	1.236053	0.000146
 245	2.4278e+01	4.8579	55.165441	0.000770	7.701813	1.304722	0.000154
 246	2.4378e+01	4.8809	55.310778	0.000730	7.296454	1.236053	0.000146
 247	2.4477e+01	4.9010	55.427855	0.000588	5.877699	0.995709	0.000118
 248	2.4576e+01	4.9197	55.569155	0.000709	7.093775	1.201718	0.000142
 249	2.4676e+01	4.9406	55.718529	0.000750	7.499134	1.270388	0.000150
 250	2.4776e+01	4.9599	55.896163	0.000892	8.917889	1.510731	0.000179
 251	2.4875e+01	4.9801	56.005166	0.000547	5.472341	0.927040	0.000110
 252	2.4974e+01	4.9990	56.198948	0.000973	9.728606	1.648070	0.000195
 253	2.5074e+01	5.0201	56.299876	0.000507	5.066982	0.858370	0.000101
 254	2.5174e+01	5.0396	56.469436	0.000851	8.512530	1.442062	0.000170
 255	2.5273e+01	5.0588	56.558253	0.000446	4.458944	0.755366	0.000089
 256	2.5372e+01	5.0794	56.731850	0.000872	8.715209	1.476396	0.000174
 257	2.5472e+01	5.0996	56.877187	0.000730	7.296454	1.236053	0.000146
 258	2.5572e+01	5.1191	57.006375	0.000649	6.485737	1.098714	0.000130
 259	2.5671e+01	5.1382	57.135564	0.000649	6.485737	1.098714	0.000130
 260	2.5770e+01	5.1589	57.284938	0.000750	7.499134	1.270388	0.000150
 261	2.5870e+01	5.1797	57.434312	0.000750	7.499134	1.270388	0.000150
 262	2.5970e+01	5.1989	57.559463	0.000628	6.283058	1.064379	0.000126
 263	2.6069e+01	5.2183	57.696725	0.000689	6.891096	1.167383	0.000138
 264	2.6169e+01	5.2386	57.833988	0.000689	6.891096	1.167383	0.000138
 265	2.6268e+01	5.2581	58.011622	0.000892	8.917889	1.510731	0.000179
 266	2.6367e+01	5.2789	58.144847	0.000669	6.688417	1.133048	0.000134
 267	2.6467e+01	5.2979	58.302296	0.000790	7.904492	1.339057	0.000158
 268	2.6567e+01	5.3179	58.431484	0.000649	6.485737	1.098714	0.000130
 269	2.6666e+01	5.3387	58.564710	0.000669	6.688417	1.133048	0.000134
 270	2.6765e+01	5.3585	58.714084	0.000750	7.499134	1.270388	0.000150
 271	2.6865e+01	5.3785	58.823086	0.000547	5.472341	0.927040	0.000110
 272	2.6965e+01	5.3979	58.964386	0.000709	7.093775	1.201718	0.000142
 273	2.7064e+01	5.4173	59.125871	0.000811	8.107172	1.373392	0.000162
 274	2.7163e+01	5.4382	59.234874	0.000547	5.472341	0.927040	0.000110
 275	2.7263e+01	5.4581	59.404434	0.000851	8.512530	1.442062	0.000170
 276	2.7363e+01	5.4766	59.521511	0.000588	5.877699	0.995709	0.000118
 277	2.7462e+01	5.4969	59.666848	0.000730	7.296454	1.236053	0.000146
 278	2.7561e+01	5.5173	59.791999	0.000628	6.283058	1.064379	0.000126
 279	2.7661e+01	5.5382	59.941373	0.000750	7.499134	1.270388	0.000150
 280	2.7761e+01	5.5573	60.074598	0.000669	6.688417	1.133048	0.000134
 281	2.7860e+01	5.5781	60.203787	0.000649	6.485737	1.098714	0.000130
 282	2.7959e+01	5.5962	60.365272	0.000811	8.107172	1.373392	0.000162
 283	2.8059e+01	5.6173	60.522720	0.000790	7.904492	1.339057	0.000158
 284	2.8159e+01	5.6371	60.611537	0.000446	4.458944	0.755366	0.000089
 285	2.8258e+01	5.6579	60.785134	0.000872	8.715209	1.476396	0.000174
 286	2.8358e+01	5.6765	60.918360	0.000669	6.688417	1.133048	0.000134
 287	2.8457e+01	5.6963	61.015251	0.000486	4.864303	0.824035	0.000097
 288	2.8556e+01	5.7168	61.188848	0.000872	8.715209	1.476396	0.000174
 289	2.8656e+01	5.7375	61.301888	0.000568	5.675020	0.961374	0.000114
 290	2.8756e+01	5.7558	61.447225	0.000730	7.296454	1.236053	0.000146
 291	2.8855e+01	5.7766	61.628896	0.000912	9.120568	1.545066	0.000183
 292	2.8954e+01	5.7970	61.729824	0.000507	5.066982	0.858370	0.000101
 293	2.9054e+01	5.8175	61.927644	0.000993	9.931285	1.682405	0.000199
 294	2.9154e+01	5.8361	61.980126	0.000263	2.634831	0.446352	0.000053
 295	2.9253e+01	5.8569	62.145649	0.000831	8.309851	1.407727	0.000166
 296	2.9352e+01	5.8762	62.234466	0.000446	4.458944	0.755366	0.000089
 297	2.9452e+01	5.8965	62.408063	0.000872	8.715209	1.476396	0.000174
 298	2.9552e+01	5.9161	62.549363	0.000709	7.093775	1.201718	0.000142
 299	2.9651e+01	5.9368	62.674514	0.000628	6.283058	1.064379	0.000126
 300	2.9750e+01	5.9563	62.807739	0.000669	6.688417	1.133048	0.000134
 301	2.9850e+01	5.9756	62.977299	0.000851	8.512530	1.442062	0.000170
 302	2.9950e+01	5.9969	63.086302	0.000547	5.472341	0.927040	0.000110
 303	3.0049e+01	6.0159	63.223564	0.000689	6.891096	1.167383	0.000138
 304	3.0148e+01	6.0361	63.389087	0.000831	8.309851	1.407727	0.000166
 305	3.0248e+01	6.0561	63.469830	0.000405	4.053586	0.686696	0.000081
 306	3.0348e+01	6.0752	63.631315	0.000811	8.107172	1.373392	0.000162
 307	3.0447e+01	6.0955	63.776652	0.000730	7.296454	1.236053	0.000146
 308	3.0547e+01	6.1152	63.921989	0.000730	7.296454	1.236053	0.000146
 309	3.0646e+01	6.1347	64.075400	0.000770	7.701813	1.304722	0.000154
 310	3.0745e+01	6.1552	64.184403	0.000547	5.472341	0.927040	0.000110
 311	3.0845e+01	6.1752	64.325702	0.000709	7.093775	1.201718	0.000142
 312	3.0945e+01	6.1948	64.487188	0.000811	8.107172	1.373392	0.000162
 313	3.1044e+01	6.2144	64.608302	0.000608	6.080379	1.030044	0.000122
 314	3.1143e+01	6.2341	64.733453	0.000628	6.283058	1.064379	0.000126
 315	3.1243e+01	6.2550	64.886864	0.000770	7.701813	1.304722	0.000154
 316	3.1343e+01	6.2754	64.987793	0.000507	5.066982	0.858370	0.000101
 317	3.1442e+01	6.2963	65.161389	0.000872	8.715209	1.476396	0.000174
 318	3.1541e+01	6.3137	65.254244	0.000466	4.661624	0.789700	0.000093
 319	3.1641e+01	6.3335	65.351135	0.000486	4.864303	0.824035	0.000097
 320	3.1741e+01	6.3527	65.552992	0.001013	10.133965	1.716740	0.000203
 321	3.1840e+01	6.3744	65.661994	0.000547	5.472341	0.927040	0.000110
 322	3.1939e+01	6.3946	65.795220	0.000669	6.688417	1.133048	0.000134
 323	3.2039e+01	6.4135	65.936519	0.000709	7.093775	1.201718	0.000142
 324	3.2139e+01	6.4346	66.089931	0.000770	7.701813	1.304722	0.000154
 325	3.2238e+01	6.4538	66.198933	0.000547	5.472341	0.927040	0.000110
 326	3.2337e+01	6.4733	66.348307	0.000750	7.499134	1.270388	0.000150
 327	3.2437e+01	6.4935	66.473458	0.000628	6.283058	1.064379	0.000126
 328	3.2536e+01	6.5128	66.618795	0.000730	7.296454	1.236053	0.000146
 329	3.2636e+01	6.5334	66.739909	0.000608	6.080379	1.030044	0.000122
 330	3.2736e+01	6.5533	66.893321	0.000770	7.701813	1.304722	0.000154
 331	3.2835e+01	6.5730	67.042695	0.000750	7.499134	1.270388	0.000150
 332	3.2934e+01	6.5932	67.175920	0.000669	6.688417	1.133048	0.000134
 333	3.3034e+01	6.6122	67.329331	0.000770	7.701813	1.304722	0.000154
 334	3.3133e+01	6.6320	67.438334	0.000547	5.472341	0.927040	0.000110
 335	3.3233e+01	6.6514	67.591745	0.000770	7.701813	1.304722	0.000154
 336	3.3333e+01	6.6728	67.696711	0.000527	5.269662	0.892705	0.000105
 337	3.3432e+01	6.6930	67.829936	0.000669	6.688417	1.133048	0.000134
 338	3.3532e+01	6.7132	67.987384	0.000790	7.904492	1.339057	0.000158
 339	3.3631e+01	6.7327	68.128684	0.000709	7.093775	1.201718	0.000142
 340	3.3730e+01	6.7532	68.269984	0.000709	7.093775	1.201718	0.000142
 341	3.3830e+01	6.7730	68.374949	0.000527	5.269662	0.892705	0.000105
 342	3.3929e+01	6.7921	68.528361	0.000770	7.701813	1.304722	0.000154
 343	3.4029e+01	6.8117	68.617178	0.000446	4.458944	0.755366	0.000089
 344	3.4129e+01	6.8322	68.738292	0.000608	6.080379	1.030044	0.000122
 345	3.4228e+01	6.8520	68.871517	0.000669	6.688417	1.133048	0.000134
 346	3.4328e+01	6.8716	69.037040	0.000831	8.309851	1.407727	0.000166
 347	3.4427e+01	6.8926	69.129894	0.000466	4.661624	0.789700	0.000093
 348	3.4526e+01	6.9119	69.303491	0.000872	8.715209	1.476396	0.000174
 349	3.4626e+01	6.9314	69.424605	0.000608	6.080379	1.030044	0.000122
 350	3.4725e+01	6.9509	69.537645	0.000568	5.675020	0.961374	0.000114
 351	3.4825e+01	6.9714	69.662796	0.000628	6.283058	1.064379	0.000126
 352	3.4925e+01	6.9913	69.824281	0.000811	8.107172	1.373392	0.000162
 353	3.5024e+01	7.0107	69.925210	0.000507	5.066982	0.858370	0.000101
 354	3.5123e+01	7.0315	70.082658	0.000790	7.904492	1.339057	0.000158
 355	3.5223e+01	7.0504	70.167438	0.000426	4.256265	0.721031	0.000085
 356	3.5322e+01	7.0708	70.324886	0.000790	7.904492	1.339057	0.000158
 357	3.5422e+01	7.0916	70.446000	0.000608	6.080379	1.030044	0.000122
 358	3.5522e+01	7.1112	70.542891	0.000486	4.864303	0.824035	0.000097
 359	3.5621e+01	7.1310	70.692265	0.000750	7.499134	1.270388	0.000150
 360	3.5721e+01	7.1499	70.805305	0.000568	5.675020	0.961374	0.000114
 361	3.5820e+01	7.1709	70.954679	0.000750	7.499134	1.270388	0.000150
 362	3.5919e+01	7.1908	71.075793	0.000608	6.080379	1.030044	0.000122
 363	3.6019e+01	7.2109	71.233242	0.000790	7.904492	1.339057	0.000158
 364	3.6118e+01	7.2307	71.358393	0.000628	6.283058	1.064379	0.000126
 365	3.6218e+01	7.2504	71.495655	0.000689	6.891096	1.167383	0.000138
 366	3.6318e+01	7.2692	71.576398	0.000405	4.053586	0.686696	0.000081
 367	3.6417e+01	7.2910	71.733846	0.000790	7.904492	1.339057	0.000158
 368	3.6517e+01	7.3096	71.850923	0.000588	5.877699	0.995709	0.000118
 369	3.6616e+01	7.3315	71.996260	0.000730	7.296454	1.236053	0.000146
 370	3.6715e+01	7.3499	72.113337	0.000588	5.877699	0.995709	0.000118
 371	3.6815e+01	7.3699	72.266748	0.000770	7.701813	1.304722	0.000154
 372	3.6914e+01	7.3904	72.363640	0.000486	4.864303	0.824035	0.000097
 373	3.7014e+01	7.4094	72.508976	0.000730	7.296454	1.236053	0.000146
 374	3.7114e+01	7.4294	72.638165	0.000649	6.485737	1.098714	0.000130
 375	3.7213e+01	7.4497	72.759279	0.000608	6.080379	1.030044	0.000122
 376	3.7313e+01	7.4691	72.868282	0.000547	5.472341	0.927040	0.000110
 377	3.7412e+01	7.4895	73.037841	0.000851	8.512530	1.442062	0.000170
 378	3.7511e+01	7.5085	73.142807	0.000527	5.269662	0.892705	0.000105
 379	3.7611e+01	7.5285	73.288144	0.000730	7.296454	1.236053	0.000146
 380	3.7711e+01	7.5485	73.389072	0.000507	5.066982	0.858370	0.000101
 381	3.7810e+01	7.5699	73.558632	0.000851	8.512530	1.442062	0.000170
 382	3.7910e+01	7.5900	73.647449	0.000446	4.458944	0.755366	0.000089
 383	3.8009e+01	7.6093	73.760489	0.000568	5.675020	0.961374	0.000114
 384	3.8108e+01	7.6287	73.889677	0.000649	6.485737	1.098714	0.000130
 385	3.8208e+01	7.6488	74.039051	0.000750	7.499134	1.270388	0.000150
 386	3.8307e+01	7.6685	74.139979	0.000507	5.066982	0.858370	0.000101
 387	3.8407e+01	7.6881	74.253019	0.000568	5.675020	0.961374	0.000114
 388	3.8507e+01	7.7085	74.402393	0.000750	7.499134	1.270388	0.000150
 389	3.8606e+01	7.7274	74.495247	0.000466	4.661624	0.789700	0.000093
 390	3.8706e+01	7.7480	74.644621	0.000750	7.499134	1.270388	0.000150
 391	3.8805e+01	7.7679	74.741512	0.000486	4.864303	0.824035	0.000097
 392	3.8904e+01	7.7890	74.850515	0.000547	5.472341	0.927040	0.000110
 393	3.9004e+01	7.8072	75.020075	0.000851	8.512530	1.442062	0.000170
 394	3.9103e+01	7.8280	75.141189	0.000608	6.080379	1.030044	0.000122
 395	3.9203e+01	7.8469	75.258266	0.000588	5.877699	0.995709	0.000118
 396	3.9303e+01	7.8678	75.395528	0.000689	6.891096	1.167383	0.000138
 397	3.9402e+01	7.8873	75.508568	0.000568	5.675020	0.961374	0.000114
 398	3.9502e+01	7.9069	75.601422	0.000466	4.661624	0.789700	0.000093
 399	3.9601e+01	7.9275	75.742722	0.000709	7.093775	1.201718	0.000142
 400	3.9700e+01	7.9482	75.863836	0.000608	6.080379	1.030044	0.000122
 401	3.9800e+01	7.9675	75.988987	0.000628	6.283058	1.064379	0.000126
 402	3.9900e+01	7.9883	76.102027	0.000568	5.675020	0.961374	0.000114
 403	3.9999e+01	8.0076	76.194881	0.000466	4.661624	0.789700	0.000093
 404	4.0099e+01	8.0281	76.340218	0.000730	7.296454	1.236053	0.000146
 405	4.0198e+01	8.0471	76.433072	0.000466	4.661624	0.789700	0.000093
 406	4.0297e+01	8.0664	76.550149	0.000588	5.877699	0.995709	0.000118
 407	4.0397e+01	8.0872	76.683375	0.000669	6.688417	1.133048	0.000134
 408	4.0496e+01	8.1062	76.808526	0.000628	6.283058	1.064379	0.000126
 409	4.0596e+01	8.1261	76.961937	0.000770	7.701813	1.304722	0.000154
 410	4.0696e+01	8.1463	77.026531	0.000324	3.242869	0.549357	0.000065
 411	4.0795e+01	8.1662	77.163794	0.000689	6.891096	1.167383	0.000138
 412	4.0895e+01	8.1875	77.268759	0.000527	5.269662	0.892705	0.000105
 413	4.0994e+01	8.2054	77.406022	0.000689	6.891096	1.167383	0.000138
 414	4.1093e+01	8.2267	77.486765	0.000405	4.053586	0.686696	0.000081
 415	4.1193e+01	8.2461	77.603842	0.000588	5.877699	0.995709	0.000118
 416	4.1292e+01	8.2655	77.749179	0.000730	7.296454	1.236053	0.000146
 417	4.1392e+01	8.2864	77.862218	0.000568	5.675020	0.961374	0.000114
 418	4.1492e+01	8.3060	77.971221	0.000547	5.472341	0.927040	0.000110
 419	4.1591e+01	8.3255	78.132707	0.000811	8.107172	1.373392	0.000162
 420	4.1691e+01	8.3460	78.177115	0.000223	2.229472	0.377683	0.000045
 421	4.1790e+01	8.3658	78.322452	0.000730	7.296454	1.236053	0.000146
 422	4.1889e+01	8.3854	78.451640	0.000649	6.485737	1.098714	0.000130
 423	4.1989e+01	8.4042	78.596977	0.000730	7.296454	1.236053	0.000146
 424	4.2089e+01	8.4249	78.685794	0.000446	4.458944	0.755366	0.000089
 425	4.2188e+01	8.4455	78.814982	0.000649	6.485737	1.098714	0.000130
 426	4.2288e+01	8.4649	78.960319	0.000730	7.296454	1.236053	0.000146
 427	4.2387e+01	8.4855	79.041062	0.000405	4.053586	0.686696	0.000081
 428	4.2486e+01	8.5050	79.146028	0.000527	5.269662	0.892705	0.000105
 429	4.2586e+01	8.5259	79.250993	0.000527	5.269662	0.892705	0.000105
 430	4.2685e+01	8.5455	79.380181	0.000649	6.485737	1.098714	0.000130
 431	4.2785e+01	8.5645	79.545704	0.000831	8.309851	1.407727	0.000166
 432	4.2885e+01	8.5849	79.646632	0.000507	5.066982	0.858370	0.000101
 433	4.2984e+01	8.6050	79.759672	0.000568	5.675020	0.961374	0.000114
 434	4.3084e+01	8.6242	79.872712	0.000568	5.675020	0.961374	0.000114
 435	4.3183e+01	8.6443	79.997863	0.000628	6.283058	1.064379	0.000126
 436	4.3282e+01	8.6634	80.098792	0.000507	5.066982	0.858370	0.000101
 437	4.3382e+01	8.6842	80.211831	0.000568	5.675020	0.961374	0.000114
 438	4.3481e+01	8.7032	80.316797	0.000527	5.269662	0.892705	0.000105
 439	4.3581e+01	8.7241	80.454060	0.000689	6.891096	1.167383	0.000138
 440	4.3681e+01	8.7440	80.571136	0.000588	5.877699	0.995709	0.000118
 441	4.3780e+01	8.7650	80.688213	0.000588	5.877699	0.995709	0.000118
 442	4.3880e+01	8.7842	80.809328	0.000608	6.080379	1.030044	0.000122
 443	4.3979e+01	8.8037	80.906219	0.000486	4.864303	0.824035	0.000097
 444	4.4078e+01	8.8244	81.011184	0.000527	5.269662	0.892705	0.000105
 445	4.4178e+01	8.8435	81.180744	0.000851	8.512530	1.442062	0.000170
 446	4.4278e+01	8.8631	81.277635	0.000486	4.864303	0.824035	0.000097
 447	4.4377e+01	8.8827	81.382601	0.000527	5.269662	0.892705	0.000105
 448	4.4477e+01	8.9029	81.499678	0.000588	5.877699	0.995709	0.000118
 449	4.4576e+01	8.9239	81.632903	0.000669	6.688417	1.133048	0.000134
 450	4.4675e+01	8.9424	81.721720	0.000446	4.458944	0.755366	0.000089
 451	4.4775e+01	8.9620	81.826686	0.000527	5.269662	0.892705	0.000105
 452	4.4874e+01	8.9825	81.967985	0.000709	7.093775	1.201718	0.000142
 453	4.4974e+01	9.0027	82.085062	0.000588	5.877699	0.995709	0.000118
 454	4.5074e+01	9.0224	82.173879	0.000446	4.458944	0.755366	0.000089
 455	4.5173e+01	9.0421	82.311142	0.000689	6.891096	1.167383	0.000138
 456	4.5273e+01	9.0626	82.428219	0.000588	5.877699	0.995709	0.000118
 457	4.5372e+01	9.0820	82.557407	0.000649	6.485737	1.098714	0.000130
 458	4.5471e+01	9.1022	82.662373	0.000527	5.269662	0.892705	0.000105
 459	4.5571e+01	9.1216	82.751190	0.000446	4.458944	0.755366	0.000089
 460	4.5670e+01	9.1419	82.848081	0.000486	4.864303	0.824035	0.000097
 461	4.5770e+01	9.1615	83.013604	0.000831	8.309851	1.407727	0.000166
 462	4.5870e+01	9.1811	83.090309	0.000385	3.850907	0.652361	0.000077
 463	4.5969e+01	9.2017	83.215460	0.000628	6.283058	1.064379	0.000126
 464	4.6069e+01	9.2223	83.364834	0.000750	7.499134	1.270388	0.000150
 465	4.6168e+01	9.2422	83.445577	0.000405	4.053586	0.686696	0.000081
 466	4.6267e+01	9.2617	83.582840	0.000689	6.891096	1.167383	0.000138
 467	4.6367e+01	9.2804	83.699917	0.000588	5.877699	0.995709	0.000118
 468	4.6467e+01	9.3011	83.812956	0.000568	5.675020	0.961374	0.000114
 469	4.6566e+01	9.3206	83.921959	0.000547	5.472341	0.927040	0.000110
 470	4.6666e+01	9.3409	84.010776	0.000446	4.458944	0.755366	0.000089
 471	4.6765e+01	9.3610	84.127853	0.000588	5.877699	0.995709	0.000118
 472	4.6864e+01	9.3811	84.244930	0.000588	5.877699	0.995709	0.000118
 473	4.6964e+01	9.4021	84.357970	0.000568	5.675020	0.961374	0.000114
 474	4.7063e+01	9.4192	84.458898	0.000507	5.066982	0.858370	0.000101
 475	4.7163e+01	9.4402	84.575975	0.000588	5.877699	0.995709	0.000118
 476	4.7263e+01	9.4611	84.705163	0.000649	6.485737	1.098714	0.000130
 477	4.7362e+01	9.4801	84.806092	0.000507	5.066982	0.858370	0.000101
 478	4.7462e+01	9.5013	84.947392	0.000709	7.093775	1.201718	0.000142
 479	4.7561e+01	9.5205	85.048320	0.000507	5.066982	0.858370	0.000101
 480	4.7660e+01	9.5402	85.197694	0.000750	7.499134	1.270388	0.000150
 481	4.7760e+01	9.5592	85.290548	0.000466	4.661624	0.789700	0.000093
 482	4.7859e+01	9.5805	85.391477	0.000507	5.066982	0.858370	0.000101
 483	4.7959e+01	9.6004	85.512591	0.000608	6.080379	1.030044	0.000122
 484	4.8059e+01	9.6210	85.653890	0.000709	7.093775	1.201718	0.000142
 485	4.8158e+01	9.6405	85.726559	0.000365	3.648227	0.618026	0.000073
 486	4.8258e+01	9.6600	85.859784	0.000669	6.688417	1.133048	0.000134
 487	4.8357e+01	9.6790	85.968787	0.000547	5.472341	0.927040	0.000110
 488	4.8456e+01	9.6987	86.097975	0.000649	6.485737	1.098714	0.000130
 489	4.8556e+01	9.7190	86.215052	0.000588	5.877699	0.995709	0.000118
 490	4.8656e+01	9.7400	86.328092	0.000568	5.675020	0.961374	0.000114
 491	4.8755e+01	9.7596	86.449206	0.000608	6.080379	1.030044	0.000122
 492	4.8855e+01	9.7786	86.542060	0.000466	4.661624	0.789700	0.000093
 493	4.8954e+01	9.7980	86.659137	0.000588	5.877699	0.995709	0.000118
 494	4.9053e+01	9.8188	86.772177	0.000568	5.675020	0.961374	0.000114
 495	4.9153e+01	9.8393	86.925588	0.000770	7.701813	1.304722	0.000154
 496	4.9252e+01	9.8588	87.006331	0.000405	4.053586	0.686696	0.000081
 497	4.9352e+01	9.8796	87.131482	0.000628	6.283058	1.064379	0.000126
 498	4.9452e+01	9.8994	87.244522	0.000568	5.675020	0.961374	0.000114
 499	4.9551e+01	9.9191	87.361599	0.000588	5.877699	0.995709	0.000118
 500	4.9651e+01	9.9377	87.462527	0.000507	5.066982	0.858370	0.000101
 501	4.9750e+01	9.9580	87.607864	0.000730	7.296454	1.236053	0.000146
 502	4.9849e+01	9.9776	87.696681	0.000446	4.458944	0.755366	0.000089
 503	4.9949e+01	9.9988	87.829907	0.000669	6.688417	1.133048	0.000134
 504	5.0048e+01	9.9786	87.716867	0.000568	5.675020	0.961374	-0.000114
 505	5.0148e+01	9.9590	87.672458	0.000223	2.229472	0.377683	-0.000045
 506	5.0248e+01	9.9383	87.583641	0.000446	4.458944	0.755366	-0.000089
 507	5.0347e+01	9.9189	87.515010	0.000345	3.445548	0.583692	-0.000069
 508	5.0447e+01	9.8977	87.418119	0.000486	4.864303	0.824035	-0.000097
 509	5.0546e+01	9.8788	87.385822	0.000162	1.621434	0.274678	-0.000032
 510	5.0645e+01	9.8584	87.272782	0.000568	5.675020	0.961374	-0.000114
 511	5.0745e+01	9.8389	87.200113	0.000365	3.648227	0.618026	-0.000073
 512	5.0844e+01	9.8187	87.123408	0.000385	3.850907	0.652361	-0.000077
 513	5.0944e+01	9.8002	87.038628	0.000426	4.256265	0.721031	-0.000085
 514	5.1044e+01	9.7797	86.953848	0.000426	4.256265	0.721031	-0.000085
 515	5.1143e+01	9.7601	86.852920	0.000507	5.066982	0.858370	-0.000101
 516	5.1242e+01	9.7390	86.824660	0.000142	1.418755	0.240344	-0.000028
 517	5.1342e+01	9.7201	86.719694	0.000527	5.269662	0.892705	-0.000105
 518	5.1441e+01	9.6997	86.630877	0.000446	4.458944	0.755366	-0.000089
 519	5.1541e+01	9.6790	86.538023	0.000466	4.661624	0.789700	-0.000093
 520	5.1641e+01	9.6597	86.441132	0.000486	4.864303	0.824035	-0.000097
 521	5.1740e+01	9.6400	86.368463	0.000365	3.648227	0.618026	-0.000073
 522	5.1840e+01	9.6186	86.275609	0.000466	4.661624	0.789700	-0.000093
 523	5.1939e+01	9.5999	86.186792	0.000446	4.458944	0.755366	-0.000089
 524	5.2038e+01	9.5793	86.130272	0.000284	2.837510	0.480687	-0.000057
 525	5.2138e+01	9.5596	86.029344	0.000507	5.066982	0.858370	-0.000101
 526	5.2237e+01	9.5403	85.944564	0.000426	4.256265	0.721031	-0.000085
 527	5.2337e+01	9.5215	85.839599	0.000527	5.269662	0.892705	-0.000105
 528	5.2437e+01	9.5006	85.783079	0.000284	2.837510	0.480687	-0.000057
 529	5.2536e+01	9.4812	85.678113	0.000527	5.269662	0.892705	-0.000105
 530	5.2636e+01	9.4598	85.532776	0.000730	7.296454	1.236053	-0.000146
 531	5.2735e+01	9.4405	85.524702	0.000041	0.405359	0.068670	-0.000008
 532	5.2834e+01	9.4212	85.431848	0.000466	4.661624	0.789700	-0.000093
 533	5.2934e+01	9.4010	85.330920	0.000507	5.066982	0.858370	-0.000101
 534	5.3033e+01	9.3829	85.225954	0.000527	5.269662	0.892705	-0.000105
 535	5.3133e+01	9.3604	85.153286	0.000365	3.648227	0.618026	-0.000073
 536	5.3233e+01	9.3408	85.064469	0.000446	4.458944	0.755366	-0.000089
 537	5.3332e+01	9.3204	84.975652	0.000446	4.458944	0.755366	-0.000089
 538	5.3431e+01	9.3018	84.874723	0.000507	5.066982	0.858370	-0.000101
 539	5.3531e+01	9.2817	84.785906	0.000446	4.458944	0.755366	-0.000089
 540	5.3630e+01	9.2616	84.705163	0.000405	4.053586	0.686696	-0.000081
 541	5.3730e+01	9.2414	84.632495	0.000365	3.648227	0.618026	-0.000073
 542	5.3830e+01	9.2217	84.511381	0.000608	6.080379	1.030044	-0.000122
 543	5.3929e+01	9.2023	84.466972	0.000223	2.229472	0.377683	-0.000045
 544	5.4029e+01	9.1814	84.341821	0.000628	6.283058	1.064379	-0.000126
 545	5.4128e+01	9.1622	84.297413	0.000223	2.229472	0.377683	-0.000045
 546	5.4227e+01	9.1419	84.180336	0.000588	5.877699	0.995709	-0.000118
 547	5.4327e+01	9.1220	84.063259	0.000588	5.877699	0.995709	-0.000118
 548	5.4426e+01	9.1026	83.990590	0.000365	3.648227	0.618026	-0.000073
 549	5.4526e+01	9.0820	83.869476	0.000608	6.080379	1.030044	-0.000122
 550	5.4626e+01	9.0625	83.792771	0.000385	3.850907	0.652361	-0.000077
 551	5.4725e+01	9.0409	83.716065	0.000385	3.850907	0.652361	-0.000077
 552	5.4825e+01	9.0217	83.590914	0.000628	6.283058	1.064379	-0.000126
 553	5.4924e+01	9.0032	83.498060	0.000466	4.661624	0.789700	-0.000093
 554	5.5023e+01	8.9822	83.417317	0.000405	4.053586	0.686696	-0.000081
 555	5.5123e+01	8.9634	83.336574	0.000405	4.053586	0.686696	-0.000081
 556	5.5222e+01	8.9423	83.231609	0.000527	5.269662	0.892705	-0.000105
 557	5.5322e+01	8.9228	83.142792	0.000446	4.458944	0.755366	-0.000089
 558	5.5422e+01	8.9031	83.037826	0.000527	5.269662	0.892705	-0.000105
 559	5.5521e+01	8.8818	82.924787	0.000568	5.675020	0.961374	-0.000114
 560	5.5620e+01	8.8629	82.860192	0.000324	3.242869	0.549357	-0.000065
 561	5.5720e+01	8.8445	82.759264	0.000507	5.066982	0.858370	-0.000101
 562	5.5819e+01	8.8248	82.670447	0.000446	4.458944	0.755366	-0.000089
 563	5.5919e+01	8.8045	82.557407	0.000568	5.675020	0.961374	-0.000114
 564	5.6019e+01	8.7833	82.472627	0.000426	4.256265	0.721031	-0.000085
 565	5.6118e+01	8.7638	82.408033	0.000324	3.242869	0.549357	-0.000065
 566	5.6218e+01	8.7443	82.262696	0.000730	7.296454	1.236053	-0.000146
 567	5.6317e+01	8.7241	82.153694	0.000547	5.472341	0.927040	-0.000110
 568	5.6416e+01	8.7046	82.060840	0.000466	4.661624	0.789700	-0.000093
 569	5.6516e+01	8.6854	81.959911	0.000507	5.066982	0.858370	-0.000101
 570	5.6615e+01	8.6629	81.887243	0.000365	3.648227	0.618026	-0.000073
 571	5.6715e+01	8.6445	81.786314	0.000507	5.066982	0.858370	-0.000101
 572	5.6815e+01	8.6240	81.669237	0.000588	5.877699	0.995709	-0.000118
 573	5.6914e+01	8.6051	81.523901	0.000730	7.296454	1.236053	-0.000146
 574	5.7014e+01	8.5844	81.463343	0.000304	3.040189	0.515022	-0.000061
 575	5.7113e+01	8.5656	81.374527	0.000446	4.458944	0.755366	-0.000089
 576	5.7212e+01	8.5450	81.289747	0.000426	4.256265	0.721031	-0.000085
 577	5.7312e+01	8.5271	81.168633	0.000608	6.080379	1.030044	-0.000122
 578	5.7411e+01	8.5046	81.079816	0.000446	4.458944	0.755366	-0.000089
 579	5.7511e+01	8.4855	80.978887	0.000507	5.066982	0.858370	-0.000101
 580	5.7611e+01	8.4658	80.833550	0.000730	7.296454	1.236053	-0.000146
 581	5.7710e+01	8.4451	80.768956	0.000324	3.242869	0.549357	-0.000065
 582	5.7809e+01	8.4257	80.672065	0.000486	4.864303	0.824035	-0.000097
 583	5.7909e+01	8.4049	80.514617	0.000790	7.904492	1.339057	-0.000158
 584	5.8008e+01	8.3846	80.466171	0.000243	2.432151	0.412018	-0.000049
 585	5.8108e+01	8.3657	80.349094	0.000588	5.877699	0.995709	-0.000118
 586	5.8208e+01	8.3454	80.260277	0.000446	4.458944	0.755366	-0.000089
 587	5.8307e+01	8.3256	80.139163	0.000608	6.080379	1.030044	-0.000122
 588	5.8407e+01	8.3058	80.030160	0.000547	5.472341	0.927040	-0.000110
 589	5.8506e+01	8.2862	79.965566	0.000324	3.242869	0.549357	-0.000065
 590	5.8605e+01	8.2658	79.884823	0.000405	4.053586	0.686696	-0.000081
 591	5.8705e+01	8.2458	79.779858	0.000527	5.269662	0.892705	-0.000105
 592	5.8804e+01	8.2263	79.646632	0.000669	6.688417	1.133048	-0.000134
 593	5.8904e+01	8.2065	79.545704	0.000507	5.066982	0.858370	-0.000101
 594	5.9004e+01	8.1863	79.456887	0.000446	4.458944	0.755366	-0.000089
 595	5.9103e+01	8.1664	79.355959	0.000507	5.066982	0.858370	-0.000101
 596	5.9203e+01	8.1464	79.242919	0.000568	5.675020	0.961374	-0.000114
 597	5.9302e+01	8.1264	79.146028	0.000486	4.864303	0.824035	-0.000097
 598	5.9401e+01	8.1068	79.073359	0.000365	3.648227	0.618026	-0.000073
 599	5.9501e+01	8.0868	78.936097	0.000689	6.891096	1.167383	-0.000138
 600	5.9600e+01	8.0671	78.855354	0.000405	4.053586	0.686696	-0.000081
 601	5.9700e+01	8.0473	78.758463	0.000486	4.864303	0.824035	-0.000097
 602	5.9800e+01	8.0265	78.669646	0.000446	4.458944	0.755366	-0.000089
 603	5.9899e+01	8.0068	78.596977	0.000365	3.648227	0.618026	-0.000073
 604	5.9998e+01	7.9868	78.411269	0.000932	9.323247	1.579401	-0.000187
 605	6.0098e+01	7.9675	78.370898	0.000203	2.026793	0.343348	-0.000041
 606	6.0197e+01	7.9472	78.245746	0.000628	6.283058	1.064379	-0.000126
 607	6.0297e+01	7.9279	78.140781	0.000527	5.269662	0.892705	-0.000105
 608	6.0397e+01	7.9071	78.047927	0.000466	4.661624	0.789700	-0.000093
 609	6.0496e+01	7.8874	77.934887	0.000568	5.675020	0.961374	-0.000114
 610	6.0596e+01	7.8682	77.821847	0.000568	5.675020	0.961374	-0.000114
 611	6.0695e+01	7.8472	77.733030	0.000446	4.458944	0.755366	-0.000089
 612	6.0794e+01	7.8274	77.652287	0.000405	4.053586	0.686696	-0.000081
 613	6.0894e+01	7.8084	77.527136	0.000628	6.283058	1.064379	-0.000126
 614	6.0993e+01	7.7884	77.430245	0.000486	4.864303	0.824035	-0.000097
 615	6.1093e+01	7.7686	77.321242	0.000547	5.472341	0.927040	-0.000110
 616	6.1193e+01	7.7477	77.208202	0.000568	5.675020	0.961374	-0.000114
 617	6.1292e+01	7.7280	77.131497	0.000385	3.850907	0.652361	-0.000077
 618	6.1392e+01	7.7078	77.006346	0.000628	6.283058	1.064379	-0.000126
 619	6.1491e+01	7.6872	76.893306	0.000568	5.675020	0.961374	-0.000114
 620	6.1590e+01	7.6683	76.804489	0.000446	4.458944	0.755366	-0.000089
 621	6.1690e+01	7.6485	76.671263	0.000669	6.688417	1.133048	-0.000134
 622	6.1789e+01	7.6281	76.594558	0.000385	3.850907	0.652361	-0.000077
 623	6.1889e+01	7.6083	76.469407	0.000628	6.283058	1.064379	-0.000126
 624	6.1989e+01	7.5893	76.384627	0.000426	4.256265	0.721031	-0.000085
 625	6.2088e+01	7.5693	76.267550	0.000588	5.877699	0.995709	-0.000118
 626	6.2188e+01	7.5491	76.118176	0.000750	7.499134	1.270388	-0.000150
 627	6.2287e+01	7.5290	76.045507	0.000365	3.648227	0.618026	-0.000073
 628	6.2386e+01	7.5091	75.920356	0.000628	6.283058	1.064379	-0.000126
 629	6.2486e+01	7.4895	75.839613	0.000405	4.053586	0.686696	-0.000081
 630	6.2586e+01	7.4691	75.762908	0.000385	3.850907	0.652361	-0.000077
 631	6.2685e+01	7.4500	75.601422	0.000811	8.107172	1.373392	-0.000162
 632	6.2785e+01	7.4300	75.516643	0.000426	4.256265	0.721031	-0.000085
 633	6.2884e+01	7.4099	75.456086	0.000304	3.040189	0.515022	-0.000061
 634	6.2983e+01	7.3899	75.314786	0.000709	7.093775	1.201718	-0.000142
 635	6.3083e+01	7.3692	75.217895	0.000486	4.864303	0.824035	-0.000097
 636	6.3182e+01	7.3504	75.112929	0.000527	5.269662	0.892705	-0.000105
 637	6.3282e+01	7.3310	75.003926	0.000547	5.472341	0.927040	-0.000110
 638	6.3382e+01	7.3100	74.866664	0.000689	6.891096	1.167383	-0.000138
 639	6.3481e+01	7.2905	74.798032	0.000345	3.445548	0.583692	-0.000069
 640	6.3581e+01	7.2706	74.709215	0.000446	4.458944	0.755366	-0.000089
 641	6.3680e+01	7.2502	74.604250	0.000527	5.269662	0.892705	-0.000105
 642	6.3779e+01	7.2301	74.422579	0.000912	9.120568	1.545066	-0.000183
 643	6.3879e+01	7.2102	74.370096	0.000263	2.634831	0.446352	-0.000053
 644	6.3978e+01	7.1912	74.261093	0.000547	5.472341	0.927040	-0.000110
 645	6.4078e+01	7.1708	74.156128	0.000527	5.269662	0.892705	-0.000105
 646	6.4177e+01	7.1519	74.043088	0.000568	5.675020	0.961374	-0.000114
 647	6.4277e+01	7.1313	73.958308	0.000426	4.256265	0.721031	-0.000085
 648	6.4376e+01	7.1108	73.804897	0.000770	7.701813	1.304722	-0.000154
 649	6.4476e+01	7.0910	73.720117	0.000426	4.256265	0.721031	-0.000085
 650	6.4576e+01	7.0711	73.647449	0.000365	3.648227	0.618026	-0.000073
 651	6.4675e+01	7.0510	73.518260	0.000649	6.485737	1.098714	-0.000130
 652	6.4775e+01	7.0313	73.405221	0.000568	5.675020	0.961374	-0.000114
 653	6.4874e+01	7.0110	73.328515	0.000385	3.850907	0.652361	-0.000077
 654	6.4974e+01	6.9915	73.195289	0.000669	6.688417	1.133048	-0.000134
 655	6.5073e+01	6.9718	73.082250	0.000568	5.675020	0.961374	-0.000114
 656	6.5172e+01	6.9512	73.017656	0.000324	3.242869	0.549357	-0.000065
 657	6.5272e+01	6.9320	72.908653	0.000547	5.472341	0.927040	-0.000110
 658	6.5371e+01	6.9127	72.763316	0.000730	7.296454	1.236053	-0.000146
 659	6.5471e+01	6.8915	72.670462	0.000466	4.661624	0.789700	-0.000093
 660	6.5570e+01	6.8707	72.585682	0.000426	4.256265	0.721031	-0.000085
 661	6.5670e+01	6.8507	72.480716	0.000527	5.269662	0.892705	-0.000105
 662	6.5769e+01	6.8325	72.371714	0.000547	5.472341	0.927040	-0.000110
 663	6.5869e+01	6.8133	72.258674	0.000568	5.675020	0.961374	-0.000114
 664	6.5969e+01	6.7920	72.157746	0.000507	5.066982	0.858370	-0.000101
 665	6.6068e+01	6.7727	72.052780	0.000527	5.269662	0.892705	-0.000105
 666	6.6168e+01	6.7526	71.947815	0.000527	5.269662	0.892705	-0.000105
 667	6.6267e+01	6.7329	71.838812	0.000547	5.472341	0.927040	-0.000110
 668	6.6367e+01	6.7123	71.758069	0.000405	4.053586	0.686696	-0.000081
 669	6.6466e+01	6.6927	71.612732	0.000730	7.296454	1.236053	-0.000146
 670	6.6566e+01	6.6733	71.536027	0.000385	3.850907	0.652361	-0.000077
 671	6.6665e+01	6.6532	71.435098	0.000507	5.066982	0.858370	-0.000101
 672	6.6764e+01	6.6323	71.305910	0.000649	6.485737	1.098714	-0.000130
 673	6.6864e+01	6.6134	71.180759	0.000628	6.283058	1.064379	-0.000126
 674	6.6963e+01	6.5926	71.120202	0.000304	3.040189	0.515022	-0.000061
 675	6.7063e+01	6.5732	70.966791	0.000770	7.701813	1.304722	-0.000154
 676	6.7162e+01	6.5528	70.873936	0.000466	4.661624	0.789700	-0.000093
 677	6.7262e+01	6.5337	70.744748	0.000649	6.485737	1.098714	-0.000130
 678	6.7362e+01	6.5124	70.676117	0.000345	3.445548	0.583692	-0.000069
 679	6.7461e+01	6.4935	70.542891	0.000669	6.688417	1.133048	-0.000134
 680	6.7561e+01	6.4735	70.417740	0.000628	6.283058	1.064379	-0.000126
 681	6.7660e+01	6.4532	70.308737	0.000547	5.472341	0.927040	-0.000110
 682	6.7760e+01	6.4335	70.215883	0.000466	4.661624	0.789700	-0.000093
 683	6.7859e+01	6.4141	70.062472	0.000770	7.701813	1.304722	-0.000154
 684	6.7959e+01	6.3928	69.949432	0.000568	5.675020	0.961374	-0.000114
 685	6.8058e+01	6.3735	69.856578	0.000466	4.661624	0.789700	-0.000093
 686	6.8157e+01	6.3534	69.787947	0.000345	3.445548	0.583692	-0.000069
 687	6.8257e+01	6.3345	69.662796	0.000628	6.283058	1.064379	-0.000126
 688	6.8356e+01	6.3128	69.541682	0.000608	6.080379	1.030044	-0.000122
 689	6.8456e+01	6.2954	69.444790	0.000486	4.864303	0.824035	-0.000097
 690	6.8555e+01	6.2749	69.307528	0.000689	6.891096	1.167383	-0.000138
 691	6.8655e+01	6.2545	69.202562	0.000527	5.269662	0.892705	-0.000105
 692	6.8754e+01	6.2347	69.053188	0.000750	7.499134	1.270388	-0.000150
 693	6.8854e+01	6.2153	68.992631	0.000304	3.040189	0.515022	-0.000061
 694	6.8954e+01	6.1948	68.891703	0.000507	5.066982	0.858370	-0.000101
 695	6.9053e+01	6.1752	68.758477	0.000669	6.688417	1.133048	-0.000134
 696	6.9153e+01	6.1550	68.645438	0.000568	5.675020	0.961374	-0.000114
 697	6.9252e+01	6.1355	68.520286	0.000628	6.283058	1.064379	-0.000126
 698	6.9352e+01	6.1149	68.439544	0.000405	4.053586	0.686696	-0.000081
 699	6.9451e+01	6.0950	68.354764	0.000426	4.256265	0.721031	-0.000085
 700	6.9550e+01	6.0742	68.181167	0.000872	8.715209	1.476396	-0.000174
 701	6.9650e+01	6.0551	68.084276	0.000486	4.864303	0.824035	-0.000097
 702	6.9749e+01	6.0352	67.987384	0.000486	4.864303	0.824035	-0.000097
 703	6.9849e+01	6.0159	67.886456	0.000507	5.066982	0.858370	-0.000101
 704	6.9948e+01	5.9959	67.773416	0.000568	5.675020	0.961374	-0.000114
 705	7.0048e+01	5.9762	67.644228	0.000649	6.485737	1.098714	-0.000130
 706	7.0147e+01	5.9563	67.527151	0.000588	5.877699	0.995709	-0.000118
 707	7.0247e+01	5.9365	67.422185	0.000527	5.269662	0.892705	-0.000105
 708	7.0347e+01	5.9163	67.288960	0.000669	6.688417	1.133048	-0.000134
 709	7.0446e+01	5.8962	67.167846	0.000608	6.080379	1.030044	-0.000122
 710	7.0546e+01	5.8762	67.070955	0.000486	4.864303	0.824035	-0.000097
 711	7.0645e+01	5.8566	66.937729	0.000669	6.688417	1.133048	-0.000134
 712	7.0745e+01	5.8363	66.856986	0.000405	4.053586	0.686696	-0.000081
 713	7.0844e+01	5.8165	66.739909	0.000588	5.877699	0.995709	-0.000118
 714	7.0944e+01	5.7964	66.638981	0.000507	5.066982	0.858370	-0.000101
 715	7.1043e+01	5.7768	66.473458	0.000831	8.309851	1.407727	-0.000166
 716	7.1142e+01	5.7561	66.376567	0.000486	4.864303	0.824035	-0.000097
 717	7.1242e+01	5.7363	66.279676	0.000486	4.864303	0.824035	-0.000097
 718	7.1341e+01	5.7169	66.166636	0.000568	5.675020	0.961374	-0.000114
 719	7.1441e+01	5.6973	66.053596	0.000568	5.675020	0.961374	-0.000114
 720	7.1540e+01	5.6762	65.916334	0.000689	6.891096	1.167383	-0.000138
 721	7.1640e+01	5.6568	65.787145	0.000649	6.485737	1.098714	-0.000130
 722	7.1740e+01	5.6374	65.682180	0.000527	5.269662	0.892705	-0.000105
 723	7.1839e+01	5.6176	65.552992	0.000649	6.485737	1.098714	-0.000130
 724	7.1939e+01	5.5975	65.435915	0.000588	5.877699	0.995709	-0.000118
 725	7.2038e+01	5.5775	65.351135	0.000426	4.256265	0.721031	-0.000085
 726	7.2138e+01	5.5586	65.193686	0.000790	7.904492	1.339057	-0.000158
 727	7.2237e+01	5.5375	65.092758	0.000507	5.066982	0.858370	-0.000101
 728	7.2337e+01	5.5169	64.975681	0.000588	5.877699	0.995709	-0.000118
 729	7.2436e+01	5.4981	64.854567	0.000608	6.080379	1.030044	-0.000122
 730	7.2535e+01	5.4778	64.725379	0.000649	6.485737	1.098714	-0.000130
 731	7.2635e+01	5.4577	64.592153	0.000669	6.688417	1.133048	-0.000134
 732	7.2734e+01	5.4375	64.487188	0.000527	5.269662	0.892705	-0.000105
 733	7.2834e+01	5.4169	64.394334	0.000466	4.661624	0.789700	-0.000093
 734	7.2933e+01	5.3983	64.253034	0.000709	7.093775	1.201718	-0.000142
 735	7.3033e+01	5.3788	64.123845	0.000649	6.485737	1.098714	-0.000130
 736	7.3132e+01	5.3579	64.006769	0.000588	5.877699	0.995709	-0.000118
 737	7.3232e+01	5.3384	63.869506	0.000689	6.891096	1.167383	-0.000138
 738	7.3332e+01	5.3184	63.764540	0.000527	5.269662	0.892705	-0.000105
 739	7.3431e+01	5.2979	63.631315	0.000669	6.688417	1.133048	-0.000134
 740	7.3531e+01	5.2784	63.490015	0.000709	7.093775	1.201718	-0.000142
 741	7.3630e+01	5.2583	63.389087	0.000507	5.066982	0.858370	-0.000101
 742	7.3730e+01	5.2385	63.280084	0.000547	5.472341	0.927040	-0.000110
 743	7.3829e+01	5.2188	63.134747	0.000730	7.296454	1.236053	-0.000146
 744	7.3928e+01	5.1992	62.997485	0.000689	6.891096	1.167383	-0.000138
 745	7.4028e+01	5.1788	62.884445	0.000568	5.675020	0.961374	-0.000114
 746	7.4127e+01	5.1586	62.767368	0.000588	5.877699	0.995709	-0.000118
 747	7.4227e+01	5.1388	62.666439	0.000507	5.066982	0.858370	-0.000101
 748	7.4326e+01	5.1189	62.525140	0.000709	7.093775	1.201718	-0.000142
 749	7.4426e+01	5.0996	62.424211	0.000507	5.066982	0.858370	-0.000101
 750	7.4525e+01	5.0784	62.274837	0.000750	7.499134	1.270388	-0.000150
 751	7.4625e+01	5.0594	62.165835	0.000547	5.472341	0.927040	-0.000110
 752	7.4725e+01	5.0391	62.024535	0.000709	7.093775	1.201718	-0.000142
 753	7.4824e+01	5.0201	61.895347	0.000649	6.485737	1.098714	-0.000130
 754	7.4924e+01	4.9993	61.766158	0.000649	6.485737	1.098714	-0.000130
 755	7.5023e+01	4.9799	61.661193	0.000527	5.269662	0.892705	-0.000105
 756	7.5123e+01	4.9615	61.536041	0.000628	6.283058	1.064379	-0.000126
 757	7.5222e+01	4.9398	61.406853	0.000649	6.485737	1.098714	-0.000130
 758	7.5322e+01	4.9200	61.285739	0.000608	6.080379	1.030044	-0.000122
 759	7.5421e+01	4.8999	61.172699	0.000568	5.675020	0.961374	-0.000114
 760	7.5520e+01	4.8806	61.035437	0.000689	6.891096	1.167383	-0.000138
 761	7.5620e+01	4.8598	60.934508	0.000507	5.066982	0.858370	-0.000101
 762	7.5719e+01	4.8403	60.805320	0.000649	6.485737	1.098714	-0.000130
 763	7.5819e+01	4.8204	60.668057	0.000689	6.891096	1.167383	-0.000138
 764	7.5918e+01	4.8005	60.502535	0.000831	8.309851	1.407727	-0.000166
 765	7.6018e+01	4.7808	60.437941	0.000324	3.242869	0.549357	-0.000065
 766	7.6118e+01	4.7601	60.280492	0.000790	7.904492	1.339057	-0.000158
 767	7.6217e+01	4.7393	60.143230	0.000689	6.891096	1.167383	-0.000138
 768	7.6317e+01	4.7202	60.038264	0.000527	5.269662	0.892705	-0.000105
 769	7.6416e+01	4.7011	59.880816	0.000790	7.904492	1.339057	-0.000158
 770	7.6516e+01	4.6806	59.779887	0.000507	5.066982	0.858370	-0.000101
 771	7.6615e+01	4.6609	59.687033	0.000466	4.661624	0.789700	-0.000093
 772	7.6715e+01	4.6413	59.517474	0.000851	8.512530	1.442062	-0.000170
 773	7.6814e+01	4.6210	59.416545	0.000507	5.066982	0.858370	-0.000101
 774	7.6913e+01	4.6012	59.283320	0.000669	6.688417	1.133048	-0.000134
 775	7.7013e+01	4.5821	59.137983	0.000730	7.296454	1.236053	-0.000146
 776	7.7112e+01	4.5621	59.028980	0.000547	5.472341	0.927040	-0.000110
 777	7.7212e+01	4.5415	58.899792	0.000649	6.485737	1.098714	-0.000130
 778	7.7311e+01	4.5216	58.754455	0.000730	7.296454	1.236053	-0.000146
 779	7.7411e+01	4.5014	58.665638	0.000446	4.458944	0.755366	-0.000089
 780	7.7510e+01	4.4813	58.520301	0.000730	7.296454	1.236053	-0.000146
 781	7.7610e+01	4.4620	58.403224	0.000588	5.877699	0.995709	-0.000118
 782	7.7710e+01	4.4418	58.282110	0.000608	6.080379	1.030044	-0.000122
 783	7.7809e+01	4.4222	58.144847	0.000689	6.891096	1.167383	-0.000138
 784	7.7909e+01	4.4018	57.999511	0.000730	7.296454	1.236053	-0.000146
 785	7.8008e+01	4.3821	57.898582	0.000507	5.066982	0.858370	-0.000101
 786	7.8108e+01	4.3620	57.757282	0.000709	7.093775	1.201718	-0.000142
 787	7.8207e+01	4.3420	57.628094	0.000649	6.485737	1.098714	-0.000130
 788	7.8306e+01	4.3219	57.490831	0.000689	6.891096	1.167383	-0.000138
 789	7.8406e+01	4.3028	57.369717	0.000608	6.080379	1.030044	-0.000122
 790	7.8505e+01	4.2827	57.228418	0.000709	7.093775	1.201718	-0.000142
 791	7.8605e+01	4.2632	57.111341	0.000588	5.877699	0.995709	-0.000118
 792	7.8704e+01	4.2425	56.978115	0.000669	6.688417	1.133048	-0.000134
 793	7.8804e+01	4.2237	56.804518	0.000872	8.715209	1.476396	-0.000174
 794	7.8903e+01	4.2022	56.683404	0.000608	6.080379	1.030044	-0.000122
 795	7.9003e+01	4.1831	56.594587	0.000446	4.458944	0.755366	-0.000089
 796	7.9103e+01	4.1625	56.433102	0.000811	8.107172	1.373392	-0.000162
 797	7.9202e+01	4.1431	56.332174	0.000507	5.066982	0.858370	-0.000101
 798	7.9302e+01	4.1233	56.178762	0.000770	7.701813	1.304722	-0.000154
 799	7.9401e+01	4.1036	56.098020	0.000405	4.053586	0.686696	-0.000081
 800	7.9501e+01	4.0837	55.952683	0.000730	7.296454	1.236053	-0.000146
 801	7.9600e+01	4.0641	55.771012	0.000912	9.120568	1.545066	-0.000183
 802	7.9700e+01	4.0434	55.686232	0.000426	4.256265	0.721031	-0.000085
 803	7.9799e+01	4.0235	55.536858	0.000750	7.499134	1.270388	-0.000150
 804	7.9898e+01	4.0026	55.423818	0.000568	5.675020	0.961374	-0.000114
 805	7.9998e+01	3.9834	55.294630	0.000649	6.485737	1.098714	-0.000130
 806	8.0097e+01	3.9642	55.145256	0.000750	7.499134	1.270388	-0.000150
 807	8.0197e+01	3.9433	54.987807	0.000790	7.904492	1.339057	-0.000158
 808	8.0296e+01	3.9236	54.898990	0.000446	4.458944	0.755366	-0.000089
 809	8.0396e+01	3.9049	54.765765	0.000669	6.688417	1.133048	-0.000134
 810	8.0496e+01	3.8846	54.628502	0.000689	6.891096	1.167383	-0.000138
 811	8.0595e+01	3.8647	54.483165	0.000730	7.296454	1.236053	-0.000146
 812	8.0695e+01	3.8445	54.410497	0.000365	3.648227	0.618026	-0.000073
 813	8.0794e+01	3.8241	54.220752	0.000953	9.525927	1.613736	-0.000191
 814	8.0894e+01	3.8035	54.095600	0.000628	6.283058	1.064379	-0.000126
 815	8.0993e+01	3.7838	53.978523	0.000588	5.877699	0.995709	-0.000118
 816	8.1093e+01	3.7656	53.853372	0.000628	6.283058	1.064379	-0.000126
 817	8.1192e+01	3.7453	53.695924	0.000790	7.904492	1.339057	-0.000158
 818	8.1291e+01	3.7256	53.607107	0.000446	4.458944	0.755366	-0.000089
 819	8.1391e+01	3.7045	53.453696	0.000770	7.701813	1.304722	-0.000154
 820	8.1490e+01	3.6855	53.340656	0.000568	5.675020	0.961374	-0.000114
 821	8.1590e+01	3.6657	53.183208	0.000790	7.904492	1.339057	-0.000158
 822	8.1689e+01	3.6446	53.041908	0.000709	7.093775	1.201718	-0.000142
 823	8.1789e+01	3.6250	52.916757	0.000628	6.283058	1.064379	-0.000126
 824	8.1888e+01	3.6059	52.787568	0.000649	6.485737	1.098714	-0.000130
 825	8.1988e+01	3.5855	52.674529	0.000568	5.675020	0.961374	-0.000114
 826	8.2088e+01	3.5659	52.533229	0.000709	7.093775	1.201718	-0.000142
 827	8.2187e+01	3.5459	52.428263	0.000527	5.269662	0.892705	-0.000105
 828	8.2287e+01	3.5255	52.270815	0.000790	7.904492	1.339057	-0.000158
 829	8.2386e+01	3.5060	52.137589	0.000669	6.688417	1.133048	-0.000134
 830	8.2486e+01	3.4856	52.044735	0.000466	4.661624	0.789700	-0.000093
 831	8.2585e+01	3.4658	51.871139	0.000872	8.715209	1.476396	-0.000174
 832	8.2684e+01	3.4467	51.754062	0.000588	5.877699	0.995709	-0.000118
 833	8.2784e+01	3.4264	51.628910	0.000628	6.283058	1.064379	-0.000126
 834	8.2883e+01	3.4073	51.495685	0.000669	6.688417	1.133048	-0.000134
 835	8.2983e+01	3.3862	51.354385	0.000709	7.093775	1.201718	-0.000142
 836	8.3082e+01	3.3665	51.241345	0.000568	5.675020	0.961374	-0.000114
 837	8.3182e+01	3.3457	51.071786	0.000851	8.512530	1.442062	-0.000170
 838	8.3281e+01	3.3263	50.942597	0.000649	6.485737	1.098714	-0.000130
 839	8.3381e+01	3.3065	50.805335	0.000689	6.891096	1.167383	-0.000138
 840	8.3481e+01	3.2861	50.680183	0.000628	6.283058	1.064379	-0.000126
 841	8.3580e+01	3.2664	50.575218	0.000527	5.269662	0.892705	-0.000105
 842	8.3680e+01	3.2469	50.417770	0.000790	7.904492	1.339057	-0.000158
 843	8.3779e+01	3.2269	50.300693	0.000588	5.877699	0.995709	-0.000118
 844	8.3879e+01	3.2067	50.147282	0.000770	7.701813	1.304722	-0.000154
 845	8.3978e+01	3.1861	49.993870	0.000770	7.701813	1.304722	-0.000154
 846	8.4078e+01	3.1674	49.828348	0.000831	8.309851	1.407727	-0.000166
 847	8.4177e+01	3.1477	49.747605	0.000405	4.053586	0.686696	-0.000081
 848	8.4276e+01	3.1272	49.590157	0.000790	7.904492	1.339057	-0.000158
 849	8.4376e+01	3.1075	49.456931	0.000669	6.688417	1.133048	-0.000134
 850	8.4475e+01	3.0880	49.319669	0.000689	6.891096	1.167383	-0.000138
 851	8.4575e+01	3.0678	49.162220	0.000790	7.904492	1.339057	-0.000158
 852	8.4674e+01	3.0472	49.069366	0.000466	4.661624	0.789700	-0.000093
 853	8.4774e+01	3.0275	48.915955	0.000770	7.701813	1.304722	-0.000154
 854	8.4874e+01	3.0074	48.790804	0.000628	6.283058	1.064379	-0.000126
 855	8.4973e+01	2.9872	48.641430	0.000750	7.499134	1.270388	-0.000150
 856	8.5073e+01	2.9668	48.520316	0.000608	6.080379	1.030044	-0.000122
 857	8.5172e+01	2.9476	48.350756	0.000851	8.512530	1.442062	-0.000170
 858	8.5272e+01	2.9276	48.237716	0.000568	5.675020	0.961374	-0.000114
 859	8.5371e+01	2.9073	48.064120	0.000872	8.715209	1.476396	-0.000174
 860	8.5471e+01	2.8871	47.906671	0.000790	7.904492	1.339057	-0.000158
 861	8.5570e+01	2.8681	47.829966	0.000385	3.850907	0.652361	-0.000077
 862	8.5669e+01	2.8478	47.644257	0.000932	9.323247	1.579401	-0.000187
 863	8.5769e+01	2.8274	47.482772	0.000811	8.107172	1.373392	-0.000162
 864	8.5868e+01	2.8078	47.369732	0.000568	5.675020	0.961374	-0.000114
 865	8.5968e+01	2.7890	47.256692	0.000568	5.675020	0.961374	-0.000114
 866	8.6067e+01	2.7685	47.123467	0.000669	6.688417	1.133048	-0.000134
 867	8.6167e+01	2.7485	46.974093	0.000750	7.499134	1.270388	-0.000150
 868	8.6266e+01	2.7281	46.808570	0.000831	8.309851	1.407727	-0.000166
 869	8.6366e+01	2.7089	46.715716	0.000466	4.661624	0.789700	-0.000093
 870	8.6466e+01	2.6885	46.538082	0.000892	8.917889	1.510731	-0.000179
 871	8.6565e+01	2.6685	46.400820	0.000689	6.891096	1.167383	-0.000138
 872	8.6665e+01	2.6482	46.267594	0.000669	6.688417	1.133048	-0.000134
 873	8.6764e+01	2.6290	46.138406	0.000649	6.485737	1.098714	-0.000130
 874	8.6864e+01	2.6080	45.993069	0.000730	7.296454	1.236053	-0.000146
 875	8.6963e+01	2.5890	45.831583	0.000811	8.107172	1.373392	-0.000162
 876	8.7063e+01	2.5696	45.698358	0.000669	6.688417	1.133048	-0.000134
 877	8.7162e+01	2.5500	45.561095	0.000689	6.891096	1.167383	-0.000138
 878	8.7261e+01	2.5283	45.423833	0.000689	6.891096	1.167383	-0.000138
 879	8.7361e+01	2.5094	45.294644	0.000649	6.485737	1.098714	-0.000130
 880	8.7460e+01	2.4895	45.125085	0.000851	8.512530	1.442062	-0.000170
 881	8.7560e+01	2.4699	44.971674	0.000770	7.701813	1.304722	-0.000154
 882	8.7659e+01	2.4493	44.834411	0.000689	6.891096	1.167383	-0.000138
 883	8.7759e+01	2.4289	44.672926	0.000811	8.107172	1.373392	-0.000162
 884	8.7859e+01	2.4098	44.503366	0.000851	8.512530	1.442062	-0.000170
 885	8.7958e+01	2.3903	44.390326	0.000568	5.675020	0.961374	-0.000114
 886	8.8058e+01	2.3706	44.273249	0.000588	5.877699	0.995709	-0.000118
 887	8.8157e+01	2.3506	44.103689	0.000851	8.512530	1.442062	-0.000170
 888	8.8257e+01	2.3302	43.982575	0.000608	6.080379	1.030044	-0.000122
 889	8.8356e+01	2.3103	43.825127	0.000790	7.904492	1.339057	-0.000158
 890	8.8456e+01	2.2904	43.720161	0.000527	5.269662	0.892705	-0.000105
 891	8.8555e+01	2.2710	43.554639	0.000831	8.309851	1.407727	-0.000166
 892	8.8654e+01	2.2500	43.389116	0.000831	8.309851	1.407727	-0.000166
 893	8.8754e+01	2.2297	43.243779	0.000730	7.296454	1.236053	-0.000146
 894	8.8853e+01	2.2103	43.110554	0.000669	6.688417	1.133048	-0.000134
 895	8.8953e+01	2.1911	42.965217	0.000730	7.296454	1.236053	-0.000146
 896	8.9052e+01	2.1713	42.771435	0.000973	9.728606	1.648070	-0.000195
 897	8.9152e+01	2.1521	42.670506	0.000507	5.066982	0.858370	-0.000101
 898	8.9251e+01	2.1308	42.488835	0.000912	9.120568	1.545066	-0.000183
 899	8.9351e+01	2.1109	42.351572	0.000689	6.891096	1.167383	-0.000138
 900	8.9451e+01	2.0911	42.266793	0.000426	4.256265	0.721031	-0.000085
 901	8.9550e+01	2.0706	42.064936	0.001013	10.133965	1.716740	-0.000203
 902	8.9650e+01	2.0510	41.915562	0.000750	7.499134	1.270388	-0.000150
 903	8.9749e+01	2.0318	41.810596	0.000527	5.269662	0.892705	-0.000105
 904	8.9849e+01	2.0119	41.580480	0.001155	11.552720	1.957084	-0.000231
 905	8.9948e+01	1.9912	41.455328	0.000628	6.283058	1.064379	-0.000126
 906	9.0047e+01	1.9723	41.281731	0.000872	8.715209	1.476396	-0.000174
 907	9.0147e+01	1.9515	41.108135	0.000872	8.715209	1.476396	-0.000174
 908	9.0246e+01	1.9314	41.023355	0.000426	4.256265	0.721031	-0.000085
 909	9.0346e+01	1.9128	40.869944	0.000770	7.701813	1.304722	-0.000154
 910	9.0445e+01	1.8922	40.684235	0.000932	9.323247	1.579401	-0.000187
 911	9.0545e+01	1.8723	40.567158	0.000588	5.877699	0.995709	-0.000118
 912	9.0644e+01	1.8518	40.385487	0.000912	9.120568	1.545066	-0.000183
 913	9.0744e+01	1.8318	40.280522	0.000527	5.269662	0.892705	-0.000105
 914	9.0844e+01	1.8124	40.114999	0.000831	8.309851	1.407727	-0.000166
 915	9.0943e+01	1.7916	39.953514	0.000811	8.107172	1.373392	-0.000162
 916	9.1043e+01	1.7720	39.796066	0.000790	7.904492	1.339057	-0.000158
 917	9.1142e+01	1.7516	39.646692	0.000750	7.499134	1.270388	-0.000150
 918	9.1242e+01	1.7330	39.473095	0.000872	8.715209	1.476396	-0.000174
 919	9.1341e+01	1.7129	39.299498	0.000872	8.715209	1.476396	-0.000174
 920	9.1441e+01	1.6924	39.162235	0.000689	6.891096	1.167383	-0.000138
 921	9.1540e+01	1.6737	39.029010	0.000669	6.688417	1.133048	-0.000134
 922	9.1639e+01	1.6523	38.879636	0.000750	7.499134	1.270388	-0.000150
 923	9.1739e+01	1.6331	38.718150	0.000811	8.107172	1.373392	-0.000162
 924	9.1838e+01	1.6128	38.588962	0.000649	6.485737	1.098714	-0.000130
 925	9.1938e+01	1.5936	38.427477	0.000811	8.107172	1.373392	-0.000162
 926	9.2037e+01	1.5732	38.290214	0.000689	6.891096	1.167383	-0.000138
 927	9.2137e+01	1.5536	38.136803	0.000770	7.701813	1.304722	-0.000154
 928	9.2237e+01	1.5327	37.963206	0.000872	8.715209	1.476396	-0.000174
 929	9.2336e+01	1.5134	37.838055	0.000628	6.283058	1.064379	-0.000126
 930	9.2436e+01	1.4935	37.680606	0.000790	7.904492	1.339057	-0.000158
 931	9.2535e+01	1.4730	37.490861	0.000953	9.525927	1.613736	-0.000191
 932	9.2635e+01	1.4534	37.361673	0.000649	6.485737	1.098714	-0.000130
 933	9.2734e+01	1.4332	37.167890	0.000973	9.728606	1.648070	-0.000195
 934	9.2834e+01	1.4138	37.030628	0.000689	6.891096	1.167383	-0.000138
 935	9.2933e+01	1.3940	36.885291	0.000730	7.296454	1.236053	-0.000146
 936	9.3032e+01	1.3735	36.739954	0.000730	7.296454	1.236053	-0.000146
 937	9.3132e+01	1.3538	36.594617	0.000730	7.296454	1.236053	-0.000146
 938	9.3231e+01	1.3332	36.429094	0.000831	8.309851	1.407727	-0.000166
 939	9.3331e+01	1.3145	36.251460	0.000892	8.917889	1.510731	-0.000179
 940	9.3430e+01	1.2941	36.130346	0.000608	6.080379	1.030044	-0.000122
 941	9.3530e+01	1.2744	35.960787	0.000851	8.512530	1.442062	-0.000170
 942	9.3629e+01	1.2545	35.803338	0.000790	7.904492	1.339057	-0.000158
 943	9.3729e+01	1.2346	35.653964	0.000750	7.499134	1.270388	-0.000150
 944	9.3829e+01	1.2150	35.512665	0.000709	7.093775	1.201718	-0.000142
 945	9.3928e+01	1.1943	35.322919	0.000953	9.525927	1.613736	-0.000191
 946	9.4028e+01	1.1752	35.197768	0.000628	6.283058	1.064379	-0.000126
 947	9.4127e+01	1.1558	35.020134	0.000892	8.917889	1.510731	-0.000179
 948	9.4227e+01	1.1351	34.854611	0.000831	8.309851	1.407727	-0.000166
 949	9.4326e+01	1.1154	34.721386	0.000669	6.688417	1.133048	-0.000134
 950	9.4425e+01	1.0955	34.543752	0.000892	8.917889	1.510731	-0.000179
 951	9.4525e+01	1.0757	34.382267	0.000811	8.107172	1.373392	-0.000162
 952	9.4624e+01	1.0557	34.236930	0.000730	7.296454	1.236053	-0.000146
 953	9.4724e+01	1.0352	34.063333	0.000872	8.715209	1.476396	-0.000174
 954	9.4823e+01	1.0163	33.905884	0.000790	7.904492	1.339057	-0.000158
 955	9.4923e+01	0.9968	33.764585	0.000709	7.093775	1.201718	-0.000142
 956	9.5022e+01	0.9767	33.615211	0.000750	7.499134	1.270388	-0.000150
 957	9.5122e+01	0.9560	33.469874	0.000730	7.296454	1.236053	-0.000146
 958	9.5222e+01	0.9361	33.272054	0.000993	9.931285	1.682405	-0.000199
 959	9.5321e+01	0.9164	33.146903	0.000628	6.283058	1.064379	-0.000126
 960	9.5421e+01	0.8951	32.969269	0.000892	8.917889	1.510731	-0.000179
 961	9.5520e+01	0.8766	32.779524	0.000953	9.525927	1.613736	-0.000191
 962	9.5620e+01	0.8555	32.642261	0.000689	6.891096	1.167383	-0.000138
 963	9.5719e+01	0.8362	32.492887	0.000750	7.499134	1.270388	-0.000150
 964	9.5819e+01	0.8159	32.331402	0.000811	8.107172	1.373392	-0.000162
 965	9.5918e+01	0.7965	32.141656	0.000953	9.525927	1.613736	-0.000191
 966	9.6017e+01	0.7765	32.020542	0.000608	6.080379	1.030044	-0.000122
 967	9.6117e+01	0.7562	31.846945	0.000872	8.715209	1.476396	-0.000174
 968	9.6216e+01	0.7363	31.665274	0.000912	9.120568	1.545066	-0.000183
 969	9.6316e+01	0.7161	31.523974	0.000709	7.093775	1.201718	-0.000142
 970	9.6415e+01	0.6952	31.358452	0.000831	8.309851	1.407727	-0.000166
 971	9.6515e+01	0.6769	31.205041	0.000770	7.701813	1.304722	-0.000154
 972	9.6615e+01	0.6561	31.035481	0.000851	8.512530	1.442062	-0.000170
 973	9.6714e+01	0.6366	30.914367	0.000608	6.080379	1.030044	-0.000122
 974	9.6814e+01	0.6171	30.752881	0.000811	8.107172	1.373392	-0.000162
 975	9.6913e+01	0.5967	30.619656	0.000669	6.688417	1.133048	-0.000134
 976	9.7013e+01	0.5775	30.393576	0.001135	11.350040	1.922749	-0.000227
 977	9.7112e+01	0.5574	30.260351	0.000669	6.688417	1.133048	-0.000134
 978	9.7212e+01	0.5374	30.090791	0.000851	8.512530	1.442062	-0.000170
 979	9.7311e+01	0.5174	29.933343	0.000790	7.904492	1.339057	-0.000158
 980	9.7410e+01	0.4974	29.788006	0.000730	7.296454	1.236053	-0.000146
 981	9.7510e+01	0.4784	29.610372	0.000892	8.917889	1.510731	-0.000179
 982	9.7609e+01	0.4576	29.477147	0.000669	6.688417	1.133048	-0.000134
 983	9.7709e+01	0.4379	29.311624	0.000831	8.309851	1.407727	-0.000166
 984	9.7808e+01	0.4173	29.162250	0.000750	7.499134	1.270388	-0.000150
 985	9.7908e+01	0.3985	28.996727	0.000831	8.309851	1.407727	-0.000166
 986	9.8007e+01	0.3785	28.823131	0.000872	8.715209	1.476396	-0.000174
 987	9.8107e+01	0.3569	28.685868	0.000689	6.891096	1.167383	-0.000138
 988	9.8207e+01	0.3380	28.492085	0.000973	9.728606	1.648070	-0.000195
 989	9.8306e+01	0.3188	28.346749	0.000730	7.296454	1.236053	-0.000146
 990	9.8406e+01	0.2988	28.193337	0.000770	7.701813	1.304722	-0.000154
 991	9.8505e+01	0.2782	28.060112	0.000669	6.688417	1.133048	-0.000134
 992	9.8605e+01	0.2579	27.866329	0.000973	9.728606	1.648070	-0.000195
 993	9.8704e+01	0.2380	27.729067	0.000689	6.891096	1.167383	-0.000138
 994	9.8803e+01	0.2180	27.567581	0.000811	8.107172	1.373392	-0.000162
 995	9.8903e+01	0.1986	27.410133	0.000790	7.904492	1.339057	-0.000158
 996	9.9002e+01	0.1791	27.240573	0.000851	8.512530	1.442062	-0.000170
 997	9.9102e+01	0.1588	27.066977	0.000872	8.715209	1.476396	-0.000174
 998	9.9201e+01	0.1382	26.885305	0.000912	9.120568	1.545066	-0.000183
 999	9.9301e+01	0.1182	26.776303	0.000547	5.472341	0.927040	-0.000110
1000	9.9400e+01	0.0998	26.606743	0.000851	8.512530	1.442062	-0.000170
1001	9.9500e+01	0.0793	26.400849	0.001034	10.336644	1.751075	-0.000207
1002	9.9600e+01	0.0589	26.287809	0.000568	5.675020	0.961374	-0.000114
1003	9.9699e+01	0.0392	26.126324	0.000811	8.107172	1.373392	-0.000162
1004	9.9799e+01	0.0195	25.944653	0.000912	9.120568	1.545066	-0.000183
1005	9.9898e+01	-0.0008	25.823539	0.000608	6.080379	1.030044	-0.000122
1006	9.9998e+01	-0.0191	25.662053	0.000811	8.107172	1.373392	-0.000162
1007	1.0010e+02	-0.0385	25.488456	0.000872	8.715209	1.476396	-0.000174
1008	1.0020e+02	-0.0586	25.347157	0.000709	7.093775	1.201718	-0.000142
1009	1.0030e+02	-0.0790	25.145300	0.001013	10.133965	1.716740	-0.000203
1010	1.0040e+02	-0.0982	25.036297	0.000547	5.472341	0.927040	-0.000110
1011	1.0050e+02	-0.1176	24.818292	0.001094	10.944682	1.854079	-0.000219
1012	1.0059e+02	-0.1379	24.689104	0.000649	6.485737	1.098714	-0.000130
1013	1.0069e+02	-0.1579	24.495321	0.000973	9.728606	1.648070	-0.000195
1014	1.0079e+02	-0.1779	24.345947	0.000750	7.499134	1.270388	-0.000150
1015	1.0089e+02	-0.1989	24.200610	0.000730	7.296454	1.236053	-0.000146
1016	1.0099e+02	-0.2175	23.982605	0.001094	10.944682	1.854079	-0.000219
1017	1.0109e+02	-0.2380	23.861491	0.000608	6.080379	1.030044	-0.000122
1018	1.0119e+02	-0.2587	23.687894	0.000872	8.715209	1.476396	-0.000174
1019	1.0129e+02	-0.2779	23.538520	0.000750	7.499134	1.270388	-0.000150
1020	1.0139e+02	-0.2969	23.360886	0.000892	8.917889	1.510731	-0.000179
1021	1.0149e+02	-0.3178	23.191326	0.000851	8.512530	1.442062	-0.000170
1022	1.0159e+02	-0.3378	23.062138	0.000649	6.485737	1.098714	-0.000130
1023	1.0169e+02	-0.3580	22.888541	0.000872	8.715209	1.476396	-0.000174
1024	1.0179e+02	-0.3777	22.731093	0.000790	7.904492	1.339057	-0.000158
1025	1.0189e+02	-0.3970	22.565570	0.000831	8.309851	1.407727	-0.000166
1026	1.0199e+02	-0.4179	22.371788	0.000973	9.728606	1.648070	-0.000195
1027	1.0209e+02	-0.4373	22.198191	0.000872	8.715209	1.476396	-0.000174
1028	1.0219e+02	-0.4578	22.040743	0.000790	7.904492	1.339057	-0.000158
1029	1.0229e+02	-0.4781	21.846960	0.000973	9.728606	1.648070	-0.000195
1030	1.0239e+02	-0.4971	21.713735	0.000669	6.688417	1.133048	-0.000134
1031	1.0248e+02	-0.5169	21.519952	0.000973	9.728606	1.648070	-0.000195
1032	1.0258e+02	-0.5376	21.386727	0.000669	6.688417	1.133048	-0.000134
1033	1.0268e+02	-0.5567	21.221204	0.000831	8.309851	1.407727	-0.000166
1034	1.0278e+02	-0.5772	21.035496	0.000932	9.323247	1.579401	-0.000187
1035	1.0288e+02	-0.5978	20.894196	0.000709	7.093775	1.201718	-0.000142
1036	1.0298e+02	-0.6161	20.700413	0.000973	9.728606	1.648070	-0.000195
1037	1.0308e+02	-0.6371	20.538928	0.000811	8.107172	1.373392	-0.000162
1038	1.0318e+02	-0.6564	20.373406	0.000831	8.309851	1.407727	-0.000166
1039	1.0328e+02	-0.6768	20.236143	0.000689	6.891096	1.167383	-0.000138
1040	1.0338e+02	-0.6968	20.038323	0.000993	9.931285	1.682405	-0.000199
1041	1.0348e+02	-0.7169	19.872801	0.000831	8.309851	1.407727	-0.000166
1042	1.0358e+02	-0.7359	19.679018	0.000973	9.728606	1.648070	-0.000195
1043	1.0368e+02	-0.7561	19.549830	0.000649	6.485737	1.098714	-0.000130
1044	1.0378e+02	-0.7762	19.396419	0.000770	7.701813	1.304722	-0.000154
1045	1.0388e+02	-0.7966	19.226859	0.000851	8.512530	1.442062	-0.000170
1046	1.0398e+02	-0.8163	19.037114	0.000953	9.525927	1.613736	-0.000191
1047	1.0408e+02	-0.8365	18.895814	0.000709	7.093775	1.201718	-0.000142
1048	1.0418e+02	-0.8562	18.738366	0.000790	7.904492	1.339057	-0.000158
1049	1.0428e+02	-0.8752	18.552657	0.000932	9.323247	1.579401	-0.000187
1050	1.0438e+02	-0.8955	18.383098	0.000851	8.512530	1.442062	-0.000170
1051	1.0447e+02	-0.9158	18.233724	0.000750	7.499134	1.270388	-0.000150
1052	1.0457e+02	-0.9355	18.052052	0.000912	9.120568	1.545066	-0.000183
1053	1.0467e+02	-0.9555	17.914790	0.000689	6.891096	1.167383	-0.000138
1054	1.0477e+02	-0.9747	17.696785	0.001094	10.944682	1.854079	-0.000219
1055	1.0487e+02	-0.9952	17.559522	0.000689	6.891096	1.167383	-0.000138
1056	1.0497e+02	-1.0162	17.406111	0.000770	7.701813	1.304722	-0.000154
1057	1.0507e+02	-1.0351	17.208291	0.000993	9.931285	1.682405	-0.000199
1058	1.0517e+02	-1.0554	17.054880	0.000770	7.701813	1.304722	-0.000154
1059	1.0527e+02	-1.0754	16.873209	0.000912	9.120568	1.545066	-0.000183
1060	1.0537e+02	-1.0942	16.723835	0.000750	7.499134	1.270388	-0.000150
1061	1.0547e+02	-1.1151	16.489681	0.001176	11.755399	1.991418	-0.000235
1062	1.0557e+02	-1.1350	16.364530	0.000628	6.283058	1.064379	-0.000126
1063	1.0567e+02	-1.1549	16.190933	0.000872	8.715209	1.476396	-0.000174
1064	1.0577e+02	-1.1752	16.041559	0.000750	7.499134	1.270388	-0.000150
1065	1.0587e+02	-1.1941	15.888148	0.000770	7.701813	1.304722	-0.000154
1066	1.0597e+02	-1.2146	15.690328	0.000993	9.931285	1.682405	-0.000199
1067	1.0607e+02	-1.2348	15.508657	0.000912	9.120568	1.545066	-0.000183
1068	1.0617e+02	-1.2543	15.371394	0.000689	6.891096	1.167383	-0.000138
1069	1.0627e+02	-1.2749	15.145315	0.001135	11.350040	1.922749	-0.000227
1070	1.0637e+02	-1.2943	14.991904	0.000770	7.701813	1.304722	-0.000154
1071	1.0647e+02	-1.3136	14.794084	0.000993	9.931285	1.682405	-0.000199
1072	1.0656e+02	-1.3345	14.660858	0.000669	6.688417	1.133048	-0.000134
1073	1.0666e+02	-1.3535	14.499373	0.000811	8.107172	1.373392	-0.000162
1074	1.0676e+02	-1.3736	14.305590	0.000973	9.728606	1.648070	-0.000195
1075	1.0686e+02	-1.3945	14.115845	0.000953	9.525927	1.613736	-0.000191
1076	1.0696e+02	-1.4133	14.002805	0.000568	5.675020	0.961374	-0.000114
1077	1.0706e+02	-1.4339	13.796911	0.001034	10.336644	1.751075	-0.000207
1078	1.0716e+02	-1.4539	13.651574	0.000730	7.296454	1.236053	-0.000146
1079	1.0726e+02	-1.4731	13.473941	0.000892	8.917889	1.510731	-0.000179
1080	1.0736e+02	-1.4935	13.288232	0.000932	9.323247	1.579401	-0.000187
1081	1.0746e+02	-1.5139	13.130784	0.000790	7.904492	1.339057	-0.000158
1082	1.0756e+02	-1.5340	12.920853	0.001054	10.539323	1.785410	-0.000211
1083	1.0766e+02	-1.5527	12.767442	0.000770	7.701813	1.304722	-0.000154
1084	1.0776e+02	-1.5730	12.585771	0.000912	9.120568	1.545066	-0.000183
1085	1.0786e+02	-1.5926	12.420248	0.000831	8.309851	1.407727	-0.000166
1086	1.0796e+02	-1.6124	12.226466	0.000973	9.728606	1.648070	-0.000195
1087	1.0806e+02	-1.6329	12.073054	0.000770	7.701813	1.304722	-0.000154
1088	1.0816e+02	-1.6527	11.879272	0.000973	9.728606	1.648070	-0.000195
1089	1.0826e+02	-1.6723	11.709712	0.000851	8.512530	1.442062	-0.000170
1090	1.0836e+02	-1.6925	11.588598	0.000608	6.080379	1.030044	-0.000122
1091	1.0845e+02	-1.7127	11.370593	0.001094	10.944682	1.854079	-0.000219
1092	1.0855e+02	-1.7315	11.213145	0.000790	7.904492	1.339057	-0.000158
1093	1.0865e+02	-1.7522	11.019362	0.000973	9.728606	1.648070	-0.000195
1094	1.0875e+02	-1.7722	10.849802	0.000851	8.512530	1.442062	-0.000170
1095	1.0885e+02	-1.7926	10.720614	0.000649	6.485737	1.098714	-0.000130
1096	1.0895e+02	-1.8122	10.518757	0.001013	10.133965	1.716740	-0.000203
1097	1.0905e+02	-1.8326	10.324975	0.000973	9.728606	1.648070	-0.000195
1098	1.0915e+02	-1.8515	10.195786	0.000649	6.485737	1.098714	-0.000130
1099	1.0925e+02	-1.8719	10.054487	0.000709	7.093775	1.201718	-0.000142
1100	1.0935e+02	-1.8918	9.860704	0.000973	9.728606	1.648070	-0.000195
1101	1.0945e+02	-1.9112	9.699219	0.000811	8.107172	1.373392	-0.000162
1102	1.0955e+02	-1.9319	9.505436	0.000973	9.728606	1.648070	-0.000195
1103	1.0965e+02	-1.9527	9.347988	0.000790	7.904492	1.339057	-0.000158
1104	1.0975e+02	-1.9710	9.125945	0.001115	11.147361	1.888414	-0.000223
1105	1.0985e+02	-1.9906	8.976571	0.000750	7.499134	1.270388	-0.000150
1106	1.0995e+02	-2.0110	8.782789	0.000973	9.728606	1.648070	-0.000195
1107	1.1005e+02	-2.0316	8.657638	0.000628	6.283058	1.064379	-0.000126
1108	1.1015e+02	-2.0517	8.471929	0.000932	9.323247	1.579401	-0.000187
1109	1.1025e+02	-2.0707	8.306407	0.000831	8.309851	1.407727	-0.000166
1110	1.1035e+02	-2.0908	8.173181	0.000669	6.688417	1.133048	-0.000134
1111	1.1044e+02	-2.1114	7.963250	0.001054	10.539323	1.785410	-0.000211
1112	1.1054e+02	-2.1307	7.781579	0.000912	9.120568	1.545066	-0.000183
1113	1.1064e+02	-2.1509	7.636242	0.000730	7.296454	1.236053	-0.000146
1114	1.1074e+02	-2.1710	7.478794	0.000790	7.904492	1.339057	-0.000158
1115	1.1084e+02	-2.1918	7.317309	0.000811	8.107172	1.373392	-0.000162
1116	1.1094e+02	-2.2104	7.123526	0.000973	9.728606	1.648070	-0.000195
1117	1.1104e+02	-2.2305	6.925706	0.000993	9.931285	1.682405	-0.000199
1118	1.1114e+02	-2.2510	6.788444	0.000689	6.891096	1.167383	-0.000138
1119	1.1124e+02	-2.2697	6.602735	0.000932	9.323247	1.579401	-0.000187
1120	1.1134e+02	-2.2916	6.429139	0.000872	8.715209	1.476396	-0.000174
1121	1.1144e+02	-2.3101	6.219208	0.001054	10.539323	1.785410	-0.000211
1122	1.1154e+02	-2.3312	6.077908	0.000709	7.093775	1.201718	-0.000142
1123	1.1164e+02	-2.3498	5.904311	0.000872	8.715209	1.476396	-0.000174
1124	1.1174e+02	-2.3700	5.746863	0.000790	7.904492	1.339057	-0.000158
1125	1.1184e+02	-2.3898	5.581340	0.000831	8.309851	1.407727	-0.000166
1126	1.1194e+02	-2.4101	5.403706	0.000892	8.917889	1.510731	-0.000179
1127	1.1204e+02	-2.4301	5.246258	0.000790	7.904492	1.339057	-0.000158
1128	1.1214e+02	-2.4500	5.060550	0.000932	9.323247	1.579401	-0.000187
1129	1.1224e+02	-2.4687	4.874841	0.000932	9.323247	1.579401	-0.000187
1130	1.1234e+02	-2.4905	4.713356	0.000811	8.107172	1.373392	-0.000162
1131	1.1244e+02	-2.5095	4.507462	0.001034	10.336644	1.751075	-0.000207
1132	1.1253e+02	-2.5290	4.354051	0.000770	7.701813	1.304722	-0.000154
1133	1.1263e+02	-2.5488	4.216788	0.000689	6.891096	1.167383	-0.000138
1134	1.1273e+02	-2.5680	4.027043	0.000953	9.525927	1.613736	-0.000191
1135	1.1283e+02	-2.5885	3.861520	0.000831	8.309851	1.407727	-0.000166
1136	1.1293e+02	-2.6085	3.700035	0.000811	8.107172	1.373392	-0.000162
1137	1.1303e+02	-2.6283	3.550661	0.000750	7.499134	1.270388	-0.000150
1138	1.1313e+02	-2.6482	3.352841	0.000993	9.931285	1.682405	-0.000199
1139	1.1323e+02	-2.6691	3.179244	0.000872	8.715209	1.476396	-0.000174
1140	1.1333e+02	-2.6895	3.074279	0.000527	5.269662	0.892705	-0.000105
1141	1.1343e+02	-2.7086	2.856274	0.001094	10.944682	1.854079	-0.000219
1142	1.1353e+02	-2.7283	2.698825	0.000790	7.904492	1.339057	-0.000158
1143	1.1363e+02	-2.7475	2.509080	0.000953	9.525927	1.613736	-0.000191
1144	1.1373e+02	-2.7682	2.319334	0.000953	9.525927	1.613736	-0.000191
1145	1.1383e+02	-2.7887	2.218406	0.000507	5.066982	0.858370	-0.000101
1146	1.1393e+02	-2.8085	2.012512	0.001034	10.336644	1.751075	-0.000207
1147	1.1403e+02	-2.8286	1.838915	0.000872	8.715209	1.476396	-0.000174
1148	1.1413e+02	-2.8487	1.665318	0.000872	8.715209	1.476396	-0.000174
1149	1.1423e+02	-2.8683	1.499796	0.000831	8.309851	1.407727	-0.000166
1150	1.1433e+02	-2.8879	1.350422	0.000750	7.499134	1.270388	-0.000150
1151	1.1442e+02	-2.9082	1.197011	0.000770	7.701813	1.304722	-0.000154
1152	1.1452e+02	-2.9276	0.999191	0.000993	9.931285	1.682405	-0.000199
1153	1.1462e+02	-2.9471	0.853854	0.000730	7.296454	1.236053	-0.000146
1154	1.1472e+02	-2.9674	0.676220	0.000892	8.917889	1.510731	-0.000179
1155	1.1482e+02	-2.9869	0.498586	0.000892	8.917889	1.510731	-0.000179
1156	1.1492e+02	-3.0074	0.341138	0.000790	7.904492	1.339057	-0.000158
1157	1.1502e+02	-3.0267	0.167541	0.000872	8.715209	1.476396	-0.000174
1158	1.1512e+02	-3.0471	0.018167	0.000750	7.499134	1.270388	-0.000150
1159	1.1522e+02	-3.0672	-0.143318	0.000811	8.107172	1.373392	-0.000162
1160	1.1532e+02	-3.0869	-0.296729	0.000770	7.701813	1.304722	-0.000154
1161	1.1542e+02	-3.1061	-0.486475	0.000953	9.525927	1.613736	-0.000191
1162	1.1552e+02	-3.1274	-0.692369	0.001034	10.336644	1.751075	-0.000207
1163	1.1562e+02	-3.1474	-0.769074	0.000385	3.850907	0.652361	-0.000077
1164	1.1572e+02	-3.1667	-0.987080	0.001094	10.944682	1.854079	-0.000219
1165	1.1582e+02	-3.1863	-1.152602	0.000831	8.309851	1.407727	-0.000166
1166	1.1592e+02	-3.2069	-1.322162	0.000851	8.512530	1.442062	-0.000170
1167	1.1602e+02	-3.2265	-1.455387	0.000669	6.688417	1.133048	-0.000134
1168	1.1612e+02	-3.2465	-1.612836	0.000790	7.904492	1.339057	-0.000158
1169	1.1622e+02	-3.2656	-1.818730	0.001034	10.336644	1.751075	-0.000207
1170	1.1632e+02	-3.2861	-1.947918	0.000649	6.485737	1.098714	-0.000130
1171	1.1642e+02	-3.3064	-2.129589	0.000912	9.120568	1.545066	-0.000183
1172	1.1651e+02	-3.3253	-2.327409	0.000993	9.931285	1.682405	-0.000199
1173	1.1661e+02	-3.3464	-2.460634	0.000669	6.688417	1.133048	-0.000134
1174	1.1671e+02	-3.3669	-2.630194	0.000851	8.512530	1.442062	-0.000170
1175	1.1681e+02	-3.3862	-2.787642	0.000790	7.904492	1.339057	-0.000158
1176	1.1691e+02	-3.4061	-2.908756	0.000608	6.080379	1.030044	-0.000122
1177	1.1701e+02	-3.4258	-3.126762	0.001094	10.944682	1.854079	-0.000219
1178	1.1711e+02	-3.4460	-3.300358	0.000872	8.715209	1.476396	-0.000174
1179	1.1721e+02	-3.4653	-3.449732	0.000750	7.499134	1.270388	-0.000150
1180	1.1731e+02	-3.4863	-3.595069	0.000730	7.296454	1.236053	-0.000146
1181	1.1741e+02	-3.5055	-3.764629	0.000851	8.512530	1.442062	-0.000170
1182	1.1751e+02	-3.5260	-3.966486	0.001013	10.133965	1.716740	-0.000203
1183	1.1761e+02	-3.5452	-4.119897	0.000770	7.701813	1.304722	-0.000154
1184	1.1771e+02	-3.5651	-4.273308	0.000770	7.701813	1.304722	-0.000154
1185	1.1781e+02	-3.5843	-4.418645	0.000730	7.296454	1.236053	-0.000146
1186	1.1791e+02	-3.6047	-4.616465	0.000993	9.931285	1.682405	-0.000199
1187	1.1801e+02	-3.6253	-4.781987	0.000831	8.309851	1.407727	-0.000166
1188	1.1811e+02	-3.6447	-4.927324	0.000730	7.296454	1.236053	-0.000146
1189	1.1821e+02	-3.6656	-5.096884	0.000851	8.512530	1.442062	-0.000170
1190	1.1831e+02	-3.6850	-5.262406	0.000831	8.309851	1.407727	-0.000166
1191	1.1841e+02	-3.7050	-5.431966	0.000851	8.512530	1.442062	-0.000170
1192	1.1850e+02	-3.7245	-5.589414	0.000790	7.904492	1.339057	-0.000158
1193	1.1860e+02	-3.7437	-5.746863	0.000790	7.904492	1.339057	-0.000158
1194	1.1870e+02	-3.7657	-5.912385	0.000831	8.309851	1.407727	-0.000166
1195	1.1880e+02	-3.7843	-6.090019	0.000892	8.917889	1.510731	-0.000179
1196	1.1890e+02	-3.8036	-6.235356	0.000730	7.296454	1.236053	-0.000146
1197	1.1900e+02	-3.8246	-6.412990	0.000892	8.917889	1.510731	-0.000179
1198	1.1910e+02	-3.8440	-6.590624	0.000892	8.917889	1.510731	-0.000179
1199	1.1920e+02	-3.8644	-6.756147	0.000831	8.309851	1.407727	-0.000166
1200	1.1930e+02	-3.8843	-6.913595	0.000790	7.904492	1.339057	-0.000158
1201	1.1940e+02	-3.9035	-7.079118	0.000831	8.309851	1.407727	-0.000166
1202	1.1950e+02	-3.9238	-7.224454	0.000730	7.296454	1.236053	-0.000146
1203	1.1960e+02	-3.9435	-7.398051	0.000872	8.715209	1.476396	-0.000174
1204	1.1970e+02	-3.9642	-7.603945	0.001034	10.336644	1.751075	-0.000207
1205	1.1980e+02	-3.9835	-7.721022	0.000588	5.877699	0.995709	-0.000118
1206	1.1990e+02	-4.0026	-7.842136	0.000608	6.080379	1.030044	-0.000122
1207	1.2000e+02	-4.0229	-8.072253	0.001155	11.552720	1.957084	-0.000231
1208	1.2010e+02	-4.0434	-8.205478	0.000669	6.688417	1.133048	-0.000134
1209	1.2020e+02	-4.0630	-8.395224	0.000953	9.525927	1.613736	-0.000191
1210	1.2030e+02	-4.0831	-8.540561	0.000730	7.296454	1.236053	-0.000146
1211	1.2039e+02	-4.1036	-8.641489	0.000507	5.066982	0.858370	-0.000101
1212	1.2049e+02	-4.1234	-8.855457	0.001074	10.742002	1.819744	-0.000215
1213	1.2059e+02	-4.1415	-9.000794	0.000730	7.296454	1.236053	-0.000146
1214	1.2069e+02	-4.1625	-9.170354	0.000851	8.512530	1.442062	-0.000170
1215	1.2079e+02	-4.1824	-9.360099	0.000953	9.525927	1.613736	-0.000191
1216	1.2089e+02	-4.2031	-9.517548	0.000790	7.904492	1.339057	-0.000158
1217	1.2099e+02	-4.2220	-9.666922	0.000750	7.499134	1.270388	-0.000150
1218	1.2109e+02	-4.2427	-9.788036	0.000608	6.080379	1.030044	-0.000122
1219	1.2119e+02	-4.2625	-10.006041	0.001094	10.944682	1.854079	-0.000219
1220	1.2129e+02	-4.2822	-10.135229	0.000649	6.485737	1.098714	-0.000130
1221	1.2139e+02	-4.3021	-10.320938	0.000932	9.323247	1.579401	-0.000187
1222	1.2149e+02	-4.3217	-10.506646	0.000932	9.323247	1.579401	-0.000187
1223	1.2159e+02	-4.3419	-10.647946	0.000709	7.093775	1.201718	-0.000142
1224	1.2169e+02	-4.3620	-10.793282	0.000730	7.296454	1.236053	-0.000146
1225	1.2179e+02	-4.3826	-10.970916	0.000892	8.917889	1.510731	-0.000179
1226	1.2189e+02	-4.4022	-11.116253	0.000730	7.296454	1.236053	-0.000146
1227	1.2199e+02	-4.4217	-11.310036	0.000973	9.728606	1.648070	-0.000195
1228	1.2209e+02	-4.4420	-11.459410	0.000750	7.499134	1.270388	-0.000150
1229	1.2219e+02	-4.4618	-11.604747	0.000730	7.296454	1.236053	-0.000146
1230	1.2229e+02	-4.4817	-11.774306	0.000851	8.512530	1.442062	-0.000170
1231	1.2239e+02	-4.5017	-11.943866	0.000851	8.512530	1.442062	-0.000170
1232	1.2248e+02	-4.5213	-12.121500	0.000892	8.917889	1.510731	-0.000179
1233	1.2258e+02	-4.5411	-12.303171	0.000912	9.120568	1.545066	-0.000183
1234	1.2268e+02	-4.5616	-12.444471	0.000709	7.093775	1.201718	-0.000142
1235	1.2278e+02	-4.5807	-12.593845	0.000750	7.499134	1.270388	-0.000150
1236	1.2288e+02	-4.6019	-12.731108	0.000689	6.891096	1.167383	-0.000138
1237	1.2298e+02	-4.6219	-12.904704	0.000872	8.715209	1.476396	-0.000174
1238	1.2308e+02	-4.6413	-13.106561	0.001013	10.133965	1.716740	-0.000203
1239	1.2318e+02	-4.6608	-13.231712	0.000628	6.283058	1.064379	-0.000126
1240	1.2328e+02	-4.6823	-13.445681	0.001074	10.742002	1.819744	-0.000215
1241	1.2338e+02	-4.7018	-13.603129	0.000790	7.904492	1.339057	-0.000158
1242	1.2348e+02	-4.7217	-13.796911	0.000973	9.728606	1.648070	-0.000195
1243	1.2358e+02	-4.7411	-13.918025	0.000608	6.080379	1.030044	-0.000122
1244	1.2368e+02	-4.7607	-14.087585	0.000851	8.512530	1.442062	-0.000170
1245	1.2378e+02	-4.7796	-14.285405	0.000993	9.931285	1.682405	-0.000199
1246	1.2388e+02	-4.8006	-14.390370	0.000527	5.269662	0.892705	-0.000105
1247	1.2398e+02	-4.8203	-14.568004	0.000892	8.917889	1.510731	-0.000179
1248	1.2408e+02	-4.8399	-14.733527	0.000831	8.309851	1.407727	-0.000166
1249	1.2418e+02	-4.8602	-14.931347	0.000993	9.931285	1.682405	-0.000199
1250	1.2428e+02	-4.8808	-15.072646	0.000709	7.093775	1.201718	-0.000142
1251	1.2438e+02	-4.8999	-15.250280	0.000892	8.917889	1.510731	-0.000179
1252	1.2447e+02	-4.9191	-15.435988	0.000932	9.323247	1.579401	-0.000187
1253	1.2457e+02	-4.9399	-15.589400	0.000770	7.701813	1.304722	-0.000154
1254	1.2467e+02	-4.9603	-15.758959	0.000851	8.512530	1.442062	-0.000170
1255	1.2477e+02	-4.9800	-15.932556	0.000872	8.715209	1.476396	-0.000174
1256	1.2487e+02	-5.0002	-16.094042	0.000811	8.107172	1.373392	-0.000162
1257	1.2497e+02	-5.0201	-16.231304	0.000689	6.891096	1.167383	-0.000138
1258	1.2507e+02	-5.0407	-16.433161	0.001013	10.133965	1.716740	-0.000203
1259	1.2517e+02	-5.0595	-16.570424	0.000689	6.891096	1.167383	-0.000138
1260	1.2527e+02	-5.0797	-16.719798	0.000750	7.499134	1.270388	-0.000150
1261	1.2537e+02	-5.1001	-16.889357	0.000851	8.512530	1.442062	-0.000170
1262	1.2547e+02	-5.1202	-17.062954	0.000872	8.715209	1.476396	-0.000174
1263	1.2557e+02	-5.1398	-17.196180	0.000669	6.688417	1.133048	-0.000134
1264	1.2567e+02	-5.1583	-17.381888	0.000932	9.323247	1.579401	-0.000187
1265	1.2577e+02	-5.1785	-17.551448	0.000851	8.512530	1.442062	-0.000170
1266	1.2587e+02	-5.1987	-17.712933	0.000811	8.107172	1.373392	-0.000162
1267	1.2597e+02	-5.2184	-17.878456	0.000831	8.309851	1.407727	-0.000166
1268	1.2607e+02	-5.2393	-18.043978	0.000831	8.309851	1.407727	-0.000166
1269	1.2617e+02	-5.2586	-18.201426	0.000790	7.904492	1.339057	-0.000158
1270	1.2627e+02	-5.2786	-18.342726	0.000709	7.093775	1.201718	-0.000142
1271	1.2636e+02	-5.2985	-18.528434	0.000932	9.323247	1.579401	-0.000187
1272	1.2646e+02	-5.3185	-18.693957	0.000831	8.309851	1.407727	-0.000166
1273	1.2656e+02	-5.3383	-18.863517	0.000851	8.512530	1.442062	-0.000170
1274	1.2666e+02	-5.3583	-19.000779	0.000689	6.891096	1.167383	-0.000138
1275	1.2676e+02	-5.3781	-19.134005	0.000669	6.688417	1.133048	-0.000134
1276	1.2686e+02	-5.3978	-19.291453	0.000790	7.904492	1.339057	-0.000158
1277	1.2696e+02	-5.4184	-19.521570	0.001155	11.552720	1.957084	-0.000231
1278	1.2706e+02	-5.4379	-19.622498	0.000507	5.066982	0.858370	-0.000101
1279	1.2716e+02	-5.4575	-19.836466	0.001074	10.742002	1.819744	-0.000215
1280	1.2726e+02	-5.4784	-19.997952	0.000811	8.107172	1.373392	-0.000162
1281	1.2736e+02	-5.4967	-20.155400	0.000790	7.904492	1.339057	-0.000158
1282	1.2746e+02	-5.5179	-20.304774	0.000750	7.499134	1.270388	-0.000150
1283	1.2756e+02	-5.5380	-20.522780	0.001094	10.944682	1.854079	-0.000219
1284	1.2766e+02	-5.5573	-20.660042	0.000689	6.891096	1.167383	-0.000138
1285	1.2776e+02	-5.5779	-20.821528	0.000811	8.107172	1.373392	-0.000162
1286	1.2786e+02	-5.5975	-20.987050	0.000831	8.309851	1.407727	-0.000166
1287	1.2796e+02	-5.6175	-21.128350	0.000709	7.093775	1.201718	-0.000142
1288	1.2806e+02	-5.6375	-21.350392	0.001115	11.147361	1.888414	-0.000223
1289	1.2816e+02	-5.6573	-21.467469	0.000588	5.877699	0.995709	-0.000118
1290	1.2826e+02	-5.6769	-21.653178	0.000932	9.323247	1.579401	-0.000187
1291	1.2835e+02	-5.6964	-21.818700	0.000831	8.309851	1.407727	-0.000166
1292	1.2845e+02	-5.7170	-21.955963	0.000689	6.891096	1.167383	-0.000138
1293	1.2855e+02	-5.7378	-22.113411	0.000790	7.904492	1.339057	-0.000158
1294	1.2865e+02	-5.7567	-22.343528	0.001155	11.552720	1.957084	-0.000231
1295	1.2875e+02	-5.7772	-22.460605	0.000588	5.877699	0.995709	-0.000118
1296	1.2885e+02	-5.7965	-22.662461	0.001013	10.133965	1.716740	-0.000203
1297	1.2895e+02	-5.8163	-22.803761	0.000709	7.093775	1.201718	-0.000142
1298	1.2905e+02	-5.8368	-23.021767	0.001094	10.944682	1.854079	-0.000219
1299	1.2915e+02	-5.8568	-23.138843	0.000588	5.877699	0.995709	-0.000118
1300	1.2925e+02	-5.8768	-23.336663	0.000993	9.931285	1.682405	-0.000199
1301	1.2935e+02	-5.8966	-23.498149	0.000811	8.107172	1.373392	-0.000162
1302	1.2945e+02	-5.9158	-23.663671	0.000831	8.309851	1.407727	-0.000166
1303	1.2955e+02	-5.9363	-23.804971	0.000709	7.093775	1.201718	-0.000142
1304	1.2965e+02	-5.9569	-24.010865	0.001034	10.336644	1.751075	-0.000207
1305	1.2975e+02	-5.9755	-24.136016	0.000628	6.283058	1.064379	-0.000126
1306	1.2985e+02	-5.9964	-24.313650	0.000892	8.917889	1.510731	-0.000179
1307	1.2995e+02	-6.0162	-24.495321	0.000912	9.120568	1.545066	-0.000183
1308	1.3005e+02	-6.0364	-24.644695	0.000750	7.499134	1.270388	-0.000150
1309	1.3015e+02	-6.0550	-24.822329	0.000892	8.917889	1.510731	-0.000179
1310	1.3025e+02	-6.0760	-24.987852	0.000831	8.309851	1.407727	-0.000166
1311	1.3034e+02	-6.0957	-25.141263	0.000770	7.701813	1.304722	-0.000154
1312	1.3044e+02	-6.1153	-25.363305	0.001115	11.147361	1.888414	-0.000223
1313	1.3054e+02	-6.1356	-25.512679	0.000750	7.499134	1.270388	-0.000150
1314	1.3064e+02	-6.1554	-25.702425	0.000953	9.525927	1.613736	-0.000191
1315	1.3074e+02	-6.1749	-25.831613	0.000649	6.485737	1.098714	-0.000130
1316	1.3084e+02	-6.1957	-26.017321	0.000932	9.323247	1.579401	-0.000187
1317	1.3094e+02	-6.2167	-26.215141	0.000993	9.931285	1.682405	-0.000199
1318	1.3104e+02	-6.2352	-26.396812	0.000912	9.120568	1.545066	-0.000183
1319	1.3114e+02	-6.2544	-26.546186	0.000750	7.499134	1.270388	-0.000150
1320	1.3124e+02	-6.2749	-26.699597	0.000770	7.701813	1.304722	-0.000154
1321	1.3134e+02	-6.2947	-26.885305	0.000932	9.323247	1.579401	-0.000187
1322	1.3144e+02	-6.3146	-27.079088	0.000973	9.728606	1.648070	-0.000195
1323	1.3154e+02	-6.3344	-27.244611	0.000831	8.309851	1.407727	-0.000166
1324	1.3164e+02	-6.3548	-27.381873	0.000689	6.891096	1.167383	-0.000138
1325	1.3174e+02	-6.3748	-27.607953	0.001135	11.350040	1.922749	-0.000227
1326	1.3184e+02	-6.3947	-27.757327	0.000750	7.499134	1.270388	-0.000150
1327	1.3194e+02	-6.4130	-27.934961	0.000892	8.917889	1.510731	-0.000179
1328	1.3204e+02	-6.4339	-28.120669	0.000932	9.323247	1.579401	-0.000187
1329	1.3214e+02	-6.4542	-28.261969	0.000709	7.093775	1.201718	-0.000142
1330	1.3224e+02	-6.4746	-28.496123	0.001176	11.755399	1.991418	-0.000235
1331	1.3234e+02	-6.4941	-28.661645	0.000831	8.309851	1.407727	-0.000166
1332	1.3243e+02	-6.5140	-28.811019	0.000750	7.499134	1.270388	-0.000150
1333	1.3253e+02	-6.5341	-28.976542	0.000831	8.309851	1.407727	-0.000166
1334	1.3263e+02	-6.5543	-29.170324	0.000973	9.728606	1.648070	-0.000195
1335	1.3273e+02	-6.5733	-29.380255	0.001054	10.539323	1.785410	-0.000211
1336	1.3283e+02	-6.5935	-29.590186	0.001054	10.539323	1.785410	-0.000211
1337	1.3293e+02	-6.6136	-29.727449	0.000689	6.891096	1.167383	-0.000138
1338	1.3303e+02	-6.6343	-29.897009	0.000851	8.512530	1.442062	-0.000170
1339	1.3313e+02	-6.6537	-30.119051	0.001115	11.147361	1.888414	-0.000223
1340	1.3323e+02	-6.6734	-30.300722	0.000912	9.120568	1.545066	-0.000183
1341	1.3333e+02	-6.6930	-30.482393	0.000912	9.120568	1.545066	-0.000183
1342	1.3343e+02	-6.7130	-30.676176	0.000973	9.728606	1.648070	-0.000195
1343	1.3353e+02	-6.7331	-30.853810	0.000892	8.917889	1.510731	-0.000179
1344	1.3363e+02	-6.7526	-31.059704	0.001034	10.336644	1.751075	-0.000207
1345	1.3373e+02	-6.7720	-31.261561	0.001013	10.133965	1.716740	-0.000203
1346	1.3383e+02	-6.7923	-31.406897	0.000730	7.296454	1.236053	-0.000146
1347	1.3393e+02	-6.8124	-31.584531	0.000892	8.917889	1.510731	-0.000179
1348	1.3403e+02	-6.8323	-31.830797	0.001236	12.363437	2.094423	-0.000248
1349	1.3413e+02	-6.8517	-32.064951	0.001176	11.755399	1.991418	-0.000235
1350	1.3423e+02	-6.8719	-32.234510	0.000851	8.512530	1.442062	-0.000170
1351	1.3432e+02	-6.8929	-32.416181	0.000912	9.120568	1.545066	-0.000183
1352	1.3442e+02	-6.9128	-32.597853	0.000912	9.120568	1.545066	-0.000183
1353	1.3452e+02	-6.9322	-32.836044	0.001196	11.958078	2.025753	-0.000239
1354	1.3462e+02	-6.9519	-33.025789	0.000953	9.525927	1.613736	-0.000191
1355	1.3472e+02	-6.9724	-33.239757	0.001074	10.742002	1.819744	-0.000215
1356	1.3482e+02	-6.9922	-33.385094	0.000730	7.296454	1.236053	-0.000146
1357	1.3492e+02	-7.0129	-33.651545	0.001338	13.376833	2.266097	-0.000268
1358	1.3502e+02	-7.0319	-33.897810	0.001236	12.363437	2.094423	-0.000248
1359	1.3512e+02	-7.0514	-34.043147	0.000730	7.296454	1.236053	-0.000146
1360	1.3522e+02	-7.0715	-34.269227	0.001135	11.350040	1.922749	-0.000227
1361	1.3532e+02	-7.0911	-34.495306	0.001135	11.350040	1.922749	-0.000227
1362	1.3542e+02	-7.1112	-34.697163	0.001013	10.133965	1.716740	-0.000203
1363	1.3552e+02	-7.1317	-34.866723	0.000851	8.512530	1.442062	-0.000170
1364	1.3562e+02	-7.1514	-35.121062	0.001277	12.768795	2.163092	-0.000256
1365	1.3572e+02	-7.1716	-35.314845	0.000973	9.728606	1.648070	-0.000195
1366	1.3582e+02	-7.1915	-35.544962	0.001155	11.552720	1.957084	-0.000231
1367	1.3592e+02	-7.2124	-35.767004	0.001115	11.147361	1.888414	-0.000223
1368	1.3602e+02	-7.2313	-35.960787	0.000973	9.728606	1.648070	-0.000195
1369	1.3612e+02	-7.2506	-36.203015	0.001216	12.160757	2.060088	-0.000243
1370	1.3622e+02	-7.2711	-36.400834	0.000993	9.931285	1.682405	-0.000199
1371	1.3631e+02	-7.2913	-36.630951	0.001155	11.552720	1.957084	-0.000231
1372	1.3641e+02	-7.3102	-36.828771	0.000993	9.931285	1.682405	-0.000199
1373	1.3651e+02	-7.3314	-37.075036	0.001236	12.363437	2.094423	-0.000248
1374	1.3661e+02	-7.3511	-37.309190	0.001176	11.755399	1.991418	-0.000235
1375	1.3671e+02	-7.3700	-37.507010	0.000993	9.931285	1.682405	-0.000199
1376	1.3681e+02	-7.3901	-37.757312	0.001257	12.566116	2.128758	-0.000252
1377	1.3691e+02	-7.4106	-37.975317	0.001094	10.944682	1.854079	-0.000219
1378	1.3701e+02	-7.4326	-38.209471	0.001176	11.755399	1.991418	-0.000235
1379	1.3711e+02	-7.4507	-38.419402	0.001054	10.539323	1.785410	-0.000211
1380	1.3721e+02	-7.4706	-38.669705	0.001257	12.566116	2.128758	-0.000252
1381	1.3731e+02	-7.4894	-38.895784	0.001135	11.350040	1.922749	-0.000227
1382	1.3741e+02	-7.5102	-39.142050	0.001236	12.363437	2.094423	-0.000248
1383	1.3751e+02	-7.5294	-39.388315	0.001236	12.363437	2.094423	-0.000248
1384	1.3761e+02	-7.5488	-39.626506	0.001196	11.958078	2.025753	-0.000239
1385	1.3771e+02	-7.5690	-39.828363	0.001013	10.133965	1.716740	-0.000203
1386	1.3781e+02	-7.5891	-40.098851	0.001358	13.579512	2.300432	-0.000272
1387	1.3791e+02	-7.6083	-40.361265	0.001317	13.174154	2.231762	-0.000264
1388	1.3801e+02	-7.6299	-40.563121	0.001013	10.133965	1.716740	-0.000203
1389	1.3811e+02	-7.6495	-40.809387	0.001236	12.363437	2.094423	-0.000248
1390	1.3821e+02	-7.6694	-41.083912	0.001378	13.782192	2.334766	-0.000276
1391	1.3831e+02	-7.6886	-41.366511	0.001419	14.187550	2.403436	-0.000284
1392	1.3840e+02	-7.7083	-41.588554	0.001115	11.147361	1.888414	-0.000223
1393	1.3850e+02	-7.7292	-41.834819	0.001236	12.363437	2.094423	-0.000248
1394	1.3860e+02	-7.7489	-42.093196	0.001297	12.971475	2.197427	-0.000260
1395	1.3870e+02	-7.7685	-42.319275	0.001135	11.350040	1.922749	-0.000227
1396	1.3880e+02	-7.7881	-42.626098	0.001540	15.403626	2.609445	-0.000308
1397	1.3890e+02	-7.8082	-42.848140	0.001115	11.147361	1.888414	-0.000223
1398	1.3900e+02	-7.8282	-43.134777	0.001439	14.390230	2.437771	-0.000288
1399	1.3910e+02	-7.8476	-43.393153	0.001297	12.971475	2.197427	-0.000260
1400	1.3920e+02	-7.8683	-43.635382	0.001216	12.160757	2.060088	-0.000243
1401	1.3930e+02	-7.8879	-43.926055	0.001459	14.592909	2.472106	-0.000292
1402	1.3940e+02	-7.9088	-44.204618	0.001398	13.984871	2.369101	-0.000280
1403	1.3950e+02	-7.9265	-44.467032	0.001317	13.174154	2.231762	-0.000264
1404	1.3960e+02	-7.9480	-44.737520	0.001358	13.579512	2.300432	-0.000272
1405	1.3970e+02	-7.9675	-44.995896	0.001297	12.971475	2.197427	-0.000260
1406	1.3980e+02	-7.9877	-45.306756	0.001561	15.606305	2.643780	-0.000312
1407	1.3990e+02	-8.0083	-45.561095	0.001277	12.768795	2.163092	-0.000256
1408	1.4000e+02	-8.0273	-45.835621	0.001378	13.782192	2.334766	-0.000276
1409	1.4010e+02	-8.0472	-46.118220	0.001419	14.187550	2.403436	-0.000284
1410	1.4020e+02	-8.0670	-46.392745	0.001378	13.782192	2.334766	-0.000276
1411	1.4029e+02	-8.0872	-46.671308	0.001398	13.984871	2.369101	-0.000280
1412	1.4039e+02	-8.1067	-46.966019	0.001480	14.795588	2.506440	-0.000296
1413	1.4049e+02	-8.1259	-47.232470	0.001338	13.376833	2.266097	-0.000268
1414	1.4059e+02	-8.1470	-47.531218	0.001500	14.998268	2.540775	-0.000300
1415	1.4069e+02	-8.1668	-47.825929	0.001480	14.795588	2.506440	-0.000296
1416	1.4079e+02	-8.1873	-48.140825	0.001581	15.808985	2.678115	-0.000316
1417	1.4089e+02	-8.2075	-48.443610	0.001520	15.200947	2.575110	-0.000304
1418	1.4099e+02	-8.2275	-48.726210	0.001419	14.187550	2.403436	-0.000284
1419	1.4109e+02	-8.2468	-49.008809	0.001419	14.187550	2.403436	-0.000284
1420	1.4119e+02	-8.2662	-49.319669	0.001561	15.606305	2.643780	-0.000312
1421	1.4129e+02	-8.2864	-49.642640	0.001621	16.214343	2.746784	-0.000325
1422	1.4139e+02	-8.3063	-49.896979	0.001277	12.768795	2.163092	-0.000256
1423	1.4149e+02	-8.3261	-50.219950	0.001621	16.214343	2.746784	-0.000325
1424	1.4159e+02	-8.3459	-50.526772	0.001540	15.403626	2.609445	-0.000308
1425	1.4169e+02	-8.3661	-50.825520	0.001500	14.998268	2.540775	-0.000300
1426	1.4179e+02	-8.3862	-51.180788	0.001784	17.835778	3.021463	-0.000357
1427	1.4189e+02	-8.4054	-51.435128	0.001277	12.768795	2.163092	-0.000256
1428	1.4199e+02	-8.4270	-51.770210	0.001682	16.822381	2.849789	-0.000337
1429	1.4209e+02	-8.4452	-52.101255	0.001662	16.619702	2.815454	-0.000333
1430	1.4219e+02	-8.4656	-52.395966	0.001480	14.795588	2.506440	-0.000296
1431	1.4228e+02	-8.4860	-52.767383	0.001865	18.646495	3.158802	-0.000373
1432	1.4238e+02	-8.5048	-53.045945	0.001398	13.984871	2.369101	-0.000280
1433	1.4248e+02	-8.5262	-53.320470	0.001378	13.782192	2.334766	-0.000276
1434	1.4258e+02	-8.5449	-53.695924	0.001885	18.849174	3.193137	-0.000377
1435	1.4268e+02	-8.5665	-54.031006	0.001682	16.822381	2.849789	-0.000337
1436	1.4278e+02	-8.5855	-54.337828	0.001540	15.403626	2.609445	-0.000308
1437	1.4288e+02	-8.6049	-54.689059	0.001763	17.633098	2.987128	-0.000353
1438	1.4298e+02	-8.6261	-54.967622	0.001398	13.984871	2.369101	-0.000280
1439	1.4308e+02	-8.6461	-55.326927	0.001804	18.038457	3.055797	-0.000361
1440	1.4318e+02	-8.6646	-55.674120	0.001743	17.430419	2.952793	-0.000349
1441	1.4328e+02	-8.6848	-56.013240	0.001703	17.025060	2.884123	-0.000341
1442	1.4338e+02	-8.7049	-56.328136	0.001581	15.808985	2.678115	-0.000316
1443	1.4348e+02	-8.7247	-56.695516	0.001844	18.443815	3.124467	-0.000369
1444	1.4358e+02	-8.7442	-57.066932	0.001865	18.646495	3.158802	-0.000373
1445	1.4368e+02	-8.7650	-57.377792	0.001561	15.606305	2.643780	-0.000312
1446	1.4378e+02	-8.7846	-57.733060	0.001784	17.835778	3.021463	-0.000357
1447	1.4388e+02	-8.8040	-58.051993	0.001601	16.011664	2.712449	-0.000321
1448	1.4398e+02	-8.8245	-58.415336	0.001824	18.241136	3.090132	-0.000365
1449	1.4408e+02	-8.8437	-58.782715	0.001844	18.443815	3.124467	-0.000369
1450	1.4418e+02	-8.8638	-59.129909	0.001743	17.430419	2.952793	-0.000349
1451	1.4428e+02	-8.8843	-59.460954	0.001662	16.619702	2.815454	-0.000333
1452	1.4437e+02	-8.9037	-59.860630	0.002007	20.065250	3.399145	-0.000402
1453	1.4447e+02	-8.9233	-60.195712	0.001682	16.822381	2.849789	-0.000337
1454	1.4457e+02	-8.9432	-60.591352	0.001986	19.862570	3.364811	-0.000398
1455	1.4467e+02	-8.9632	-60.938545	0.001743	17.430419	2.952793	-0.000349
1456	1.4477e+02	-8.9827	-61.338222	0.002007	20.065250	3.399145	-0.000402
1457	1.4487e+02	-9.0034	-61.665230	0.001642	16.417023	2.781119	-0.000329
1458	1.4497e+02	-9.0240	-62.052795	0.001946	19.457212	3.296141	-0.000390
1459	1.4507e+02	-9.0430	-62.452471	0.002007	20.065250	3.399145	-0.000402
1460	1.4517e+02	-9.0636	-62.811776	0.001804	18.038457	3.055797	-0.000361
1461	1.4527e+02	-9.0831	-63.227601	0.002088	20.875967	3.536485	-0.000418
1462	1.4537e+02	-9.1040	-63.603055	0.001885	18.849174	3.193137	-0.000377
1463	1.4547e+02	-9.1226	-63.950249	0.001743	17.430419	2.952793	-0.000349
1464	1.4557e+02	-9.1446	-64.357999	0.002047	20.470608	3.467815	-0.000410
1465	1.4567e+02	-9.1635	-64.741527	0.001925	19.254533	3.261806	-0.000385
1466	1.4577e+02	-9.1826	-65.161389	0.002108	21.078646	3.570819	-0.000422
1467	1.4587e+02	-9.2023	-65.552992	0.001966	19.659891	3.330476	-0.000394
1468	1.4597e+02	-9.2228	-65.968817	0.002088	20.875967	3.536485	-0.000418
1469	1.4607e+02	-9.2419	-66.360419	0.001966	19.659891	3.330476	-0.000394
1470	1.4617e+02	-9.2618	-66.739909	0.001905	19.051853	3.227471	-0.000381
1471	1.4626e+02	-9.2824	-67.143623	0.002027	20.267929	3.433480	-0.000406
1472	1.4636e+02	-9.3024	-67.579634	0.002189	21.889363	3.708159	-0.000438
1473	1.4646e+02	-9.3222	-67.942976	0.001824	18.241136	3.090132	-0.000365
1474	1.4656e+02	-9.3416	-68.366875	0.002128	21.281326	3.605154	-0.000426
1475	1.4666e+02	-9.3622	-68.782700	0.002088	20.875967	3.536485	-0.000418
1476	1.4676e+02	-9.3829	-69.226785	0.002229	22.294722	3.776828	-0.000446
1477	1.4686e+02	-9.4019	-69.598202	0.001865	18.646495	3.158802	-0.000373
1478	1.4696e+02	-9.4229	-70.038249	0.002209	22.092043	3.742493	-0.000442
1479	1.4706e+02	-9.4409	-70.450037	0.002067	20.673288	3.502150	-0.000414
1480	1.4716e+02	-9.4614	-70.914308	0.002331	23.308118	3.948502	-0.000467
1481	1.4726e+02	-9.4812	-71.318021	0.002027	20.267929	3.433480	-0.000406
1482	1.4736e+02	-9.5016	-71.762106	0.002229	22.294722	3.776828	-0.000446
1483	1.4746e+02	-9.5219	-72.169857	0.002047	20.470608	3.467815	-0.000410
1484	1.4756e+02	-9.5415	-72.634128	0.002331	23.308118	3.948502	-0.000467
1485	1.4766e+02	-9.5615	-73.049953	0.002088	20.875967	3.536485	-0.000418
1486	1.4776e+02	-9.5810	-73.485963	0.002189	21.889363	3.708159	-0.000438
1487	1.4786e+02	-9.6017	-73.958308	0.002371	23.713477	4.017172	-0.000475
1488	1.4796e+02	-9.6204	-74.378170	0.002108	21.078646	3.570819	-0.000422
1489	1.4806e+02	-9.6407	-74.818218	0.002209	22.092043	3.742493	-0.000442
1490	1.4816e+02	-9.6609	-75.270377	0.002270	22.700081	3.845498	-0.000454
1491	1.4825e+02	-9.6806	-75.694277	0.002128	21.281326	3.605154	-0.000426
1492	1.4835e+02	-9.7016	-76.186807	0.002473	24.726873	4.188846	-0.000495
1493	1.4845e+02	-9.7202	-76.659152	0.002371	23.713477	4.017172	-0.000475
1494	1.4855e+02	-9.7403	-77.079014	0.002108	21.078646	3.570819	-0.000422
1495	1.4865e+02	-9.7607	-77.567508	0.002452	24.524194	4.154511	-0.000491
1496	1.4875e+02	-9.7799	-78.039852	0.002371	23.713477	4.017172	-0.000475
1497	1.4885e+02	-9.7998	-78.479900	0.002209	22.092043	3.742493	-0.000442
1498	1.4895e+02	-9.8193	-78.992616	0.002574	25.740270	4.360520	-0.000515
1499	1.4905e+02	-9.8401	-79.481110	0.002452	24.524194	4.154511	-0.000491
1500	1.4915e+02	-9.8605	-79.905009	0.002128	21.281326	3.605154	-0.000426
1501	1.4925e+02	-9.8804	-80.409651	0.002533	25.334911	4.291850	-0.000507
1502	1.4935e+02	-9.8997	-80.930442	0.002615	26.145628	4.429189	-0.000523
1503	1.4945e+02	-9.9197	-81.386638	0.002290	22.902760	3.879833	-0.000458
1504	1.4955e+02	-9.9397	-81.887243	0.002513	25.132232	4.257515	-0.000503
1505	1.4965e+02	-9.9596	-82.343439	0.002290	22.902760	3.879833	-0.000458
1506	1.4975e+02	-9.9799	-82.896527	0.002777	27.767063	4.703868	-0.000556
1507	1.4985e+02	-9.9998	-83.332537	0.002189	21.889363	3.708159	-0.000438
1508	1.4995e+02	-9.9789	-83.703954	-0.001865	-18.646495	-3.158802	-0.000373
1509	1.5005e+02	-9.9604	-83.946182	-0.001216	-12.160757	-2.060088	-0.000243
1510	1.5015e+02	-9.9400	-84.216670	-0.001358	-13.579512	-2.300432	-0.000272
1511	1.5025e+02	-9.9200	-84.487158	-0.001358	-13.579512	-2.300432	-0.000272
1512	1.5034e+02	-9.9005	-84.676904	-0.000953	-9.525927	-1.613736	-0.000191
1513	1.5044e+02	-9.8808	-84.890872	-0.001074	-10.742002	-1.819744	-0.000215
1514	1.5054e+02	-9.8593	-85.076580	-0.000932	-9.323247	-1.579401	-0.000187
1515	1.5064e+02	-9.8396	-85.254214	-0.000892	-8.917889	-1.510731	-0.000179
1516	1.5074e+02	-9.8199	-85.492405	-0.001196	-11.958078	-2.025753	-0.000239
1517	1.5084e+02	-9.8001	-85.678113	-0.000932	-9.323247	-1.579401	-0.000187
1518	1.5094e+02	-9.7806	-85.799227	-0.000608	-6.080379	-1.030044	-0.000122
1519	1.5104e+02	-9.7604	-85.960713	-0.000811	-8.107172	-1.373392	-0.000162
1520	1.5114e+02	-9.7417	-86.097975	-0.000689	-6.891096	-1.167383	-0.000138
1521	1.5124e+02	-9.7205	-86.194867	-0.000486	-4.864303	-0.824035	-0.000097
1522	1.5134e+02	-9.7000	-86.328092	-0.000669	-6.688417	-1.133048	-0.000134
1523	1.5144e+02	-9.6808	-86.469392	-0.000709	-7.093775	-1.201718	-0.000142
1524	1.5154e+02	-9.6616	-86.594543	-0.000628	-6.283058	-1.064379	-0.000126
1525	1.5164e+02	-9.6411	-86.691434	-0.000486	-4.864303	-0.824035	-0.000097
1526	1.5174e+02	-9.6212	-86.796400	-0.000527	-5.269662	-0.892705	-0.000105
1527	1.5184e+02	-9.6011	-86.881180	-0.000426	-4.256265	-0.721031	-0.000085
1528	1.5194e+02	-9.5813	-86.961922	-0.000405	-4.053586	-0.686696	-0.000081
1529	1.5204e+02	-9.5605	-87.066888	-0.000527	-5.269662	-0.892705	-0.000105
1530	1.5214e+02	-9.5410	-87.135519	-0.000345	-3.445548	-0.583692	-0.000069
1531	1.5224e+02	-9.5213	-87.240485	-0.000527	-5.269662	-0.892705	-0.000105
1532	1.5233e+02	-9.5024	-87.284893	-0.000223	-2.229472	-0.377683	-0.000045
1533	1.5243e+02	-9.4821	-87.337376	-0.000263	-2.634831	-0.446352	-0.000053
1534	1.5253e+02	-9.4614	-87.373710	-0.000182	-1.824114	-0.309013	-0.000037
1535	1.5263e+02	-9.4421	-87.482713	-0.000547	-5.472341	-0.927040	-0.000110
1536	1.5273e+02	-9.4218	-87.482713	0.000000	0.000000	0.000000	0.000000
1537	1.5283e+02	-9.4009	-87.579604	-0.000486	-4.864303	-0.824035	-0.000097
1538	1.5293e+02	-9.3823	-87.571530	0.000041	0.405359	0.068670	0.000008
1539	1.5303e+02	-9.3616	-87.644198	-0.000365	-3.648227	-0.618026	-0.000073
1540	1.5313e+02	-9.3427	-87.644198	0.000000	0.000000	0.000000	0.000000
1541	1.5323e+02	-9.3219	-87.668421	-0.000122	-1.216076	-0.206009	-0.000024
1542	1.5333e+02	-9.3030	-87.700718	-0.000162	-1.621434	-0.274678	-0.000032
1543	1.5343e+02	-9.2817	-87.737052	-0.000182	-1.824114	-0.309013	-0.000037
1544	1.5353e+02	-9.2622	-87.757238	-0.000101	-1.013396	-0.171674	-0.000020
1545	1.5363e+02	-9.2413	-87.777424	-0.000101	-1.013396	-0.171674	-0.000020
1546	1.5373e+02	-9.2224	-87.793572	-0.000081	-0.810717	-0.137339	-0.000016
1547	1.5383e+02	-9.2021	-87.781461	0.000061	0.608038	0.103004	0.000012
1548	1.5393e+02	-9.1833	-87.785498	-0.000020	-0.202679	-0.034335	-0.000004
1549	1.5403e+02	-9.1632	-87.797609	-0.000061	-0.608038	-0.103004	-0.000012
1550	1.5413e+02	-9.1434	-87.805684	-0.000041	-0.405359	-0.068670	-0.000008
1551	1.5422e+02	-9.1223	-87.829907	-0.000122	-1.216076	-0.206009	-0.000024
1552	1.5432e+02	-9.1028	-87.765312	0.000324	3.242869	0.549357	0.000065
1553	1.5442e+02	-9.0823	-87.773387	-0.000041	-0.405359	-0.068670	-0.000008
1554	1.5452e+02	-9.0640	-87.797609	-0.000122	-1.216076	-0.206009	-0.000024
1555	1.5462e+02	-9.0435	-87.801647	-0.000020	-0.202679	-0.034335	-0.000004
1556	1.5472e+02	-9.0240	-87.745127	0.000284	2.837510	0.480687	0.000057
1557	1.5482e+02	-9.0034	-87.753201	-0.000041	-0.405359	-0.068670	-0.000008
1558	1.5492e+02	-8.9838	-87.733015	0.000101	1.013396	0.171674	0.000020
1559	1.5502e+02	-8.9639	-87.720904	0.000061	0.608038	0.103004	0.000012
1560	1.5512e+02	-8.9441	-87.720904	0.000000	0.000000	0.000000	0.000000
1561	1.5522e+02	-8.9238	-87.672458	0.000243	2.432151	0.412018	0.000049
1562	1.5532e+02	-8.9041	-87.672458	0.000000	0.000000	0.000000	0.000000
1563	1.5542e+02	-8.8837	-87.640161	0.000162	1.621434	0.274678	0.000032
1564	1.5552e+02	-8.8646	-87.607864	0.000162	1.621434	0.274678	0.000032
1565	1.5562e+02	-8.8434	-87.571530	0.000182	1.824114	0.309013	0.000037
1566	1.5572e+02	-8.8266	-87.599790	-0.000142	-1.418755	-0.240344	-0.000028
1567	1.5582e+02	-8.8040	-87.543270	0.000284	2.837510	0.480687	0.000057
1568	1.5592e+02	-8.7851	-87.543270	0.000000	0.000000	0.000000	0.000000
1569	1.5602e+02	-8.7645	-87.458490	0.000426	4.256265	0.721031	0.000085
1570	1.5612e+02	-8.7450	-87.446379	0.000061	0.608038	0.103004	0.000012
1571	1.5622e+02	-8.7240	-87.397933	0.000243	2.432151	0.412018	0.000049
1572	1.5631e+02	-8.7045	-87.361599	0.000182	1.824114	0.309013	0.000037
1573	1.5641e+02	-8.6850	-87.301042	0.000304	3.040189	0.515022	0.000061
1574	1.5651e+02	-8.6650	-87.264708	0.000182	1.824114	0.309013	0.000037
1575	1.5661e+02	-8.6455	-87.256633	0.000041	0.405359	0.068670	0.000008
1576	1.5671e+02	-8.6254	-87.196076	0.000304	3.040189	0.515022	0.000061
1577	1.5681e+02	-8.6052	-87.151668	0.000223	2.229472	0.377683	0.000045
1578	1.5691e+02	-8.5846	-87.107259	0.000223	2.229472	0.377683	0.000045
1579	1.5701e+02	-8.5655	-87.054776	0.000263	2.634831	0.446352	0.000053
1580	1.5711e+02	-8.5440	-87.014405	0.000203	2.026793	0.343348	0.000041
1581	1.5721e+02	-8.5254	-86.937700	0.000385	3.850907	0.652361	0.000077
1582	1.5731e+02	-8.5053	-86.917514	0.000101	1.013396	0.171674	0.000020
1583	1.5741e+02	-8.4863	-86.856957	0.000304	3.040189	0.515022	0.000061
1584	1.5751e+02	-8.4660	-86.828697	0.000142	1.418755	0.240344	0.000028
1585	1.5761e+02	-8.4454	-86.764103	0.000324	3.242869	0.549357	0.000065
1586	1.5771e+02	-8.4256	-86.699509	0.000324	3.242869	0.549357	0.000065
1587	1.5781e+02	-8.4048	-86.683360	0.000081	0.810717	0.137339	0.000016
1588	1.5791e+02	-8.3871	-86.590506	0.000466	4.661624	0.789700	0.000093
1589	1.5801e+02	-8.3667	-86.489577	0.000507	5.066982	0.858370	0.000101
1590	1.5811e+02	-8.3478	-86.501689	-0.000061	-0.608038	-0.103004	-0.000012
1591	1.5821e+02	-8.3264	-86.400760	0.000507	5.066982	0.858370	0.000101
1592	1.5830e+02	-8.3066	-86.348278	0.000263	2.634831	0.446352	0.000053
1593	1.5840e+02	-8.2856	-86.299832	0.000243	2.432151	0.412018	0.000049
1594	1.5850e+02	-8.2654	-86.206978	0.000466	4.661624	0.789700	0.000093
1595	1.5860e+02	-8.2465	-86.122198	0.000426	4.256265	0.721031	0.000085
1596	1.5870e+02	-8.2262	-86.114124	0.000041	0.405359	0.068670	0.000008
1597	1.5880e+02	-8.2062	-86.053567	0.000304	3.040189	0.515022	0.000061
1598	1.5890e+02	-8.1874	-85.956676	0.000486	4.864303	0.824035	0.000097
1599	1.5900e+02	-8.1673	-85.892081	0.000324	3.242869	0.549357	0.000065
1600	1.5910e+02	-8.1468	-85.855747	0.000182	1.824114	0.309013	0.000037
1601	1.5920e+02	-8.1273	-85.795190	0.000304	3.040189	0.515022	0.000061
1602	1.5930e+02	-8.1070	-85.694262	0.000507	5.066982	0.858370	0.000101
1603	1.5940e+02	-8.0865	-85.633705	0.000304	3.040189	0.515022	0.000061
1604	1.5950e+02	-8.0672	-85.544888	0.000446	4.458944	0.755366	0.000089
1605	1.5960e+02	-8.0475	-85.468182	0.000385	3.850907	0.652361	0.000077
1606	1.5970e+02	-8.0270	-85.403588	0.000324	3.242869	0.549357	0.000065
1607	1.5980e+02	-8.0077	-85.363217	0.000203	2.026793	0.343348	0.000041
1608	1.5990e+02	-7.9874	-85.290548	0.000365	3.648227	0.618026	0.000073
1609	1.6000e+02	-7.9676	-85.205768	0.000426	4.256265	0.721031	0.000085
1610	1.6010e+02	-7.9477	-85.149248	0.000284	2.837510	0.480687	0.000057
1611	1.6019e+02	-7.9285	-85.044283	0.000527	5.269662	0.892705	0.000105
1612	1.6029e+02	-7.9086	-84.975652	0.000345	3.445548	0.583692	0.000069
1613	1.6039e+02	-7.8876	-84.862612	0.000568	5.675020	0.961374	0.000114
1614	1.6049e+02	-7.8685	-84.818203	0.000223	2.229472	0.377683	0.000045
1615	1.6059e+02	-7.8482	-84.733423	0.000426	4.256265	0.721031	0.000085
1616	1.6069e+02	-7.8279	-84.664792	0.000345	3.445548	0.583692	0.000069
1617	1.6079e+02	-7.8085	-84.592124	0.000365	3.648227	0.618026	0.000073
1618	1.6089e+02	-7.7890	-84.531567	0.000304	3.040189	0.515022	0.000061
1619	1.6099e+02	-7.7692	-84.410453	0.000608	6.080379	1.030044	0.000122
1620	1.6109e+02	-7.7488	-84.353933	0.000284	2.837510	0.480687	0.000057
1621	1.6119e+02	-7.7293	-84.261079	0.000466	4.661624	0.789700	0.000093
1622	1.6129e+02	-7.7090	-84.208596	0.000263	2.634831	0.446352	0.000053
1623	1.6139e+02	-7.6892	-84.135927	0.000365	3.648227	0.618026	0.000073
1624	1.6149e+02	-7.6686	-84.030962	0.000527	5.269662	0.892705	0.000105
1625	1.6159e+02	-7.6491	-83.934071	0.000486	4.864303	0.824035	0.000097
1626	1.6169e+02	-7.6291	-83.869476	0.000324	3.242869	0.549357	0.000065
1627	1.6179e+02	-7.6086	-83.740288	0.000649	6.485737	1.098714	0.000130
1628	1.6189e+02	-7.5899	-83.716065	0.000122	1.216076	0.206009	0.000024
1629	1.6199e+02	-7.5700	-83.582840	0.000669	6.688417	1.133048	0.000134
1630	1.6209e+02	-7.5500	-83.494023	0.000446	4.458944	0.755366	0.000089
1631	1.6219e+02	-7.5294	-83.449614	0.000223	2.229472	0.377683	0.000045
1632	1.6228e+02	-7.5095	-83.393094	0.000284	2.837510	0.480687	0.000057
1633	1.6238e+02	-7.4911	-83.271980	0.000608	6.080379	1.030044	0.000122
1634	1.6248e+02	-7.4702	-83.215460	0.000284	2.837510	0.480687	0.000057
1635	1.6258e+02	-7.4508	-83.122606	0.000466	4.661624	0.789700	0.000093
1636	1.6268e+02	-7.4303	-83.005529	0.000588	5.877699	0.995709	0.000118
1637	1.6278e+02	-7.4106	-82.920749	0.000426	4.256265	0.721031	0.000085
1638	1.6288e+02	-7.3898	-82.856155	0.000324	3.242869	0.549357	0.000065
1639	1.6298e+02	-7.3703	-82.735041	0.000608	6.080379	1.030044	0.000122
1640	1.6308e+02	-7.3505	-82.650261	0.000426	4.256265	0.721031	0.000085
1641	1.6318e+02	-7.3306	-82.569519	0.000405	4.053586	0.686696	0.000081
1642	1.6328e+02	-7.3114	-82.472627	0.000486	4.864303	0.824035	0.000097
1643	1.6338e+02	-7.2916	-82.351513	0.000608	6.080379	1.030044	0.000122
1644	1.6348e+02	-7.2708	-82.258659	0.000466	4.661624	0.789700	0.000093
1645	1.6358e+02	-7.2507	-82.181954	0.000385	3.850907	0.652361	0.000077
1646	1.6368e+02	-7.2308	-82.076988	0.000527	5.269662	0.892705	0.000105
1647	1.6378e+02	-7.2119	-82.012394	0.000324	3.242869	0.549357	0.000065
1648	1.6388e+02	-7.1921	-81.907428	0.000527	5.269662	0.892705	0.000105
1649	1.6398e+02	-7.1724	-81.814574	0.000466	4.661624	0.789700	0.000093
1650	1.6408e+02	-7.1521	-81.697497	0.000588	5.877699	0.995709	0.000118
1651	1.6418e+02	-7.1322	-81.685386	0.000061	0.608038	0.103004	0.000012
1652	1.6427e+02	-7.1121	-81.536012	0.000750	7.499134	1.270388	0.000150
1653	1.6437e+02	-7.0920	-81.431046	0.000527	5.269662	0.892705	0.000105
1654	1.6447e+02	-7.0720	-81.358378	0.000365	3.648227	0.618026	0.000073
1655	1.6457e+02	-7.0523	-81.257450	0.000507	5.066982	0.858370	0.000101
1656	1.6467e+02	-7.0314	-81.152484	0.000527	5.269662	0.892705	0.000105
1657	1.6477e+02	-7.0123	-81.091927	0.000304	3.040189	0.515022	0.000061
1658	1.6487e+02	-6.9922	-80.962739	0.000649	6.485737	1.098714	0.000130
1659	1.6497e+02	-6.9727	-80.861810	0.000507	5.066982	0.858370	0.000101
1660	1.6507e+02	-6.9527	-80.777030	0.000426	4.256265	0.721031	0.000085
1661	1.6517e+02	-6.9322	-80.623619	0.000770	7.701813	1.304722	0.000154
1662	1.6527e+02	-6.9119	-80.546914	0.000385	3.850907	0.652361	0.000077
1663	1.6537e+02	-6.8918	-80.458097	0.000446	4.458944	0.755366	0.000089
1664	1.6547e+02	-6.8724	-80.373317	0.000426	4.256265	0.721031	0.000085
1665	1.6557e+02	-6.8524	-80.252203	0.000608	6.080379	1.030044	0.000122
1666	1.6567e+02	-6.8326	-80.171460	0.000405	4.053586	0.686696	0.000081
1667	1.6577e+02	-6.8127	-80.082643	0.000446	4.458944	0.755366	0.000089
1668	1.6587e+02	-6.7932	-79.925195	0.000790	7.904492	1.339057	0.000158
1669	1.6597e+02	-6.7731	-79.808118	0.000588	5.877699	0.995709	0.000118
1670	1.6607e+02	-6.7535	-79.747561	0.000304	3.040189	0.515022	0.000061
1671	1.6616e+02	-6.7329	-79.610298	0.000689	6.891096	1.167383	0.000138
1672	1.6626e+02	-6.7136	-79.545704	0.000324	3.242869	0.549357	0.000065
1673	1.6636e+02	-6.6934	-79.456887	0.000446	4.458944	0.755366	0.000089
1674	1.6646e+02	-6.6724	-79.331736	0.000628	6.283058	1.064379	0.000126
1675	1.6656e+02	-6.6531	-79.242919	0.000446	4.458944	0.755366	0.000089
1676	1.6666e+02	-6.6323	-79.133916	0.000547	5.472341	0.927040	0.000110
1677	1.6676e+02	-6.6135	-79.032988	0.000507	5.066982	0.858370	0.000101
1678	1.6686e+02	-6.5933	-78.932059	0.000507	5.066982	0.858370	0.000101
1679	1.6696e+02	-6.5741	-78.819020	0.000568	5.675020	0.961374	0.000114
1680	1.6706e+02	-6.5536	-78.714054	0.000527	5.269662	0.892705	0.000105
1681	1.6716e+02	-6.5338	-78.621200	0.000466	4.661624	0.789700	0.000093
1682	1.6726e+02	-6.5143	-78.524309	0.000486	4.864303	0.824035	0.000097
1683	1.6736e+02	-6.4941	-78.399157	0.000628	6.283058	1.064379	0.000126
1684	1.6746e+02	-6.4737	-78.306303	0.000466	4.661624	0.789700	0.000093
1685	1.6756e+02	-6.4547	-78.185189	0.000608	6.080379	1.030044	0.000122
1686	1.6766e+02	-6.4343	-78.092335	0.000466	4.661624	0.789700	0.000093
1687	1.6776e+02	-6.4145	-78.011592	0.000405	4.053586	0.686696	0.000081
1688	1.6786e+02	-6.3939	-77.890478	0.000608	6.080379	1.030044	0.000122
1689	1.6796e+02	-6.3738	-77.797624	0.000466	4.661624	0.789700	0.000093
1690	1.6806e+02	-6.3541	-77.700733	0.000486	4.864303	0.824035	0.000097
1691	1.6816e+02	-6.3342	-77.563470	0.000689	6.891096	1.167383	0.000138
1692	1.6825e+02	-6.3138	-77.470616	0.000466	4.661624	0.789700	0.000093
1693	1.6835e+02	-6.2952	-77.337391	0.000669	6.688417	1.133048	0.000134
1694	1.6845e+02	-6.2741	-77.240500	0.000486	4.864303	0.824035	0.000097
1695	1.6855e+02	-6.2558	-77.143608	0.000486	4.864303	0.824035	0.000097
1696	1.6865e+02	-6.2357	-77.030568	0.000568	5.675020	0.961374	0.000114
1697	1.6875e+02	-6.2152	-76.929640	0.000507	5.066982	0.858370	0.000101
1698	1.6885e+02	-6.1958	-76.824675	0.000527	5.269662	0.892705	0.000105
1699	1.6895e+02	-6.1754	-76.739895	0.000426	4.256265	0.721031	0.000085
1700	1.6905e+02	-6.1560	-76.626855	0.000568	5.675020	0.961374	0.000114
1701	1.6915e+02	-6.1359	-76.521889	0.000527	5.269662	0.892705	0.000105
1702	1.6925e+02	-6.1159	-76.348293	0.000872	8.715209	1.476396	0.000174
1703	1.6935e+02	-6.0956	-76.279661	0.000345	3.445548	0.583692	0.000069
1704	1.6945e+02	-6.0765	-76.178733	0.000507	5.066982	0.858370	0.000101
1705	1.6955e+02	-6.0558	-76.065693	0.000568	5.675020	0.961374	0.000114
1706	1.6965e+02	-6.0362	-75.968802	0.000486	4.864303	0.824035	0.000097
1707	1.6975e+02	-6.0153	-75.843651	0.000628	6.283058	1.064379	0.000126
1708	1.6985e+02	-5.9963	-75.702351	0.000709	7.093775	1.201718	0.000142
1709	1.6995e+02	-5.9756	-75.589311	0.000568	5.675020	0.961374	0.000114
1710	1.7005e+02	-5.9563	-75.476271	0.000568	5.675020	0.961374	0.000114
1711	1.7015e+02	-5.9363	-75.383417	0.000466	4.661624	0.789700	0.000093
1712	1.7024e+02	-5.9171	-75.278452	0.000527	5.269662	0.892705	0.000105
1713	1.7034e+02	-5.8960	-75.149263	0.000649	6.485737	1.098714	0.000130
1714	1.7044e+02	-5.8762	-75.056409	0.000466	4.661624	0.789700	0.000093
1715	1.7054e+02	-5.8565	-74.947406	0.000547	5.472341	0.927040	0.000110
1716	1.7064e+02	-5.8365	-74.846478	0.000507	5.066982	0.858370	0.000101
1717	1.7074e+02	-5.8159	-74.705178	0.000709	7.093775	1.201718	0.000142
1718	1.7084e+02	-5.7968	-74.575990	0.000649	6.485737	1.098714	0.000130
1719	1.7094e+02	-5.7768	-74.475062	0.000507	5.066982	0.858370	0.000101
1720	1.7104e+02	-5.7564	-74.374133	0.000507	5.066982	0.858370	0.000101
1721	1.7114e+02	-5.7365	-74.240908	0.000669	6.688417	1.133048	0.000134
1722	1.7124e+02	-5.7171	-74.131905	0.000547	5.472341	0.927040	0.000110
1723	1.7134e+02	-5.6961	-74.018865	0.000568	5.675020	0.961374	0.000114
1724	1.7144e+02	-5.6763	-73.934085	0.000426	4.256265	0.721031	0.000085
1725	1.7154e+02	-5.6579	-73.804897	0.000649	6.485737	1.098714	0.000130
1726	1.7164e+02	-5.6377	-73.740303	0.000324	3.242869	0.549357	0.000065
1727	1.7174e+02	-5.6171	-73.599003	0.000709	7.093775	1.201718	0.000142
1728	1.7184e+02	-5.5977	-73.485963	0.000568	5.675020	0.961374	0.000114
1729	1.7194e+02	-5.5769	-73.372923	0.000568	5.675020	0.961374	0.000114
1730	1.7204e+02	-5.5579	-73.235661	0.000689	6.891096	1.167383	0.000138
1731	1.7213e+02	-5.5367	-73.142807	0.000466	4.661624	0.789700	0.000093
1732	1.7223e+02	-5.5171	-73.013618	0.000649	6.485737	1.098714	0.000130
1733	1.7233e+02	-5.4977	-72.916727	0.000486	4.864303	0.824035	0.000097
1734	1.7243e+02	-5.4779	-72.779465	0.000689	6.891096	1.167383	0.000138
1735	1.7253e+02	-5.4588	-72.686610	0.000466	4.661624	0.789700	0.000093
1736	1.7263e+02	-5.4385	-72.529162	0.000790	7.904492	1.339057	0.000158
1737	1.7273e+02	-5.4179	-72.428234	0.000507	5.066982	0.858370	0.000101
1738	1.7283e+02	-5.3983	-72.347491	0.000405	4.053586	0.686696	0.000081
1739	1.7293e+02	-5.3777	-72.206191	0.000709	7.093775	1.201718	0.000142
1740	1.7303e+02	-5.3586	-72.093151	0.000568	5.675020	0.961374	0.000114
1741	1.7313e+02	-5.3378	-71.972037	0.000608	6.080379	1.030044	0.000122
1742	1.7323e+02	-5.3185	-71.887258	0.000426	4.256265	0.721031	0.000085
1743	1.7333e+02	-5.2986	-71.762106	0.000628	6.283058	1.064379	0.000126
1744	1.7343e+02	-5.2786	-71.645029	0.000588	5.877699	0.995709	0.000118
1745	1.7353e+02	-5.2585	-71.540064	0.000527	5.269662	0.892705	0.000105
1746	1.7363e+02	-5.2393	-71.435098	0.000527	5.269662	0.892705	0.000105
1747	1.7373e+02	-5.2188	-71.305910	0.000649	6.485737	1.098714	0.000130
1748	1.7383e+02	-5.1987	-71.168647	0.000689	6.891096	1.167383	0.000138
1749	1.7393e+02	-5.1787	-71.043496	0.000628	6.283058	1.064379	0.000126
1750	1.7403e+02	-5.1584	-70.950642	0.000466	4.661624	0.789700	0.000093
1751	1.7413e+02	-5.1393	-70.817417	0.000669	6.688417	1.133048	0.000134
1752	1.7422e+02	-5.1195	-70.708414	0.000547	5.472341	0.927040	0.000110
1753	1.7432e+02	-5.0989	-70.595374	0.000568	5.675020	0.961374	0.000114
1754	1.7442e+02	-5.0795	-70.482334	0.000568	5.675020	0.961374	0.000114
1755	1.7452e+02	-5.0588	-70.373332	0.000547	5.472341	0.927040	0.000110
1756	1.7462e+02	-5.0398	-70.276440	0.000486	4.864303	0.824035	0.000097
1757	1.7472e+02	-5.0194	-70.123029	0.000770	7.701813	1.304722	0.000154
1758	1.7482e+02	-4.9999	-70.018064	0.000527	5.269662	0.892705	0.000105
1759	1.7492e+02	-4.9792	-69.868690	0.000750	7.499134	1.270388	0.000150
1760	1.7502e+02	-4.9597	-69.804095	0.000324	3.242869	0.549357	0.000065
1761	1.7512e+02	-4.9401	-69.646647	0.000790	7.904492	1.339057	0.000158
1762	1.7522e+02	-4.9200	-69.537645	0.000547	5.472341	0.927040	0.000110
1763	1.7532e+02	-4.9010	-69.456902	0.000405	4.053586	0.686696	0.000081
1764	1.7542e+02	-4.8801	-69.291379	0.000831	8.309851	1.407727	0.000166
1765	1.7552e+02	-4.8601	-69.178339	0.000568	5.675020	0.961374	0.000114
1766	1.7562e+02	-4.8407	-69.045114	0.000669	6.688417	1.133048	0.000134
1767	1.7572e+02	-4.8206	-68.924000	0.000608	6.080379	1.030044	0.000122
1768	1.7582e+02	-4.8000	-68.802886	0.000608	6.080379	1.030044	0.000122
1769	1.7592e+02	-4.7800	-68.689846	0.000568	5.675020	0.961374	0.000114
1770	1.7602e+02	-4.7610	-68.556621	0.000669	6.688417	1.133048	0.000134
1771	1.7612e+02	-4.7408	-68.427432	0.000649	6.485737	1.098714	0.000130
1772	1.7621e+02	-4.7207	-68.278058	0.000750	7.499134	1.270388	0.000150
1773	1.7631e+02	-4.7019	-68.173093	0.000527	5.269662	0.892705	0.000105
1774	1.7641e+02	-4.6814	-68.047941	0.000628	6.283058	1.064379	0.000126
1775	1.7651e+02	-4.6606	-67.910679	0.000689	6.891096	1.167383	0.000138
1776	1.7661e+02	-4.6404	-67.862233	0.000243	2.432151	0.412018	0.000049
1777	1.7671e+02	-4.6216	-67.652302	0.001054	10.539323	1.785410	0.000211
1778	1.7681e+02	-4.6011	-67.543299	0.000547	5.472341	0.927040	0.000110
1779	1.7691e+02	-4.5811	-67.406037	0.000689	6.891096	1.167383	0.000138
1780	1.7701e+02	-4.5619	-67.337406	0.000345	3.445548	0.583692	0.000069
1781	1.7711e+02	-4.5412	-67.171883	0.000831	8.309851	1.407727	0.000166
1782	1.7721e+02	-4.5226	-67.074992	0.000486	4.864303	0.824035	0.000097
1783	1.7731e+02	-4.5013	-66.937729	0.000689	6.891096	1.167383	0.000138
1784	1.7741e+02	-4.4812	-66.824689	0.000568	5.675020	0.961374	0.000114
1785	1.7751e+02	-4.4610	-66.695501	0.000649	6.485737	1.098714	0.000130
1786	1.7761e+02	-4.4420	-66.566313	0.000649	6.485737	1.098714	0.000130
1787	1.7771e+02	-4.4215	-66.437124	0.000649	6.485737	1.098714	0.000130
1788	1.7781e+02	-4.4021	-66.328122	0.000547	5.472341	0.927040	0.000110
1789	1.7791e+02	-4.3823	-66.174710	0.000770	7.701813	1.304722	0.000154
1790	1.7801e+02	-4.3612	-66.025336	0.000750	7.499134	1.270388	0.000150
1791	1.7810e+02	-4.3410	-65.896148	0.000649	6.485737	1.098714	0.000130
1792	1.7820e+02	-4.3216	-65.831554	0.000324	3.242869	0.549357	0.000065
1793	1.7830e+02	-4.3021	-65.653920	0.000892	8.917889	1.510731	0.000179
1794	1.7840e+02	-4.2837	-65.540880	0.000568	5.675020	0.961374	0.000114
1795	1.7850e+02	-4.2632	-65.415729	0.000628	6.283058	1.064379	0.000126
1796	1.7860e+02	-4.2432	-65.270392	0.000730	7.296454	1.236053	0.000146
1797	1.7870e+02	-4.2227	-65.137167	0.000669	6.688417	1.133048	0.000134
1798	1.7880e+02	-4.2029	-65.048350	0.000446	4.458944	0.755366	0.000089
1799	1.7890e+02	-4.1830	-64.935310	0.000568	5.675020	0.961374	0.000114
1800	1.7900e+02	-4.1634	-64.798047	0.000689	6.891096	1.167383	0.000138
1801	1.7910e+02	-4.1440	-64.616376	0.000912	9.120568	1.545066	0.000183
1802	1.7920e+02	-4.1232	-64.507373	0.000547	5.472341	0.927040	0.000110
1803	1.7930e+02	-4.1024	-64.382222	0.000628	6.283058	1.064379	0.000126
1804	1.7940e+02	-4.0835	-64.240922	0.000709	7.093775	1.201718	0.000142
1805	1.7950e+02	-4.0631	-64.119808	0.000608	6.080379	1.030044	0.000122
1806	1.7960e+02	-4.0437	-63.970434	0.000750	7.499134	1.270388	0.000150
1807	1.7970e+02	-4.0236	-63.853357	0.000588	5.877699	0.995709	0.000118
1808	1.7980e+02	-4.0038	-63.724169	0.000649	6.485737	1.098714	0.000130
1809	1.7990e+02	-3.9842	-63.586906	0.000689	6.891096	1.167383	0.000138
1810	1.8000e+02	-3.9639	-63.433495	0.000770	7.701813	1.304722	0.000154
1811	1.8009e+02	-3.9438	-63.332567	0.000507	5.066982	0.858370	0.000101
1812	1.8019e+02	-3.9237	-63.171081	0.000811	8.107172	1.373392	0.000162
1813	1.8029e+02	-3.9038	-63.070153	0.000507	5.066982	0.858370	0.000101
1814	1.8039e+02	-3.8832	-62.904631	0.000831	8.309851	1.407727	0.000166
1815	1.8049e+02	-3.8635	-62.771405	0.000669	6.688417	1.133048	0.000134
1816	1.8059e+02	-3.8438	-62.626068	0.000730	7.296454	1.236053	0.000146
1817	1.8069e+02	-3.8243	-62.513028	0.000568	5.675020	0.961374	0.000114
1818	1.8079e+02	-3.8045	-62.339431	0.000872	8.715209	1.476396	0.000174
1819	1.8089e+02	-3.7840	-62.226392	0.000568	5.675020	0.961374	0.000114
1820	1.8099e+02	-3.7648	-62.085092	0.000709	7.093775	1.201718	0.000142
1821	1.8109e+02	-3.7437	-61.947829	0.000689	6.891096	1.167383	0.000138
1822	1.8119e+02	-3.7244	-61.802492	0.000730	7.296454	1.236053	0.000146
1823	1.8129e+02	-3.7045	-61.685416	0.000588	5.877699	0.995709	0.000118
1824	1.8139e+02	-3.6847	-61.519893	0.000831	8.309851	1.407727	0.000166
1825	1.8149e+02	-3.6646	-61.414927	0.000527	5.269662	0.892705	0.000105
1826	1.8159e+02	-3.6453	-61.273628	0.000709	7.093775	1.201718	0.000142
1827	1.8169e+02	-3.6244	-61.140402	0.000669	6.688417	1.133048	0.000134
1828	1.8179e+02	-3.6053	-60.966805	0.000872	8.715209	1.476396	0.000174
1829	1.8189e+02	-3.5851	-60.829543	0.000689	6.891096	1.167383	0.000138
1830	1.8199e+02	-3.5648	-60.672094	0.000790	7.904492	1.339057	0.000158
1831	1.8209e+02	-3.5452	-60.550980	0.000608	6.080379	1.030044	0.000122
1832	1.8218e+02	-3.5252	-60.405643	0.000730	7.296454	1.236053	0.000146
1833	1.8228e+02	-3.5054	-60.240121	0.000831	8.309851	1.407727	0.000166
1834	1.8238e+02	-3.4863	-60.139193	0.000507	5.066982	0.858370	0.000101
1835	1.8248e+02	-3.4663	-59.949447	0.000953	9.525927	1.613736	0.000191
1836	1.8258e+02	-3.4454	-59.828333	0.000608	6.080379	1.030044	0.000122
1837	1.8268e+02	-3.4264	-59.691070	0.000689	6.891096	1.167383	0.000138
1838	1.8278e+02	-3.4052	-59.565919	0.000628	6.283058	1.064379	0.000126
1839	1.8288e+02	-3.3866	-59.396360	0.000851	8.512530	1.442062	0.000170
1840	1.8298e+02	-3.3661	-59.267171	0.000649	6.485737	1.098714	0.000130
1841	1.8308e+02	-3.3466	-59.085500	0.000912	9.120568	1.545066	0.000183
1842	1.8318e+02	-3.3264	-58.968423	0.000588	5.877699	0.995709	0.000118
1843	1.8328e+02	-3.3065	-58.806938	0.000811	8.107172	1.373392	0.000162
1844	1.8338e+02	-3.2864	-58.665638	0.000709	7.093775	1.201718	0.000142
1845	1.8348e+02	-3.2656	-58.564710	0.000507	5.066982	0.858370	0.000101
1846	1.8358e+02	-3.2465	-58.403224	0.000811	8.107172	1.373392	0.000162
1847	1.8368e+02	-3.2266	-58.237702	0.000831	8.309851	1.407727	0.000166
1848	1.8378e+02	-3.2060	-58.076216	0.000811	8.107172	1.373392	0.000162
1849	1.8388e+02	-3.1870	-57.947028	0.000649	6.485737	1.098714	0.000130
1850	1.8398e+02	-3.1673	-57.846099	0.000507	5.066982	0.858370	0.000101
1851	1.8407e+02	-3.1487	-57.656354	0.000953	9.525927	1.613736	0.000191
1852	1.8417e+02	-3.1264	-57.527166	0.000649	6.485737	1.098714	0.000130
1853	1.8427e+02	-3.1079	-57.389903	0.000689	6.891096	1.167383	0.000138
1854	1.8437e+02	-3.0877	-57.224381	0.000831	8.309851	1.407727	0.000166
1855	1.8447e+02	-3.0672	-57.103266	0.000608	6.080379	1.030044	0.000122
1856	1.8457e+02	-3.0469	-56.966004	0.000689	6.891096	1.167383	0.000138
1857	1.8467e+02	-3.0272	-56.832778	0.000669	6.688417	1.133048	0.000134
1858	1.8477e+02	-3.0074	-56.675330	0.000790	7.904492	1.339057	0.000158
1859	1.8487e+02	-2.9877	-56.465399	0.001054	10.539323	1.785410	0.000211
1860	1.8497e+02	-2.9675	-56.360433	0.000527	5.269662	0.892705	0.000105
1861	1.8507e+02	-2.9479	-56.227208	0.000669	6.688417	1.133048	0.000134
1862	1.8517e+02	-2.9272	-56.085908	0.000709	7.093775	1.201718	0.000142
1863	1.8527e+02	-2.9074	-55.960757	0.000628	6.283058	1.064379	0.000126
1864	1.8537e+02	-2.8876	-55.758900	0.001013	10.133965	1.716740	0.000203
1865	1.8547e+02	-2.8682	-55.613563	0.000730	7.296454	1.236053	0.000146
1866	1.8557e+02	-2.8474	-55.460152	0.000770	7.701813	1.304722	0.000154
1867	1.8567e+02	-2.8281	-55.351150	0.000547	5.472341	0.927040	0.000110
1868	1.8577e+02	-2.8085	-55.173516	0.000892	8.917889	1.510731	0.000179
1869	1.8587e+02	-2.7874	-55.020104	0.000770	7.701813	1.304722	0.000154
1870	1.8597e+02	-2.7679	-54.878805	0.000709	7.093775	1.201718	0.000142
1871	1.8606e+02	-2.7484	-54.721356	0.000790	7.904492	1.339057	0.000158
1872	1.8616e+02	-2.7290	-54.596205	0.000628	6.283058	1.064379	0.000126
1873	1.8626e+02	-2.7084	-54.430683	0.000831	8.309851	1.407727	0.000166
1874	1.8636e+02	-2.6891	-54.253049	0.000892	8.917889	1.510731	0.000179
1875	1.8646e+02	-2.6685	-54.127897	0.000628	6.283058	1.064379	0.000126
1876	1.8656e+02	-2.6495	-53.970449	0.000790	7.904492	1.339057	0.000158
1877	1.8666e+02	-2.6285	-53.837224	0.000669	6.688417	1.133048	0.000134
1878	1.8676e+02	-2.6083	-53.651515	0.000932	9.323247	1.579401	0.000187
1879	1.8686e+02	-2.5893	-53.498104	0.000770	7.701813	1.304722	0.000154
1880	1.8696e+02	-2.5694	-53.376990	0.000608	6.080379	1.030044	0.000122
1881	1.8706e+02	-2.5487	-53.255876	0.000608	6.080379	1.030044	0.000122
1882	1.8716e+02	-2.5294	-53.082279	0.000872	8.715209	1.476396	0.000174
1883	1.8726e+02	-2.5093	-52.908682	0.000872	8.715209	1.476396	0.000174
1884	1.8736e+02	-2.4898	-52.755271	0.000770	7.701813	1.304722	0.000154
1885	1.8746e+02	-2.4699	-52.609934	0.000730	7.296454	1.236053	0.000146
1886	1.8756e+02	-2.4495	-52.464597	0.000730	7.296454	1.236053	0.000146
1887	1.8766e+02	-2.4297	-52.295038	0.000851	8.512530	1.442062	0.000170
1888	1.8776e+02	-2.4104	-52.137589	0.000790	7.904492	1.339057	0.000158
1889	1.8786e+02	-2.3904	-52.008401	0.000649	6.485737	1.098714	0.000130
1890	1.8796e+02	-2.3698	-51.834804	0.000872	8.715209	1.476396	0.000174
1891	1.8806e+02	-2.3505	-51.649096	0.000932	9.323247	1.579401	0.000187
1892	1.8815e+02	-2.3302	-51.519908	0.000649	6.485737	1.098714	0.000130
1893	1.8825e+02	-2.3102	-51.394757	0.000628	6.283058	1.064379	0.000126
1894	1.8835e+02	-2.2916	-51.205011	0.000953	9.525927	1.613736	0.000191
1895	1.8845e+02	-2.2697	-51.027377	0.000892	8.917889	1.510731	0.000179
1896	1.8855e+02	-2.2511	-50.906263	0.000608	6.080379	1.030044	0.000122
1897	1.8865e+02	-2.2295	-50.764963	0.000709	7.093775	1.201718	0.000142
1898	1.8875e+02	-2.2100	-50.603478	0.000811	8.107172	1.373392	0.000162
1899	1.8885e+02	-2.1907	-50.437955	0.000831	8.309851	1.407727	0.000166
1900	1.8895e+02	-2.1707	-50.280507	0.000790	7.904492	1.339057	0.000158
1901	1.8905e+02	-2.1513	-50.135170	0.000730	7.296454	1.236053	0.000146
1902	1.8915e+02	-2.1310	-49.981759	0.000770	7.701813	1.304722	0.000154
1903	1.8925e+02	-2.1117	-49.816236	0.000831	8.309851	1.407727	0.000166
1904	1.8935e+02	-2.0908	-49.711271	0.000527	5.269662	0.892705	0.000105
1905	1.8945e+02	-2.0712	-49.509414	0.001013	10.133965	1.716740	0.000203
1906	1.8955e+02	-2.0517	-49.376189	0.000669	6.688417	1.133048	0.000134
1907	1.8965e+02	-2.0314	-49.202592	0.000872	8.715209	1.476396	0.000174
1908	1.8975e+02	-2.0119	-49.045144	0.000790	7.904492	1.339057	0.000158
1909	1.8985e+02	-1.9913	-48.871547	0.000872	8.715209	1.476396	0.000174
1910	1.8995e+02	-1.9714	-48.758507	0.000568	5.675020	0.961374	0.000114
1911	1.9004e+02	-1.9513	-48.576836	0.000912	9.120568	1.545066	0.000183
1912	1.9014e+02	-1.9316	-48.435536	0.000709	7.093775	1.201718	0.000142
1913	1.9024e+02	-1.9119	-48.294236	0.000709	7.093775	1.201718	0.000142
1914	1.9034e+02	-1.8918	-48.096417	0.000993	9.931285	1.682405	0.000199
1915	1.9044e+02	-1.8726	-47.959154	0.000689	6.891096	1.167383	0.000138
1916	1.9054e+02	-1.8524	-47.765371	0.000973	9.728606	1.648070	0.000195
1917	1.9064e+02	-1.8323	-47.636183	0.000649	6.485737	1.098714	0.000130
1918	1.9074e+02	-1.8121	-47.450475	0.000932	9.323247	1.579401	0.000187
1919	1.9084e+02	-1.7916	-47.321287	0.000649	6.485737	1.098714	0.000130
1920	1.9094e+02	-1.7722	-47.179987	0.000709	7.093775	1.201718	0.000142
1921	1.9104e+02	-1.7519	-47.006390	0.000872	8.715209	1.476396	0.000174
1922	1.9114e+02	-1.7327	-46.844905	0.000811	8.107172	1.373392	0.000162
1923	1.9124e+02	-1.7120	-46.695531	0.000750	7.499134	1.270388	0.000150
1924	1.9134e+02	-1.6920	-46.521934	0.000872	8.715209	1.476396	0.000174
1925	1.9144e+02	-1.6733	-46.368523	0.000770	7.701813	1.304722	0.000154
1926	1.9154e+02	-1.6528	-46.190889	0.000892	8.917889	1.510731	0.000179
1927	1.9164e+02	-1.6323	-46.045552	0.000730	7.296454	1.236053	0.000146
1928	1.9174e+02	-1.6128	-45.912326	0.000669	6.688417	1.133048	0.000134
1929	1.9184e+02	-1.5921	-45.746804	0.000831	8.309851	1.407727	0.000166
1930	1.9194e+02	-1.5736	-45.585318	0.000811	8.107172	1.373392	0.000162
1931	1.9203e+02	-1.5534	-45.431907	0.000770	7.701813	1.304722	0.000154
1932	1.9213e+02	-1.5332	-45.221976	0.001054	10.539323	1.785410	0.000211
1933	1.9223e+02	-1.5131	-45.092788	0.000649	6.485737	1.098714	0.000130
1934	1.9233e+02	-1.4931	-44.943414	0.000750	7.499134	1.270388	0.000150
1935	1.9243e+02	-1.4731	-44.757705	0.000932	9.323247	1.579401	0.000187
1936	1.9253e+02	-1.4543	-44.608331	0.000750	7.499134	1.270388	0.000150
1937	1.9263e+02	-1.4331	-44.483180	0.000628	6.283058	1.064379	0.000126
1938	1.9273e+02	-1.4131	-44.293435	0.000953	9.525927	1.613736	0.000191
1939	1.9283e+02	-1.3930	-44.119838	0.000872	8.715209	1.476396	0.000174
1940	1.9293e+02	-1.3733	-43.938167	0.000912	9.120568	1.545066	0.000183
1941	1.9303e+02	-1.3535	-43.752459	0.000932	9.323247	1.579401	0.000187
1942	1.9313e+02	-1.3341	-43.562713	0.000953	9.525927	1.613736	0.000191
1943	1.9323e+02	-1.3142	-43.473896	0.000446	4.458944	0.755366	0.000089
1944	1.9333e+02	-1.2937	-43.272039	0.001013	10.133965	1.716740	0.000203
1945	1.9343e+02	-1.2737	-43.138814	0.000669	6.688417	1.133048	0.000134
1946	1.9353e+02	-1.2541	-42.973291	0.000831	8.309851	1.407727	0.000166
1947	1.9363e+02	-1.2341	-42.771435	0.001013	10.133965	1.716740	0.000203
1948	1.9373e+02	-1.2154	-42.630135	0.000709	7.093775	1.201718	0.000142
1949	1.9383e+02	-1.1947	-42.496909	0.000669	6.688417	1.133048	0.000134
1950	1.9393e+02	-1.1752	-42.286978	0.001054	10.539323	1.785410	0.000211
1951	1.9403e+02	-1.1551	-42.157790	0.000649	6.485737	1.098714	0.000130
1952	1.9412e+02	-1.1363	-41.976119	0.000912	9.120568	1.545066	0.000183
1953	1.9422e+02	-1.1151	-41.834819	0.000709	7.093775	1.201718	0.000142
1954	1.9432e+02	-1.0958	-41.632962	0.001013	10.133965	1.716740	0.000203
1955	1.9442e+02	-1.0753	-41.511848	0.000608	6.080379	1.030044	0.000122
1956	1.9452e+02	-1.0553	-41.293843	0.001094	10.944682	1.854079	0.000219
1957	1.9462e+02	-1.0355	-41.164655	0.000649	6.485737	1.098714	0.000130
1958	1.9472e+02	-1.0155	-40.991058	0.000872	8.715209	1.476396	0.000174
1959	1.9482e+02	-0.9954	-40.809387	0.000912	9.120568	1.545066	0.000183
1960	1.9492e+02	-0.9750	-40.627715	0.000912	9.120568	1.545066	0.000183
1961	1.9502e+02	-0.9544	-40.454119	0.000872	8.715209	1.476396	0.000174
1962	1.9512e+02	-0.9354	-40.300708	0.000770	7.701813	1.304722	0.000154
1963	1.9522e+02	-0.9155	-40.155371	0.000730	7.296454	1.236053	0.000146
1964	1.9532e+02	-0.8956	-39.949477	0.001034	10.336644	1.751075	0.000207
1965	1.9542e+02	-0.8755	-39.824325	0.000628	6.283058	1.064379	0.000126
1966	1.9552e+02	-0.8569	-39.634580	0.000953	9.525927	1.613736	0.000191
1967	1.9562e+02	-0.8363	-39.448872	0.000932	9.323247	1.579401	0.000187
1968	1.9572e+02	-0.8160	-39.311609	0.000689	6.891096	1.167383	0.000138
1969	1.9582e+02	-0.7955	-39.125901	0.000932	9.323247	1.579401	0.000187
1970	1.9592e+02	-0.7760	-38.956341	0.000851	8.512530	1.442062	0.000170
1971	1.9601e+02	-0.7564	-38.811004	0.000730	7.296454	1.236053	0.000146
1972	1.9611e+02	-0.7366	-38.649519	0.000811	8.107172	1.373392	0.000162
1973	1.9621e+02	-0.7164	-38.463811	0.000932	9.323247	1.579401	0.000187
1974	1.9631e+02	-0.6970	-38.306362	0.000790	7.904492	1.339057	0.000158
1975	1.9641e+02	-0.6768	-38.124691	0.000912	9.120568	1.545066	0.000183
1976	1.9651e+02	-0.6564	-37.971280	0.000770	7.701813	1.304722	0.000154
1977	1.9661e+02	-0.6364	-37.777498	0.000973	9.728606	1.648070	0.000195
1978	1.9671e+02	-0.6173	-37.620049	0.000790	7.904492	1.339057	0.000158
1979	1.9681e+02	-0.5968	-37.406081	0.001074	10.742002	1.819744	0.000215
1980	1.9691e+02	-0.5767	-37.321301	0.000426	4.256265	0.721031	0.000085
1981	1.9701e+02	-0.5573	-37.107333	0.001074	10.742002	1.819744	0.000215
1982	1.9711e+02	-0.5378	-36.905476	0.001013	10.133965	1.716740	0.000203
1983	1.9721e+02	-0.5173	-36.743991	0.000811	8.107172	1.373392	0.000162
1984	1.9731e+02	-0.4974	-36.582505	0.000811	8.107172	1.373392	0.000162
1985	1.9741e+02	-0.4771	-36.380649	0.001013	10.133965	1.716740	0.000203
1986	1.9751e+02	-0.4565	-36.211089	0.000851	8.512530	1.442062	0.000170
1987	1.9761e+02	-0.4376	-36.065752	0.000730	7.296454	1.236053	0.000146
1988	1.9771e+02	-0.4182	-35.892155	0.000872	8.715209	1.476396	0.000174
1989	1.9781e+02	-0.3976	-35.710484	0.000912	9.120568	1.545066	0.000183
1990	1.9791e+02	-0.3770	-35.557073	0.000770	7.701813	1.304722	0.000154
1991	1.9800e+02	-0.3566	-35.351179	0.001034	10.336644	1.751075	0.000207
1992	1.9810e+02	-0.3385	-35.141248	0.001054	10.539323	1.785410	0.000211
1993	1.9820e+02	-0.3182	-35.008023	0.000669	6.688417	1.133048	0.000134
1994	1.9830e+02	-0.2982	-34.854611	0.000770	7.701813	1.304722	0.000154
1995	1.9840e+02	-0.2779	-34.628532	0.001135	11.350040	1.922749	0.000227
1996	1.9850e+02	-0.2574	-34.487232	0.000709	7.093775	1.201718	0.000142
1997	1.9860e+02	-0.2390	-34.289412	0.000993	9.931285	1.682405	0.000199
1998	1.9870e+02	-0.2180	-34.127927	0.000811	8.107172	1.373392	0.000162
1999	1.9880e+02	-0.1984	-33.954330	0.000872	8.715209	1.476396	0.000174
2000	1.9890e+02	-0.1772	-33.784770	0.000851	8.512530	1.442062	0.000170
2001	1.9900e+02	-0.1580	-33.611174	0.000872	8.715209	1.476396	0.000174
2002	1.9910e+02	-0.1384	-33.457762	0.000770	7.701813	1.304722	0.000154
2003	1.9920e+02	-0.1189	-33.272054	0.000932	9.323247	1.579401	0.000187
2004	1.9930e+02	-0.0986	-33.074235	0.000993	9.931285	1.682405	0.000199
2005	1.9940e+02	-0.0789	-32.880452	0.000973	9.728606	1.648070	0.000195
2006	1.9950e+02	-0.0591	-32.686670	0.000973	9.728606	1.648070	0.000195
2007	1.9960e+02	-0.0377	-32.541333	0.000730	7.296454	1.236053	0.000146
2008	1.9970e+02	-0.0193	-32.347550	0.000973	9.728606	1.648070	0.000195
2009	1.9980e+02	-0.0003	-32.210287	0.000973	9.728606	1.648070	0.000138

Smooth data before PMax, +/-Pr and +/-Vc Calc.

PMax (uC/cm2):	7.15e+01
Pr (uC/cm2):	9.52e+00
-Pr (uC/cm2):	-4.85e+01
PLoss (uC/cm2):	-4.86e+01
-Vc:	-1.14e+00
C (Max-Eff) (nF):	7.15e-01
K (Eff):	1.21e+03
Vert. (+/-Pr) Shift (uC/cm2):	-1.95e+01
Offset (uC/cm2):	-1.63e+01

A (Loop Area - uC/cm2·Volts):	-1.39e-01



Hysteresis Version: 5.48.1 - Radiant Technologies, Inc., 1999 - 9/12/24

