»»»»»»»»»»»»»»»»»»»»»»»»»»»»»»»»»»»» Hysteresis ««««««««««««««««««««««««««««««««««««
»»»  Executed Version:	5.48.1
»»»  Vision Version:	5.48.4 (R)
»»»  Vision Compiled:	9/18/24
»»»  Driver Version:	5.47.0
»»»  Windows Version:	Windows 8 or 8.1
»»»  Processor Information:	x86 (AMD or Intel) - 32 Processors
»»»  Tester Name:	PMF21124-494 (100V)
»»»  Tester S/N:	PMF21124-494
»»»  Internal Amp Type:	100V RevK 270k
»»»  Internal Amp S/N:	iAB2-596/K     
»»»  Execution Count:	1
»»»»»»»»»»»»»»»»»»»»»»»»»»»»»»»»»»»»»»»»»»««««««««««««««««««««««««««««««««««««««««««

Stored:	7/8/2025 - 15:13:20
Configured:	07/08/25 02:50:47 PM
Executed:	07/08/25 03:12:37 PM

»»»»»»»»»»»»»»»»»»»»»»»»»»»»»»»»»»» Sample Info ««««««««««««««««««««««««««««««««««««
Sample Name:	
Lot Name:	
Wafer Name:	
Die Row/Column:	0/0
Capacitor Number:	0
Sample Area (cm2):	1.00e-04
Sample Thickness (microns):	1.50e-01

Amplifier:	Internal

»»»»»»»»»»»»»»»»»»»»»»»»»»»»»»»»»»» Tester Info «««««««««««««««««««««««««««««««««««
Tester Name:	PMF21124-494 (100V)
Tester Serial Number:	PMF21124-494
Return Signal Amp. Level:	0.19 [Index: 3]

»»»»»»»»»»»»»»»»»»»»»»»»»»»»»»»» Hysteresis Info ««««««««««««««««««««««««««««««««««
Task Name:	Hyst-724
Volts:	10.00
Field:	666.67 (kV/cm)
DCBias:	0.00
DCField:	0.00 (kV/cm)
Hysteresis Period (ms):	2.00e+02
Preset:	Enabled
Preset Delay (ms):	1.00e+03
Profile:	Standard Bipolar

»»»»»»»»»»»»»»»»»»»»»»»»»»»»»»»»»»»»»» Data «««««««««««««««««««««««««««««««««««««««
Points:	2009

Valid Data

Point	Time (ms)	Drive Voltage	Measured Polarization (uC/cm2)	Capacitance (uF)	Normalized Capacitance (uF/cm2)	Dielectric Constant	Instantaneous Current (mA)
   1	0.0000e+00	0.0002	32.642261	0.000547	5.471965	0.926976	0.000110
   2	9.9500e-02	0.0199	32.751264	0.000547	5.471965	0.926976	0.000110
   3	1.9900e-01	0.0394	32.941009	0.000953	9.525273	1.613625	0.000191
   4	2.9850e-01	0.0592	33.074235	0.000669	6.687957	1.132971	0.000134
   5	3.9800e-01	0.0803	33.179200	0.000527	5.269300	0.892644	0.000105
   6	4.9750e-01	0.0992	33.352797	0.000871	8.714611	1.476295	0.000174
   7	5.9700e-01	0.1195	33.506208	0.000770	7.701284	1.304633	0.000154
   8	6.9650e-01	0.1389	33.651545	0.000730	7.295953	1.235968	0.000146
   9	7.9600e-01	0.1608	33.841290	0.000953	9.525273	1.613625	0.000191
  10	8.9550e-01	0.1798	33.950293	0.000547	5.471965	0.926976	0.000110
  11	9.9500e-01	0.1997	34.075444	0.000628	6.282627	1.064306	0.000126
  12	1.0945e+00	0.2189	34.261152	0.000932	9.322607	1.579292	0.000187
  13	1.1940e+00	0.2390	34.414564	0.000770	7.701284	1.304633	0.000154
  14	1.2935e+00	0.2586	34.580086	0.000831	8.309280	1.407630	0.000166
  15	1.3930e+00	0.2789	34.709275	0.000649	6.485292	1.098638	0.000130
  16	1.4925e+00	0.2993	34.870760	0.000811	8.106615	1.373298	0.000162
  17	1.5920e+00	0.3197	35.020134	0.000750	7.498619	1.270300	0.000150
  18	1.6915e+00	0.3390	35.193731	0.000871	8.714611	1.476295	0.000174
  19	1.7910e+00	0.3601	35.351179	0.000790	7.903950	1.338965	0.000158
  20	1.8905e+00	0.3790	35.540924	0.000953	9.525273	1.613625	0.000191
  21	1.9900e+00	0.3992	35.658001	0.000588	5.877296	0.995641	0.000118
  22	2.0895e+00	0.4181	35.791227	0.000669	6.687957	1.132971	0.000134
  23	2.1890e+00	0.4386	35.960787	0.000851	8.511946	1.441963	0.000170
  24	2.2885e+00	0.4590	36.146495	0.000932	9.322607	1.579292	0.000187
  25	2.3880e+00	0.4787	36.283757	0.000689	6.890623	1.167303	0.000138
  26	2.4875e+00	0.4984	36.433131	0.000750	7.498619	1.270300	0.000150
  27	2.5870e+00	0.5181	36.558283	0.000628	6.282627	1.064306	0.000126
  28	2.6865e+00	0.5378	36.760139	0.001013	10.133269	1.716622	0.000203
  29	2.7860e+00	0.5594	36.881254	0.000608	6.079961	1.029973	0.000122
  30	2.8855e+00	0.5775	37.091185	0.001054	10.538599	1.785287	0.000211
  31	2.9850e+00	0.5974	37.228447	0.000689	6.890623	1.167303	0.000138
  32	3.0845e+00	0.6178	37.357636	0.000649	6.485292	1.098638	0.000130
  33	3.1840e+00	0.6374	37.507010	0.000750	7.498619	1.270300	0.000150
  34	3.2835e+00	0.6577	37.664458	0.000790	7.903950	1.338965	0.000158
  35	3.3830e+00	0.6780	37.805758	0.000709	7.093288	1.201636	0.000142
  36	3.4825e+00	0.6967	37.951095	0.000730	7.295953	1.235968	0.000146
  37	3.5820e+00	0.7176	38.136803	0.000932	9.322607	1.579292	0.000187
  38	3.6815e+00	0.7368	38.298288	0.000811	8.106615	1.373298	0.000162
  39	3.7810e+00	0.7571	38.447662	0.000750	7.498619	1.270300	0.000150
  40	3.8805e+00	0.7772	38.597036	0.000750	7.498619	1.270300	0.000150
  41	3.9800e+00	0.7971	38.750447	0.000770	7.701284	1.304633	0.000154
  42	4.0795e+00	0.8165	38.915970	0.000831	8.309280	1.407630	0.000166
  43	4.1790e+00	0.8376	39.041121	0.000628	6.282627	1.064306	0.000126
  44	4.2785e+00	0.8568	39.190495	0.000750	7.498619	1.270300	0.000150
  45	4.3780e+00	0.8775	39.388315	0.000993	9.930603	1.682290	0.000199
  46	4.4775e+00	0.8962	39.533652	0.000730	7.295953	1.235968	0.000146
  47	4.5770e+00	0.9171	39.666877	0.000669	6.687957	1.132971	0.000134
  48	4.6765e+00	0.9361	39.840474	0.000871	8.714611	1.476295	0.000174
  49	4.7760e+00	0.9563	39.981774	0.000709	7.093288	1.201636	0.000142
  50	4.8755e+00	0.9763	40.151333	0.000851	8.511946	1.441963	0.000170
  51	4.9750e+00	0.9966	40.260336	0.000547	5.471965	0.926976	0.000110
  52	5.0745e+00	1.0165	40.466230	0.001034	10.335934	1.750955	0.000207
  53	5.1740e+00	1.0365	40.579270	0.000567	5.674630	0.961308	0.000114
  54	5.2735e+00	1.0571	40.752867	0.000871	8.714611	1.476295	0.000174
  55	5.3730e+00	1.0761	40.898204	0.000730	7.295953	1.235968	0.000146
  56	5.4725e+00	1.0965	41.079875	0.000912	9.119942	1.544960	0.000183
  57	5.5720e+00	1.1162	41.241360	0.000811	8.106615	1.373298	0.000162
  58	5.6715e+00	1.1363	41.394771	0.000770	7.701284	1.304633	0.000154
  59	5.7710e+00	1.1570	41.564331	0.000851	8.511946	1.441963	0.000170
  60	5.8705e+00	1.1759	41.737928	0.000871	8.714611	1.476295	0.000174
  61	5.9700e+00	1.1963	41.863079	0.000628	6.282627	1.064306	0.000126
  62	6.0695e+00	1.2160	42.024564	0.000811	8.106615	1.373298	0.000162
  63	6.1690e+00	1.2363	42.169901	0.000730	7.295953	1.235968	0.000146
  64	6.2685e+00	1.2563	42.355610	0.000932	9.322607	1.579292	0.000187
  65	6.3680e+00	1.2753	42.533244	0.000892	8.917276	1.510628	0.000179
  66	6.4675e+00	1.2954	42.694729	0.000811	8.106615	1.373298	0.000162
  67	6.5670e+00	1.3141	42.815843	0.000608	6.079961	1.029973	0.000122
  68	6.6665e+00	1.3348	42.957143	0.000709	7.093288	1.201636	0.000142
  69	6.7660e+00	1.3551	43.146888	0.000953	9.525273	1.613625	0.000191
  70	6.8655e+00	1.3744	43.336634	0.000953	9.525273	1.613625	0.000191
  71	6.9650e+00	1.3943	43.534453	0.000993	9.930603	1.682290	0.000199
  72	7.0645e+00	1.4144	43.647493	0.000567	5.674630	0.961308	0.000114
  73	7.1640e+00	1.4344	43.780719	0.000669	6.687957	1.132971	0.000134
  74	7.2635e+00	1.4545	43.998724	0.001094	10.943930	1.853952	0.000219
  75	7.3630e+00	1.4741	44.107727	0.000547	5.471965	0.926976	0.000110
  76	7.4625e+00	1.4935	44.269212	0.000811	8.106615	1.373298	0.000162
  77	7.5620e+00	1.5140	44.454920	0.000932	9.322607	1.579292	0.000187
  78	7.6615e+00	1.5343	44.608331	0.000770	7.701284	1.304633	0.000154
  79	7.7610e+00	1.5545	44.781928	0.000871	8.714611	1.476295	0.000174
  80	7.8605e+00	1.5745	44.947451	0.000831	8.309280	1.407630	0.000166
  81	7.9600e+00	1.5937	45.096825	0.000750	7.498619	1.270300	0.000150
  82	8.0595e+00	1.6148	45.294644	0.000993	9.930603	1.682290	0.000199
  83	8.1590e+00	1.6341	45.423833	0.000649	6.485292	1.098638	0.000130
  84	8.2585e+00	1.6534	45.589355	0.000831	8.309280	1.407630	0.000166
  85	8.3580e+00	1.6735	45.758915	0.000851	8.511946	1.441963	0.000170
  86	8.4575e+00	1.6938	45.908289	0.000750	7.498619	1.270300	0.000150
  87	8.5570e+00	1.7135	46.089960	0.000912	9.119942	1.544960	0.000183
  88	8.6565e+00	1.7333	46.227223	0.000689	6.890623	1.167303	0.000138
  89	8.7560e+00	1.7529	46.372560	0.000730	7.295953	1.235968	0.000146
  90	8.8555e+00	1.7732	46.538082	0.000831	8.309280	1.407630	0.000166
  91	8.9550e+00	1.7931	46.707642	0.000851	8.511946	1.441963	0.000170
  92	9.0545e+00	1.8135	46.857016	0.000750	7.498619	1.270300	0.000150
  93	9.1540e+00	1.8336	47.034650	0.000892	8.917276	1.510628	0.000179
  94	9.2535e+00	1.8531	47.216321	0.000912	9.119942	1.544960	0.000183
  95	9.3530e+00	1.8728	47.385881	0.000851	8.511946	1.441963	0.000170
  96	9.4525e+00	1.8937	47.502958	0.000588	5.877296	0.995641	0.000118
  97	9.5520e+00	1.9128	47.720963	0.001094	10.943930	1.853952	0.000219
  98	9.6515e+00	1.9321	47.834003	0.000567	5.674630	0.961308	0.000114
  99	9.7510e+00	1.9530	48.043934	0.001054	10.538599	1.785287	0.000211
 100	9.8505e+00	1.9728	48.201382	0.000790	7.903950	1.338965	0.000158
 101	9.9500e+00	1.9929	48.338645	0.000689	6.890623	1.167303	0.000138
 102	1.0050e+01	2.0119	48.504167	0.000831	8.309280	1.407630	0.000166
 103	1.0149e+01	2.0316	48.697950	0.000973	9.727938	1.647957	0.000195
 104	1.0248e+01	2.0523	48.835212	0.000689	6.890623	1.167303	0.000138
 105	1.0348e+01	2.0724	48.992661	0.000790	7.903950	1.338965	0.000158
 106	1.0447e+01	2.0920	49.158183	0.000831	8.309280	1.407630	0.000166
 107	1.0547e+01	2.1120	49.303520	0.000730	7.295953	1.235968	0.000146
 108	1.0646e+01	2.1314	49.448857	0.000730	7.295953	1.235968	0.000146
 109	1.0746e+01	2.1522	49.626491	0.000892	8.917276	1.510628	0.000179
 110	1.0845e+01	2.1716	49.796051	0.000851	8.511946	1.441963	0.000170
 111	1.0945e+01	2.1913	49.945425	0.000750	7.498619	1.270300	0.000150
 112	1.1044e+01	2.2118	50.123059	0.000892	8.917276	1.510628	0.000179
 113	1.1144e+01	2.2318	50.288581	0.000831	8.309280	1.407630	0.000166
 114	1.1243e+01	2.2517	50.446030	0.000790	7.903950	1.338965	0.000158
 115	1.1343e+01	2.2717	50.639812	0.000973	9.727938	1.647957	0.000195
 116	1.1443e+01	2.2919	50.769000	0.000649	6.485292	1.098638	0.000130
 117	1.1542e+01	2.3112	50.958746	0.000953	9.525273	1.613625	0.000191
 118	1.1642e+01	2.3312	51.096008	0.000689	6.890623	1.167303	0.000138
 119	1.1741e+01	2.3515	51.305940	0.001054	10.538599	1.785287	0.000211
 120	1.1841e+01	2.3712	51.414942	0.000547	5.471965	0.926976	0.000110
 121	1.1940e+01	2.3917	51.580465	0.000831	8.309280	1.407630	0.000166
 122	1.2040e+01	2.4113	51.782322	0.001013	10.133269	1.716622	0.000203
 123	1.2139e+01	2.4310	51.963993	0.000912	9.119942	1.544960	0.000183
 124	1.2239e+01	2.4511	52.105292	0.000709	7.093288	1.201636	0.000142
 125	1.2338e+01	2.4712	52.270815	0.000831	8.309280	1.407630	0.000166
 126	1.2438e+01	2.4909	52.452486	0.000912	9.119942	1.544960	0.000183
 127	1.2537e+01	2.5096	52.634157	0.000912	9.119942	1.544960	0.000183
 128	1.2636e+01	2.5310	52.771420	0.000689	6.890623	1.167303	0.000138
 129	1.2736e+01	2.5513	52.912720	0.000709	7.093288	1.201636	0.000142
 130	1.2835e+01	2.5697	53.102465	0.000953	9.525273	1.613625	0.000191
 131	1.2935e+01	2.5893	53.247802	0.000730	7.295953	1.235968	0.000146
 132	1.3034e+01	2.6094	53.413324	0.000831	8.309280	1.407630	0.000166
 133	1.3134e+01	2.6294	53.603070	0.000953	9.525273	1.613625	0.000191
 134	1.3233e+01	2.6495	53.784741	0.000912	9.119942	1.544960	0.000183
 135	1.3333e+01	2.6702	53.922003	0.000689	6.890623	1.167303	0.000138
 136	1.3432e+01	2.6897	54.075415	0.000770	7.701284	1.304633	0.000154
 137	1.3532e+01	2.7093	54.289383	0.001074	10.741265	1.819620	0.000215
 138	1.3632e+01	2.7302	54.398386	0.000547	5.471965	0.926976	0.000110
 139	1.3731e+01	2.7496	54.584094	0.000932	9.322607	1.579292	0.000187
 140	1.3831e+01	2.7704	54.737505	0.000770	7.701284	1.304633	0.000154
 141	1.3930e+01	2.7892	54.919176	0.000912	9.119942	1.544960	0.000183
 142	1.4030e+01	2.8082	55.064513	0.000730	7.295953	1.235968	0.000146
 143	1.4129e+01	2.8295	55.262333	0.000993	9.930603	1.682290	0.000199
 144	1.4229e+01	2.8493	55.379409	0.000588	5.877296	0.995641	0.000118
 145	1.4328e+01	2.8697	55.565118	0.000932	9.322607	1.579292	0.000187
 146	1.4428e+01	2.8889	55.722566	0.000790	7.903950	1.338965	0.000158
 147	1.4527e+01	2.9095	55.904237	0.000912	9.119942	1.544960	0.000183
 148	1.4627e+01	2.9298	56.033425	0.000649	6.485292	1.098638	0.000130
 149	1.4726e+01	2.9494	56.255468	0.001115	11.146596	1.888284	0.000223
 150	1.4825e+01	2.9681	56.384656	0.000649	6.485292	1.098638	0.000130
 151	1.4925e+01	2.9888	56.538067	0.000770	7.701284	1.304633	0.000154
 152	1.5024e+01	3.0089	56.671293	0.000669	6.687957	1.132971	0.000134
 153	1.5124e+01	3.0286	56.852964	0.000912	9.119942	1.544960	0.000183
 154	1.5223e+01	3.0495	57.022524	0.000851	8.511946	1.441963	0.000170
 155	1.5323e+01	3.0682	57.192083	0.000851	8.511946	1.441963	0.000170
 156	1.5422e+01	3.0882	57.369717	0.000892	8.917276	1.510628	0.000179
 157	1.5522e+01	3.1085	57.482757	0.000567	5.674630	0.961308	0.000114
 158	1.5621e+01	3.1280	57.640205	0.000790	7.903950	1.338965	0.000158
 159	1.5721e+01	3.1477	57.838025	0.000993	9.930603	1.682290	0.000199
 160	1.5820e+01	3.1680	57.995473	0.000790	7.903950	1.338965	0.000158
 161	1.5920e+01	3.1882	58.152922	0.000790	7.903950	1.338965	0.000158
 162	1.6020e+01	3.2070	58.298259	0.000730	7.295953	1.235968	0.000146
 163	1.6119e+01	3.2276	58.435521	0.000689	6.890623	1.167303	0.000138
 164	1.6218e+01	3.2476	58.625267	0.000953	9.525273	1.613625	0.000191
 165	1.6318e+01	3.2676	58.790789	0.000831	8.309280	1.407630	0.000166
 166	1.6418e+01	3.2882	58.932089	0.000709	7.093288	1.201636	0.000142
 167	1.6517e+01	3.3075	59.105686	0.000871	8.714611	1.476295	0.000174
 168	1.6616e+01	3.3272	59.279283	0.000871	8.714611	1.476295	0.000174
 169	1.6716e+01	3.3471	59.428657	0.000750	7.498619	1.270300	0.000150
 170	1.6816e+01	3.3677	59.557845	0.000649	6.485292	1.098638	0.000130
 171	1.6915e+01	3.3868	59.767776	0.001054	10.538599	1.785287	0.000211
 172	1.7015e+01	3.4071	59.896964	0.000649	6.485292	1.098638	0.000130
 173	1.7114e+01	3.4269	60.066524	0.000851	8.511946	1.441963	0.000170
 174	1.7213e+01	3.4487	60.223972	0.000790	7.903950	1.338965	0.000158
 175	1.7313e+01	3.4673	60.405643	0.000912	9.119942	1.544960	0.000183
 176	1.7413e+01	3.4872	60.550980	0.000730	7.295953	1.235968	0.000146
 177	1.7512e+01	3.5068	60.744763	0.000973	9.727938	1.647957	0.000195
 178	1.7611e+01	3.5270	60.857803	0.000567	5.674630	0.961308	0.000114
 179	1.7711e+01	3.5473	61.003140	0.000730	7.295953	1.235968	0.000146
 180	1.7811e+01	3.5662	61.176736	0.000871	8.714611	1.476295	0.000174
 181	1.7910e+01	3.5868	61.362445	0.000932	9.322607	1.579292	0.000187
 182	1.8009e+01	3.6062	61.487596	0.000628	6.282627	1.064306	0.000126
 183	1.8109e+01	3.6260	61.641007	0.000770	7.701284	1.304633	0.000154
 184	1.8209e+01	3.6461	61.810567	0.000851	8.511946	1.441963	0.000170
 185	1.8308e+01	3.6673	61.996275	0.000932	9.322607	1.579292	0.000187
 186	1.8407e+01	3.6870	62.141612	0.000730	7.295953	1.235968	0.000146
 187	1.8507e+01	3.7057	62.311172	0.000851	8.511946	1.441963	0.000170
 188	1.8607e+01	3.7262	62.460546	0.000750	7.498619	1.270300	0.000150
 189	1.8706e+01	3.7462	62.609920	0.000750	7.498619	1.270300	0.000150
 190	1.8805e+01	3.7663	62.775442	0.000831	8.309280	1.407630	0.000166
 191	1.8905e+01	3.7849	62.928853	0.000770	7.701284	1.304633	0.000154
 192	1.9005e+01	3.8050	63.074190	0.000730	7.295953	1.235968	0.000146
 193	1.9104e+01	3.8265	63.215490	0.000709	7.093288	1.201636	0.000142
 194	1.9203e+01	3.8457	63.376975	0.000811	8.106615	1.373298	0.000162
 195	1.9303e+01	3.8648	63.578832	0.001013	10.133269	1.716622	0.000203
 196	1.9402e+01	3.8857	63.683798	0.000527	5.269300	0.892644	0.000105
 197	1.9502e+01	3.9050	63.825097	0.000709	7.093288	1.201636	0.000142
 198	1.9602e+01	3.9260	64.018880	0.000973	9.727938	1.647957	0.000195
 199	1.9701e+01	3.9446	64.148068	0.000649	6.485292	1.098638	0.000130
 200	1.9800e+01	3.9651	64.305517	0.000790	7.903950	1.338965	0.000158
 201	1.9900e+01	3.9854	64.442779	0.000689	6.890623	1.167303	0.000138
 202	2.0000e+01	4.0051	64.616376	0.000871	8.714611	1.476295	0.000174
 203	2.0099e+01	4.0254	64.761713	0.000730	7.295953	1.235968	0.000146
 204	2.0198e+01	4.0443	64.911087	0.000750	7.498619	1.270300	0.000150
 205	2.0298e+01	4.0650	65.068535	0.000790	7.903950	1.338965	0.000158
 206	2.0398e+01	4.0845	65.209835	0.000709	7.093288	1.201636	0.000142
 207	2.0497e+01	4.1048	65.343060	0.000669	6.687957	1.132971	0.000134
 208	2.0596e+01	4.1250	65.504546	0.000811	8.106615	1.373298	0.000162
 209	2.0696e+01	4.1453	65.641809	0.000689	6.890623	1.167303	0.000138
 210	2.0796e+01	4.1644	65.819443	0.000892	8.917276	1.510628	0.000179
 211	2.0895e+01	4.1843	65.952668	0.000669	6.687957	1.132971	0.000134
 212	2.0994e+01	4.2040	66.098005	0.000730	7.295953	1.235968	0.000146
 213	2.1094e+01	4.2239	66.247379	0.000750	7.498619	1.270300	0.000150
 214	2.1194e+01	4.2432	66.392716	0.000730	7.295953	1.235968	0.000146
 215	2.1293e+01	4.2637	66.550164	0.000790	7.903950	1.338965	0.000158
 216	2.1392e+01	4.2843	66.707612	0.000790	7.903950	1.338965	0.000158
 217	2.1492e+01	4.3034	66.865061	0.000790	7.903950	1.338965	0.000158
 218	2.1591e+01	4.3233	66.986175	0.000608	6.079961	1.029973	0.000122
 219	2.1691e+01	4.3438	67.155734	0.000851	8.511946	1.441963	0.000170
 220	2.1791e+01	4.3639	67.297034	0.000709	7.093288	1.201636	0.000142
 221	2.1890e+01	4.3835	67.478705	0.000912	9.119942	1.544960	0.000183
 222	2.1989e+01	4.4033	67.620005	0.000709	7.093288	1.201636	0.000142
 223	2.2089e+01	4.4237	67.737082	0.000588	5.877296	0.995641	0.000118
 224	2.2189e+01	4.4437	67.890493	0.000770	7.701284	1.304633	0.000154
 225	2.2288e+01	4.4637	68.064090	0.000871	8.714611	1.476295	0.000174
 226	2.2387e+01	4.4825	68.205390	0.000709	7.093288	1.201636	0.000142
 227	2.2487e+01	4.5033	68.362838	0.000790	7.903950	1.338965	0.000158
 228	2.2587e+01	4.5223	68.528361	0.000831	8.309280	1.407630	0.000166
 229	2.2686e+01	4.5428	68.665623	0.000689	6.890623	1.167303	0.000138
 230	2.2785e+01	4.5628	68.798849	0.000669	6.687957	1.132971	0.000134
 231	2.2885e+01	4.5827	68.936111	0.000689	6.890623	1.167303	0.000138
 232	2.2985e+01	4.6023	69.077411	0.000709	7.093288	1.201636	0.000142
 233	2.3084e+01	4.6236	69.238896	0.000811	8.106615	1.373298	0.000162
 234	2.3183e+01	4.6426	69.384233	0.000730	7.295953	1.235968	0.000146
 235	2.3283e+01	4.6630	69.509385	0.000628	6.282627	1.064306	0.000126
 236	2.3383e+01	4.6827	69.691056	0.000912	9.119942	1.544960	0.000183
 237	2.3482e+01	4.7015	69.820244	0.000649	6.485292	1.098638	0.000130
 238	2.3581e+01	4.7219	69.993841	0.000871	8.714611	1.476295	0.000174
 239	2.3681e+01	4.7425	70.147252	0.000770	7.701284	1.304633	0.000154
 240	2.3780e+01	4.7623	70.272403	0.000628	6.282627	1.064306	0.000126
 241	2.3880e+01	4.7817	70.417740	0.000730	7.295953	1.235968	0.000146
 242	2.3980e+01	4.8019	70.534817	0.000588	5.877296	0.995641	0.000118
 243	2.4079e+01	4.8231	70.724562	0.000953	9.525273	1.613625	0.000191
 244	2.4178e+01	4.8418	70.861825	0.000689	6.890623	1.167303	0.000138
 245	2.4278e+01	4.8606	71.023310	0.000811	8.106615	1.373298	0.000162
 246	2.4378e+01	4.8814	71.172684	0.000750	7.498619	1.270300	0.000150
 247	2.4477e+01	4.9014	71.277650	0.000527	5.269300	0.892644	0.000105
 248	2.4576e+01	4.9221	71.467395	0.000953	9.525273	1.613625	0.000191
 249	2.4676e+01	4.9422	71.588509	0.000608	6.079961	1.029973	0.000122
 250	2.4776e+01	4.9618	71.745958	0.000790	7.903950	1.338965	0.000158
 251	2.4875e+01	4.9812	71.883220	0.000689	6.890623	1.167303	0.000138
 252	2.4974e+01	5.0011	72.020483	0.000689	6.890623	1.167303	0.000138
 253	2.5074e+01	5.0219	72.169857	0.000750	7.498619	1.270300	0.000150
 254	2.5174e+01	5.0410	72.331342	0.000811	8.106615	1.373298	0.000162
 255	2.5273e+01	5.0603	72.460531	0.000649	6.485292	1.098638	0.000130
 256	2.5372e+01	5.0799	72.622016	0.000811	8.106615	1.373298	0.000162
 257	2.5472e+01	5.1011	72.743130	0.000608	6.079961	1.029973	0.000122
 258	2.5572e+01	5.1200	72.872319	0.000649	6.485292	1.098638	0.000130
 259	2.5671e+01	5.1415	73.013618	0.000709	7.093288	1.201636	0.000142
 260	2.5770e+01	5.1600	73.179141	0.000831	8.309280	1.407630	0.000166
 261	2.5870e+01	5.1808	73.332552	0.000770	7.701284	1.304633	0.000154
 262	2.5970e+01	5.2001	73.417332	0.000426	4.255973	0.720981	0.000085
 263	2.6069e+01	5.2203	73.623226	0.001034	10.335934	1.750955	0.000207
 264	2.6169e+01	5.2394	73.760489	0.000689	6.890623	1.167303	0.000138
 265	2.6268e+01	5.2597	73.877565	0.000588	5.877296	0.995641	0.000118
 266	2.6367e+01	5.2801	74.018865	0.000709	7.093288	1.201636	0.000142
 267	2.6467e+01	5.2996	74.172276	0.000770	7.701284	1.304633	0.000154
 268	2.6567e+01	5.3197	74.333762	0.000811	8.106615	1.373298	0.000162
 269	2.6666e+01	5.3395	74.434690	0.000507	5.066634	0.858311	0.000101
 270	2.6765e+01	5.3591	74.592138	0.000790	7.903950	1.338965	0.000158
 271	2.6865e+01	5.3796	74.693067	0.000507	5.066634	0.858311	0.000101
 272	2.6965e+01	5.3997	74.878775	0.000932	9.322607	1.579292	0.000187
 273	2.7064e+01	5.4202	75.024112	0.000730	7.295953	1.235968	0.000146
 274	2.7163e+01	5.4391	75.129078	0.000527	5.269300	0.892644	0.000105
 275	2.7263e+01	5.4591	75.347083	0.001094	10.943930	1.853952	0.000219
 276	2.7363e+01	5.4794	75.423788	0.000385	3.850642	0.652316	0.000077
 277	2.7462e+01	5.4986	75.585274	0.000811	8.106615	1.373298	0.000162
 278	2.7561e+01	5.5186	75.702351	0.000588	5.877296	0.995641	0.000118
 279	2.7661e+01	5.5395	75.867873	0.000831	8.309280	1.407630	0.000166
 280	2.7761e+01	5.5584	76.021285	0.000770	7.701284	1.304633	0.000154
 281	2.7860e+01	5.5791	76.134324	0.000567	5.674630	0.961308	0.000114
 282	2.7959e+01	5.5985	76.291773	0.000790	7.903950	1.338965	0.000158
 283	2.8059e+01	5.6191	76.449221	0.000790	7.903950	1.338965	0.000158
 284	2.8159e+01	5.6390	76.566298	0.000588	5.877296	0.995641	0.000118
 285	2.8258e+01	5.6587	76.715672	0.000750	7.498619	1.270300	0.000150
 286	2.8358e+01	5.6780	76.861009	0.000730	7.295953	1.235968	0.000146
 287	2.8457e+01	5.6979	77.010383	0.000750	7.498619	1.270300	0.000150
 288	2.8556e+01	5.7178	77.139571	0.000649	6.485292	1.098638	0.000130
 289	2.8656e+01	5.7378	77.309131	0.000851	8.511946	1.441963	0.000170
 290	2.8756e+01	5.7569	77.446393	0.000689	6.890623	1.167303	0.000138
 291	2.8855e+01	5.7781	77.595767	0.000750	7.498619	1.270300	0.000150
 292	2.8954e+01	5.7977	77.724956	0.000649	6.485292	1.098638	0.000130
 293	2.9054e+01	5.8184	77.854144	0.000649	6.485292	1.098638	0.000130
 294	2.9154e+01	5.8379	77.983332	0.000649	6.485292	1.098638	0.000130
 295	2.9253e+01	5.8578	78.128669	0.000730	7.295953	1.235968	0.000146
 296	2.9352e+01	5.8767	78.257858	0.000649	6.485292	1.098638	0.000130
 297	2.9452e+01	5.8977	78.439529	0.000912	9.119942	1.544960	0.000183
 298	2.9552e+01	5.9176	78.592940	0.000770	7.701284	1.304633	0.000154
 299	2.9651e+01	5.9374	78.742314	0.000750	7.498619	1.270300	0.000150
 300	2.9750e+01	5.9573	78.855354	0.000567	5.674630	0.961308	0.000114
 301	2.9850e+01	5.9774	79.016839	0.000811	8.106615	1.373298	0.000162
 302	2.9950e+01	5.9980	79.129879	0.000567	5.674630	0.961308	0.000114
 303	3.0049e+01	6.0177	79.291364	0.000811	8.106615	1.373298	0.000162
 304	3.0148e+01	6.0380	79.432664	0.000709	7.093288	1.201636	0.000142
 305	3.0248e+01	6.0580	79.553778	0.000608	6.079961	1.029973	0.000122
 306	3.0348e+01	6.0763	79.687004	0.000669	6.687957	1.132971	0.000134
 307	3.0447e+01	6.0970	79.828304	0.000709	7.093288	1.201636	0.000142
 308	3.0547e+01	6.1167	79.949418	0.000608	6.079961	1.029973	0.000122
 309	3.0646e+01	6.1373	80.118977	0.000851	8.511946	1.441963	0.000170
 310	3.0745e+01	6.1565	80.248166	0.000649	6.485292	1.098638	0.000130
 311	3.0845e+01	6.1761	80.381391	0.000669	6.687957	1.132971	0.000134
 312	3.0945e+01	6.1956	80.546914	0.000831	8.309280	1.407630	0.000166
 313	3.1044e+01	6.2173	80.676102	0.000649	6.485292	1.098638	0.000130
 314	3.1143e+01	6.2368	80.793179	0.000588	5.877296	0.995641	0.000118
 315	3.1243e+01	6.2563	80.946590	0.000770	7.701284	1.304633	0.000154
 316	3.1343e+01	6.2767	81.095964	0.000750	7.498619	1.270300	0.000150
 317	3.1442e+01	6.2962	81.188818	0.000466	4.661304	0.789646	0.000093
 318	3.1541e+01	6.3152	81.366452	0.000892	8.917276	1.510628	0.000179
 319	3.1641e+01	6.3355	81.463343	0.000486	4.863969	0.823979	0.000097
 320	3.1741e+01	6.3555	81.624829	0.000811	8.106615	1.373298	0.000162
 321	3.1840e+01	6.3760	81.758054	0.000669	6.687957	1.132971	0.000134
 322	3.1939e+01	6.3947	81.915503	0.000790	7.903950	1.338965	0.000158
 323	3.2039e+01	6.4140	82.044691	0.000649	6.485292	1.098638	0.000130
 324	3.2139e+01	6.4356	82.181954	0.000689	6.890623	1.167303	0.000138
 325	3.2238e+01	6.4556	82.299031	0.000588	5.877296	0.995641	0.000118
 326	3.2337e+01	6.4744	82.436293	0.000689	6.890623	1.167303	0.000138
 327	3.2437e+01	6.4950	82.585667	0.000750	7.498619	1.270300	0.000150
 328	3.2536e+01	6.5144	82.686596	0.000507	5.066634	0.858311	0.000101
 329	3.2636e+01	6.5353	82.856155	0.000851	8.511946	1.441963	0.000170
 330	3.2736e+01	6.5545	82.949009	0.000466	4.661304	0.789646	0.000093
 331	3.2835e+01	6.5752	83.138755	0.000953	9.525273	1.613625	0.000191
 332	3.2934e+01	6.5947	83.251795	0.000567	5.674630	0.961308	0.000114
 333	3.3034e+01	6.6143	83.372909	0.000608	6.079961	1.029973	0.000122
 334	3.3133e+01	6.6344	83.498060	0.000628	6.282627	1.064306	0.000126
 335	3.3233e+01	6.6538	83.655508	0.000790	7.903950	1.338965	0.000158
 336	3.3333e+01	6.6740	83.792771	0.000689	6.890623	1.167303	0.000138
 337	3.3432e+01	6.6936	83.885625	0.000466	4.661304	0.789646	0.000093
 338	3.3532e+01	6.7135	83.998665	0.000567	5.674630	0.961308	0.000114
 339	3.3631e+01	6.7335	84.188410	0.000953	9.525273	1.613625	0.000191
 340	3.3730e+01	6.7529	84.317598	0.000649	6.485292	1.098638	0.000130
 341	3.3830e+01	6.7748	84.438713	0.000608	6.079961	1.029973	0.000122
 342	3.3929e+01	6.7941	84.559827	0.000608	6.079961	1.029973	0.000122
 343	3.4029e+01	6.8143	84.725349	0.000831	8.309280	1.407630	0.000166
 344	3.4129e+01	6.8334	84.842426	0.000588	5.877296	0.995641	0.000118
 345	3.4228e+01	6.8540	84.967577	0.000628	6.282627	1.064306	0.000126
 346	3.4328e+01	6.8731	85.129063	0.000811	8.106615	1.373298	0.000162
 347	3.4427e+01	6.8934	85.258251	0.000649	6.485292	1.098638	0.000130
 348	3.4526e+01	6.9128	85.387439	0.000649	6.485292	1.098638	0.000130
 349	3.4626e+01	6.9317	85.504516	0.000588	5.877296	0.995641	0.000118
 350	3.4725e+01	6.9537	85.645816	0.000709	7.093288	1.201636	0.000142
 351	3.4825e+01	6.9732	85.791153	0.000730	7.295953	1.235968	0.000146
 352	3.4925e+01	6.9933	85.952638	0.000811	8.106615	1.373298	0.000162
 353	3.5024e+01	7.0134	86.025307	0.000365	3.647977	0.617984	0.000073
 354	3.5123e+01	7.0329	86.154495	0.000649	6.485292	1.098638	0.000130
 355	3.5223e+01	7.0531	86.303869	0.000750	7.498619	1.270300	0.000150
 356	3.5322e+01	7.0716	86.416909	0.000567	5.674630	0.961308	0.000114
 357	3.5422e+01	7.0919	86.566283	0.000750	7.498619	1.270300	0.000150
 358	3.5522e+01	7.1125	86.691434	0.000628	6.282627	1.064306	0.000126
 359	3.5621e+01	7.1329	86.820623	0.000649	6.485292	1.098638	0.000130
 360	3.5721e+01	7.1520	86.941737	0.000608	6.079961	1.029973	0.000122
 361	3.5820e+01	7.1726	87.038628	0.000486	4.863969	0.823979	0.000097
 362	3.5919e+01	7.1920	87.224336	0.000932	9.322607	1.579292	0.000187
 363	3.6019e+01	7.2112	87.321227	0.000486	4.863969	0.823979	0.000097
 364	3.6118e+01	7.2318	87.442342	0.000608	6.079961	1.029973	0.000122
 365	3.6218e+01	7.2475	87.595753	0.000770	7.701284	1.304633	0.000154
 366	3.6318e+01	7.2723	87.720904	0.000628	6.282627	1.064306	0.000126
 367	3.6417e+01	7.2909	87.906612	0.000932	9.322607	1.579292	0.000187
 368	3.6517e+01	7.3119	87.971206	0.000324	3.242646	0.549319	0.000065
 369	3.6616e+01	7.3328	88.124617	0.000770	7.701284	1.304633	0.000154
 370	3.6715e+01	7.3519	88.193249	0.000345	3.445311	0.583652	0.000069
 371	3.6815e+01	7.3715	88.370883	0.000892	8.917276	1.510628	0.000179
 372	3.6914e+01	7.3916	88.496034	0.000628	6.282627	1.064306	0.000126
 373	3.7014e+01	7.4120	88.605037	0.000547	5.471965	0.926976	0.000110
 374	3.7114e+01	7.4319	88.701928	0.000486	4.863969	0.823979	0.000097
 375	3.7213e+01	7.4512	88.851302	0.000750	7.498619	1.270300	0.000150
 376	3.7313e+01	7.4709	88.980490	0.000649	6.485292	1.098638	0.000130
 377	3.7412e+01	7.4909	89.089493	0.000547	5.471965	0.926976	0.000110
 378	3.7511e+01	7.5110	89.234830	0.000730	7.295953	1.235968	0.000146
 379	3.7611e+01	7.5307	89.335758	0.000507	5.066634	0.858311	0.000101
 380	3.7711e+01	7.5500	89.468984	0.000669	6.687957	1.132971	0.000134
 381	3.7810e+01	7.5702	89.598172	0.000649	6.485292	1.098638	0.000130
 382	3.7910e+01	7.5910	89.699100	0.000507	5.066634	0.858311	0.000101
 383	3.8009e+01	7.6101	89.836363	0.000689	6.890623	1.167303	0.000138
 384	3.8108e+01	7.6302	89.933254	0.000486	4.863969	0.823979	0.000097
 385	3.8208e+01	7.6507	90.094740	0.000811	8.106615	1.373298	0.000162
 386	3.8307e+01	7.6704	90.179520	0.000426	4.255973	0.720981	0.000085
 387	3.8407e+01	7.6904	90.324856	0.000730	7.295953	1.235968	0.000146
 388	3.8507e+01	7.7100	90.450008	0.000628	6.282627	1.064306	0.000126
 389	3.8606e+01	7.7291	90.559010	0.000547	5.471965	0.926976	0.000110
 390	3.8706e+01	7.7494	90.700310	0.000709	7.093288	1.201636	0.000142
 391	3.8805e+01	7.7699	90.809313	0.000547	5.471965	0.926976	0.000110
 392	3.8904e+01	7.7894	90.918315	0.000547	5.471965	0.926976	0.000110
 393	3.9004e+01	7.8107	91.047504	0.000649	6.485292	1.098638	0.000130
 394	3.9103e+01	7.8291	91.172655	0.000628	6.282627	1.064306	0.000126
 395	3.9203e+01	7.8488	91.301843	0.000649	6.485292	1.098638	0.000130
 396	3.9303e+01	7.8703	91.467366	0.000831	8.309280	1.407630	0.000166
 397	3.9402e+01	7.8889	91.548109	0.000405	4.053307	0.686649	0.000081
 398	3.9502e+01	7.9096	91.645000	0.000486	4.863969	0.823979	0.000097
 399	3.9601e+01	7.9290	91.790337	0.000730	7.295953	1.235968	0.000146
 400	3.9700e+01	7.9493	91.899339	0.000547	5.471965	0.926976	0.000110
 401	3.9800e+01	7.9688	92.036602	0.000689	6.890623	1.167303	0.000138
 402	3.9900e+01	7.9887	92.169827	0.000669	6.687957	1.132971	0.000134
 403	3.9999e+01	8.0088	92.282867	0.000567	5.674630	0.961308	0.000114
 404	4.0099e+01	8.0291	92.416093	0.000669	6.687957	1.132971	0.000134
 405	4.0198e+01	8.0491	92.484724	0.000345	3.445311	0.583652	0.000069
 406	4.0297e+01	8.0672	92.670432	0.000932	9.322607	1.579292	0.000187
 407	4.0397e+01	8.0892	92.759249	0.000446	4.458638	0.755314	0.000089
 408	4.0496e+01	8.1083	92.868252	0.000547	5.471965	0.926976	0.000110
 409	4.0596e+01	8.1283	93.017626	0.000750	7.498619	1.270300	0.000150
 410	4.0696e+01	8.1490	93.167000	0.000750	7.498619	1.270300	0.000150
 411	4.0795e+01	8.1686	93.288114	0.000608	6.079961	1.029973	0.000122
 412	4.0895e+01	8.1873	93.401154	0.000567	5.674630	0.961308	0.000114
 413	4.0994e+01	8.2080	93.514194	0.000567	5.674630	0.961308	0.000114
 414	4.1093e+01	8.2279	93.647419	0.000669	6.687957	1.132971	0.000134
 415	4.1193e+01	8.2479	93.760459	0.000567	5.674630	0.961308	0.000114
 416	4.1292e+01	8.2677	93.857350	0.000486	4.863969	0.823979	0.000097
 417	4.1392e+01	8.2883	93.994613	0.000689	6.890623	1.167303	0.000138
 418	4.1492e+01	8.3070	94.107653	0.000567	5.674630	0.961308	0.000114
 419	4.1591e+01	8.3273	94.212618	0.000527	5.269300	0.892644	0.000105
 420	4.1691e+01	8.3478	94.374104	0.000811	8.106615	1.373298	0.000162
 421	4.1790e+01	8.3676	94.487143	0.000567	5.674630	0.961308	0.000114
 422	4.1889e+01	8.3874	94.584035	0.000486	4.863969	0.823979	0.000097
 423	4.1989e+01	8.4078	94.717260	0.000669	6.687957	1.132971	0.000134
 424	4.2089e+01	8.4272	94.846448	0.000649	6.485292	1.098638	0.000130
 425	4.2188e+01	8.4470	94.931228	0.000426	4.255973	0.720981	0.000085
 426	4.2288e+01	8.4669	95.036194	0.000527	5.269300	0.892644	0.000105
 427	4.2387e+01	8.4875	95.193642	0.000790	7.903950	1.338965	0.000158
 428	4.2486e+01	8.5076	95.286496	0.000466	4.661304	0.789646	0.000093
 429	4.2586e+01	8.5279	95.435870	0.000750	7.498619	1.270300	0.000150
 430	4.2685e+01	8.5465	95.532762	0.000486	4.863969	0.823979	0.000097
 431	4.2785e+01	8.5672	95.698284	0.000831	8.309280	1.407630	0.000166
 432	4.2885e+01	8.5867	95.758841	0.000304	3.039981	0.514987	0.000061
 433	4.2984e+01	8.6057	95.908215	0.000750	7.498619	1.270300	0.000150
 434	4.3084e+01	8.6271	96.029329	0.000608	6.079961	1.029973	0.000122
 435	4.3183e+01	8.6462	96.126220	0.000486	4.863969	0.823979	0.000097
 436	4.3282e+01	8.6660	96.251372	0.000628	6.282627	1.064306	0.000126
 437	4.3382e+01	8.6868	96.368449	0.000588	5.877296	0.995641	0.000118
 438	4.3481e+01	8.7063	96.485526	0.000588	5.877296	0.995641	0.000118
 439	4.3581e+01	8.7256	96.606640	0.000608	6.079961	1.029973	0.000122
 440	4.3681e+01	8.7451	96.719679	0.000567	5.674630	0.961308	0.000114
 441	4.3780e+01	8.7663	96.840794	0.000608	6.079961	1.029973	0.000122
 442	4.3880e+01	8.7847	96.941722	0.000507	5.066634	0.858311	0.000101
 443	4.3979e+01	8.8058	97.095133	0.000770	7.701284	1.304633	0.000154
 444	4.4078e+01	8.8259	97.220284	0.000628	6.282627	1.064306	0.000126
 445	4.4178e+01	8.8461	97.305064	0.000426	4.255973	0.720981	0.000085
 446	4.4278e+01	8.8653	97.422141	0.000588	5.877296	0.995641	0.000118
 447	4.4377e+01	8.8840	97.535181	0.000567	5.674630	0.961308	0.000114
 448	4.4477e+01	8.9050	97.676481	0.000709	7.093288	1.201636	0.000142
 449	4.4576e+01	8.9246	97.777409	0.000507	5.066634	0.858311	0.000101
 450	4.4675e+01	8.9438	97.910634	0.000669	6.687957	1.132971	0.000134
 451	4.4775e+01	8.9640	98.023674	0.000567	5.674630	0.961308	0.000114
 452	4.4874e+01	8.9846	98.177085	0.000770	7.701284	1.304633	0.000154
 453	4.4974e+01	9.0041	98.286088	0.000547	5.471965	0.926976	0.000110
 454	4.5074e+01	9.0242	98.387017	0.000507	5.066634	0.858311	0.000101
 455	4.5173e+01	9.0454	98.475833	0.000446	4.458638	0.755314	0.000089
 456	4.5273e+01	9.0643	98.609059	0.000669	6.687957	1.132971	0.000134
 457	4.5372e+01	9.0852	98.770544	0.000811	8.106615	1.373298	0.000162
 458	4.5471e+01	9.1035	98.891658	0.000608	6.079961	1.029973	0.000122
 459	4.5571e+01	9.1238	98.964327	0.000365	3.647977	0.617984	0.000073
 460	4.5670e+01	9.1442	99.093515	0.000649	6.485292	1.098638	0.000130
 461	4.5770e+01	9.1631	99.238852	0.000730	7.295953	1.235968	0.000146
 462	4.5870e+01	9.1846	99.359966	0.000608	6.079961	1.029973	0.000122
 463	4.5969e+01	9.2037	99.481080	0.000608	6.079961	1.029973	0.000122
 464	4.6069e+01	9.2234	99.598157	0.000588	5.877296	0.995641	0.000118
 465	4.6168e+01	9.2442	99.719271	0.000608	6.079961	1.029973	0.000122
 466	4.6267e+01	9.2627	99.840385	0.000608	6.079961	1.029973	0.000122
 467	4.6367e+01	9.2835	99.937277	0.000486	4.863969	0.823979	0.000097
 468	4.6467e+01	9.3034	100.062428	0.000628	6.282627	1.064306	0.000126
 469	4.6566e+01	9.3227	100.211802	0.000750	7.498619	1.270300	0.000150
 470	4.6666e+01	9.3423	100.260247	0.000243	2.431984	0.411989	0.000049
 471	4.6765e+01	9.3623	100.425770	0.000831	8.309280	1.407630	0.000166
 472	4.6864e+01	9.3832	100.550921	0.000628	6.282627	1.064306	0.000126
 473	4.6964e+01	9.4038	100.647813	0.000486	4.863969	0.823979	0.000097
 474	4.7063e+01	9.4234	100.777001	0.000649	6.485292	1.098638	0.000130
 475	4.7163e+01	9.4427	100.881966	0.000527	5.269300	0.892644	0.000105
 476	4.7263e+01	9.4629	101.015192	0.000669	6.687957	1.132971	0.000134
 477	4.7362e+01	9.4830	101.144380	0.000649	6.485292	1.098638	0.000130
 478	4.7462e+01	9.5023	101.241271	0.000486	4.863969	0.823979	0.000097
 479	4.7561e+01	9.5224	101.370460	0.000649	6.485292	1.098638	0.000130
 480	4.7660e+01	9.5422	101.451203	0.000405	4.053307	0.686649	0.000081
 481	4.7760e+01	9.5620	101.576354	0.000628	6.282627	1.064306	0.000126
 482	4.7859e+01	9.5819	101.737839	0.000811	8.106615	1.373298	0.000162
 483	4.7959e+01	9.6017	101.806470	0.000345	3.445311	0.583652	0.000069
 484	4.8059e+01	9.6221	101.935659	0.000649	6.485292	1.098638	0.000130
 485	4.8158e+01	9.6416	102.044661	0.000547	5.471965	0.926976	0.000110
 486	4.8258e+01	9.6620	102.177887	0.000669	6.687957	1.132971	0.000134
 487	4.8357e+01	9.6813	102.303038	0.000628	6.282627	1.064306	0.000126
 488	4.8456e+01	9.7002	102.416078	0.000567	5.674630	0.961308	0.000114
 489	4.8556e+01	9.7218	102.504895	0.000446	4.458638	0.755314	0.000089
 490	4.8656e+01	9.7412	102.638120	0.000669	6.687957	1.132971	0.000134
 491	4.8755e+01	9.7613	102.767309	0.000649	6.485292	1.098638	0.000130
 492	4.8855e+01	9.7808	102.872274	0.000527	5.269300	0.892644	0.000105
 493	4.8954e+01	9.8008	103.009537	0.000689	6.890623	1.167303	0.000138
 494	4.9053e+01	9.8209	103.090280	0.000405	4.053307	0.686649	0.000081
 495	4.9153e+01	9.8418	103.223505	0.000669	6.687957	1.132971	0.000134
 496	4.9252e+01	9.8603	103.324434	0.000507	5.066634	0.858311	0.000101
 497	4.9352e+01	9.8804	103.477845	0.000770	7.701284	1.304633	0.000154
 498	4.9452e+01	9.9006	103.582810	0.000527	5.269300	0.892644	0.000105
 499	4.9551e+01	9.9201	103.655479	0.000365	3.647977	0.617984	0.000073
 500	4.9651e+01	9.9401	103.804853	0.000750	7.498619	1.270300	0.000150
 501	4.9750e+01	9.9606	103.909818	0.000527	5.269300	0.892644	0.000105
 502	4.9849e+01	9.9807	104.026895	0.000588	5.877296	0.995641	0.000118
 503	4.9949e+01	9.9999	104.107638	0.000405	4.053307	0.686649	0.000081
 504	5.0048e+01	9.9807	104.051118	0.000284	2.837315	0.480654	-0.000057
 505	5.0148e+01	9.9601	103.990561	0.000304	3.039981	0.514987	-0.000061
 506	5.0248e+01	9.9400	103.921930	0.000345	3.445311	0.583652	-0.000069
 507	5.0347e+01	9.9204	103.841187	0.000405	4.053307	0.686649	-0.000081
 508	5.0447e+01	9.9009	103.732184	0.000547	5.471965	0.926976	-0.000110
 509	5.0546e+01	9.8809	103.683739	0.000243	2.431984	0.411989	-0.000049
 510	5.0645e+01	9.8608	103.590884	0.000466	4.661304	0.789646	-0.000093
 511	5.0745e+01	9.8397	103.518216	0.000365	3.647977	0.617984	-0.000073
 512	5.0844e+01	9.8212	103.437473	0.000405	4.053307	0.686649	-0.000081
 513	5.0944e+01	9.8019	103.344619	0.000466	4.661304	0.789646	-0.000093
 514	5.1044e+01	9.7812	103.275988	0.000345	3.445311	0.583652	-0.000069
 515	5.1143e+01	9.7608	103.211394	0.000324	3.242646	0.549319	-0.000065
 516	5.1242e+01	9.7414	103.070094	0.000709	7.093288	1.201636	-0.000142
 517	5.1342e+01	9.7217	102.997426	0.000365	3.647977	0.617984	-0.000073
 518	5.1441e+01	9.7015	102.912646	0.000426	4.255973	0.720981	-0.000085
 519	5.1541e+01	9.6816	102.856126	0.000284	2.837315	0.480654	-0.000057
 520	5.1641e+01	9.6618	102.763272	0.000466	4.661304	0.789646	-0.000093
 521	5.1740e+01	9.6410	102.658306	0.000527	5.269300	0.892644	-0.000105
 522	5.1840e+01	9.6217	102.577563	0.000405	4.053307	0.686649	-0.000081
 523	5.1939e+01	9.6017	102.484709	0.000466	4.661304	0.789646	-0.000093
 524	5.2038e+01	9.5827	102.424152	0.000304	3.039981	0.514987	-0.000061
 525	5.2138e+01	9.5623	102.303038	0.000608	6.079961	1.029973	-0.000122
 526	5.2237e+01	9.5412	102.238444	0.000324	3.242646	0.549319	-0.000065
 527	5.2337e+01	9.5228	102.137516	0.000507	5.066634	0.858311	-0.000101
 528	5.2437e+01	9.5028	102.008327	0.000649	6.485292	1.098638	-0.000130
 529	5.2536e+01	9.4830	101.927585	0.000405	4.053307	0.686649	-0.000081
 530	5.2636e+01	9.4610	101.858953	0.000345	3.445311	0.583652	-0.000069
 531	5.2735e+01	9.4437	101.770136	0.000446	4.458638	0.755314	-0.000089
 532	5.2834e+01	9.4226	101.644985	0.000628	6.282627	1.064306	-0.000126
 533	5.2934e+01	9.4024	101.572317	0.000365	3.647977	0.617984	-0.000073
 534	5.3033e+01	9.3830	101.471388	0.000507	5.066634	0.858311	-0.000101
 535	5.3133e+01	9.3633	101.394683	0.000385	3.850642	0.652316	-0.000077
 536	5.3233e+01	9.3427	101.285680	0.000547	5.471965	0.926976	-0.000110
 537	5.3332e+01	9.3227	101.192826	0.000466	4.661304	0.789646	-0.000093
 538	5.3431e+01	9.3032	101.099972	0.000466	4.661304	0.789646	-0.000093
 539	5.3531e+01	9.2833	101.003080	0.000486	4.863969	0.823979	-0.000097
 540	5.3630e+01	9.2628	100.898115	0.000527	5.269300	0.892644	-0.000105
 541	5.3730e+01	9.2443	100.789112	0.000547	5.471965	0.926976	-0.000110
 542	5.3830e+01	9.2236	100.704332	0.000426	4.255973	0.720981	-0.000085
 543	5.3929e+01	9.2043	100.603404	0.000507	5.066634	0.858311	-0.000101
 544	5.4029e+01	9.1828	100.478253	0.000628	6.282627	1.064306	-0.000126
 545	5.4128e+01	9.1643	100.421733	0.000284	2.837315	0.480654	-0.000057
 546	5.4227e+01	9.1449	100.312730	0.000547	5.471965	0.926976	-0.000110
 547	5.4327e+01	9.1245	100.191616	0.000608	6.079961	1.029973	-0.000122
 548	5.4426e+01	9.1038	100.114911	0.000385	3.850642	0.652316	-0.000077
 549	5.4526e+01	9.0836	99.997834	0.000588	5.877296	0.995641	-0.000118
 550	5.4626e+01	9.0638	99.896905	0.000507	5.066634	0.858311	-0.000101
 551	5.4725e+01	9.0450	99.832311	0.000324	3.242646	0.549319	-0.000065
 552	5.4825e+01	9.0244	99.715234	0.000588	5.877296	0.995641	-0.000118
 553	5.4924e+01	9.0045	99.646603	0.000345	3.445311	0.583652	-0.000069
 554	5.5023e+01	8.9837	99.513377	0.000669	6.687957	1.132971	-0.000134
 555	5.5123e+01	8.9648	99.424560	0.000446	4.458638	0.755314	-0.000089
 556	5.5222e+01	8.9440	99.323632	0.000507	5.066634	0.858311	-0.000101
 557	5.5322e+01	8.9245	99.222704	0.000507	5.066634	0.858311	-0.000101
 558	5.5422e+01	8.9049	99.109664	0.000567	5.674630	0.961308	-0.000114
 559	5.5521e+01	8.8847	99.016810	0.000466	4.661304	0.789646	-0.000093
 560	5.5620e+01	8.8645	98.932030	0.000426	4.255973	0.720981	-0.000085
 561	5.5720e+01	8.8441	98.790730	0.000709	7.093288	1.201636	-0.000142
 562	5.5819e+01	8.8261	98.701913	0.000446	4.458638	0.755314	-0.000089
 563	5.5919e+01	8.8058	98.617133	0.000426	4.255973	0.720981	-0.000085
 564	5.6019e+01	8.7852	98.560613	0.000284	2.837315	0.480654	-0.000057
 565	5.6118e+01	8.7667	98.423351	0.000689	6.890623	1.167303	-0.000138
 566	5.6218e+01	8.7453	98.358757	0.000324	3.242646	0.549319	-0.000065
 567	5.6317e+01	8.7257	98.229568	0.000649	6.485292	1.098638	-0.000130
 568	5.6416e+01	8.7064	98.136714	0.000466	4.661304	0.789646	-0.000093
 569	5.6516e+01	8.6869	98.023674	0.000567	5.674630	0.961308	-0.000114
 570	5.6615e+01	8.6658	97.926783	0.000486	4.863969	0.823979	-0.000097
 571	5.6715e+01	8.6463	97.817780	0.000547	5.471965	0.926976	-0.000110
 572	5.6815e+01	8.6253	97.712815	0.000527	5.269300	0.892644	-0.000105
 573	5.6914e+01	8.6065	97.587664	0.000628	6.282627	1.064306	-0.000126
 574	5.7014e+01	8.5863	97.514995	0.000365	3.647977	0.617984	-0.000073
 575	5.7113e+01	8.5669	97.434252	0.000405	4.053307	0.686649	-0.000081
 576	5.7212e+01	8.5471	97.292953	0.000709	7.093288	1.201636	-0.000142
 577	5.7312e+01	8.5268	97.228359	0.000324	3.242646	0.549319	-0.000065
 578	5.7411e+01	8.5070	97.135504	0.000466	4.661304	0.789646	-0.000093
 579	5.7511e+01	8.4870	96.961908	0.000871	8.714611	1.476295	-0.000174
 580	5.7611e+01	8.4658	96.925573	0.000182	1.823988	0.308992	-0.000037
 581	5.7710e+01	8.4464	96.796385	0.000649	6.485292	1.098638	-0.000130
 582	5.7809e+01	8.4266	96.683345	0.000567	5.674630	0.961308	-0.000114
 583	5.7909e+01	8.4074	96.570305	0.000567	5.674630	0.961308	-0.000114
 584	5.8008e+01	8.3884	96.485526	0.000426	4.255973	0.720981	-0.000085
 585	5.8108e+01	8.3674	96.368449	0.000588	5.877296	0.995641	-0.000118
 586	5.8208e+01	8.3483	96.303854	0.000324	3.242646	0.549319	-0.000065
 587	5.8307e+01	8.3271	96.190815	0.000567	5.674630	0.961308	-0.000114
 588	5.8407e+01	8.3076	96.081812	0.000547	5.471965	0.926976	-0.000110
 589	5.8506e+01	8.2877	95.968772	0.000567	5.674630	0.961308	-0.000114
 590	5.8605e+01	8.2679	95.875918	0.000466	4.661304	0.789646	-0.000093
 591	5.8705e+01	8.2476	95.807287	0.000345	3.445311	0.583652	-0.000069
 592	5.8804e+01	8.2285	95.657913	0.000750	7.498619	1.270300	-0.000150
 593	5.8904e+01	8.2087	95.601393	0.000284	2.837315	0.480654	-0.000057
 594	5.9004e+01	8.1876	95.452019	0.000750	7.498619	1.270300	-0.000150
 595	5.9103e+01	8.1678	95.355128	0.000486	4.863969	0.823979	-0.000097
 596	5.9203e+01	8.1480	95.234013	0.000608	6.079961	1.029973	-0.000122
 597	5.9302e+01	8.1295	95.120974	0.000567	5.674630	0.961308	-0.000114
 598	5.9401e+01	8.1084	95.040231	0.000405	4.053307	0.686649	-0.000081
 599	5.9501e+01	8.0878	94.935265	0.000527	5.269300	0.892644	-0.000105
 600	5.9600e+01	8.0682	94.814151	0.000608	6.079961	1.029973	-0.000122
 601	5.9700e+01	8.0489	94.757631	0.000284	2.837315	0.480654	-0.000057
 602	5.9800e+01	8.0294	94.616332	0.000709	7.093288	1.201636	-0.000142
 603	5.9899e+01	8.0100	94.491181	0.000628	6.282627	1.064306	-0.000126
 604	5.9998e+01	7.9884	94.386215	0.000527	5.269300	0.892644	-0.000105
 605	6.0098e+01	7.9688	94.281249	0.000527	5.269300	0.892644	-0.000105
 606	6.0197e+01	7.9499	94.200507	0.000405	4.053307	0.686649	-0.000081
 607	6.0297e+01	7.9290	94.083430	0.000588	5.877296	0.995641	-0.000118
 608	6.0397e+01	7.9096	93.982501	0.000507	5.066634	0.858311	-0.000101
 609	6.0496e+01	7.8896	93.865424	0.000588	5.877296	0.995641	-0.000118
 610	6.0596e+01	7.8692	93.732199	0.000669	6.687957	1.132971	-0.000134
 611	6.0695e+01	7.8483	93.675679	0.000284	2.837315	0.480654	-0.000057
 612	6.0794e+01	7.8294	93.546491	0.000649	6.485292	1.098638	-0.000130
 613	6.0894e+01	7.8092	93.433451	0.000567	5.674630	0.961308	-0.000114
 614	6.0993e+01	7.7901	93.320411	0.000567	5.674630	0.961308	-0.000114
 615	6.1093e+01	7.7700	93.223520	0.000486	4.863969	0.823979	-0.000097
 616	6.1193e+01	7.7503	93.118554	0.000527	5.269300	0.892644	-0.000105
 617	6.1292e+01	7.7296	93.029737	0.000446	4.458638	0.755314	-0.000089
 618	6.1392e+01	7.7103	92.920735	0.000547	5.471965	0.926976	-0.000110
 619	6.1491e+01	7.6900	92.827881	0.000466	4.661304	0.789646	-0.000093
 620	6.1590e+01	7.6701	92.678507	0.000750	7.498619	1.270300	-0.000150
 621	6.1690e+01	7.6509	92.589690	0.000446	4.458638	0.755314	-0.000089
 622	6.1789e+01	7.6299	92.480687	0.000547	5.471965	0.926976	-0.000110
 623	6.1889e+01	7.6104	92.391870	0.000446	4.458638	0.755314	-0.000089
 624	6.1989e+01	7.5913	92.286904	0.000527	5.269300	0.892644	-0.000105
 625	6.2088e+01	7.5706	92.165790	0.000608	6.079961	1.029973	-0.000122
 626	6.2188e+01	7.5503	92.081010	0.000426	4.255973	0.720981	-0.000085
 627	6.2287e+01	7.5306	91.976045	0.000527	5.269300	0.892644	-0.000105
 628	6.2386e+01	7.5110	91.858968	0.000588	5.877296	0.995641	-0.000118
 629	6.2486e+01	7.4915	91.725743	0.000669	6.687957	1.132971	-0.000134
 630	6.2586e+01	7.4713	91.636926	0.000446	4.458638	0.755314	-0.000089
 631	6.2685e+01	7.4512	91.523886	0.000567	5.674630	0.961308	-0.000114
 632	6.2785e+01	7.4313	91.455254	0.000345	3.445311	0.583652	-0.000069
 633	6.2884e+01	7.4119	91.362400	0.000466	4.661304	0.789646	-0.000093
 634	6.2983e+01	7.3913	91.245323	0.000588	5.877296	0.995641	-0.000118
 635	6.3083e+01	7.3717	91.128246	0.000588	5.877296	0.995641	-0.000118
 636	6.3182e+01	7.3514	90.995021	0.000669	6.687957	1.132971	-0.000134
 637	6.3282e+01	7.3318	90.926390	0.000345	3.445311	0.583652	-0.000069
 638	6.3382e+01	7.3115	90.789127	0.000689	6.890623	1.167303	-0.000138
 639	6.3481e+01	7.2917	90.700310	0.000446	4.458638	0.755314	-0.000089
 640	6.3581e+01	7.2725	90.575159	0.000628	6.282627	1.064306	-0.000126
 641	6.3680e+01	7.2523	90.470193	0.000527	5.269300	0.892644	-0.000105
 642	6.3779e+01	7.2314	90.381376	0.000446	4.458638	0.755314	-0.000089
 643	6.3879e+01	7.2124	90.284485	0.000486	4.863969	0.823979	-0.000097
 644	6.3978e+01	7.1928	90.114925	0.000851	8.511946	1.441963	-0.000170
 645	6.4078e+01	7.1724	90.038220	0.000385	3.850642	0.652316	-0.000077
 646	6.4177e+01	7.1526	89.925180	0.000567	5.674630	0.961308	-0.000114
 647	6.4277e+01	7.1329	89.856549	0.000345	3.445311	0.583652	-0.000069
 648	6.4376e+01	7.1135	89.723323	0.000669	6.687957	1.132971	-0.000134
 649	6.4476e+01	7.0927	89.569912	0.000770	7.701284	1.304633	-0.000154
 650	6.4576e+01	7.0719	89.464947	0.000527	5.269300	0.892644	-0.000105
 651	6.4675e+01	7.0531	89.384204	0.000405	4.053307	0.686649	-0.000081
 652	6.4775e+01	7.0327	89.255015	0.000649	6.485292	1.098638	-0.000130
 653	6.4874e+01	7.0132	89.158124	0.000486	4.863969	0.823979	-0.000097
 654	6.4974e+01	6.9923	89.041047	0.000588	5.877296	0.995641	-0.000118
 655	6.5073e+01	6.9724	88.956267	0.000426	4.255973	0.720981	-0.000085
 656	6.5172e+01	6.9528	88.819005	0.000689	6.890623	1.167303	-0.000138
 657	6.5272e+01	6.9337	88.693854	0.000628	6.282627	1.064306	-0.000126
 658	6.5371e+01	6.9134	88.580814	0.000567	5.674630	0.961308	-0.000114
 659	6.5471e+01	6.8934	88.496034	0.000426	4.255973	0.720981	-0.000085
 660	6.5570e+01	6.8729	88.395106	0.000507	5.066634	0.858311	-0.000101
 661	6.5670e+01	6.8536	88.253806	0.000709	7.093288	1.201636	-0.000142
 662	6.5769e+01	6.8342	88.136729	0.000588	5.877296	0.995641	-0.000118
 663	6.5869e+01	6.8145	88.055986	0.000405	4.053307	0.686649	-0.000081
 664	6.5969e+01	6.7947	87.914686	0.000709	7.093288	1.201636	-0.000142
 665	6.6068e+01	6.7735	87.809721	0.000527	5.269300	0.892644	-0.000105
 666	6.6168e+01	6.7539	87.716867	0.000466	4.661304	0.789646	-0.000093
 667	6.6267e+01	6.7345	87.603827	0.000567	5.674630	0.961308	-0.000114
 668	6.6367e+01	6.7148	87.426193	0.000892	8.917276	1.510628	-0.000179
 669	6.6466e+01	6.6941	87.353525	0.000365	3.647977	0.617984	-0.000073
 670	6.6566e+01	6.6738	87.240485	0.000567	5.674630	0.961308	-0.000114
 671	6.6665e+01	6.6541	87.139556	0.000507	5.066634	0.858311	-0.000101
 672	6.6764e+01	6.6343	87.014405	0.000628	6.282627	1.064306	-0.000126
 673	6.6864e+01	6.6151	86.941737	0.000365	3.647977	0.617984	-0.000073
 674	6.6963e+01	6.5939	86.780251	0.000811	8.106615	1.373298	-0.000162
 675	6.7063e+01	6.5740	86.687397	0.000466	4.661304	0.789646	-0.000093
 676	6.7162e+01	6.5551	86.550135	0.000689	6.890623	1.167303	-0.000138
 677	6.7262e+01	6.5353	86.441132	0.000547	5.471965	0.926976	-0.000110
 678	6.7362e+01	6.5147	86.336166	0.000527	5.269300	0.892644	-0.000105
 679	6.7461e+01	6.4949	86.231201	0.000527	5.269300	0.892644	-0.000105
 680	6.7561e+01	6.4755	86.114124	0.000588	5.877296	0.995641	-0.000118
 681	6.7660e+01	6.4559	86.005121	0.000547	5.471965	0.926976	-0.000110
 682	6.7760e+01	6.4358	85.863821	0.000709	7.093288	1.201636	-0.000142
 683	6.7859e+01	6.4146	85.775004	0.000446	4.458638	0.755314	-0.000089
 684	6.7959e+01	6.3949	85.621593	0.000770	7.701284	1.304633	-0.000154
 685	6.8058e+01	6.3761	85.548925	0.000365	3.647977	0.617984	-0.000073
 686	6.8157e+01	6.3543	85.439922	0.000547	5.471965	0.926976	-0.000110
 687	6.8257e+01	6.3354	85.290548	0.000750	7.498619	1.270300	-0.000150
 688	6.8356e+01	6.3149	85.181546	0.000547	5.471965	0.926976	-0.000110
 689	6.8456e+01	6.2967	85.060431	0.000608	6.079961	1.029973	-0.000122
 690	6.8555e+01	6.2766	84.927206	0.000669	6.687957	1.132971	-0.000134
 691	6.8655e+01	6.2557	84.842426	0.000426	4.255973	0.720981	-0.000085
 692	6.8754e+01	6.2371	84.737461	0.000527	5.269300	0.892644	-0.000105
 693	6.8854e+01	6.2170	84.600198	0.000689	6.890623	1.167303	-0.000138
 694	6.8954e+01	6.1968	84.483121	0.000588	5.877296	0.995641	-0.000118
 695	6.9053e+01	6.1758	84.386230	0.000486	4.863969	0.823979	-0.000097
 696	6.9153e+01	6.1559	84.236856	0.000750	7.498619	1.270300	-0.000150
 697	6.9252e+01	6.1366	84.156113	0.000405	4.053307	0.686649	-0.000081
 698	6.9352e+01	6.1169	84.030962	0.000628	6.282627	1.064306	-0.000126
 699	6.9451e+01	6.0969	83.921959	0.000547	5.471965	0.926976	-0.000110
 700	6.9550e+01	6.0775	83.796808	0.000628	6.282627	1.064306	-0.000126
 701	6.9650e+01	6.0574	83.651471	0.000730	7.295953	1.235968	-0.000146
 702	6.9749e+01	6.0378	83.562654	0.000446	4.458638	0.755314	-0.000089
 703	6.9849e+01	6.0174	83.433466	0.000649	6.485292	1.098638	-0.000130
 704	6.9948e+01	5.9969	83.271980	0.000811	8.106615	1.373298	-0.000162
 705	7.0048e+01	5.9771	83.175089	0.000486	4.863969	0.823979	-0.000097
 706	7.0147e+01	5.9573	83.033789	0.000709	7.093288	1.201636	-0.000142
 707	7.0247e+01	5.9371	82.912675	0.000608	6.079961	1.029973	-0.000122
 708	7.0347e+01	5.9173	82.783487	0.000649	6.485292	1.098638	-0.000130
 709	7.0446e+01	5.8965	82.666410	0.000588	5.877296	0.995641	-0.000118
 710	7.0546e+01	5.8767	82.565482	0.000507	5.066634	0.858311	-0.000101
 711	7.0645e+01	5.8576	82.440330	0.000628	6.282627	1.064306	-0.000126
 712	7.0745e+01	5.8370	82.278845	0.000811	8.106615	1.373298	-0.000162
 713	7.0844e+01	5.8173	82.169842	0.000547	5.471965	0.926976	-0.000110
 714	7.0944e+01	5.7977	82.052765	0.000588	5.877296	0.995641	-0.000118
 715	7.1043e+01	5.7781	81.951837	0.000507	5.066634	0.858311	-0.000101
 716	7.1142e+01	5.7580	81.802463	0.000750	7.498619	1.270300	-0.000150
 717	7.1242e+01	5.7378	81.677312	0.000628	6.282627	1.064306	-0.000126
 718	7.1341e+01	5.7180	81.536012	0.000709	7.093288	1.201636	-0.000142
 719	7.1441e+01	5.6987	81.418935	0.000588	5.877296	0.995641	-0.000118
 720	7.1540e+01	5.6788	81.277635	0.000709	7.093288	1.201636	-0.000142
 721	7.1640e+01	5.6588	81.184781	0.000466	4.661304	0.789646	-0.000093
 722	7.1740e+01	5.6387	81.019259	0.000831	8.309280	1.407630	-0.000166
 723	7.1839e+01	5.6193	80.914293	0.000527	5.269300	0.892644	-0.000105
 724	7.1939e+01	5.5978	80.801253	0.000567	5.674630	0.961308	-0.000114
 725	7.2038e+01	5.5798	80.647842	0.000770	7.701284	1.304633	-0.000154
 726	7.2138e+01	5.5590	80.506542	0.000709	7.093288	1.201636	-0.000142
 727	7.2237e+01	5.5390	80.401577	0.000527	5.269300	0.892644	-0.000105
 728	7.2337e+01	5.5187	80.296611	0.000527	5.269300	0.892644	-0.000105
 729	7.2436e+01	5.4989	80.187609	0.000547	5.471965	0.926976	-0.000110
 730	7.2535e+01	5.4797	80.062457	0.000628	6.282627	1.064306	-0.000126
 731	7.2635e+01	5.4594	79.929232	0.000669	6.687957	1.132971	-0.000134
 732	7.2734e+01	5.4388	79.812155	0.000588	5.877296	0.995641	-0.000118
 733	7.2834e+01	5.4195	79.670855	0.000709	7.093288	1.201636	-0.000142
 734	7.2933e+01	5.3997	79.545704	0.000628	6.282627	1.064306	-0.000126
 735	7.3033e+01	5.3802	79.428627	0.000588	5.877296	0.995641	-0.000118
 736	7.3132e+01	5.3594	79.267142	0.000811	8.106615	1.373298	-0.000162
 737	7.3232e+01	5.3403	79.158139	0.000547	5.471965	0.926976	-0.000110
 738	7.3332e+01	5.3194	79.065285	0.000466	4.661304	0.789646	-0.000093
 739	7.3431e+01	5.2995	78.891688	0.000871	8.714611	1.476295	-0.000174
 740	7.3531e+01	5.2800	78.790760	0.000507	5.066634	0.858311	-0.000101
 741	7.3630e+01	5.2605	78.657534	0.000669	6.687957	1.132971	-0.000134
 742	7.3730e+01	5.2398	78.496049	0.000811	8.106615	1.373298	-0.000162
 743	7.3829e+01	5.2199	78.423380	0.000365	3.647977	0.617984	-0.000073
 744	7.3928e+01	5.2002	78.306303	0.000588	5.877296	0.995641	-0.000118
 745	7.4028e+01	5.1806	78.156929	0.000750	7.498619	1.270300	-0.000150
 746	7.4127e+01	5.1598	78.068112	0.000446	4.458638	0.755314	-0.000089
 747	7.4227e+01	5.1408	77.870293	0.000993	9.930603	1.682290	-0.000199
 748	7.4326e+01	5.1205	77.757253	0.000567	5.674630	0.961308	-0.000114
 749	7.4426e+01	5.1012	77.668436	0.000446	4.458638	0.755314	-0.000089
 750	7.4525e+01	5.0810	77.486765	0.000912	9.119942	1.544960	-0.000183
 751	7.4625e+01	5.0610	77.377762	0.000547	5.471965	0.926976	-0.000110
 752	7.4725e+01	5.0414	77.264722	0.000567	5.674630	0.961308	-0.000114
 753	7.4824e+01	5.0216	77.135534	0.000649	6.485292	1.098638	-0.000130
 754	7.4924e+01	5.0018	76.990197	0.000730	7.295953	1.235968	-0.000146
 755	7.5023e+01	4.9805	76.836786	0.000770	7.701284	1.304633	-0.000154
 756	7.5123e+01	4.9609	76.707598	0.000649	6.485292	1.098638	-0.000130
 757	7.5222e+01	4.9419	76.614743	0.000466	4.661304	0.789646	-0.000093
 758	7.5322e+01	4.9215	76.469407	0.000730	7.295953	1.235968	-0.000146
 759	7.5421e+01	4.9024	76.332144	0.000689	6.890623	1.167303	-0.000138
 760	7.5520e+01	4.8803	76.227178	0.000527	5.269300	0.892644	-0.000105
 761	7.5620e+01	4.8623	76.093953	0.000669	6.687957	1.132971	-0.000134
 762	7.5719e+01	4.8414	75.956690	0.000689	6.890623	1.167303	-0.000138
 763	7.5819e+01	4.8220	75.811353	0.000730	7.295953	1.235968	-0.000146
 764	7.5918e+01	4.8020	75.702351	0.000547	5.471965	0.926976	-0.000110
 765	7.6018e+01	4.7808	75.540865	0.000811	8.106615	1.373298	-0.000162
 766	7.6118e+01	4.7625	75.419751	0.000608	6.079961	1.029973	-0.000122
 767	7.6217e+01	4.7424	75.274414	0.000730	7.295953	1.235968	-0.000146
 768	7.6317e+01	4.7225	75.165412	0.000547	5.471965	0.926976	-0.000110
 769	7.6416e+01	4.7030	74.999889	0.000831	8.309280	1.407630	-0.000166
 770	7.6516e+01	4.6822	74.902998	0.000486	4.863969	0.823979	-0.000097
 771	7.6615e+01	4.6627	74.745550	0.000790	7.903950	1.338965	-0.000158
 772	7.6715e+01	4.6424	74.620398	0.000628	6.282627	1.064306	-0.000126
 773	7.6814e+01	4.6226	74.491210	0.000649	6.485292	1.098638	-0.000130
 774	7.6913e+01	4.6023	74.382207	0.000547	5.471965	0.926976	-0.000110
 775	7.7013e+01	4.5820	74.257056	0.000628	6.282627	1.064306	-0.000126
 776	7.7112e+01	4.5631	74.079422	0.000892	8.917276	1.510628	-0.000179
 777	7.7212e+01	4.5425	73.958308	0.000608	6.079961	1.029973	-0.000122
 778	7.7311e+01	4.5223	73.845268	0.000567	5.674630	0.961308	-0.000114
 779	7.7411e+01	4.5022	73.691857	0.000770	7.701284	1.304633	-0.000154
 780	7.7510e+01	4.4833	73.566706	0.000628	6.282627	1.064306	-0.000126
 781	7.7610e+01	4.4633	73.417332	0.000750	7.498619	1.270300	-0.000150
 782	7.7710e+01	4.4427	73.276032	0.000709	7.093288	1.201636	-0.000142
 783	7.7809e+01	4.4228	73.162992	0.000567	5.674630	0.961308	-0.000114
 784	7.7909e+01	4.4044	73.033804	0.000649	6.485292	1.098638	-0.000130
 785	7.8008e+01	4.3841	72.876356	0.000790	7.903950	1.338965	-0.000158
 786	7.8108e+01	4.3639	72.747167	0.000649	6.485292	1.098638	-0.000130
 787	7.8207e+01	4.3447	72.617979	0.000649	6.485292	1.098638	-0.000130
 788	7.8306e+01	4.3233	72.521088	0.000486	4.863969	0.823979	-0.000097
 789	7.8406e+01	4.3034	72.359602	0.000811	8.106615	1.373298	-0.000162
 790	7.8505e+01	4.2841	72.234451	0.000628	6.282627	1.064306	-0.000126
 791	7.8605e+01	4.2641	72.085077	0.000750	7.498619	1.270300	-0.000150
 792	7.8704e+01	4.2437	71.968000	0.000588	5.877296	0.995641	-0.000118
 793	7.8804e+01	4.2237	71.854960	0.000567	5.674630	0.961308	-0.000114
 794	7.8903e+01	4.2043	71.693475	0.000811	8.106615	1.373298	-0.000162
 795	7.9003e+01	4.1839	71.600621	0.000466	4.661304	0.789646	-0.000093
 796	7.9103e+01	4.1640	71.435098	0.000831	8.309280	1.407630	-0.000166
 797	7.9202e+01	4.1447	71.281687	0.000770	7.701284	1.304633	-0.000154
 798	7.9302e+01	4.1236	71.160573	0.000608	6.079961	1.029973	-0.000122
 799	7.9401e+01	4.1041	71.051570	0.000547	5.471965	0.926976	-0.000110
 800	7.9501e+01	4.0838	70.873936	0.000892	8.917276	1.510628	-0.000179
 801	7.9600e+01	4.0656	70.756860	0.000588	5.877296	0.995641	-0.000118
 802	7.9700e+01	4.0443	70.655931	0.000507	5.066634	0.858311	-0.000101
 803	7.9799e+01	4.0236	70.506557	0.000750	7.498619	1.270300	-0.000150
 804	7.9898e+01	4.0050	70.353146	0.000770	7.701284	1.304633	-0.000154
 805	7.9998e+01	3.9860	70.264329	0.000446	4.458638	0.755314	-0.000089
 806	8.0097e+01	3.9657	70.098806	0.000831	8.309280	1.407630	-0.000166
 807	8.0197e+01	3.9450	69.957507	0.000709	7.093288	1.201636	-0.000142
 808	8.0296e+01	3.9250	69.844467	0.000567	5.674630	0.961308	-0.000114
 809	8.0396e+01	3.9053	69.691056	0.000770	7.701284	1.304633	-0.000154
 810	8.0496e+01	3.8854	69.557830	0.000669	6.687957	1.132971	-0.000134
 811	8.0595e+01	3.8654	69.416530	0.000709	7.093288	1.201636	-0.000142
 812	8.0695e+01	3.8456	69.275231	0.000709	7.093288	1.201636	-0.000142
 813	8.0794e+01	3.8247	69.162191	0.000567	5.674630	0.961308	-0.000114
 814	8.0894e+01	3.8046	69.012817	0.000750	7.498619	1.270300	-0.000150
 815	8.0993e+01	3.7850	68.887666	0.000628	6.282627	1.064306	-0.000126
 816	8.1093e+01	3.7658	68.726180	0.000811	8.106615	1.373298	-0.000162
 817	8.1192e+01	3.7457	68.605066	0.000608	6.079961	1.029973	-0.000122
 818	8.1291e+01	3.7263	68.471841	0.000669	6.687957	1.132971	-0.000134
 819	8.1391e+01	3.7063	68.326504	0.000730	7.295953	1.235968	-0.000146
 820	8.1490e+01	3.6864	68.181167	0.000730	7.295953	1.235968	-0.000146
 821	8.1590e+01	3.6668	68.060053	0.000608	6.079961	1.029973	-0.000122
 822	8.1689e+01	3.6468	67.866270	0.000973	9.727938	1.647957	-0.000195
 823	8.1789e+01	3.6263	67.773416	0.000466	4.661304	0.789646	-0.000093
 824	8.1888e+01	3.6062	67.615968	0.000790	7.903950	1.338965	-0.000158
 825	8.1988e+01	3.5879	67.458520	0.000790	7.903950	1.338965	-0.000158
 826	8.2088e+01	3.5661	67.333368	0.000628	6.282627	1.064306	-0.000126
 827	8.2187e+01	3.5467	67.204180	0.000649	6.485292	1.098638	-0.000130
 828	8.2287e+01	3.5261	67.038657	0.000831	8.309280	1.407630	-0.000166
 829	8.2386e+01	3.5073	66.897358	0.000709	7.093288	1.201636	-0.000142
 830	8.2486e+01	3.4878	66.752021	0.000730	7.295953	1.235968	-0.000146
 831	8.2585e+01	3.4661	66.610721	0.000709	7.093288	1.201636	-0.000142
 832	8.2684e+01	3.4469	66.453273	0.000790	7.903950	1.338965	-0.000158
 833	8.2784e+01	3.4277	66.360419	0.000466	4.661304	0.789646	-0.000093
 834	8.2883e+01	3.4075	66.219119	0.000709	7.093288	1.201636	-0.000142
 835	8.2983e+01	3.3886	66.053596	0.000831	8.309280	1.407630	-0.000166
 836	8.3082e+01	3.3671	65.912297	0.000709	7.093288	1.201636	-0.000142
 837	8.3182e+01	3.3469	65.758885	0.000770	7.701284	1.304633	-0.000154
 838	8.3281e+01	3.3273	65.621623	0.000689	6.890623	1.167303	-0.000138
 839	8.3381e+01	3.3080	65.512620	0.000547	5.471965	0.926976	-0.000110
 840	8.3481e+01	3.2885	65.330949	0.000912	9.119942	1.544960	-0.000183
 841	8.3580e+01	3.2671	65.238095	0.000466	4.661304	0.789646	-0.000093
 842	8.3680e+01	3.2479	65.080647	0.000790	7.903950	1.338965	-0.000158
 843	8.3779e+01	3.2273	64.919161	0.000811	8.106615	1.373298	-0.000162
 844	8.3879e+01	3.2072	64.753639	0.000831	8.309280	1.407630	-0.000166
 845	8.3978e+01	3.1872	64.648673	0.000527	5.269300	0.892644	-0.000105
 846	8.4078e+01	3.1681	64.483151	0.000831	8.309280	1.407630	-0.000166
 847	8.4177e+01	3.1489	64.374148	0.000547	5.471965	0.926976	-0.000110
 848	8.4276e+01	3.1279	64.224774	0.000750	7.498619	1.270300	-0.000150
 849	8.4376e+01	3.1096	64.071363	0.000770	7.701284	1.304633	-0.000154
 850	8.4475e+01	3.0893	63.893729	0.000892	8.917276	1.510628	-0.000179
 851	8.4575e+01	3.0683	63.772615	0.000608	6.079961	1.029973	-0.000122
 852	8.4674e+01	3.0489	63.578832	0.000973	9.727938	1.647957	-0.000195
 853	8.4774e+01	3.0293	63.490015	0.000446	4.458638	0.755314	-0.000089
 854	8.4874e+01	3.0093	63.336604	0.000770	7.701284	1.304633	-0.000154
 855	8.4973e+01	2.9888	63.191267	0.000730	7.295953	1.235968	-0.000146
 856	8.5073e+01	2.9690	63.045930	0.000730	7.295953	1.235968	-0.000146
 857	8.5172e+01	2.9488	62.916742	0.000649	6.485292	1.098638	-0.000130
 858	8.5272e+01	2.9288	62.763331	0.000770	7.701284	1.304633	-0.000154
 859	8.5371e+01	2.9092	62.605882	0.000790	7.903950	1.338965	-0.000158
 860	8.5471e+01	2.8891	62.456508	0.000750	7.498619	1.270300	-0.000150
 861	8.5570e+01	2.8695	62.295023	0.000811	8.106615	1.373298	-0.000162
 862	8.5669e+01	2.8501	62.161798	0.000669	6.687957	1.132971	-0.000134
 863	8.5769e+01	2.8292	62.012424	0.000750	7.498619	1.270300	-0.000150
 864	8.5868e+01	2.8100	61.871124	0.000709	7.093288	1.201636	-0.000142
 865	8.5968e+01	2.7891	61.745973	0.000628	6.282627	1.064306	-0.000126
 866	8.6067e+01	2.7700	61.572376	0.000871	8.714611	1.476295	-0.000174
 867	8.6167e+01	2.7497	61.435113	0.000689	6.890623	1.167303	-0.000138
 868	8.6266e+01	2.7290	61.273628	0.000811	8.106615	1.373298	-0.000162
 869	8.6366e+01	2.7096	61.112142	0.000811	8.106615	1.373298	-0.000162
 870	8.6466e+01	2.6891	60.986991	0.000628	6.282627	1.064306	-0.000126
 871	8.6565e+01	2.6701	60.833580	0.000770	7.701284	1.304633	-0.000154
 872	8.6665e+01	2.6502	60.664020	0.000851	8.511946	1.441963	-0.000170
 873	8.6764e+01	2.6302	60.478312	0.000932	9.322607	1.579292	-0.000187
 874	8.6864e+01	2.6096	60.349124	0.000649	6.485292	1.098638	-0.000130
 875	8.6963e+01	2.5897	60.232047	0.000588	5.877296	0.995641	-0.000118
 876	8.7063e+01	2.5707	60.050376	0.000912	9.119942	1.544960	-0.000183
 877	8.7162e+01	2.5503	59.901002	0.000750	7.498619	1.270300	-0.000150
 878	8.7261e+01	2.5301	59.743553	0.000790	7.903950	1.338965	-0.000158
 879	8.7361e+01	2.5106	59.586105	0.000790	7.903950	1.338965	-0.000158
 880	8.7460e+01	2.4911	59.452879	0.000669	6.687957	1.132971	-0.000134
 881	8.7560e+01	2.4712	59.283320	0.000851	8.511946	1.441963	-0.000170
 882	8.7659e+01	2.4503	59.117797	0.000831	8.309280	1.407630	-0.000166
 883	8.7759e+01	2.4313	58.960349	0.000790	7.903950	1.338965	-0.000158
 884	8.7859e+01	2.4106	58.835198	0.000628	6.282627	1.064306	-0.000126
 885	8.7958e+01	2.3910	58.673712	0.000811	8.106615	1.373298	-0.000162
 886	8.8058e+01	2.3711	58.536450	0.000689	6.890623	1.167303	-0.000138
 887	8.8157e+01	2.3519	58.383038	0.000770	7.701284	1.304633	-0.000154
 888	8.8257e+01	2.3307	58.197330	0.000932	9.322607	1.579292	-0.000187
 889	8.8356e+01	2.3107	58.019696	0.000892	8.917276	1.510628	-0.000179
 890	8.8456e+01	2.2918	57.866285	0.000770	7.701284	1.304633	-0.000154
 891	8.8555e+01	2.2713	57.753245	0.000567	5.674630	0.961308	-0.000114
 892	8.8654e+01	2.2519	57.611946	0.000709	7.093288	1.201636	-0.000142
 893	8.8754e+01	2.2327	57.393940	0.001094	10.943930	1.853952	-0.000219
 894	8.8853e+01	2.2117	57.272826	0.000608	6.079961	1.029973	-0.000122
 895	8.8953e+01	2.1922	57.111341	0.000811	8.106615	1.373298	-0.000162
 896	8.9052e+01	2.1720	56.966004	0.000730	7.295953	1.235968	-0.000146
 897	8.9152e+01	2.1528	56.808556	0.000790	7.903950	1.338965	-0.000158
 898	8.9251e+01	2.1329	56.647070	0.000811	8.106615	1.373298	-0.000162
 899	8.9351e+01	2.1124	56.497696	0.000750	7.498619	1.270300	-0.000150
 900	8.9451e+01	2.0920	56.336211	0.000811	8.106615	1.373298	-0.000162
 901	8.9550e+01	2.0723	56.170688	0.000831	8.309280	1.407630	-0.000166
 902	8.9650e+01	2.0523	56.049574	0.000608	6.079961	1.029973	-0.000122
 903	8.9749e+01	2.0325	55.839643	0.001054	10.538599	1.785287	-0.000211
 904	8.9849e+01	2.0134	55.710455	0.000649	6.485292	1.098638	-0.000130
 905	8.9948e+01	1.9920	55.605489	0.000527	5.269300	0.892644	-0.000105
 906	9.0047e+01	1.9727	55.427855	0.000892	8.917276	1.510628	-0.000179
 907	9.0147e+01	1.9529	55.197738	0.001155	11.551926	1.956949	-0.000231
 908	9.0246e+01	1.9329	55.084699	0.000567	5.674630	0.961308	-0.000114
 909	9.0346e+01	1.9132	54.939362	0.000730	7.295953	1.235968	-0.000146
 910	9.0445e+01	1.8929	54.737505	0.001013	10.133269	1.716622	-0.000203
 911	9.0545e+01	1.8732	54.580057	0.000790	7.903950	1.338965	-0.000158
 912	9.0644e+01	1.8518	54.454905	0.000628	6.282627	1.064306	-0.000126
 913	9.0744e+01	1.8333	54.289383	0.000831	8.309280	1.407630	-0.000166
 914	9.0844e+01	1.8129	54.115786	0.000871	8.714611	1.476295	-0.000174
 915	9.0943e+01	1.7930	53.982561	0.000669	6.687957	1.132971	-0.000134
 916	9.1043e+01	1.7730	53.849335	0.000669	6.687957	1.132971	-0.000134
 917	9.1142e+01	1.7538	53.679775	0.000851	8.511946	1.441963	-0.000170
 918	9.1242e+01	1.7333	53.530401	0.000750	7.498619	1.270300	-0.000150
 919	9.1341e+01	1.7138	53.364879	0.000831	8.309280	1.407630	-0.000166
 920	9.1441e+01	1.6940	53.179171	0.000932	9.322607	1.579292	-0.000187
 921	9.1540e+01	1.6743	53.025759	0.000770	7.701284	1.304633	-0.000154
 922	9.1639e+01	1.6544	52.876385	0.000750	7.498619	1.270300	-0.000150
 923	9.1739e+01	1.6333	52.682603	0.000973	9.727938	1.647957	-0.000195
 924	9.1838e+01	1.6135	52.553414	0.000649	6.485292	1.098638	-0.000130
 925	9.1938e+01	1.5939	52.363669	0.000953	9.525273	1.613625	-0.000191
 926	9.2037e+01	1.5742	52.250629	0.000567	5.674630	0.961308	-0.000114
 927	9.2137e+01	1.5541	52.085107	0.000831	8.309280	1.407630	-0.000166
 928	9.2237e+01	1.5337	51.903436	0.000912	9.119942	1.544960	-0.000183
 929	9.2336e+01	1.5147	51.758099	0.000730	7.295953	1.235968	-0.000146
 930	9.2436e+01	1.4938	51.564316	0.000973	9.727938	1.647957	-0.000195
 931	9.2535e+01	1.4741	51.439165	0.000628	6.282627	1.064306	-0.000126
 932	9.2635e+01	1.4547	51.261531	0.000892	8.917276	1.510628	-0.000179
 933	9.2734e+01	1.4346	51.116194	0.000730	7.295953	1.235968	-0.000146
 934	9.2834e+01	1.4146	50.898189	0.001094	10.943930	1.853952	-0.000219
 935	9.2933e+01	1.3945	50.781112	0.000588	5.877296	0.995641	-0.000118
 936	9.3032e+01	1.3750	50.615589	0.000831	8.309280	1.407630	-0.000166
 937	9.3132e+01	1.3551	50.478327	0.000689	6.890623	1.167303	-0.000138
 938	9.3231e+01	1.3341	50.280507	0.000993	9.930603	1.682290	-0.000199
 939	9.3331e+01	1.3142	50.127096	0.000770	7.701284	1.304633	-0.000154
 940	9.3430e+01	1.2941	49.917165	0.001054	10.538599	1.785287	-0.000211
 941	9.3530e+01	1.2751	49.816236	0.000507	5.066634	0.858311	-0.000101
 942	9.3629e+01	1.2553	49.642640	0.000871	8.714611	1.476295	-0.000174
 943	9.3729e+01	1.2356	49.456931	0.000932	9.322607	1.579292	-0.000187
 944	9.3829e+01	1.2157	49.315632	0.000709	7.093288	1.201636	-0.000142
 945	9.3928e+01	1.1958	49.146072	0.000851	8.511946	1.441963	-0.000170
 946	9.4028e+01	1.1762	48.956327	0.000953	9.525273	1.613625	-0.000191
 947	9.4127e+01	1.1564	48.810990	0.000730	7.295953	1.235968	-0.000146
 948	9.4227e+01	1.1363	48.685838	0.000628	6.282627	1.064306	-0.000126
 949	9.4326e+01	1.1158	48.516279	0.000851	8.511946	1.441963	-0.000170
 950	9.4425e+01	1.0956	48.314422	0.001013	10.133269	1.716622	-0.000203
 951	9.4525e+01	1.0758	48.185234	0.000649	6.485292	1.098638	-0.000130
 952	9.4624e+01	1.0562	48.023748	0.000811	8.106615	1.373298	-0.000162
 953	9.4724e+01	1.0363	47.882448	0.000709	7.093288	1.201636	-0.000142
 954	9.4823e+01	1.0166	47.660406	0.001115	11.146596	1.888284	-0.000223
 955	9.4923e+01	0.9969	47.527180	0.000669	6.687957	1.132971	-0.000134
 956	9.5022e+01	0.9763	47.385881	0.000709	7.093288	1.201636	-0.000142
 957	9.5122e+01	0.9569	47.192098	0.000973	9.727938	1.647957	-0.000195
 958	9.5222e+01	0.9361	47.050798	0.000709	7.093288	1.201636	-0.000142
 959	9.5321e+01	0.9171	46.901424	0.000750	7.498619	1.270300	-0.000150
 960	9.5421e+01	0.8961	46.748013	0.000770	7.701284	1.304633	-0.000154
 961	9.5520e+01	0.8770	46.574416	0.000871	8.714611	1.476295	-0.000174
 962	9.5620e+01	0.8575	46.392745	0.000912	9.119942	1.544960	-0.000183
 963	9.5719e+01	0.8369	46.227223	0.000831	8.309280	1.407630	-0.000166
 964	9.5819e+01	0.8179	46.093997	0.000669	6.687957	1.132971	-0.000134
 965	9.5918e+01	0.7977	45.924438	0.000851	8.511946	1.441963	-0.000170
 966	9.6017e+01	0.7775	45.783138	0.000709	7.093288	1.201636	-0.000142
 967	9.6117e+01	0.7568	45.585318	0.000993	9.930603	1.682290	-0.000199
 968	9.6216e+01	0.7368	45.439981	0.000730	7.295953	1.235968	-0.000146
 969	9.6316e+01	0.7185	45.290607	0.000750	7.498619	1.270300	-0.000150
 970	9.6415e+01	0.6982	45.100862	0.000953	9.525273	1.613625	-0.000191
 971	9.6515e+01	0.6773	44.959562	0.000709	7.093288	1.201636	-0.000142
 972	9.6615e+01	0.6574	44.810188	0.000750	7.498619	1.270300	-0.000150
 973	9.6714e+01	0.6377	44.644666	0.000831	8.309280	1.407630	-0.000166
 974	9.6814e+01	0.6184	44.471069	0.000871	8.714611	1.476295	-0.000174
 975	9.6913e+01	0.5975	44.305546	0.000831	8.309280	1.407630	-0.000166
 976	9.7013e+01	0.5786	44.156172	0.000750	7.498619	1.270300	-0.000150
 977	9.7112e+01	0.5585	43.990650	0.000831	8.309280	1.407630	-0.000166
 978	9.7212e+01	0.5386	43.813016	0.000892	8.917276	1.510628	-0.000179
 979	9.7311e+01	0.5184	43.655567	0.000790	7.903950	1.338965	-0.000158
 980	9.7410e+01	0.4980	43.494082	0.000811	8.106615	1.373298	-0.000162
 981	9.7510e+01	0.4780	43.320485	0.000871	8.714611	1.476295	-0.000174
 982	9.7609e+01	0.4577	43.130740	0.000953	9.525273	1.613625	-0.000191
 983	9.7709e+01	0.4381	42.985403	0.000730	7.295953	1.235968	-0.000146
 984	9.7808e+01	0.4190	42.811806	0.000871	8.714611	1.476295	-0.000174
 985	9.7908e+01	0.3995	42.630135	0.000912	9.119942	1.544960	-0.000183
 986	9.8007e+01	0.3793	42.448464	0.000912	9.119942	1.544960	-0.000183
 987	9.8107e+01	0.3591	42.347535	0.000507	5.066634	0.858311	-0.000101
 988	9.8207e+01	0.3389	42.137604	0.001054	10.538599	1.785287	-0.000211
 989	9.8306e+01	0.3193	41.964007	0.000871	8.714611	1.476295	-0.000174
 990	9.8406e+01	0.2990	41.786373	0.000892	8.917276	1.510628	-0.000179
 991	9.8505e+01	0.2788	41.681408	0.000527	5.269300	0.892644	-0.000105
 992	9.8605e+01	0.2592	41.455328	0.001135	11.349261	1.922617	-0.000227
 993	9.8704e+01	0.2395	41.293843	0.000811	8.106615	1.373298	-0.000162
 994	9.8803e+01	0.2193	41.140432	0.000770	7.701284	1.304633	-0.000154
 995	9.8903e+01	0.1991	40.970872	0.000851	8.511946	1.441963	-0.000170
 996	9.9002e+01	0.1801	40.781127	0.000953	9.525273	1.613625	-0.000191
 997	9.9102e+01	0.1600	40.664050	0.000588	5.877296	0.995641	-0.000118
 998	9.9201e+01	0.1389	40.498527	0.000831	8.309280	1.407630	-0.000166
 999	9.9301e+01	0.1198	40.312819	0.000932	9.322607	1.579292	-0.000187
1000	9.9400e+01	0.0998	40.082702	0.001155	11.551926	1.956949	-0.000231
1001	9.9500e+01	0.0805	39.993885	0.000446	4.458638	0.755314	-0.000089
1002	9.9600e+01	0.0594	39.783954	0.001054	10.538599	1.785287	-0.000211
1003	9.9699e+01	0.0390	39.634580	0.000750	7.498619	1.270300	-0.000150
1004	9.9799e+01	0.0194	39.436760	0.000993	9.930603	1.682290	-0.000199
1005	9.9898e+01	-0.0005	39.339869	0.000486	4.863969	0.823979	-0.000097
1006	9.9998e+01	-0.0182	39.150124	0.000953	9.525273	1.613625	-0.000191
1007	1.0010e+02	-0.0381	38.964416	0.000932	9.322607	1.579292	-0.000187
1008	1.0020e+02	-0.0584	38.823116	0.000709	7.093288	1.201636	-0.000142
1009	1.0030e+02	-0.0776	38.657593	0.000831	8.309280	1.407630	-0.000166
1010	1.0040e+02	-0.0980	38.475922	0.000912	9.119942	1.544960	-0.000183
1011	1.0050e+02	-0.1178	38.302325	0.000871	8.714611	1.476295	-0.000174
1012	1.0059e+02	-0.1373	38.148914	0.000770	7.701284	1.304633	-0.000154
1013	1.0069e+02	-0.1576	37.963206	0.000932	9.322607	1.579292	-0.000187
1014	1.0079e+02	-0.1769	37.793646	0.000851	8.511946	1.441963	-0.000170
1015	1.0089e+02	-0.1975	37.611975	0.000912	9.119942	1.544960	-0.000183
1016	1.0099e+02	-0.2177	37.458564	0.000770	7.701284	1.304633	-0.000154
1017	1.0109e+02	-0.2367	37.268819	0.000953	9.525273	1.613625	-0.000191
1018	1.0119e+02	-0.2576	37.099259	0.000851	8.511946	1.441963	-0.000170
1019	1.0129e+02	-0.2773	36.933736	0.000831	8.309280	1.407630	-0.000166
1020	1.0139e+02	-0.2972	36.752065	0.000912	9.119942	1.544960	-0.000183
1021	1.0149e+02	-0.3167	36.582505	0.000851	8.511946	1.441963	-0.000170
1022	1.0159e+02	-0.3374	36.461391	0.000608	6.079961	1.029973	-0.000122
1023	1.0169e+02	-0.3566	36.283757	0.000892	8.917276	1.510628	-0.000179
1024	1.0179e+02	-0.3770	36.065752	0.001094	10.943930	1.853952	-0.000219
1025	1.0189e+02	-0.3962	35.900230	0.000831	8.309280	1.407630	-0.000166
1026	1.0199e+02	-0.4169	35.762967	0.000689	6.890623	1.167303	-0.000138
1027	1.0209e+02	-0.4364	35.597444	0.000831	8.309280	1.407630	-0.000166
1028	1.0219e+02	-0.4562	35.415773	0.000912	9.119942	1.544960	-0.000183
1029	1.0229e+02	-0.4761	35.230065	0.000932	9.322607	1.579292	-0.000187
1030	1.0239e+02	-0.4967	35.060505	0.000851	8.511946	1.441963	-0.000170
1031	1.0248e+02	-0.5167	34.931317	0.000649	6.485292	1.098638	-0.000130
1032	1.0258e+02	-0.5369	34.729460	0.001013	10.133269	1.716622	-0.000203
1033	1.0268e+02	-0.5568	34.551826	0.000892	8.917276	1.510628	-0.000179
1034	1.0278e+02	-0.5757	34.402452	0.000750	7.498619	1.270300	-0.000150
1035	1.0288e+02	-0.5964	34.257115	0.000730	7.295953	1.235968	-0.000146
1036	1.0298e+02	-0.6152	34.039110	0.001094	10.943930	1.853952	-0.000219
1037	1.0308e+02	-0.6357	33.865513	0.000871	8.714611	1.476295	-0.000174
1038	1.0318e+02	-0.6561	33.699991	0.000831	8.309280	1.407630	-0.000166
1039	1.0328e+02	-0.6759	33.526394	0.000871	8.714611	1.476295	-0.000174
1040	1.0338e+02	-0.6953	33.316463	0.001054	10.538599	1.785287	-0.000211
1041	1.0348e+02	-0.7159	33.154977	0.000811	8.106615	1.373298	-0.000162
1042	1.0358e+02	-0.7349	32.977343	0.000892	8.917276	1.510628	-0.000179
1043	1.0368e+02	-0.7554	32.815858	0.000811	8.106615	1.373298	-0.000162
1044	1.0378e+02	-0.7759	32.678595	0.000689	6.890623	1.167303	-0.000138
1045	1.0388e+02	-0.7952	32.460590	0.001094	10.943930	1.853952	-0.000219
1046	1.0398e+02	-0.8152	32.311216	0.000750	7.498619	1.270300	-0.000150
1047	1.0408e+02	-0.8353	32.109359	0.001013	10.133269	1.716622	-0.000203
1048	1.0418e+02	-0.8551	31.947874	0.000811	8.106615	1.373298	-0.000162
1049	1.0428e+02	-0.8741	31.737943	0.001054	10.538599	1.785287	-0.000211
1050	1.0438e+02	-0.8946	31.608754	0.000649	6.485292	1.098638	-0.000130
1051	1.0447e+02	-0.9158	31.406897	0.001013	10.133269	1.716622	-0.000203
1052	1.0457e+02	-0.9351	31.229264	0.000892	8.917276	1.510628	-0.000179
1053	1.0467e+02	-0.9546	31.067778	0.000811	8.106615	1.373298	-0.000162
1054	1.0477e+02	-0.9749	30.853810	0.001074	10.741265	1.819620	-0.000215
1055	1.0487e+02	-0.9941	30.676176	0.000892	8.917276	1.510628	-0.000179
1056	1.0497e+02	-1.0143	30.510653	0.000831	8.309280	1.407630	-0.000166
1057	1.0507e+02	-1.0339	30.365316	0.000730	7.295953	1.235968	-0.000146
1058	1.0517e+02	-1.0547	30.195757	0.000851	8.511946	1.441963	-0.000170
1059	1.0527e+02	-1.0744	30.018123	0.000892	8.917276	1.510628	-0.000179
1060	1.0537e+02	-1.0945	29.816266	0.001013	10.133269	1.716622	-0.000203
1061	1.0547e+02	-1.1143	29.662855	0.000770	7.701284	1.304633	-0.000154
1062	1.0557e+02	-1.1339	29.493295	0.000851	8.511946	1.441963	-0.000170
1063	1.0567e+02	-1.1545	29.275290	0.001094	10.943930	1.853952	-0.000219
1064	1.0577e+02	-1.1739	29.129953	0.000730	7.295953	1.235968	-0.000146
1065	1.0587e+02	-1.1939	28.976542	0.000770	7.701284	1.304633	-0.000154
1066	1.0597e+02	-1.2148	28.746425	0.001155	11.551926	1.956949	-0.000231
1067	1.0607e+02	-1.2347	28.593014	0.000770	7.701284	1.304633	-0.000154
1068	1.0617e+02	-1.2537	28.419417	0.000871	8.714611	1.476295	-0.000174
1069	1.0627e+02	-1.2737	28.233709	0.000932	9.322607	1.579292	-0.000187
1070	1.0637e+02	-1.2935	28.056075	0.000892	8.917276	1.510628	-0.000179
1071	1.0647e+02	-1.3135	27.890552	0.000831	8.309280	1.407630	-0.000166
1072	1.0656e+02	-1.3328	27.676584	0.001074	10.741265	1.819620	-0.000215
1073	1.0666e+02	-1.3534	27.539321	0.000689	6.890623	1.167303	-0.000138
1074	1.0676e+02	-1.3725	27.357650	0.000912	9.119942	1.544960	-0.000183
1075	1.0686e+02	-1.3926	27.184053	0.000871	8.714611	1.476295	-0.000174
1076	1.0696e+02	-1.4128	27.050828	0.000669	6.687957	1.132971	-0.000134
1077	1.0706e+02	-1.4331	26.808600	0.001216	12.159922	2.059947	-0.000243
1078	1.0716e+02	-1.4525	26.651152	0.000790	7.903950	1.338965	-0.000158
1079	1.0726e+02	-1.4725	26.481592	0.000851	8.511946	1.441963	-0.000170
1080	1.0736e+02	-1.4925	26.283772	0.000993	9.930603	1.682290	-0.000199
1081	1.0746e+02	-1.5122	26.138435	0.000730	7.295953	1.235968	-0.000146
1082	1.0756e+02	-1.5321	25.964838	0.000871	8.714611	1.476295	-0.000174
1083	1.0766e+02	-1.5523	25.827576	0.000689	6.890623	1.167303	-0.000138
1084	1.0776e+02	-1.5723	25.658016	0.000851	8.511946	1.441963	-0.000170
1085	1.0786e+02	-1.5918	25.415788	0.001216	12.159922	2.059947	-0.000243
1086	1.0796e+02	-1.6127	25.226043	0.000953	9.525273	1.613625	-0.000191
1087	1.0806e+02	-1.6324	25.104929	0.000608	6.079961	1.029973	-0.000122
1088	1.0816e+02	-1.6516	24.890960	0.001074	10.741265	1.819620	-0.000215
1089	1.0826e+02	-1.6714	24.741586	0.000750	7.498619	1.270300	-0.000150
1090	1.0836e+02	-1.6921	24.555878	0.000932	9.322607	1.579292	-0.000187
1091	1.0845e+02	-1.7123	24.378244	0.000892	8.917276	1.510628	-0.000179
1092	1.0855e+02	-1.7320	24.212722	0.000831	8.309280	1.407630	-0.000166
1093	1.0865e+02	-1.7525	24.027013	0.000932	9.322607	1.579292	-0.000187
1094	1.0875e+02	-1.7722	23.841305	0.000932	9.322607	1.579292	-0.000187
1095	1.0885e+02	-1.7920	23.683857	0.000790	7.903950	1.338965	-0.000158
1096	1.0895e+02	-1.8118	23.510260	0.000871	8.714611	1.476295	-0.000174
1097	1.0905e+02	-1.8315	23.340700	0.000851	8.511946	1.441963	-0.000170
1098	1.0915e+02	-1.8510	23.142881	0.000993	9.930603	1.682290	-0.000199
1099	1.0925e+02	-1.8721	22.928912	0.001074	10.741265	1.819620	-0.000215
1100	1.0935e+02	-1.8918	22.791650	0.000689	6.890623	1.167303	-0.000138
1101	1.0945e+02	-1.9100	22.658424	0.000669	6.687957	1.132971	-0.000134
1102	1.0955e+02	-1.9305	22.444456	0.001074	10.741265	1.819620	-0.000215
1103	1.0965e+02	-1.9516	22.262785	0.000912	9.119942	1.544960	-0.000183
1104	1.0975e+02	-1.9701	22.056891	0.001034	10.335934	1.750955	-0.000207
1105	1.0985e+02	-1.9916	21.943851	0.000567	5.674630	0.961308	-0.000114
1106	1.0995e+02	-2.0105	21.737957	0.001034	10.335934	1.750955	-0.000207
1107	1.1005e+02	-2.0303	21.556286	0.000912	9.119942	1.544960	-0.000183
1108	1.1015e+02	-2.0500	21.394801	0.000811	8.106615	1.373298	-0.000162
1109	1.1025e+02	-2.0708	21.217167	0.000892	8.917276	1.510628	-0.000179
1110	1.1035e+02	-2.0903	21.035496	0.000912	9.119942	1.544960	-0.000183
1111	1.1044e+02	-2.1101	20.865936	0.000851	8.511946	1.441963	-0.000170
1112	1.1054e+02	-2.1303	20.680228	0.000932	9.322607	1.579292	-0.000187
1113	1.1064e+02	-2.1513	20.522780	0.000790	7.903950	1.338965	-0.000158
1114	1.1074e+02	-2.1705	20.324960	0.000993	9.930603	1.682290	-0.000199
1115	1.1084e+02	-2.1903	20.179623	0.000730	7.295953	1.235968	-0.000146
1116	1.1094e+02	-2.2102	19.961618	0.001094	10.943930	1.853952	-0.000219
1117	1.1104e+02	-2.2299	19.796095	0.000831	8.309280	1.407630	-0.000166
1118	1.1114e+02	-2.2499	19.634610	0.000811	8.106615	1.373298	-0.000162
1119	1.1124e+02	-2.2696	19.452939	0.000912	9.119942	1.544960	-0.000183
1120	1.1134e+02	-2.2899	19.299527	0.000770	7.701284	1.304633	-0.000154
1121	1.1144e+02	-2.3102	19.129968	0.000851	8.511946	1.441963	-0.000170
1122	1.1154e+02	-2.3303	18.960408	0.000851	8.511946	1.441963	-0.000170
1123	1.1164e+02	-2.3500	18.794885	0.000831	8.309280	1.407630	-0.000166
1124	1.1174e+02	-2.3697	18.629363	0.000831	8.309280	1.407630	-0.000166
1125	1.1184e+02	-2.3895	18.439617	0.000953	9.525273	1.613625	-0.000191
1126	1.1194e+02	-2.4097	18.266021	0.000871	8.714611	1.476295	-0.000174
1127	1.1204e+02	-2.4289	18.108572	0.000790	7.903950	1.338965	-0.000158
1128	1.1214e+02	-2.4494	17.910753	0.000993	9.930603	1.682290	-0.000199
1129	1.1224e+02	-2.4695	17.773490	0.000689	6.890623	1.167303	-0.000138
1130	1.1234e+02	-2.4889	17.575670	0.000993	9.930603	1.682290	-0.000199
1131	1.1244e+02	-2.5087	17.410148	0.000831	8.309280	1.407630	-0.000166
1132	1.1253e+02	-2.5281	17.284997	0.000628	6.282627	1.064306	-0.000126
1133	1.1263e+02	-2.5475	17.058917	0.001135	11.349261	1.922617	-0.000227
1134	1.1273e+02	-2.5690	16.901469	0.000790	7.903950	1.338965	-0.000158
1135	1.1283e+02	-2.5882	16.715761	0.000932	9.322607	1.579292	-0.000187
1136	1.1293e+02	-2.6083	16.586572	0.000649	6.485292	1.098638	-0.000130
1137	1.1303e+02	-2.6274	16.392790	0.000973	9.727938	1.647957	-0.000195
1138	1.1313e+02	-2.6492	16.251490	0.000709	7.093288	1.201636	-0.000142
1139	1.1323e+02	-2.6682	16.065782	0.000932	9.322607	1.579292	-0.000187
1140	1.1333e+02	-2.6880	15.884111	0.000912	9.119942	1.544960	-0.000183
1141	1.1343e+02	-2.7083	15.714551	0.000851	8.511946	1.441963	-0.000170
1142	1.1353e+02	-2.7283	15.544991	0.000851	8.511946	1.441963	-0.000170
1143	1.1363e+02	-2.7483	15.322949	0.001115	11.146596	1.888284	-0.000223
1144	1.1373e+02	-2.7679	15.185686	0.000689	6.890623	1.167303	-0.000138
1145	1.1383e+02	-2.7880	15.024201	0.000811	8.106615	1.373298	-0.000162
1146	1.1393e+02	-2.8077	14.874827	0.000750	7.498619	1.270300	-0.000150
1147	1.1403e+02	-2.8273	14.672970	0.001013	10.133269	1.716622	-0.000203
1148	1.1413e+02	-2.8479	14.495336	0.000892	8.917276	1.510628	-0.000179
1149	1.1423e+02	-2.8674	14.321739	0.000871	8.714611	1.476295	-0.000174
1150	1.1433e+02	-2.8879	14.192551	0.000649	6.485292	1.098638	-0.000130
1151	1.1442e+02	-2.9069	14.043177	0.000750	7.498619	1.270300	-0.000150
1152	1.1452e+02	-2.9269	13.821134	0.001115	11.146596	1.888284	-0.000223
1153	1.1462e+02	-2.9466	13.663686	0.000790	7.903950	1.338965	-0.000158
1154	1.1472e+02	-2.9662	13.494126	0.000851	8.511946	1.441963	-0.000170
1155	1.1482e+02	-2.9873	13.320529	0.000871	8.714611	1.476295	-0.000174
1156	1.1492e+02	-3.0077	13.114635	0.001034	10.335934	1.750955	-0.000207
1157	1.1502e+02	-3.0255	12.989484	0.000628	6.282627	1.064306	-0.000126
1158	1.1512e+02	-3.0466	12.827999	0.000811	8.106615	1.373298	-0.000162
1159	1.1522e+02	-3.0670	12.638253	0.000953	9.525273	1.613625	-0.000191
1160	1.1532e+02	-3.0864	12.488879	0.000750	7.498619	1.270300	-0.000150
1161	1.1542e+02	-3.1073	12.295097	0.000973	9.727938	1.647957	-0.000195
1162	1.1552e+02	-3.1266	12.145723	0.000750	7.498619	1.270300	-0.000150
1163	1.1562e+02	-3.1468	11.984237	0.000811	8.106615	1.373298	-0.000162
1164	1.1572e+02	-3.1662	11.826789	0.000790	7.903950	1.338965	-0.000158
1165	1.1582e+02	-3.1859	11.653192	0.000871	8.714611	1.476295	-0.000174
1166	1.1592e+02	-3.2065	11.431150	0.001115	11.146596	1.888284	-0.000223
1167	1.1602e+02	-3.2256	11.289850	0.000709	7.093288	1.201636	-0.000142
1168	1.1612e+02	-3.2463	11.096068	0.000973	9.727938	1.647957	-0.000195
1169	1.1622e+02	-3.2663	10.914396	0.000912	9.119942	1.544960	-0.000183
1170	1.1632e+02	-3.2857	10.777134	0.000689	6.890623	1.167303	-0.000138
1171	1.1642e+02	-3.3058	10.583351	0.000973	9.727938	1.647957	-0.000195
1172	1.1651e+02	-3.3263	10.458200	0.000628	6.282627	1.064306	-0.000126
1173	1.1661e+02	-3.3463	10.284603	0.000871	8.714611	1.476295	-0.000174
1174	1.1671e+02	-3.3652	10.111006	0.000871	8.714611	1.476295	-0.000174
1175	1.1681e+02	-3.3861	9.921261	0.000953	9.525273	1.613625	-0.000191
1176	1.1691e+02	-3.4055	9.759776	0.000811	8.106615	1.373298	-0.000162
1177	1.1701e+02	-3.4249	9.618476	0.000709	7.093288	1.201636	-0.000142
1178	1.1711e+02	-3.4457	9.448916	0.000851	8.511946	1.441963	-0.000170
1179	1.1721e+02	-3.4653	9.259171	0.000953	9.525273	1.613625	-0.000191
1180	1.1731e+02	-3.4851	9.065388	0.000973	9.727938	1.647957	-0.000195
1181	1.1741e+02	-3.5049	8.911977	0.000770	7.701284	1.304633	-0.000154
1182	1.1751e+02	-3.5253	8.758566	0.000770	7.701284	1.304633	-0.000154
1183	1.1761e+02	-3.5448	8.613229	0.000730	7.295953	1.235968	-0.000146
1184	1.1771e+02	-3.5657	8.407335	0.001034	10.335934	1.750955	-0.000207
1185	1.1781e+02	-3.5846	8.245850	0.000811	8.106615	1.373298	-0.000162
1186	1.1791e+02	-3.6049	8.064179	0.000912	9.119942	1.544960	-0.000183
1187	1.1801e+02	-3.6253	7.930953	0.000669	6.687957	1.132971	-0.000134
1188	1.1811e+02	-3.6447	7.741208	0.000953	9.525273	1.613625	-0.000191
1189	1.1821e+02	-3.6658	7.628168	0.000567	5.674630	0.961308	-0.000114
1190	1.1831e+02	-3.6854	7.426311	0.001013	10.133269	1.716622	-0.000203
1191	1.1841e+02	-3.7038	7.268863	0.000790	7.903950	1.338965	-0.000158
1192	1.1850e+02	-3.7245	7.095266	0.000871	8.714611	1.476295	-0.000174
1193	1.1860e+02	-3.7442	6.885335	0.001054	10.538599	1.785287	-0.000211
1194	1.1870e+02	-3.7636	6.768258	0.000588	5.877296	0.995641	-0.000118
1195	1.1880e+02	-3.7845	6.602735	0.000831	8.309280	1.407630	-0.000166
1196	1.1890e+02	-3.8043	6.396842	0.001034	10.335934	1.750955	-0.000207
1197	1.1900e+02	-3.8235	6.263616	0.000669	6.687957	1.132971	-0.000134
1198	1.1910e+02	-3.8437	6.041574	0.001115	11.146596	1.888284	-0.000223
1199	1.1920e+02	-3.8638	5.944682	0.000486	4.863969	0.823979	-0.000097
1200	1.1930e+02	-3.8834	5.779160	0.000831	8.309280	1.407630	-0.000166
1201	1.1940e+02	-3.9030	5.536932	0.001216	12.159922	2.059947	-0.000243
1202	1.1950e+02	-3.9233	5.403706	0.000669	6.687957	1.132971	-0.000134
1203	1.1960e+02	-3.9429	5.258369	0.000730	7.295953	1.235968	-0.000146
1204	1.1970e+02	-3.9637	5.096884	0.000811	8.106615	1.373298	-0.000162
1205	1.1980e+02	-3.9830	4.915213	0.000912	9.119942	1.544960	-0.000183
1206	1.1990e+02	-4.0025	4.733542	0.000912	9.119942	1.544960	-0.000183
1207	1.2000e+02	-4.0235	4.600316	0.000669	6.687957	1.132971	-0.000134
1208	1.2010e+02	-4.0430	4.398459	0.001013	10.133269	1.716622	-0.000203
1209	1.2020e+02	-4.0636	4.241011	0.000790	7.903950	1.338965	-0.000158
1210	1.2030e+02	-4.0831	4.091637	0.000750	7.498619	1.270300	-0.000150
1211	1.2039e+02	-4.1029	3.893817	0.000993	9.930603	1.682290	-0.000199
1212	1.2049e+02	-4.1226	3.752518	0.000709	7.093288	1.201636	-0.000142
1213	1.2059e+02	-4.1428	3.538549	0.001074	10.741265	1.819620	-0.000215
1214	1.2069e+02	-4.1631	3.377064	0.000811	8.106615	1.373298	-0.000162
1215	1.2079e+02	-4.1821	3.199430	0.000892	8.917276	1.510628	-0.000179
1216	1.2089e+02	-4.2026	3.017759	0.000912	9.119942	1.544960	-0.000183
1217	1.2099e+02	-4.2215	2.868385	0.000750	7.498619	1.270300	-0.000150
1218	1.2109e+02	-4.2426	2.694788	0.000871	8.714611	1.476295	-0.000174
1219	1.2119e+02	-4.2625	2.505043	0.000953	9.525273	1.613625	-0.000191
1220	1.2129e+02	-4.2825	2.339520	0.000831	8.309280	1.407630	-0.000166
1221	1.2139e+02	-4.3024	2.157849	0.000912	9.119942	1.544960	-0.000183
1222	1.2149e+02	-4.3225	1.988289	0.000851	8.511946	1.441963	-0.000170
1223	1.2159e+02	-4.3430	1.830841	0.000790	7.903950	1.338965	-0.000158
1224	1.2169e+02	-4.3622	1.669356	0.000811	8.106615	1.373298	-0.000162
1225	1.2179e+02	-4.3819	1.515944	0.000770	7.701284	1.304633	-0.000154
1226	1.2189e+02	-4.4012	1.301976	0.001074	10.741265	1.819620	-0.000215
1227	1.2199e+02	-4.4220	1.124342	0.000892	8.917276	1.510628	-0.000179
1228	1.2209e+02	-4.4421	0.999191	0.000628	6.282627	1.064306	-0.000126
1229	1.2219e+02	-4.4612	0.797334	0.001013	10.133269	1.716622	-0.000203
1230	1.2229e+02	-4.4806	0.635849	0.000811	8.106615	1.373298	-0.000162
1231	1.2239e+02	-4.5016	0.466289	0.000851	8.511946	1.441963	-0.000170
1232	1.2248e+02	-4.5212	0.284618	0.000912	9.119942	1.544960	-0.000183
1233	1.2258e+02	-4.5407	0.135244	0.000750	7.498619	1.270300	-0.000150
1234	1.2268e+02	-4.5612	-0.034316	0.000851	8.511946	1.441963	-0.000170
1235	1.2278e+02	-4.5828	-0.203875	0.000851	8.511946	1.441963	-0.000170
1236	1.2288e+02	-4.6011	-0.393621	0.000953	9.525273	1.613625	-0.000191
1237	1.2298e+02	-4.6205	-0.595478	0.001013	10.133269	1.716622	-0.000203
1238	1.2308e+02	-4.6407	-0.748889	0.000770	7.701284	1.304633	-0.000154
1239	1.2318e+02	-4.6609	-0.926523	0.000892	8.917276	1.510628	-0.000179
1240	1.2328e+02	-4.6816	-1.059748	0.000669	6.687957	1.132971	-0.000134
1241	1.2338e+02	-4.7006	-1.277753	0.001094	10.943930	1.853952	-0.000219
1242	1.2348e+02	-4.7210	-1.410979	0.000669	6.687957	1.132971	-0.000134
1243	1.2358e+02	-4.7403	-1.645133	0.001175	11.754592	1.991282	-0.000235
1244	1.2368e+02	-4.7604	-1.766247	0.000608	6.079961	1.029973	-0.000122
1245	1.2378e+02	-4.7806	-1.951955	0.000932	9.322607	1.579292	-0.000187
1246	1.2388e+02	-4.8007	-2.125552	0.000871	8.714611	1.476295	-0.000174
1247	1.2398e+02	-4.8203	-2.331446	0.001034	10.335934	1.750955	-0.000207
1248	1.2408e+02	-4.8398	-2.488894	0.000790	7.903950	1.338965	-0.000158
1249	1.2418e+02	-4.8608	-2.662491	0.000871	8.714611	1.476295	-0.000174
1250	1.2428e+02	-4.8801	-2.864348	0.001013	10.133269	1.716622	-0.000203
1251	1.2438e+02	-4.9002	-2.989499	0.000628	6.282627	1.064306	-0.000126
1252	1.2447e+02	-4.9194	-3.179244	0.000953	9.525273	1.613625	-0.000191
1253	1.2457e+02	-4.9406	-3.360916	0.000912	9.119942	1.544960	-0.000183
1254	1.2467e+02	-4.9597	-3.530475	0.000851	8.511946	1.441963	-0.000170
1255	1.2477e+02	-4.9798	-3.740406	0.001054	10.538599	1.785287	-0.000211
1256	1.2487e+02	-4.9991	-3.934189	0.000973	9.727938	1.647957	-0.000195
1257	1.2497e+02	-5.0197	-4.091637	0.000790	7.903950	1.338965	-0.000158
1258	1.2507e+02	-5.0385	-4.277345	0.000932	9.322607	1.579292	-0.000187
1259	1.2517e+02	-5.0594	-4.418645	0.000709	7.093288	1.201636	-0.000142
1260	1.2527e+02	-5.0787	-4.668947	0.001257	12.565253	2.128612	-0.000252
1261	1.2537e+02	-5.0990	-4.830433	0.000811	8.106615	1.373298	-0.000162
1262	1.2547e+02	-5.1180	-4.971733	0.000709	7.093288	1.201636	-0.000142
1263	1.2557e+02	-5.1395	-5.177627	0.001034	10.335934	1.750955	-0.000207
1264	1.2567e+02	-5.1587	-5.331038	0.000770	7.701284	1.304633	-0.000154
1265	1.2577e+02	-5.1782	-5.561154	0.001155	11.551926	1.956949	-0.000231
1266	1.2587e+02	-5.1984	-5.718603	0.000790	7.903950	1.338965	-0.000158
1267	1.2597e+02	-5.2185	-5.916422	0.000993	9.930603	1.682290	-0.000199
1268	1.2607e+02	-5.2396	-6.094056	0.000892	8.917276	1.510628	-0.000179
1269	1.2617e+02	-5.2579	-6.275728	0.000912	9.119942	1.544960	-0.000183
1270	1.2627e+02	-5.2789	-6.445287	0.000851	8.511946	1.441963	-0.000170
1271	1.2636e+02	-5.2981	-6.687515	0.001216	12.159922	2.059947	-0.000243
1272	1.2646e+02	-5.3192	-6.840927	0.000770	7.701284	1.304633	-0.000154
1273	1.2656e+02	-5.3378	-7.054895	0.001074	10.741265	1.819620	-0.000215
1274	1.2666e+02	-5.3575	-7.240603	0.000932	9.322607	1.579292	-0.000187
1275	1.2676e+02	-5.3793	-7.442460	0.001013	10.133269	1.716622	-0.000203
1276	1.2686e+02	-5.3978	-7.612019	0.000851	8.511946	1.441963	-0.000170
1277	1.2696e+02	-5.4175	-7.850210	0.001196	11.957257	2.025614	-0.000239
1278	1.2706e+02	-5.4373	-7.991510	0.000709	7.093288	1.201636	-0.000142
1279	1.2716e+02	-5.4572	-8.197404	0.001034	10.335934	1.750955	-0.000207
1280	1.2726e+02	-5.4782	-8.387149	0.000953	9.525273	1.613625	-0.000191
1281	1.2736e+02	-5.4968	-8.568821	0.000912	9.119942	1.544960	-0.000183
1282	1.2746e+02	-5.5176	-8.706083	0.000689	6.890623	1.167303	-0.000138
1283	1.2756e+02	-5.5380	-8.984646	0.001398	13.983911	2.368939	-0.000280
1284	1.2766e+02	-5.5574	-9.182465	0.000993	9.930603	1.682290	-0.000199
1285	1.2776e+02	-5.5775	-9.396433	0.001074	10.741265	1.819620	-0.000215
1286	1.2786e+02	-5.5972	-9.565993	0.000851	8.511946	1.441963	-0.000170
1287	1.2796e+02	-5.6177	-9.707293	0.000709	7.093288	1.201636	-0.000142
1288	1.2806e+02	-5.6377	-9.957595	0.001257	12.565253	2.128612	-0.000252
1289	1.2816e+02	-5.6573	-10.127155	0.000851	8.511946	1.441963	-0.000170
1290	1.2826e+02	-5.6763	-10.357272	0.001155	11.551926	1.956949	-0.000231
1291	1.2835e+02	-5.6964	-10.563166	0.001034	10.335934	1.750955	-0.000207
1292	1.2845e+02	-5.7162	-10.777134	0.001074	10.741265	1.819620	-0.000215
1293	1.2855e+02	-5.7349	-10.926508	0.000750	7.498619	1.270300	-0.000150
1294	1.2865e+02	-5.7564	-11.136439	0.001054	10.538599	1.785287	-0.000211
1295	1.2875e+02	-5.7761	-11.314073	0.000892	8.917276	1.510628	-0.000179
1296	1.2885e+02	-5.7964	-11.532078	0.001094	10.943930	1.853952	-0.000219
1297	1.2895e+02	-5.8160	-11.717786	0.000932	9.322607	1.579292	-0.000187
1298	1.2905e+02	-5.8365	-11.907532	0.000953	9.525273	1.613625	-0.000191
1299	1.2915e+02	-5.8566	-12.161871	0.001277	12.767919	2.162944	-0.000256
1300	1.2925e+02	-5.8765	-12.400062	0.001196	11.957257	2.025614	-0.000239
1301	1.2935e+02	-5.8958	-12.553474	0.000770	7.701284	1.304633	-0.000154
1302	1.2945e+02	-5.9167	-12.747256	0.000973	9.727938	1.647957	-0.000195
1303	1.2955e+02	-5.9369	-13.005633	0.001297	12.970584	2.197276	-0.000260
1304	1.2965e+02	-5.9555	-13.191341	0.000932	9.322607	1.579292	-0.000187
1305	1.2975e+02	-5.9753	-13.425495	0.001175	11.754592	1.991282	-0.000235
1306	1.2985e+02	-5.9952	-13.643500	0.001094	10.943930	1.853952	-0.000219
1307	1.2995e+02	-6.0150	-13.849394	0.001034	10.335934	1.750955	-0.000207
1308	1.3005e+02	-6.0358	-14.022991	0.000871	8.714611	1.476295	-0.000174
1309	1.3015e+02	-6.0549	-14.261182	0.001196	11.957257	2.025614	-0.000239
1310	1.3025e+02	-6.0761	-14.495336	0.001175	11.754592	1.991282	-0.000235
1311	1.3034e+02	-6.0962	-14.709304	0.001074	10.741265	1.819620	-0.000215
1312	1.3044e+02	-6.1142	-14.923272	0.001074	10.741265	1.819620	-0.000215
1313	1.3054e+02	-6.1358	-15.121092	0.000993	9.930603	1.682290	-0.000199
1314	1.3064e+02	-6.1560	-15.326986	0.001034	10.335934	1.750955	-0.000207
1315	1.3074e+02	-6.1752	-15.540954	0.001074	10.741265	1.819620	-0.000215
1316	1.3084e+02	-6.1945	-15.779145	0.001196	11.957257	2.025614	-0.000239
1317	1.3094e+02	-6.2155	-15.989076	0.001054	10.538599	1.785287	-0.000211
1318	1.3104e+02	-6.2349	-16.227267	0.001196	11.957257	2.025614	-0.000239
1319	1.3114e+02	-6.2547	-16.449310	0.001115	11.146596	1.888284	-0.000223
1320	1.3124e+02	-6.2750	-16.715761	0.001338	13.375915	2.265941	-0.000268
1321	1.3134e+02	-6.2946	-16.909543	0.000973	9.727938	1.647957	-0.000195
1322	1.3144e+02	-6.3147	-17.127548	0.001094	10.943930	1.853952	-0.000219
1323	1.3154e+02	-6.3347	-17.353628	0.001135	11.349261	1.922617	-0.000227
1324	1.3164e+02	-6.3541	-17.591819	0.001196	11.957257	2.025614	-0.000239
1325	1.3174e+02	-6.3742	-17.813861	0.001115	11.146596	1.888284	-0.000223
1326	1.3184e+02	-6.3940	-18.068201	0.001277	12.767919	2.162944	-0.000256
1327	1.3194e+02	-6.4136	-18.306392	0.001196	11.957257	2.025614	-0.000239
1328	1.3204e+02	-6.4347	-18.540546	0.001175	11.754592	1.991282	-0.000235
1329	1.3214e+02	-6.4542	-18.754514	0.001074	10.741265	1.819620	-0.000215
1330	1.3224e+02	-6.4734	-19.000779	0.001236	12.362588	2.094279	-0.000248
1331	1.3234e+02	-6.4932	-19.238970	0.001196	11.957257	2.025614	-0.000239
1332	1.3243e+02	-6.5143	-19.448901	0.001054	10.538599	1.785287	-0.000211
1333	1.3253e+02	-6.5337	-19.747649	0.001500	14.997238	2.540601	-0.000300
1334	1.3263e+02	-6.5533	-19.941432	0.000973	9.727938	1.647957	-0.000195
1335	1.3273e+02	-6.5741	-20.236143	0.001479	14.794572	2.506268	-0.000296
1336	1.3283e+02	-6.5935	-20.458185	0.001115	11.146596	1.888284	-0.000223
1337	1.3293e+02	-6.6136	-20.712525	0.001277	12.767919	2.162944	-0.000256
1338	1.3303e+02	-6.6342	-20.950716	0.001196	11.957257	2.025614	-0.000239
1339	1.3313e+02	-6.6537	-21.180833	0.001155	11.551926	1.956949	-0.000231
1340	1.3323e+02	-6.6733	-21.423061	0.001216	12.159922	2.059947	-0.000243
1341	1.3333e+02	-6.6931	-21.685475	0.001317	13.173249	2.231609	-0.000264
1342	1.3343e+02	-6.7137	-21.951926	0.001338	13.375915	2.265941	-0.000268
1343	1.3353e+02	-6.7336	-22.226451	0.001378	13.781245	2.334606	-0.000276
1344	1.3363e+02	-6.7535	-22.420233	0.000973	9.727938	1.647957	-0.000195
1345	1.3373e+02	-6.7735	-22.710907	0.001459	14.591907	2.471936	-0.000292
1346	1.3383e+02	-6.7923	-22.973321	0.001317	13.173249	2.231609	-0.000264
1347	1.3393e+02	-6.8130	-23.243809	0.001358	13.578580	2.300274	-0.000272
1348	1.3403e+02	-6.8326	-23.461814	0.001094	10.943930	1.853952	-0.000219
1349	1.3413e+02	-6.8536	-23.740377	0.001398	13.983911	2.368939	-0.000280
1350	1.3423e+02	-6.8725	-23.994716	0.001277	12.767919	2.162944	-0.000256
1351	1.3432e+02	-6.8921	-24.277316	0.001419	14.186576	2.403271	-0.000284
1352	1.3442e+02	-6.9118	-24.535692	0.001297	12.970584	2.197276	-0.000260
1353	1.3452e+02	-6.9315	-24.842515	0.001540	15.402568	2.609266	-0.000308
1354	1.3462e+02	-6.9533	-25.088780	0.001236	12.362588	2.094279	-0.000248
1355	1.3472e+02	-6.9724	-25.355231	0.001338	13.375915	2.265941	-0.000268
1356	1.3482e+02	-6.9913	-25.569199	0.001074	10.741265	1.819620	-0.000215
1357	1.3492e+02	-7.0122	-25.876022	0.001540	15.402568	2.609266	-0.000308
1358	1.3502e+02	-7.0323	-26.154584	0.001398	13.983911	2.368939	-0.000280
1359	1.3512e+02	-7.0518	-26.433146	0.001398	13.983911	2.368939	-0.000280
1360	1.3522e+02	-7.0718	-26.707671	0.001378	13.781245	2.334606	-0.000276
1361	1.3532e+02	-7.0923	-27.018531	0.001561	15.605234	2.643598	-0.000312
1362	1.3542e+02	-7.1118	-27.252685	0.001175	11.754592	1.991282	-0.000235
1363	1.3552e+02	-7.1313	-27.547396	0.001479	14.794572	2.506268	-0.000296
1364	1.3562e+02	-7.1515	-27.846144	0.001500	14.997238	2.540601	-0.000300
1365	1.3572e+02	-7.1716	-28.112595	0.001338	13.375915	2.265941	-0.000268
1366	1.3582e+02	-7.1921	-28.366934	0.001277	12.767919	2.162944	-0.000256
1367	1.3592e+02	-7.2107	-28.714128	0.001743	17.429222	2.952590	-0.000349
1368	1.3602e+02	-7.2314	-28.972505	0.001297	12.970584	2.197276	-0.000260
1369	1.3612e+02	-7.2507	-29.255104	0.001419	14.186576	2.403271	-0.000284
1370	1.3622e+02	-7.2705	-29.549815	0.001479	14.794572	2.506268	-0.000296
1371	1.3631e+02	-7.2919	-29.844526	0.001479	14.794572	2.506268	-0.000296
1372	1.3641e+02	-7.3108	-30.139237	0.001479	14.794572	2.506268	-0.000296
1373	1.3651e+02	-7.3320	-30.454133	0.001581	15.807899	2.677931	-0.000316
1374	1.3661e+02	-7.3506	-30.781141	0.001642	16.415895	2.780928	-0.000329
1375	1.3671e+02	-7.3700	-31.051630	0.001358	13.578580	2.300274	-0.000272
1376	1.3681e+02	-7.3906	-31.358452	0.001540	15.402568	2.609266	-0.000308
1377	1.3691e+02	-7.4103	-31.705646	0.001743	17.429222	2.952590	-0.000349
1378	1.3701e+02	-7.4310	-32.000356	0.001479	14.794572	2.506268	-0.000296
1379	1.3711e+02	-7.4507	-32.299104	0.001500	14.997238	2.540601	-0.000300
1380	1.3721e+02	-7.4695	-32.650335	0.001763	17.631888	2.986923	-0.000353
1381	1.3731e+02	-7.4902	-32.936972	0.001439	14.389242	2.437604	-0.000288
1382	1.3741e+02	-7.5107	-33.235720	0.001500	14.997238	2.540601	-0.000300
1383	1.3751e+02	-7.5293	-33.599062	0.001824	18.239884	3.089920	-0.000365
1384	1.3761e+02	-7.5491	-33.897810	0.001500	14.997238	2.540601	-0.000300
1385	1.3771e+02	-7.5702	-34.236930	0.001702	17.023891	2.883925	-0.000341
1386	1.3781e+02	-7.5893	-34.515492	0.001398	13.983911	2.368939	-0.000280
1387	1.3791e+02	-7.6089	-34.854611	0.001702	17.023891	2.883925	-0.000341
1388	1.3801e+02	-7.6297	-35.193731	0.001702	17.023891	2.883925	-0.000341
1389	1.3811e+02	-7.6486	-35.528813	0.001682	16.821226	2.849593	-0.000337
1390	1.3821e+02	-7.6692	-35.847747	0.001601	16.010565	2.712263	-0.000321
1391	1.3831e+02	-7.6901	-36.166681	0.001601	16.010565	2.712263	-0.000321
1392	1.3840e+02	-7.7094	-36.554246	0.001946	19.455876	3.295915	-0.000390
1393	1.3850e+02	-7.7286	-36.889328	0.001682	16.821226	2.849593	-0.000337
1394	1.3860e+02	-7.7496	-37.188076	0.001500	14.997238	2.540601	-0.000300
1395	1.3870e+02	-7.7689	-37.551418	0.001824	18.239884	3.089920	-0.000365
1396	1.3880e+02	-7.7884	-37.902649	0.001763	17.631888	2.986923	-0.000353
1397	1.3890e+02	-7.8082	-38.257917	0.001783	17.834553	3.021255	-0.000357
1398	1.3900e+02	-7.8284	-38.584925	0.001642	16.415895	2.780928	-0.000329
1399	1.3910e+02	-7.8476	-38.915970	0.001662	16.618561	2.815260	-0.000333
1400	1.3920e+02	-7.8687	-39.283349	0.001844	18.442549	3.124252	-0.000369
1401	1.3930e+02	-7.8882	-39.610357	0.001642	16.415895	2.780928	-0.000329
1402	1.3940e+02	-7.9080	-39.965625	0.001783	17.834553	3.021255	-0.000357
1403	1.3950e+02	-7.9290	-40.341079	0.001885	18.847880	3.192917	-0.000377
1404	1.3960e+02	-7.9482	-40.728644	0.001946	19.455876	3.295915	-0.000390
1405	1.3970e+02	-7.9683	-41.051615	0.001621	16.213230	2.746595	-0.000325
1406	1.3980e+02	-7.9874	-41.423031	0.001865	18.645214	3.158585	-0.000373
1407	1.3990e+02	-8.0075	-41.729854	0.001540	15.402568	2.609266	-0.000308
1408	1.4000e+02	-8.0272	-42.149716	0.002108	21.077199	3.570574	-0.000422
1409	1.4010e+02	-8.0475	-42.529206	0.001905	19.050545	3.227250	-0.000381
1410	1.4020e+02	-8.0676	-42.896586	0.001844	18.442549	3.124252	-0.000369
1411	1.4029e+02	-8.0884	-43.259928	0.001824	18.239884	3.089920	-0.000365
1412	1.4039e+02	-8.1076	-43.671716	0.002067	20.671868	3.501909	-0.000414
1413	1.4049e+02	-8.1281	-44.035058	0.001824	18.239884	3.089920	-0.000365
1414	1.4059e+02	-8.1476	-44.410512	0.001885	18.847880	3.192917	-0.000377
1415	1.4069e+02	-8.1665	-44.802114	0.001966	19.658541	3.330247	-0.000394
1416	1.4079e+02	-8.1863	-45.133159	0.001662	16.618561	2.815260	-0.000333
1417	1.4089e+02	-8.2061	-45.553021	0.002108	21.077199	3.570574	-0.000422
1418	1.4099e+02	-8.2274	-45.956735	0.002027	20.266537	3.433244	-0.000406
1419	1.4109e+02	-8.2480	-46.328151	0.001865	18.645214	3.158585	-0.000373
1420	1.4119e+02	-8.2658	-46.739939	0.002067	20.671868	3.501909	-0.000414
1421	1.4129e+02	-8.2867	-47.143653	0.002027	20.266537	3.433244	-0.000406
1422	1.4139e+02	-8.3075	-47.539292	0.001986	19.861207	3.364579	-0.000398
1423	1.4149e+02	-8.3269	-47.975303	0.002189	21.887860	3.707904	-0.000438
1424	1.4159e+02	-8.3466	-48.354793	0.001905	19.050545	3.227250	-0.000381
1425	1.4169e+02	-8.3662	-48.770618	0.002087	20.874533	3.536242	-0.000418
1426	1.4179e+02	-8.3871	-49.202592	0.002169	21.685195	3.673571	-0.000434
1427	1.4189e+02	-8.4055	-49.598231	0.001986	19.861207	3.364579	-0.000398
1428	1.4199e+02	-8.4259	-50.014056	0.002087	20.874533	3.536242	-0.000418
1429	1.4209e+02	-8.4464	-50.437955	0.002128	21.279864	3.604907	-0.000426
1430	1.4219e+02	-8.4649	-50.829558	0.001966	19.658541	3.330247	-0.000394
1431	1.4228e+02	-8.4858	-51.269605	0.002209	22.090526	3.742236	-0.000442
1432	1.4238e+02	-8.5058	-51.697542	0.002148	21.482530	3.639239	-0.000430
1433	1.4248e+02	-8.5260	-52.105292	0.002047	20.469203	3.467577	-0.000410
1434	1.4258e+02	-8.5460	-52.597823	0.002473	24.725176	4.188558	-0.000495
1435	1.4268e+02	-8.5661	-53.013648	0.002087	20.874533	3.536242	-0.000418
1436	1.4278e+02	-8.5858	-53.445621	0.002169	21.685195	3.673571	-0.000434
1437	1.4288e+02	-8.6060	-53.869521	0.002128	21.279864	3.604907	-0.000426
1438	1.4298e+02	-8.6255	-54.329754	0.002310	23.103853	3.913899	-0.000463
1439	1.4308e+02	-8.6438	-54.769802	0.002209	22.090526	3.742236	-0.000442
1440	1.4318e+02	-8.6661	-55.213887	0.002229	22.293191	3.776569	-0.000446
1441	1.4328e+02	-8.6845	-55.694306	0.002412	24.117179	4.085561	-0.000483
1442	1.4338e+02	-8.7045	-56.134354	0.002209	22.090526	3.742236	-0.000442
1443	1.4348e+02	-8.7245	-56.582476	0.002250	22.495856	3.810901	-0.000450
1444	1.4358e+02	-8.7457	-57.050784	0.002351	23.509183	3.982563	-0.000471
1445	1.4368e+02	-8.7656	-57.515054	0.002331	23.306518	3.948231	-0.000467
1446	1.4378e+02	-8.7854	-57.959139	0.002229	22.293191	3.776569	-0.000446
1447	1.4388e+02	-8.8055	-58.447633	0.002452	24.522510	4.154226	-0.000491
1448	1.4398e+02	-8.8254	-58.940163	0.002473	24.725176	4.188558	-0.000495
1449	1.4408e+02	-8.8449	-59.400397	0.002310	23.103853	3.913899	-0.000463
1450	1.4418e+02	-8.8641	-59.884853	0.002432	24.319845	4.119893	-0.000487
1451	1.4428e+02	-8.8840	-60.373346	0.002452	24.522510	4.154226	-0.000491
1452	1.4437e+02	-8.9044	-60.873951	0.002513	25.130506	4.257223	-0.000503
1453	1.4447e+02	-8.9241	-61.362445	0.002452	24.522510	4.154226	-0.000491
1454	1.4457e+02	-8.9444	-61.842864	0.002412	24.117179	4.085561	-0.000483
1455	1.4467e+02	-8.9639	-62.343469	0.002513	25.130506	4.257223	-0.000503
1456	1.4477e+02	-8.9844	-62.835999	0.002473	24.725176	4.188558	-0.000495
1457	1.4487e+02	-9.0039	-63.340641	0.002533	25.333172	4.291555	-0.000507
1458	1.4497e+02	-9.0231	-63.829135	0.002452	24.522510	4.154226	-0.000491
1459	1.4507e+02	-9.0442	-64.341851	0.002574	25.738502	4.360220	-0.000515
1460	1.4517e+02	-9.0637	-64.854567	0.002574	25.738502	4.360220	-0.000515
1461	1.4527e+02	-9.0822	-65.411692	0.002797	27.967822	4.737877	-0.000560
1462	1.4537e+02	-9.1029	-65.875962	0.002331	23.306518	3.948231	-0.000467
1463	1.4547e+02	-9.1245	-66.420976	0.002736	27.359825	4.634880	-0.000548
1464	1.4557e+02	-9.1437	-66.917543	0.002493	24.927841	4.222891	-0.000499
1465	1.4567e+02	-9.1628	-67.450445	0.002675	26.751829	4.531883	-0.000536
1466	1.4577e+02	-9.1837	-68.003533	0.002777	27.765156	4.703545	-0.000556
1467	1.4587e+02	-9.2032	-68.564695	0.002817	28.170487	4.772210	-0.000564
1468	1.4597e+02	-9.2236	-69.105671	0.002716	27.157160	4.600547	-0.000544
1469	1.4607e+02	-9.2424	-69.606276	0.002513	25.130506	4.257223	-0.000503
1470	1.4617e+02	-9.2624	-70.171475	0.002837	28.373152	4.806542	-0.000568
1471	1.4626e+02	-9.2828	-70.744748	0.002878	28.778483	4.875207	-0.000576
1472	1.4636e+02	-9.3033	-71.305910	0.002817	28.170487	4.772210	-0.000564
1473	1.4646e+02	-9.3222	-71.871109	0.002837	28.373152	4.806542	-0.000568
1474	1.4656e+02	-9.3430	-72.404011	0.002675	26.751829	4.531883	-0.000536
1475	1.4666e+02	-9.3628	-72.977284	0.002878	28.778483	4.875207	-0.000576
1476	1.4676e+02	-9.3823	-73.558632	0.002918	29.183814	4.943872	-0.000584
1477	1.4686e+02	-9.4025	-74.115756	0.002797	27.967822	4.737877	-0.000560
1478	1.4696e+02	-9.4223	-74.765735	0.003263	32.629125	5.527523	-0.000653
1479	1.4706e+02	-9.4415	-75.347083	0.002918	29.183814	4.943872	-0.000584
1480	1.4716e+02	-9.4620	-75.908245	0.002817	28.170487	4.772210	-0.000564
1481	1.4726e+02	-9.4820	-76.509778	0.003020	30.197141	5.115534	-0.000605
1482	1.4736e+02	-9.5024	-77.074977	0.002837	28.373152	4.806542	-0.000568
1483	1.4746e+02	-9.5215	-77.676510	0.003020	30.197141	5.115534	-0.000605
1484	1.4756e+02	-9.5409	-78.286118	0.003060	30.602471	5.184199	-0.000613
1485	1.4766e+02	-9.5612	-78.903799	0.003101	31.007802	5.252864	-0.000621
1486	1.4776e+02	-9.5810	-79.565890	0.003324	33.237121	5.630521	-0.000665
1487	1.4786e+02	-9.6005	-80.171460	0.003040	30.399806	5.149867	-0.000609
1488	1.4796e+02	-9.6216	-80.817402	0.003243	32.426460	5.493191	-0.000649
1489	1.4806e+02	-9.6405	-81.439121	0.003121	31.210468	5.287196	-0.000625
1490	1.4816e+02	-9.6613	-82.097174	0.003303	33.034456	5.596188	-0.000661
1491	1.4825e+02	-9.6806	-82.702744	0.003040	30.399806	5.149867	-0.000609
1492	1.4835e+02	-9.7003	-83.356760	0.003283	32.831791	5.561856	-0.000657
1493	1.4845e+02	-9.7209	-83.994628	0.003202	32.021129	5.424526	-0.000641
1494	1.4855e+02	-9.7407	-84.628458	0.003182	31.818464	5.390194	-0.000637
1495	1.4865e+02	-9.7612	-85.326882	0.003506	35.061110	5.939513	-0.000702
1496	1.4875e+02	-9.7806	-86.009158	0.003425	34.250448	5.802183	-0.000686
1497	1.4885e+02	-9.8007	-86.667211	0.003303	33.034456	5.596188	-0.000661
1498	1.4895e+02	-9.8212	-87.349487	0.003425	34.250448	5.802183	-0.000686
1499	1.4905e+02	-9.8407	-88.035800	0.003445	34.453114	5.836515	-0.000690
1500	1.4915e+02	-9.8615	-88.730188	0.003486	34.858444	5.905180	-0.000698
1501	1.4925e+02	-9.8807	-89.436687	0.003547	35.466440	6.008178	-0.000710
1502	1.4935e+02	-9.8997	-90.127037	0.003466	34.655779	5.870848	-0.000694
1503	1.4945e+02	-9.9194	-90.813350	0.003445	34.453114	5.836515	-0.000690
1504	1.4955e+02	-9.9399	-91.552146	0.003709	37.087763	6.282837	-0.000743
1505	1.4965e+02	-9.9609	-92.254607	0.003526	35.263775	5.973845	-0.000706
1506	1.4975e+02	-9.9800	-92.993403	0.003709	37.087763	6.282837	-0.000743
1507	1.4985e+02	-9.9997	-93.699902	0.003547	35.466440	6.008178	-0.000710
1508	1.4995e+02	-9.9800	-94.236841	-0.002695	-26.954495	-4.566215	-0.000540
1509	1.5005e+02	-9.9597	-94.705149	-0.002351	-23.509183	-3.982563	-0.000471
1510	1.5015e+02	-9.9393	-95.104825	-0.002006	-20.063872	-3.398912	-0.000402
1511	1.5025e+02	-9.9208	-95.556984	-0.002270	-22.698522	-3.845234	-0.000454
1512	1.5034e+02	-9.9008	-95.944549	-0.001946	-19.455876	-3.295915	-0.000390
1513	1.5044e+02	-9.8804	-96.295780	-0.001763	-17.631888	-2.986923	-0.000353
1514	1.5054e+02	-9.8605	-96.703531	-0.002047	-20.469203	-3.467577	-0.000410
1515	1.5064e+02	-9.8404	-97.062836	-0.001804	-18.037218	-3.055587	-0.000361
1516	1.5074e+02	-9.8212	-97.373695	-0.001561	-15.605234	-2.643598	-0.000312
1517	1.5084e+02	-9.8010	-97.741075	-0.001844	-18.442549	-3.124252	-0.000369
1518	1.5094e+02	-9.7815	-97.979266	-0.001196	-11.957257	-2.025614	-0.000239
1519	1.5104e+02	-9.7603	-98.290125	-0.001561	-15.605234	-2.643598	-0.000312
1520	1.5114e+02	-9.7409	-98.617133	-0.001642	-16.415895	-2.780928	-0.000329
1521	1.5124e+02	-9.7211	-98.831101	-0.001074	-10.741265	-1.819620	-0.000215
1522	1.5134e+02	-9.7005	-99.101590	-0.001358	-13.578580	-2.300274	-0.000272
1523	1.5144e+02	-9.6812	-99.335743	-0.001175	-11.754592	-1.991282	-0.000235
1524	1.5154e+02	-9.6613	-99.606231	-0.001358	-13.578580	-2.300274	-0.000272
1525	1.5164e+02	-9.6405	-99.824237	-0.001094	-10.943930	-1.853952	-0.000219
1526	1.5174e+02	-9.6216	-100.018019	-0.000973	-9.727938	-1.647957	-0.000195
1527	1.5184e+02	-9.6017	-100.252173	-0.001175	-11.754592	-1.991282	-0.000235
1528	1.5194e+02	-9.5813	-100.466141	-0.001074	-10.741265	-1.819620	-0.000215
1529	1.5204e+02	-9.5611	-100.627627	-0.000811	-8.106615	-1.373298	-0.000162
1530	1.5214e+02	-9.5416	-100.833521	-0.001034	-10.335934	-1.750955	-0.000207
1531	1.5224e+02	-9.5210	-101.011155	-0.000892	-8.917276	-1.510628	-0.000179
1532	1.5233e+02	-9.5004	-101.204937	-0.000973	-9.727938	-1.647957	-0.000195
1533	1.5243e+02	-9.4812	-101.362386	-0.000790	-7.903950	-1.338965	-0.000158
1534	1.5253e+02	-9.4624	-101.552131	-0.000953	-9.525273	-1.613625	-0.000191
1535	1.5263e+02	-9.4421	-101.665171	-0.000567	-5.674630	-0.961308	-0.000114
1536	1.5273e+02	-9.4212	-101.810508	-0.000730	-7.295953	-1.235968	-0.000146
1537	1.5283e+02	-9.4025	-101.939696	-0.000649	-6.485292	-1.098638	-0.000130
1538	1.5293e+02	-9.3826	-102.089070	-0.000750	-7.498619	-1.270300	-0.000150
1539	1.5303e+02	-9.3625	-102.218258	-0.000649	-6.485292	-1.098638	-0.000130
1540	1.5313e+02	-9.3429	-102.343410	-0.000628	-6.282627	-1.064306	-0.000126
1541	1.5323e+02	-9.3210	-102.432227	-0.000446	-4.458638	-0.755314	-0.000089
1542	1.5333e+02	-9.3022	-102.585638	-0.000770	-7.701284	-1.304633	-0.000154
1543	1.5343e+02	-9.2828	-102.678492	-0.000466	-4.661304	-0.789646	-0.000093
1544	1.5353e+02	-9.2630	-102.783457	-0.000527	-5.269300	-0.892644	-0.000105
1545	1.5363e+02	-9.2427	-102.884386	-0.000507	-5.066634	-0.858311	-0.000101
1546	1.5373e+02	-9.2227	-103.005500	-0.000608	-6.079961	-1.029973	-0.000122
1547	1.5383e+02	-9.2036	-103.074131	-0.000345	-3.445311	-0.583652	-0.000069
1548	1.5393e+02	-9.1821	-103.191208	-0.000588	-5.877296	-0.995641	-0.000118
1549	1.5403e+02	-9.1637	-103.219468	-0.000142	-1.418658	-0.240327	-0.000028
1550	1.5413e+02	-9.1440	-103.316359	-0.000486	-4.863969	-0.823979	-0.000097
1551	1.5422e+02	-9.1231	-103.384991	-0.000345	-3.445311	-0.583652	-0.000069
1552	1.5432e+02	-9.1031	-103.453622	-0.000345	-3.445311	-0.583652	-0.000069
1553	1.5442e+02	-9.0837	-103.514179	-0.000304	-3.039981	-0.514987	-0.000061
1554	1.5452e+02	-9.0640	-103.598959	-0.000426	-4.255973	-0.720981	-0.000085
1555	1.5462e+02	-9.0439	-103.623182	-0.000122	-1.215992	-0.205995	-0.000024
1556	1.5472e+02	-9.0237	-103.699887	-0.000385	-3.850642	-0.652316	-0.000077
1557	1.5482e+02	-9.0034	-103.764481	-0.000324	-3.242646	-0.549319	-0.000065
1558	1.5492e+02	-8.9835	-103.796778	-0.000162	-1.621323	-0.274660	-0.000032
1559	1.5502e+02	-8.9635	-103.821001	-0.000122	-1.215992	-0.205995	-0.000024
1560	1.5512e+02	-8.9439	-103.873484	-0.000263	-2.634650	-0.446322	-0.000053
1561	1.5522e+02	-8.9244	-103.925967	-0.000263	-2.634650	-0.446322	-0.000053
1562	1.5532e+02	-8.9044	-103.946152	-0.000101	-1.013327	-0.171662	-0.000020
1563	1.5542e+02	-8.8841	-103.950190	-0.000020	-0.202665	-0.034332	-0.000004
1564	1.5552e+02	-8.8641	-104.006709	-0.000284	-2.837315	-0.480654	-0.000057
1565	1.5562e+02	-8.8440	-103.994598	0.000061	0.607996	0.102997	0.000012
1566	1.5572e+02	-8.8243	-104.043044	-0.000243	-2.431984	-0.411989	-0.000049
1567	1.5582e+02	-8.8034	-104.067266	-0.000122	-1.215992	-0.205995	-0.000024
1568	1.5592e+02	-8.7842	-104.107638	-0.000203	-2.026654	-0.343324	-0.000041
1569	1.5602e+02	-8.7646	-104.083415	0.000122	1.215992	0.205995	0.000024
1570	1.5612e+02	-8.7448	-104.091489	-0.000041	-0.405331	-0.068665	-0.000008
1571	1.5622e+02	-8.7248	-104.091489	0.000000	0.000000	0.000000	0.000000
1572	1.5631e+02	-8.7048	-104.091489	0.000000	0.000000	0.000000	0.000000
1573	1.5641e+02	-8.6856	-104.103601	-0.000061	-0.607996	-0.102997	-0.000012
1574	1.5651e+02	-8.6644	-104.075341	0.000142	1.418658	0.240327	0.000028
1575	1.5661e+02	-8.6447	-104.067266	0.000041	0.405331	0.068665	0.000008
1576	1.5671e+02	-8.6250	-104.091489	-0.000122	-1.215992	-0.205995	-0.000024
1577	1.5681e+02	-8.6055	-104.047081	0.000223	2.229319	0.377657	0.000045
1578	1.5691e+02	-8.5846	-104.034969	0.000061	0.607996	0.102997	0.000012
1579	1.5701e+02	-8.5658	-104.039007	-0.000020	-0.202665	-0.034332	-0.000004
1580	1.5711e+02	-8.5461	-104.051118	-0.000061	-0.607996	-0.102997	-0.000012
1581	1.5721e+02	-8.5268	-104.043044	0.000041	0.405331	0.068665	0.000008
1582	1.5731e+02	-8.5057	-103.986524	0.000284	2.837315	0.480654	0.000057
1583	1.5741e+02	-8.4858	-103.994598	-0.000041	-0.405331	-0.068665	-0.000008
1584	1.5751e+02	-8.4659	-103.958264	0.000182	1.823988	0.308992	0.000037
1585	1.5761e+02	-8.4457	-103.954227	0.000020	0.202665	0.034332	0.000004
1586	1.5771e+02	-8.4268	-103.889633	0.000324	3.242646	0.549319	0.000065
1587	1.5781e+02	-8.4064	-103.865410	0.000122	1.215992	0.205995	0.000024
1588	1.5791e+02	-8.3868	-103.845224	0.000101	1.013327	0.171662	0.000020
1589	1.5801e+02	-8.3664	-103.816964	0.000142	1.418658	0.240327	0.000028
1590	1.5811e+02	-8.3467	-103.800816	0.000081	0.810661	0.137330	0.000016
1591	1.5821e+02	-8.3261	-103.772556	0.000142	1.418658	0.240327	0.000028
1592	1.5830e+02	-8.3064	-103.711999	0.000304	3.039981	0.514987	0.000061
1593	1.5840e+02	-8.2867	-103.687776	0.000122	1.215992	0.205995	0.000024
1594	1.5850e+02	-8.2666	-103.631256	0.000284	2.837315	0.480654	0.000057
1595	1.5860e+02	-8.2471	-103.566662	0.000324	3.242646	0.549319	0.000065
1596	1.5870e+02	-8.2268	-103.514179	0.000263	2.634650	0.446322	0.000053
1597	1.5880e+02	-8.2071	-103.534365	-0.000101	-1.013327	-0.171662	-0.000020
1598	1.5890e+02	-8.1869	-103.425362	0.000547	5.471965	0.926976	0.000110
1599	1.5900e+02	-8.1671	-103.409213	0.000081	0.810661	0.137330	0.000016
1600	1.5910e+02	-8.1479	-103.376916	0.000162	1.621323	0.274660	0.000032
1601	1.5920e+02	-8.1274	-103.340582	0.000182	1.823988	0.308992	0.000037
1602	1.5930e+02	-8.1079	-103.267914	0.000365	3.647977	0.617984	0.000073
1603	1.5940e+02	-8.0881	-103.215431	0.000263	2.634650	0.446322	0.000053
1604	1.5950e+02	-8.0673	-103.158911	0.000284	2.837315	0.480654	0.000057
1605	1.5960e+02	-8.0473	-103.122577	0.000182	1.823988	0.308992	0.000037
1606	1.5970e+02	-8.0270	-103.106428	0.000081	0.810661	0.137330	0.000016
1607	1.5980e+02	-8.0073	-103.001463	0.000527	5.269300	0.892644	0.000105
1608	1.5990e+02	-7.9881	-102.953017	0.000243	2.431984	0.411989	0.000049
1609	1.6000e+02	-7.9669	-102.896497	0.000284	2.837315	0.480654	0.000057
1610	1.6010e+02	-7.9478	-102.791532	0.000527	5.269300	0.892644	0.000105
1611	1.6019e+02	-7.9279	-102.787494	0.000020	0.202665	0.034332	0.000004
1612	1.6029e+02	-7.9080	-102.730975	0.000284	2.837315	0.480654	0.000057
1613	1.6039e+02	-7.8876	-102.634083	0.000486	4.863969	0.823979	0.000097
1614	1.6049e+02	-7.8683	-102.573526	0.000304	3.039981	0.514987	0.000061
1615	1.6059e+02	-7.8479	-102.521043	0.000263	2.634650	0.446322	0.000053
1616	1.6069e+02	-7.8284	-102.432227	0.000446	4.458638	0.755314	0.000089
1617	1.6079e+02	-7.8081	-102.436264	-0.000020	-0.202665	-0.034332	-0.000004
1618	1.6089e+02	-7.7885	-102.351484	0.000426	4.255973	0.720981	0.000085
1619	1.6099e+02	-7.7689	-102.258630	0.000466	4.661304	0.789646	0.000093
1620	1.6109e+02	-7.7486	-102.169813	0.000446	4.458638	0.755314	0.000089
1621	1.6119e+02	-7.7290	-102.072921	0.000486	4.863969	0.823979	0.000097
1622	1.6129e+02	-7.7092	-102.008327	0.000324	3.242646	0.549319	0.000065
1623	1.6139e+02	-7.6894	-101.927585	0.000405	4.053307	0.686649	0.000081
1624	1.6149e+02	-7.6691	-101.879139	0.000243	2.431984	0.411989	0.000049
1625	1.6159e+02	-7.6494	-101.810508	0.000345	3.445311	0.583652	0.000069
1626	1.6169e+02	-7.6292	-101.753988	0.000284	2.837315	0.480654	0.000057
1627	1.6179e+02	-7.6089	-101.685356	0.000345	3.445311	0.583652	0.000069
1628	1.6189e+02	-7.5885	-101.580391	0.000527	5.269300	0.892644	0.000105
1629	1.6199e+02	-7.5700	-101.495611	0.000426	4.255973	0.720981	0.000085
1630	1.6209e+02	-7.5494	-101.426980	0.000345	3.445311	0.583652	0.000069
1631	1.6219e+02	-7.5308	-101.317977	0.000547	5.471965	0.926976	0.000110
1632	1.6228e+02	-7.5098	-101.233197	0.000426	4.255973	0.720981	0.000085
1633	1.6238e+02	-7.4900	-101.160529	0.000365	3.647977	0.617984	0.000073
1634	1.6248e+02	-7.4700	-101.055563	0.000527	5.269300	0.892644	0.000105
1635	1.6258e+02	-7.4509	-100.995006	0.000304	3.039981	0.514987	0.000061
1636	1.6268e+02	-7.4304	-100.906189	0.000446	4.458638	0.755314	0.000089
1637	1.6278e+02	-7.4104	-100.898115	0.000041	0.405331	0.068665	0.000008
1638	1.6288e+02	-7.3904	-100.716444	0.000912	9.119942	1.544960	0.000183
1639	1.6298e+02	-7.3700	-100.651850	0.000324	3.242646	0.549319	0.000065
1640	1.6308e+02	-7.3505	-100.558996	0.000466	4.661304	0.789646	0.000093
1641	1.6318e+02	-7.3309	-100.486327	0.000365	3.647977	0.617984	0.000073
1642	1.6328e+02	-7.3094	-100.401547	0.000426	4.255973	0.720981	0.000085
1643	1.6338e+02	-7.2906	-100.276396	0.000628	6.282627	1.064306	0.000126
1644	1.6348e+02	-7.2714	-100.215839	0.000304	3.039981	0.514987	0.000061
1645	1.6358e+02	-7.2510	-100.122985	0.000466	4.661304	0.789646	0.000093
1646	1.6368e+02	-7.2314	-99.997834	0.000628	6.282627	1.064306	0.000126
1647	1.6378e+02	-7.2107	-99.953425	0.000223	2.229319	0.377657	0.000045
1648	1.6388e+02	-7.1912	-99.876720	0.000385	3.850642	0.652316	0.000077
1649	1.6398e+02	-7.1710	-99.763680	0.000567	5.674630	0.961308	0.000114
1650	1.6408e+02	-7.1513	-99.686974	0.000385	3.850642	0.652316	0.000077
1651	1.6418e+02	-7.1319	-99.577972	0.000547	5.471965	0.926976	0.000110
1652	1.6427e+02	-7.1129	-99.464932	0.000567	5.674630	0.961308	0.000114
1653	1.6437e+02	-7.0911	-99.412449	0.000263	2.634650	0.446322	0.000053
1654	1.6447e+02	-7.0718	-99.311521	0.000507	5.066634	0.858311	0.000101
1655	1.6457e+02	-7.0523	-99.170221	0.000709	7.093288	1.201636	0.000142
1656	1.6467e+02	-7.0316	-99.109664	0.000304	3.039981	0.514987	0.000061
1657	1.6477e+02	-7.0120	-99.008735	0.000507	5.066634	0.858311	0.000101
1658	1.6487e+02	-6.9911	-98.944141	0.000324	3.242646	0.549319	0.000065
1659	1.6497e+02	-6.9725	-98.843213	0.000507	5.066634	0.858311	0.000101
1660	1.6507e+02	-6.9521	-98.714024	0.000649	6.485292	1.098638	0.000130
1661	1.6517e+02	-6.9321	-98.621170	0.000466	4.661304	0.789646	0.000093
1662	1.6527e+02	-6.9128	-98.528316	0.000466	4.661304	0.789646	0.000093
1663	1.6537e+02	-6.8925	-98.427388	0.000507	5.066634	0.858311	0.000101
1664	1.6547e+02	-6.8729	-98.334534	0.000466	4.661304	0.789646	0.000093
1665	1.6557e+02	-6.8523	-98.249754	0.000426	4.255973	0.720981	0.000085
1666	1.6567e+02	-6.8332	-98.156900	0.000466	4.661304	0.789646	0.000093
1667	1.6577e+02	-6.8124	-98.043860	0.000567	5.674630	0.961308	0.000114
1668	1.6587e+02	-6.7923	-97.942932	0.000507	5.066634	0.858311	0.000101
1669	1.6597e+02	-6.7734	-97.878337	0.000324	3.242646	0.549319	0.000065
1670	1.6607e+02	-6.7523	-97.741075	0.000689	6.890623	1.167303	0.000138
1671	1.6616e+02	-6.7334	-97.615924	0.000628	6.282627	1.064306	0.000126
1672	1.6626e+02	-6.7136	-97.575552	0.000203	2.026654	0.343324	0.000041
1673	1.6636e+02	-6.6936	-97.446364	0.000649	6.485292	1.098638	0.000130
1674	1.6646e+02	-6.6732	-97.333324	0.000567	5.674630	0.961308	0.000114
1675	1.6656e+02	-6.6525	-97.220284	0.000567	5.674630	0.961308	0.000114
1676	1.6666e+02	-6.6328	-97.087059	0.000669	6.687957	1.132971	0.000134
1677	1.6676e+02	-6.6129	-97.042650	0.000223	2.229319	0.377657	0.000045
1678	1.6686e+02	-6.5933	-96.917499	0.000628	6.282627	1.064306	0.000126
1679	1.6696e+02	-6.5732	-96.836756	0.000405	4.053307	0.686649	0.000081
1680	1.6706e+02	-6.5543	-96.727754	0.000547	5.471965	0.926976	0.000110
1681	1.6716e+02	-6.5332	-96.634900	0.000466	4.661304	0.789646	0.000093
1682	1.6726e+02	-6.5131	-96.509748	0.000628	6.282627	1.064306	0.000126
1683	1.6736e+02	-6.4940	-96.424969	0.000426	4.255973	0.720981	0.000085
1684	1.6746e+02	-6.4742	-96.328077	0.000486	4.863969	0.823979	0.000097
1685	1.6756e+02	-6.4541	-96.206963	0.000608	6.079961	1.029973	0.000122
1686	1.6766e+02	-6.4343	-96.077775	0.000649	6.485292	1.098638	0.000130
1687	1.6776e+02	-6.4139	-95.984921	0.000466	4.661304	0.789646	0.000093
1688	1.6786e+02	-6.3943	-95.879955	0.000527	5.269300	0.892644	0.000105
1689	1.6796e+02	-6.3742	-95.762878	0.000588	5.877296	0.995641	0.000118
1690	1.6806e+02	-6.3541	-95.645801	0.000588	5.877296	0.995641	0.000118
1691	1.6816e+02	-6.3339	-95.528724	0.000588	5.877296	0.995641	0.000118
1692	1.6825e+02	-6.3145	-95.407610	0.000608	6.079961	1.029973	0.000122
1693	1.6835e+02	-6.2958	-95.310719	0.000486	4.863969	0.823979	0.000097
1694	1.6845e+02	-6.2749	-95.217865	0.000466	4.661304	0.789646	0.000093
1695	1.6855e+02	-6.2543	-95.145197	0.000365	3.647977	0.617984	0.000073
1696	1.6865e+02	-6.2354	-95.003897	0.000709	7.093288	1.201636	0.000142
1697	1.6875e+02	-6.2154	-94.870671	0.000669	6.687957	1.132971	0.000134
1698	1.6885e+02	-6.1954	-94.781854	0.000446	4.458638	0.755314	0.000089
1699	1.6895e+02	-6.1755	-94.664777	0.000588	5.877296	0.995641	0.000118
1700	1.6905e+02	-6.1560	-94.575960	0.000446	4.458638	0.755314	0.000089
1701	1.6915e+02	-6.1359	-94.434661	0.000709	7.093288	1.201636	0.000142
1702	1.6925e+02	-6.1151	-94.305472	0.000649	6.485292	1.098638	0.000130
1703	1.6935e+02	-6.0956	-94.196470	0.000547	5.471965	0.926976	0.000110
1704	1.6945e+02	-6.0752	-94.127838	0.000345	3.445311	0.583652	0.000069
1705	1.6955e+02	-6.0556	-93.986539	0.000709	7.093288	1.201636	0.000142
1706	1.6965e+02	-6.0364	-93.913870	0.000365	3.647977	0.617984	0.000073
1707	1.6975e+02	-6.0159	-93.800830	0.000567	5.674630	0.961308	0.000114
1708	1.6985e+02	-5.9970	-93.712013	0.000446	4.458638	0.755314	0.000089
1709	1.6995e+02	-5.9752	-93.534379	0.000892	8.917276	1.510628	0.000179
1710	1.7005e+02	-5.9561	-93.433451	0.000507	5.066634	0.858311	0.000101
1711	1.7015e+02	-5.9351	-93.332523	0.000507	5.066634	0.858311	0.000101
1712	1.7024e+02	-5.9161	-93.239668	0.000466	4.661304	0.789646	0.000093
1713	1.7034e+02	-5.8960	-93.106443	0.000669	6.687957	1.132971	0.000134
1714	1.7044e+02	-5.8759	-93.001477	0.000527	5.269300	0.892644	0.000105
1715	1.7054e+02	-5.8566	-92.908623	0.000466	4.661304	0.789646	0.000093
1716	1.7064e+02	-5.8368	-92.803658	0.000527	5.269300	0.892644	0.000105
1717	1.7074e+02	-5.8173	-92.690618	0.000567	5.674630	0.961308	0.000114
1718	1.7084e+02	-5.7965	-92.553355	0.000689	6.890623	1.167303	0.000138
1719	1.7094e+02	-5.7770	-92.436278	0.000588	5.877296	0.995641	0.000118
1720	1.7104e+02	-5.7568	-92.331313	0.000527	5.269300	0.892644	0.000105
1721	1.7114e+02	-5.7373	-92.234422	0.000486	4.863969	0.823979	0.000097
1722	1.7124e+02	-5.7169	-92.145605	0.000446	4.458638	0.755314	0.000089
1723	1.7134e+02	-5.6967	-92.036602	0.000547	5.471965	0.926976	0.000110
1724	1.7144e+02	-5.6773	-91.883191	0.000770	7.701284	1.304633	0.000154
1725	1.7154e+02	-5.6564	-91.802448	0.000405	4.053307	0.686649	0.000081
1726	1.7164e+02	-5.6372	-91.665185	0.000689	6.890623	1.167303	0.000138
1727	1.7174e+02	-5.6174	-91.523886	0.000709	7.093288	1.201636	0.000142
1728	1.7184e+02	-5.5969	-91.435069	0.000446	4.458638	0.755314	0.000089
1729	1.7194e+02	-5.5768	-91.297806	0.000689	6.890623	1.167303	0.000138
1730	1.7204e+02	-5.5582	-91.200915	0.000486	4.863969	0.823979	0.000097
1731	1.7213e+02	-5.5383	-91.083838	0.000588	5.877296	0.995641	0.000118
1732	1.7223e+02	-5.5171	-90.974835	0.000547	5.471965	0.926976	0.000110
1733	1.7233e+02	-5.4965	-90.849684	0.000628	6.282627	1.064306	0.000126
1734	1.7243e+02	-5.4778	-90.744719	0.000527	5.269300	0.892644	0.000105
1735	1.7253e+02	-5.4578	-90.599382	0.000730	7.295953	1.235968	0.000146
1736	1.7263e+02	-5.4382	-90.482305	0.000588	5.877296	0.995641	0.000118
1737	1.7273e+02	-5.4181	-90.336968	0.000730	7.295953	1.235968	0.000146
1738	1.7283e+02	-5.3983	-90.252188	0.000426	4.255973	0.720981	0.000085
1739	1.7293e+02	-5.3780	-90.163371	0.000446	4.458638	0.755314	0.000089
1740	1.7303e+02	-5.3581	-90.001886	0.000811	8.106615	1.373298	0.000162
1741	1.7313e+02	-5.3384	-89.904994	0.000486	4.863969	0.823979	0.000097
1742	1.7323e+02	-5.3188	-89.771769	0.000669	6.687957	1.132971	0.000134
1743	1.7333e+02	-5.2982	-89.666803	0.000527	5.269300	0.892644	0.000105
1744	1.7343e+02	-5.2782	-89.509355	0.000790	7.903950	1.338965	0.000158
1745	1.7353e+02	-5.2585	-89.416501	0.000466	4.661304	0.789646	0.000093
1746	1.7363e+02	-5.2390	-89.307498	0.000547	5.471965	0.926976	0.000110
1747	1.7373e+02	-5.2188	-89.150050	0.000790	7.903950	1.338965	0.000158
1748	1.7383e+02	-5.1984	-89.028936	0.000608	6.079961	1.029973	0.000122
1749	1.7393e+02	-5.1781	-88.903785	0.000628	6.282627	1.064306	0.000126
1750	1.7403e+02	-5.1593	-88.806893	0.000486	4.863969	0.823979	0.000097
1751	1.7413e+02	-5.1385	-88.673668	0.000669	6.687957	1.132971	0.000134
1752	1.7422e+02	-5.1187	-88.524294	0.000750	7.498619	1.270300	0.000150
1753	1.7432e+02	-5.0980	-88.411254	0.000567	5.674630	0.961308	0.000114
1754	1.7442e+02	-5.0792	-88.286103	0.000628	6.282627	1.064306	0.000126
1755	1.7452e+02	-5.0601	-88.185174	0.000507	5.066634	0.858311	0.000101
1756	1.7462e+02	-5.0391	-88.060023	0.000628	6.282627	1.064306	0.000126
1757	1.7472e+02	-5.0191	-87.934872	0.000628	6.282627	1.064306	0.000126
1758	1.7482e+02	-4.9994	-87.805684	0.000649	6.485292	1.098638	0.000130
1759	1.7492e+02	-4.9789	-87.668421	0.000689	6.890623	1.167303	0.000138
1760	1.7502e+02	-4.9597	-87.575567	0.000466	4.661304	0.789646	0.000093
1761	1.7512e+02	-4.9400	-87.434267	0.000709	7.093288	1.201636	0.000142
1762	1.7522e+02	-4.9206	-87.305079	0.000649	6.485292	1.098638	0.000130
1763	1.7532e+02	-4.8990	-87.155705	0.000750	7.498619	1.270300	0.000150
1764	1.7542e+02	-4.8804	-87.054776	0.000507	5.066634	0.858311	0.000101
1765	1.7552e+02	-4.8602	-86.929625	0.000628	6.282627	1.064306	0.000126
1766	1.7562e+02	-4.8407	-86.796400	0.000669	6.687957	1.132971	0.000134
1767	1.7572e+02	-4.8199	-86.691434	0.000527	5.269300	0.892644	0.000105
1768	1.7582e+02	-4.8004	-86.521875	0.000851	8.511946	1.441963	0.000170
1769	1.7592e+02	-4.7801	-86.396723	0.000628	6.282627	1.064306	0.000126
1770	1.7602e+02	-4.7598	-86.247349	0.000750	7.498619	1.270300	0.000150
1771	1.7612e+02	-4.7411	-86.190829	0.000284	2.837315	0.480654	0.000057
1772	1.7621e+02	-4.7208	-86.033381	0.000790	7.903950	1.338965	0.000158
1773	1.7631e+02	-4.7005	-85.936490	0.000486	4.863969	0.823979	0.000097
1774	1.7641e+02	-4.6809	-85.799227	0.000689	6.890623	1.167303	0.000138
1775	1.7651e+02	-4.6611	-85.629668	0.000851	8.511946	1.441963	0.000170
1776	1.7661e+02	-4.6420	-85.528739	0.000507	5.066634	0.858311	0.000101
1777	1.7671e+02	-4.6214	-85.387439	0.000709	7.093288	1.201636	0.000142
1778	1.7681e+02	-4.6008	-85.302660	0.000426	4.255973	0.720981	0.000085
1779	1.7691e+02	-4.5810	-85.120988	0.000912	9.119942	1.544960	0.000183
1780	1.7701e+02	-4.5609	-85.048320	0.000365	3.647977	0.617984	0.000073
1781	1.7711e+02	-4.5410	-84.846463	0.001013	10.133269	1.716622	0.000203
1782	1.7721e+02	-4.5221	-84.773795	0.000365	3.647977	0.617984	0.000073
1783	1.7731e+02	-4.5015	-84.604235	0.000851	8.511946	1.441963	0.000170
1784	1.7741e+02	-4.4812	-84.483121	0.000608	6.079961	1.029973	0.000122
1785	1.7751e+02	-4.4612	-84.329710	0.000770	7.701284	1.304633	0.000154
1786	1.7761e+02	-4.4418	-84.232819	0.000486	4.863969	0.823979	0.000097
1787	1.7771e+02	-4.4220	-84.055185	0.000892	8.917276	1.510628	0.000179
1788	1.7781e+02	-4.4018	-83.958293	0.000486	4.863969	0.823979	0.000097
1789	1.7791e+02	-4.3816	-83.780659	0.000892	8.917276	1.510628	0.000179
1790	1.7801e+02	-4.3620	-83.671657	0.000547	5.471965	0.926976	0.000110
1791	1.7810e+02	-4.3417	-83.538431	0.000669	6.687957	1.132971	0.000134
1792	1.7820e+02	-4.3225	-83.397132	0.000709	7.093288	1.201636	0.000142
1793	1.7830e+02	-4.3019	-83.280055	0.000588	5.877296	0.995641	0.000118
1794	1.7840e+02	-4.2818	-83.094346	0.000932	9.322607	1.579292	0.000187
1795	1.7850e+02	-4.2627	-82.965158	0.000649	6.485292	1.098638	0.000130
1796	1.7860e+02	-4.2418	-82.844044	0.000608	6.079961	1.029973	0.000122
1797	1.7870e+02	-4.2224	-82.714856	0.000649	6.485292	1.098638	0.000130
1798	1.7880e+02	-4.2026	-82.577593	0.000689	6.890623	1.167303	0.000138
1799	1.7890e+02	-4.1815	-82.416108	0.000811	8.106615	1.373298	0.000162
1800	1.7900e+02	-4.1632	-82.286919	0.000649	6.485292	1.098638	0.000130
1801	1.7910e+02	-4.1426	-82.129471	0.000790	7.903950	1.338965	0.000158
1802	1.7920e+02	-4.1232	-81.996245	0.000669	6.687957	1.132971	0.000134
1803	1.7930e+02	-4.1026	-81.899354	0.000486	4.863969	0.823979	0.000097
1804	1.7940e+02	-4.0839	-81.709609	0.000953	9.525273	1.613625	0.000191
1805	1.7950e+02	-4.0627	-81.624829	0.000426	4.255973	0.720981	0.000085
1806	1.7960e+02	-4.0427	-81.427009	0.000993	9.930603	1.682290	0.000199
1807	1.7970e+02	-4.0231	-81.269561	0.000790	7.903950	1.338965	0.000158
1808	1.7980e+02	-4.0025	-81.156521	0.000567	5.674630	0.961308	0.000114
1809	1.7990e+02	-3.9830	-80.966776	0.000953	9.525273	1.613625	0.000191
1810	1.8000e+02	-3.9636	-80.869885	0.000486	4.863969	0.823979	0.000097
1811	1.8009e+02	-3.9423	-80.756845	0.000567	5.674630	0.961308	0.000114
1812	1.8019e+02	-3.9233	-80.607471	0.000750	7.498619	1.270300	0.000150
1813	1.8029e+02	-3.9030	-80.466171	0.000709	7.093288	1.201636	0.000142
1814	1.8039e+02	-3.8831	-80.324871	0.000709	7.093288	1.201636	0.000142
1815	1.8049e+02	-3.8629	-80.139163	0.000932	9.322607	1.579292	0.000187
1816	1.8059e+02	-3.8432	-80.018049	0.000608	6.079961	1.029973	0.000122
1817	1.8069e+02	-3.8235	-79.872712	0.000730	7.295953	1.235968	0.000146
1818	1.8079e+02	-3.8036	-79.727375	0.000730	7.295953	1.235968	0.000146
1819	1.8089e+02	-3.7842	-79.610298	0.000588	5.877296	0.995641	0.000118
1820	1.8099e+02	-3.7646	-79.460924	0.000750	7.498619	1.270300	0.000150
1821	1.8109e+02	-3.7439	-79.339810	0.000608	6.079961	1.029973	0.000122
1822	1.8119e+02	-3.7234	-79.178325	0.000811	8.106615	1.373298	0.000162
1823	1.8129e+02	-3.7045	-79.012802	0.000831	8.309280	1.407630	0.000166
1824	1.8139e+02	-3.6846	-78.875539	0.000689	6.890623	1.167303	0.000138
1825	1.8149e+02	-3.6641	-78.710017	0.000831	8.309280	1.407630	0.000166
1826	1.8159e+02	-3.6447	-78.576791	0.000669	6.687957	1.132971	0.000134
1827	1.8169e+02	-3.6246	-78.435492	0.000709	7.093288	1.201636	0.000142
1828	1.8179e+02	-3.6047	-78.306303	0.000649	6.485292	1.098638	0.000130
1829	1.8189e+02	-3.5847	-78.189226	0.000588	5.877296	0.995641	0.000118
1830	1.8199e+02	-3.5655	-77.999481	0.000953	9.525273	1.613625	0.000191
1831	1.8209e+02	-3.5463	-77.902590	0.000486	4.863969	0.823979	0.000097
1832	1.8218e+02	-3.5258	-77.733030	0.000851	8.511946	1.441963	0.000170
1833	1.8228e+02	-3.5048	-77.579619	0.000770	7.701284	1.304633	0.000154
1834	1.8238e+02	-3.4854	-77.430245	0.000750	7.498619	1.270300	0.000150
1835	1.8248e+02	-3.4659	-77.288945	0.000709	7.093288	1.201636	0.000142
1836	1.8258e+02	-3.4459	-77.163794	0.000628	6.282627	1.064306	0.000126
1837	1.8268e+02	-3.4259	-76.970011	0.000973	9.727938	1.647957	0.000195
1838	1.8278e+02	-3.4045	-76.852934	0.000588	5.877296	0.995641	0.000118
1839	1.8288e+02	-3.3853	-76.715672	0.000689	6.890623	1.167303	0.000138
1840	1.8298e+02	-3.3662	-76.550149	0.000831	8.309280	1.407630	0.000166
1841	1.8308e+02	-3.3453	-76.392701	0.000790	7.903950	1.338965	0.000158
1842	1.8318e+02	-3.3254	-76.255438	0.000689	6.890623	1.167303	0.000138
1843	1.8328e+02	-3.3054	-76.170659	0.000426	4.255973	0.720981	0.000085
1844	1.8338e+02	-3.2861	-75.944579	0.001135	11.349261	1.922617	0.000227
1845	1.8348e+02	-3.2652	-75.831539	0.000567	5.674630	0.961308	0.000114
1846	1.8358e+02	-3.2455	-75.670054	0.000811	8.106615	1.373298	0.000162
1847	1.8368e+02	-3.2259	-75.552977	0.000588	5.877296	0.995641	0.000118
1848	1.8378e+02	-3.2053	-75.431863	0.000608	6.079961	1.029973	0.000122
1849	1.8388e+02	-3.1860	-75.193672	0.001196	11.957257	2.025614	0.000239
1850	1.8398e+02	-3.1670	-75.084669	0.000547	5.471965	0.926976	0.000110
1851	1.8407e+02	-3.1465	-74.927221	0.000790	7.903950	1.338965	0.000158
1852	1.8417e+02	-3.1260	-74.777847	0.000750	7.498619	1.270300	0.000150
1853	1.8427e+02	-3.1061	-74.612324	0.000831	8.309280	1.407630	0.000166
1854	1.8437e+02	-3.0859	-74.466987	0.000730	7.295953	1.235968	0.000146
1855	1.8447e+02	-3.0664	-74.317613	0.000750	7.498619	1.270300	0.000150
1856	1.8457e+02	-3.0463	-74.160165	0.000790	7.903950	1.338965	0.000158
1857	1.8467e+02	-3.0267	-73.998680	0.000811	8.106615	1.373298	0.000162
1858	1.8477e+02	-3.0074	-73.821046	0.000892	8.917276	1.510628	0.000179
1859	1.8487e+02	-2.9869	-73.663597	0.000790	7.903950	1.338965	0.000158
1860	1.8497e+02	-2.9669	-73.510186	0.000770	7.701284	1.304633	0.000154
1861	1.8507e+02	-2.9462	-73.417332	0.000466	4.661304	0.789646	0.000093
1862	1.8517e+02	-2.9268	-73.255847	0.000811	8.106615	1.373298	0.000162
1863	1.8527e+02	-2.9071	-73.106473	0.000750	7.498619	1.270300	0.000150
1864	1.8537e+02	-2.8873	-72.944987	0.000811	8.106615	1.373298	0.000162
1865	1.8547e+02	-2.8668	-72.819836	0.000628	6.282627	1.064306	0.000126
1866	1.8557e+02	-2.8473	-72.626053	0.000973	9.727938	1.647957	0.000195
1867	1.8567e+02	-2.8265	-72.448419	0.000892	8.917276	1.510628	0.000179
1868	1.8577e+02	-2.8085	-72.383825	0.000324	3.242646	0.549319	0.000065
1869	1.8587e+02	-2.7884	-72.198117	0.000932	9.322607	1.579292	0.000187
1870	1.8597e+02	-2.7674	-72.052780	0.000730	7.295953	1.235968	0.000146
1871	1.8606e+02	-2.7473	-71.858998	0.000973	9.727938	1.647957	0.000195
1872	1.8616e+02	-2.7277	-71.737883	0.000608	6.079961	1.029973	0.000122
1873	1.8626e+02	-2.7077	-71.560250	0.000892	8.917276	1.510628	0.000179
1874	1.8636e+02	-2.6884	-71.394727	0.000831	8.309280	1.407630	0.000166
1875	1.8646e+02	-2.6675	-71.281687	0.000567	5.674630	0.961308	0.000114
1876	1.8656e+02	-2.6479	-71.120202	0.000811	8.106615	1.373298	0.000162
1877	1.8666e+02	-2.6288	-70.946605	0.000871	8.714611	1.476295	0.000174
1878	1.8676e+02	-2.6085	-70.805305	0.000709	7.093288	1.201636	0.000142
1879	1.8686e+02	-2.5876	-70.651894	0.000770	7.701284	1.304633	0.000154
1880	1.8696e+02	-2.5685	-70.542891	0.000547	5.471965	0.926976	0.000110
1881	1.8706e+02	-2.5491	-70.357183	0.000932	9.322607	1.579292	0.000187
1882	1.8716e+02	-2.5288	-70.227995	0.000649	6.485292	1.098638	0.000130
1883	1.8726e+02	-2.5089	-70.018064	0.001054	10.538599	1.785287	0.000211
1884	1.8736e+02	-2.4893	-69.929247	0.000446	4.458638	0.755314	0.000089
1885	1.8746e+02	-2.4689	-69.735464	0.000973	9.727938	1.647957	0.000195
1886	1.8756e+02	-2.4498	-69.586090	0.000750	7.498619	1.270300	0.000150
1887	1.8766e+02	-2.4294	-69.469013	0.000588	5.877296	0.995641	0.000118
1888	1.8776e+02	-2.4103	-69.271194	0.000993	9.930603	1.682290	0.000199
1889	1.8786e+02	-2.3892	-69.137968	0.000669	6.687957	1.132971	0.000134
1890	1.8796e+02	-2.3697	-68.992631	0.000730	7.295953	1.235968	0.000146
1891	1.8806e+02	-2.3499	-68.875554	0.000588	5.877296	0.995641	0.000118
1892	1.8815e+02	-2.3300	-68.697920	0.000892	8.917276	1.510628	0.000179
1893	1.8825e+02	-2.3093	-68.500101	0.000993	9.930603	1.682290	0.000199
1894	1.8835e+02	-2.2897	-68.370912	0.000649	6.485292	1.098638	0.000130
1895	1.8845e+02	-2.2690	-68.221538	0.000750	7.498619	1.270300	0.000150
1896	1.8855e+02	-2.2507	-68.068127	0.000770	7.701284	1.304633	0.000154
1897	1.8865e+02	-2.2298	-67.926827	0.000709	7.093288	1.201636	0.000142
1898	1.8875e+02	-2.2111	-67.753231	0.000871	8.714611	1.476295	0.000174
1899	1.8885e+02	-2.1911	-67.555411	0.000993	9.930603	1.682290	0.000199
1900	1.8895e+02	-2.1707	-67.406037	0.000750	7.498619	1.270300	0.000150
1901	1.8905e+02	-2.1500	-67.284923	0.000608	6.079961	1.029973	0.000122
1902	1.8915e+02	-2.1304	-67.135549	0.000750	7.498619	1.270300	0.000150
1903	1.8925e+02	-2.1105	-66.953878	0.000912	9.119942	1.544960	0.000183
1904	1.8935e+02	-2.0910	-66.788355	0.000831	8.309280	1.407630	0.000166
1905	1.8945e+02	-2.0708	-66.651092	0.000689	6.890623	1.167303	0.000138
1906	1.8955e+02	-2.0514	-66.509793	0.000709	7.093288	1.201636	0.000142
1907	1.8965e+02	-2.0306	-66.324084	0.000932	9.322607	1.579292	0.000187
1908	1.8975e+02	-2.0123	-66.194896	0.000649	6.485292	1.098638	0.000130
1909	1.8985e+02	-1.9904	-66.013225	0.000912	9.119942	1.544960	0.000183
1910	1.8995e+02	-1.9708	-65.855777	0.000790	7.903950	1.338965	0.000158
1911	1.9004e+02	-1.9510	-65.649883	0.001034	10.335934	1.750955	0.000207
1912	1.9014e+02	-1.9315	-65.544917	0.000527	5.269300	0.892644	0.000105
1913	1.9024e+02	-1.9109	-65.379395	0.000831	8.309280	1.407630	0.000166
1914	1.9034e+02	-1.8916	-65.197724	0.000912	9.119942	1.544960	0.000183
1915	1.9044e+02	-1.8726	-65.056424	0.000709	7.093288	1.201636	0.000142
1916	1.9054e+02	-1.8513	-64.882827	0.000871	8.714611	1.476295	0.000174
1917	1.9064e+02	-1.8315	-64.737490	0.000730	7.295953	1.235968	0.000146
1918	1.9074e+02	-1.8124	-64.580042	0.000790	7.903950	1.338965	0.000158
1919	1.9084e+02	-1.7908	-64.426631	0.000770	7.701284	1.304633	0.000154
1920	1.9094e+02	-1.7720	-64.257071	0.000851	8.511946	1.441963	0.000170
1921	1.9104e+02	-1.7514	-64.099623	0.000790	7.903950	1.338965	0.000158
1922	1.9114e+02	-1.7314	-63.901803	0.000993	9.930603	1.682290	0.000199
1923	1.9124e+02	-1.7120	-63.804912	0.000486	4.863969	0.823979	0.000097
1924	1.9134e+02	-1.6926	-63.619204	0.000932	9.322607	1.579292	0.000187
1925	1.9144e+02	-1.6716	-63.441570	0.000892	8.917276	1.510628	0.000179
1926	1.9154e+02	-1.6522	-63.308344	0.000669	6.687957	1.132971	0.000134
1927	1.9164e+02	-1.6324	-63.130710	0.000892	8.917276	1.510628	0.000179
1928	1.9174e+02	-1.6117	-62.965188	0.000831	8.309280	1.407630	0.000166
1929	1.9184e+02	-1.5921	-62.771405	0.000973	9.727938	1.647957	0.000195
1930	1.9194e+02	-1.5726	-62.634142	0.000689	6.890623	1.167303	0.000138
1931	1.9203e+02	-1.5526	-62.436323	0.000993	9.930603	1.682290	0.000199
1932	1.9213e+02	-1.5327	-62.274837	0.000811	8.106615	1.373298	0.000162
1933	1.9223e+02	-1.5122	-62.109315	0.000831	8.309280	1.407630	0.000166
1934	1.9233e+02	-1.4919	-61.992238	0.000588	5.877296	0.995641	0.000118
1935	1.9243e+02	-1.4725	-61.798455	0.000973	9.727938	1.647957	0.000195
1936	1.9253e+02	-1.4532	-61.616784	0.000912	9.119942	1.544960	0.000183
1937	1.9263e+02	-1.4330	-61.487596	0.000649	6.485292	1.098638	0.000130
1938	1.9273e+02	-1.4130	-61.293813	0.000973	9.727938	1.647957	0.000195
1939	1.9283e+02	-1.3931	-61.188848	0.000527	5.269300	0.892644	0.000105
1940	1.9293e+02	-1.3736	-60.999102	0.000953	9.525273	1.613625	0.000191
1941	1.9303e+02	-1.3534	-60.886063	0.000567	5.674630	0.961308	0.000114
1942	1.9313e+02	-1.3341	-60.688243	0.000993	9.930603	1.682290	0.000199
1943	1.9323e+02	-1.3140	-60.514646	0.000871	8.714611	1.476295	0.000174
1944	1.9333e+02	-1.2942	-60.332975	0.000912	9.119942	1.544960	0.000183
1945	1.9343e+02	-1.2734	-60.159378	0.000871	8.714611	1.476295	0.000174
1946	1.9353e+02	-1.2538	-60.010004	0.000750	7.498619	1.270300	0.000150
1947	1.9363e+02	-1.2344	-59.828333	0.000912	9.119942	1.544960	0.000183
1948	1.9373e+02	-1.2139	-59.642625	0.000932	9.322607	1.579292	0.000187
1949	1.9383e+02	-1.1939	-59.545734	0.000486	4.863969	0.823979	0.000097
1950	1.9393e+02	-1.1740	-59.343877	0.001013	10.133269	1.716622	0.000203
1951	1.9403e+02	-1.1539	-59.186428	0.000790	7.903950	1.338965	0.000158
1952	1.9412e+02	-1.1356	-59.000720	0.000932	9.322607	1.579292	0.000187
1953	1.9422e+02	-1.1139	-58.867495	0.000669	6.687957	1.132971	0.000134
1954	1.9432e+02	-1.0947	-58.710046	0.000790	7.903950	1.338965	0.000158
1955	1.9442e+02	-1.0740	-58.540487	0.000851	8.511946	1.441963	0.000170
1956	1.9452e+02	-1.0549	-58.342667	0.000993	9.930603	1.682290	0.000199
1957	1.9462e+02	-1.0354	-58.233664	0.000547	5.471965	0.926976	0.000110
1958	1.9472e+02	-1.0143	-58.035845	0.000993	9.930603	1.682290	0.000199
1959	1.9482e+02	-0.9954	-57.862248	0.000871	8.714611	1.476295	0.000174
1960	1.9492e+02	-0.9754	-57.692688	0.000851	8.511946	1.441963	0.000170
1961	1.9502e+02	-0.9554	-57.523129	0.000851	8.511946	1.441963	0.000170
1962	1.9512e+02	-0.9346	-57.349532	0.000871	8.714611	1.476295	0.000174
1963	1.9522e+02	-0.9153	-57.179972	0.000851	8.511946	1.441963	0.000170
1964	1.9532e+02	-0.8953	-57.042709	0.000689	6.890623	1.167303	0.000138
1965	1.9542e+02	-0.8749	-56.840853	0.001013	10.133269	1.716622	0.000203
1966	1.9552e+02	-0.8557	-56.659182	0.000912	9.119942	1.544960	0.000183
1967	1.9562e+02	-0.8350	-56.437139	0.001115	11.146596	1.888284	0.000223
1968	1.9572e+02	-0.8154	-56.316025	0.000608	6.079961	1.029973	0.000122
1969	1.9582e+02	-0.7947	-56.170688	0.000730	7.295953	1.235968	0.000146
1970	1.9592e+02	-0.7753	-55.989017	0.000912	9.119942	1.544960	0.000183
1971	1.9601e+02	-0.7544	-55.815420	0.000871	8.714611	1.476295	0.000174
1972	1.9611e+02	-0.7355	-55.637786	0.000892	8.917276	1.510628	0.000179
1973	1.9621e+02	-0.7156	-55.456115	0.000912	9.119942	1.544960	0.000183
1974	1.9631e+02	-0.6959	-55.266370	0.000953	9.525273	1.613625	0.000191
1975	1.9641e+02	-0.6763	-55.121033	0.000730	7.295953	1.235968	0.000146
1976	1.9651e+02	-0.6561	-54.955510	0.000831	8.309280	1.407630	0.000166
1977	1.9661e+02	-0.6358	-54.826322	0.000649	6.485292	1.098638	0.000130
1978	1.9671e+02	-0.6161	-54.628502	0.000993	9.930603	1.682290	0.000199
1979	1.9681e+02	-0.5959	-54.450868	0.000892	8.917276	1.510628	0.000179
1980	1.9691e+02	-0.5755	-54.285346	0.000831	8.309280	1.407630	0.000166
1981	1.9701e+02	-0.5563	-54.115786	0.000851	8.511946	1.441963	0.000170
1982	1.9711e+02	-0.5368	-53.934115	0.000912	9.119942	1.544960	0.000183
1983	1.9721e+02	-0.5162	-53.768592	0.000831	8.309280	1.407630	0.000166
1984	1.9731e+02	-0.4959	-53.586921	0.000912	9.119942	1.544960	0.000183
1985	1.9741e+02	-0.4762	-53.429473	0.000790	7.903950	1.338965	0.000158
1986	1.9751e+02	-0.4557	-53.219542	0.001054	10.538599	1.785287	0.000211
1987	1.9761e+02	-0.4372	-53.058056	0.000811	8.106615	1.373298	0.000162
1988	1.9771e+02	-0.4158	-52.900608	0.000790	7.903950	1.338965	0.000158
1989	1.9781e+02	-0.3974	-52.727011	0.000871	8.714611	1.476295	0.000174
1990	1.9791e+02	-0.3769	-52.573600	0.000770	7.701284	1.304633	0.000154
1991	1.9800e+02	-0.3561	-52.371743	0.001013	10.133269	1.716622	0.000203
1992	1.9810e+02	-0.3374	-52.230444	0.000709	7.093288	1.201636	0.000142
1993	1.9820e+02	-0.3173	-52.056847	0.000871	8.714611	1.476295	0.000174
1994	1.9830e+02	-0.2966	-51.875176	0.000912	9.119942	1.544960	0.000183
1995	1.9840e+02	-0.2772	-51.673319	0.001013	10.133269	1.716622	0.000203
1996	1.9850e+02	-0.2578	-51.519908	0.000770	7.701284	1.304633	0.000154
1997	1.9860e+02	-0.2370	-51.394757	0.000628	6.282627	1.064306	0.000126
1998	1.9870e+02	-0.2168	-51.200974	0.000973	9.727938	1.647957	0.000195
1999	1.9880e+02	-0.1974	-51.023340	0.000892	8.917276	1.510628	0.000179
2000	1.9890e+02	-0.1779	-50.869929	0.000770	7.701284	1.304633	0.000154
2001	1.9900e+02	-0.1575	-50.639812	0.001155	11.551926	1.956949	0.000231
2002	1.9910e+02	-0.1359	-50.498512	0.000709	7.093288	1.201636	0.000142
2003	1.9920e+02	-0.1173	-50.324916	0.000871	8.714611	1.476295	0.000174
2004	1.9930e+02	-0.0986	-50.143244	0.000912	9.119942	1.544960	0.000183
2005	1.9940e+02	-0.0784	-49.981759	0.000811	8.106615	1.373298	0.000162
2006	1.9950e+02	-0.0578	-49.812199	0.000851	8.511946	1.441963	0.000170
2007	1.9960e+02	-0.0376	-49.646677	0.000831	8.309280	1.407630	0.000166
2008	1.9970e+02	-0.0173	-49.440783	0.001034	10.335934	1.750955	0.000207
2009	1.9980e+02	0.0008	-49.295446	0.001034	10.335934	1.750955	0.000146

Smooth data before PMax, +/-Pr and +/-Vc Calc.

PMax (uC/cm2):	7.15e+01
Pr (uC/cm2):	6.71e+00
-Pr (uC/cm2):	-8.19e+01
PLoss (uC/cm2):	-8.20e+01
-Vc:	-7.82e-01
C (Max-Eff) (nF):	7.15e-01
K (Eff):	1.21e+03
Vert. (+/-Pr) Shift (uC/cm2):	-3.76e+01
Offset (uC/cm2):	-3.26e+01

A (Loop Area - uC/cm2·Volts):	-3.57e-01



Hysteresis Version: 5.48.1 - Radiant Technologies, Inc., 1999 - 9/12/24

