»»»»»»»»»»»»»»»»»»»»»»»»»»»»»»»»»»»» Hysteresis ««««««««««««««««««««««««««««««««««««
»»»  Executed Version:	5.48.1
»»»  Vision Version:	5.48.4 (R)
»»»  Vision Compiled:	9/18/24
»»»  Driver Version:	5.47.0
»»»  Windows Version:	Windows 8 or 8.1
»»»  Processor Information:	x86 (AMD or Intel) - 32 Processors
»»»  Tester Name:	PMF21124-494 (100V)
»»»  Tester S/N:	PMF21124-494
»»»  Internal Amp Type:	100V RevK 270k
»»»  Internal Amp S/N:	iAB2-596/K     
»»»  Execution Count:	1
»»»»»»»»»»»»»»»»»»»»»»»»»»»»»»»»»»»»»»»»»»««««««««««««««««««««««««««««««««««««««««««

Stored:	7/8/2025 - 15:21:21
Configured:	07/08/25 02:50:47 PM
Executed:	07/08/25 03:17:14 PM

»»»»»»»»»»»»»»»»»»»»»»»»»»»»»»»»»»» Sample Info ««««««««««««««««««««««««««««««««««««
Sample Name:	
Lot Name:	
Wafer Name:	
Die Row/Column:	0/0
Capacitor Number:	0
Sample Area (cm2):	1.00e-04
Sample Thickness (microns):	1.50e-01

Amplifier:	Internal

»»»»»»»»»»»»»»»»»»»»»»»»»»»»»»»»»»» Tester Info «««««««««««««««««««««««««««««««««««
Tester Name:	PMF21124-494 (100V)
Tester Serial Number:	PMF21124-494
Return Signal Amp. Level:	0.19 [Index: 3]

»»»»»»»»»»»»»»»»»»»»»»»»»»»»»»»» Hysteresis Info ««««««««««««««««««««««««««««««««««
Task Name:	Hyst-724
Volts:	10.00
Field:	666.67 (kV/cm)
DCBias:	0.00
DCField:	0.00 (kV/cm)
Hysteresis Period (ms):	1.00e+00
Preset:	Enabled
Preset Delay (ms):	1.00e+03
Profile:	Standard Bipolar

»»»»»»»»»»»»»»»»»»»»»»»»»»»»»»»»»»»»»» Data «««««««««««««««««««««««««««««««««««««««
Points:	2001

Valid Data

Point	Time (ms)	Drive Voltage	Measured Polarization (uC/cm2)	Capacitance (uF)	Normalized Capacitance (uF/cm2)	Dielectric Constant	Instantaneous Current (mA)
   1	0.0000e+00	0.0002	5.720950	0.000444	4.442374	0.752558	0.017746
   2	5.0000e-04	0.0120	5.809679	0.000444	4.442374	0.752558	0.017746
   3	1.0000e-03	0.0287	5.962936	0.000767	7.673191	1.299874	0.030652
   4	1.5000e-03	0.0480	6.128293	0.000828	8.278969	1.402495	0.033071
   5	2.0000e-03	0.0681	6.289617	0.000808	8.077043	1.368288	0.032265
   6	2.5000e-03	0.0880	6.467074	0.000888	8.884747	1.505117	0.035491
   7	3.0000e-03	0.1083	6.656629	0.000949	9.490525	1.607739	0.037911
   8	3.5000e-03	0.1273	6.789721	0.000666	6.663560	1.128838	0.026618
   9	4.0000e-03	0.1491	7.015575	0.001131	11.307860	1.915603	0.045171
  10	4.5000e-03	0.1674	7.140601	0.000626	6.259708	1.060423	0.025005
  11	5.0000e-03	0.1880	7.398719	0.001292	12.923269	2.189261	0.051624
  12	5.5000e-03	0.2087	7.507613	0.000545	5.452004	0.923594	0.021779
  13	6.0000e-03	0.2288	7.640705	0.000666	6.663560	1.128838	0.026618
  14	6.5000e-03	0.2477	7.963353	0.001615	16.154086	2.736576	0.064530
  15	7.0000e-03	0.2683	8.080313	0.000586	5.855856	0.992009	0.023392
  16	7.5000e-03	0.2881	8.233571	0.000767	7.673191	1.299874	0.030652
  17	8.0000e-03	0.3088	8.455391	0.001111	11.105934	1.881396	0.044364
  18	8.5000e-03	0.3275	8.624781	0.000848	8.480895	1.436703	0.033878
  19	9.0000e-03	0.3484	8.778039	0.000767	7.673191	1.299874	0.030652
  20	9.5000e-03	0.3680	8.991793	0.001070	10.702082	1.812982	0.042751
  21	1.0000e-02	0.3883	9.177316	0.000929	9.288599	1.573531	0.037105
  22	1.0500e-02	0.4079	9.354772	0.000888	8.884747	1.505117	0.035491
  23	1.1000e-02	0.4289	9.508030	0.000767	7.673191	1.299874	0.030652
  24	1.1500e-02	0.4483	9.689519	0.000909	9.086673	1.539324	0.036298
  25	1.2000e-02	0.4683	9.822612	0.000666	6.663560	1.128838	0.026618
  26	1.2500e-02	0.4883	10.028300	0.001030	10.298230	1.744567	0.041138
  27	1.3000e-02	0.5074	10.185591	0.000788	7.875117	1.334081	0.031458
  28	1.3500e-02	0.5284	10.395312	0.001050	10.500156	1.778775	0.041944
  29	1.4000e-02	0.5476	10.568735	0.000868	8.682821	1.470910	0.034685
  30	1.4500e-02	0.5691	10.730059	0.000808	8.077043	1.368288	0.032265
  31	1.5000e-02	0.5881	10.927681	0.000989	9.894377	1.676153	0.039524
  32	1.5500e-02	0.6084	11.121269	0.000969	9.692451	1.641946	0.038718
  33	1.6000e-02	0.6293	11.302759	0.000909	9.086673	1.539324	0.036298
  34	1.6500e-02	0.6489	11.411652	0.000545	5.452004	0.923594	0.021779
  35	1.7000e-02	0.6687	11.681870	0.001353	13.529047	2.291883	0.054044
  36	1.7500e-02	0.6888	11.839161	0.000788	7.875117	1.334081	0.031458
  37	1.8000e-02	0.7087	11.996452	0.000788	7.875117	1.334081	0.031458
  38	1.8500e-02	0.7281	12.181974	0.000929	9.288599	1.573531	0.037105
  39	1.9000e-02	0.7481	12.347331	0.000828	8.278969	1.402495	0.033071
  40	1.9500e-02	0.7686	12.540920	0.000969	9.692451	1.641946	0.038718
  41	2.0000e-02	0.7881	12.758707	0.001090	10.904008	1.847189	0.043557
  42	2.0500e-02	0.8089	12.859535	0.000505	5.048152	0.855180	0.020165
  43	2.1000e-02	0.8288	13.077322	0.001090	10.904008	1.847189	0.043557
  44	2.1500e-02	0.8488	13.278977	0.001010	10.096304	1.710360	0.040331
  45	2.2000e-02	0.8690	13.480632	0.001010	10.096304	1.710360	0.040331
  46	2.2500e-02	0.8887	13.629857	0.000747	7.471265	1.265666	0.029845
  47	2.3000e-02	0.9093	13.787148	0.000788	7.875117	1.334081	0.031458
  48	2.3500e-02	0.9284	14.000902	0.001070	10.702082	1.812982	0.042751
  49	2.4000e-02	0.9485	14.162226	0.000808	8.077043	1.368288	0.032265
  50	2.4500e-02	0.9688	14.384046	0.001111	11.105934	1.881396	0.044364
  51	2.5000e-02	0.9888	14.533271	0.000747	7.471265	1.265666	0.029845
  52	2.5500e-02	1.0086	14.646198	0.000565	5.653930	0.957802	0.022585
  53	2.6000e-02	1.0287	14.928514	0.001413	14.134825	2.394504	0.056463
  54	2.6500e-02	1.0484	15.085805	0.000788	7.875117	1.334081	0.031458
  55	2.7000e-02	1.0692	15.271328	0.000929	9.288599	1.573531	0.037105
  56	2.7500e-02	1.0881	15.432652	0.000808	8.077043	1.368288	0.032265
  57	2.8000e-02	1.1085	15.598009	0.000828	8.278969	1.402495	0.033071
  58	2.8500e-02	1.1284	15.831929	0.001171	11.711712	1.984018	0.046784
  59	2.9000e-02	1.1483	16.017451	0.000929	9.288599	1.573531	0.037105
  60	2.9500e-02	1.1687	16.178775	0.000808	8.077043	1.368288	0.032265
  61	3.0000e-02	1.1884	16.340099	0.000808	8.077043	1.368288	0.032265
  62	3.0500e-02	1.2097	16.561919	0.001111	11.105934	1.881396	0.044364
  63	3.1000e-02	1.2283	16.723243	0.000808	8.077043	1.368288	0.032265
  64	3.1500e-02	1.2495	16.916832	0.000969	9.692451	1.641946	0.038718
  65	3.2000e-02	1.2698	17.187050	0.001353	13.529047	2.291883	0.054044
  66	3.2500e-02	1.2880	17.267712	0.000404	4.038521	0.684144	0.016132
  67	3.3000e-02	1.3080	17.469367	0.001010	10.096304	1.710360	0.040331
  68	3.3500e-02	1.3290	17.646823	0.000888	8.884747	1.505117	0.035491
  69	3.4000e-02	1.3488	17.804114	0.000788	7.875117	1.334081	0.031458
  70	3.4500e-02	1.3677	18.001736	0.000989	9.894377	1.676153	0.039524
  71	3.5000e-02	1.3882	18.171126	0.000848	8.480895	1.436703	0.033878
  72	3.5500e-02	1.4079	18.388913	0.001090	10.904008	1.847189	0.043557
  73	3.6000e-02	1.4282	18.558303	0.000848	8.480895	1.436703	0.033878
  74	3.6500e-02	1.4481	18.743826	0.000929	9.288599	1.573531	0.037105
  75	3.7000e-02	1.4681	18.901117	0.000788	7.875117	1.334081	0.031458
  76	3.7500e-02	1.4887	19.062441	0.000808	8.077043	1.368288	0.032265
  77	3.8000e-02	1.5083	19.304426	0.001212	12.115564	2.052432	0.048397
  78	3.8500e-02	1.5283	19.465750	0.000808	8.077043	1.368288	0.032265
  79	3.9000e-02	1.5482	19.663372	0.000989	9.894377	1.676153	0.039524
  80	3.9500e-02	1.5680	19.812597	0.000747	7.471265	1.265666	0.029845
  81	4.0000e-02	1.5883	20.006186	0.000969	9.692451	1.641946	0.038718
  82	4.0500e-02	1.6080	20.223973	0.001090	10.904008	1.847189	0.043557
  83	4.1000e-02	1.6275	20.409495	0.000929	9.288599	1.573531	0.037105
  84	4.1500e-02	1.6479	20.562753	0.000767	7.673191	1.299874	0.030652
  85	4.2000e-02	1.6690	20.816838	0.001272	12.721342	2.155054	0.050817
  86	4.2500e-02	1.6888	20.945898	0.000646	6.461634	1.094630	0.025812
  87	4.3000e-02	1.7083	21.175784	0.001151	11.509786	1.949811	0.045977
  88	4.3500e-02	1.7284	21.256446	0.000404	4.038521	0.684144	0.016132
  89	4.4000e-02	1.7493	21.522631	0.001333	13.327121	2.257675	0.053237
  90	4.4500e-02	1.7694	21.760584	0.001191	11.913638	2.018225	0.047591
  91	4.5000e-02	1.7885	21.853345	0.000464	4.644300	0.786766	0.018552
  92	4.5500e-02	1.8091	22.143728	0.001454	14.538677	2.462919	0.058077
  93	4.6000e-02	1.8283	22.276820	0.000666	6.663560	1.128838	0.026618
  94	4.6500e-02	1.8481	22.438144	0.000808	8.077043	1.368288	0.032265
  95	4.7000e-02	1.8681	22.571236	0.000666	6.663560	1.128838	0.026618
  96	4.7500e-02	1.8890	22.905984	0.001676	16.759864	2.839198	0.066949
  97	4.8000e-02	1.9080	22.998745	0.000464	4.644300	0.786766	0.018552
  98	4.8500e-02	1.9279	23.248797	0.001252	12.519416	2.120847	0.050010
  99	4.9000e-02	1.9487	23.385922	0.000687	6.865486	1.163045	0.027425
 100	4.9500e-02	1.9684	23.591610	0.001030	10.298230	1.744567	0.041138
 101	5.0000e-02	1.9875	23.781166	0.000949	9.490525	1.607739	0.037911
 102	5.0500e-02	2.0081	23.962655	0.000909	9.086673	1.539324	0.036298
 103	5.1000e-02	2.0294	24.160277	0.000989	9.894377	1.676153	0.039524
 104	5.1500e-02	2.0483	24.374031	0.001070	10.702082	1.812982	0.042751
 105	5.2000e-02	2.0697	24.539388	0.000828	8.278969	1.402495	0.033071
 106	5.2500e-02	2.0887	24.684580	0.000727	7.269339	1.231459	0.029038
 107	5.3000e-02	2.1086	24.906400	0.001111	11.105934	1.881396	0.044364
 108	5.3500e-02	2.1281	25.099989	0.000969	9.692451	1.641946	0.038718
 109	5.4000e-02	2.1494	25.277445	0.000888	8.884747	1.505117	0.035491
 110	5.4500e-02	2.1686	25.467001	0.000949	9.490525	1.607739	0.037911
 111	5.5000e-02	2.1884	25.628325	0.000808	8.077043	1.368288	0.032265
 112	5.5500e-02	2.2089	25.813848	0.000929	9.288599	1.573531	0.037105
 113	5.6000e-02	2.2278	26.011469	0.000989	9.894377	1.676153	0.039524
 114	5.6500e-02	2.2481	26.196992	0.000929	9.288599	1.573531	0.037105
 115	5.7000e-02	2.2686	26.398647	0.001010	10.096304	1.710360	0.040331
 116	5.7500e-02	2.2894	26.600302	0.001010	10.096304	1.710360	0.040331
 117	5.8000e-02	2.3087	26.789857	0.000949	9.490525	1.607739	0.037911
 118	5.8500e-02	2.3282	26.979413	0.000949	9.490525	1.607739	0.037911
 119	5.9000e-02	2.3479	27.160903	0.000909	9.086673	1.539324	0.036298
 120	5.9500e-02	2.3692	27.306094	0.000727	7.269339	1.231459	0.029038
 121	6.0000e-02	2.3892	27.552113	0.001232	12.317490	2.086639	0.049204
 122	6.0500e-02	2.4088	27.749735	0.000989	9.894377	1.676153	0.039524
 123	6.1000e-02	2.4284	27.886860	0.000687	6.865486	1.163045	0.027425
 124	6.1500e-02	2.4487	27.999787	0.000565	5.653930	0.957802	0.022585
 125	6.2000e-02	2.4690	28.233707	0.001171	11.711712	1.984018	0.046784
 126	6.2500e-02	2.4884	28.447461	0.001070	10.702082	1.812982	0.042751
 127	6.3000e-02	2.5079	28.641050	0.000969	9.692451	1.641946	0.038718
 128	6.3500e-02	2.5287	28.895135	0.001272	12.721342	2.155054	0.050817
 129	6.4000e-02	2.5479	29.044360	0.000747	7.471265	1.265666	0.029845
 130	6.4500e-02	2.5690	29.205684	0.000808	8.077043	1.368288	0.032265
 131	6.5000e-02	2.5886	29.395239	0.000949	9.490525	1.607739	0.037911
 132	6.5500e-02	2.6082	29.588828	0.000969	9.692451	1.641946	0.038718
 133	6.6000e-02	2.6278	29.802582	0.001070	10.702082	1.812982	0.042751
 134	6.6500e-02	2.6485	30.044568	0.001212	12.115564	2.052432	0.048397
 135	6.7000e-02	2.6678	30.161528	0.000586	5.855856	0.992009	0.023392
 136	6.7500e-02	2.6889	30.330918	0.000848	8.480895	1.436703	0.033878
 137	6.8000e-02	2.7090	30.609202	0.001393	13.932899	2.360297	0.055657
 138	6.8500e-02	2.7285	30.758426	0.000747	7.471265	1.265666	0.029845
 139	6.9000e-02	2.7482	30.947982	0.000949	9.490525	1.607739	0.037911
 140	6.9500e-02	2.7679	31.097207	0.000747	7.471265	1.265666	0.029845
 141	7.0000e-02	2.7881	31.359358	0.001313	13.125195	2.223468	0.052430
 142	7.0500e-02	2.8085	31.496484	0.000687	6.865486	1.163045	0.027425
 143	7.1000e-02	2.8291	31.682006	0.000929	9.288599	1.573531	0.037105
 144	7.1500e-02	2.8488	31.883661	0.001010	10.096304	1.710360	0.040331
 145	7.2000e-02	2.8688	32.069184	0.000929	9.288599	1.573531	0.037105
 146	7.2500e-02	2.8882	32.274872	0.001030	10.298230	1.744567	0.041138
 147	7.3000e-02	2.9086	32.460394	0.000929	9.288599	1.573531	0.037105
 148	7.3500e-02	2.9288	32.658016	0.000989	9.894377	1.676153	0.039524
 149	7.4000e-02	2.9486	32.819340	0.000808	8.077043	1.368288	0.032265
 150	7.4500e-02	2.9688	33.000829	0.000909	9.086673	1.539324	0.036298
 151	7.5000e-02	2.9886	33.202484	0.001010	10.096304	1.710360	0.040331
 152	7.5500e-02	3.0075	33.424305	0.001111	11.105934	1.881396	0.044364
 153	7.6000e-02	3.0281	33.569496	0.000727	7.269339	1.231459	0.029038
 154	7.6500e-02	3.0484	33.750986	0.000909	9.086673	1.539324	0.036298
 155	7.7000e-02	3.0698	33.976839	0.001131	11.307860	1.915603	0.045171
 156	7.7500e-02	3.0893	34.146229	0.000848	8.480895	1.436703	0.033878
 157	7.8000e-02	3.1088	34.335785	0.000949	9.490525	1.607739	0.037911
 158	7.8500e-02	3.1290	34.533407	0.000989	9.894377	1.676153	0.039524
 159	7.9000e-02	3.1495	34.775393	0.001212	12.115564	2.052432	0.048397
 160	7.9500e-02	3.1677	34.852022	0.000384	3.836595	0.649937	0.015326
 161	8.0000e-02	3.1879	35.102074	0.001252	12.519416	2.120847	0.050010
 162	8.0500e-02	3.2080	35.315828	0.001070	10.702082	1.812982	0.042751
 163	8.1000e-02	3.2288	35.473119	0.000788	7.875117	1.334081	0.031458
 164	8.1500e-02	3.2484	35.682840	0.001050	10.500156	1.778775	0.041944
 165	8.2000e-02	3.2697	35.844164	0.000808	8.077043	1.368288	0.032265
 166	8.2500e-02	3.2887	36.021620	0.000888	8.884747	1.505117	0.035491
 167	8.3000e-02	3.3090	36.227308	0.001030	10.298230	1.744567	0.041138
 168	8.3500e-02	3.3290	36.416864	0.000949	9.490525	1.607739	0.037911
 169	8.4000e-02	3.3481	36.618519	0.001010	10.096304	1.710360	0.040331
 170	8.4500e-02	3.3685	36.804041	0.000929	9.288599	1.573531	0.037105
 171	8.5000e-02	3.3893	36.925034	0.000606	6.057782	1.026216	0.024199
 172	8.5500e-02	3.4088	37.118623	0.000969	9.692451	1.641946	0.038718
 173	8.6000e-02	3.4287	37.312212	0.000969	9.692451	1.641946	0.038718
 174	8.6500e-02	3.4485	37.534032	0.001111	11.105934	1.881396	0.044364
 175	8.7000e-02	3.4680	37.715522	0.000909	9.086673	1.539324	0.036298
 176	8.7500e-02	3.4888	37.897011	0.000909	9.086673	1.539324	0.036298
 177	8.8000e-02	3.5089	38.050269	0.000767	7.673191	1.299874	0.030652
 178	8.8500e-02	3.5286	38.276122	0.001131	11.307860	1.915603	0.045171
 179	8.9000e-02	3.5495	38.469711	0.000969	9.692451	1.641946	0.038718
 180	8.9500e-02	3.5684	38.663300	0.000969	9.692451	1.641946	0.038718
 181	9.0000e-02	3.5889	38.828657	0.000828	8.278969	1.402495	0.033071
 182	9.0500e-02	3.6085	39.030312	0.001010	10.096304	1.710360	0.040331
 183	9.1000e-02	3.6292	39.143238	0.000565	5.653930	0.957802	0.022585
 184	9.1500e-02	3.6481	39.361026	0.001090	10.904008	1.847189	0.043557
 185	9.2000e-02	3.6694	39.538482	0.000888	8.884747	1.505117	0.035491
 186	9.2500e-02	3.6887	39.740137	0.001010	10.096304	1.710360	0.040331
 187	9.3000e-02	3.7093	39.917593	0.000888	8.884747	1.505117	0.035491
 188	9.3500e-02	3.7292	40.123281	0.001030	10.298230	1.744567	0.041138
 189	9.4000e-02	3.7498	40.296705	0.000868	8.682821	1.470910	0.034685
 190	9.4500e-02	3.7689	40.462062	0.000828	8.278969	1.402495	0.033071
 191	9.5000e-02	3.7900	40.700015	0.001191	11.913638	2.018225	0.047591
 192	9.5500e-02	3.8089	40.865372	0.000828	8.278969	1.402495	0.033071
 193	9.6000e-02	3.8284	41.030729	0.000828	8.278969	1.402495	0.033071
 194	9.6500e-02	3.8478	41.224317	0.000969	9.692451	1.641946	0.038718
 195	9.7000e-02	3.8684	41.353377	0.000646	6.461634	1.094630	0.025812
 196	9.7500e-02	3.8885	41.623594	0.001353	13.529047	2.291883	0.054044
 197	9.8000e-02	3.9087	41.744587	0.000606	6.057782	1.026216	0.024199
 198	9.8500e-02	3.9282	41.970441	0.001131	11.307860	1.915603	0.045171
 199	9.9000e-02	3.9496	42.143864	0.000868	8.682821	1.470910	0.034685
 200	9.9500e-02	3.9684	42.325353	0.000909	9.086673	1.539324	0.036298
 201	1.0000e-01	3.9896	42.486677	0.000808	8.077043	1.368288	0.032265
 202	1.0050e-01	4.0091	42.648001	0.000808	8.077043	1.368288	0.032265
 203	1.0100e-01	4.0293	42.898053	0.001252	12.519416	2.120847	0.050010
 204	1.0150e-01	4.0486	43.091642	0.000969	9.692451	1.641946	0.038718
 205	1.0200e-01	4.0692	43.248933	0.000788	7.875117	1.334081	0.031458
 206	1.0250e-01	4.0884	43.430422	0.000909	9.086673	1.539324	0.036298
 207	1.0300e-01	4.1089	43.567548	0.000687	6.865486	1.163045	0.027425
 208	1.0350e-01	4.1293	43.785335	0.001090	10.904008	1.847189	0.043557
 209	1.0400e-01	4.1493	44.019255	0.001171	11.711712	1.984018	0.046784
 210	1.0450e-01	4.1684	44.136215	0.000586	5.855856	0.992009	0.023392
 211	1.0500e-01	4.1888	44.293505	0.000788	7.875117	1.334081	0.031458
 212	1.0550e-01	4.2085	44.499193	0.001030	10.298230	1.744567	0.041138
 213	1.0600e-01	4.2288	44.579855	0.000404	4.038521	0.684144	0.016132
 214	1.0650e-01	4.2494	44.862172	0.001413	14.134825	2.394504	0.056463
 215	1.0700e-01	4.2691	45.055761	0.000969	9.692451	1.641946	0.038718
 216	1.0750e-01	4.2883	45.229184	0.000868	8.682821	1.470910	0.034685
 217	1.0800e-01	4.3091	45.406641	0.000888	8.884747	1.505117	0.035491
 218	1.0850e-01	4.3292	45.604262	0.000989	9.894377	1.676153	0.039524
 219	1.0900e-01	4.3494	45.757520	0.000767	7.673191	1.299874	0.030652
 220	1.0950e-01	4.3695	45.943043	0.000929	9.288599	1.573531	0.037105
 221	1.1000e-01	4.3893	46.140665	0.000989	9.894377	1.676153	0.039524
 222	1.1050e-01	4.4087	46.326187	0.000929	9.288599	1.573531	0.037105
 223	1.1100e-01	4.4290	46.495577	0.000848	8.480895	1.436703	0.033878
 224	1.1150e-01	4.4489	46.652868	0.000788	7.875117	1.334081	0.031458
 225	1.1200e-01	4.4693	46.874689	0.001111	11.105934	1.881396	0.044364
 226	1.1250e-01	4.4891	46.983582	0.000545	5.452004	0.923594	0.021779
 227	1.1300e-01	4.5096	47.217502	0.001171	11.711712	1.984018	0.046784
 228	1.1350e-01	4.5297	47.386892	0.000848	8.480895	1.436703	0.033878
 229	1.1400e-01	4.5490	47.524017	0.000687	6.865486	1.163045	0.027425
 230	1.1450e-01	4.5697	47.749871	0.001131	11.307860	1.915603	0.045171
 231	1.1500e-01	4.5892	47.935393	0.000929	9.288599	1.573531	0.037105
 232	1.1550e-01	4.6095	48.096717	0.000808	8.077043	1.368288	0.032265
 233	1.1600e-01	4.6295	48.274174	0.000888	8.884747	1.505117	0.035491
 234	1.1650e-01	4.6500	48.427431	0.000767	7.673191	1.299874	0.030652
 235	1.1700e-01	4.6689	48.596822	0.000848	8.480895	1.436703	0.033878
 236	1.1750e-01	4.6896	48.794443	0.000989	9.894377	1.676153	0.039524
 237	1.1800e-01	4.7089	48.955767	0.000808	8.077043	1.368288	0.032265
 238	1.1850e-01	4.7284	49.189687	0.001171	11.711712	1.984018	0.046784
 239	1.1900e-01	4.7489	49.334879	0.000727	7.269339	1.231459	0.029038
 240	1.1950e-01	4.7694	49.500236	0.000828	8.278969	1.402495	0.033071
 241	1.2000e-01	4.7900	49.621229	0.000606	6.057782	1.026216	0.024199
 242	1.2050e-01	4.8093	49.818850	0.000989	9.894377	1.676153	0.039524
 243	1.2100e-01	4.8291	50.024539	0.001030	10.298230	1.744567	0.041138
 244	1.2150e-01	4.8495	50.157631	0.000666	6.663560	1.128838	0.026618
 245	1.2200e-01	4.8694	50.403650	0.001232	12.317490	2.086639	0.049204
 246	1.2250e-01	4.8895	50.508510	0.000525	5.250078	0.889387	0.020972
 247	1.2300e-01	4.9091	50.726298	0.001090	10.904008	1.847189	0.043557
 248	1.2350e-01	4.9292	50.863423	0.000687	6.865486	1.163045	0.027425
 249	1.2400e-01	4.9506	51.069111	0.001030	10.298230	1.744567	0.041138
 250	1.2450e-01	4.9701	51.202203	0.000666	6.663560	1.128838	0.026618
 251	1.2500e-01	4.9893	51.383693	0.000909	9.086673	1.539324	0.036298
 252	1.2550e-01	5.0092	51.573248	0.000949	9.490525	1.607739	0.037911
 253	1.2600e-01	5.0296	51.774903	0.001010	10.096304	1.710360	0.040331
 254	1.2650e-01	5.0504	52.004790	0.001151	11.509786	1.949811	0.045977
 255	1.2700e-01	5.0688	52.085452	0.000404	4.038521	0.684144	0.016132
 256	1.2750e-01	5.0885	52.214511	0.000646	6.461634	1.094630	0.025812
 257	1.2800e-01	5.1099	52.412133	0.000989	9.894377	1.676153	0.039524
 258	1.2850e-01	5.1299	52.593622	0.000909	9.086673	1.539324	0.036298
 259	1.2900e-01	5.1492	52.754946	0.000808	8.077043	1.368288	0.032265
 260	1.2950e-01	5.1689	52.948535	0.000969	9.692451	1.641946	0.038718
 261	1.3000e-01	5.1895	53.053396	0.000525	5.250078	0.889387	0.020972
 262	1.3050e-01	5.2094	53.319580	0.001333	13.327121	2.257675	0.053237
 263	1.3100e-01	5.2295	53.460739	0.000707	7.067412	1.197252	0.028232
 264	1.3150e-01	5.2490	53.843883	0.001918	19.182977	3.249684	0.076629
 265	1.3200e-01	5.2698	53.884214	0.000202	2.019261	0.342072	0.008066
 266	1.3250e-01	5.2887	53.989074	0.000525	5.250078	0.889387	0.020972
 267	1.3300e-01	5.3101	54.222994	0.001171	11.711712	1.984018	0.046784
 268	1.3350e-01	5.3290	54.396417	0.000868	8.682821	1.470910	0.034685
 269	1.3400e-01	5.3497	54.489179	0.000464	4.644300	0.786766	0.018552
 270	1.3450e-01	5.3693	54.698900	0.001050	10.500156	1.778775	0.041944
 271	1.3500e-01	5.3889	54.864257	0.000828	8.278969	1.402495	0.033071
 272	1.3550e-01	5.4091	55.033647	0.000848	8.480895	1.436703	0.033878
 273	1.3600e-01	5.4297	55.178839	0.000727	7.269339	1.231459	0.029038
 274	1.3650e-01	5.4492	55.356295	0.000888	8.884747	1.505117	0.035491
 275	1.3700e-01	5.4691	55.489387	0.000666	6.663560	1.128838	0.026618
 276	1.3750e-01	5.4895	55.699108	0.001050	10.500156	1.778775	0.041944
 277	1.3800e-01	5.5098	55.844300	0.000727	7.269339	1.231459	0.029038
 278	1.3850e-01	5.5293	55.985458	0.000707	7.067412	1.197252	0.028232
 279	1.3900e-01	5.5501	56.166948	0.000909	9.086673	1.539324	0.036298
 280	1.3950e-01	5.5701	56.356503	0.000949	9.490525	1.607739	0.037911
 281	1.4000e-01	5.5908	56.493629	0.000687	6.865486	1.163045	0.027425
 282	1.4050e-01	5.6096	56.634787	0.000707	7.067412	1.197252	0.028232
 283	1.4100e-01	5.6300	56.860641	0.001131	11.307860	1.915603	0.045171
 284	1.4150e-01	5.6506	57.034064	0.000868	8.682821	1.470910	0.034685
 285	1.4200e-01	5.6705	57.155057	0.000606	6.057782	1.026216	0.024199
 286	1.4250e-01	5.6891	57.296215	0.000707	7.067412	1.197252	0.028232
 287	1.4300e-01	5.7098	57.493837	0.000989	9.894377	1.676153	0.039524
 288	1.4350e-01	5.7294	57.667260	0.000868	8.682821	1.470910	0.034685
 289	1.4400e-01	5.7498	57.816485	0.000747	7.471265	1.265666	0.029845
 290	1.4450e-01	5.7690	58.022173	0.001030	10.298230	1.744567	0.041138
 291	1.4500e-01	5.7886	58.179464	0.000788	7.875117	1.334081	0.031458
 292	1.4550e-01	5.8099	58.381119	0.001010	10.096304	1.710360	0.040331
 293	1.4600e-01	5.8301	58.465814	0.000424	4.240447	0.718351	0.016939
 294	1.4650e-01	5.8490	58.631171	0.000828	8.278969	1.402495	0.033071
 295	1.4700e-01	5.8716	59.135308	0.002524	25.240759	4.275900	0.100827
 296	1.4750e-01	5.8887	58.949786	-0.000929	-9.288599	-1.573531	-0.037105
 297	1.4800e-01	5.9106	59.187739	0.001191	11.913638	2.018225	0.047591
 298	1.4850e-01	5.9299	59.320831	0.000666	6.663560	1.128838	0.026618
 299	1.4900e-01	5.9500	59.534585	0.001070	10.702082	1.812982	0.042751
 300	1.4950e-01	5.9695	59.623313	0.000444	4.442374	0.752558	0.017746
 301	1.5000e-01	5.9900	59.800770	0.000888	8.884747	1.505117	0.035491
 302	1.5050e-01	6.0098	59.962093	0.000808	8.077043	1.368288	0.032265
 303	1.5100e-01	6.0292	60.123417	0.000808	8.077043	1.368288	0.032265
 304	1.5150e-01	6.0498	60.308940	0.000929	9.288599	1.573531	0.037105
 305	1.5200e-01	6.0687	60.470264	0.000808	8.077043	1.368288	0.032265
 306	1.5250e-01	6.0895	60.595290	0.000626	6.259708	1.060423	0.025005
 307	1.5300e-01	6.1096	60.780812	0.000929	9.288599	1.573531	0.037105
 308	1.5350e-01	6.1298	60.926004	0.000727	7.269339	1.231459	0.029038
 309	1.5400e-01	6.1499	61.071196	0.000727	7.269339	1.231459	0.029038
 310	1.5450e-01	6.1694	61.301082	0.001151	11.509786	1.949811	0.045977
 311	1.5500e-01	6.1902	61.409976	0.000545	5.452004	0.923594	0.021779
 312	1.5550e-01	6.2105	61.619697	0.001050	10.500156	1.778775	0.041944
 313	1.5600e-01	6.2299	61.764889	0.000727	7.269339	1.231459	0.029038
 314	1.5650e-01	6.2500	61.934279	0.000848	8.480895	1.436703	0.033878
 315	1.5700e-01	6.2695	62.059305	0.000626	6.259708	1.060423	0.025005
 316	1.5750e-01	6.2897	62.220629	0.000808	8.077043	1.368288	0.032265
 317	1.5800e-01	6.3100	62.438416	0.001090	10.904008	1.847189	0.043557
 318	1.5850e-01	6.3293	62.579574	0.000707	7.067412	1.197252	0.028232
 319	1.5900e-01	6.3495	62.748965	0.000848	8.480895	1.436703	0.033878
 320	1.5950e-01	6.3689	62.886090	0.000687	6.865486	1.163045	0.027425
 321	1.6000e-01	6.3895	63.015149	0.000646	6.461634	1.094630	0.025812
 322	1.6050e-01	6.4087	63.200672	0.000929	9.288599	1.573531	0.037105
 323	1.6100e-01	6.4288	63.382161	0.000909	9.086673	1.539324	0.036298
 324	1.6150e-01	6.4496	63.495088	0.000565	5.653930	0.957802	0.022585
 325	1.6200e-01	6.4685	63.680610	0.000929	9.288599	1.573531	0.037105
 326	1.6250e-01	6.4893	63.841934	0.000808	8.077043	1.368288	0.032265
 327	1.6300e-01	6.5088	63.995192	0.000767	7.673191	1.299874	0.030652
 328	1.6350e-01	6.5289	64.087953	0.000464	4.644300	0.786766	0.018552
 329	1.6400e-01	6.5491	64.321873	0.001171	11.711712	1.984018	0.046784
 330	1.6450e-01	6.5698	64.523528	0.001010	10.096304	1.710360	0.040331
 331	1.6500e-01	6.5894	64.608223	0.000424	4.240447	0.718351	0.016939
 332	1.6550e-01	6.6089	64.757448	0.000747	7.471265	1.265666	0.029845
 333	1.6600e-01	6.6302	64.894573	0.000687	6.865486	1.163045	0.027425
 334	1.6650e-01	6.6492	65.059930	0.000828	8.278969	1.402495	0.033071
 335	1.6700e-01	6.6699	65.261585	0.001010	10.096304	1.710360	0.040331
 336	1.6750e-01	6.6888	65.390644	0.000646	6.461634	1.094630	0.025812
 337	1.6800e-01	6.7096	65.539869	0.000747	7.471265	1.265666	0.029845
 338	1.6850e-01	6.7297	65.733458	0.000969	9.692451	1.641946	0.038718
 339	1.6900e-01	6.7487	65.914947	0.000909	9.086673	1.539324	0.036298
 340	1.6950e-01	6.7694	66.108536	0.000969	9.692451	1.641946	0.038718
 341	1.7000e-01	6.7892	66.189198	0.000404	4.038521	0.684144	0.016132
 342	1.7050e-01	6.8091	66.402952	0.001070	10.702082	1.812982	0.042751
 343	1.7100e-01	6.8286	66.475548	0.000363	3.634669	0.615730	0.014519
 344	1.7150e-01	6.8488	66.709467	0.001171	11.711712	1.984018	0.046784
 345	1.7200e-01	6.8695	66.850626	0.000707	7.067412	1.197252	0.028232
 346	1.7250e-01	6.8890	66.947420	0.000485	4.846226	0.820973	0.019359
 347	1.7300e-01	6.9095	67.157141	0.001050	10.500156	1.778775	0.041944
 348	1.7350e-01	6.9299	67.282167	0.000626	6.259708	1.060423	0.025005
 349	1.7400e-01	6.9482	67.197472	-0.000424	-4.240447	-0.718351	-0.016939
 350	1.7450e-01	6.9687	67.633047	0.002181	21.808016	3.694378	0.087115
 351	1.7500e-01	6.9888	67.701610	0.000343	3.432743	0.581522	0.013713
 352	1.7550e-01	7.0093	67.899232	0.000989	9.894377	1.676153	0.039524
 353	1.7600e-01	7.0288	68.024258	0.000626	6.259708	1.060423	0.025005
 354	1.7650e-01	7.0490	68.181548	0.000788	7.875117	1.334081	0.031458
 355	1.7700e-01	7.0685	68.371104	0.000949	9.490525	1.607739	0.037911
 356	1.7750e-01	7.0880	68.532428	0.000808	8.077043	1.368288	0.032265
 357	1.7800e-01	7.1094	68.669553	0.000687	6.865486	1.163045	0.027425
 358	1.7850e-01	7.1291	68.822811	0.000767	7.673191	1.299874	0.030652
 359	1.7900e-01	7.1490	68.984135	0.000808	8.077043	1.368288	0.032265
 360	1.7950e-01	7.1686	69.181757	0.000989	9.894377	1.676153	0.039524
 361	1.8000e-01	7.1890	69.254353	0.000363	3.634669	0.615730	0.014519
 362	1.8050e-01	7.2089	69.391478	0.000687	6.865486	1.163045	0.027425
 363	1.8100e-01	7.2279	69.500372	0.000545	5.452004	0.923594	0.021779
 364	1.8150e-01	7.2485	69.693960	0.000969	9.692451	1.641946	0.038718
 365	1.8200e-01	7.2693	69.851251	0.000788	7.875117	1.334081	0.031458
 366	1.8250e-01	7.2894	69.984343	0.000666	6.663560	1.128838	0.026618
 367	1.8300e-01	7.3096	70.145667	0.000808	8.077043	1.368288	0.032265
 368	1.8350e-01	7.3297	70.327157	0.000909	9.086673	1.539324	0.036298
 369	1.8400e-01	7.3499	70.440084	0.000565	5.653930	0.957802	0.022585
 370	1.8450e-01	7.3685	70.641739	0.001010	10.096304	1.710360	0.040331
 371	1.8500e-01	7.3898	70.778864	0.000687	6.865486	1.163045	0.027425
 372	1.8550e-01	7.4091	70.952287	0.000868	8.682821	1.470910	0.034685
 373	1.8600e-01	7.4295	71.113611	0.000808	8.077043	1.368288	0.032265
 374	1.8650e-01	7.4496	71.226538	0.000565	5.653930	0.957802	0.022585
 375	1.8700e-01	7.4677	71.319299	0.000464	4.644300	0.786766	0.018552
 376	1.8750e-01	7.4896	71.500789	0.000909	9.086673	1.539324	0.036298
 377	1.8800e-01	7.5104	71.645980	0.000727	7.269339	1.231459	0.029038
 378	1.8850e-01	7.5287	71.795205	0.000747	7.471265	1.265666	0.029845
 379	1.8900e-01	7.5497	71.976694	0.000909	9.086673	1.539324	0.036298
 380	1.8950e-01	7.5684	72.129952	0.000767	7.673191	1.299874	0.030652
 381	1.9000e-01	7.5903	72.238846	0.000545	5.452004	0.923594	0.021779
 382	1.9050e-01	7.6080	72.436467	0.000989	9.894377	1.676153	0.039524
 383	1.9100e-01	7.6294	72.634089	0.000989	9.894377	1.676153	0.039524
 384	1.9150e-01	7.6501	72.779281	0.000727	7.269339	1.231459	0.029038
 385	1.9200e-01	7.6685	72.851877	0.000363	3.634669	0.615730	0.014519
 386	1.9250e-01	7.6892	73.021267	0.000848	8.480895	1.436703	0.033878
 387	1.9300e-01	7.7087	73.130160	0.000545	5.452004	0.923594	0.021779
 388	1.9350e-01	7.7295	73.279385	0.000747	7.471265	1.265666	0.029845
 389	1.9400e-01	7.7490	73.432643	0.000767	7.673191	1.299874	0.030652
 390	1.9450e-01	7.7689	73.561702	0.000646	6.461634	1.094630	0.025812
 391	1.9500e-01	7.7881	73.710927	0.000747	7.471265	1.265666	0.029845
 392	1.9550e-01	7.8088	73.884350	0.000868	8.682821	1.470910	0.034685
 393	1.9600e-01	7.8284	74.025508	0.000707	7.067412	1.197252	0.028232
 394	1.9650e-01	7.8485	74.158601	0.000666	6.663560	1.128838	0.026618
 395	1.9700e-01	7.8699	74.315891	0.000788	7.875117	1.334081	0.031458
 396	1.9750e-01	7.8888	74.489315	0.000868	8.682821	1.470910	0.034685
 397	1.9800e-01	7.9083	74.594175	0.000525	5.250078	0.889387	0.020972
 398	1.9850e-01	7.9285	74.755499	0.000808	8.077043	1.368288	0.032265
 399	1.9900e-01	7.9498	74.928922	0.000868	8.682821	1.470910	0.034685
 400	1.9950e-01	7.9700	75.009584	0.000404	4.038521	0.684144	0.016132
 401	2.0000e-01	7.9889	75.183008	0.000868	8.682821	1.470910	0.034685
 402	2.0050e-01	8.0090	75.304001	0.000606	6.057782	1.026216	0.024199
 403	2.0100e-01	8.0292	75.477424	0.000868	8.682821	1.470910	0.034685
 404	2.0150e-01	8.0495	75.626648	0.000747	7.471265	1.265666	0.029845
 405	2.0200e-01	8.0701	75.767807	0.000707	7.067412	1.197252	0.028232
 406	2.0250e-01	8.0893	75.884767	0.000586	5.855856	0.992009	0.023392
 407	2.0300e-01	8.1091	76.062223	0.000888	8.884747	1.505117	0.035491
 408	2.0350e-01	8.1287	76.130786	0.000343	3.432743	0.581522	0.013713
 409	2.0400e-01	8.1497	76.280010	0.000747	7.471265	1.265666	0.029845
 410	2.0450e-01	8.1689	76.509897	0.001151	11.509786	1.949811	0.045977
 411	2.0500e-01	8.1894	76.667188	0.000788	7.875117	1.334081	0.031458
 412	2.0550e-01	8.2092	76.759949	0.000464	4.644300	0.786766	0.018552
 413	2.0600e-01	8.2294	76.925306	0.000828	8.278969	1.402495	0.033071
 414	2.0650e-01	8.2489	76.993869	0.000343	3.432743	0.581522	0.013713
 415	2.0700e-01	8.2690	77.175358	0.000909	9.086673	1.539324	0.036298
 416	2.0750e-01	8.2887	77.320550	0.000727	7.269339	1.231459	0.029038
 417	2.0800e-01	8.3090	77.465741	0.000727	7.269339	1.231459	0.029038
 418	2.0850e-01	8.3301	77.602867	0.000687	6.865486	1.163045	0.027425
 419	2.0900e-01	8.3496	77.784356	0.000909	9.086673	1.539324	0.036298
 420	2.0950e-01	8.3710	77.905349	0.000606	6.057782	1.026216	0.024199
 421	2.1000e-01	8.3890	78.038441	0.000666	6.663560	1.128838	0.026618
 422	2.1050e-01	8.4100	78.167501	0.000646	6.461634	1.094630	0.025812
 423	2.1100e-01	8.4302	78.292527	0.000626	6.259708	1.060423	0.025005
 424	2.1150e-01	8.4497	78.421586	0.000646	6.461634	1.094630	0.025812
 425	2.1200e-01	8.4705	78.599042	0.000888	8.884747	1.505117	0.035491
 426	2.1250e-01	8.4894	78.760366	0.000808	8.077043	1.368288	0.032265
 427	2.1300e-01	8.5095	78.841028	0.000404	4.038521	0.684144	0.016132
 428	2.1350e-01	8.5303	79.058815	0.001090	10.904008	1.847189	0.043557
 429	2.1400e-01	8.5492	79.171742	0.000565	5.653930	0.957802	0.022585
 430	2.1450e-01	8.5693	79.341132	0.000848	8.480895	1.436703	0.033878
 431	2.1500e-01	8.5901	79.454059	0.000565	5.653930	0.957802	0.022585
 432	2.1550e-01	8.6096	79.562953	0.000545	5.452004	0.923594	0.021779
 433	2.1600e-01	8.6298	79.736376	0.000868	8.682821	1.470910	0.034685
 434	2.1650e-01	8.6487	79.796872	0.000303	3.028891	0.513108	0.012099
 435	2.1700e-01	8.6700	80.026759	0.001151	11.509786	1.949811	0.045977
 436	2.1750e-01	8.6890	80.204215	0.000888	8.884747	1.505117	0.035491
 437	2.1800e-01	8.7091	80.296977	0.000464	4.644300	0.786766	0.018552
 438	2.1850e-01	8.7299	80.385705	0.000444	4.442374	0.752558	0.017746
 439	2.1900e-01	8.7500	80.551062	0.000828	8.278969	1.402495	0.033071
 440	2.1950e-01	8.7701	80.676088	0.000626	6.259708	1.060423	0.025005
 441	2.2000e-01	8.7900	80.825313	0.000747	7.471265	1.265666	0.029845
 442	2.2050e-01	8.8098	80.986636	0.000808	8.077043	1.368288	0.032265
 443	2.2100e-01	8.8309	81.164093	0.000888	8.884747	1.505117	0.035491
 444	2.2150e-01	8.8495	81.248788	0.000424	4.240447	0.718351	0.016939
 445	2.2200e-01	8.8696	81.373814	0.000626	6.259708	1.060423	0.025005
 446	2.2250e-01	8.8885	81.502873	0.000646	6.461634	1.094630	0.025812
 447	2.2300e-01	8.9093	81.656131	0.000767	7.673191	1.299874	0.030652
 448	2.2350e-01	8.9288	81.785190	0.000646	6.461634	1.094630	0.025812
 449	2.2400e-01	8.9490	81.902150	0.000586	5.855856	0.992009	0.023392
 450	2.2450e-01	8.9691	82.091706	0.000949	9.490525	1.607739	0.037911
 451	2.2500e-01	8.9886	82.265129	0.000868	8.682821	1.470910	0.034685
 452	2.2550e-01	9.0088	82.297394	0.000162	1.615409	0.273658	0.006453
 453	2.2600e-01	9.0295	82.474850	0.000888	8.884747	1.505117	0.035491
 454	2.2650e-01	9.0485	82.607942	0.000666	6.663560	1.128838	0.026618
 455	2.2700e-01	9.0698	82.757167	0.000747	7.471265	1.265666	0.029845
 456	2.2750e-01	9.0894	82.882193	0.000626	6.259708	1.060423	0.025005
 457	2.2800e-01	9.1095	83.007219	0.000626	6.259708	1.060423	0.025005
 458	2.2850e-01	9.1290	83.116113	0.000545	5.452004	0.923594	0.021779
 459	2.2900e-01	9.1489	83.293569	0.000888	8.884747	1.505117	0.035491
 460	2.2950e-01	9.1696	83.426661	0.000666	6.663560	1.128838	0.026618
 461	2.3000e-01	9.1888	83.539588	0.000565	5.653930	0.957802	0.022585
 462	2.3050e-01	9.2090	83.729144	0.000949	9.490525	1.607739	0.037911
 463	2.3100e-01	9.2297	83.753342	0.000121	1.211556	0.205243	0.004840
 464	2.3150e-01	9.2499	83.975163	0.001111	11.105934	1.881396	0.044364
 465	2.3200e-01	9.2694	84.075990	0.000505	5.048152	0.855180	0.020165
 466	2.3250e-01	9.2908	84.362340	0.001434	14.336751	2.428711	0.057270
 467	2.3300e-01	9.3103	84.265546	-0.000485	-4.846226	-0.820973	-0.019359
 468	2.3350e-01	9.3298	84.523664	0.001292	12.923269	2.189261	0.051624
 469	2.3400e-01	9.3495	84.600293	0.000384	3.836595	0.649937	0.015326
 470	2.3450e-01	9.3701	84.781782	0.000909	9.086673	1.539324	0.036298
 471	2.3500e-01	9.3896	84.894709	0.000565	5.653930	0.957802	0.022585
 472	2.3550e-01	9.4092	85.047967	0.000767	7.673191	1.299874	0.030652
 473	2.3600e-01	9.4293	85.108463	0.000303	3.028891	0.513108	0.012099
 474	2.3650e-01	9.4495	85.245589	0.000687	6.865486	1.163045	0.027425
 475	2.3700e-01	9.4702	85.390780	0.000727	7.269339	1.231459	0.029038
 476	2.3750e-01	9.4897	85.604534	0.001070	10.702082	1.812982	0.042751
 477	2.3800e-01	9.5099	85.689229	0.000424	4.240447	0.718351	0.016939
 478	2.3850e-01	9.5288	85.862653	0.000868	8.682821	1.470910	0.034685
 479	2.3900e-01	9.5496	85.951381	0.000444	4.442374	0.752558	0.017746
 480	2.3950e-01	9.5700	86.044142	0.000464	4.644300	0.786766	0.018552
 481	2.4000e-01	9.5892	86.217565	0.000868	8.682821	1.470910	0.034685
 482	2.4050e-01	9.6106	86.419220	0.001010	10.096304	1.710360	0.040331
 483	2.4100e-01	9.6295	86.471651	0.000263	2.625039	0.444694	0.010486
 484	2.4150e-01	9.6509	86.637008	0.000828	8.278969	1.402495	0.033071
 485	2.4200e-01	9.6692	86.778166	0.000707	7.067412	1.197252	0.028232
 486	2.4250e-01	9.6893	86.870927	0.000464	4.644300	0.786766	0.018552
 487	2.4300e-01	9.7095	87.048384	0.000888	8.884747	1.505117	0.035491
 488	2.4350e-01	9.7296	87.173410	0.000626	6.259708	1.060423	0.025005
 489	2.4400e-01	9.7510	87.302469	0.000646	6.461634	1.094630	0.025812
 490	2.4450e-01	9.7699	87.423462	0.000606	6.057782	1.026216	0.024199
 491	2.4500e-01	9.7894	87.568653	0.000727	7.269339	1.231459	0.029038
 492	2.4550e-01	9.8102	87.689646	0.000606	6.057782	1.026216	0.024199
 493	2.4600e-01	9.8294	87.782408	0.000464	4.644300	0.786766	0.018552
 494	2.4650e-01	9.8492	87.899367	0.000586	5.855856	0.992009	0.023392
 495	2.4700e-01	9.8694	88.036493	0.000687	6.865486	1.163045	0.027425
 496	2.4750e-01	9.8895	88.169585	0.000666	6.663560	1.128838	0.026618
 497	2.4800e-01	9.9097	88.318810	0.000747	7.471265	1.265666	0.029845
 498	2.4850e-01	9.9298	88.403505	0.000424	4.240447	0.718351	0.016939
 499	2.4900e-01	9.9500	88.609193	0.001030	10.298230	1.744567	0.041138
 500	2.4950e-01	9.9695	88.714053	0.000525	5.250078	0.889387	0.020972
 501	2.5000e-01	9.9905	88.863278	0.000747	7.471265	1.265666	0.029845
 502	2.5050e-01	9.9878	88.818914	0.000222	2.221187	0.376279	-0.008873
 503	2.5100e-01	9.9722	88.734219	0.000424	4.240447	0.718351	-0.016939
 504	2.5150e-01	9.9536	88.617259	0.000586	5.855856	0.992009	-0.023392
 505	2.5200e-01	9.9347	88.512398	0.000525	5.250078	0.889387	-0.020972
 506	2.5250e-01	9.9146	88.403505	0.000545	5.452004	0.923594	-0.021779
 507	2.5300e-01	9.8944	88.290578	0.000565	5.653930	0.957802	-0.022585
 508	2.5350e-01	9.8749	88.250247	0.000202	2.019261	0.342072	-0.008066
 509	2.5400e-01	9.8541	88.137320	0.000565	5.653930	0.957802	-0.022585
 510	2.5450e-01	9.8340	88.012294	0.000626	6.259708	1.060423	-0.025005
 511	2.5500e-01	9.8145	87.915500	0.000485	4.846226	0.820973	-0.019359
 512	2.5550e-01	9.7943	87.786441	0.000646	6.461634	1.094630	-0.025812
 513	2.5600e-01	9.7742	87.713845	0.000363	3.634669	0.615730	-0.014519
 514	2.5650e-01	9.7540	87.580753	0.000666	6.663560	1.128838	-0.026618
 515	2.5700e-01	9.7339	87.496058	0.000424	4.240447	0.718351	-0.016939
 516	2.5750e-01	9.7141	87.387164	0.000545	5.452004	0.923594	-0.021779
 517	2.5800e-01	9.6942	87.282303	0.000525	5.250078	0.889387	-0.020972
 518	2.5850e-01	9.6741	87.197608	0.000424	4.240447	0.718351	-0.016939
 519	2.5900e-01	9.6545	87.052417	0.000727	7.269339	1.231459	-0.029038
 520	2.5950e-01	9.6344	87.004020	0.000242	2.423113	0.410486	-0.009679
 521	2.6000e-01	9.6143	86.846729	0.000788	7.875117	1.334081	-0.031458
 522	2.6050e-01	9.5935	86.709603	0.000687	6.865486	1.163045	-0.027425
 523	2.6100e-01	9.5737	86.604743	0.000525	5.250078	0.889387	-0.020972
 524	2.6150e-01	9.5544	86.503915	0.000505	5.048152	0.855180	-0.020165
 525	2.6200e-01	9.5343	86.447452	0.000283	2.826965	0.478901	-0.011293
 526	2.6250e-01	9.5148	86.310327	0.000687	6.865486	1.163045	-0.027425
 527	2.6300e-01	9.4940	86.181267	0.000646	6.461634	1.094630	-0.025812
 528	2.6350e-01	9.4733	86.072374	0.000545	5.452004	0.923594	-0.021779
 529	2.6400e-01	9.4537	85.947348	0.000626	6.259708	1.060423	-0.025005
 530	2.6450e-01	9.4336	85.818289	0.000646	6.461634	1.094630	-0.025812
 531	2.6500e-01	9.4144	85.745693	0.000363	3.634669	0.615730	-0.014519
 532	2.6550e-01	9.3945	85.604534	0.000707	7.067412	1.197252	-0.028232
 533	2.6600e-01	9.3750	85.515806	0.000444	4.442374	0.752558	-0.017746
 534	2.6650e-01	9.3549	85.350449	0.000828	8.278969	1.402495	-0.033071
 535	2.6700e-01	9.3341	85.265754	0.000424	4.240447	0.718351	-0.016939
 536	2.6750e-01	9.3146	85.160894	0.000525	5.250078	0.889387	-0.020972
 537	2.6800e-01	9.2938	84.975371	0.000929	9.288599	1.573531	-0.037105
 538	2.6850e-01	9.2731	84.943106	0.000162	1.615409	0.273658	-0.006453
 539	2.6900e-01	9.2548	84.769683	0.000868	8.682821	1.470910	-0.034685
 540	2.6950e-01	9.2340	84.701120	0.000343	3.432743	0.581522	-0.013713
 541	2.7000e-01	9.2139	84.608359	0.000464	4.644300	0.786766	-0.018552
 542	2.7050e-01	9.1943	84.535763	0.000363	3.634669	0.615730	-0.014519
 543	2.7100e-01	9.1742	84.354274	0.000909	9.086673	1.539324	-0.036298
 544	2.7150e-01	9.1547	84.269579	0.000424	4.240447	0.718351	-0.016939
 545	2.7200e-01	9.1333	84.108255	0.000808	8.077043	1.368288	-0.032265
 546	2.7250e-01	9.1132	83.991295	0.000586	5.855856	0.992009	-0.023392
 547	2.7300e-01	9.0942	83.862236	0.000646	6.461634	1.094630	-0.025812
 548	2.7350e-01	9.0741	83.749309	0.000565	5.653930	0.957802	-0.022585
 549	2.7400e-01	9.0546	83.648482	0.000505	5.048152	0.855180	-0.020165
 550	2.7450e-01	9.0338	83.519422	0.000646	6.461634	1.094630	-0.025812
 551	2.7500e-01	9.0118	83.426661	0.000464	4.644300	0.786766	-0.018552
 552	2.7550e-01	8.9941	83.341966	0.000424	4.240447	0.718351	-0.016939
 553	2.7600e-01	8.9737	83.136278	0.001030	10.298230	1.744567	-0.041138
 554	2.7650e-01	8.9539	83.059649	0.000384	3.836595	0.649937	-0.015326
 555	2.7700e-01	8.9343	83.055616	0.000020	0.201926	0.034207	-0.000807
 556	2.7750e-01	8.9130	82.849928	0.001030	10.298230	1.744567	-0.041138
 557	2.7800e-01	8.8940	82.732968	0.000586	5.855856	0.992009	-0.023392
 558	2.7850e-01	8.8736	82.611975	0.000606	6.057782	1.026216	-0.024199
 559	2.7900e-01	8.8538	82.503082	0.000545	5.452004	0.923594	-0.021779
 560	2.7950e-01	8.8330	82.361923	0.000707	7.067412	1.197252	-0.028232
 561	2.8000e-01	8.8147	82.228831	0.000666	6.663560	1.128838	-0.026618
 562	2.8050e-01	8.7939	82.115904	0.000565	5.653930	0.957802	-0.022585
 563	2.8100e-01	8.7738	82.002977	0.000565	5.653930	0.957802	-0.022585
 564	2.8150e-01	8.7549	81.861819	0.000707	7.067412	1.197252	-0.028232
 565	2.8200e-01	8.7347	81.740826	0.000606	6.057782	1.026216	-0.024199
 566	2.8250e-01	8.7140	81.639998	0.000505	5.048152	0.855180	-0.020165
 567	2.8300e-01	8.6954	81.539171	0.000505	5.048152	0.855180	-0.020165
 568	2.8350e-01	8.6743	81.389946	0.000747	7.471265	1.265666	-0.029845
 569	2.8400e-01	8.6536	81.301218	0.000444	4.442374	0.752558	-0.017746
 570	2.8450e-01	8.6337	81.180225	0.000606	6.057782	1.026216	-0.024199
 571	2.8500e-01	8.6151	81.026967	0.000767	7.673191	1.299874	-0.030652
 572	2.8550e-01	8.5941	80.966471	0.000303	3.028891	0.513108	-0.012099
 573	2.8600e-01	8.5732	80.837412	0.000646	6.461634	1.094630	-0.025812
 574	2.8650e-01	8.5547	80.623658	0.001070	10.702082	1.812982	-0.042751
 575	2.8700e-01	8.5333	80.530896	0.000464	4.644300	0.786766	-0.018552
 576	2.8750e-01	8.5138	80.446201	0.000424	4.240447	0.718351	-0.016939
 577	2.8800e-01	8.4943	80.296977	0.000747	7.471265	1.265666	-0.029845
 578	2.8850e-01	8.4741	80.143719	0.000767	7.673191	1.299874	-0.030652
 579	2.8900e-01	8.4540	80.111454	0.000162	1.615409	0.273658	-0.006453
 580	2.8950e-01	8.4344	79.974329	0.000687	6.865486	1.163045	-0.027425
 581	2.9000e-01	8.4149	79.833170	0.000707	7.067412	1.197252	-0.028232
 582	2.9050e-01	8.3942	79.675879	0.000788	7.875117	1.334081	-0.031458
 583	2.9100e-01	8.3746	79.558920	0.000586	5.855856	0.992009	-0.023392
 584	2.9150e-01	8.3545	79.433894	0.000626	6.259708	1.060423	-0.025005
 585	2.9200e-01	8.3334	79.300801	0.000666	6.663560	1.128838	-0.026618
 586	2.9250e-01	8.3136	79.228205	0.000363	3.634669	0.615730	-0.014519
 587	2.9300e-01	8.2941	79.103179	0.000626	6.259708	1.060423	-0.025005
 588	2.9350e-01	8.2745	78.937822	0.000828	8.278969	1.402495	-0.033071
 589	2.9400e-01	8.2538	78.828929	0.000545	5.452004	0.923594	-0.021779
 590	2.9450e-01	8.2343	78.695836	0.000666	6.663560	1.128838	-0.026618
 591	2.9500e-01	8.2147	78.595009	0.000505	5.048152	0.855180	-0.020165
 592	2.9550e-01	8.1927	78.445784	0.000747	7.471265	1.265666	-0.029845
 593	2.9600e-01	8.1738	78.377222	0.000343	3.432743	0.581522	-0.013713
 594	2.9650e-01	8.1537	78.244129	0.000666	6.663560	1.128838	-0.026618
 595	2.9700e-01	8.1335	78.062640	0.000909	9.086673	1.539324	-0.036298
 596	2.9750e-01	8.1146	77.937614	0.000626	6.259708	1.060423	-0.025005
 597	2.9800e-01	8.0948	77.860985	0.000384	3.836595	0.649937	-0.015326
 598	2.9850e-01	8.0737	77.699661	0.000808	8.077043	1.368288	-0.032265
 599	2.9900e-01	8.0542	77.574635	0.000626	6.259708	1.060423	-0.025005
 600	2.9950e-01	8.0347	77.449609	0.000626	6.259708	1.060423	-0.025005
 601	3.0000e-01	8.0133	77.280219	0.000848	8.480895	1.436703	-0.033878
 602	3.0050e-01	7.9944	77.187458	0.000464	4.644300	0.786766	-0.018552
 603	3.0100e-01	7.9739	77.046299	0.000707	7.067412	1.197252	-0.028232
 604	3.0150e-01	7.9535	77.022101	0.000121	1.211556	0.205243	-0.004840
 605	3.0200e-01	7.9346	76.832545	0.000949	9.490525	1.607739	-0.037911
 606	3.0250e-01	7.9138	76.719618	0.000565	5.653930	0.957802	-0.022585
 607	3.0300e-01	7.8940	76.602658	0.000586	5.855856	0.992009	-0.023392
 608	3.0350e-01	7.8735	76.449401	0.000767	7.673191	1.299874	-0.030652
 609	3.0400e-01	7.8537	76.312275	0.000687	6.865486	1.163045	-0.027425
 610	3.0450e-01	7.8339	76.171117	0.000707	7.067412	1.197252	-0.028232
 611	3.0500e-01	7.8131	75.997694	0.000868	8.682821	1.470910	-0.034685
 612	3.0550e-01	7.7930	75.921065	0.000384	3.836595	0.649937	-0.015326
 613	3.0600e-01	7.7747	75.779906	0.000707	7.067412	1.197252	-0.028232
 614	3.0650e-01	7.7545	75.638748	0.000707	7.067412	1.197252	-0.028232
 615	3.0700e-01	7.7342	75.477424	0.000808	8.077043	1.368288	-0.032265
 616	3.0750e-01	7.7136	75.416927	0.000303	3.028891	0.513108	-0.012099
 617	3.0800e-01	7.6947	75.287868	0.000646	6.461634	1.094630	-0.025812
 618	3.0850e-01	7.6733	75.142677	0.000727	7.269339	1.231459	-0.029038
 619	3.0900e-01	7.6532	75.013617	0.000646	6.461634	1.094630	-0.025812
 620	3.0950e-01	7.6337	74.941022	0.000363	3.634669	0.615730	-0.014519
 621	3.1000e-01	7.6135	74.779698	0.000808	8.077043	1.368288	-0.032265
 622	3.1050e-01	7.5937	74.630473	0.000747	7.471265	1.265666	-0.029845
 623	3.1100e-01	7.5739	74.517546	0.000565	5.653930	0.957802	-0.022585
 624	3.1150e-01	7.5537	74.360255	0.000788	7.875117	1.334081	-0.031458
 625	3.1200e-01	7.5342	74.251362	0.000545	5.452004	0.923594	-0.021779
 626	3.1250e-01	7.5143	74.077939	0.000868	8.682821	1.470910	-0.034685
 627	3.1300e-01	7.4945	73.969045	0.000545	5.452004	0.923594	-0.021779
 628	3.1350e-01	7.4744	73.896449	0.000363	3.634669	0.615730	-0.014519
 629	3.1400e-01	7.4536	73.698827	0.000989	9.894377	1.676153	-0.039524
 630	3.1450e-01	7.4336	73.622198	0.000384	3.836595	0.649937	-0.015326
 631	3.1500e-01	7.4146	73.481040	0.000707	7.067412	1.197252	-0.028232
 632	3.1550e-01	7.3944	73.347948	0.000666	6.663560	1.128838	-0.026618
 633	3.1600e-01	7.3743	73.166458	0.000909	9.086673	1.539324	-0.036298
 634	3.1650e-01	7.3547	73.045465	0.000606	6.057782	1.026216	-0.024199
 635	3.1700e-01	7.3340	72.960770	0.000424	4.240447	0.718351	-0.016939
 636	3.1750e-01	7.3151	72.811546	0.000747	7.471265	1.265666	-0.029845
 637	3.1800e-01	7.2955	72.718784	0.000464	4.644300	0.786766	-0.018552
 638	3.1850e-01	7.2742	72.432434	0.001434	14.336751	2.428711	-0.057270
 639	3.1900e-01	7.2540	72.408236	0.000121	1.211556	0.205243	-0.004840
 640	3.1950e-01	7.2348	72.283210	0.000626	6.259708	1.060423	-0.025005
 641	3.2000e-01	7.2144	72.113820	0.000848	8.480895	1.436703	-0.033878
 642	3.2050e-01	7.1948	72.004926	0.000545	5.452004	0.923594	-0.021779
 643	3.2100e-01	7.1741	71.847635	0.000788	7.875117	1.334081	-0.031458
 644	3.2150e-01	7.1539	71.726642	0.000606	6.057782	1.026216	-0.024199
 645	3.2200e-01	7.1341	71.585484	0.000707	7.067412	1.197252	-0.028232
 646	3.2250e-01	7.1143	71.468524	0.000586	5.855856	0.992009	-0.023392
 647	3.2300e-01	7.0935	71.307200	0.000808	8.077043	1.368288	-0.032265
 648	3.2350e-01	7.0746	71.230571	0.000384	3.836595	0.649937	-0.015326
 649	3.2400e-01	7.0538	71.020850	0.001050	10.500156	1.778775	-0.041944
 650	3.2450e-01	7.0345	70.936155	0.000424	4.240447	0.718351	-0.016939
 651	3.2500e-01	7.0148	70.770798	0.000828	8.278969	1.402495	-0.033071
 652	3.2550e-01	6.9949	70.649805	0.000606	6.057782	1.026216	-0.024199
 653	3.2600e-01	6.9739	70.532845	0.000586	5.855856	0.992009	-0.023392
 654	3.2650e-01	6.9545	70.399753	0.000666	6.663560	1.128838	-0.026618
 655	3.2700e-01	6.9336	70.258594	0.000707	7.067412	1.197252	-0.028232
 656	3.2750e-01	6.9147	70.105336	0.000767	7.673191	1.299874	-0.030652
 657	3.2800e-01	6.8951	69.996443	0.000545	5.452004	0.923594	-0.021779
 658	3.2850e-01	6.8741	69.754457	0.001212	12.115564	2.052432	-0.048397
 659	3.2900e-01	6.8549	69.669762	0.000424	4.240447	0.718351	-0.016939
 660	3.2950e-01	6.8341	69.564901	0.000525	5.250078	0.889387	-0.020972
 661	3.3000e-01	6.8146	69.419710	0.000727	7.269339	1.231459	-0.029038
 662	3.3050e-01	6.7947	69.335015	0.000424	4.240447	0.718351	-0.016939
 663	3.3100e-01	6.7743	69.141426	0.000969	9.692451	1.641946	-0.038718
 664	3.3150e-01	6.7538	69.024466	0.000586	5.855856	0.992009	-0.023392
 665	3.3200e-01	6.7348	68.903473	0.000606	6.057782	1.026216	-0.024199
 666	3.3250e-01	6.7142	68.738116	0.000828	8.278969	1.402495	-0.033071
 667	3.3300e-01	6.6940	68.588891	0.000747	7.471265	1.265666	-0.029845
 668	3.3350e-01	6.6742	68.459832	0.000646	6.461634	1.094630	-0.025812
 669	3.3400e-01	6.6544	68.322707	0.000687	6.865486	1.163045	-0.027425
 670	3.3450e-01	6.6339	68.246078	0.000384	3.836595	0.649937	-0.015326
 671	3.3500e-01	6.6138	68.040390	0.001030	10.298230	1.744567	-0.041138
 672	3.3550e-01	6.5948	67.907298	0.000666	6.663560	1.128838	-0.026618
 673	3.3600e-01	6.5747	67.762106	0.000727	7.269339	1.231459	-0.029038
 674	3.3650e-01	6.5543	67.604815	0.000788	7.875117	1.334081	-0.031458
 675	3.3700e-01	6.5340	67.499955	0.000525	5.250078	0.889387	-0.020972
 676	3.3750e-01	6.5134	67.403160	0.000485	4.846226	0.820973	-0.019359
 677	3.3800e-01	6.4940	67.241836	0.000808	8.077043	1.368288	-0.032265
 678	3.3850e-01	6.4734	67.052281	0.000949	9.490525	1.607739	-0.037911
 679	3.3900e-01	6.4539	66.947420	0.000525	5.250078	0.889387	-0.020972
 680	3.3950e-01	6.4343	66.822394	0.000626	6.259708	1.060423	-0.025005
 681	3.4000e-01	6.4142	66.661070	0.000808	8.077043	1.368288	-0.032265
 682	3.4050e-01	6.3940	66.592508	0.000343	3.432743	0.581522	-0.013713
 683	3.4100e-01	6.3745	66.386820	0.001030	10.298230	1.744567	-0.041138
 684	3.4150e-01	6.3538	66.205330	0.000909	9.086673	1.539324	-0.036298
 685	3.4200e-01	6.3342	66.084337	0.000606	6.057782	1.026216	-0.024199
 686	3.4250e-01	6.3132	65.979477	0.000525	5.250078	0.889387	-0.020972
 687	3.4300e-01	6.2943	65.830252	0.000747	7.471265	1.265666	-0.029845
 688	3.4350e-01	6.2744	65.568101	0.001313	13.125195	2.223468	-0.052430
 689	3.4400e-01	6.2546	65.640696	-0.000363	-3.634669	-0.615730	0.014519
 690	3.4450e-01	6.2347	65.330148	0.001555	15.548307	2.633955	-0.062110
 691	3.4500e-01	6.2141	65.253519	0.000384	3.836595	0.649937	-0.015326
 692	3.4550e-01	6.1938	65.035732	0.001090	10.904008	1.847189	-0.043557
 693	3.4600e-01	6.1749	64.987334	0.000242	2.423113	0.410486	-0.009679
 694	3.4650e-01	6.1539	64.830043	0.000788	7.875117	1.334081	-0.031458
 695	3.4700e-01	6.1340	64.705017	0.000626	6.259708	1.060423	-0.025005
 696	3.4750e-01	6.1148	64.499329	0.001030	10.298230	1.744567	-0.041138
 697	3.4800e-01	6.0945	64.390436	0.000545	5.452004	0.923594	-0.021779
 698	3.4850e-01	6.0742	64.233145	0.000788	7.875117	1.334081	-0.031458
 699	3.4900e-01	6.0547	64.104086	0.000646	6.461634	1.094630	-0.025812
 700	3.4950e-01	6.0345	63.958894	0.000727	7.269339	1.231459	-0.029038
 701	3.5000e-01	6.0144	63.829835	0.000646	6.461634	1.094630	-0.025812
 702	3.5050e-01	5.9940	63.692710	0.000687	6.865486	1.163045	-0.027425
 703	3.5100e-01	5.9741	63.466856	0.001131	11.307860	1.915603	-0.045171
 704	3.5150e-01	5.9540	63.321665	0.000727	7.269339	1.231459	-0.029038
 705	3.5200e-01	5.9348	63.212771	0.000545	5.452004	0.923594	-0.021779
 706	3.5250e-01	5.9137	63.087745	0.000626	6.259708	1.060423	-0.025005
 707	3.5300e-01	5.8942	62.974818	0.000565	5.653930	0.957802	-0.022585
 708	3.5350e-01	5.8737	62.793329	0.000909	9.086673	1.539324	-0.036298
 709	3.5400e-01	5.8545	62.656203	0.000687	6.865486	1.163045	-0.027425
 710	3.5450e-01	5.8347	62.490846	0.000828	8.278969	1.402495	-0.033071
 711	3.5500e-01	5.8142	62.329522	0.000808	8.077043	1.368288	-0.032265
 712	3.5550e-01	5.7941	62.240794	0.000444	4.442374	0.752558	-0.017746
 713	3.5600e-01	5.7736	62.035106	0.001030	10.298230	1.744567	-0.041138
 714	3.5650e-01	5.7545	61.902014	0.000666	6.663560	1.128838	-0.026618
 715	3.5700e-01	5.7341	61.760855	0.000707	7.067412	1.197252	-0.028232
 716	3.5750e-01	5.7141	61.664061	0.000485	4.846226	0.820973	-0.019359
 717	3.5800e-01	5.6940	61.494671	0.000848	8.480895	1.436703	-0.033878
 718	3.5850e-01	5.6741	61.349479	0.000727	7.269339	1.231459	-0.029038
 719	3.5900e-01	5.6531	61.180089	0.000848	8.480895	1.436703	-0.033878
 720	3.5950e-01	5.6354	60.970368	0.001050	10.500156	1.778775	-0.041944
 721	3.6000e-01	5.6146	60.865508	0.000525	5.250078	0.889387	-0.020972
 722	3.6050e-01	5.5939	60.744515	0.000606	6.057782	1.026216	-0.024199
 723	3.6100e-01	5.5756	60.607389	0.000687	6.865486	1.163045	-0.027425
 724	3.6150e-01	5.5536	60.429933	0.000888	8.884747	1.505117	-0.035491
 725	3.6200e-01	5.5341	60.321039	0.000545	5.452004	0.923594	-0.021779
 726	3.6250e-01	5.5139	60.127451	0.000969	9.692451	1.641946	-0.038718
 727	3.6300e-01	5.4941	59.945961	0.000909	9.086673	1.539324	-0.036298
 728	3.6350e-01	5.4747	59.897564	0.000242	2.423113	0.410486	-0.009679
 729	3.6400e-01	5.4544	59.720108	0.000888	8.884747	1.505117	-0.035491
 730	3.6450e-01	5.4330	59.514420	0.001030	10.298230	1.744567	-0.041138
 731	3.6500e-01	5.4144	59.421658	0.000464	4.644300	0.786766	-0.018552
 732	3.6550e-01	5.3938	59.236136	0.000929	9.288599	1.573531	-0.037105
 733	3.6600e-01	5.3737	59.090944	0.000727	7.269339	1.231459	-0.029038
 734	3.6650e-01	5.3532	58.873157	0.001090	10.904008	1.847189	-0.043557
 735	3.6700e-01	5.3336	58.711833	0.000808	8.077043	1.368288	-0.032265
 736	3.6750e-01	5.3131	58.651336	0.000303	3.028891	0.513108	-0.012099
 737	3.6800e-01	5.2939	58.469847	0.000909	9.086673	1.539324	-0.036298
 738	3.6850e-01	5.2737	58.328689	0.000707	7.067412	1.197252	-0.028232
 739	3.6900e-01	5.2536	58.151232	0.000888	8.884747	1.505117	-0.035491
 740	3.6950e-01	5.2338	57.945544	0.001030	10.298230	1.744567	-0.041138
 741	3.7000e-01	5.2136	57.844717	0.000505	5.048152	0.855180	-0.020165
 742	3.7050e-01	5.1926	57.703558	0.000707	7.067412	1.197252	-0.028232
 743	3.7100e-01	5.1733	57.598698	0.000525	5.250078	0.889387	-0.020972
 744	3.7150e-01	5.1535	57.413175	0.000929	9.288599	1.573531	-0.037105
 745	3.7200e-01	5.1337	57.288149	0.000626	6.259708	1.060423	-0.025005
 746	3.7250e-01	5.1135	57.130858	0.000788	7.875117	1.334081	-0.031458
 747	3.7300e-01	5.0934	56.941303	0.000949	9.490525	1.607739	-0.037911
 748	3.7350e-01	5.0735	56.808210	0.000666	6.663560	1.128838	-0.026618
 749	3.7400e-01	5.0528	56.598489	0.001050	10.500156	1.778775	-0.041944
 750	3.7450e-01	5.0336	56.542026	0.000283	2.826965	0.478901	-0.011293
 751	3.7500e-01	5.0134	56.360536	0.000909	9.086673	1.539324	-0.036298
 752	3.7550e-01	4.9945	56.211312	0.000747	7.471265	1.265666	-0.029845
 753	3.7600e-01	4.9744	55.969326	0.001212	12.115564	2.052432	-0.048397
 754	3.7650e-01	4.9539	55.880598	0.000444	4.442374	0.752558	-0.017746
 755	3.7700e-01	4.9341	55.727340	0.000767	7.673191	1.299874	-0.030652
 756	3.7750e-01	4.9146	55.485354	0.001212	12.115564	2.052432	-0.048397
 757	3.7800e-01	4.8938	55.376460	0.000545	5.452004	0.923594	-0.021779
 758	3.7850e-01	4.8743	55.247401	0.000646	6.461634	1.094630	-0.025812
 759	3.7900e-01	4.8541	55.150607	0.000485	4.846226	0.820973	-0.019359
 760	3.7950e-01	4.8334	54.965084	0.000929	9.288599	1.573531	-0.037105
 761	3.8000e-01	4.8141	54.763429	0.001010	10.096304	1.710360	-0.040331
 762	3.8050e-01	4.7931	54.642436	0.000606	6.057782	1.026216	-0.024199
 763	3.8100e-01	4.7733	54.489179	0.000767	7.673191	1.299874	-0.030652
 764	3.8150e-01	4.7537	54.271391	0.001090	10.904008	1.847189	-0.043557
 765	3.8200e-01	4.7336	54.154431	0.000586	5.855856	0.992009	-0.023392
 766	3.8250e-01	4.7130	54.009240	0.000727	7.269339	1.231459	-0.029038
 767	3.8300e-01	4.6936	53.880181	0.000646	6.461634	1.094630	-0.025812
 768	3.8350e-01	4.6741	53.698691	0.000909	9.086673	1.539324	-0.036298
 769	3.8400e-01	4.6528	53.561566	0.000687	6.865486	1.163045	-0.027425
 770	3.8450e-01	4.6338	53.388143	0.000868	8.682821	1.470910	-0.034685
 771	3.8500e-01	4.6136	53.178422	0.001050	10.500156	1.778775	-0.041944
 772	3.8550e-01	4.5937	53.009031	0.000848	8.480895	1.436703	-0.033878
 773	3.8600e-01	4.5737	53.017098	-0.000040	-0.403852	-0.068414	0.001613
 774	3.8650e-01	4.5532	52.771079	0.001232	12.317490	2.086639	-0.049204
 775	3.8700e-01	4.5337	52.597655	0.000868	8.682821	1.470910	-0.034685
 776	3.8750e-01	4.5125	52.416166	0.000909	9.086673	1.539324	-0.036298
 777	3.8800e-01	4.4934	52.311305	0.000525	5.250078	0.889387	-0.020972
 778	3.8850e-01	4.4733	52.069320	0.001212	12.115564	2.052432	-0.048397
 779	3.8900e-01	4.4531	51.916062	0.000767	7.673191	1.299874	-0.030652
 780	3.8950e-01	4.4336	51.746672	0.000848	8.480895	1.436703	-0.033878
 781	3.9000e-01	4.4135	51.597447	0.000747	7.471265	1.265666	-0.029845
 782	3.9050e-01	4.3930	51.448222	0.000747	7.471265	1.265666	-0.029845
 783	3.9100e-01	4.3735	51.290931	0.000788	7.875117	1.334081	-0.031458
 784	3.9150e-01	4.3530	51.190104	0.000505	5.048152	0.855180	-0.020165
 785	3.9200e-01	4.3335	50.936019	0.001272	12.721342	2.155054	-0.050817
 786	3.9250e-01	4.3127	50.823092	0.000565	5.653930	0.957802	-0.022585
 787	3.9300e-01	4.2923	50.661768	0.000808	8.077043	1.368288	-0.032265
 788	3.9350e-01	4.2731	50.512543	0.000747	7.471265	1.265666	-0.029845
 789	3.9400e-01	4.2535	50.379451	0.000666	6.663560	1.128838	-0.026618
 790	3.9450e-01	4.2328	50.133432	0.001232	12.317490	2.086639	-0.049204
 791	3.9500e-01	4.2133	50.032605	0.000505	5.048152	0.855180	-0.020165
 792	3.9550e-01	4.1934	49.839016	0.000969	9.692451	1.641946	-0.038718
 793	3.9600e-01	4.1736	49.697858	0.000707	7.067412	1.197252	-0.028232
 794	3.9650e-01	4.1530	49.548633	0.000747	7.471265	1.265666	-0.029845
 795	3.9700e-01	4.1333	49.367143	0.000909	9.086673	1.539324	-0.036298
 796	3.9750e-01	4.1129	49.177588	0.000949	9.490525	1.607739	-0.037911
 797	3.9800e-01	4.0924	49.024330	0.000767	7.673191	1.299874	-0.030652
 798	3.9850e-01	4.0741	48.854940	0.000848	8.480895	1.436703	-0.033878
 799	3.9900e-01	4.0530	48.709748	0.000727	7.269339	1.231459	-0.029038
 800	3.9950e-01	4.0332	48.491961	0.001090	10.904008	1.847189	-0.043557
 801	4.0000e-01	4.0132	48.310472	0.000909	9.086673	1.539324	-0.036298
 802	4.0050e-01	3.9929	48.153181	0.000788	7.875117	1.334081	-0.031458
 803	4.0100e-01	3.9737	48.040254	0.000565	5.653930	0.957802	-0.022585
 804	4.0150e-01	3.9536	47.899096	0.000707	7.067412	1.197252	-0.028232
 805	4.0200e-01	3.9333	47.693408	0.001030	10.298230	1.744567	-0.041138
 806	4.0250e-01	3.9130	47.540150	0.000767	7.673191	1.299874	-0.030652
 807	4.0300e-01	3.8930	47.390925	0.000747	7.471265	1.265666	-0.029845
 808	4.0350e-01	3.8728	47.229601	0.000808	8.077043	1.368288	-0.032265
 809	4.0400e-01	3.8527	47.011814	0.001090	10.904008	1.847189	-0.043557
 810	4.0450e-01	3.8342	46.878722	0.000666	6.663560	1.128838	-0.026618
 811	4.0500e-01	3.8129	46.709331	0.000848	8.480895	1.436703	-0.033878
 812	4.0550e-01	3.7930	46.499610	0.001050	10.500156	1.778775	-0.041944
 813	4.0600e-01	3.7741	46.398783	0.000505	5.048152	0.855180	-0.020165
 814	4.0650e-01	3.7524	45.995473	0.002019	20.192607	3.420720	-0.080662
 815	4.0700e-01	3.7341	46.007572	-0.000061	-0.605778	-0.102622	0.002420
 816	4.0750e-01	3.7122	45.834149	0.000868	8.682821	1.470910	-0.034685
 817	4.0800e-01	3.6929	45.676858	0.000788	7.875117	1.334081	-0.031458
 818	4.0850e-01	3.6731	45.523600	0.000767	7.673191	1.299874	-0.030652
 819	4.0900e-01	3.6542	45.362277	0.000808	8.077043	1.368288	-0.032265
 820	4.0950e-01	3.6322	45.156589	0.001030	10.298230	1.744567	-0.041138
 821	4.1000e-01	3.6129	45.023496	0.000666	6.663560	1.128838	-0.026618
 822	4.1050e-01	3.5931	44.858139	0.000828	8.278969	1.402495	-0.033071
 823	4.1100e-01	3.5733	44.680683	0.000888	8.884747	1.505117	-0.035491
 824	4.1150e-01	3.5538	44.442730	0.001191	11.913638	2.018225	-0.047591
 825	4.1200e-01	3.5345	44.289472	0.000767	7.673191	1.299874	-0.030652
 826	4.1250e-01	3.5126	44.144281	0.000727	7.269339	1.231459	-0.029038
 827	4.1300e-01	3.4937	43.970858	0.000868	8.682821	1.470910	-0.034685
 828	4.1350e-01	3.4732	43.833732	0.000687	6.865486	1.163045	-0.027425
 829	4.1400e-01	3.4535	43.664342	0.000848	8.480895	1.436703	-0.033878
 830	4.1450e-01	3.4332	43.446555	0.001090	10.904008	1.847189	-0.043557
 831	4.1500e-01	3.4132	43.321529	0.000626	6.259708	1.060423	-0.025005
 832	4.1550e-01	3.3942	43.103741	0.001090	10.904008	1.847189	-0.043557
 833	4.1600e-01	3.3736	42.853689	0.001252	12.519416	2.120847	-0.050010
 834	4.1650e-01	3.3533	42.805292	0.000242	2.423113	0.410486	-0.009679
 835	4.1700e-01	3.3334	42.631869	0.000868	8.682821	1.470910	-0.034685
 836	4.1750e-01	3.3127	42.381817	0.001252	12.519416	2.120847	-0.050010
 837	4.1800e-01	3.2935	42.220493	0.000808	8.077043	1.368288	-0.032265
 838	4.1850e-01	3.2734	42.083367	0.000687	6.865486	1.163045	-0.027425
 839	4.1900e-01	3.2538	41.885746	0.000989	9.894377	1.676153	-0.039524
 840	4.1950e-01	3.2330	41.752653	0.000666	6.663560	1.128838	-0.026618
 841	4.2000e-01	3.2124	41.583263	0.000848	8.480895	1.436703	-0.033878
 842	4.2050e-01	3.1931	41.434038	0.000747	7.471265	1.265666	-0.029845
 843	4.2100e-01	3.1734	41.280781	0.000767	7.673191	1.299874	-0.030652
 844	4.2150e-01	3.1526	41.038795	0.001212	12.115564	2.052432	-0.048397
 845	4.2200e-01	3.1325	40.865372	0.000868	8.682821	1.470910	-0.034685
 846	4.2250e-01	3.1134	40.740346	0.000626	6.259708	1.060423	-0.025005
 847	4.2300e-01	3.0933	40.542724	0.000989	9.894377	1.676153	-0.039524
 848	4.2350e-01	3.0737	40.417698	0.000626	6.259708	1.060423	-0.025005
 849	4.2400e-01	3.0536	40.191844	0.001131	11.307860	1.915603	-0.045171
 850	4.2450e-01	3.0330	39.953891	0.001191	11.913638	2.018225	-0.047591
 851	4.2500e-01	3.0133	39.840965	0.000565	5.653930	0.957802	-0.022585
 852	4.2550e-01	2.9938	39.675608	0.000828	8.278969	1.402495	-0.033071
 853	4.2600e-01	2.9737	39.498151	0.000888	8.884747	1.505117	-0.035491
 854	4.2650e-01	2.9526	39.248099	0.001252	12.519416	2.120847	-0.050010
 855	4.2700e-01	2.9340	39.090808	0.000788	7.875117	1.334081	-0.031458
 856	4.2750e-01	2.9134	38.953683	0.000687	6.865486	1.163045	-0.027425
 857	4.2800e-01	2.8937	38.796392	0.000788	7.875117	1.334081	-0.031458
 858	4.2850e-01	2.8735	38.449546	0.001737	17.365642	2.941819	-0.069369
 859	4.2900e-01	2.8528	38.465678	-0.000081	-0.807704	-0.136829	0.003226
 860	4.2950e-01	2.8320	38.247891	0.001090	10.904008	1.847189	-0.043557
 861	4.3000e-01	2.8134	38.070434	0.000888	8.884747	1.505117	-0.035491
 862	4.3050e-01	2.7924	37.901044	0.000848	8.480895	1.436703	-0.033878
 863	4.3100e-01	2.7730	37.759886	0.000707	7.067412	1.197252	-0.028232
 864	4.3150e-01	2.7533	37.554198	0.001030	10.298230	1.744567	-0.041138
 865	4.3200e-01	2.7328	37.380774	0.000868	8.682821	1.470910	-0.034685
 866	4.3250e-01	2.7124	37.187186	0.000969	9.692451	1.641946	-0.038718
 867	4.3300e-01	2.6923	36.985531	0.001010	10.096304	1.710360	-0.040331
 868	4.3350e-01	2.6733	36.800008	0.000929	9.288599	1.573531	-0.037105
 869	4.3400e-01	2.6532	36.590287	0.001050	10.500156	1.778775	-0.041944
 870	4.3450e-01	2.6332	36.441062	0.000747	7.471265	1.265666	-0.029845
 871	4.3500e-01	2.6128	36.283772	0.000788	7.875117	1.334081	-0.031458
 872	4.3550e-01	2.5922	36.134547	0.000747	7.471265	1.265666	-0.029845
 873	4.3600e-01	2.5725	35.904660	0.001151	11.509786	1.949811	-0.045977
 874	4.3650e-01	2.5531	35.743336	0.000808	8.077043	1.368288	-0.032265
 875	4.3700e-01	2.5320	35.533615	0.001050	10.500156	1.778775	-0.041944
 876	4.3750e-01	2.5129	35.376324	0.000788	7.875117	1.334081	-0.031458
 877	4.3800e-01	2.4939	35.182736	0.000969	9.692451	1.641946	-0.038718
 878	4.3850e-01	2.4733	34.997213	0.000929	9.288599	1.573531	-0.037105
 879	4.3900e-01	2.4530	34.843955	0.000767	7.673191	1.299874	-0.030652
 880	4.3950e-01	2.4341	34.714896	0.000646	6.461634	1.094630	-0.025812
 881	4.4000e-01	2.4136	34.456778	0.001292	12.923269	2.189261	-0.051624
 882	4.4050e-01	2.3932	34.230924	0.001131	11.307860	1.915603	-0.045171
 883	4.4100e-01	2.3731	34.053468	0.000888	8.884747	1.505117	-0.035491
 884	4.4150e-01	2.3532	33.892144	0.000808	8.077043	1.368288	-0.032265
 885	4.4200e-01	2.3334	33.755019	0.000687	6.865486	1.163045	-0.027425
 886	4.4250e-01	2.3129	33.557397	0.000989	9.894377	1.676153	-0.039524
 887	4.4300e-01	2.2923	33.355742	0.001010	10.096304	1.710360	-0.040331
 888	4.4350e-01	2.2732	33.218617	0.000687	6.865486	1.163045	-0.027425
 889	4.4400e-01	2.2537	32.960498	0.001292	12.923269	2.189261	-0.051624
 890	4.4450e-01	2.2327	32.839505	0.000606	6.057782	1.026216	-0.024199
 891	4.4500e-01	2.2125	32.601553	0.001191	11.913638	2.018225	-0.047591
 892	4.4550e-01	2.1928	32.444262	0.000788	7.875117	1.334081	-0.031458
 893	4.4600e-01	2.1719	32.270838	0.000868	8.682821	1.470910	-0.034685
 894	4.4650e-01	2.1533	32.085316	0.000929	9.288599	1.573531	-0.037105
 895	4.4700e-01	2.1329	31.855429	0.001151	11.509786	1.949811	-0.045977
 896	4.4750e-01	2.1130	31.698138	0.000788	7.875117	1.334081	-0.031458
 897	4.4800e-01	2.0929	31.528748	0.000848	8.480895	1.436703	-0.033878
 898	4.4850e-01	2.0725	31.327093	0.001010	10.096304	1.710360	-0.040331
 899	4.4900e-01	2.0520	31.109306	0.001090	10.904008	1.847189	-0.043557
 900	4.4950e-01	2.0334	30.968148	0.000707	7.067412	1.197252	-0.028232
 901	4.5000e-01	2.0129	30.742294	0.001131	11.307860	1.915603	-0.045171
 902	4.5050e-01	1.9928	30.633400	0.000545	5.452004	0.923594	-0.021779
 903	4.5100e-01	1.9728	30.403514	0.001151	11.509786	1.949811	-0.045977
 904	4.5150e-01	1.9527	30.238157	0.000828	8.278969	1.402495	-0.033071
 905	4.5200e-01	1.9312	29.681589	0.002787	27.865798	4.720594	-0.111314
 906	4.5250e-01	1.9132	29.988105	-0.001535	-15.346381	-2.599747	0.061303
 907	4.5300e-01	1.8924	29.596894	0.001959	19.586829	3.318099	-0.078242
 908	4.5350e-01	1.8727	29.423471	0.000868	8.682821	1.470910	-0.034685
 909	4.5400e-01	1.8533	29.367007	0.000283	2.826965	0.478901	-0.011293
 910	4.5450e-01	1.8329	29.112922	0.001272	12.721342	2.155054	-0.050817
 911	4.5500e-01	1.8134	28.854804	0.001292	12.923269	2.189261	-0.051624
 912	4.5550e-01	1.7929	28.689447	0.000828	8.278969	1.402495	-0.033071
 913	4.5600e-01	1.7724	28.528123	0.000808	8.077043	1.368288	-0.032265
 914	4.5650e-01	1.7526	28.302269	0.001131	11.307860	1.915603	-0.045171
 915	4.5700e-01	1.7322	28.169177	0.000666	6.663560	1.128838	-0.026618
 916	4.5750e-01	1.7123	27.939291	0.001151	11.509786	1.949811	-0.045977
 917	4.5800e-01	1.6934	27.790066	0.000747	7.471265	1.265666	-0.029845
 918	4.5850e-01	1.6728	27.540014	0.001252	12.519416	2.120847	-0.050010
 919	4.5900e-01	1.6528	27.362557	0.000888	8.884747	1.505117	-0.035491
 920	4.5950e-01	1.6323	27.160903	0.001010	10.096304	1.710360	-0.040331
 921	4.6000e-01	1.6132	26.971347	0.000949	9.490525	1.607739	-0.037911
 922	4.6050e-01	1.5937	26.822122	0.000747	7.471265	1.265666	-0.029845
 923	4.6100e-01	1.5726	26.636600	0.000929	9.288599	1.573531	-0.037105
 924	4.6150e-01	1.5526	26.418812	0.001090	10.904008	1.847189	-0.043557
 925	4.6200e-01	1.5327	26.221191	0.000989	9.894377	1.676153	-0.039524
 926	4.6250e-01	1.5125	26.011469	0.001050	10.500156	1.778775	-0.041944
 927	4.6300e-01	1.4925	25.866278	0.000727	7.269339	1.231459	-0.029038
 928	4.6350e-01	1.4734	25.648491	0.001090	10.904008	1.847189	-0.043557
 929	4.6400e-01	1.4523	25.434736	0.001070	10.702082	1.812982	-0.042751
 930	4.6450e-01	1.4322	25.277445	0.000788	7.875117	1.334081	-0.031458
 931	4.6500e-01	1.4122	25.087890	0.000949	9.490525	1.607739	-0.037911
 932	4.6550e-01	1.3926	24.914467	0.000868	8.682821	1.470910	-0.034685
 933	4.6600e-01	1.3731	24.716845	0.000989	9.894377	1.676153	-0.039524
 934	4.6650e-01	1.3530	24.539388	0.000888	8.884747	1.505117	-0.035491
 935	4.6700e-01	1.3329	24.333700	0.001030	10.298230	1.744567	-0.041138
 936	4.6750e-01	1.3118	24.091715	0.001212	12.115564	2.052432	-0.048397
 937	4.6800e-01	1.2920	23.982821	0.000545	5.452004	0.923594	-0.021779
 938	4.6850e-01	1.2722	23.752934	0.001151	11.509786	1.949811	-0.045977
 939	4.6900e-01	1.2543	23.575478	0.000888	8.884747	1.505117	-0.035491
 940	4.6950e-01	1.2337	23.365757	0.001050	10.500156	1.778775	-0.041944
 941	4.7000e-01	1.2135	23.196367	0.000848	8.480895	1.436703	-0.033878
 942	4.7050e-01	1.1930	22.962447	0.001171	11.711712	1.984018	-0.046784
 943	4.7100e-01	1.1734	22.865653	0.000485	4.846226	0.820973	-0.019359
 944	4.7150e-01	1.1533	22.575269	0.001454	14.538677	2.462919	-0.058077
 945	4.7200e-01	1.1339	22.369581	0.001030	10.298230	1.744567	-0.041138
 946	4.7250e-01	1.1127	22.167926	0.001010	10.096304	1.710360	-0.040331
 947	4.7300e-01	1.0928	21.998536	0.000848	8.480895	1.436703	-0.033878
 948	4.7350e-01	1.0732	21.808981	0.000949	9.490525	1.607739	-0.037911
 949	4.7400e-01	1.0532	21.619425	0.000949	9.490525	1.607739	-0.037911
 950	4.7450e-01	1.0327	21.429869	0.000949	9.490525	1.607739	-0.037911
 951	4.7500e-01	1.0128	21.256446	0.000868	8.682821	1.470910	-0.034685
 952	4.7550e-01	0.9922	21.026560	0.001151	11.509786	1.949811	-0.045977
 953	4.7600e-01	0.9734	20.816838	0.001050	10.500156	1.778775	-0.041944
 954	4.7650e-01	0.9528	20.643415	0.000868	8.682821	1.470910	-0.034685
 955	4.7700e-01	0.9326	20.413529	0.001151	11.509786	1.949811	-0.045977
 956	4.7750e-01	0.9128	20.284469	0.000646	6.461634	1.094630	-0.025812
 957	4.7800e-01	0.8927	19.981987	0.001514	15.144455	2.565540	-0.060496
 958	4.7850e-01	0.8737	19.808564	0.000868	8.682821	1.470910	-0.034685
 959	4.7900e-01	0.8528	19.643207	0.000828	8.278969	1.402495	-0.033071
 960	4.7950e-01	0.8321	19.449618	0.000969	9.692451	1.641946	-0.038718
 961	4.8000e-01	0.8137	19.308460	0.000707	7.067412	1.197252	-0.028232
 962	4.8050e-01	0.7925	19.042275	0.001333	13.327121	2.257675	-0.053237
 963	4.8100e-01	0.7728	18.816422	0.001131	11.307860	1.915603	-0.045171
 964	4.8150e-01	0.7536	18.679296	0.000687	6.865486	1.163045	-0.027425
 965	4.8200e-01	0.7333	18.433277	0.001232	12.317490	2.086639	-0.049204
 966	4.8250e-01	0.7122	18.271953	0.000808	8.077043	1.368288	-0.032265
 967	4.8300e-01	0.6930	18.038033	0.001171	11.711712	1.984018	-0.046784
 968	4.8350e-01	0.6726	17.852511	0.000929	9.288599	1.573531	-0.037105
 969	4.8400e-01	0.6521	17.642790	0.001050	10.500156	1.778775	-0.041944
 970	4.8450e-01	0.6322	17.469367	0.000868	8.682821	1.470910	-0.034685
 971	4.8500e-01	0.6117	17.267712	0.001010	10.096304	1.710360	-0.040331
 972	4.8550e-01	0.5930	17.114454	0.000767	7.673191	1.299874	-0.030652
 973	4.8600e-01	0.5720	16.864402	0.001252	12.519416	2.120847	-0.050010
 974	4.8650e-01	0.5530	16.654681	0.001050	10.500156	1.778775	-0.041944
 975	4.8700e-01	0.5328	16.477224	0.000888	8.884747	1.505117	-0.035491
 976	4.8750e-01	0.5120	16.295735	0.000909	9.086673	1.539324	-0.036298
 977	4.8800e-01	0.4932	16.106179	0.000949	9.490525	1.607739	-0.037911
 978	4.8850e-01	0.4720	15.888392	0.001090	10.904008	1.847189	-0.043557
 979	4.8900e-01	0.4517	15.658505	0.001151	11.509786	1.949811	-0.045977
 980	4.8950e-01	0.4324	15.525413	0.000666	6.663560	1.128838	-0.026618
 981	4.9000e-01	0.4127	15.271328	0.001272	12.721342	2.155054	-0.050817
 982	4.9050e-01	0.3931	15.081772	0.000949	9.490525	1.607739	-0.037911
 983	4.9100e-01	0.3732	14.863985	0.001090	10.904008	1.847189	-0.043557
 984	4.9150e-01	0.3527	14.674429	0.000949	9.490525	1.607739	-0.037911
 985	4.9200e-01	0.3316	14.420344	0.001272	12.721342	2.155054	-0.050817
 986	4.9250e-01	0.3130	14.259020	0.000808	8.077043	1.368288	-0.032265
 987	4.9300e-01	0.2922	14.061398	0.000989	9.894377	1.676153	-0.039524
 988	4.9350e-01	0.2728	13.859743	0.001010	10.096304	1.710360	-0.040331
 989	4.9400e-01	0.2517	13.650022	0.001050	10.500156	1.778775	-0.041944
 990	4.9450e-01	0.2316	13.420136	0.001151	11.509786	1.949811	-0.045977
 991	4.9500e-01	0.2124	13.274944	0.000727	7.269339	1.231459	-0.029038
 992	4.9550e-01	0.1926	13.093455	0.000909	9.086673	1.539324	-0.036298
 993	4.9600e-01	0.1727	12.875667	0.001090	10.904008	1.847189	-0.043557
 994	4.9650e-01	0.1514	12.698211	0.000888	8.884747	1.505117	-0.035491
 995	4.9700e-01	0.1318	12.456225	0.001212	12.115564	2.052432	-0.048397
 996	4.9750e-01	0.1116	12.238438	0.001090	10.904008	1.847189	-0.043557
 997	4.9800e-01	0.0933	12.169875	0.000343	3.432743	0.581522	-0.013713
 998	4.9850e-01	0.0714	11.762532	0.002039	20.394533	3.454927	-0.081469
 999	4.9900e-01	0.0526	11.714135	0.000242	2.423113	0.410486	-0.009679
1000	4.9950e-01	0.0321	11.564910	0.000747	7.471265	1.265666	-0.029845
1001	5.0000e-01	0.0119	11.193865	0.001858	18.577199	3.147063	-0.074209
1002	5.0050e-01	-0.0074	11.032541	0.000808	8.077043	1.368288	-0.032265
1003	5.0100e-01	-0.0262	10.863151	0.000848	8.480895	1.436703	-0.033878
1004	5.0150e-01	-0.0465	10.637298	0.001131	11.307860	1.915603	-0.045171
1005	5.0200e-01	-0.0668	10.427576	0.001050	10.500156	1.778775	-0.041944
1006	5.0250e-01	-0.0866	10.250120	0.000888	8.884747	1.505117	-0.035491
1007	5.0300e-01	-0.1062	10.068631	0.000909	9.086673	1.539324	-0.036298
1008	5.0350e-01	-0.1257	9.846810	0.001111	11.105934	1.881396	-0.044364
1009	5.0400e-01	-0.1466	9.661288	0.000929	9.288599	1.573531	-0.037105
1010	5.0450e-01	-0.1663	9.479798	0.000909	9.086673	1.539324	-0.036298
1011	5.0500e-01	-0.1864	9.221680	0.001292	12.923269	2.189261	-0.051624
1012	5.0550e-01	-0.2057	8.995826	0.001131	11.307860	1.915603	-0.045171
1013	5.0600e-01	-0.2264	8.834502	0.000808	8.077043	1.368288	-0.032265
1014	5.0650e-01	-0.2454	8.608649	0.001131	11.307860	1.915603	-0.045171
1015	5.0700e-01	-0.2661	8.459424	0.000747	7.471265	1.265666	-0.029845
1016	5.0750e-01	-0.2866	8.241637	0.001090	10.904008	1.847189	-0.043557
1017	5.0800e-01	-0.3059	7.959320	0.001413	14.134825	2.394504	-0.056463
1018	5.0850e-01	-0.3260	7.802029	0.000788	7.875117	1.334081	-0.031458
1019	5.0900e-01	-0.3462	7.564076	0.001191	11.913638	2.018225	-0.047591
1020	5.0950e-01	-0.3663	7.414852	0.000747	7.471265	1.265666	-0.029845
1021	5.1000e-01	-0.3862	7.184965	0.001151	11.509786	1.949811	-0.045977
1022	5.1050e-01	-0.4070	7.015575	0.000848	8.480895	1.436703	-0.033878
1023	5.1100e-01	-0.4265	6.793755	0.001111	11.105934	1.881396	-0.044364
1024	5.1150e-01	-0.4471	6.588067	0.001030	10.298230	1.744567	-0.041138
1025	5.1200e-01	-0.4662	6.366246	0.001111	11.105934	1.881396	-0.044364
1026	5.1250e-01	-0.4861	6.164591	0.001010	10.096304	1.710360	-0.040331
1027	5.1300e-01	-0.5059	5.942771	0.001111	11.105934	1.881396	-0.044364
1028	5.1350e-01	-0.5265	5.825811	0.000586	5.855856	0.992009	-0.023392
1029	5.1400e-01	-0.5476	5.503163	0.001615	16.154086	2.736576	-0.064530
1030	5.1450e-01	-0.5665	5.374104	0.000646	6.461634	1.094630	-0.025812
1031	5.1500e-01	-0.5866	5.168416	0.001030	10.298230	1.744567	-0.041138
1032	5.1550e-01	-0.6068	4.958695	0.001050	10.500156	1.778775	-0.041944
1033	5.1600e-01	-0.6265	4.712676	0.001232	12.317490	2.086639	-0.049204
1034	5.1650e-01	-0.6465	4.523120	0.000949	9.490525	1.607739	-0.037911
1035	5.1700e-01	-0.6672	4.325498	0.000989	9.894377	1.676153	-0.039524
1036	5.1750e-01	-0.6860	4.111744	0.001070	10.702082	1.812982	-0.042751
1037	5.1800e-01	-0.7066	3.906056	0.001030	10.298230	1.744567	-0.041138
1038	5.1850e-01	-0.7260	3.692302	0.001070	10.702082	1.812982	-0.042751
1039	5.1900e-01	-0.7472	3.470481	0.001111	11.105934	1.881396	-0.044364
1040	5.1950e-01	-0.7668	3.333356	0.000687	6.865486	1.163045	-0.027425
1041	5.2000e-01	-0.7870	3.091370	0.001212	12.115564	2.052432	-0.048397
1042	5.2050e-01	-0.8065	2.873583	0.001090	10.904008	1.847189	-0.043557
1043	5.2100e-01	-0.8268	2.692093	0.000909	9.086673	1.539324	-0.036298
1044	5.2150e-01	-0.8468	2.454140	0.001191	11.913638	2.018225	-0.047591
1045	5.2200e-01	-0.8670	2.236353	0.001090	10.904008	1.847189	-0.043557
1046	5.2250e-01	-0.8872	2.079062	0.000788	7.875117	1.334081	-0.031458
1047	5.2300e-01	-0.9066	1.869341	0.001050	10.500156	1.778775	-0.041944
1048	5.2350e-01	-0.9272	1.647521	0.001111	11.105934	1.881396	-0.044364
1049	5.2400e-01	-0.9460	1.441833	0.001030	10.298230	1.744567	-0.041138
1050	5.2450e-01	-0.9663	1.288575	0.000767	7.673191	1.299874	-0.030652
1051	5.2500e-01	-0.9864	1.030457	0.001292	12.923269	2.189261	-0.051624
1052	5.2550e-01	-1.0065	0.812669	0.001090	10.904008	1.847189	-0.043557
1053	5.2600e-01	-1.0261	0.635213	0.000888	8.884747	1.505117	-0.035491
1054	5.2650e-01	-1.0469	0.433558	0.001010	10.096304	1.710360	-0.040331
1055	5.2700e-01	-1.0664	0.235936	0.000989	9.894377	1.676153	-0.039524
1056	5.2750e-01	-1.0869	0.022182	0.001070	10.702082	1.812982	-0.042751
1057	5.2800e-01	-1.1069	-0.167374	0.000949	9.490525	1.607739	-0.037911
1058	5.2850e-01	-1.1273	-0.397260	0.001151	11.509786	1.949811	-0.045977
1059	5.2900e-01	-1.1470	-0.602948	0.001030	10.298230	1.744567	-0.041138
1060	5.2950e-01	-1.1668	-0.788471	0.000929	9.288599	1.573531	-0.037105
1061	5.3000e-01	-1.1867	-1.014324	0.001131	11.307860	1.915603	-0.045171
1062	5.3050e-01	-1.2067	-1.232112	0.001090	10.904008	1.847189	-0.043557
1063	5.3100e-01	-1.2267	-1.405535	0.000868	8.682821	1.470910	-0.034685
1064	5.3150e-01	-1.2464	-1.643488	0.001191	11.913638	2.018225	-0.047591
1065	5.3200e-01	-1.2672	-1.857242	0.001070	10.702082	1.812982	-0.042751
1066	5.3250e-01	-1.2872	-2.038731	0.000909	9.086673	1.539324	-0.036298
1067	5.3300e-01	-1.3062	-2.236353	0.000989	9.894377	1.676153	-0.039524
1068	5.3350e-01	-1.3258	-2.466240	0.001151	11.509786	1.949811	-0.045977
1069	5.3400e-01	-1.3467	-2.684027	0.001090	10.904008	1.847189	-0.043557
1070	5.3450e-01	-1.3667	-2.873583	0.000949	9.490525	1.607739	-0.037911
1071	5.3500e-01	-1.3869	-3.079271	0.001030	10.298230	1.744567	-0.041138
1072	5.3550e-01	-1.4066	-3.284959	0.001030	10.298230	1.744567	-0.041138
1073	5.3600e-01	-1.4260	-3.470481	0.000929	9.288599	1.573531	-0.037105
1074	5.3650e-01	-1.4463	-3.704401	0.001171	11.711712	1.984018	-0.046784
1075	5.3700e-01	-1.4668	-3.922188	0.001090	10.904008	1.847189	-0.043557
1076	5.3750e-01	-1.4864	-4.115777	0.000969	9.692451	1.641946	-0.038718
1077	5.3800e-01	-1.5064	-4.337598	0.001111	11.105934	1.881396	-0.044364
1078	5.3850e-01	-1.5269	-4.506988	0.000848	8.480895	1.436703	-0.033878
1079	5.3900e-01	-1.5473	-4.757040	0.001252	12.519416	2.120847	-0.050010
1080	5.3950e-01	-1.5668	-4.918364	0.000808	8.077043	1.368288	-0.032265
1081	5.4000e-01	-1.5866	-5.128085	0.001050	10.500156	1.778775	-0.041944
1082	5.4050e-01	-1.6062	-5.386203	0.001292	12.923269	2.189261	-0.051624
1083	5.4100e-01	-1.6267	-5.555593	0.000848	8.480895	1.436703	-0.033878
1084	5.4150e-01	-1.6470	-5.769348	0.001070	10.702082	1.812982	-0.042751
1085	5.4200e-01	-1.6676	-5.942771	0.000868	8.682821	1.470910	-0.034685
1086	5.4250e-01	-1.6856	-6.188790	0.001232	12.317490	2.086639	-0.049204
1087	5.4300e-01	-1.7068	-6.342048	0.000767	7.673191	1.299874	-0.030652
1088	5.4350e-01	-1.7268	-6.523537	0.000909	9.086673	1.539324	-0.036298
1089	5.4400e-01	-1.7465	-6.817953	0.001474	14.740603	2.497126	-0.058883
1090	5.4450e-01	-1.7664	-6.983310	0.000828	8.278969	1.402495	-0.033071
1091	5.4500e-01	-1.7884	-7.245462	0.001313	13.125195	2.223468	-0.052430
1092	5.4550e-01	-1.8063	-7.402752	0.000788	7.875117	1.334081	-0.031458
1093	5.4600e-01	-1.8266	-7.608441	0.001030	10.298230	1.744567	-0.041138
1094	5.4650e-01	-1.8467	-7.773798	0.000828	8.278969	1.402495	-0.033071
1095	5.4700e-01	-1.8662	-7.975452	0.001010	10.096304	1.710360	-0.040331
1096	5.4750e-01	-1.8877	-8.241637	0.001333	13.327121	2.257675	-0.053237
1097	5.4800e-01	-1.9071	-8.411027	0.000848	8.480895	1.436703	-0.033878
1098	5.4850e-01	-1.9273	-8.632848	0.001111	11.105934	1.881396	-0.044364
1099	5.4900e-01	-1.9462	-8.814337	0.000909	9.086673	1.539324	-0.036298
1100	5.4950e-01	-1.9666	-9.052290	0.001191	11.913638	2.018225	-0.047591
1101	5.5000e-01	-1.9866	-9.278143	0.001131	11.307860	1.915603	-0.045171
1102	5.5050e-01	-2.0072	-9.475765	0.000989	9.894377	1.676153	-0.039524
1103	5.5100e-01	-2.0264	-9.616924	0.000707	7.067412	1.197252	-0.028232
1104	5.5150e-01	-2.0473	-9.830678	0.001070	10.702082	1.812982	-0.042751
1105	5.5200e-01	-2.0670	-10.084763	0.001272	12.721342	2.155054	-0.050817
1106	5.5250e-01	-2.0863	-10.229955	0.000727	7.269339	1.231459	-0.029038
1107	5.5300e-01	-2.1064	-10.463874	0.001171	11.711712	1.984018	-0.046784
1108	5.5350e-01	-2.1264	-10.693761	0.001151	11.509786	1.949811	-0.045977
1109	5.5400e-01	-2.1461	-10.879283	0.000929	9.288599	1.573531	-0.037105
1110	5.5450e-01	-2.1671	-11.076905	0.000989	9.894377	1.676153	-0.039524
1111	5.5500e-01	-2.1864	-11.286626	0.001050	10.500156	1.778775	-0.041944
1112	5.5550e-01	-2.2066	-11.488281	0.001010	10.096304	1.710360	-0.040331
1113	5.5600e-01	-2.2272	-11.738333	0.001252	12.519416	2.120847	-0.050010
1114	5.5650e-01	-2.2475	-11.851260	0.000565	5.653930	0.957802	-0.022585
1115	5.5700e-01	-2.2669	-12.097279	0.001232	12.317490	2.086639	-0.049204
1116	5.5750e-01	-2.2865	-12.290868	0.000969	9.692451	1.641946	-0.038718
1117	5.5800e-01	-2.3067	-12.577218	0.001434	14.336751	2.428711	-0.057270
1118	5.5850e-01	-2.3267	-12.698211	0.000606	6.057782	1.026216	-0.024199
1119	5.5900e-01	-2.3472	-12.907932	0.001050	10.500156	1.778775	-0.041944
1120	5.5950e-01	-2.3675	-13.117653	0.001050	10.500156	1.778775	-0.041944
1121	5.6000e-01	-2.3869	-13.311242	0.000969	9.692451	1.641946	-0.038718
1122	5.6050e-01	-2.4073	-13.492731	0.000909	9.086673	1.539324	-0.036298
1123	5.6100e-01	-2.4270	-13.710519	0.001090	10.904008	1.847189	-0.043557
1124	5.6150e-01	-2.4470	-13.900074	0.000949	9.490525	1.607739	-0.037911
1125	5.6200e-01	-2.4679	-14.109795	0.001050	10.500156	1.778775	-0.041944
1126	5.6250e-01	-2.4877	-14.355814	0.001232	12.317490	2.086639	-0.049204
1127	5.6300e-01	-2.5071	-14.509072	0.000767	7.673191	1.299874	-0.030652
1128	5.6350e-01	-2.5282	-14.759124	0.001252	12.519416	2.120847	-0.050010
1129	5.6400e-01	-2.5468	-14.920448	0.000808	8.077043	1.368288	-0.032265
1130	5.6450e-01	-2.5672	-15.134203	0.001070	10.702082	1.812982	-0.042751
1131	5.6500e-01	-2.5869	-15.279394	0.000727	7.269339	1.231459	-0.029038
1132	5.6550e-01	-2.6069	-15.557678	0.001393	13.932899	2.360297	-0.055657
1133	5.6600e-01	-2.6270	-15.719002	0.000808	8.077043	1.368288	-0.032265
1134	5.6650e-01	-2.6472	-15.924690	0.001030	10.298230	1.744567	-0.041138
1135	5.6700e-01	-2.6664	-16.166676	0.001212	12.115564	2.052432	-0.048397
1136	5.6750e-01	-2.6865	-16.360264	0.000969	9.692451	1.641946	-0.038718
1137	5.6800e-01	-2.7070	-16.553853	0.000969	9.692451	1.641946	-0.038718
1138	5.6850e-01	-2.7275	-16.739376	0.000929	9.288599	1.573531	-0.037105
1139	5.6900e-01	-2.7467	-16.928931	0.000949	9.490525	1.607739	-0.037911
1140	5.6950e-01	-2.7662	-17.130586	0.001010	10.096304	1.710360	-0.040331
1141	5.7000e-01	-2.7869	-17.352407	0.001111	11.105934	1.881396	-0.044364
1142	5.7050e-01	-2.8065	-17.517764	0.000828	8.278969	1.402495	-0.033071
1143	5.7100e-01	-2.8272	-17.715386	0.000989	9.894377	1.676153	-0.039524
1144	5.7150e-01	-2.8468	-17.904941	0.000949	9.490525	1.607739	-0.037911
1145	5.7200e-01	-2.8658	-18.146927	0.001212	12.115564	2.052432	-0.048397
1146	5.7250e-01	-2.8863	-18.300185	0.000767	7.673191	1.299874	-0.030652
1147	5.7300e-01	-2.9073	-18.522005	0.001111	11.105934	1.881396	-0.044364
1148	5.7350e-01	-2.9273	-18.776091	0.001272	12.721342	2.155054	-0.050817
1149	5.7400e-01	-2.9466	-18.913216	0.000687	6.865486	1.163045	-0.027425
1150	5.7450e-01	-2.9679	-19.110838	0.000989	9.894377	1.676153	-0.039524
1151	5.7500e-01	-2.9877	-19.368956	0.001292	12.923269	2.189261	-0.051624
1152	5.7550e-01	-3.0076	-19.566578	0.000989	9.894377	1.676153	-0.039524
1153	5.7600e-01	-3.0264	-19.731935	0.000828	8.278969	1.402495	-0.033071
1154	5.7650e-01	-3.0473	-19.941656	0.001050	10.500156	1.778775	-0.041944
1155	5.7700e-01	-3.0665	-20.139278	0.000989	9.894377	1.676153	-0.039524
1156	5.7750e-01	-3.0872	-20.316734	0.000888	8.884747	1.505117	-0.035491
1157	5.7800e-01	-3.1070	-20.502257	0.000929	9.288599	1.573531	-0.037105
1158	5.7850e-01	-3.1269	-20.687779	0.000929	9.288599	1.573531	-0.037105
1159	5.7900e-01	-3.1480	-20.897500	0.001050	10.500156	1.778775	-0.041944
1160	5.7950e-01	-3.1672	-21.155619	0.001292	12.923269	2.189261	-0.051624
1161	5.8000e-01	-3.1869	-21.292744	0.000687	6.865486	1.163045	-0.027425
1162	5.8050e-01	-3.2076	-21.554895	0.001313	13.125195	2.223468	-0.052430
1163	5.8100e-01	-3.2278	-21.712186	0.000788	7.875117	1.334081	-0.031458
1164	5.8150e-01	-3.2468	-21.881576	0.000848	8.480895	1.436703	-0.033878
1165	5.8200e-01	-3.2679	-22.079198	0.000989	9.894377	1.676153	-0.039524
1166	5.8250e-01	-3.2874	-22.232456	0.000767	7.673191	1.299874	-0.030652
1167	5.8300e-01	-3.3076	-22.482508	0.001252	12.519416	2.120847	-0.050010
1168	5.8350e-01	-3.3266	-22.676097	0.000969	9.692451	1.641946	-0.038718
1169	5.8400e-01	-3.3466	-22.865653	0.000949	9.490525	1.607739	-0.037911
1170	5.8450e-01	-3.3675	-23.079407	0.001070	10.702082	1.812982	-0.042751
1171	5.8500e-01	-3.3866	-23.268962	0.000949	9.490525	1.607739	-0.037911
1172	5.8550e-01	-3.4075	-23.490783	0.001111	11.105934	1.881396	-0.044364
1173	5.8600e-01	-3.4278	-23.688405	0.000989	9.894377	1.676153	-0.039524
1174	5.8650e-01	-3.4476	-23.869894	0.000909	9.086673	1.539324	-0.036298
1175	5.8700e-01	-3.4675	-24.035251	0.000828	8.278969	1.402495	-0.033071
1176	5.8750e-01	-3.4876	-24.236906	0.001010	10.096304	1.710360	-0.040331
1177	5.8800e-01	-3.5063	-24.414362	0.000888	8.884747	1.505117	-0.035491
1178	5.8850e-01	-3.5280	-24.644249	0.001151	11.509786	1.949811	-0.045977
1179	5.8900e-01	-3.5468	-24.983029	0.001696	16.961790	2.873405	-0.067756
1180	5.8950e-01	-3.5679	-25.031426	0.000242	2.423113	0.410486	-0.009679
1181	5.9000e-01	-3.5877	-25.249214	0.001090	10.904008	1.847189	-0.043557
1182	5.9050e-01	-3.6085	-25.430703	0.000909	9.086673	1.539324	-0.036298
1183	5.9100e-01	-3.6272	-25.579928	0.000747	7.471265	1.265666	-0.029845
1184	5.9150e-01	-3.6475	-25.809815	0.001151	11.509786	1.949811	-0.045977
1185	5.9200e-01	-3.6677	-26.007436	0.000989	9.894377	1.676153	-0.039524
1186	5.9250e-01	-3.6875	-26.160694	0.000767	7.673191	1.299874	-0.030652
1187	5.9300e-01	-3.7080	-26.362349	0.001010	10.096304	1.710360	-0.040331
1188	5.9350e-01	-3.7275	-26.555938	0.000969	9.692451	1.641946	-0.038718
1189	5.9400e-01	-3.7471	-26.761626	0.001030	10.298230	1.744567	-0.041138
1190	5.9450e-01	-3.7672	-26.951181	0.000949	9.490525	1.607739	-0.037911
1191	5.9500e-01	-3.7882	-27.164936	0.001070	10.702082	1.812982	-0.042751
1192	5.9550e-01	-3.8074	-27.362557	0.000989	9.894377	1.676153	-0.039524
1193	5.9600e-01	-3.8264	-27.527915	0.000828	8.278969	1.402495	-0.033071
1194	5.9650e-01	-3.8467	-27.693272	0.000828	8.278969	1.402495	-0.033071
1195	5.9700e-01	-3.8667	-27.878794	0.000929	9.288599	1.573531	-0.037105
1196	5.9750e-01	-3.8865	-28.120780	0.001212	12.115564	2.052432	-0.048397
1197	5.9800e-01	-3.9064	-28.241773	0.000606	6.057782	1.026216	-0.024199
1198	5.9850e-01	-3.9277	-28.572487	0.001656	16.557938	2.804991	-0.066143
1199	5.9900e-01	-3.9478	-28.604752	0.000162	1.615409	0.273658	-0.006453
1200	5.9950e-01	-3.9671	-28.802374	0.000989	9.894377	1.676153	-0.039524
1201	6.0000e-01	-3.9870	-29.032260	0.001151	11.509786	1.949811	-0.045977
1202	6.0050e-01	-4.0064	-29.209717	0.000888	8.884747	1.505117	-0.035491
1203	6.0100e-01	-4.0275	-29.419438	0.001050	10.500156	1.778775	-0.041944
1204	6.0150e-01	-4.0475	-29.608993	0.000949	9.490525	1.607739	-0.037911
1205	6.0200e-01	-4.0662	-29.794516	0.000929	9.288599	1.573531	-0.037105
1206	6.0250e-01	-4.0876	-29.911476	0.000586	5.855856	0.992009	-0.023392
1207	6.0300e-01	-4.1077	-30.213958	0.001514	15.144455	2.565540	-0.060496
1208	6.0350e-01	-4.1276	-30.395448	0.000909	9.086673	1.539324	-0.036298
1209	6.0400e-01	-4.1471	-30.548705	0.000767	7.673191	1.299874	-0.030652
1210	6.0450e-01	-4.1669	-30.701963	0.000767	7.673191	1.299874	-0.030652
1211	6.0500e-01	-4.1874	-30.907651	0.001030	10.298230	1.744567	-0.041138
1212	6.0550e-01	-4.2072	-31.113339	0.001030	10.298230	1.744567	-0.041138
1213	6.0600e-01	-4.2268	-31.258531	0.000727	7.269339	1.231459	-0.029038
1214	6.0650e-01	-4.2472	-31.452119	0.000969	9.692451	1.641946	-0.038718
1215	6.0700e-01	-4.2683	-31.605377	0.000767	7.673191	1.299874	-0.030652
1216	6.0750e-01	-4.2872	-31.859462	0.001272	12.721342	2.155054	-0.050817
1217	6.0800e-01	-4.3073	-32.040952	0.000909	9.086673	1.539324	-0.036298
1218	6.0850e-01	-4.3276	-32.210342	0.000848	8.480895	1.436703	-0.033878
1219	6.0900e-01	-4.3476	-32.403931	0.000969	9.692451	1.641946	-0.038718
1220	6.0950e-01	-4.3667	-32.577354	0.000868	8.682821	1.470910	-0.034685
1221	6.1000e-01	-4.3874	-32.770943	0.000969	9.692451	1.641946	-0.038718
1222	6.1050e-01	-4.4080	-32.924200	0.000767	7.673191	1.299874	-0.030652
1223	6.1100e-01	-4.4277	-33.129888	0.001030	10.298230	1.744567	-0.041138
1224	6.1150e-01	-4.4474	-33.311378	0.000909	9.086673	1.539324	-0.036298
1225	6.1200e-01	-4.4669	-33.533198	0.001111	11.105934	1.881396	-0.044364
1226	6.1250e-01	-4.4877	-33.702588	0.000848	8.480895	1.436703	-0.033878
1227	6.1300e-01	-4.5078	-33.916343	0.001070	10.702082	1.812982	-0.042751
1228	6.1350e-01	-4.5277	-34.053468	0.000687	6.865486	1.163045	-0.027425
1229	6.1400e-01	-4.5472	-34.226891	0.000868	8.682821	1.470910	-0.034685
1230	6.1450e-01	-4.5679	-34.396281	0.000848	8.480895	1.436703	-0.033878
1231	6.1500e-01	-4.5869	-34.606003	0.001050	10.500156	1.778775	-0.041944
1232	6.1550e-01	-4.6076	-34.759260	0.000767	7.673191	1.299874	-0.030652
1233	6.1600e-01	-4.6272	-34.944783	0.000929	9.288599	1.573531	-0.037105
1234	6.1650e-01	-4.6476	-35.186769	0.001212	12.115564	2.052432	-0.048397
1235	6.1700e-01	-4.6674	-35.291629	0.000525	5.250078	0.889387	-0.020972
1236	6.1750e-01	-4.6877	-35.553781	0.001313	13.125195	2.223468	-0.052430
1237	6.1800e-01	-4.7071	-35.698972	0.000727	7.269339	1.231459	-0.029038
1238	6.1850e-01	-4.7279	-35.852230	0.000767	7.673191	1.299874	-0.030652
1239	6.1900e-01	-4.7474	-36.041786	0.000949	9.490525	1.607739	-0.037911
1240	6.1950e-01	-4.7678	-36.243441	0.001010	10.096304	1.710360	-0.040331
1241	6.2000e-01	-4.7877	-36.396698	0.000767	7.673191	1.299874	-0.030652
1242	6.2050e-01	-4.8078	-36.630618	0.001171	11.711712	1.984018	-0.046784
1243	6.2100e-01	-4.8273	-36.795975	0.000828	8.278969	1.402495	-0.033071
1244	6.2150e-01	-4.8475	-36.981498	0.000929	9.288599	1.573531	-0.037105
1245	6.2200e-01	-4.8673	-37.130722	0.000747	7.471265	1.265666	-0.029845
1246	6.2250e-01	-4.8872	-37.344477	0.001070	10.702082	1.812982	-0.042751
1247	6.2300e-01	-4.9079	-37.477569	0.000666	6.663560	1.128838	-0.026618
1248	6.2350e-01	-4.9274	-37.691323	0.001070	10.702082	1.812982	-0.042751
1249	6.2400e-01	-4.9476	-37.868779	0.000888	8.884747	1.505117	-0.035491
1250	6.2450e-01	-4.9680	-38.034136	0.000828	8.278969	1.402495	-0.033071
1251	6.2500e-01	-4.9873	-38.223692	0.000949	9.490525	1.607739	-0.037911
1252	6.2550e-01	-5.0080	-38.421314	0.000989	9.894377	1.676153	-0.039524
1253	6.2600e-01	-5.0275	-38.546340	0.000626	6.259708	1.060423	-0.025005
1254	6.2650e-01	-5.0492	-38.776227	0.001151	11.509786	1.949811	-0.045977
1255	6.2700e-01	-5.0672	-38.961749	0.000929	9.288599	1.573531	-0.037105
1256	6.2750e-01	-5.0874	-39.090808	0.000646	6.461634	1.094630	-0.025812
1257	6.2800e-01	-5.1075	-39.264231	0.000868	8.682821	1.470910	-0.034685
1258	6.2850e-01	-5.1276	-39.461853	0.000989	9.894377	1.676153	-0.039524
1259	6.2900e-01	-5.1475	-39.651409	0.000949	9.490525	1.607739	-0.037911
1260	6.2950e-01	-5.1679	-39.828865	0.000888	8.884747	1.505117	-0.035491
1261	6.3000e-01	-5.1875	-40.006322	0.000888	8.884747	1.505117	-0.035491
1262	6.3050e-01	-5.2082	-40.167646	0.000808	8.077043	1.368288	-0.032265
1263	6.3100e-01	-5.2277	-40.312837	0.000727	7.269339	1.231459	-0.029038
1264	6.3150e-01	-5.2479	-40.514492	0.001010	10.096304	1.710360	-0.040331
1265	6.3200e-01	-5.2683	-40.700015	0.000929	9.288599	1.573531	-0.037105
1266	6.3250e-01	-5.2879	-40.905703	0.001030	10.298230	1.744567	-0.041138
1267	6.3300e-01	-5.3083	-41.067027	0.000808	8.077043	1.368288	-0.032265
1268	6.3350e-01	-5.3281	-41.240450	0.000868	8.682821	1.470910	-0.034685
1269	6.3400e-01	-5.3468	-41.385641	0.000727	7.269339	1.231459	-0.029038
1270	6.3450e-01	-5.3669	-41.393708	0.000040	0.403852	0.068414	-0.001613
1271	6.3500e-01	-5.3883	-41.861547	0.002342	23.423424	3.968035	-0.093568
1272	6.3550e-01	-5.4072	-41.909944	0.000242	2.423113	0.410486	-0.009679
1273	6.3600e-01	-5.4279	-42.111599	0.001010	10.096304	1.710360	-0.040331
1274	6.3650e-01	-5.4464	-42.345519	0.001171	11.711712	1.984018	-0.046784
1275	6.3700e-01	-5.4673	-42.430214	0.000424	4.240447	0.718351	-0.016939
1276	6.3750e-01	-5.4881	-42.676233	0.001232	12.317490	2.086639	-0.049204
1277	6.3800e-01	-5.5079	-42.821424	0.000727	7.269339	1.231459	-0.029038
1278	6.3850e-01	-5.5286	-43.023079	0.001010	10.096304	1.710360	-0.040331
1279	6.3900e-01	-5.5476	-43.180370	0.000788	7.875117	1.334081	-0.031458
1280	6.3950e-01	-5.5683	-43.349760	0.000848	8.480895	1.436703	-0.033878
1281	6.4000e-01	-5.5873	-43.511084	0.000808	8.077043	1.368288	-0.032265
1282	6.4050e-01	-5.6080	-43.636110	0.000626	6.259708	1.060423	-0.025005
1283	6.4100e-01	-5.6287	-43.781302	0.000727	7.269339	1.231459	-0.029038
1284	6.4150e-01	-5.6483	-44.116049	0.001676	16.759864	2.839198	-0.066949
1285	6.4200e-01	-5.6684	-44.277373	0.000808	8.077043	1.368288	-0.032265
1286	6.4250e-01	-5.6886	-44.454829	0.000888	8.884747	1.505117	-0.035491
1287	6.4300e-01	-5.7081	-44.591955	0.000687	6.865486	1.163045	-0.027425
1288	6.4350e-01	-5.7282	-44.777477	0.000929	9.288599	1.573531	-0.037105
1289	6.4400e-01	-5.7478	-44.954934	0.000888	8.884747	1.505117	-0.035491
1290	6.4450e-01	-5.7682	-45.140456	0.000929	9.288599	1.573531	-0.037105
1291	6.4500e-01	-5.7874	-45.313879	0.000868	8.682821	1.470910	-0.034685
1292	6.4550e-01	-5.8082	-45.495369	0.000909	9.086673	1.539324	-0.036298
1293	6.4600e-01	-5.8277	-45.713156	0.001090	10.904008	1.847189	-0.043557
1294	6.4650e-01	-5.8482	-45.850281	0.000687	6.865486	1.163045	-0.027425
1295	6.4700e-01	-5.8683	-46.055969	0.001030	10.298230	1.744567	-0.041138
1296	6.4750e-01	-5.8877	-46.172929	0.000586	5.855856	0.992009	-0.023392
1297	6.4800e-01	-5.9080	-46.382650	0.001050	10.500156	1.778775	-0.041944
1298	6.4850e-01	-5.9278	-46.576239	0.000969	9.692451	1.641946	-0.038718
1299	6.4900e-01	-5.9475	-46.733530	0.000788	7.875117	1.334081	-0.031458
1300	6.4950e-01	-5.9681	-46.971483	0.001191	11.913638	2.018225	-0.047591
1301	6.5000e-01	-5.9888	-47.148939	0.000888	8.884747	1.505117	-0.035491
1302	6.5050e-01	-6.0075	-47.282031	0.000666	6.663560	1.128838	-0.026618
1303	6.5100e-01	-6.0279	-47.479653	0.000989	9.894377	1.676153	-0.039524
1304	6.5150e-01	-6.0487	-47.697441	0.001090	10.904008	1.847189	-0.043557
1305	6.5200e-01	-6.0682	-47.850698	0.000767	7.673191	1.299874	-0.030652
1306	6.5250e-01	-6.0877	-47.999923	0.000747	7.471265	1.265666	-0.029845
1307	6.5300e-01	-6.1085	-48.189479	0.000949	9.490525	1.607739	-0.037911
1308	6.5350e-01	-6.1283	-48.366935	0.000888	8.884747	1.505117	-0.035491
1309	6.5400e-01	-6.1481	-48.483895	0.000586	5.855856	0.992009	-0.023392
1310	6.5450e-01	-6.1683	-48.697649	0.001070	10.702082	1.812982	-0.042751
1311	6.5500e-01	-6.1884	-48.943668	0.001232	12.317490	2.086639	-0.049204
1312	6.5550e-01	-6.2080	-49.056595	0.000565	5.653930	0.957802	-0.022585
1313	6.5600e-01	-6.2287	-49.290515	0.001171	11.711712	1.984018	-0.046784
1314	6.5650e-01	-6.2486	-49.443772	0.000767	7.673191	1.299874	-0.030652
1315	6.5700e-01	-6.2684	-49.685758	0.001212	12.115564	2.052432	-0.048397
1316	6.5750e-01	-6.2882	-49.794652	0.000545	5.452004	0.923594	-0.021779
1317	6.5800e-01	-6.3093	-50.028572	0.001171	11.711712	1.984018	-0.046784
1318	6.5850e-01	-6.3279	-50.210061	0.000909	9.086673	1.539324	-0.036298
1319	6.5900e-01	-6.3485	-50.371385	0.000808	8.077043	1.368288	-0.032265
1320	6.5950e-01	-6.3679	-50.544808	0.000868	8.682821	1.470910	-0.034685
1321	6.6000e-01	-6.3874	-50.710165	0.000828	8.278969	1.402495	-0.033071
1322	6.6050e-01	-6.4082	-50.899721	0.000949	9.490525	1.607739	-0.037911
1323	6.6100e-01	-6.4283	-51.093310	0.000969	9.692451	1.641946	-0.038718
1324	6.6150e-01	-6.4491	-51.282865	0.000949	9.490525	1.607739	-0.037911
1325	6.6200e-01	-6.4686	-51.452255	0.000848	8.480895	1.436703	-0.033878
1326	6.6250e-01	-6.4887	-51.666010	0.001070	10.702082	1.812982	-0.042751
1327	6.6300e-01	-6.5083	-51.855565	0.000949	9.490525	1.607739	-0.037911
1328	6.6350e-01	-6.5287	-52.020922	0.000828	8.278969	1.402495	-0.033071
1329	6.6400e-01	-6.5485	-52.178213	0.000788	7.875117	1.334081	-0.031458
1330	6.6450e-01	-6.5681	-52.391967	0.001070	10.702082	1.812982	-0.042751
1331	6.6500e-01	-6.5882	-52.585556	0.000969	9.692451	1.641946	-0.038718
1332	6.6550e-01	-6.6084	-52.771079	0.000929	9.288599	1.573531	-0.037105
1333	6.6600e-01	-6.6285	-52.916270	0.000727	7.269339	1.231459	-0.029038
1334	6.6650e-01	-6.6480	-53.146157	0.001151	11.509786	1.949811	-0.045977
1335	6.6700e-01	-6.6688	-53.275216	0.000646	6.461634	1.094630	-0.025812
1336	6.6750e-01	-6.6880	-53.517202	0.001212	12.115564	2.052432	-0.048397
1337	6.6800e-01	-6.7072	-53.674493	0.000788	7.875117	1.334081	-0.031458
1338	6.6850e-01	-6.7286	-53.912446	0.001191	11.913638	2.018225	-0.047591
1339	6.6900e-01	-6.7475	-54.097968	0.000929	9.288599	1.573531	-0.037105
1340	6.6950e-01	-6.7683	-54.263325	0.000828	8.278969	1.402495	-0.033071
1341	6.7000e-01	-6.7878	-54.456914	0.000969	9.692451	1.641946	-0.038718
1342	6.7050e-01	-6.8085	-54.654536	0.000989	9.894377	1.676153	-0.039524
1343	6.7100e-01	-6.8287	-54.868290	0.001070	10.702082	1.812982	-0.042751
1344	6.7150e-01	-6.8485	-55.041713	0.000868	8.682821	1.470910	-0.034685
1345	6.7200e-01	-6.8684	-55.235302	0.000969	9.692451	1.641946	-0.038718
1346	6.7250e-01	-6.8879	-55.400659	0.000828	8.278969	1.402495	-0.033071
1347	6.7300e-01	-6.9090	-55.566016	0.000828	8.278969	1.402495	-0.033071
1348	6.7350e-01	-6.9288	-55.808002	0.001212	12.115564	2.052432	-0.048397
1349	6.7400e-01	-6.9480	-55.949160	0.000707	7.067412	1.197252	-0.028232
1350	6.7450e-01	-6.9685	-56.179047	0.001151	11.509786	1.949811	-0.045977
1351	6.7500e-01	-6.9892	-56.312139	0.000666	6.663560	1.128838	-0.026618
1352	6.7550e-01	-7.0081	-56.529927	0.001090	10.904008	1.847189	-0.043557
1353	6.7600e-01	-7.0289	-56.715449	0.000929	9.288599	1.573531	-0.037105
1354	6.7650e-01	-7.0481	-56.892905	0.000888	8.884747	1.505117	-0.035491
1355	6.7700e-01	-7.0679	-57.090527	0.000989	9.894377	1.676153	-0.039524
1356	6.7750e-01	-7.0884	-57.328480	0.001191	11.913638	2.018225	-0.047591
1357	6.7800e-01	-7.1082	-57.473672	0.000727	7.269339	1.231459	-0.029038
1358	6.7850e-01	-7.1284	-57.675327	0.001010	10.096304	1.710360	-0.040331
1359	6.7900e-01	-7.1491	-57.848750	0.000868	8.682821	1.470910	-0.034685
1360	6.7950e-01	-7.1687	-58.102835	0.001272	12.721342	2.155054	-0.050817
1361	6.8000e-01	-7.1894	-58.243993	0.000707	7.067412	1.197252	-0.028232
1362	6.8050e-01	-7.2092	-58.494046	0.001252	12.519416	2.120847	-0.050010
1363	6.8100e-01	-7.2285	-58.667469	0.000868	8.682821	1.470910	-0.034685
1364	6.8150e-01	-7.2489	-58.873157	0.001030	10.298230	1.744567	-0.041138
1365	6.8200e-01	-7.2688	-59.010282	0.000687	6.865486	1.163045	-0.027425
1366	6.8250e-01	-7.2883	-59.187739	0.000888	8.884747	1.505117	-0.035491
1367	6.8300e-01	-7.3084	-59.522486	0.001676	16.759864	2.839198	-0.066949
1368	6.8350e-01	-7.3286	-59.582982	0.000303	3.028891	0.513108	-0.012099
1369	6.8400e-01	-7.3484	-59.841101	0.001292	12.923269	2.189261	-0.051624
1370	6.8450e-01	-7.3689	-60.002424	0.000808	8.077043	1.368288	-0.032265
1371	6.8500e-01	-7.3896	-60.228278	0.001131	11.307860	1.915603	-0.045171
1372	6.8550e-01	-7.4088	-60.409767	0.000909	9.086673	1.539324	-0.036298
1373	6.8600e-01	-7.4287	-60.619489	0.001050	10.500156	1.778775	-0.041944
1374	6.8650e-01	-7.4488	-60.837276	0.001090	10.904008	1.847189	-0.043557
1375	6.8700e-01	-7.4683	-61.010699	0.000868	8.682821	1.470910	-0.034685
1376	6.8750e-01	-7.4888	-61.192189	0.000909	9.086673	1.539324	-0.036298
1377	6.8800e-01	-7.5080	-61.434174	0.001212	12.115564	2.052432	-0.048397
1378	6.8850e-01	-7.5288	-61.579366	0.000727	7.269339	1.231459	-0.029038
1379	6.8900e-01	-7.5477	-61.776988	0.000989	9.894377	1.676153	-0.039524
1380	6.8950e-01	-7.5692	-62.063338	0.001434	14.336751	2.428711	-0.057270
1381	6.9000e-01	-7.5880	-62.228695	0.000828	8.278969	1.402495	-0.033071
1382	6.9050e-01	-7.6081	-62.377920	0.000747	7.471265	1.265666	-0.029845
1383	6.9100e-01	-7.6276	-62.567475	0.000949	9.490525	1.607739	-0.037911
1384	6.9150e-01	-7.6490	-62.773163	0.001030	10.298230	1.744567	-0.041138
1385	6.9200e-01	-7.6679	-63.039348	0.001333	13.327121	2.257675	-0.053237
1386	6.9250e-01	-7.6881	-63.216804	0.000888	8.884747	1.505117	-0.035491
1387	6.9300e-01	-7.7082	-63.430558	0.001070	10.702082	1.812982	-0.042751
1388	6.9350e-01	-7.7287	-63.656412	0.001131	11.307860	1.915603	-0.045171
1389	6.9400e-01	-7.7485	-63.862100	0.001030	10.298230	1.744567	-0.041138
1390	6.9450e-01	-7.7680	-64.027457	0.000828	8.278969	1.402495	-0.033071
1391	6.9500e-01	-7.7882	-64.180715	0.000767	7.673191	1.299874	-0.030652
1392	6.9550e-01	-7.8083	-64.430767	0.001252	12.519416	2.120847	-0.050010
1393	6.9600e-01	-7.8280	-64.696951	0.001333	13.327121	2.257675	-0.053237
1394	6.9650e-01	-7.8486	-64.854242	0.000788	7.875117	1.334081	-0.031458
1395	6.9700e-01	-7.8684	-65.019599	0.000828	8.278969	1.402495	-0.033071
1396	6.9750e-01	-7.8889	-65.217221	0.000989	9.894377	1.676153	-0.039524
1397	6.9800e-01	-7.9084	-65.475339	0.001292	12.923269	2.189261	-0.051624
1398	6.9850e-01	-7.9285	-65.693127	0.001090	10.904008	1.847189	-0.043557
1399	6.9900e-01	-7.9469	-65.854451	0.000808	8.077043	1.368288	-0.032265
1400	6.9950e-01	-7.9678	-66.039973	0.000929	9.288599	1.573531	-0.037105
1401	7.0000e-01	-7.9879	-66.273893	0.001171	11.711712	1.984018	-0.046784
1402	7.0050e-01	-8.0074	-66.499746	0.001131	11.307860	1.915603	-0.045171
1403	7.0100e-01	-8.0280	-66.677203	0.000888	8.884747	1.505117	-0.035491
1404	7.0150e-01	-8.0482	-66.886924	0.001050	10.500156	1.778775	-0.041944
1405	7.0200e-01	-8.0683	-67.080513	0.000969	9.692451	1.641946	-0.038718
1406	7.0250e-01	-8.0891	-67.282167	0.001010	10.096304	1.710360	-0.040331
1407	7.0300e-01	-8.1089	-67.503988	0.001111	11.105934	1.881396	-0.044364
1408	7.0350e-01	-8.1293	-67.669345	0.000828	8.278969	1.402495	-0.033071
1409	7.0400e-01	-8.1483	-67.875033	0.001030	10.298230	1.744567	-0.041138
1410	7.0450e-01	-8.1690	-68.056522	0.000909	9.086673	1.539324	-0.036298
1411	7.0500e-01	-8.1898	-68.306574	0.001252	12.519416	2.120847	-0.050010
1412	7.0550e-01	-8.2088	-68.544527	0.001191	11.913638	2.018225	-0.047591
1413	7.0600e-01	-8.2285	-68.754248	0.001050	10.500156	1.778775	-0.041944
1414	7.0650e-01	-8.2484	-68.976069	0.001111	11.105934	1.881396	-0.044364
1415	7.0700e-01	-8.2679	-69.141426	0.000828	8.278969	1.402495	-0.033071
1416	7.0750e-01	-8.2880	-69.383412	0.001212	12.115564	2.052432	-0.048397
1417	7.0800e-01	-8.3082	-69.585067	0.001010	10.096304	1.710360	-0.040331
1418	7.0850e-01	-8.3277	-69.798821	0.001070	10.702082	1.812982	-0.042751
1419	7.0900e-01	-8.3485	-70.044840	0.001232	12.317490	2.086639	-0.049204
1420	7.0950e-01	-8.3686	-70.246495	0.001010	10.096304	1.710360	-0.040331
1421	7.1000e-01	-8.3881	-70.448150	0.001010	10.096304	1.710360	-0.040331
1422	7.1050e-01	-8.4083	-70.665937	0.001090	10.904008	1.847189	-0.043557
1423	7.1100e-01	-8.4278	-70.871625	0.001030	10.298230	1.744567	-0.041138
1424	7.1150e-01	-8.4480	-71.101512	0.001151	11.509786	1.949811	-0.045977
1425	7.1200e-01	-8.4681	-71.303167	0.001010	10.096304	1.710360	-0.040331
1426	7.1250e-01	-8.4882	-71.529020	0.001131	11.307860	1.915603	-0.045171
1427	7.1300e-01	-8.5084	-71.690344	0.000808	8.077043	1.368288	-0.032265
1428	7.1350e-01	-8.5285	-71.932330	0.001212	12.115564	2.052432	-0.048397
1429	7.1400e-01	-8.5487	-72.146084	0.001070	10.702082	1.812982	-0.042751
1430	7.1450e-01	-8.5676	-72.367905	0.001111	11.105934	1.881396	-0.044364
1431	7.1500e-01	-8.5871	-72.585692	0.001090	10.904008	1.847189	-0.043557
1432	7.1550e-01	-8.6079	-72.859943	0.001373	13.730973	2.326090	-0.054850
1433	7.1600e-01	-8.6280	-72.980936	0.000606	6.057782	1.026216	-0.024199
1434	7.1650e-01	-8.6488	-73.230988	0.001252	12.519416	2.120847	-0.050010
1435	7.1700e-01	-8.6677	-73.456841	0.001131	11.307860	1.915603	-0.045171
1436	7.1750e-01	-8.6878	-73.698827	0.001212	12.115564	2.052432	-0.048397
1437	7.1800e-01	-8.7074	-73.892416	0.000969	9.692451	1.641946	-0.038718
1438	7.1850e-01	-8.7281	-74.098104	0.001030	10.298230	1.744567	-0.041138
1439	7.1900e-01	-8.7478	-74.327991	0.001151	11.509786	1.949811	-0.045977
1440	7.1950e-01	-8.7685	-74.537712	0.001050	10.500156	1.778775	-0.041944
1441	7.2000e-01	-8.7885	-74.771632	0.001171	11.711712	1.984018	-0.046784
1442	7.2050e-01	-8.8081	-74.969253	0.000989	9.894377	1.676153	-0.039524
1443	7.2100e-01	-8.8288	-75.207206	0.001191	11.913638	2.018225	-0.047591
1444	7.2150e-01	-8.8477	-75.433060	0.001131	11.307860	1.915603	-0.045171
1445	7.2200e-01	-8.8673	-75.646814	0.001070	10.702082	1.812982	-0.042751
1446	7.2250e-01	-8.8880	-75.904932	0.001292	12.923269	2.189261	-0.051624
1447	7.2300e-01	-8.9075	-76.110620	0.001030	10.298230	1.744567	-0.041138
1448	7.2350e-01	-8.9271	-76.328408	0.001090	10.904008	1.847189	-0.043557
1449	7.2400e-01	-8.9491	-76.566360	0.001191	11.913638	2.018225	-0.047591
1450	7.2450e-01	-8.9680	-76.755916	0.000949	9.490525	1.607739	-0.037911
1451	7.2500e-01	-8.9887	-76.973703	0.001090	10.904008	1.847189	-0.043557
1452	7.2550e-01	-9.0076	-77.348782	0.001878	18.779125	3.181270	-0.075016
1453	7.2600e-01	-9.0266	-77.332649	-0.000081	-0.807704	-0.136829	0.003226
1454	7.2650e-01	-9.0479	-77.703694	0.001858	18.577199	3.147063	-0.074209
1455	7.2700e-01	-9.0678	-77.860985	0.000788	7.875117	1.334081	-0.031458
1456	7.2750e-01	-9.0882	-78.167501	0.001535	15.346381	2.599747	-0.061303
1457	7.2800e-01	-9.1071	-78.304626	0.000687	6.865486	1.163045	-0.027425
1458	7.2850e-01	-9.1273	-78.546612	0.001212	12.115564	2.052432	-0.048397
1459	7.2900e-01	-9.1486	-78.788598	0.001212	12.115564	2.052432	-0.048397
1460	7.2950e-01	-9.1694	-79.022517	0.001171	11.711712	1.984018	-0.046784
1461	7.3000e-01	-9.1880	-79.240305	0.001090	10.904008	1.847189	-0.043557
1462	7.3050e-01	-9.2072	-79.466158	0.001131	11.307860	1.915603	-0.045171
1463	7.3100e-01	-9.2274	-79.687979	0.001111	11.105934	1.881396	-0.044364
1464	7.3150e-01	-9.2481	-79.925932	0.001191	11.913638	2.018225	-0.047591
1465	7.3200e-01	-9.2677	-80.192116	0.001333	13.327121	2.257675	-0.053237
1466	7.3250e-01	-9.2872	-80.393771	0.001010	10.096304	1.710360	-0.040331
1467	7.3300e-01	-9.3079	-80.647856	0.001272	12.721342	2.155054	-0.050817
1468	7.3350e-01	-9.3287	-80.857577	0.001050	10.500156	1.778775	-0.041944
1469	7.3400e-01	-9.3476	-81.095530	0.001191	11.913638	2.018225	-0.047591
1470	7.3450e-01	-9.3678	-81.345582	0.001252	12.519416	2.120847	-0.050010
1471	7.3500e-01	-9.3879	-81.547237	0.001010	10.096304	1.710360	-0.040331
1472	7.3550e-01	-9.4080	-81.781157	0.001171	11.711712	1.984018	-0.046784
1473	7.3600e-01	-9.4270	-82.039275	0.001292	12.923269	2.189261	-0.051624
1474	7.3650e-01	-9.4477	-82.232864	0.000969	9.692451	1.641946	-0.038718
1475	7.3700e-01	-9.4685	-82.474850	0.001212	12.115564	2.052432	-0.048397
1476	7.3750e-01	-9.4880	-82.732968	0.001292	12.923269	2.189261	-0.051624
1477	7.3800e-01	-9.5081	-82.958822	0.001131	11.307860	1.915603	-0.045171
1478	7.3850e-01	-9.5277	-83.220973	0.001313	13.125195	2.223468	-0.052430
1479	7.3900e-01	-9.5478	-83.402463	0.000909	9.086673	1.539324	-0.036298
1480	7.3950e-01	-9.5673	-83.672680	0.001353	13.529047	2.291883	-0.054044
1481	7.4000e-01	-9.5878	-83.922732	0.001252	12.519416	2.120847	-0.050010
1482	7.4050e-01	-9.6088	-84.148586	0.001131	11.307860	1.915603	-0.045171
1483	7.4100e-01	-9.6265	-84.346208	0.000989	9.894377	1.676153	-0.039524
1484	7.4150e-01	-9.6479	-84.600293	0.001272	12.721342	2.155054	-0.050817
1485	7.4200e-01	-9.6680	-84.818080	0.001090	10.904008	1.847189	-0.043557
1486	7.4250e-01	-9.6882	-85.116529	0.001494	14.942529	2.531333	-0.059690
1487	7.4300e-01	-9.7083	-85.306085	0.000949	9.490525	1.607739	-0.037911
1488	7.4350e-01	-9.7276	-85.584369	0.001393	13.932899	2.360297	-0.055657
1489	7.4400e-01	-9.7480	-85.826355	0.001212	12.115564	2.052432	-0.048397
1490	7.4450e-01	-9.7681	-86.019944	0.000969	9.692451	1.641946	-0.038718
1491	7.4500e-01	-9.7883	-86.302260	0.001413	14.134825	2.394504	-0.056463
1492	7.4550e-01	-9.8081	-86.520048	0.001090	10.904008	1.847189	-0.043557
1493	7.4600e-01	-9.8280	-86.717670	0.000989	9.894377	1.676153	-0.039524
1494	7.4650e-01	-9.8475	-86.999986	0.001413	14.134825	2.394504	-0.056463
1495	7.4700e-01	-9.8676	-87.258105	0.001292	12.923269	2.189261	-0.051624
1496	7.4750e-01	-9.8878	-87.479925	0.001111	11.105934	1.881396	-0.044364
1497	7.4800e-01	-9.9091	-87.734010	0.001272	12.721342	2.155054	-0.050817
1498	7.4850e-01	-9.9268	-87.943732	0.001050	10.500156	1.778775	-0.041944
1499	7.4900e-01	-9.9476	-88.209916	0.001333	13.327121	2.257675	-0.053237
1500	7.4950e-01	-9.9680	-88.488200	0.001393	13.932899	2.360297	-0.055657
1501	7.5000e-01	-9.9879	-88.730186	0.001212	12.115564	2.052432	-0.048397
1502	7.5050e-01	-9.9850	-88.786649	-0.000283	-2.826965	-0.478901	-0.011293
1503	7.5100e-01	-9.9714	-88.855212	-0.000343	-3.432743	-0.581522	-0.013713
1504	7.5150e-01	-9.9519	-88.798748	0.000283	2.826965	0.478901	0.011293
1505	7.5200e-01	-9.9317	-88.843113	-0.000222	-2.221187	-0.376279	-0.008873
1506	7.5250e-01	-9.9122	-88.855212	-0.000061	-0.605778	-0.102622	-0.002420
1507	7.5300e-01	-9.8927	-88.863278	-0.000040	-0.403852	-0.068414	-0.001613
1508	7.5350e-01	-9.8725	-88.855212	0.000040	0.403852	0.068414	0.001613
1509	7.5400e-01	-9.8530	-88.798748	0.000283	2.826965	0.478901	0.011293
1510	7.5450e-01	-9.8335	-88.742285	0.000283	2.826965	0.478901	0.011293
1511	7.5500e-01	-9.8127	-88.726153	0.000081	0.807704	0.136829	0.003226
1512	7.5550e-01	-9.7932	-88.738252	-0.000061	-0.605778	-0.102622	-0.002420
1513	7.5600e-01	-9.7730	-88.661623	0.000384	3.836595	0.649937	0.015326
1514	7.5650e-01	-9.7529	-88.617259	0.000222	2.221187	0.376279	0.008873
1515	7.5700e-01	-9.7334	-88.589027	0.000141	1.413482	0.239450	0.005646
1516	7.5750e-01	-9.7138	-88.552729	0.000182	1.817335	0.307865	0.007260
1517	7.5800e-01	-9.6937	-88.500299	0.000263	2.625039	0.444694	0.010486
1518	7.5850e-01	-9.6735	-88.476101	0.000121	1.211556	0.205243	0.004840
1519	7.5900e-01	-9.6534	-88.391406	0.000424	4.240447	0.718351	0.016939
1520	7.5950e-01	-9.6336	-88.318810	0.000363	3.634669	0.615730	0.014519
1521	7.6000e-01	-9.6131	-88.270413	0.000242	2.423113	0.410486	0.009679
1522	7.6050e-01	-9.5927	-88.201850	0.000343	3.432743	0.581522	0.013713
1523	7.6100e-01	-9.5734	-88.044559	0.000788	7.875117	1.334081	0.031458
1524	7.6150e-01	-9.5527	-88.092956	-0.000242	-2.423113	-0.410486	-0.009679
1525	7.6200e-01	-9.5325	-87.992129	0.000505	5.048152	0.855180	0.020165
1526	7.6250e-01	-9.5136	-87.887268	0.000525	5.250078	0.889387	0.020972
1527	7.6300e-01	-9.4929	-87.822739	0.000323	3.230817	0.547315	0.012906
1528	7.6350e-01	-9.4733	-87.746110	0.000384	3.836595	0.649937	0.015326
1529	7.6400e-01	-9.4526	-87.653348	0.000464	4.644300	0.786766	0.018552
1530	7.6450e-01	-9.4324	-87.540422	0.000565	5.653930	0.957802	0.022585
1531	7.6500e-01	-9.4135	-87.512190	0.000141	1.413482	0.239450	0.005646
1532	7.6550e-01	-9.3940	-87.411363	0.000505	5.048152	0.855180	0.020165
1533	7.6600e-01	-9.3739	-87.354899	0.000283	2.826965	0.478901	0.011293
1534	7.6650e-01	-9.3537	-87.233906	0.000606	6.057782	1.026216	0.024199
1535	7.6700e-01	-9.3330	-87.209708	0.000121	1.211556	0.205243	0.004840
1536	7.6750e-01	-9.3134	-87.072582	0.000687	6.865486	1.163045	0.027425
1537	7.6800e-01	-9.2930	-86.967722	0.000525	5.250078	0.889387	0.020972
1538	7.6850e-01	-9.2738	-86.919325	0.000242	2.423113	0.410486	0.009679
1539	7.6900e-01	-9.2530	-86.798332	0.000606	6.057782	1.026216	0.024199
1540	7.6950e-01	-9.2338	-86.766067	0.000162	1.615409	0.273658	0.006453
1541	7.7000e-01	-9.2139	-86.637008	0.000646	6.461634	1.094630	0.025812
1542	7.7050e-01	-9.1938	-86.540213	0.000485	4.846226	0.820973	0.019359
1543	7.7100e-01	-9.1743	-86.471651	0.000343	3.432743	0.581522	0.013713
1544	7.7150e-01	-9.1523	-86.395022	0.000384	3.836595	0.649937	0.015326
1545	7.7200e-01	-9.1340	-86.205466	0.000949	9.490525	1.607739	0.037911
1546	7.7250e-01	-9.1138	-86.100606	0.000525	5.250078	0.889387	0.020972
1547	7.7300e-01	-9.0925	-86.019944	0.000404	4.038521	0.684144	0.016132
1548	7.7350e-01	-9.0736	-85.959447	0.000303	3.028891	0.513108	0.012099
1549	7.7400e-01	-9.0540	-85.898951	0.000303	3.028891	0.513108	0.012099
1550	7.7450e-01	-9.0321	-85.745693	0.000767	7.673191	1.299874	0.030652
1551	7.7500e-01	-9.0137	-85.689229	0.000283	2.826965	0.478901	0.011293
1552	7.7550e-01	-8.9930	-85.584369	0.000525	5.250078	0.889387	0.020972
1553	7.7600e-01	-8.9735	-85.427078	0.000788	7.875117	1.334081	0.031458
1554	7.7650e-01	-8.9539	-85.346416	0.000404	4.038521	0.684144	0.016132
1555	7.7700e-01	-8.9338	-85.314151	0.000162	1.615409	0.273658	0.006453
1556	7.7750e-01	-8.9130	-85.164927	0.000747	7.471265	1.265666	0.029845
1557	7.7800e-01	-8.8941	-85.047967	0.000586	5.855856	0.992009	0.023392
1558	7.7850e-01	-8.8728	-84.947139	0.000505	5.048152	0.855180	0.020165
1559	7.7900e-01	-8.8538	-84.862444	0.000424	4.240447	0.718351	0.016939
1560	7.7950e-01	-8.8325	-84.684988	0.000888	8.884747	1.505117	0.035491
1561	7.8000e-01	-8.8129	-84.588194	0.000485	4.846226	0.820973	0.019359
1562	7.8050e-01	-8.7940	-84.499465	0.000444	4.442374	0.752558	0.017746
1563	7.8100e-01	-8.7733	-84.422836	0.000384	3.836595	0.649937	0.015326
1564	7.8150e-01	-8.7531	-84.301844	0.000606	6.057782	1.026216	0.024199
1565	7.8200e-01	-8.7330	-84.148586	0.000767	7.673191	1.299874	0.030652
1566	7.8250e-01	-8.7141	-84.080023	0.000343	3.432743	0.581522	0.013713
1567	7.8300e-01	-8.6933	-83.938865	0.000707	7.067412	1.197252	0.028232
1568	7.8350e-01	-8.6726	-83.882401	0.000283	2.826965	0.478901	0.011293
1569	7.8400e-01	-8.6536	-83.757375	0.000626	6.259708	1.060423	0.025005
1570	7.8450e-01	-8.6335	-83.729144	0.000141	1.413482	0.239450	0.005646
1571	7.8500e-01	-8.6140	-83.555720	0.000868	8.682821	1.470910	0.034685
1572	7.8550e-01	-8.5938	-83.430694	0.000626	6.259708	1.060423	0.025005
1573	7.8600e-01	-8.5731	-83.321801	0.000545	5.452004	0.923594	0.021779
1574	7.8650e-01	-8.5542	-83.208874	0.000565	5.653930	0.957802	0.022585
1575	7.8700e-01	-8.5346	-83.104013	0.000525	5.250078	0.889387	0.020972
1576	7.8750e-01	-8.5133	-82.983020	0.000606	6.057782	1.026216	0.024199
1577	7.8800e-01	-8.4934	-82.857994	0.000626	6.259708	1.060423	0.025005
1578	7.8850e-01	-8.4742	-82.749101	0.000545	5.452004	0.923594	0.021779
1579	7.8900e-01	-8.4528	-82.652306	0.000485	4.846226	0.820973	0.019359
1580	7.8950e-01	-8.4339	-82.539379	0.000565	5.653930	0.957802	0.022585
1581	7.9000e-01	-8.4132	-82.414353	0.000626	6.259708	1.060423	0.025005
1582	7.9050e-01	-8.3936	-82.333691	0.000404	4.038521	0.684144	0.016132
1583	7.9100e-01	-8.3738	-82.236897	0.000485	4.846226	0.820973	0.019359
1584	7.9150e-01	-8.3540	-82.103805	0.000666	6.663560	1.128838	0.026618
1585	7.9200e-01	-8.3338	-81.970713	0.000666	6.663560	1.128838	0.026618
1586	7.9250e-01	-8.3125	-81.817455	0.000767	7.673191	1.299874	0.030652
1587	7.9300e-01	-8.2935	-81.797289	0.000101	1.009630	0.171036	0.004033
1588	7.9350e-01	-8.2734	-81.603701	0.000969	9.692451	1.641946	0.038718
1589	7.9400e-01	-8.2526	-81.498840	0.000525	5.250078	0.889387	0.020972
1590	7.9450e-01	-8.2331	-81.434310	0.000323	3.230817	0.547315	0.012906
1591	7.9500e-01	-8.2130	-81.236689	0.000989	9.894377	1.676153	0.039524
1592	7.9550e-01	-8.1928	-81.143927	0.000464	4.644300	0.786766	0.018552
1593	7.9600e-01	-8.1727	-81.006802	0.000687	6.865486	1.163045	0.027425
1594	7.9650e-01	-8.1532	-80.905975	0.000505	5.048152	0.855180	0.020165
1595	7.9700e-01	-8.1336	-80.837412	0.000343	3.432743	0.581522	0.013713
1596	7.9750e-01	-8.1135	-80.696253	0.000707	7.067412	1.197252	0.028232
1597	7.9800e-01	-8.0933	-80.611558	0.000424	4.240447	0.718351	0.016939
1598	7.9850e-01	-8.0732	-80.417970	0.000969	9.692451	1.641946	0.038718
1599	7.9900e-01	-8.0531	-80.325208	0.000464	4.644300	0.786766	0.018552
1600	7.9950e-01	-8.0332	-80.268745	0.000283	2.826965	0.478901	0.011293
1601	8.0000e-01	-8.0134	-80.115487	0.000767	7.673191	1.299874	0.030652
1602	8.0050e-01	-7.9932	-79.974329	0.000707	7.067412	1.197252	0.028232
1603	8.0100e-01	-7.9725	-79.877534	0.000485	4.846226	0.820973	0.019359
1604	8.0150e-01	-7.9536	-79.780740	0.000485	4.846226	0.820973	0.019359
1605	8.0200e-01	-7.9328	-79.643615	0.000687	6.865486	1.163045	0.027425
1606	8.0250e-01	-7.9133	-79.470191	0.000868	8.682821	1.470910	0.034685
1607	8.0300e-01	-7.8931	-79.381463	0.000444	4.442374	0.752558	0.017746
1608	8.0350e-01	-7.8724	-79.272570	0.000545	5.452004	0.923594	0.021779
1609	8.0400e-01	-7.8522	-79.127378	0.000727	7.269339	1.231459	0.029038
1610	8.0450e-01	-7.8324	-79.010418	0.000586	5.855856	0.992009	0.023392
1611	8.0500e-01	-7.8126	-78.941855	0.000343	3.432743	0.581522	0.013713
1612	8.0550e-01	-7.7924	-78.808763	0.000666	6.663560	1.128838	0.026618
1613	8.0600e-01	-7.7729	-78.655505	0.000767	7.673191	1.299874	0.030652
1614	8.0650e-01	-7.7528	-78.526446	0.000646	6.461634	1.094630	0.025812
1615	8.0700e-01	-7.7326	-78.433685	0.000464	4.644300	0.786766	0.018552
1616	8.0750e-01	-7.7125	-78.268328	0.000828	8.278969	1.402495	0.033071
1617	8.0800e-01	-7.6926	-78.191699	0.000384	3.836595	0.649937	0.015326
1618	8.0850e-01	-7.6728	-78.030375	0.000808	8.077043	1.368288	0.032265
1619	8.0900e-01	-7.6524	-77.909382	0.000606	6.057782	1.026216	0.024199
1620	8.0950e-01	-7.6313	-77.776290	0.000666	6.663560	1.128838	0.026618
1621	8.1000e-01	-7.6130	-77.667396	0.000545	5.452004	0.923594	0.021779
1622	8.1050e-01	-7.5928	-77.614966	0.000263	2.625039	0.444694	0.010486
1623	8.1100e-01	-7.5721	-77.368947	0.001232	12.317490	2.086639	0.049204
1624	8.1150e-01	-7.5520	-77.260053	0.000545	5.452004	0.923594	0.021779
1625	8.1200e-01	-7.5330	-77.135027	0.000626	6.259708	1.060423	0.025005
1626	8.1250e-01	-7.5132	-77.054365	0.000404	4.038521	0.684144	0.016132
1627	8.1300e-01	-7.4928	-76.909174	0.000727	7.269339	1.231459	0.029038
1628	8.1350e-01	-7.4735	-76.755916	0.000767	7.673191	1.299874	0.030652
1629	8.1400e-01	-7.4531	-76.679287	0.000384	3.836595	0.649937	0.015326
1630	8.1450e-01	-7.4326	-76.570394	0.000545	5.452004	0.923594	0.021779
1631	8.1500e-01	-7.4134	-76.405036	0.000828	8.278969	1.402495	0.033071
1632	8.1550e-01	-7.3939	-76.288077	0.000586	5.855856	0.992009	0.023392
1633	8.1600e-01	-7.3731	-76.142885	0.000727	7.269339	1.231459	0.029038
1634	8.1650e-01	-7.3536	-76.102554	0.000202	2.019261	0.342072	0.008066
1635	8.1700e-01	-7.3335	-76.074322	0.000141	1.413482	0.239450	0.005646
1636	8.1750e-01	-7.3127	-75.792005	0.001413	14.134825	2.394504	0.056463
1637	8.1800e-01	-7.2926	-75.618582	0.000868	8.682821	1.470910	0.034685
1638	8.1850e-01	-7.2724	-75.529854	0.000444	4.442374	0.752558	0.017746
1639	8.1900e-01	-7.2526	-75.368530	0.000808	8.077043	1.368288	0.032265
1640	8.1950e-01	-7.2324	-75.308034	0.000303	3.028891	0.513108	0.012099
1641	8.2000e-01	-7.2126	-75.154776	0.000767	7.673191	1.299874	0.030652
1642	8.2050e-01	-7.1937	-75.057982	0.000485	4.846226	0.820973	0.019359
1643	8.2100e-01	-7.1729	-74.892624	0.000828	8.278969	1.402495	0.033071
1644	8.2150e-01	-7.1528	-74.739367	0.000767	7.673191	1.299874	0.030652
1645	8.2200e-01	-7.1326	-74.646605	0.000464	4.644300	0.786766	0.018552
1646	8.2250e-01	-7.1125	-74.529646	0.000586	5.855856	0.992009	0.023392
1647	8.2300e-01	-7.0930	-74.404620	0.000626	6.259708	1.060423	0.025005
1648	8.2350e-01	-7.0728	-74.263461	0.000707	7.067412	1.197252	0.028232
1649	8.2400e-01	-7.0521	-74.154567	0.000545	5.452004	0.923594	0.021779
1650	8.2450e-01	-7.0322	-73.960979	0.000969	9.692451	1.641946	0.038718
1651	8.2500e-01	-7.0127	-73.872251	0.000444	4.442374	0.752558	0.017746
1652	8.2550e-01	-6.9929	-73.723026	0.000747	7.471265	1.265666	0.029845
1653	8.2600e-01	-6.9727	-73.581867	0.000707	7.067412	1.197252	0.028232
1654	8.2650e-01	-6.9535	-73.452808	0.000646	6.461634	1.094630	0.025812
1655	8.2700e-01	-6.9318	-73.331815	0.000606	6.057782	1.026216	0.024199
1656	8.2750e-01	-6.9123	-73.222922	0.000545	5.452004	0.923594	0.021779
1657	8.2800e-01	-6.8922	-73.065631	0.000788	7.875117	1.334081	0.031458
1658	8.2850e-01	-6.8729	-72.920439	0.000727	7.269339	1.231459	0.029038
1659	8.2900e-01	-6.8522	-72.819612	0.000505	5.048152	0.855180	0.020165
1660	8.2950e-01	-6.8330	-72.682486	0.000687	6.865486	1.163045	0.027425
1661	8.3000e-01	-6.8122	-72.557460	0.000626	6.259708	1.060423	0.025005
1662	8.3050e-01	-6.7927	-72.404203	0.000767	7.673191	1.299874	0.030652
1663	8.3100e-01	-6.7728	-72.307408	0.000485	4.846226	0.820973	0.019359
1664	8.3150e-01	-6.7521	-72.142051	0.000828	8.278969	1.402495	0.033071
1665	8.3200e-01	-6.7329	-72.033158	0.000545	5.452004	0.923594	0.021779
1666	8.3250e-01	-6.7121	-71.863767	0.000848	8.480895	1.436703	0.033878
1667	8.3300e-01	-6.6933	-71.726642	0.000687	6.865486	1.163045	0.027425
1668	8.3350e-01	-6.6730	-71.601616	0.000626	6.259708	1.060423	0.025005
1669	8.3400e-01	-6.6523	-71.496755	0.000525	5.250078	0.889387	0.020972
1670	8.3450e-01	-6.6325	-71.303167	0.000969	9.692451	1.641946	0.038718
1671	8.3500e-01	-6.6132	-71.210405	0.000464	4.644300	0.786766	0.018552
1672	8.3550e-01	-6.5931	-71.057148	0.000767	7.673191	1.299874	0.030652
1673	8.3600e-01	-6.5726	-70.895824	0.000808	8.077043	1.368288	0.032265
1674	8.3650e-01	-6.5522	-70.746599	0.000747	7.471265	1.265666	0.029845
1675	8.3700e-01	-6.5327	-70.649805	0.000485	4.846226	0.820973	0.019359
1676	8.3750e-01	-6.5122	-70.512679	0.000687	6.865486	1.163045	0.027425
1677	8.3800e-01	-6.4924	-70.411852	0.000505	5.048152	0.855180	0.020165
1678	8.3850e-01	-6.4719	-70.222296	0.000949	9.490525	1.607739	0.037911
1679	8.3900e-01	-6.4521	-70.113403	0.000545	5.452004	0.923594	0.021779
1680	8.3950e-01	-6.4332	-69.972244	0.000707	7.067412	1.197252	0.028232
1681	8.4000e-01	-6.4130	-69.818986	0.000767	7.673191	1.299874	0.030652
1682	8.4050e-01	-6.3929	-69.689927	0.000646	6.461634	1.094630	0.025812
1683	8.4100e-01	-6.3734	-69.581034	0.000545	5.452004	0.923594	0.021779
1684	8.4150e-01	-6.3526	-69.419710	0.000808	8.077043	1.368288	0.032265
1685	8.4200e-01	-6.3325	-69.274518	0.000727	7.269339	1.231459	0.029038
1686	8.4250e-01	-6.3120	-69.169658	0.000525	5.250078	0.889387	0.020972
1687	8.4300e-01	-6.2928	-69.032532	0.000687	6.865486	1.163045	0.027425
1688	8.4350e-01	-6.2727	-68.855076	0.000888	8.884747	1.505117	0.035491
1689	8.4400e-01	-6.2531	-68.730050	0.000626	6.259708	1.060423	0.025005
1690	8.4450e-01	-6.2336	-68.629222	0.000505	5.048152	0.855180	0.020165
1691	8.4500e-01	-6.2132	-68.427567	0.001010	10.096304	1.710360	0.040331
1692	8.4550e-01	-6.1921	-68.330773	0.000485	4.846226	0.820973	0.019359
1693	8.4600e-01	-6.1726	-68.209780	0.000606	6.057782	1.026216	0.024199
1694	8.4650e-01	-6.1524	-68.056522	0.000767	7.673191	1.299874	0.030652
1695	8.4700e-01	-6.1323	-67.875033	0.000909	9.086673	1.539324	0.036298
1696	8.4750e-01	-6.1121	-67.758073	0.000586	5.855856	0.992009	0.023392
1697	8.4800e-01	-6.0920	-67.560451	0.000989	9.894377	1.676153	0.039524
1698	8.4850e-01	-6.0731	-67.503988	0.000283	2.826965	0.478901	0.011293
1699	8.4900e-01	-6.0526	-67.354763	0.000747	7.471265	1.265666	0.029845
1700	8.4950e-01	-6.0328	-67.185373	0.000848	8.480895	1.436703	0.033878
1701	8.5000e-01	-6.0126	-67.032115	0.000767	7.673191	1.299874	0.030652
1702	8.5050e-01	-5.9922	-66.931288	0.000505	5.048152	0.855180	0.020165
1703	8.5100e-01	-5.9724	-66.822394	0.000545	5.452004	0.923594	0.021779
1704	8.5150e-01	-5.9522	-66.592508	0.001151	11.509786	1.949811	0.045977
1705	8.5200e-01	-5.9333	-66.479581	0.000565	5.653930	0.957802	0.022585
1706	8.5250e-01	-5.9119	-66.346489	0.000666	6.663560	1.128838	0.026618
1707	8.5300e-01	-5.8930	-66.342455	0.000020	0.201926	0.034207	0.000807
1708	8.5350e-01	-5.8723	-66.039973	0.001514	15.144455	2.565540	0.060496
1709	8.5400e-01	-5.8533	-65.890748	0.000747	7.471265	1.265666	0.029845
1710	8.5450e-01	-5.8323	-65.806053	0.000424	4.240447	0.718351	0.016939
1711	8.5500e-01	-5.8125	-65.636663	0.000848	8.480895	1.436703	0.033878
1712	8.5550e-01	-5.7923	-65.475339	0.000808	8.077043	1.368288	0.032265
1713	8.5600e-01	-5.7734	-65.322082	0.000767	7.673191	1.299874	0.030652
1714	8.5650e-01	-5.7533	-65.160758	0.000808	8.077043	1.368288	0.032265
1715	8.5700e-01	-5.7333	-65.051864	0.000545	5.452004	0.923594	0.021779
1716	8.5750e-01	-5.7124	-64.918772	0.000666	6.663560	1.128838	0.026618
1717	8.5800e-01	-5.6925	-64.745348	0.000868	8.682821	1.470910	0.034685
1718	8.5850e-01	-5.6721	-64.588058	0.000788	7.875117	1.334081	0.031458
1719	8.5900e-01	-5.6532	-64.446899	0.000707	7.067412	1.197252	0.028232
1720	8.5950e-01	-5.6313	-64.325906	0.000606	6.057782	1.026216	0.024199
1721	8.6000e-01	-5.6123	-64.176682	0.000747	7.471265	1.265666	0.029845
1722	8.6050e-01	-5.5927	-64.051655	0.000626	6.259708	1.060423	0.025005
1723	8.6100e-01	-5.5729	-63.878232	0.000868	8.682821	1.470910	0.034685
1724	8.6150e-01	-5.5518	-63.729008	0.000747	7.471265	1.265666	0.029845
1725	8.6200e-01	-5.5318	-63.571717	0.000788	7.875117	1.334081	0.031458
1726	8.6250e-01	-5.5128	-63.361996	0.001050	10.500156	1.778775	0.041944
1727	8.6300e-01	-5.4923	-63.281334	0.000404	4.038521	0.684144	0.016132
1728	8.6350e-01	-5.4725	-63.152274	0.000646	6.461634	1.094630	0.025812
1729	8.6400e-01	-5.4520	-62.970785	0.000909	9.086673	1.539324	0.036298
1730	8.6450e-01	-5.4319	-62.837693	0.000666	6.663560	1.128838	0.026618
1731	8.6500e-01	-5.4121	-62.773163	0.000323	3.230817	0.547315	0.012906
1732	8.6550e-01	-5.3919	-62.551343	0.001111	11.105934	1.881396	0.044364
1733	8.6600e-01	-5.3712	-62.377920	0.000868	8.682821	1.470910	0.034685
1734	8.6650e-01	-5.3519	-62.260960	0.000586	5.855856	0.992009	0.023392
1735	8.6700e-01	-5.3321	-62.091570	0.000848	8.480895	1.436703	0.033878
1736	8.6750e-01	-5.3123	-61.938312	0.000767	7.673191	1.299874	0.030652
1737	8.6800e-01	-5.2912	-61.764889	0.000868	8.682821	1.470910	0.034685
1738	8.6850e-01	-5.2726	-61.639862	0.000626	6.259708	1.060423	0.025005
1739	8.6900e-01	-5.2528	-61.551134	0.000444	4.442374	0.752558	0.017746
1740	8.6950e-01	-5.2317	-61.317215	0.001171	11.711712	1.984018	0.046784
1741	8.7000e-01	-5.2128	-61.216387	0.000505	5.048152	0.855180	0.020165
1742	8.7050e-01	-5.1923	-61.055063	0.000808	8.077043	1.368288	0.032265
1743	8.7100e-01	-5.1722	-60.877607	0.000888	8.884747	1.505117	0.035491
1744	8.7150e-01	-5.1527	-60.740481	0.000687	6.865486	1.163045	0.027425
1745	8.7200e-01	-5.1319	-60.595290	0.000727	7.269339	1.231459	0.029038
1746	8.7250e-01	-5.1124	-60.470264	0.000626	6.259708	1.060423	0.025005
1747	8.7300e-01	-5.0919	-60.321039	0.000747	7.471265	1.265666	0.029845
1748	8.7350e-01	-5.0721	-60.119384	0.001010	10.096304	1.710360	0.040331
1749	8.7400e-01	-5.0517	-59.966127	0.000767	7.673191	1.299874	0.030652
1750	8.7450e-01	-5.0327	-59.865299	0.000505	5.048152	0.855180	0.020165
1751	8.7500e-01	-5.0126	-59.732207	0.000666	6.663560	1.128838	0.026618
1752	8.7550e-01	-4.9921	-59.558784	0.000868	8.682821	1.470910	0.034685
1753	8.7600e-01	-4.9717	-59.381327	0.000888	8.884747	1.505117	0.035491
1754	8.7650e-01	-4.9531	-59.228070	0.000767	7.673191	1.299874	0.030652
1755	8.7700e-01	-4.9319	-59.074812	0.000767	7.673191	1.299874	0.030652
1756	8.7750e-01	-4.9129	-58.921554	0.000767	7.673191	1.299874	0.030652
1757	8.7800e-01	-4.8920	-58.699734	0.001111	11.105934	1.881396	0.044364
1758	8.7850e-01	-4.8713	-58.627138	0.000363	3.634669	0.615730	0.014519
1759	8.7900e-01	-4.8518	-58.433549	0.000969	9.692451	1.641946	0.038718
1760	8.7950e-01	-4.8322	-58.332722	0.000505	5.048152	0.855180	0.020165
1761	8.8000e-01	-4.8121	-58.167365	0.000828	8.278969	1.402495	0.033071
1762	8.8050e-01	-4.7926	-57.949577	0.001090	10.904008	1.847189	0.043557
1763	8.8100e-01	-4.7730	-57.852783	0.000485	4.846226	0.820973	0.019359
1764	8.8150e-01	-4.7523	-57.715658	0.000687	6.865486	1.163045	0.027425
1765	8.8200e-01	-4.7321	-57.530135	0.000929	9.288599	1.573531	0.037105
1766	8.8250e-01	-4.7114	-57.360745	0.000848	8.480895	1.436703	0.033878
1767	8.8300e-01	-4.6925	-57.223620	0.000687	6.865486	1.163045	0.027425
1768	8.8350e-01	-4.6720	-57.094560	0.000646	6.461634	1.094630	0.025812
1769	8.8400e-01	-4.6522	-56.949369	0.000727	7.269339	1.231459	0.029038
1770	8.8450e-01	-4.6326	-56.775946	0.000868	8.682821	1.470910	0.034685
1771	8.8500e-01	-4.6110	-56.598489	0.000888	8.884747	1.505117	0.035491
1772	8.8550e-01	-4.5925	-56.421033	0.000888	8.884747	1.505117	0.035491
1773	8.8600e-01	-4.5719	-56.283908	0.000687	6.865486	1.163045	0.027425
1774	8.8650e-01	-4.5527	-56.102418	0.000909	9.086673	1.539324	0.036298
1775	8.8700e-01	-4.5319	-55.993524	0.000545	5.452004	0.923594	0.021779
1776	8.8750e-01	-4.5130	-55.787836	0.001030	10.298230	1.744567	0.041138
1777	8.8800e-01	-4.4920	-55.682976	0.000525	5.250078	0.889387	0.020972
1778	8.8850e-01	-4.4727	-55.497453	0.000929	9.288599	1.573531	0.037105
1779	8.8900e-01	-4.4526	-55.372427	0.000626	6.259708	1.060423	0.025005
1780	8.8950e-01	-4.4324	-55.190938	0.000909	9.086673	1.539324	0.036298
1781	8.9000e-01	-4.4117	-54.965084	0.001131	11.307860	1.915603	0.045171
1782	8.9050e-01	-4.3919	-54.864257	0.000505	5.048152	0.855180	0.020165
1783	8.9100e-01	-4.3714	-54.706966	0.000788	7.875117	1.334081	0.031458
1784	8.9150e-01	-4.3522	-54.529510	0.000888	8.884747	1.505117	0.035491
1785	8.9200e-01	-4.3317	-54.372219	0.000788	7.875117	1.334081	0.031458
1786	8.9250e-01	-4.3124	-54.267358	0.000525	5.250078	0.889387	0.020972
1787	8.9300e-01	-4.2915	-54.093935	0.000868	8.682821	1.470910	0.034685
1788	8.9350e-01	-4.2716	-53.916479	0.000888	8.884747	1.505117	0.035491
1789	8.9400e-01	-4.2524	-53.726923	0.000949	9.490525	1.607739	0.037911
1790	8.9450e-01	-4.2319	-53.622062	0.000525	5.250078	0.889387	0.020972
1791	8.9500e-01	-4.2127	-53.622062	0.000000	0.000000	0.000000	0.000000
1792	8.9550e-01	-4.1920	-53.214720	0.002039	20.394533	3.454927	0.081469
1793	8.9600e-01	-4.1720	-53.065495	0.000747	7.471265	1.265666	0.029845
1794	8.9650e-01	-4.1523	-52.904171	0.000808	8.077043	1.368288	0.032265
1795	8.9700e-01	-4.1319	-52.799310	0.000525	5.250078	0.889387	0.020972
1796	8.9750e-01	-4.1128	-52.609755	0.000949	9.490525	1.607739	0.037911
1797	8.9800e-01	-4.0916	-52.440365	0.000848	8.480895	1.436703	0.033878
1798	8.9850e-01	-4.0711	-52.262908	0.000888	8.884747	1.505117	0.035491
1799	8.9900e-01	-4.0519	-52.141915	0.000606	6.057782	1.026216	0.024199
1800	8.9950e-01	-4.0321	-51.984624	0.000788	7.875117	1.334081	0.031458
1801	9.0000e-01	-4.0119	-51.811201	0.000868	8.682821	1.470910	0.034685
1802	9.0050e-01	-3.9918	-51.597447	0.001070	10.702082	1.812982	0.042751
1803	9.0100e-01	-3.9719	-51.460322	0.000687	6.865486	1.163045	0.027425
1804	9.0150e-01	-3.9527	-51.307064	0.000767	7.673191	1.299874	0.030652
1805	9.0200e-01	-3.9317	-51.149773	0.000788	7.875117	1.334081	0.031458
1806	9.0250e-01	-3.9118	-50.988449	0.000808	8.077043	1.368288	0.032265
1807	9.0300e-01	-3.8911	-50.871489	0.000586	5.855856	0.992009	0.023392
1808	9.0350e-01	-3.8715	-50.641603	0.001151	11.509786	1.949811	0.045977
1809	9.0400e-01	-3.8517	-50.484312	0.000788	7.875117	1.334081	0.031458
1810	9.0450e-01	-3.8306	-50.387517	0.000485	4.846226	0.820973	0.019359
1811	9.0500e-01	-3.8111	-50.185862	0.001010	10.096304	1.710360	0.040331
1812	9.0550e-01	-3.7910	-49.951943	0.001171	11.711712	1.984018	0.046784
1813	9.0600e-01	-3.7721	-49.830950	0.000606	6.057782	1.026216	0.024199
1814	9.0650e-01	-3.7519	-49.633328	0.000989	9.894377	1.676153	0.039524
1815	9.0700e-01	-3.7318	-49.472004	0.000808	8.077043	1.368288	0.032265
1816	9.0750e-01	-3.7116	-49.334879	0.000687	6.865486	1.163045	0.027425
1817	9.0800e-01	-3.6909	-49.129191	0.001030	10.298230	1.744567	0.041138
1818	9.0850e-01	-3.6720	-48.988032	0.000707	7.067412	1.197252	0.028232
1819	9.0900e-01	-3.6517	-48.879139	0.000545	5.452004	0.923594	0.021779
1820	9.0950e-01	-3.6301	-48.637153	0.001212	12.115564	2.052432	0.048397
1821	9.1000e-01	-3.6118	-48.508093	0.000646	6.461634	1.094630	0.025812
1822	9.1050e-01	-3.5920	-48.298372	0.001050	10.500156	1.778775	0.041944
1823	9.1100e-01	-3.5722	-48.161247	0.000687	6.865486	1.163045	0.027425
1824	9.1150e-01	-3.5517	-48.028155	0.000666	6.663560	1.128838	0.026618
1825	9.1200e-01	-3.5316	-47.878930	0.000747	7.471265	1.265666	0.029845
1826	9.1250e-01	-3.5117	-47.669209	0.001050	10.500156	1.778775	0.041944
1827	9.1300e-01	-3.4921	-47.487719	0.000909	9.086673	1.539324	0.036298
1828	9.1350e-01	-3.4712	-47.310263	0.000888	8.884747	1.505117	0.035491
1829	9.1400e-01	-3.4512	-47.177171	0.000666	6.663560	1.128838	0.026618
1830	9.1450e-01	-3.4309	-47.003748	0.000868	8.682821	1.470910	0.034685
1831	9.1500e-01	-3.4119	-46.834358	0.000848	8.480895	1.436703	0.033878
1832	9.1550e-01	-3.3912	-46.624636	0.001050	10.500156	1.778775	0.041944
1833	9.1600e-01	-3.3717	-46.499610	0.000626	6.259708	1.060423	0.025005
1834	9.1650e-01	-3.3514	-46.314088	0.000929	9.288599	1.573531	0.037105
1835	9.1700e-01	-3.3314	-46.116466	0.000989	9.894377	1.676153	0.039524
1836	9.1750e-01	-3.3116	-45.979341	0.000687	6.865486	1.163045	0.027425
1837	9.1800e-01	-3.2918	-45.858348	0.000606	6.057782	1.026216	0.024199
1838	9.1850e-01	-3.2704	-45.648627	0.001050	10.500156	1.778775	0.041944
1839	9.1900e-01	-3.2511	-45.455038	0.000969	9.692451	1.641946	0.038718
1840	9.1950e-01	-3.2319	-45.330012	0.000626	6.259708	1.060423	0.025005
1841	9.2000e-01	-3.2117	-45.120291	0.001050	10.500156	1.778775	0.041944
1842	9.2050e-01	-3.1911	-44.954934	0.000828	8.278969	1.402495	0.033071
1843	9.2100e-01	-3.1715	-44.769411	0.000929	9.288599	1.573531	0.037105
1844	9.2150e-01	-3.1509	-44.587922	0.000909	9.086673	1.539324	0.036298
1845	9.2200e-01	-3.1300	-44.454829	0.000666	6.663560	1.128838	0.026618
1846	9.2250e-01	-3.1104	-44.237042	0.001090	10.904008	1.847189	0.043557
1847	9.2300e-01	-3.0914	-44.087817	0.000747	7.471265	1.265666	0.029845
1848	9.2350e-01	-3.0720	-43.918427	0.000848	8.480895	1.436703	0.033878
1849	9.2400e-01	-3.0515	-43.769203	0.000747	7.471265	1.265666	0.029845
1850	9.2450e-01	-3.0309	-43.531250	0.001191	11.913638	2.018225	0.047591
1851	9.2500e-01	-3.0116	-43.434455	0.000485	4.846226	0.820973	0.019359
1852	9.2550e-01	-2.9915	-43.240867	0.000969	9.692451	1.641946	0.038718
1853	9.2600e-01	-2.9716	-43.079543	0.000808	8.077043	1.368288	0.032265
1854	9.2650e-01	-2.9511	-42.894020	0.000929	9.288599	1.573531	0.037105
1855	9.2700e-01	-2.9310	-42.740762	0.000767	7.673191	1.299874	0.030652
1856	9.2750e-01	-2.9116	-42.559273	0.000909	9.086673	1.539324	0.036298
1857	9.2800e-01	-2.8916	-42.345519	0.001070	10.702082	1.812982	0.042751
1858	9.2850e-01	-2.8706	-42.212427	0.000666	6.663560	1.128838	0.026618
1859	9.2900e-01	-2.8506	-42.043036	0.000848	8.480895	1.436703	0.033878
1860	9.2950e-01	-2.8309	-41.845415	0.000989	9.894377	1.676153	0.039524
1861	9.3000e-01	-2.8115	-41.627627	0.001090	10.904008	1.847189	0.043557
1862	9.3050e-01	-2.7912	-41.510667	0.000586	5.855856	0.992009	0.023392
1863	9.3100e-01	-2.7708	-41.353377	0.000788	7.875117	1.334081	0.031458
1864	9.3150e-01	-2.7512	-41.115424	0.001191	11.913638	2.018225	0.047591
1865	9.3200e-01	-2.7308	-40.925868	0.000949	9.490525	1.607739	0.037911
1866	9.3250e-01	-2.7113	-40.812941	0.000565	5.653930	0.957802	0.022585
1867	9.3300e-01	-2.6911	-40.599187	0.001070	10.702082	1.812982	0.042751
1868	9.3350e-01	-2.6711	-40.449962	0.000747	7.471265	1.265666	0.029845
1869	9.3400e-01	-2.6505	-40.236208	0.001070	10.702082	1.812982	0.042751
1870	9.3450e-01	-2.6310	-40.111182	0.000626	6.259708	1.060423	0.025005
1871	9.3500e-01	-2.6099	-39.929693	0.000909	9.086673	1.539324	0.036298
1872	9.3550e-01	-2.5901	-39.728038	0.001010	10.096304	1.710360	0.040331
1873	9.3600e-01	-2.5710	-39.530416	0.000989	9.894377	1.676153	0.039524
1874	9.3650e-01	-2.5509	-39.361026	0.000848	8.480895	1.436703	0.033878
1875	9.3700e-01	-2.5294	-39.179536	0.000909	9.086673	1.539324	0.036298
1876	9.3750e-01	-2.5123	-39.163404	0.000081	0.807704	0.136829	0.003226
1877	9.3800e-01	-2.4912	-38.828657	0.001676	16.759864	2.839198	0.066949
1878	9.3850e-01	-2.4711	-38.699598	0.000646	6.461634	1.094630	0.025812
1879	9.3900e-01	-2.4509	-38.477777	0.001111	11.105934	1.881396	0.044364
1880	9.3950e-01	-2.4313	-38.332586	0.000727	7.269339	1.231459	0.029038
1881	9.4000e-01	-2.4111	-38.155129	0.000888	8.884747	1.505117	0.035491
1882	9.4050e-01	-2.3923	-37.973640	0.000909	9.086673	1.539324	0.036298
1883	9.4100e-01	-2.3713	-37.808283	0.000828	8.278969	1.402495	0.033071
1884	9.4150e-01	-2.3518	-37.566297	0.001212	12.115564	2.052432	0.048397
1885	9.4200e-01	-2.3318	-37.433205	0.000666	6.663560	1.128838	0.026618
1886	9.4250e-01	-2.3121	-37.235583	0.000989	9.894377	1.676153	0.039524
1887	9.4300e-01	-2.2914	-37.046027	0.000949	9.490525	1.607739	0.037911
1888	9.4350e-01	-2.2708	-36.921001	0.000626	6.259708	1.060423	0.025005
1889	9.4400e-01	-2.2511	-36.703214	0.001090	10.904008	1.847189	0.043557
1890	9.4450e-01	-2.2308	-36.493493	0.001050	10.500156	1.778775	0.041944
1891	9.4500e-01	-2.2112	-36.364434	0.000646	6.461634	1.094630	0.025812
1892	9.4550e-01	-2.1912	-36.182944	0.000909	9.086673	1.539324	0.036298
1893	9.4600e-01	-2.1706	-35.993388	0.000949	9.490525	1.607739	0.037911
1894	9.4650e-01	-2.1516	-35.823998	0.000848	8.480895	1.436703	0.033878
1895	9.4700e-01	-2.1317	-35.614277	0.001050	10.500156	1.778775	0.041944
1896	9.4750e-01	-2.1114	-35.412622	0.001010	10.096304	1.710360	0.040331
1897	9.4800e-01	-2.0909	-35.279530	0.000666	6.663560	1.128838	0.026618
1898	9.4850e-01	-2.0707	-35.106107	0.000868	8.682821	1.470910	0.034685
1899	9.4900e-01	-2.0509	-34.908485	0.000989	9.894377	1.676153	0.039524
1900	9.4950e-01	-2.0307	-34.759260	0.000747	7.471265	1.265666	0.029845
1901	9.5000e-01	-2.0106	-34.501142	0.001292	12.923269	2.189261	0.051624
1902	9.5050e-01	-1.9913	-34.355950	0.000727	7.269339	1.231459	0.029038
1903	9.5100e-01	-1.9715	-34.178494	0.000888	8.884747	1.505117	0.035491
1904	9.5150e-01	-1.9514	-34.025236	0.000767	7.673191	1.299874	0.030652
1905	9.5200e-01	-1.9303	-33.819548	0.001030	10.298230	1.744567	0.041138
1906	9.5250e-01	-1.9111	-33.589662	0.001151	11.509786	1.949811	0.045977
1907	9.5300e-01	-1.8903	-33.428338	0.000808	8.077043	1.368288	0.032265
1908	9.5350e-01	-1.8727	-33.339610	0.000444	4.442374	0.752558	0.017746
1909	9.5400e-01	-1.8513	-32.932267	0.002039	20.394533	3.454927	0.081469
1910	9.5450e-01	-1.8313	-32.895969	0.000182	1.817335	0.307865	0.007260
1911	9.5500e-01	-1.8110	-32.827406	0.000343	3.432743	0.581522	0.013713
1912	9.5550e-01	-1.7912	-32.565255	0.001313	13.125195	2.223468	0.052430
1913	9.5600e-01	-1.7709	-32.339401	0.001131	11.307860	1.915603	0.045171
1914	9.5650e-01	-1.7512	-32.178077	0.000808	8.077043	1.368288	0.032265
1915	9.5700e-01	-1.7307	-32.016753	0.000808	8.077043	1.368288	0.032265
1916	9.5750e-01	-1.7114	-31.815098	0.001010	10.096304	1.710360	0.040331
1917	9.5800e-01	-1.6917	-31.621510	0.000969	9.692451	1.641946	0.038718
1918	9.5850e-01	-1.6712	-31.403722	0.001090	10.904008	1.847189	0.043557
1919	9.5900e-01	-1.6509	-31.218200	0.000929	9.288599	1.573531	0.037105
1920	9.5950e-01	-1.6303	-31.064942	0.000767	7.673191	1.299874	0.030652
1921	9.6000e-01	-1.6113	-30.851188	0.001070	10.702082	1.812982	0.042751
1922	9.6050e-01	-1.5910	-30.661632	0.000949	9.490525	1.607739	0.037911
1923	9.6100e-01	-1.5707	-30.504341	0.000788	7.875117	1.334081	0.031458
1924	9.6150e-01	-1.5516	-30.266388	0.001191	11.913638	2.018225	0.047591
1925	9.6200e-01	-1.5303	-30.117164	0.000747	7.471265	1.265666	0.029845
1926	9.6250e-01	-1.5117	-29.943741	0.000868	8.682821	1.470910	0.034685
1927	9.6300e-01	-1.4906	-29.729986	0.001070	10.702082	1.812982	0.042751
1928	9.6350e-01	-1.4710	-29.604960	0.000626	6.259708	1.060423	0.025005
1929	9.6400e-01	-1.4501	-29.395239	0.001050	10.500156	1.778775	0.041944
1930	9.6450e-01	-1.4307	-29.217783	0.000888	8.884747	1.505117	0.035491
1931	9.6500e-01	-1.4103	-29.056459	0.000808	8.077043	1.368288	0.032265
1932	9.6550e-01	-1.3906	-28.858837	0.000989	9.894377	1.676153	0.039524
1933	9.6600e-01	-1.3706	-28.661215	0.000989	9.894377	1.676153	0.039524
1934	9.6650e-01	-1.3503	-28.427295	0.001171	11.711712	1.984018	0.046784
1935	9.6700e-01	-1.3309	-28.326468	0.000505	5.048152	0.855180	0.020165
1936	9.6750e-01	-1.3115	-28.076416	0.001252	12.519416	2.120847	0.050010
1937	9.6800e-01	-1.2904	-27.890893	0.000929	9.288599	1.573531	0.037105
1938	9.6850e-01	-1.2704	-27.717470	0.000868	8.682821	1.470910	0.034685
1939	9.6900e-01	-1.2514	-27.511782	0.001030	10.298230	1.744567	0.041138
1940	9.6950e-01	-1.2304	-27.314160	0.000989	9.894377	1.676153	0.039524
1941	9.7000e-01	-1.2112	-27.148803	0.000828	8.278969	1.402495	0.033071
1942	9.7050e-01	-1.1908	-26.959248	0.000949	9.490525	1.607739	0.037911
1943	9.7100e-01	-1.1713	-26.785824	0.000868	8.682821	1.470910	0.034685
1944	9.7150e-01	-1.1510	-26.620467	0.000828	8.278969	1.402495	0.033071
1945	9.7200e-01	-1.1303	-26.362349	0.001292	12.923269	2.189261	0.051624
1946	9.7250e-01	-1.1109	-26.184893	0.000888	8.884747	1.505117	0.035491
1947	9.7300e-01	-1.0918	-26.059867	0.000626	6.259708	1.060423	0.025005
1948	9.7350e-01	-1.0709	-25.842079	0.001090	10.904008	1.847189	0.043557
1949	9.7400e-01	-1.0509	-25.644457	0.000989	9.894377	1.676153	0.039524
1950	9.7450e-01	-1.0305	-25.467001	0.000888	8.884747	1.505117	0.035491
1951	9.7500e-01	-1.0105	-25.212916	0.001272	12.721342	2.155054	0.050817
1952	9.7550e-01	-0.9914	-25.116122	0.000485	4.846226	0.820973	0.019359
1953	9.7600e-01	-0.9708	-24.910434	0.001030	10.298230	1.744567	0.041138
1954	9.7650e-01	-0.9505	-24.720878	0.000949	9.490525	1.607739	0.037911
1955	9.7700e-01	-0.9310	-24.531322	0.000949	9.490525	1.607739	0.037911
1956	9.7750e-01	-0.9102	-24.349833	0.000909	9.086673	1.539324	0.036298
1957	9.7800e-01	-0.8913	-24.156244	0.000969	9.692451	1.641946	0.038718
1958	9.7850e-01	-0.8710	-23.966688	0.000949	9.490525	1.607739	0.037911
1959	9.7900e-01	-0.8510	-23.777133	0.000949	9.490525	1.607739	0.037911
1960	9.7950e-01	-0.8308	-23.571445	0.001030	10.298230	1.744567	0.041138
1961	9.8000e-01	-0.8106	-23.277029	0.001474	14.740603	2.497126	0.058883
1962	9.8050e-01	-0.7906	-23.204433	0.000363	3.634669	0.615730	0.014519
1963	9.8100e-01	-0.7706	-23.022943	0.000909	9.086673	1.539324	0.036298
1964	9.8150e-01	-0.7506	-22.793057	0.001151	11.509786	1.949811	0.045977
1965	9.8200e-01	-0.7313	-22.663998	0.000646	6.461634	1.094630	0.025812
1966	9.8250e-01	-0.7105	-22.466376	0.000989	9.894377	1.676153	0.039524
1967	9.8300e-01	-0.6904	-22.296986	0.000848	8.480895	1.436703	0.033878
1968	9.8350e-01	-0.6712	-22.103397	0.000969	9.692451	1.641946	0.038718
1969	9.8400e-01	-0.6511	-21.821080	0.001413	14.134825	2.394504	0.056463
1970	9.8450e-01	-0.6301	-21.700087	0.000606	6.057782	1.026216	0.024199
1971	9.8500e-01	-0.6101	-21.510531	0.000949	9.490525	1.607739	0.037911
1972	9.8550e-01	-0.5914	-21.256446	0.001272	12.721342	2.155054	0.050817
1973	9.8600e-01	-0.5705	-21.050758	0.001030	10.298230	1.744567	0.041138
1974	9.8650e-01	-0.5503	-20.897500	0.000767	7.673191	1.299874	0.030652
1975	9.8700e-01	-0.5308	-20.728110	0.000848	8.480895	1.436703	0.033878
1976	9.8750e-01	-0.5104	-20.518389	0.001050	10.500156	1.778775	0.041944
1977	9.8800e-01	-0.4904	-20.373198	0.000727	7.269339	1.231459	0.029038
1978	9.8850e-01	-0.4713	-20.167510	0.001030	10.298230	1.744567	0.041138
1979	9.8900e-01	-0.4511	-19.933590	0.001171	11.711712	1.984018	0.046784
1980	9.8950e-01	-0.4305	-19.808564	0.000626	6.259708	1.060423	0.025005
1981	9.9000e-01	-0.4107	-19.562545	0.001232	12.317490	2.086639	0.049204
1982	9.9050e-01	-0.3907	-19.377022	0.000929	9.288599	1.573531	0.037105
1983	9.9100e-01	-0.3699	-19.227798	0.000747	7.471265	1.265666	0.029845
1984	9.9150e-01	-0.3500	-19.022110	0.001030	10.298230	1.744567	0.041138
1985	9.9200e-01	-0.3303	-18.784157	0.001191	11.913638	2.018225	0.047591
1986	9.9250e-01	-0.3104	-18.618800	0.000828	8.278969	1.402495	0.033071
1987	9.9300e-01	-0.2900	-18.429244	0.000949	9.490525	1.607739	0.037911
1988	9.9350e-01	-0.2702	-18.259854	0.000848	8.480895	1.436703	0.033878
1989	9.9400e-01	-0.2493	-18.098530	0.000808	8.077043	1.368288	0.032265
1990	9.9450e-01	-0.2299	-17.860577	0.001191	11.913638	2.018225	0.047591
1991	9.9500e-01	-0.2109	-17.662955	0.000989	9.894377	1.676153	0.039524
1992	9.9550e-01	-0.1904	-17.449201	0.001070	10.702082	1.812982	0.042751
1993	9.9600e-01	-0.1704	-17.259645	0.000949	9.490525	1.607739	0.037911
1994	9.9650e-01	-0.1507	-17.074123	0.000929	9.288599	1.573531	0.037105
1995	9.9700e-01	-0.1301	-16.888600	0.000929	9.288599	1.573531	0.037105
1996	9.9750e-01	-0.1095	-16.678879	0.001050	10.500156	1.778775	0.041944
1997	9.9800e-01	-0.0901	-16.489324	0.000949	9.490525	1.607739	0.037911
1998	9.9850e-01	-0.0712	-16.448993	0.000202	2.019261	0.342072	0.008066
1999	9.9900e-01	-0.0497	-15.985186	0.002322	23.221498	3.933828	0.092761
2000	9.9950e-01	-0.0304	-16.005352	-0.000101	-1.009630	-0.171036	-0.004033
2001	1.0000e+00	-0.0104	-15.727068	-0.000101	-1.009630	-0.171036	0.055657

Smooth data before PMax, +/-Pr and +/-Vc Calc.

PMax (uC/cm2):	8.31e+01
Pr (uC/cm2):	5.42e+00
-Pr (uC/cm2):	-2.15e+01
PLoss (uC/cm2):	-2.15e+01
-Vc:	-5.33e-01
C (Max-Eff) (nF):	8.32e-01
K (Eff):	1.41e+03
Vert. (+/-Pr) Shift (uC/cm2):	-8.03e+00
Offset (uC/cm2):	-5.70e+00

A (Loop Area - uC/cm2·Volts):	-5.91e-02



Hysteresis Version: 5.48.1 - Radiant Technologies, Inc., 1999 - 9/12/24

