»»»»»»»»»»»»»»»»»»»»»»»»»»»»»»»»»»»» Hysteresis ««««««««««««««««««««««««««««««««««««
»»»  Executed Version:	5.48.1
»»»  Vision Version:	5.48.4 (R)
»»»  Vision Compiled:	9/18/24
»»»  Driver Version:	5.47.0
»»»  Windows Version:	Windows 8 or 8.1
»»»  Processor Information:	x86 (AMD or Intel) - 32 Processors
»»»  Tester Name:	PMF21124-494 (100V)
»»»  Tester S/N:	PMF21124-494
»»»  Internal Amp Type:	100V RevK 270k
»»»  Internal Amp S/N:	iAB2-596/K     
»»»  Execution Count:	1
»»»»»»»»»»»»»»»»»»»»»»»»»»»»»»»»»»»»»»»»»»««««««««««««««««««««««««««««««««««««««««««

Stored:	7/8/2025 - 15:30:29
Configured:	07/08/25 02:50:47 PM
Executed:	07/08/25 03:29:35 PM

»»»»»»»»»»»»»»»»»»»»»»»»»»»»»»»»»»» Sample Info ««««««««««««««««««««««««««««««««««««
Sample Name:	
Lot Name:	
Wafer Name:	
Die Row/Column:	0/0
Capacitor Number:	0
Sample Area (cm2):	1.00e-04
Sample Thickness (microns):	1.50e-01

Amplifier:	Internal

»»»»»»»»»»»»»»»»»»»»»»»»»»»»»»»»»»» Tester Info «««««««««««««««««««««««««««««««««««
Tester Name:	PMF21124-494 (100V)
Tester Serial Number:	PMF21124-494
Return Signal Amp. Level:	0.19 [Index: 3]

»»»»»»»»»»»»»»»»»»»»»»»»»»»»»»»» Hysteresis Info ««««««««««««««««««««««««««««««««««
Task Name:	Hyst-724
Volts:	10.00
Field:	666.67 (kV/cm)
DCBias:	0.00
DCField:	0.00 (kV/cm)
Hysteresis Period (ms):	2.00e+02
Preset:	Enabled
Preset Delay (ms):	1.00e+03
Profile:	Standard Bipolar

»»»»»»»»»»»»»»»»»»»»»»»»»»»»»»»»»»»»»» Data «««««««««««««««««««««««««««««««««««««««
Points:	2009

Valid Data

Point	Time (ms)	Drive Voltage	Measured Polarization (uC/cm2)	Capacitance (uF)	Normalized Capacitance (uF/cm2)	Dielectric Constant	Instantaneous Current (mA)
   1	0.0000e+00	0.0006	43.986612	0.000547	5.472372	0.927045	0.000110
   2	9.9500e-02	0.0196	44.095615	0.000547	5.472372	0.927045	0.000110
   3	1.9900e-01	0.0392	44.204618	0.000547	5.472372	0.927045	0.000110
   4	2.9850e-01	0.0597	44.358029	0.000770	7.701857	1.304730	0.000154
   5	3.9800e-01	0.0785	44.471069	0.000568	5.675053	0.961380	0.000114
   6	4.9750e-01	0.0995	44.616406	0.000730	7.296496	1.236060	0.000146
   7	5.9700e-01	0.1190	44.705223	0.000446	4.458970	0.755370	0.000089
   8	6.9650e-01	0.1383	44.858634	0.000770	7.701857	1.304730	0.000154
   9	7.9600e-01	0.1592	44.991859	0.000669	6.688455	1.133055	0.000134
  10	8.9550e-01	0.1788	45.121048	0.000649	6.485774	1.098720	0.000130
  11	9.9500e-01	0.1986	45.246199	0.000628	6.283094	1.064385	0.000126
  12	1.0945e+00	0.2188	45.383461	0.000689	6.891135	1.167390	0.000138
  13	1.1940e+00	0.2395	45.508613	0.000628	6.283094	1.064385	0.000126
  14	1.2935e+00	0.2592	45.613578	0.000527	5.269692	0.892710	0.000105
  15	1.3930e+00	0.2783	45.771026	0.000790	7.904538	1.339065	0.000158
  16	1.4925e+00	0.2994	45.912326	0.000709	7.093816	1.201725	0.000142
  17	1.5920e+00	0.3185	46.029403	0.000588	5.877733	0.995715	0.000118
  18	1.6915e+00	0.3391	46.207037	0.000892	8.917940	1.510740	0.000179
  19	1.7910e+00	0.3595	46.307965	0.000507	5.067011	0.858375	0.000101
  20	1.8905e+00	0.3786	46.441191	0.000669	6.688455	1.133055	0.000134
  21	1.9900e+00	0.3992	46.578454	0.000689	6.891135	1.167390	0.000138
  22	2.0895e+00	0.4175	46.687456	0.000547	5.472372	0.927045	0.000110
  23	2.1890e+00	0.4373	46.812607	0.000628	6.283094	1.064385	0.000126
  24	2.2885e+00	0.4573	46.974093	0.000811	8.107218	1.373400	0.000162
  25	2.3880e+00	0.4781	47.111355	0.000689	6.891135	1.167390	0.000138
  26	2.4875e+00	0.4980	47.236507	0.000628	6.283094	1.064385	0.000126
  27	2.5870e+00	0.5178	47.373769	0.000689	6.891135	1.167390	0.000138
  28	2.6865e+00	0.5376	47.506995	0.000669	6.688455	1.133055	0.000134
  29	2.7860e+00	0.5576	47.632146	0.000628	6.283094	1.064385	0.000126
  30	2.8855e+00	0.5769	47.773446	0.000709	7.093816	1.201725	0.000142
  31	2.9850e+00	0.5975	47.898597	0.000628	6.283094	1.064385	0.000126
  32	3.0845e+00	0.6177	48.056045	0.000790	7.904538	1.339065	0.000158
  33	3.1840e+00	0.6376	48.173122	0.000588	5.877733	0.995715	0.000118
  34	3.2835e+00	0.6567	48.314422	0.000709	7.093816	1.201725	0.000142
  35	3.3830e+00	0.6765	48.447647	0.000669	6.688455	1.133055	0.000134
  36	3.4825e+00	0.6976	48.580873	0.000669	6.688455	1.133055	0.000134
  37	3.5820e+00	0.7166	48.734284	0.000770	7.701857	1.304730	0.000154
  38	3.6815e+00	0.7374	48.851361	0.000588	5.877733	0.995715	0.000118
  39	3.7810e+00	0.7565	48.980549	0.000649	6.485774	1.098720	0.000130
  40	3.8805e+00	0.7773	49.109738	0.000649	6.485774	1.098720	0.000130
  41	3.9800e+00	0.7962	49.242963	0.000669	6.688455	1.133055	0.000134
  42	4.0795e+00	0.8163	49.400411	0.000790	7.904538	1.339065	0.000158
  43	4.1790e+00	0.8363	49.545748	0.000730	7.296496	1.236060	0.000146
  44	4.2785e+00	0.8566	49.674937	0.000649	6.485774	1.098720	0.000130
  45	4.3780e+00	0.8762	49.796051	0.000608	6.080414	1.030050	0.000122
  46	4.4775e+00	0.8968	49.945425	0.000750	7.499177	1.270395	0.000150
  47	4.5770e+00	0.9164	50.082687	0.000689	6.891135	1.167390	0.000138
  48	4.6765e+00	0.9355	50.195727	0.000568	5.675053	0.961380	0.000114
  49	4.7760e+00	0.9565	50.393547	0.000993	9.931342	1.682415	0.000199
  50	4.8755e+00	0.9763	50.486401	0.000466	4.661650	0.789705	0.000093
  51	4.9750e+00	0.9956	50.627701	0.000709	7.093816	1.201725	0.000142
  52	5.0745e+00	1.0155	50.769000	0.000709	7.093816	1.201725	0.000142
  53	5.1740e+00	1.0361	50.906263	0.000689	6.891135	1.167390	0.000138
  54	5.2735e+00	1.0564	51.071786	0.000831	8.309898	1.407735	0.000166
  55	5.3730e+00	1.0757	51.176751	0.000527	5.269692	0.892710	0.000105
  56	5.4725e+00	1.0960	51.322088	0.000730	7.296496	1.236060	0.000146
  57	5.5720e+00	1.1161	51.443202	0.000608	6.080414	1.030050	0.000122
  58	5.6715e+00	1.1361	51.604688	0.000811	8.107218	1.373400	0.000162
  59	5.7710e+00	1.1553	51.733876	0.000649	6.485774	1.098720	0.000130
  60	5.8705e+00	1.1750	51.887287	0.000770	7.701857	1.304730	0.000154
  61	5.9700e+00	1.1959	52.036661	0.000750	7.499177	1.270395	0.000150
  62	6.0695e+00	1.2154	52.169887	0.000669	6.688455	1.133055	0.000134
  63	6.1690e+00	1.2345	52.327335	0.000790	7.904538	1.339065	0.000158
  64	6.2685e+00	1.2550	52.432300	0.000527	5.269692	0.892710	0.000105
  65	6.3680e+00	1.2745	52.613972	0.000912	9.120620	1.545075	0.000183
  66	6.4675e+00	1.2946	52.743160	0.000649	6.485774	1.098720	0.000130
  67	6.5670e+00	1.3129	52.876385	0.000669	6.688455	1.133055	0.000134
  68	6.6665e+00	1.3345	52.997499	0.000608	6.080414	1.030050	0.000122
  69	6.7660e+00	1.3544	53.158985	0.000811	8.107218	1.373400	0.000162
  70	6.8655e+00	1.3745	53.312396	0.000770	7.701857	1.304730	0.000154
  71	6.9650e+00	1.3938	53.449659	0.000689	6.891135	1.167390	0.000138
  72	7.0645e+00	1.4137	53.603070	0.000770	7.701857	1.304730	0.000154
  73	7.1640e+00	1.4308	53.760518	0.000790	7.904538	1.339065	0.000158
  74	7.2635e+00	1.4536	53.897781	0.000689	6.891135	1.167390	0.000138
  75	7.3630e+00	1.4736	54.022932	0.000628	6.283094	1.064385	0.000126
  76	7.4625e+00	1.4928	54.204603	0.000912	9.120620	1.545075	0.000183
  77	7.5620e+00	1.5144	54.345903	0.000709	7.093816	1.201725	0.000142
  78	7.6615e+00	1.5324	54.499314	0.000770	7.701857	1.304730	0.000154
  79	7.7610e+00	1.5536	54.632539	0.000669	6.688455	1.133055	0.000134
  80	7.8605e+00	1.5746	54.773839	0.000709	7.093816	1.201725	0.000142
  81	7.9600e+00	1.5932	54.911102	0.000689	6.891135	1.167390	0.000138
  82	8.0595e+00	1.6132	55.064513	0.000770	7.701857	1.304730	0.000154
  83	8.1590e+00	1.6341	55.197738	0.000669	6.688455	1.133055	0.000134
  84	8.2585e+00	1.6531	55.375372	0.000892	8.917940	1.510740	0.000179
  85	8.3580e+00	1.6735	55.484375	0.000547	5.472372	0.927045	0.000110
  86	8.4575e+00	1.6924	55.629712	0.000730	7.296496	1.236060	0.000146
  87	8.5570e+00	1.7127	55.803309	0.000872	8.715259	1.476405	0.000174
  88	8.6565e+00	1.7329	55.960757	0.000790	7.904538	1.339065	0.000158
  89	8.7560e+00	1.7526	56.118205	0.000790	7.904538	1.339065	0.000158
  90	8.8555e+00	1.7726	56.235282	0.000588	5.877733	0.995715	0.000118
  91	8.9550e+00	1.7928	56.352359	0.000588	5.877733	0.995715	0.000118
  92	9.0545e+00	1.8127	56.493659	0.000709	7.093816	1.201725	0.000142
  93	9.1540e+00	1.8322	56.687441	0.000973	9.728662	1.648080	0.000195
  94	9.2535e+00	1.8521	56.812593	0.000628	6.283094	1.064385	0.000126
  95	9.3530e+00	1.8726	56.970041	0.000790	7.904538	1.339065	0.000158
  96	9.4525e+00	1.8919	57.091155	0.000608	6.080414	1.030050	0.000122
  97	9.5520e+00	1.9127	57.256678	0.000831	8.309898	1.407735	0.000166
  98	9.6515e+00	1.9320	57.406052	0.000750	7.499177	1.270395	0.000150
  99	9.7510e+00	1.9524	57.547351	0.000709	7.093816	1.201725	0.000142
 100	9.8505e+00	1.9722	57.660391	0.000568	5.675053	0.961380	0.000114
 101	9.9500e+00	1.9911	57.829951	0.000851	8.512579	1.442070	0.000170
 102	1.0050e+01	2.0123	57.959139	0.000649	6.485774	1.098720	0.000130
 103	1.0149e+01	2.0324	58.100439	0.000709	7.093816	1.201725	0.000142
 104	1.0248e+01	2.0513	58.261924	0.000811	8.107218	1.373400	0.000162
 105	1.0348e+01	2.0712	58.419373	0.000790	7.904538	1.339065	0.000158
 106	1.0447e+01	2.0905	58.540487	0.000608	6.080414	1.030050	0.000122
 107	1.0547e+01	2.1119	58.689861	0.000750	7.499177	1.270395	0.000150
 108	1.0646e+01	2.1314	58.806938	0.000588	5.877733	0.995715	0.000118
 109	1.0746e+01	2.1519	58.952275	0.000730	7.296496	1.236060	0.000146
 110	1.0845e+01	2.1719	59.117797	0.000831	8.309898	1.407735	0.000166
 111	1.0945e+01	2.1911	59.242948	0.000628	6.283094	1.064385	0.000126
 112	1.1044e+01	2.2107	59.428657	0.000932	9.323301	1.579410	0.000187
 113	1.1144e+01	2.2314	59.569956	0.000709	7.093816	1.201725	0.000142
 114	1.1243e+01	2.2502	59.703182	0.000669	6.688455	1.133055	0.000134
 115	1.1343e+01	2.2708	59.840444	0.000689	6.891135	1.167390	0.000138
 116	1.1443e+01	2.2909	59.985781	0.000730	7.296496	1.236060	0.000146
 117	1.1542e+01	2.3115	60.114970	0.000649	6.485774	1.098720	0.000130
 118	1.1642e+01	2.3302	60.272418	0.000790	7.904538	1.339065	0.000158
 119	1.1741e+01	2.3509	60.433903	0.000811	8.107218	1.373400	0.000162
 120	1.1841e+01	2.3707	60.563092	0.000649	6.485774	1.098720	0.000130
 121	1.1940e+01	2.3908	60.708429	0.000730	7.296496	1.236060	0.000146
 122	1.2040e+01	2.4104	60.801283	0.000466	4.661650	0.789705	0.000093
 123	1.2139e+01	2.4300	61.007177	0.001034	10.336703	1.751085	0.000207
 124	1.2239e+01	2.4502	61.172699	0.000831	8.309898	1.407735	0.000166
 125	1.2338e+01	2.4700	61.273628	0.000507	5.067011	0.858375	0.000101
 126	1.2438e+01	2.4900	61.410890	0.000689	6.891135	1.167390	0.000138
 127	1.2537e+01	2.5100	61.580450	0.000851	8.512579	1.442070	0.000170
 128	1.2636e+01	2.5304	61.729824	0.000750	7.499177	1.270395	0.000150
 129	1.2736e+01	2.5500	61.854975	0.000628	6.283094	1.064385	0.000126
 130	1.2835e+01	2.5697	62.000312	0.000730	7.296496	1.236060	0.000146
 131	1.2935e+01	2.5885	62.141612	0.000709	7.093816	1.201725	0.000142
 132	1.3034e+01	2.6097	62.295023	0.000770	7.701857	1.304730	0.000154
 133	1.3134e+01	2.6293	62.484768	0.000953	9.525981	1.613745	0.000191
 134	1.3233e+01	2.6482	62.597808	0.000568	5.675053	0.961380	0.000114
 135	1.3333e+01	2.6691	62.674514	0.000385	3.850929	0.652365	0.000077
 136	1.3432e+01	2.6891	62.880408	0.001034	10.336703	1.751085	0.000207
 137	1.3532e+01	2.7090	62.997485	0.000588	5.877733	0.995715	0.000118
 138	1.3632e+01	2.7291	63.163007	0.000831	8.309898	1.407735	0.000166
 139	1.3731e+01	2.7496	63.312381	0.000750	7.499177	1.270395	0.000150
 140	1.3831e+01	2.7700	63.441570	0.000649	6.485774	1.098720	0.000130
 141	1.3930e+01	2.7895	63.574795	0.000669	6.688455	1.133055	0.000134
 142	1.4030e+01	2.8085	63.708021	0.000669	6.688455	1.133055	0.000134
 143	1.4129e+01	2.8294	63.841246	0.000669	6.688455	1.133055	0.000134
 144	1.4229e+01	2.8484	63.974471	0.000669	6.688455	1.133055	0.000134
 145	1.4328e+01	2.8691	64.144031	0.000851	8.512579	1.442070	0.000170
 146	1.4428e+01	2.8878	64.240922	0.000486	4.864331	0.824040	0.000097
 147	1.4527e+01	2.9088	64.418556	0.000892	8.917940	1.510740	0.000179
 148	1.4627e+01	2.9278	64.567930	0.000750	7.499177	1.270395	0.000150
 149	1.4726e+01	2.9484	64.689044	0.000608	6.080414	1.030050	0.000122
 150	1.4825e+01	2.9693	64.834381	0.000730	7.296496	1.236060	0.000146
 151	1.4925e+01	2.9875	64.939347	0.000527	5.269692	0.892710	0.000105
 152	1.5024e+01	3.0082	65.112944	0.000872	8.715259	1.476405	0.000174
 153	1.5124e+01	3.0273	65.266355	0.000770	7.701857	1.304730	0.000154
 154	1.5223e+01	3.0483	65.383432	0.000588	5.877733	0.995715	0.000118
 155	1.5323e+01	3.0682	65.488397	0.000527	5.269692	0.892710	0.000105
 156	1.5422e+01	3.0876	65.702366	0.001074	10.742064	1.819755	0.000215
 157	1.5522e+01	3.1073	65.770997	0.000345	3.445568	0.583695	0.000069
 158	1.5621e+01	3.1284	65.968817	0.000993	9.931342	1.682415	0.000199
 159	1.5721e+01	3.1472	66.065708	0.000486	4.864331	0.824040	0.000097
 160	1.5820e+01	3.1673	66.235267	0.000851	8.512579	1.442070	0.000170
 161	1.5920e+01	3.1876	66.311973	0.000385	3.850929	0.652365	0.000077
 162	1.6020e+01	3.2065	66.501718	0.000953	9.525981	1.613745	0.000191
 163	1.6119e+01	3.2265	66.630907	0.000649	6.485774	1.098720	0.000130
 164	1.6218e+01	3.2476	66.756058	0.000628	6.283094	1.064385	0.000126
 165	1.6318e+01	3.2662	66.881209	0.000628	6.283094	1.064385	0.000126
 166	1.6418e+01	3.2865	66.998286	0.000588	5.877733	0.995715	0.000118
 167	1.6517e+01	3.3072	67.147660	0.000750	7.499177	1.270395	0.000150
 168	1.6616e+01	3.3269	67.297034	0.000750	7.499177	1.270395	0.000150
 169	1.6716e+01	3.3470	67.438334	0.000709	7.093816	1.201725	0.000142
 170	1.6816e+01	3.3666	67.567522	0.000649	6.485774	1.098720	0.000130
 171	1.6915e+01	3.3868	67.708822	0.000709	7.093816	1.201725	0.000142
 172	1.7015e+01	3.4072	67.813788	0.000527	5.269692	0.892710	0.000105
 173	1.7114e+01	3.4266	67.999496	0.000932	9.323301	1.579410	0.000187
 174	1.7213e+01	3.4461	68.132721	0.000669	6.688455	1.133055	0.000134
 175	1.7313e+01	3.4663	68.233650	0.000507	5.067011	0.858375	0.000101
 176	1.7413e+01	3.4856	68.378987	0.000730	7.296496	1.236060	0.000146
 177	1.7512e+01	3.5070	68.512212	0.000669	6.688455	1.133055	0.000134
 178	1.7611e+01	3.5259	68.665623	0.000770	7.701857	1.304730	0.000154
 179	1.7711e+01	3.5461	68.754440	0.000446	4.458970	0.755370	0.000089
 180	1.7811e+01	3.5659	68.875554	0.000608	6.080414	1.030050	0.000122
 181	1.7910e+01	3.5856	69.057225	0.000912	9.120620	1.545075	0.000183
 182	1.8009e+01	3.6048	69.142005	0.000426	4.256289	0.721035	0.000085
 183	1.8109e+01	3.6254	69.323676	0.000912	9.120620	1.545075	0.000183
 184	1.8209e+01	3.6451	69.464976	0.000709	7.093816	1.201725	0.000142
 185	1.8308e+01	3.6666	69.573979	0.000547	5.472372	0.927045	0.000110
 186	1.8407e+01	3.6860	69.723353	0.000750	7.499177	1.270395	0.000150
 187	1.8507e+01	3.7051	69.876764	0.000770	7.701857	1.304730	0.000154
 188	1.8607e+01	3.7254	70.005952	0.000649	6.485774	1.098720	0.000130
 189	1.8706e+01	3.7452	70.139178	0.000669	6.688455	1.133055	0.000134
 190	1.8805e+01	3.7656	70.240106	0.000507	5.067011	0.858375	0.000101
 191	1.8905e+01	3.7853	70.413703	0.000872	8.715259	1.476405	0.000174
 192	1.9005e+01	3.8033	70.514631	0.000507	5.067011	0.858375	0.000101
 193	1.9104e+01	3.8262	70.680154	0.000831	8.309898	1.407735	0.000166
 194	1.9203e+01	3.8436	70.829528	0.000750	7.499177	1.270395	0.000150
 195	1.9303e+01	3.8651	70.930456	0.000507	5.067011	0.858375	0.000101
 196	1.9402e+01	3.8842	71.075793	0.000730	7.296496	1.236060	0.000146
 197	1.9502e+01	3.9051	71.204982	0.000649	6.485774	1.098720	0.000130
 198	1.9602e+01	3.9237	71.342244	0.000689	6.891135	1.167390	0.000138
 199	1.9701e+01	3.9439	71.455284	0.000568	5.675053	0.961380	0.000114
 200	1.9800e+01	3.9639	71.576398	0.000608	6.080414	1.030050	0.000122
 201	1.9900e+01	3.9845	71.729809	0.000770	7.701857	1.304730	0.000154
 202	2.0000e+01	4.0040	71.867072	0.000689	6.891135	1.167390	0.000138
 203	2.0099e+01	4.0237	71.988186	0.000608	6.080414	1.030050	0.000122
 204	2.0198e+01	4.0443	72.141597	0.000770	7.701857	1.304730	0.000154
 205	2.0298e+01	4.0636	72.246563	0.000527	5.269692	0.892710	0.000105
 206	2.0398e+01	4.0833	72.404011	0.000790	7.904538	1.339065	0.000158
 207	2.0497e+01	4.1047	72.521088	0.000588	5.877733	0.995715	0.000118
 208	2.0596e+01	4.1238	72.658350	0.000689	6.891135	1.167390	0.000138
 209	2.0696e+01	4.1446	72.783502	0.000628	6.283094	1.064385	0.000126
 210	2.0796e+01	4.1643	72.912690	0.000649	6.485774	1.098720	0.000130
 211	2.0895e+01	4.1835	73.029767	0.000588	5.877733	0.995715	0.000118
 212	2.0994e+01	4.2034	73.179141	0.000750	7.499177	1.270395	0.000150
 213	2.1094e+01	4.2233	73.308329	0.000649	6.485774	1.098720	0.000130
 214	2.1194e+01	4.2437	73.417332	0.000547	5.472372	0.927045	0.000110
 215	2.1293e+01	4.2632	73.550557	0.000669	6.688455	1.133055	0.000134
 216	2.1392e+01	4.2832	73.683783	0.000669	6.688455	1.133055	0.000134
 217	2.1492e+01	4.3032	73.853343	0.000851	8.512579	1.442070	0.000170
 218	2.1591e+01	4.3237	73.921974	0.000345	3.445568	0.583695	0.000069
 219	2.1691e+01	4.3427	74.107682	0.000932	9.323301	1.579410	0.000187
 220	2.1791e+01	4.3631	74.208611	0.000507	5.067011	0.858375	0.000101
 221	2.1890e+01	4.3832	74.362022	0.000770	7.701857	1.304730	0.000154
 222	2.1989e+01	4.4033	74.466987	0.000527	5.269692	0.892710	0.000105
 223	2.2089e+01	4.4222	74.571953	0.000527	5.269692	0.892710	0.000105
 224	2.2189e+01	4.4416	74.721327	0.000750	7.499177	1.270395	0.000150
 225	2.2288e+01	4.4622	74.898961	0.000892	8.917940	1.510740	0.000179
 226	2.2387e+01	4.4816	74.983741	0.000426	4.256289	0.721035	0.000085
 227	2.2487e+01	4.5025	75.116966	0.000669	6.688455	1.133055	0.000134
 228	2.2587e+01	4.5229	75.258266	0.000709	7.093816	1.201725	0.000142
 229	2.2686e+01	4.5412	75.383417	0.000628	6.283094	1.064385	0.000126
 230	2.2785e+01	4.5625	75.512605	0.000649	6.485774	1.098720	0.000130
 231	2.2885e+01	4.5823	75.653905	0.000709	7.093816	1.201725	0.000142
 232	2.2985e+01	4.6014	75.770982	0.000588	5.877733	0.995715	0.000118
 233	2.3084e+01	4.6219	75.884022	0.000568	5.675053	0.961380	0.000114
 234	2.3183e+01	4.6428	76.029359	0.000730	7.296496	1.236060	0.000146
 235	2.3283e+01	4.6612	76.174696	0.000730	7.296496	1.236060	0.000146
 236	2.3383e+01	4.6816	76.291773	0.000588	5.877733	0.995715	0.000118
 237	2.3482e+01	4.7017	76.420961	0.000649	6.485774	1.098720	0.000130
 238	2.3581e+01	4.7218	76.582446	0.000811	8.107218	1.373400	0.000162
 239	2.3681e+01	4.7399	76.679338	0.000486	4.864331	0.824040	0.000097
 240	2.3780e+01	4.7617	76.812563	0.000669	6.688455	1.133055	0.000134
 241	2.3880e+01	4.7810	76.970011	0.000790	7.904538	1.339065	0.000158
 242	2.3980e+01	4.8009	77.103237	0.000669	6.688455	1.133055	0.000134
 243	2.4079e+01	4.8208	77.236462	0.000669	6.688455	1.133055	0.000134
 244	2.4178e+01	4.8403	77.325279	0.000446	4.458970	0.755370	0.000089
 245	2.4278e+01	4.8617	77.446393	0.000608	6.080414	1.030050	0.000122
 246	2.4378e+01	4.8806	77.607879	0.000811	8.107218	1.373400	0.000162
 247	2.4477e+01	4.9001	77.724956	0.000588	5.877733	0.995715	0.000118
 248	2.4576e+01	4.9209	77.870293	0.000730	7.296496	1.236060	0.000146
 249	2.4676e+01	4.9420	77.971221	0.000507	5.067011	0.858375	0.000101
 250	2.4776e+01	4.9611	78.124632	0.000770	7.701857	1.304730	0.000154
 251	2.4875e+01	4.9798	78.245746	0.000608	6.080414	1.030050	0.000122
 252	2.4974e+01	5.0011	78.362823	0.000588	5.877733	0.995715	0.000118
 253	2.5074e+01	5.0208	78.483937	0.000608	6.080414	1.030050	0.000122
 254	2.5174e+01	5.0405	78.637348	0.000770	7.701857	1.304730	0.000154
 255	2.5273e+01	5.0599	78.758463	0.000608	6.080414	1.030050	0.000122
 256	2.5372e+01	5.0793	78.903799	0.000730	7.296496	1.236060	0.000146
 257	2.5472e+01	5.1003	79.049136	0.000730	7.296496	1.236060	0.000146
 258	2.5572e+01	5.1196	79.190436	0.000709	7.093816	1.201725	0.000142
 259	2.5671e+01	5.1399	79.307513	0.000588	5.877733	0.995715	0.000118
 260	2.5770e+01	5.1591	79.420553	0.000568	5.675053	0.961380	0.000114
 261	2.5870e+01	5.1787	79.549741	0.000649	6.485774	1.098720	0.000130
 262	2.5970e+01	5.1993	79.691041	0.000709	7.093816	1.201725	0.000142
 263	2.6069e+01	5.2199	79.816192	0.000628	6.283094	1.064385	0.000126
 264	2.6169e+01	5.2393	79.933269	0.000588	5.877733	0.995715	0.000118
 265	2.6268e+01	5.2596	80.054383	0.000608	6.080414	1.030050	0.000122
 266	2.6367e+01	5.2785	80.183571	0.000649	6.485774	1.098720	0.000130
 267	2.6467e+01	5.2984	80.288537	0.000527	5.269692	0.892710	0.000105
 268	2.6567e+01	5.3181	80.425800	0.000689	6.891135	1.167390	0.000138
 269	2.6666e+01	5.3387	80.579211	0.000770	7.701857	1.304730	0.000154
 270	2.6765e+01	5.3594	80.663991	0.000426	4.256289	0.721035	0.000085
 271	2.6865e+01	5.3786	80.789142	0.000628	6.283094	1.064385	0.000126
 272	2.6965e+01	5.3994	80.974850	0.000932	9.323301	1.579410	0.000187
 273	2.7064e+01	5.4189	81.031370	0.000284	2.837526	0.480690	0.000057
 274	2.7163e+01	5.4385	81.184781	0.000770	7.701857	1.304730	0.000154
 275	2.7263e+01	5.4574	81.326081	0.000709	7.093816	1.201725	0.000142
 276	2.7363e+01	5.4780	81.431046	0.000527	5.269692	0.892710	0.000105
 277	2.7462e+01	5.4984	81.580420	0.000750	7.499177	1.270395	0.000150
 278	2.7561e+01	5.5178	81.669237	0.000446	4.458970	0.755370	0.000089
 279	2.7661e+01	5.5384	81.798426	0.000649	6.485774	1.098720	0.000130
 280	2.7761e+01	5.5584	81.947800	0.000750	7.499177	1.270395	0.000150
 281	2.7860e+01	5.5788	82.032580	0.000426	4.256289	0.721035	0.000085
 282	2.7959e+01	5.5968	82.177917	0.000730	7.296496	1.236060	0.000146
 283	2.8059e+01	5.6182	82.290956	0.000568	5.675053	0.961380	0.000114
 284	2.8159e+01	5.6384	82.432256	0.000709	7.093816	1.201725	0.000142
 285	2.8258e+01	5.6573	82.549333	0.000588	5.877733	0.995715	0.000118
 286	2.8358e+01	5.6765	82.690633	0.000709	7.093816	1.201725	0.000142
 287	2.8457e+01	5.6969	82.771375	0.000405	4.053609	0.686700	0.000081
 288	2.8556e+01	5.7174	82.900564	0.000649	6.485774	1.098720	0.000130
 289	2.8656e+01	5.7373	83.017641	0.000588	5.877733	0.995715	0.000118
 290	2.8756e+01	5.7568	83.167015	0.000750	7.499177	1.270395	0.000150
 291	2.8855e+01	5.7766	83.284092	0.000588	5.877733	0.995715	0.000118
 292	2.8954e+01	5.7970	83.401169	0.000588	5.877733	0.995715	0.000118
 293	2.9054e+01	5.8168	83.542468	0.000709	7.093816	1.201725	0.000142
 294	2.9154e+01	5.8372	83.659545	0.000588	5.877733	0.995715	0.000118
 295	2.9253e+01	5.8572	83.752399	0.000466	4.661650	0.789705	0.000093
 296	2.9352e+01	5.8768	83.934071	0.000912	9.120620	1.545075	0.000183
 297	2.9452e+01	5.8965	84.030962	0.000486	4.864331	0.824040	0.000097
 298	2.9552e+01	5.9170	84.144002	0.000568	5.675053	0.961380	0.000114
 299	2.9651e+01	5.9358	84.277227	0.000669	6.688455	1.133055	0.000134
 300	2.9750e+01	5.9565	84.398341	0.000608	6.080414	1.030050	0.000122
 301	2.9850e+01	5.9763	84.523492	0.000628	6.283094	1.064385	0.000126
 302	2.9950e+01	5.9959	84.640569	0.000588	5.877733	0.995715	0.000118
 303	3.0049e+01	6.0165	84.741498	0.000507	5.067011	0.858375	0.000101
 304	3.0148e+01	6.0366	84.810129	0.000345	3.445568	0.583695	0.000069
 305	3.0248e+01	6.0559	84.983726	0.000872	8.715259	1.476405	0.000174
 306	3.0348e+01	6.0760	85.129063	0.000730	7.296496	1.236060	0.000146
 307	3.0447e+01	6.0960	85.234028	0.000527	5.269692	0.892710	0.000105
 308	3.0547e+01	6.1153	85.379365	0.000730	7.296496	1.236060	0.000146
 309	3.0646e+01	6.1361	85.480294	0.000507	5.067011	0.858375	0.000101
 310	3.0745e+01	6.1565	85.613519	0.000669	6.688455	1.133055	0.000134
 311	3.0845e+01	6.1755	85.718485	0.000527	5.269692	0.892710	0.000105
 312	3.0945e+01	6.1953	85.835561	0.000588	5.877733	0.995715	0.000118
 313	3.1044e+01	6.2154	85.944564	0.000547	5.472372	0.927045	0.000110
 314	3.1143e+01	6.2359	86.069715	0.000628	6.283094	1.064385	0.000126
 315	3.1243e+01	6.2557	86.190829	0.000608	6.080414	1.030050	0.000122
 316	3.1343e+01	6.2753	86.291758	0.000507	5.067011	0.858375	0.000101
 317	3.1442e+01	6.2949	86.424983	0.000669	6.688455	1.133055	0.000134
 318	3.1541e+01	6.3151	86.558209	0.000669	6.688455	1.133055	0.000134
 319	3.1641e+01	6.3351	86.655100	0.000486	4.864331	0.824040	0.000097
 320	3.1741e+01	6.3541	86.784288	0.000649	6.485774	1.098720	0.000130
 321	3.1840e+01	6.3747	86.885217	0.000507	5.067011	0.858375	0.000101
 322	3.1939e+01	6.3943	87.038628	0.000770	7.701857	1.304730	0.000154
 323	3.2039e+01	6.4144	87.139556	0.000507	5.067011	0.858375	0.000101
 324	3.2139e+01	6.4342	87.252596	0.000568	5.675053	0.961380	0.000114
 325	3.2238e+01	6.4536	87.373710	0.000608	6.080414	1.030050	0.000122
 326	3.2337e+01	6.4742	87.490787	0.000588	5.877733	0.995715	0.000118
 327	3.2437e+01	6.4938	87.575567	0.000426	4.256289	0.721035	0.000085
 328	3.2536e+01	6.5144	87.664384	0.000446	4.458970	0.755370	0.000089
 329	3.2636e+01	6.5348	87.797609	0.000669	6.688455	1.133055	0.000134
 330	3.2736e+01	6.5545	87.926798	0.000649	6.485774	1.098720	0.000130
 331	3.2835e+01	6.5733	88.039838	0.000568	5.675053	0.961380	0.000114
 332	3.2934e+01	6.5932	88.164989	0.000628	6.283094	1.064385	0.000126
 333	3.3034e+01	6.6134	88.265917	0.000507	5.067011	0.858375	0.000101
 334	3.3133e+01	6.6326	88.378957	0.000568	5.675053	0.961380	0.000114
 335	3.3233e+01	6.6540	88.483923	0.000527	5.269692	0.892710	0.000105
 336	3.3333e+01	6.6724	88.641371	0.000790	7.904538	1.339065	0.000158
 337	3.3432e+01	6.6933	88.734225	0.000466	4.661650	0.789705	0.000093
 338	3.3532e+01	6.7129	88.859376	0.000628	6.283094	1.064385	0.000126
 339	3.3631e+01	6.7330	88.948193	0.000446	4.458970	0.755370	0.000089
 340	3.3730e+01	6.7532	89.037010	0.000446	4.458970	0.755370	0.000089
 341	3.3830e+01	6.7736	89.146013	0.000547	5.472372	0.927045	0.000110
 342	3.3929e+01	6.7931	89.255015	0.000547	5.472372	0.927045	0.000110
 343	3.4029e+01	6.8133	89.359981	0.000527	5.269692	0.892710	0.000105
 344	3.4129e+01	6.8319	89.481095	0.000608	6.080414	1.030050	0.000122
 345	3.4228e+01	6.8533	89.618358	0.000689	6.891135	1.167390	0.000138
 346	3.4328e+01	6.8722	89.695063	0.000385	3.850929	0.652365	0.000077
 347	3.4427e+01	6.8926	89.852512	0.000790	7.904538	1.339065	0.000158
 348	3.4526e+01	6.9120	89.961514	0.000547	5.472372	0.927045	0.000110
 349	3.4626e+01	6.9318	90.074554	0.000568	5.675053	0.961380	0.000114
 350	3.4725e+01	6.9521	90.187594	0.000568	5.675053	0.961380	0.000114
 351	3.4825e+01	6.9720	90.280448	0.000466	4.661650	0.789705	0.000093
 352	3.4925e+01	6.9924	90.393488	0.000568	5.675053	0.961380	0.000114
 353	3.5024e+01	7.0118	90.510565	0.000588	5.877733	0.995715	0.000118
 354	3.5123e+01	7.0315	90.627642	0.000588	5.877733	0.995715	0.000118
 355	3.5223e+01	7.0533	90.740681	0.000568	5.675053	0.961380	0.000114
 356	3.5322e+01	7.0712	90.849684	0.000547	5.472372	0.927045	0.000110
 357	3.5422e+01	7.0910	90.922353	0.000365	3.648248	0.618030	0.000073
 358	3.5522e+01	7.1117	91.047504	0.000628	6.283094	1.064385	0.000126
 359	3.5621e+01	7.1314	91.172655	0.000628	6.283094	1.064385	0.000126
 360	3.5721e+01	7.1520	91.281658	0.000547	5.472372	0.927045	0.000110
 361	3.5820e+01	7.1706	91.414883	0.000669	6.688455	1.133055	0.000134
 362	3.5919e+01	7.1906	91.540034	0.000628	6.283094	1.064385	0.000126
 363	3.6019e+01	7.2121	91.620777	0.000405	4.053609	0.686700	0.000081
 364	3.6118e+01	7.2303	91.741891	0.000608	6.080414	1.030050	0.000122
 365	3.6218e+01	7.2514	91.854931	0.000568	5.675053	0.961380	0.000114
 366	3.6318e+01	7.2713	91.988156	0.000669	6.688455	1.133055	0.000134
 367	3.6417e+01	7.2912	92.097159	0.000547	5.472372	0.927045	0.000110
 368	3.6517e+01	7.3106	92.190013	0.000466	4.661650	0.789705	0.000093
 369	3.6616e+01	7.3316	92.266719	0.000385	3.850929	0.652365	0.000077
 370	3.6715e+01	7.3508	92.403981	0.000689	6.891135	1.167390	0.000138
 371	3.6815e+01	7.3699	92.517021	0.000568	5.675053	0.961380	0.000114
 372	3.6914e+01	7.3908	92.626024	0.000547	5.472372	0.927045	0.000110
 373	3.7014e+01	7.4108	92.739064	0.000568	5.675053	0.961380	0.000114
 374	3.7114e+01	7.4301	92.815769	0.000385	3.850929	0.652365	0.000077
 375	3.7213e+01	7.4505	92.932846	0.000588	5.877733	0.995715	0.000118
 376	3.7313e+01	7.4697	93.033775	0.000507	5.067011	0.858375	0.000101
 377	3.7412e+01	7.4903	93.171037	0.000689	6.891135	1.167390	0.000138
 378	3.7511e+01	7.5100	93.259854	0.000446	4.458970	0.755370	0.000089
 379	3.7611e+01	7.5295	93.385005	0.000628	6.283094	1.064385	0.000126
 380	3.7711e+01	7.5497	93.457674	0.000365	3.648248	0.618030	0.000073
 381	3.7810e+01	7.5701	93.598974	0.000709	7.093816	1.201725	0.000142
 382	3.7910e+01	7.5893	93.760459	0.000811	8.107218	1.373400	0.000162
 383	3.8009e+01	7.6089	93.808905	0.000243	2.432165	0.412020	0.000049
 384	3.8108e+01	7.6296	93.930019	0.000608	6.080414	1.030050	0.000122
 385	3.8208e+01	7.6498	94.026910	0.000486	4.864331	0.824040	0.000097
 386	3.8307e+01	7.6691	94.148024	0.000608	6.080414	1.030050	0.000122
 387	3.8407e+01	7.6887	94.293361	0.000730	7.296496	1.236060	0.000146
 388	3.8507e+01	7.7097	94.374104	0.000405	4.053609	0.686700	0.000081
 389	3.8606e+01	7.7298	94.454846	0.000405	4.053609	0.686700	0.000081
 390	3.8706e+01	7.7485	94.584035	0.000649	6.485774	1.098720	0.000130
 391	3.8805e+01	7.7694	94.680926	0.000486	4.864331	0.824040	0.000097
 392	3.8904e+01	7.7887	94.810114	0.000649	6.485774	1.098720	0.000130
 393	3.9004e+01	7.8088	94.931228	0.000608	6.080414	1.030050	0.000122
 394	3.9103e+01	7.8283	95.028120	0.000486	4.864331	0.824040	0.000097
 395	3.9203e+01	7.8486	95.104825	0.000385	3.850929	0.652365	0.000077
 396	3.9303e+01	7.8687	95.229976	0.000628	6.283094	1.064385	0.000126
 397	3.9402e+01	7.8887	95.347053	0.000588	5.877733	0.995715	0.000118
 398	3.9502e+01	7.9089	95.423759	0.000385	3.850929	0.652365	0.000077
 399	3.9601e+01	7.9297	95.552947	0.000649	6.485774	1.098720	0.000130
 400	3.9700e+01	7.9482	95.674061	0.000608	6.080414	1.030050	0.000122
 401	3.9800e+01	7.9681	95.770953	0.000486	4.864331	0.824040	0.000097
 402	3.9900e+01	7.9873	95.912252	0.000709	7.093816	1.201725	0.000142
 403	3.9999e+01	8.0079	96.005106	0.000466	4.661650	0.789705	0.000093
 404	4.0099e+01	8.0277	96.130258	0.000628	6.283094	1.064385	0.000126
 405	4.0198e+01	8.0474	96.235223	0.000527	5.269692	0.892710	0.000105
 406	4.0297e+01	8.0676	96.328077	0.000466	4.661650	0.789705	0.000093
 407	4.0397e+01	8.0877	96.457266	0.000649	6.485774	1.098720	0.000130
 408	4.0496e+01	8.1077	96.558194	0.000507	5.067011	0.858375	0.000101
 409	4.0596e+01	8.1279	96.679308	0.000608	6.080414	1.030050	0.000122
 410	4.0696e+01	8.1466	96.780236	0.000507	5.067011	0.858375	0.000101
 411	4.0795e+01	8.1667	96.881165	0.000507	5.067011	0.858375	0.000101
 412	4.0895e+01	8.1879	96.986130	0.000527	5.269692	0.892710	0.000105
 413	4.0994e+01	8.2069	97.083022	0.000486	4.864331	0.824040	0.000097
 414	4.1093e+01	8.2265	97.163764	0.000405	4.053609	0.686700	0.000081
 415	4.1193e+01	8.2467	97.301027	0.000689	6.891135	1.167390	0.000138
 416	4.1292e+01	8.2671	97.393881	0.000466	4.661650	0.789705	0.000093
 417	4.1392e+01	8.2867	97.547292	0.000770	7.701857	1.304730	0.000154
 418	4.1492e+01	8.3067	97.664369	0.000588	5.877733	0.995715	0.000118
 419	4.1591e+01	8.3270	97.741075	0.000385	3.850929	0.652365	0.000077
 420	4.1691e+01	8.3480	97.821818	0.000405	4.053609	0.686700	0.000081
 421	4.1790e+01	8.3668	97.942932	0.000608	6.080414	1.030050	0.000122
 422	4.1889e+01	8.3869	98.080194	0.000689	6.891135	1.167390	0.000138
 423	4.1989e+01	8.4057	98.189197	0.000547	5.472372	0.927045	0.000110
 424	4.2089e+01	8.4266	98.302237	0.000568	5.675053	0.961380	0.000114
 425	4.2188e+01	8.4457	98.423351	0.000608	6.080414	1.030050	0.000122
 426	4.2288e+01	8.4648	98.560613	0.000689	6.891135	1.167390	0.000138
 427	4.2387e+01	8.4863	98.609059	0.000243	2.432165	0.412020	0.000049
 428	4.2486e+01	8.5050	98.742284	0.000669	6.688455	1.133055	0.000134
 429	4.2586e+01	8.5267	98.831101	0.000446	4.458970	0.755370	0.000089
 430	4.2685e+01	8.5465	98.948178	0.000588	5.877733	0.995715	0.000118
 431	4.2785e+01	8.5665	99.057181	0.000547	5.472372	0.927045	0.000110
 432	4.2885e+01	8.5860	99.145998	0.000446	4.458970	0.755370	0.000089
 433	4.2984e+01	8.6050	99.271149	0.000628	6.283094	1.064385	0.000126
 434	4.3084e+01	8.6253	99.331706	0.000304	3.040207	0.515025	0.000061
 435	4.3183e+01	8.6450	99.477043	0.000730	7.296496	1.236060	0.000146
 436	4.3282e+01	8.6648	99.565860	0.000446	4.458970	0.755370	0.000089
 437	4.3382e+01	8.6843	99.662751	0.000486	4.864331	0.824040	0.000097
 438	4.3481e+01	8.7051	99.791940	0.000649	6.485774	1.098720	0.000130
 439	4.3581e+01	8.7245	99.872682	0.000405	4.053609	0.686700	0.000081
 440	4.3681e+01	8.7441	100.034168	0.000811	8.107218	1.373400	0.000162
 441	4.3780e+01	8.7650	100.139133	0.000527	5.269692	0.892710	0.000105
 442	4.3880e+01	8.7843	100.175468	0.000182	1.824124	0.309015	0.000037
 443	4.3979e+01	8.8046	100.300619	0.000628	6.283094	1.064385	0.000126
 444	4.4078e+01	8.8247	100.413659	0.000568	5.675053	0.961380	0.000114
 445	4.4178e+01	8.8436	100.534773	0.000608	6.080414	1.030050	0.000122
 446	4.4278e+01	8.8642	100.643775	0.000547	5.472372	0.927045	0.000110
 447	4.4377e+01	8.8847	100.744704	0.000507	5.067011	0.858375	0.000101
 448	4.4477e+01	8.9039	100.857744	0.000568	5.675053	0.961380	0.000114
 449	4.4576e+01	8.9231	100.906189	0.000243	2.432165	0.412020	0.000049
 450	4.4675e+01	8.9423	101.055563	0.000750	7.499177	1.270395	0.000150
 451	4.4775e+01	8.9627	101.156492	0.000507	5.067011	0.858375	0.000101
 452	4.4874e+01	8.9823	101.261457	0.000527	5.269692	0.892710	0.000105
 453	4.4974e+01	9.0040	101.374497	0.000568	5.675053	0.961380	0.000114
 454	4.5074e+01	9.0234	101.467351	0.000466	4.661650	0.789705	0.000093
 455	4.5173e+01	9.0437	101.552131	0.000426	4.256289	0.721035	0.000085
 456	4.5273e+01	9.0629	101.701505	0.000750	7.499177	1.270395	0.000150
 457	4.5372e+01	9.0820	101.790322	0.000446	4.458970	0.755370	0.000089
 458	4.5471e+01	9.1032	101.858953	0.000345	3.445568	0.583695	0.000069
 459	4.5571e+01	9.1233	101.976030	0.000588	5.877733	0.995715	0.000118
 460	4.5670e+01	9.1433	102.097144	0.000608	6.080414	1.030050	0.000122
 461	4.5770e+01	9.1626	102.250555	0.000770	7.701857	1.304730	0.000154
 462	4.5870e+01	9.1811	102.327261	0.000385	3.850929	0.652365	0.000077
 463	4.5969e+01	9.2023	102.387818	0.000304	3.040207	0.515025	0.000061
 464	4.6069e+01	9.2214	102.512969	0.000628	6.283094	1.064385	0.000126
 465	4.6168e+01	9.2420	102.617935	0.000527	5.269692	0.892710	0.000105
 466	4.6267e+01	9.2622	102.670418	0.000263	2.634846	0.446355	0.000053
 467	4.6367e+01	9.2815	102.815754	0.000730	7.296496	1.236060	0.000146
 468	4.6467e+01	9.3018	102.928794	0.000568	5.675053	0.961380	0.000114
 469	4.6566e+01	9.3215	103.045871	0.000588	5.877733	0.995715	0.000118
 470	4.6666e+01	9.3421	103.146800	0.000507	5.067011	0.858375	0.000101
 471	4.6765e+01	9.3616	103.259839	0.000568	5.675053	0.961380	0.000114
 472	4.6864e+01	9.3822	103.368842	0.000547	5.472372	0.927045	0.000110
 473	4.6964e+01	9.4025	103.457659	0.000446	4.458970	0.755370	0.000089
 474	4.7063e+01	9.4226	103.546476	0.000446	4.458970	0.755370	0.000089
 475	4.7163e+01	9.4415	103.639330	0.000466	4.661650	0.789705	0.000093
 476	4.7263e+01	9.4607	103.772556	0.000669	6.688455	1.133055	0.000134
 477	4.7362e+01	9.4814	103.861373	0.000446	4.458970	0.755370	0.000089
 478	4.7462e+01	9.5013	103.962301	0.000507	5.067011	0.858375	0.000101
 479	4.7561e+01	9.5215	104.026895	0.000324	3.242887	0.549360	0.000065
 480	4.7660e+01	9.5412	104.192418	0.000831	8.309898	1.407735	0.000166
 481	4.7760e+01	9.5609	104.269123	0.000385	3.850929	0.652365	0.000077
 482	4.7859e+01	9.5819	104.357940	0.000446	4.458970	0.755370	0.000089
 483	4.7959e+01	9.6014	104.450794	0.000466	4.661650	0.789705	0.000093
 484	4.8059e+01	9.6200	104.567871	0.000588	5.877733	0.995715	0.000118
 485	4.8158e+01	9.6412	104.656688	0.000446	4.458970	0.755370	0.000089
 486	4.8258e+01	9.6605	104.781840	0.000628	6.283094	1.064385	0.000126
 487	4.8357e+01	9.6796	104.854508	0.000365	3.648248	0.618030	0.000073
 488	4.8456e+01	9.7002	104.967548	0.000568	5.675053	0.961380	0.000114
 489	4.8556e+01	9.7211	105.064439	0.000486	4.864331	0.824040	0.000097
 490	4.8656e+01	9.7404	105.193627	0.000649	6.485774	1.098720	0.000130
 491	4.8755e+01	9.7594	105.233999	0.000203	2.026805	0.343350	0.000041
 492	4.8855e+01	9.7807	105.375298	0.000709	7.093816	1.201725	0.000142
 493	4.8954e+01	9.8002	105.464115	0.000446	4.458970	0.755370	0.000089
 494	4.9053e+01	9.8200	105.561007	0.000486	4.864331	0.824040	0.000097
 495	4.9153e+01	9.8396	105.678084	0.000588	5.877733	0.995715	0.000118
 496	4.9252e+01	9.8592	105.738641	0.000304	3.040207	0.515025	0.000061
 497	4.9352e+01	9.8800	105.847643	0.000547	5.472372	0.927045	0.000110
 498	4.9452e+01	9.8999	105.984906	0.000689	6.891135	1.167390	0.000138
 499	4.9551e+01	9.9195	106.045463	0.000304	3.040207	0.515025	0.000061
 500	4.9651e+01	9.9391	106.166577	0.000608	6.080414	1.030050	0.000122
 501	4.9750e+01	9.9592	106.251357	0.000426	4.256289	0.721035	0.000085
 502	4.9849e+01	9.9792	106.356322	0.000527	5.269692	0.892710	0.000105
 503	4.9949e+01	9.9990	106.420917	0.000324	3.242887	0.549360	0.000065
 504	5.0048e+01	9.9795	106.364397	0.000284	2.837526	0.480690	-0.000057
 505	5.0148e+01	9.9599	106.319988	0.000223	2.229485	0.377685	-0.000045
 506	5.0248e+01	9.9393	106.223097	0.000486	4.864331	0.824040	-0.000097
 507	5.0347e+01	9.9186	106.154466	0.000345	3.445568	0.583695	-0.000069
 508	5.0447e+01	9.9006	106.085834	0.000345	3.445568	0.583695	-0.000069
 509	5.0546e+01	9.8792	106.021240	0.000324	3.242887	0.549360	-0.000065
 510	5.0645e+01	9.8594	105.956646	0.000324	3.242887	0.549360	-0.000065
 511	5.0745e+01	9.8393	105.859755	0.000486	4.864331	0.824040	-0.000097
 512	5.0844e+01	9.8195	105.799198	0.000304	3.040207	0.515025	-0.000061
 513	5.0944e+01	9.7998	105.698269	0.000507	5.067011	0.858375	-0.000101
 514	5.1044e+01	9.7803	105.617527	0.000405	4.053609	0.686700	-0.000081
 515	5.1143e+01	9.7607	105.548895	0.000345	3.445568	0.583695	-0.000069
 516	5.1242e+01	9.7390	105.460078	0.000446	4.458970	0.755370	-0.000089
 517	5.1342e+01	9.7201	105.395484	0.000324	3.242887	0.549360	-0.000065
 518	5.1441e+01	9.6998	105.310704	0.000426	4.256289	0.721035	-0.000085
 519	5.1541e+01	9.6812	105.229962	0.000405	4.053609	0.686700	-0.000081
 520	5.1641e+01	9.6612	105.153256	0.000385	3.850929	0.652365	-0.000077
 521	5.1740e+01	9.6418	105.116922	0.000182	1.824124	0.309015	-0.000037
 522	5.1840e+01	9.6210	104.995808	0.000608	6.080414	1.030050	-0.000122
 523	5.1939e+01	9.6008	104.911028	0.000426	4.256289	0.721035	-0.000085
 524	5.2038e+01	9.5801	104.826248	0.000426	4.256289	0.721035	-0.000085
 525	5.2138e+01	9.5599	104.757617	0.000345	3.445568	0.583695	-0.000069
 526	5.2237e+01	9.5399	104.680911	0.000385	3.850929	0.652365	-0.000077
 527	5.2337e+01	9.5203	104.588057	0.000466	4.661650	0.789705	-0.000093
 528	5.2437e+01	9.5013	104.535574	0.000263	2.634846	0.446355	-0.000053
 529	5.2536e+01	9.4813	104.475017	0.000304	3.040207	0.515025	-0.000061
 530	5.2636e+01	9.4611	104.402349	0.000365	3.648248	0.618030	-0.000073
 531	5.2735e+01	9.4428	104.305457	0.000486	4.864331	0.824040	-0.000097
 532	5.2834e+01	9.4212	104.236826	0.000345	3.445568	0.583695	-0.000069
 533	5.2934e+01	9.4012	104.135898	0.000507	5.067011	0.858375	-0.000101
 534	5.3033e+01	9.3823	104.079378	0.000284	2.837526	0.480690	-0.000057
 535	5.3133e+01	9.3618	103.974412	0.000527	5.269692	0.892710	-0.000105
 536	5.3233e+01	9.3417	103.885595	0.000446	4.458970	0.755370	-0.000089
 537	5.3332e+01	9.3218	103.772556	0.000568	5.675053	0.961380	-0.000114
 538	5.3431e+01	9.3021	103.740258	0.000162	1.621444	0.274680	-0.000032
 539	5.3531e+01	9.2825	103.667590	0.000365	3.648248	0.618030	-0.000073
 540	5.3630e+01	9.2627	103.538402	0.000649	6.485774	1.098720	-0.000130
 541	5.3730e+01	9.2432	103.453622	0.000426	4.256289	0.721035	-0.000085
 542	5.3830e+01	9.2225	103.401139	0.000263	2.634846	0.446355	-0.000053
 543	5.3929e+01	9.2029	103.271951	0.000649	6.485774	1.098720	-0.000130
 544	5.4029e+01	9.1827	103.227542	0.000223	2.229485	0.377685	-0.000045
 545	5.4128e+01	9.1631	103.070094	0.000790	7.904538	1.339065	-0.000158
 546	5.4227e+01	9.1430	103.070094	-0.000000	-0.000000	-0.000000	0.000000
 547	5.4327e+01	9.1218	102.989351	0.000405	4.053609	0.686700	-0.000081
 548	5.4426e+01	9.1016	102.896497	0.000466	4.661650	0.789705	-0.000093
 549	5.4526e+01	9.0831	102.807680	0.000446	4.458970	0.755370	-0.000089
 550	5.4626e+01	9.0633	102.710789	0.000486	4.864331	0.824040	-0.000097
 551	5.4725e+01	9.0433	102.613898	0.000486	4.864331	0.824040	-0.000097
 552	5.4825e+01	9.0226	102.525081	0.000446	4.458970	0.755370	-0.000089
 553	5.4924e+01	9.0032	102.424152	0.000507	5.067011	0.858375	-0.000101
 554	5.5023e+01	8.9834	102.351484	0.000365	3.648248	0.618030	-0.000073
 555	5.5123e+01	8.9628	102.319187	0.000162	1.621444	0.274680	-0.000032
 556	5.5222e+01	8.9429	102.194036	0.000628	6.283094	1.064385	-0.000126
 557	5.5322e+01	8.9230	102.109256	0.000426	4.256289	0.721035	-0.000085
 558	5.5422e+01	8.9031	102.000253	0.000547	5.472372	0.927045	-0.000110
 559	5.5521e+01	8.8831	101.943733	0.000284	2.837526	0.480690	-0.000057
 560	5.5620e+01	8.8628	101.867028	0.000385	3.850929	0.652365	-0.000077
 561	5.5720e+01	8.8448	101.774173	0.000466	4.661650	0.789705	-0.000093
 562	5.5819e+01	8.8245	101.701505	0.000365	3.648248	0.618030	-0.000073
 563	5.5919e+01	8.8047	101.588465	0.000568	5.675053	0.961380	-0.000114
 564	5.6019e+01	8.7852	101.556168	0.000162	1.621444	0.274680	-0.000032
 565	5.6118e+01	8.7647	101.426980	0.000649	6.485774	1.098720	-0.000130
 566	5.6218e+01	8.7439	101.350274	0.000385	3.850929	0.652365	-0.000077
 567	5.6317e+01	8.7251	101.253383	0.000486	4.864331	0.824040	-0.000097
 568	5.6416e+01	8.7051	101.204937	0.000243	2.432165	0.412020	-0.000049
 569	5.6516e+01	8.6865	101.067675	0.000689	6.891135	1.167390	-0.000138
 570	5.6615e+01	8.6654	100.958672	0.000547	5.472372	0.927045	-0.000110
 571	5.6715e+01	8.6462	100.910226	0.000243	2.432165	0.412020	-0.000049
 572	5.6815e+01	8.6250	100.829484	0.000405	4.053609	0.686700	-0.000081
 573	5.6914e+01	8.6060	100.764889	0.000324	3.242887	0.549360	-0.000065
 574	5.7014e+01	8.5854	100.667998	0.000486	4.864331	0.824040	-0.000097
 575	5.7113e+01	8.5645	100.542847	0.000628	6.283094	1.064385	-0.000126
 576	5.7212e+01	8.5461	100.462104	0.000405	4.053609	0.686700	-0.000081
 577	5.7312e+01	8.5262	100.393473	0.000345	3.445568	0.583695	-0.000069
 578	5.7411e+01	8.5061	100.304656	0.000446	4.458970	0.755370	-0.000089
 579	5.7511e+01	8.4863	100.231988	0.000365	3.648248	0.618030	-0.000073
 580	5.7611e+01	8.4663	100.143171	0.000446	4.458970	0.755370	-0.000089
 581	5.7710e+01	8.4463	100.046279	0.000486	4.864331	0.824040	-0.000097
 582	5.7809e+01	8.4261	99.985722	0.000304	3.040207	0.515025	-0.000061
 583	5.7909e+01	8.4062	99.876720	0.000547	5.472372	0.927045	-0.000110
 584	5.8008e+01	8.3859	99.767717	0.000547	5.472372	0.927045	-0.000110
 585	5.8108e+01	8.3658	99.711197	0.000284	2.837526	0.480690	-0.000057
 586	5.8208e+01	8.3463	99.622380	0.000446	4.458970	0.755370	-0.000089
 587	5.8307e+01	8.3270	99.541637	0.000405	4.053609	0.686700	-0.000081
 588	5.8407e+01	8.3065	99.477043	0.000324	3.242887	0.549360	-0.000065
 589	5.8506e+01	8.2866	99.392263	0.000426	4.256289	0.721035	-0.000085
 590	5.8605e+01	8.2666	99.263075	0.000649	6.485774	1.098720	-0.000130
 591	5.8705e+01	8.2474	99.202518	0.000304	3.040207	0.515025	-0.000061
 592	5.8804e+01	8.2269	99.097552	0.000527	5.269692	0.892710	-0.000105
 593	5.8904e+01	8.2080	99.041032	0.000284	2.837526	0.480690	-0.000057
 594	5.9004e+01	8.1881	98.960290	0.000405	4.053609	0.686700	-0.000081
 595	5.9103e+01	8.1667	98.855324	0.000527	5.269692	0.892710	-0.000105
 596	5.9203e+01	8.1480	98.774582	0.000405	4.053609	0.686700	-0.000081
 597	5.9302e+01	8.1278	98.685765	0.000446	4.458970	0.755370	-0.000089
 598	5.9401e+01	8.1070	98.576762	0.000547	5.472372	0.927045	-0.000110
 599	5.9501e+01	8.0874	98.491982	0.000426	4.256289	0.721035	-0.000085
 600	5.9600e+01	8.0671	98.427388	0.000324	3.242887	0.549360	-0.000065
 601	5.9700e+01	8.0479	98.330497	0.000486	4.864331	0.824040	-0.000097
 602	5.9800e+01	8.0274	98.253791	0.000385	3.850929	0.652365	-0.000077
 603	5.9899e+01	8.0080	98.140751	0.000568	5.675053	0.961380	-0.000114
 604	5.9998e+01	7.9874	98.076157	0.000324	3.242887	0.549360	-0.000065
 605	6.0098e+01	7.9678	97.946969	0.000649	6.485774	1.098720	-0.000130
 606	6.0197e+01	7.9492	97.882375	0.000324	3.242887	0.549360	-0.000065
 607	6.0297e+01	7.9285	97.801632	0.000405	4.053609	0.686700	-0.000081
 608	6.0397e+01	7.9084	97.676481	0.000628	6.283094	1.064385	-0.000126
 609	6.0496e+01	7.8887	97.607849	0.000345	3.445568	0.583695	-0.000069
 610	6.0596e+01	7.8683	97.498847	0.000547	5.472372	0.927045	-0.000110
 611	6.0695e+01	7.8483	97.422141	0.000385	3.850929	0.652365	-0.000077
 612	6.0794e+01	7.8284	97.357547	0.000324	3.242887	0.549360	-0.000065
 613	6.0894e+01	7.8091	97.208173	0.000750	7.499177	1.270395	-0.000150
 614	6.0993e+01	7.7888	97.131467	0.000385	3.850929	0.652365	-0.000077
 615	6.1093e+01	7.7686	97.046687	0.000426	4.256289	0.721035	-0.000085
 616	6.1193e+01	7.7491	96.965945	0.000405	4.053609	0.686700	-0.000081
 617	6.1292e+01	7.7292	96.873091	0.000466	4.661650	0.789705	-0.000093
 618	6.1392e+01	7.7100	96.764088	0.000547	5.472372	0.927045	-0.000110
 619	6.1491e+01	7.6884	96.703531	0.000304	3.040207	0.515025	-0.000061
 620	6.1590e+01	7.6688	96.590491	0.000568	5.675053	0.961380	-0.000114
 621	6.1690e+01	7.6495	96.481488	0.000547	5.472372	0.927045	-0.000110
 622	6.1789e+01	7.6298	96.416894	0.000324	3.242887	0.549360	-0.000065
 623	6.1889e+01	7.6093	96.336152	0.000405	4.053609	0.686700	-0.000081
 624	6.1989e+01	7.5906	96.267520	0.000345	3.445568	0.583695	-0.000069
 625	6.2088e+01	7.5700	96.134295	0.000669	6.688455	1.133055	-0.000134
 626	6.2188e+01	7.5500	96.049515	0.000426	4.256289	0.721035	-0.000085
 627	6.2287e+01	7.5299	95.968772	0.000405	4.053609	0.686700	-0.000081
 628	6.2386e+01	7.5100	95.883992	0.000426	4.256289	0.721035	-0.000085
 629	6.2486e+01	7.4902	95.754804	0.000649	6.485774	1.098720	-0.000130
 630	6.2586e+01	7.4693	95.702321	0.000263	2.634846	0.446355	-0.000053
 631	6.2685e+01	7.4500	95.577170	0.000628	6.283094	1.064385	-0.000126
 632	6.2785e+01	7.4309	95.520650	0.000284	2.837526	0.480690	-0.000057
 633	6.2884e+01	7.4111	95.391462	0.000649	6.485774	1.098720	-0.000130
 634	6.2983e+01	7.3903	95.294571	0.000486	4.864331	0.824040	-0.000097
 635	6.3083e+01	7.3707	95.221902	0.000365	3.648248	0.618030	-0.000073
 636	6.3182e+01	7.3501	95.149234	0.000365	3.648248	0.618030	-0.000073
 637	6.3282e+01	7.3312	95.048305	0.000507	5.067011	0.858375	-0.000101
 638	6.3382e+01	7.3106	94.959488	0.000446	4.458970	0.755370	-0.000089
 639	6.3481e+01	7.2918	94.842411	0.000588	5.877733	0.995715	-0.000118
 640	6.3581e+01	7.2710	94.741483	0.000507	5.067011	0.858375	-0.000101
 641	6.3680e+01	7.2515	94.676889	0.000324	3.242887	0.549360	-0.000065
 642	6.3779e+01	7.2310	94.531552	0.000730	7.296496	1.236060	-0.000146
 643	6.3879e+01	7.2119	94.479069	0.000263	2.634846	0.446355	-0.000053
 644	6.3978e+01	7.1912	94.402364	0.000385	3.850929	0.652365	-0.000077
 645	6.4078e+01	7.1716	94.236841	0.000831	8.309898	1.407735	-0.000166
 646	6.4177e+01	7.1523	94.148024	0.000446	4.458970	0.755370	-0.000089
 647	6.4277e+01	7.1313	94.083430	0.000324	3.242887	0.549360	-0.000065
 648	6.4376e+01	7.1113	93.990576	0.000466	4.661650	0.789705	-0.000093
 649	6.4476e+01	7.0911	93.865424	0.000628	6.283094	1.064385	-0.000126
 650	6.4576e+01	7.0714	93.784682	0.000405	4.053609	0.686700	-0.000081
 651	6.4675e+01	7.0521	93.699902	0.000426	4.256289	0.721035	-0.000085
 652	6.4775e+01	7.0316	93.550528	0.000750	7.499177	1.270395	-0.000150
 653	6.4874e+01	7.0119	93.494008	0.000284	2.837526	0.480690	-0.000057
 654	6.4974e+01	6.9922	93.413265	0.000405	4.053609	0.686700	-0.000081
 655	6.5073e+01	6.9714	93.259854	0.000770	7.701857	1.304730	-0.000154
 656	6.5172e+01	6.9518	93.219483	0.000203	2.026805	0.343350	-0.000041
 657	6.5272e+01	6.9320	93.094332	0.000628	6.283094	1.064385	-0.000126
 658	6.5371e+01	6.9122	93.009552	0.000426	4.256289	0.721035	-0.000085
 659	6.5471e+01	6.8930	92.936883	0.000365	3.648248	0.618030	-0.000073
 660	6.5570e+01	6.8718	92.767324	0.000851	8.512579	1.442070	-0.000170
 661	6.5670e+01	6.8534	92.702729	0.000324	3.242887	0.549360	-0.000065
 662	6.5769e+01	6.8320	92.597764	0.000527	5.269692	0.892710	-0.000105
 663	6.5869e+01	6.8124	92.488761	0.000547	5.472372	0.927045	-0.000110
 664	6.5969e+01	6.7921	92.383796	0.000527	5.269692	0.892710	-0.000105
 665	6.6068e+01	6.7732	92.303053	0.000405	4.053609	0.686700	-0.000081
 666	6.6168e+01	6.7525	92.181939	0.000608	6.080414	1.030050	-0.000122
 667	6.6267e+01	6.7335	92.093122	0.000446	4.458970	0.755370	-0.000089
 668	6.6367e+01	6.7130	91.984119	0.000547	5.472372	0.927045	-0.000110
 669	6.6466e+01	6.6929	91.891265	0.000466	4.661650	0.789705	-0.000093
 670	6.6566e+01	6.6734	91.782262	0.000547	5.472372	0.927045	-0.000110
 671	6.6665e+01	6.6527	91.693445	0.000446	4.458970	0.755370	-0.000089
 672	6.6764e+01	6.6332	91.608666	0.000426	4.256289	0.721035	-0.000085
 673	6.6864e+01	6.6140	91.467366	0.000709	7.093816	1.201725	-0.000142
 674	6.6963e+01	6.5939	91.354326	0.000568	5.675053	0.961380	-0.000114
 675	6.7063e+01	6.5741	91.273583	0.000405	4.053609	0.686700	-0.000081
 676	6.7162e+01	6.5538	91.196878	0.000385	3.850929	0.652365	-0.000077
 677	6.7262e+01	6.5343	91.067689	0.000649	6.485774	1.098720	-0.000130
 678	6.7362e+01	6.5136	90.930427	0.000689	6.891135	1.167390	-0.000138
 679	6.7461e+01	6.4944	90.841610	0.000446	4.458970	0.755370	-0.000089
 680	6.7561e+01	6.4742	90.772979	0.000345	3.445568	0.583695	-0.000069
 681	6.7660e+01	6.4541	90.672050	0.000507	5.067011	0.858375	-0.000101
 682	6.7760e+01	6.4342	90.563047	0.000547	5.472372	0.927045	-0.000110
 683	6.7859e+01	6.4130	90.425785	0.000689	6.891135	1.167390	-0.000138
 684	6.7959e+01	6.3934	90.353116	0.000365	3.648248	0.618030	-0.000073
 685	6.8058e+01	6.3747	90.240077	0.000568	5.675053	0.961380	-0.000114
 686	6.8157e+01	6.3541	90.143185	0.000486	4.864331	0.824040	-0.000097
 687	6.8257e+01	6.3352	90.009960	0.000669	6.688455	1.133055	-0.000134
 688	6.8356e+01	6.3149	89.985737	0.000122	1.216083	0.206010	-0.000024
 689	6.8456e+01	6.2963	89.824252	0.000811	8.107218	1.373400	-0.000162
 690	6.8555e+01	6.2756	89.731397	0.000466	4.661650	0.789705	-0.000093
 691	6.8655e+01	6.2559	89.634506	0.000486	4.864331	0.824040	-0.000097
 692	6.8754e+01	6.2365	89.525504	0.000547	5.472372	0.927045	-0.000110
 693	6.8854e+01	6.2157	89.424575	0.000507	5.067011	0.858375	-0.000101
 694	6.8954e+01	6.1965	89.347870	0.000385	3.850929	0.652365	-0.000077
 695	6.9053e+01	6.1755	89.242904	0.000527	5.269692	0.892710	-0.000105
 696	6.9153e+01	6.1564	89.101604	0.000709	7.093816	1.201725	-0.000142
 697	6.9252e+01	6.1359	89.024899	0.000385	3.850929	0.652365	-0.000077
 698	6.9352e+01	6.1162	88.919933	0.000527	5.269692	0.892710	-0.000105
 699	6.9451e+01	6.0966	88.831116	0.000446	4.458970	0.755370	-0.000089
 700	6.9550e+01	6.0764	88.705965	0.000628	6.283094	1.064385	-0.000126
 701	6.9650e+01	6.0561	88.588888	0.000588	5.877733	0.995715	-0.000118
 702	6.9749e+01	6.0363	88.496034	0.000466	4.661650	0.789705	-0.000093
 703	6.9849e+01	6.0165	88.382994	0.000568	5.675053	0.961380	-0.000114
 704	6.9948e+01	5.9957	88.249769	0.000669	6.688455	1.133055	-0.000134
 705	7.0048e+01	5.9763	88.233620	0.000081	0.810722	0.137340	-0.000016
 706	7.0147e+01	5.9569	88.096358	0.000689	6.891135	1.167390	-0.000138
 707	7.0247e+01	5.9368	87.979281	0.000588	5.877733	0.995715	-0.000118
 708	7.0347e+01	5.9167	87.854129	0.000628	6.283094	1.064385	-0.000126
 709	7.0446e+01	5.8962	87.753201	0.000507	5.067011	0.858375	-0.000101
 710	7.0546e+01	5.8770	87.656310	0.000486	4.864331	0.824040	-0.000097
 711	7.0645e+01	5.8578	87.531159	0.000628	6.283094	1.064385	-0.000126
 712	7.0745e+01	5.8367	87.430230	0.000507	5.067011	0.858375	-0.000101
 713	7.0844e+01	5.8167	87.305079	0.000628	6.283094	1.064385	-0.000126
 714	7.0944e+01	5.7973	87.192039	0.000568	5.675053	0.961380	-0.000114
 715	7.1043e+01	5.7769	87.131482	0.000304	3.040207	0.515025	-0.000061
 716	7.1142e+01	5.7565	87.014405	0.000588	5.877733	0.995715	-0.000118
 717	7.1242e+01	5.7378	86.917514	0.000486	4.864331	0.824040	-0.000097
 718	7.1341e+01	5.7178	86.788326	0.000649	6.485774	1.098720	-0.000130
 719	7.1441e+01	5.6969	86.723731	0.000324	3.242887	0.549360	-0.000065
 720	7.1540e+01	5.6774	86.562246	0.000811	8.107218	1.373400	-0.000162
 721	7.1640e+01	5.6576	86.449206	0.000568	5.675053	0.961380	-0.000114
 722	7.1740e+01	5.6376	86.303869	0.000730	7.296496	1.236060	-0.000146
 723	7.1839e+01	5.6182	86.267535	0.000182	1.824124	0.309015	-0.000037
 724	7.1939e+01	5.5973	86.150458	0.000588	5.877733	0.995715	-0.000118
 725	7.2038e+01	5.5776	86.029344	0.000608	6.080414	1.030050	-0.000122
 726	7.2138e+01	5.5582	85.948601	0.000405	4.053609	0.686700	-0.000081
 727	7.2237e+01	5.5393	85.827487	0.000608	6.080414	1.030050	-0.000122
 728	7.2337e+01	5.5184	85.730596	0.000486	4.864331	0.824040	-0.000097
 729	7.2436e+01	5.4983	85.641779	0.000446	4.458970	0.755370	-0.000089
 730	7.2535e+01	5.4787	85.528739	0.000568	5.675053	0.961380	-0.000114
 731	7.2635e+01	5.4574	85.415699	0.000568	5.675053	0.961380	-0.000114
 732	7.2734e+01	5.4383	85.282474	0.000669	6.688455	1.133055	-0.000134
 733	7.2834e+01	5.4192	85.181546	0.000507	5.067011	0.858375	-0.000101
 734	7.2933e+01	5.3985	85.076580	0.000527	5.269692	0.892710	-0.000105
 735	7.3033e+01	5.3790	85.007949	0.000345	3.445568	0.583695	-0.000069
 736	7.3132e+01	5.3585	84.886835	0.000608	6.080414	1.030050	-0.000122
 737	7.3232e+01	5.3387	84.781869	0.000527	5.269692	0.892710	-0.000105
 738	7.3332e+01	5.3183	84.644606	0.000689	6.891135	1.167390	-0.000138
 739	7.3431e+01	5.2990	84.567901	0.000385	3.850929	0.652365	-0.000077
 740	7.3531e+01	5.2787	84.422564	0.000730	7.296496	1.236060	-0.000146
 741	7.3630e+01	5.2590	84.313561	0.000547	5.472372	0.927045	-0.000110
 742	7.3730e+01	5.2393	84.232819	0.000405	4.053609	0.686700	-0.000081
 743	7.3829e+01	5.2187	84.107667	0.000628	6.283094	1.064385	-0.000126
 744	7.3928e+01	5.1995	84.022888	0.000426	4.256289	0.721035	-0.000085
 745	7.4028e+01	5.1799	83.930033	0.000466	4.661650	0.789705	-0.000093
 746	7.4127e+01	5.1595	83.833142	0.000486	4.864331	0.824040	-0.000097
 747	7.4227e+01	5.1397	83.699917	0.000669	6.688455	1.133055	-0.000134
 748	7.4326e+01	5.1199	83.554580	0.000730	7.296496	1.236060	-0.000146
 749	7.4426e+01	5.0993	83.473837	0.000405	4.053609	0.686700	-0.000081
 750	7.4525e+01	5.0793	83.360797	0.000568	5.675053	0.961380	-0.000114
 751	7.4625e+01	5.0603	83.263906	0.000486	4.864331	0.824040	-0.000097
 752	7.4725e+01	5.0396	83.179126	0.000426	4.256289	0.721035	-0.000085
 753	7.4824e+01	5.0211	83.070124	0.000547	5.472372	0.927045	-0.000110
 754	7.4924e+01	5.0016	82.908638	0.000811	8.107218	1.373400	-0.000162
 755	7.5023e+01	4.9805	82.848081	0.000304	3.040207	0.515025	-0.000061
 756	7.5123e+01	4.9613	82.735041	0.000568	5.675053	0.961380	-0.000114
 757	7.5222e+01	4.9416	82.634113	0.000507	5.067011	0.858375	-0.000101
 758	7.5322e+01	4.9201	82.496850	0.000689	6.891135	1.167390	-0.000138
 759	7.5421e+01	4.9007	82.383810	0.000568	5.675053	0.961380	-0.000114
 760	7.5520e+01	4.8800	82.315179	0.000345	3.445568	0.583695	-0.000069
 761	7.5620e+01	4.8611	82.206176	0.000547	5.472372	0.927045	-0.000110
 762	7.5719e+01	4.8411	82.085062	0.000608	6.080414	1.030050	-0.000122
 763	7.5819e+01	4.8211	82.000283	0.000426	4.256289	0.721035	-0.000085
 764	7.5918e+01	4.8016	81.875131	0.000628	6.283094	1.064385	-0.000126
 765	7.6018e+01	4.7817	81.749980	0.000628	6.283094	1.064385	-0.000126
 766	7.6118e+01	4.7616	81.665200	0.000426	4.256289	0.721035	-0.000085
 767	7.6217e+01	4.7417	81.523901	0.000709	7.093816	1.201725	-0.000142
 768	7.6317e+01	4.7215	81.414898	0.000547	5.472372	0.927045	-0.000110
 769	7.6416e+01	4.7018	81.289747	0.000628	6.283094	1.064385	-0.000126
 770	7.6516e+01	4.6815	81.221115	0.000345	3.445568	0.583695	-0.000069
 771	7.6615e+01	4.6620	81.071741	0.000750	7.499177	1.270395	-0.000150
 772	7.6715e+01	4.6422	80.974850	0.000486	4.864331	0.824040	-0.000097
 773	7.6814e+01	4.6218	80.857773	0.000588	5.877733	0.995715	-0.000118
 774	7.6913e+01	4.6012	80.789142	0.000345	3.445568	0.583695	-0.000069
 775	7.7013e+01	4.5824	80.651879	0.000689	6.891135	1.167390	-0.000138
 776	7.7112e+01	4.5621	80.546914	0.000527	5.269692	0.892710	-0.000105
 777	7.7212e+01	4.5428	80.397540	0.000750	7.499177	1.270395	-0.000150
 778	7.7311e+01	4.5226	80.276426	0.000608	6.080414	1.030050	-0.000122
 779	7.7411e+01	4.5022	80.195683	0.000405	4.053609	0.686700	-0.000081
 780	7.7510e+01	4.4823	80.074569	0.000608	6.080414	1.030050	-0.000122
 781	7.7610e+01	4.4617	79.957492	0.000588	5.877733	0.995715	-0.000118
 782	7.7710e+01	4.4421	79.836378	0.000608	6.080414	1.030050	-0.000122
 783	7.7809e+01	4.4218	79.691041	0.000730	7.296496	1.236060	-0.000146
 784	7.7909e+01	4.4018	79.634521	0.000284	2.837526	0.480690	-0.000057
 785	7.8008e+01	4.3832	79.497258	0.000689	6.891135	1.167390	-0.000138
 786	7.8108e+01	4.3622	79.404404	0.000466	4.661650	0.789705	-0.000093
 787	7.8207e+01	4.3430	79.291364	0.000568	5.675053	0.961380	-0.000114
 788	7.8306e+01	4.3231	79.174288	0.000588	5.877733	0.995715	-0.000118
 789	7.8406e+01	4.3037	79.053173	0.000608	6.080414	1.030050	-0.000122
 790	7.8505e+01	4.2835	78.936097	0.000588	5.877733	0.995715	-0.000118
 791	7.8605e+01	4.2635	78.802871	0.000669	6.688455	1.133055	-0.000134
 792	7.8704e+01	4.2438	78.697906	0.000527	5.269692	0.892710	-0.000105
 793	7.8804e+01	4.2233	78.605051	0.000466	4.661650	0.789705	-0.000093
 794	7.8903e+01	4.2034	78.467789	0.000689	6.891135	1.167390	-0.000138
 795	7.9003e+01	4.1836	78.370898	0.000486	4.864331	0.824040	-0.000097
 796	7.9103e+01	4.1637	78.269969	0.000507	5.067011	0.858375	-0.000101
 797	7.9202e+01	4.1440	78.148855	0.000608	6.080414	1.030050	-0.000122
 798	7.9302e+01	4.1245	77.999481	0.000750	7.499177	1.270395	-0.000150
 799	7.9401e+01	4.1033	77.894515	0.000527	5.269692	0.892710	-0.000105
 800	7.9501e+01	4.0836	77.753216	0.000709	7.093816	1.201725	-0.000142
 801	7.9600e+01	4.0636	77.648250	0.000527	5.269692	0.892710	-0.000105
 802	7.9700e+01	4.0430	77.563470	0.000426	4.256289	0.721035	-0.000085
 803	7.9799e+01	4.0231	77.446393	0.000588	5.877733	0.995715	-0.000118
 804	7.9898e+01	4.0041	77.292982	0.000770	7.701857	1.304730	-0.000154
 805	7.9998e+01	3.9837	77.216277	0.000385	3.850929	0.652365	-0.000077
 806	8.0097e+01	3.9646	77.095163	0.000608	6.080414	1.030050	-0.000122
 807	8.0197e+01	3.9440	76.937714	0.000790	7.904538	1.339065	-0.000158
 808	8.0296e+01	3.9242	76.824675	0.000568	5.675053	0.961380	-0.000114
 809	8.0396e+01	3.9041	76.747969	0.000385	3.850929	0.652365	-0.000077
 810	8.0496e+01	3.8838	76.606669	0.000709	7.093816	1.201725	-0.000142
 811	8.0595e+01	3.8654	76.493629	0.000568	5.675053	0.961380	-0.000114
 812	8.0695e+01	3.8448	76.356367	0.000689	6.891135	1.167390	-0.000138
 813	8.0794e+01	3.8247	76.255438	0.000507	5.067011	0.858375	-0.000101
 814	8.0894e+01	3.8039	76.097990	0.000790	7.904538	1.339065	-0.000158
 815	8.0993e+01	3.7848	75.993025	0.000527	5.269692	0.892710	-0.000105
 816	8.1093e+01	3.7656	75.908245	0.000426	4.256289	0.721035	-0.000085
 817	8.1192e+01	3.7454	75.762908	0.000730	7.296496	1.236060	-0.000146
 818	8.1291e+01	3.7254	75.609497	0.000770	7.701857	1.304730	-0.000154
 819	8.1391e+01	3.7053	75.528754	0.000405	4.053609	0.686700	-0.000081
 820	8.1490e+01	3.6856	75.395528	0.000669	6.688455	1.133055	-0.000134
 821	8.1590e+01	3.6657	75.274414	0.000608	6.080414	1.030050	-0.000122
 822	8.1689e+01	3.6456	75.137152	0.000689	6.891135	1.167390	-0.000138
 823	8.1789e+01	3.6260	75.036223	0.000507	5.067011	0.858375	-0.000101
 824	8.1888e+01	3.6051	74.907035	0.000649	6.485774	1.098720	-0.000130
 825	8.1988e+01	3.5867	74.765735	0.000709	7.093816	1.201725	-0.000142
 826	8.2088e+01	3.5661	74.660770	0.000527	5.269692	0.892710	-0.000105
 827	8.2187e+01	3.5454	74.571953	0.000446	4.458970	0.755370	-0.000089
 828	8.2287e+01	3.5262	74.450839	0.000608	6.080414	1.030050	-0.000122
 829	8.2386e+01	3.5061	74.277242	0.000872	8.715259	1.476405	-0.000174
 830	8.2486e+01	3.4852	74.172276	0.000527	5.269692	0.892710	-0.000105
 831	8.2585e+01	3.4660	74.022902	0.000750	7.499177	1.270395	-0.000150
 832	8.2684e+01	3.4467	73.905825	0.000588	5.877733	0.995715	-0.000118
 833	8.2784e+01	3.4267	73.788748	0.000588	5.877733	0.995715	-0.000118
 834	8.2883e+01	3.4071	73.712043	0.000385	3.850929	0.652365	-0.000077
 835	8.2983e+01	3.3878	73.506149	0.001034	10.336703	1.751085	-0.000207
 836	8.3082e+01	3.3668	73.417332	0.000446	4.458970	0.755370	-0.000089
 837	8.3182e+01	3.3469	73.251809	0.000831	8.309898	1.407735	-0.000166
 838	8.3281e+01	3.3269	73.150881	0.000507	5.067011	0.858375	-0.000101
 839	8.3381e+01	3.3054	73.029767	0.000608	6.080414	1.030050	-0.000122
 840	8.3481e+01	3.2873	72.900579	0.000649	6.485774	1.098720	-0.000130
 841	8.3580e+01	3.2674	72.763316	0.000689	6.891135	1.167390	-0.000138
 842	8.3680e+01	3.2473	72.650276	0.000568	5.675053	0.961380	-0.000114
 843	8.3779e+01	3.2276	72.549348	0.000507	5.067011	0.858375	-0.000101
 844	8.3879e+01	3.2064	72.371714	0.000892	8.917940	1.510740	-0.000179
 845	8.3978e+01	3.1871	72.254637	0.000588	5.877733	0.995715	-0.000118
 846	8.4078e+01	3.1676	72.157746	0.000486	4.864331	0.824040	-0.000097
 847	8.4177e+01	3.1472	72.012409	0.000730	7.296496	1.236060	-0.000146
 848	8.4276e+01	3.1274	71.887258	0.000628	6.283094	1.064385	-0.000126
 849	8.4376e+01	3.1081	71.741921	0.000730	7.296496	1.236060	-0.000146
 850	8.4475e+01	3.0881	71.657141	0.000426	4.256289	0.721035	-0.000085
 851	8.4575e+01	3.0680	71.548138	0.000547	5.472372	0.927045	-0.000110
 852	8.4674e+01	3.0477	71.370504	0.000892	8.917940	1.510740	-0.000179
 853	8.4774e+01	3.0284	71.249390	0.000608	6.080414	1.030050	-0.000122
 854	8.4874e+01	3.0088	71.116165	0.000669	6.688455	1.133055	-0.000134
 855	8.4973e+01	2.9890	70.986976	0.000649	6.485774	1.098720	-0.000130
 856	8.5073e+01	2.9681	70.886048	0.000507	5.067011	0.858375	-0.000101
 857	8.5172e+01	2.9487	70.716488	0.000851	8.512579	1.442070	-0.000170
 858	8.5272e+01	2.9288	70.587300	0.000649	6.485774	1.098720	-0.000130
 859	8.5371e+01	2.9088	70.486371	0.000507	5.067011	0.858375	-0.000101
 860	8.5471e+01	2.8883	70.332960	0.000770	7.701857	1.304730	-0.000154
 861	8.5570e+01	2.8683	70.240106	0.000466	4.661650	0.789705	-0.000093
 862	8.5669e+01	2.8488	70.074584	0.000831	8.309898	1.407735	-0.000166
 863	8.5769e+01	2.8289	69.949432	0.000628	6.283094	1.064385	-0.000126
 864	8.5868e+01	2.8098	69.836393	0.000568	5.675053	0.961380	-0.000114
 865	8.5968e+01	2.7897	69.711241	0.000628	6.283094	1.064385	-0.000126
 866	8.6067e+01	2.7689	69.573979	0.000689	6.891135	1.167390	-0.000138
 867	8.6167e+01	2.7489	69.428642	0.000730	7.296496	1.236060	-0.000146
 868	8.6266e+01	2.7283	69.327713	0.000507	5.067011	0.858375	-0.000101
 869	8.6366e+01	2.7093	69.182377	0.000730	7.296496	1.236060	-0.000146
 870	8.6466e+01	2.6881	69.061263	0.000608	6.080414	1.030050	-0.000122
 871	8.6565e+01	2.6687	68.907851	0.000770	7.701857	1.304730	-0.000154
 872	8.6665e+01	2.6492	68.802886	0.000527	5.269692	0.892710	-0.000105
 873	8.6764e+01	2.6302	68.653512	0.000750	7.499177	1.270395	-0.000150
 874	8.6864e+01	2.6089	68.540472	0.000568	5.675053	0.961380	-0.000114
 875	8.6963e+01	2.5890	68.378987	0.000811	8.107218	1.373400	-0.000162
 876	8.7063e+01	2.5703	68.249798	0.000649	6.485774	1.098720	-0.000130
 877	8.7162e+01	2.5494	68.120610	0.000649	6.485774	1.098720	-0.000130
 878	8.7261e+01	2.5294	68.023719	0.000486	4.864331	0.824040	-0.000097
 879	8.7361e+01	2.5094	67.874345	0.000750	7.499177	1.270395	-0.000150
 880	8.7460e+01	2.4909	67.757268	0.000588	5.877733	0.995715	-0.000118
 881	8.7560e+01	2.4712	67.620005	0.000689	6.891135	1.167390	-0.000138
 882	8.7659e+01	2.4502	67.490817	0.000649	6.485774	1.098720	-0.000130
 883	8.7759e+01	2.4301	67.329331	0.000811	8.107218	1.373400	-0.000162
 884	8.7859e+01	2.4111	67.220329	0.000547	5.472372	0.927045	-0.000110
 885	8.7958e+01	2.3901	67.087103	0.000669	6.688455	1.133055	-0.000134
 886	8.8058e+01	2.3697	66.945803	0.000709	7.093816	1.201725	-0.000142
 887	8.8157e+01	2.3508	66.848912	0.000486	4.864331	0.824040	-0.000097
 888	8.8257e+01	2.3306	66.671278	0.000892	8.917940	1.510740	-0.000179
 889	8.8356e+01	2.3104	66.529978	0.000709	7.093816	1.201725	-0.000142
 890	8.8456e+01	2.2913	66.420976	0.000547	5.472372	0.927045	-0.000110
 891	8.8555e+01	2.2709	66.287750	0.000669	6.688455	1.133055	-0.000134
 892	8.8654e+01	2.2510	66.166636	0.000608	6.080414	1.030050	-0.000122
 893	8.8754e+01	2.2310	66.049559	0.000588	5.877733	0.995715	-0.000118
 894	8.8853e+01	2.2106	65.880000	0.000851	8.512579	1.442070	-0.000170
 895	8.8953e+01	2.1916	65.787145	0.000466	4.661650	0.789705	-0.000093
 896	8.9052e+01	2.1704	65.601437	0.000932	9.323301	1.579410	-0.000187
 897	8.9152e+01	2.1514	65.492435	0.000547	5.472372	0.927045	-0.000110
 898	8.9251e+01	2.1316	65.379395	0.000568	5.675053	0.961380	-0.000114
 899	8.9351e+01	2.1110	65.225984	0.000770	7.701857	1.304730	-0.000154
 900	8.9451e+01	2.0912	65.092758	0.000669	6.688455	1.133055	-0.000134
 901	8.9550e+01	2.0709	64.963570	0.000649	6.485774	1.098720	-0.000130
 902	8.9650e+01	2.0522	64.830344	0.000669	6.688455	1.133055	-0.000134
 903	8.9749e+01	2.0319	64.676933	0.000770	7.701857	1.304730	-0.000154
 904	8.9849e+01	2.0121	64.539670	0.000689	6.891135	1.167390	-0.000138
 905	8.9948e+01	1.9921	64.378185	0.000811	8.107218	1.373400	-0.000162
 906	9.0047e+01	1.9717	64.289368	0.000446	4.458970	0.755370	-0.000089
 907	9.0147e+01	1.9522	64.184403	0.000527	5.269692	0.892710	-0.000105
 908	9.0246e+01	1.9317	64.043103	0.000709	7.093816	1.201725	-0.000142
 909	9.0346e+01	1.9122	63.917952	0.000628	6.283094	1.064385	-0.000126
 910	9.0445e+01	1.8931	63.752429	0.000831	8.309898	1.407735	-0.000166
 911	9.0545e+01	1.8730	63.619204	0.000669	6.688455	1.133055	-0.000134
 912	9.0644e+01	1.8520	63.481941	0.000689	6.891135	1.167390	-0.000138
 913	9.0744e+01	1.8333	63.372938	0.000547	5.472372	0.927045	-0.000110
 914	9.0844e+01	1.8125	63.199341	0.000872	8.715259	1.476405	-0.000174
 915	9.0943e+01	1.7923	63.110524	0.000446	4.458970	0.755370	-0.000089
 916	9.1043e+01	1.7730	62.949039	0.000811	8.107218	1.373400	-0.000162
 917	9.1142e+01	1.7522	62.815814	0.000669	6.688455	1.133055	-0.000134
 918	9.1242e+01	1.7326	62.682588	0.000669	6.688455	1.133055	-0.000134
 919	9.1341e+01	1.7132	62.553400	0.000649	6.485774	1.098720	-0.000130
 920	9.1441e+01	1.6927	62.416137	0.000689	6.891135	1.167390	-0.000138
 921	9.1540e+01	1.6735	62.295023	0.000608	6.080414	1.030050	-0.000122
 922	9.1639e+01	1.6541	62.149686	0.000730	7.296496	1.236060	-0.000146
 923	9.1739e+01	1.6334	62.024535	0.000628	6.283094	1.064385	-0.000126
 924	9.1838e+01	1.6135	61.883235	0.000709	7.093816	1.201725	-0.000142
 925	9.1938e+01	1.5929	61.770195	0.000568	5.675053	0.961380	-0.000114
 926	9.2037e+01	1.5738	61.596599	0.000872	8.715259	1.476405	-0.000174
 927	9.2137e+01	1.5533	61.491633	0.000527	5.269692	0.892710	-0.000105
 928	9.2237e+01	1.5333	61.346296	0.000730	7.296496	1.236060	-0.000146
 929	9.2336e+01	1.5140	61.209033	0.000689	6.891135	1.167390	-0.000138
 930	9.2436e+01	1.4936	61.083882	0.000628	6.283094	1.064385	-0.000126
 931	9.2535e+01	1.4736	60.962768	0.000608	6.080414	1.030050	-0.000122
 932	9.2635e+01	1.4543	60.813394	0.000750	7.499177	1.270395	-0.000150
 933	9.2734e+01	1.4353	60.676132	0.000689	6.891135	1.167390	-0.000138
 934	9.2834e+01	1.4143	60.538869	0.000689	6.891135	1.167390	-0.000138
 935	9.2933e+01	1.3950	60.417755	0.000608	6.080414	1.030050	-0.000122
 936	9.3032e+01	1.3734	60.268381	0.000750	7.499177	1.270395	-0.000150
 937	9.3132e+01	1.3548	60.123044	0.000730	7.296496	1.236060	-0.000146
 938	9.3231e+01	1.3349	59.985781	0.000689	6.891135	1.167390	-0.000138
 939	9.3331e+01	1.3141	59.876779	0.000547	5.472372	0.927045	-0.000110
 940	9.3430e+01	1.2937	59.719330	0.000790	7.904538	1.339065	-0.000158
 941	9.3530e+01	1.2743	59.630513	0.000446	4.458970	0.755370	-0.000089
 942	9.3629e+01	1.2552	59.452879	0.000892	8.917940	1.510740	-0.000179
 943	9.3729e+01	1.2350	59.263134	0.000953	9.525981	1.613745	-0.000191
 944	9.3829e+01	1.2157	59.162206	0.000507	5.067011	0.858375	-0.000101
 945	9.3928e+01	1.1960	59.016869	0.000730	7.296496	1.236060	-0.000146
 946	9.4028e+01	1.1749	58.903829	0.000568	5.675053	0.961380	-0.000114
 947	9.4127e+01	1.1562	58.742344	0.000811	8.107218	1.373400	-0.000162
 948	9.4227e+01	1.1352	58.621229	0.000608	6.080414	1.030050	-0.000122
 949	9.4326e+01	1.1161	58.439558	0.000912	9.120620	1.545075	-0.000183
 950	9.4425e+01	1.0951	58.290184	0.000750	7.499177	1.270395	-0.000150
 951	9.4525e+01	1.0764	58.189256	0.000507	5.067011	0.858375	-0.000101
 952	9.4624e+01	1.0558	58.060068	0.000649	6.485774	1.098720	-0.000130
 953	9.4724e+01	1.0352	57.878397	0.000912	9.120620	1.545075	-0.000183
 954	9.4823e+01	1.0159	57.741134	0.000689	6.891135	1.167390	-0.000138
 955	9.4923e+01	0.9954	57.603871	0.000689	6.891135	1.167390	-0.000138
 956	9.5022e+01	0.9771	57.466609	0.000689	6.891135	1.167390	-0.000138
 957	9.5122e+01	0.9567	57.321272	0.000730	7.296496	1.236060	-0.000146
 958	9.5222e+01	0.9357	57.200158	0.000608	6.080414	1.030050	-0.000122
 959	9.5321e+01	0.9169	57.034635	0.000831	8.309898	1.407735	-0.000166
 960	9.5421e+01	0.8971	56.893335	0.000709	7.093816	1.201725	-0.000142
 961	9.5520e+01	0.8769	56.780296	0.000568	5.675053	0.961380	-0.000114
 962	9.5620e+01	0.8577	56.667256	0.000568	5.675053	0.961380	-0.000114
 963	9.5719e+01	0.8371	56.497696	0.000851	8.512579	1.442070	-0.000170
 964	9.5819e+01	0.8167	56.368508	0.000649	6.485774	1.098720	-0.000130
 965	9.5918e+01	0.7961	56.235282	0.000669	6.688455	1.133055	-0.000134
 966	9.6017e+01	0.7766	56.089945	0.000730	7.296496	1.236060	-0.000146
 967	9.6117e+01	0.7568	55.948646	0.000709	7.093816	1.201725	-0.000142
 968	9.6216e+01	0.7370	55.783123	0.000831	8.309898	1.407735	-0.000166
 969	9.6316e+01	0.7176	55.645860	0.000689	6.891135	1.167390	-0.000138
 970	9.6415e+01	0.6973	55.524746	0.000608	6.080414	1.030050	-0.000122
 971	9.6515e+01	0.6771	55.383447	0.000709	7.093816	1.201725	-0.000142
 972	9.6615e+01	0.6577	55.217924	0.000831	8.309898	1.407735	-0.000166
 973	9.6714e+01	0.6374	55.104884	0.000568	5.675053	0.961380	-0.000114
 974	9.6814e+01	0.6174	54.947436	0.000790	7.904538	1.339065	-0.000158
 975	9.6913e+01	0.5981	54.781913	0.000831	8.309898	1.407735	-0.000166
 976	9.7013e+01	0.5768	54.644651	0.000689	6.891135	1.167390	-0.000138
 977	9.7112e+01	0.5587	54.483165	0.000811	8.107218	1.373400	-0.000162
 978	9.7212e+01	0.5389	54.378200	0.000527	5.269692	0.892710	-0.000105
 979	9.7311e+01	0.5187	54.228826	0.000750	7.499177	1.270395	-0.000150
 980	9.7410e+01	0.4976	54.051192	0.000892	8.917940	1.510740	-0.000179
 981	9.7510e+01	0.4782	53.954301	0.000486	4.864331	0.824040	-0.000097
 982	9.7609e+01	0.4580	53.788778	0.000831	8.309898	1.407735	-0.000166
 983	9.7709e+01	0.4385	53.651515	0.000689	6.891135	1.167390	-0.000138
 984	9.7808e+01	0.4182	53.494067	0.000790	7.904538	1.339065	-0.000158
 985	9.7908e+01	0.3994	53.336619	0.000790	7.904538	1.339065	-0.000158
 986	9.8007e+01	0.3777	53.203393	0.000669	6.688455	1.133055	-0.000134
 987	9.8107e+01	0.3586	53.074205	0.000649	6.485774	1.098720	-0.000130
 988	9.8207e+01	0.3381	52.916757	0.000790	7.904538	1.339065	-0.000158
 989	9.8306e+01	0.3185	52.787568	0.000649	6.485774	1.098720	-0.000130
 990	9.8406e+01	0.2984	52.609934	0.000892	8.917940	1.510740	-0.000179
 991	9.8505e+01	0.2783	52.460560	0.000750	7.499177	1.270395	-0.000150
 992	9.8605e+01	0.2596	52.319261	0.000709	7.093816	1.201725	-0.000142
 993	9.8704e+01	0.2394	52.173924	0.000730	7.296496	1.236060	-0.000146
 994	9.8803e+01	0.2178	52.008401	0.000831	8.309898	1.407735	-0.000166
 995	9.8903e+01	0.1986	51.907473	0.000507	5.067011	0.858375	-0.000101
 996	9.9002e+01	0.1788	51.737913	0.000851	8.512579	1.442070	-0.000170
 997	9.9102e+01	0.1600	51.560279	0.000892	8.917940	1.510740	-0.000179
 998	9.9201e+01	0.1382	51.394757	0.000831	8.309898	1.407735	-0.000166
 999	9.9301e+01	0.1190	51.269605	0.000628	6.283094	1.064385	-0.000126
1000	9.9400e+01	0.0996	51.096008	0.000872	8.715259	1.476405	-0.000174
1001	9.9500e+01	0.0801	50.974894	0.000608	6.080414	1.030050	-0.000122
1002	9.9600e+01	0.0600	50.781112	0.000973	9.728662	1.648080	-0.000195
1003	9.9699e+01	0.0401	50.643849	0.000689	6.891135	1.167390	-0.000138
1004	9.9799e+01	0.0200	50.502550	0.000709	7.093816	1.201725	-0.000142
1005	9.9898e+01	0.0001	50.377398	0.000628	6.283094	1.064385	-0.000126
1006	9.9998e+01	-0.0190	50.203801	0.000872	8.715259	1.476405	-0.000174
1007	1.0010e+02	-0.0376	50.102873	0.000507	5.067011	0.858375	-0.000101
1008	1.0020e+02	-0.0579	49.949462	0.000770	7.701857	1.304730	-0.000154
1009	1.0030e+02	-0.0784	49.759717	0.000953	9.525981	1.613745	-0.000191
1010	1.0040e+02	-0.0987	49.618417	0.000709	7.093816	1.201725	-0.000142
1011	1.0050e+02	-0.1180	49.509414	0.000547	5.472372	0.927045	-0.000110
1012	1.0059e+02	-0.1380	49.323706	0.000932	9.323301	1.579410	-0.000187
1013	1.0069e+02	-0.1582	49.182406	0.000709	7.093816	1.201725	-0.000142
1014	1.0079e+02	-0.1767	48.992661	0.000953	9.525981	1.613745	-0.000191
1015	1.0089e+02	-0.1983	48.863472	0.000649	6.485774	1.098720	-0.000130
1016	1.0099e+02	-0.2176	48.710061	0.000770	7.701857	1.304730	-0.000154
1017	1.0109e+02	-0.2374	48.560687	0.000750	7.499177	1.270395	-0.000150
1018	1.0119e+02	-0.2584	48.411313	0.000750	7.499177	1.270395	-0.000150
1019	1.0129e+02	-0.2775	48.261939	0.000750	7.499177	1.270395	-0.000150
1020	1.0139e+02	-0.2962	48.112565	0.000750	7.499177	1.270395	-0.000150
1021	1.0149e+02	-0.3172	47.959154	0.000770	7.701857	1.304730	-0.000154
1022	1.0159e+02	-0.3381	47.817854	0.000709	7.093816	1.201725	-0.000142
1023	1.0169e+02	-0.3568	47.652332	0.000831	8.309898	1.407735	-0.000166
1024	1.0179e+02	-0.3783	47.511032	0.000709	7.093816	1.201725	-0.000142
1025	1.0189e+02	-0.3976	47.333398	0.000892	8.917940	1.510740	-0.000179
1026	1.0199e+02	-0.4169	47.196135	0.000689	6.891135	1.167390	-0.000138
1027	1.0209e+02	-0.4369	47.066947	0.000649	6.485774	1.098720	-0.000130
1028	1.0219e+02	-0.4572	46.925647	0.000709	7.093816	1.201725	-0.000142
1029	1.0229e+02	-0.4768	46.748013	0.000892	8.917940	1.510740	-0.000179
1030	1.0239e+02	-0.4961	46.598639	0.000750	7.499177	1.270395	-0.000150
1031	1.0248e+02	-0.5165	46.461377	0.000689	6.891135	1.167390	-0.000138
1032	1.0258e+02	-0.5370	46.267594	0.000973	9.728662	1.648080	-0.000195
1033	1.0268e+02	-0.5563	46.150517	0.000588	5.877733	0.995715	-0.000118
1034	1.0278e+02	-0.5766	46.017292	0.000669	6.688455	1.133055	-0.000134
1035	1.0288e+02	-0.5959	45.855806	0.000811	8.107218	1.373400	-0.000162
1036	1.0298e+02	-0.6165	45.714507	0.000709	7.093816	1.201725	-0.000142
1037	1.0308e+02	-0.6357	45.561095	0.000770	7.701857	1.304730	-0.000154
1038	1.0318e+02	-0.6554	45.407684	0.000770	7.701857	1.304730	-0.000154
1039	1.0328e+02	-0.6758	45.246199	0.000811	8.107218	1.373400	-0.000162
1040	1.0338e+02	-0.6973	45.088750	0.000790	7.904538	1.339065	-0.000158
1041	1.0348e+02	-0.7155	44.907079	0.000912	9.120620	1.545075	-0.000183
1042	1.0358e+02	-0.7361	44.790002	0.000588	5.877733	0.995715	-0.000118
1043	1.0368e+02	-0.7558	44.640628	0.000750	7.499177	1.270395	-0.000150
1044	1.0378e+02	-0.7758	44.483180	0.000790	7.904538	1.339065	-0.000158
1045	1.0388e+02	-0.7958	44.309583	0.000872	8.715259	1.476405	-0.000174
1046	1.0398e+02	-0.8158	44.188469	0.000608	6.080414	1.030050	-0.000122
1047	1.0408e+02	-0.8361	43.990650	0.000993	9.931342	1.682415	-0.000199
1048	1.0418e+02	-0.8565	43.869535	0.000608	6.080414	1.030050	-0.000122
1049	1.0428e+02	-0.8765	43.679790	0.000953	9.525981	1.613745	-0.000191
1050	1.0438e+02	-0.8942	43.562713	0.000588	5.877733	0.995715	-0.000118
1051	1.0447e+02	-0.9158	43.417376	0.000730	7.296496	1.236060	-0.000146
1052	1.0457e+02	-0.9347	43.272039	0.000730	7.296496	1.236060	-0.000146
1053	1.0467e+02	-0.9554	43.106517	0.000831	8.309898	1.407735	-0.000166
1054	1.0477e+02	-0.9750	42.969254	0.000689	6.891135	1.167390	-0.000138
1055	1.0487e+02	-0.9952	42.811806	0.000790	7.904538	1.339065	-0.000158
1056	1.0497e+02	-1.0143	42.642246	0.000851	8.512579	1.442070	-0.000170
1057	1.0507e+02	-1.0339	42.456538	0.000932	9.323301	1.579410	-0.000187
1058	1.0517e+02	-1.0556	42.307164	0.000750	7.499177	1.270395	-0.000150
1059	1.0527e+02	-1.0756	42.182013	0.000628	6.283094	1.064385	-0.000126
1060	1.0537e+02	-1.0945	41.992267	0.000953	9.525981	1.613745	-0.000191
1061	1.0547e+02	-1.1142	41.887302	0.000527	5.269692	0.892710	-0.000105
1062	1.0557e+02	-1.1341	41.750039	0.000689	6.891135	1.167390	-0.000138
1063	1.0567e+02	-1.1546	41.560294	0.000953	9.525981	1.613745	-0.000191
1064	1.0577e+02	-1.1751	41.378623	0.000912	9.120620	1.545075	-0.000183
1065	1.0587e+02	-1.1937	41.253472	0.000628	6.283094	1.064385	-0.000126
1066	1.0597e+02	-1.2147	41.120246	0.000669	6.688455	1.133055	-0.000134
1067	1.0607e+02	-1.2337	40.958761	0.000811	8.107218	1.373400	-0.000162
1068	1.0617e+02	-1.2543	40.821498	0.000689	6.891135	1.167390	-0.000138
1069	1.0627e+02	-1.2734	40.660013	0.000811	8.107218	1.373400	-0.000162
1070	1.0637e+02	-1.2939	40.546973	0.000568	5.675053	0.961380	-0.000114
1071	1.0647e+02	-1.3134	40.345116	0.001013	10.134023	1.716750	-0.000203
1072	1.0656e+02	-1.3332	40.215928	0.000649	6.485774	1.098720	-0.000130
1073	1.0666e+02	-1.3536	40.066554	0.000750	7.499177	1.270395	-0.000150
1074	1.0676e+02	-1.3731	39.917180	0.000750	7.499177	1.270395	-0.000150
1075	1.0686e+02	-1.3931	39.751657	0.000831	8.309898	1.407735	-0.000166
1076	1.0696e+02	-1.4130	39.598246	0.000770	7.701857	1.304730	-0.000154
1077	1.0706e+02	-1.4335	39.440798	0.000790	7.904538	1.339065	-0.000158
1078	1.0716e+02	-1.4533	39.307572	0.000669	6.688455	1.133055	-0.000134
1079	1.0726e+02	-1.4729	39.162235	0.000730	7.296496	1.236060	-0.000146
1080	1.0736e+02	-1.4929	39.016898	0.000730	7.296496	1.236060	-0.000146
1081	1.0746e+02	-1.5145	38.831190	0.000932	9.323301	1.579410	-0.000187
1082	1.0756e+02	-1.5327	38.685853	0.000730	7.296496	1.236060	-0.000146
1083	1.0766e+02	-1.5530	38.532442	0.000770	7.701857	1.304730	-0.000154
1084	1.0776e+02	-1.5730	38.403254	0.000649	6.485774	1.098720	-0.000130
1085	1.0786e+02	-1.5921	38.241768	0.000811	8.107218	1.373400	-0.000162
1086	1.0796e+02	-1.6128	38.080283	0.000811	8.107218	1.373400	-0.000162
1087	1.0806e+02	-1.6322	37.910723	0.000851	8.512579	1.442070	-0.000170
1088	1.0816e+02	-1.6525	37.769423	0.000709	7.093816	1.201725	-0.000142
1089	1.0826e+02	-1.6716	37.616012	0.000770	7.701857	1.304730	-0.000154
1090	1.0836e+02	-1.6924	37.470675	0.000730	7.296496	1.236060	-0.000146
1091	1.0845e+02	-1.7119	37.325338	0.000730	7.296496	1.236060	-0.000146
1092	1.0855e+02	-1.7325	37.196150	0.000649	6.485774	1.098720	-0.000130
1093	1.0865e+02	-1.7519	37.014479	0.000912	9.120620	1.545075	-0.000183
1094	1.0875e+02	-1.7716	36.881254	0.000669	6.688455	1.133055	-0.000134
1095	1.0885e+02	-1.7915	36.711694	0.000851	8.512579	1.442070	-0.000170
1096	1.0895e+02	-1.8111	36.586543	0.000628	6.283094	1.064385	-0.000126
1097	1.0905e+02	-1.8313	36.441206	0.000730	7.296496	1.236060	-0.000146
1098	1.0915e+02	-1.8517	36.267609	0.000872	8.715259	1.476405	-0.000174
1099	1.0925e+02	-1.8719	36.126309	0.000709	7.093816	1.201725	-0.000142
1100	1.0935e+02	-1.8918	35.964824	0.000811	8.107218	1.373400	-0.000162
1101	1.0945e+02	-1.9109	35.823524	0.000709	7.093816	1.201725	-0.000142
1102	1.0955e+02	-1.9315	35.653964	0.000851	8.512579	1.442070	-0.000170
1103	1.0965e+02	-1.9518	35.544962	0.000547	5.472372	0.927045	-0.000110
1104	1.0975e+02	-1.9711	35.379439	0.000831	8.309898	1.407735	-0.000166
1105	1.0985e+02	-1.9910	35.209879	0.000851	8.512579	1.442070	-0.000170
1106	1.0995e+02	-2.0113	35.048394	0.000811	8.107218	1.373400	-0.000162
1107	1.1005e+02	-2.0313	34.899020	0.000750	7.499177	1.270395	-0.000150
1108	1.1015e+02	-2.0515	34.733497	0.000831	8.309898	1.407735	-0.000166
1109	1.1025e+02	-2.0701	34.592198	0.000709	7.093816	1.201725	-0.000142
1110	1.1035e+02	-2.0901	34.418601	0.000872	8.715259	1.476405	-0.000174
1111	1.1044e+02	-2.1121	34.293450	0.000628	6.283094	1.064385	-0.000126
1112	1.1054e+02	-2.1301	34.095630	0.000993	9.931342	1.682415	-0.000199
1113	1.1064e+02	-2.1509	34.006813	0.000446	4.458970	0.755370	-0.000089
1114	1.1074e+02	-2.1709	33.841290	0.000831	8.309898	1.407735	-0.000166
1115	1.1084e+02	-2.1915	33.639434	0.001013	10.134023	1.716750	-0.000203
1116	1.1094e+02	-2.2105	33.534468	0.000527	5.269692	0.892710	-0.000105
1117	1.1104e+02	-2.2302	33.381057	0.000770	7.701857	1.304730	-0.000154
1118	1.1114e+02	-2.2501	33.195349	0.000932	9.323301	1.579410	-0.000187
1119	1.1124e+02	-2.2704	33.106532	0.000446	4.458970	0.755370	-0.000089
1120	1.1134e+02	-2.2909	32.957158	0.000750	7.499177	1.270395	-0.000150
1121	1.1144e+02	-2.3091	32.763375	0.000973	9.728662	1.648080	-0.000195
1122	1.1154e+02	-2.3311	32.601890	0.000811	8.107218	1.373400	-0.000162
1123	1.1164e+02	-2.3501	32.428293	0.000872	8.715259	1.476405	-0.000174
1124	1.1174e+02	-2.3688	32.307179	0.000608	6.080414	1.030050	-0.000122
1125	1.1184e+02	-2.3901	32.165879	0.000709	7.093816	1.201725	-0.000142
1126	1.1194e+02	-2.4097	32.012468	0.000770	7.701857	1.304730	-0.000154
1127	1.1204e+02	-2.4297	31.879242	0.000669	6.688455	1.133055	-0.000134
1128	1.1214e+02	-2.4487	31.725831	0.000770	7.701857	1.304730	-0.000154
1129	1.1224e+02	-2.4693	31.556271	0.000851	8.512579	1.442070	-0.000170
1130	1.1234e+02	-2.4901	31.390749	0.000831	8.309898	1.407735	-0.000166
1131	1.1244e+02	-2.5083	31.261561	0.000649	6.485774	1.098720	-0.000130
1132	1.1253e+02	-2.5284	31.108149	0.000770	7.701857	1.304730	-0.000154
1133	1.1263e+02	-2.5482	30.954738	0.000770	7.701857	1.304730	-0.000154
1134	1.1273e+02	-2.5694	30.797290	0.000790	7.904538	1.339065	-0.000158
1135	1.1283e+02	-2.5885	30.664064	0.000669	6.688455	1.133055	-0.000134
1136	1.1293e+02	-2.6083	30.518728	0.000730	7.296496	1.236060	-0.000146
1137	1.1303e+02	-2.6286	30.337057	0.000912	9.120620	1.545075	-0.000183
1138	1.1313e+02	-2.6491	30.224017	0.000568	5.675053	0.961380	-0.000114
1139	1.1323e+02	-2.6691	30.054457	0.000851	8.512579	1.442070	-0.000170
1140	1.1333e+02	-2.6878	29.888934	0.000831	8.309898	1.407735	-0.000166
1141	1.1343e+02	-2.7082	29.735523	0.000770	7.701857	1.304730	-0.000154
1142	1.1353e+02	-2.7277	29.618446	0.000588	5.877733	0.995715	-0.000118
1143	1.1363e+02	-2.7478	29.456961	0.000811	8.107218	1.373400	-0.000162
1144	1.1373e+02	-2.7679	29.275290	0.000912	9.120620	1.545075	-0.000183
1145	1.1383e+02	-2.7887	29.121879	0.000770	7.701857	1.304730	-0.000154
1146	1.1393e+02	-2.8091	28.980579	0.000709	7.093816	1.201725	-0.000142
1147	1.1403e+02	-2.8276	28.847353	0.000669	6.688455	1.133055	-0.000134
1148	1.1413e+02	-2.8479	28.657608	0.000953	9.525981	1.613745	-0.000191
1149	1.1423e+02	-2.8680	28.512271	0.000730	7.296496	1.236060	-0.000146
1150	1.1433e+02	-2.8876	28.395194	0.000588	5.877733	0.995715	-0.000118
1151	1.1442e+02	-2.9074	28.209486	0.000932	9.323301	1.579410	-0.000187
1152	1.1452e+02	-2.9272	28.048001	0.000811	8.107218	1.373400	-0.000162
1153	1.1462e+02	-2.9465	27.914775	0.000669	6.688455	1.133055	-0.000134
1154	1.1472e+02	-2.9677	27.765401	0.000750	7.499177	1.270395	-0.000150
1155	1.1482e+02	-2.9858	27.616027	0.000750	7.499177	1.270395	-0.000150
1156	1.1492e+02	-3.0069	27.478764	0.000689	6.891135	1.167390	-0.000138
1157	1.1502e+02	-3.0276	27.329390	0.000750	7.499177	1.270395	-0.000150
1158	1.1512e+02	-3.0475	27.167905	0.000811	8.107218	1.373400	-0.000162
1159	1.1522e+02	-3.0654	26.998345	0.000851	8.512579	1.442070	-0.000170
1160	1.1532e+02	-3.0869	26.861083	0.000689	6.891135	1.167390	-0.000138
1161	1.1542e+02	-3.1067	26.683449	0.000892	8.917940	1.510740	-0.000179
1162	1.1552e+02	-3.1276	26.538112	0.000730	7.296496	1.236060	-0.000146
1163	1.1562e+02	-3.1462	26.364515	0.000872	8.715259	1.476405	-0.000174
1164	1.1572e+02	-3.1665	26.231289	0.000669	6.688455	1.133055	-0.000134
1165	1.1582e+02	-3.1851	26.106138	0.000628	6.283094	1.064385	-0.000126
1166	1.1592e+02	-3.2070	25.932541	0.000872	8.715259	1.476405	-0.000174
1167	1.1602e+02	-3.2265	25.754907	0.000892	8.917940	1.510740	-0.000179
1168	1.1612e+02	-3.2461	25.585348	0.000851	8.512579	1.442070	-0.000170
1169	1.1622e+02	-3.2651	25.456159	0.000649	6.485774	1.098720	-0.000130
1170	1.1632e+02	-3.2867	25.314860	0.000709	7.093816	1.201725	-0.000142
1171	1.1642e+02	-3.3063	25.129151	0.000932	9.323301	1.579410	-0.000187
1172	1.1651e+02	-3.3264	25.012074	0.000588	5.877733	0.995715	-0.000118
1173	1.1661e+02	-3.3453	24.870775	0.000709	7.093816	1.201725	-0.000142
1174	1.1671e+02	-3.3661	24.681029	0.000953	9.525981	1.613745	-0.000191
1175	1.1681e+02	-3.3850	24.535692	0.000730	7.296496	1.236060	-0.000146
1176	1.1691e+02	-3.4058	24.382281	0.000770	7.701857	1.304730	-0.000154
1177	1.1701e+02	-3.4254	24.240982	0.000709	7.093816	1.201725	-0.000142
1178	1.1711e+02	-3.4462	24.055273	0.000932	9.323301	1.579410	-0.000187
1179	1.1721e+02	-3.4654	23.893788	0.000811	8.107218	1.373400	-0.000162
1180	1.1731e+02	-3.4850	23.792859	0.000507	5.067011	0.858375	-0.000101
1181	1.1741e+02	-3.5049	23.635411	0.000790	7.904538	1.339065	-0.000158
1182	1.1751e+02	-3.5265	23.486037	0.000750	7.499177	1.270395	-0.000150
1183	1.1761e+02	-3.5442	23.356849	0.000649	6.485774	1.098720	-0.000130
1184	1.1771e+02	-3.5654	23.126732	0.001155	11.552786	1.957095	-0.000231
1185	1.1781e+02	-3.5845	23.017729	0.000547	5.472372	0.927045	-0.000110
1186	1.1791e+02	-3.6052	22.852207	0.000831	8.309898	1.407735	-0.000166
1187	1.1801e+02	-3.6249	22.714944	0.000689	6.891135	1.167390	-0.000138
1188	1.1811e+02	-3.6443	22.573644	0.000709	7.093816	1.201725	-0.000142
1189	1.1821e+02	-3.6646	22.375825	0.000993	9.931342	1.682415	-0.000199
1190	1.1831e+02	-3.6850	22.270859	0.000527	5.269692	0.892710	-0.000105
1191	1.1841e+02	-3.7042	22.052854	0.001094	10.944744	1.854090	-0.000219
1192	1.1850e+02	-3.7248	21.927703	0.000628	6.283094	1.064385	-0.000126
1193	1.1860e+02	-3.7442	21.770254	0.000790	7.904538	1.339065	-0.000158
1194	1.1870e+02	-3.7649	21.620880	0.000750	7.499177	1.270395	-0.000150
1195	1.1880e+02	-3.7836	21.523989	0.000486	4.864331	0.824040	-0.000097
1196	1.1890e+02	-3.8042	21.366541	0.000790	7.904538	1.339065	-0.000158
1197	1.1900e+02	-3.8243	21.152573	0.001074	10.742064	1.819755	-0.000215
1198	1.1910e+02	-3.8437	21.067793	0.000426	4.256289	0.721035	-0.000085
1199	1.1920e+02	-3.8635	20.874010	0.000973	9.728662	1.648080	-0.000195
1200	1.1930e+02	-3.8828	20.704451	0.000851	8.512579	1.442070	-0.000170
1201	1.1940e+02	-3.9041	20.559114	0.000730	7.296496	1.236060	-0.000146
1202	1.1950e+02	-3.9230	20.405703	0.000770	7.701857	1.304730	-0.000154
1203	1.1960e+02	-3.9431	20.248254	0.000790	7.904538	1.339065	-0.000158
1204	1.1970e+02	-3.9639	20.163474	0.000426	4.256289	0.721035	-0.000085
1205	1.1980e+02	-3.9832	19.957581	0.001034	10.336703	1.751085	-0.000207
1206	1.1990e+02	-4.0030	19.832429	0.000628	6.283094	1.064385	-0.000126
1207	1.2000e+02	-4.0230	19.650758	0.000912	9.120620	1.545075	-0.000183
1208	1.2010e+02	-4.0425	19.521570	0.000649	6.485774	1.098720	-0.000130
1209	1.2020e+02	-4.0631	19.339899	0.000912	9.120620	1.545075	-0.000183
1210	1.2030e+02	-4.0820	19.194562	0.000730	7.296496	1.236060	-0.000146
1211	1.2039e+02	-4.1022	19.061336	0.000669	6.688455	1.133055	-0.000134
1212	1.2049e+02	-4.1228	18.855442	0.001034	10.336703	1.751085	-0.000207
1213	1.2059e+02	-4.1428	18.722217	0.000669	6.688455	1.133055	-0.000134
1214	1.2069e+02	-4.1624	18.552657	0.000851	8.512579	1.442070	-0.000170
1215	1.2079e+02	-4.1830	18.467877	0.000426	4.256289	0.721035	-0.000085
1216	1.2089e+02	-4.2024	18.261984	0.001034	10.336703	1.751085	-0.000207
1217	1.2099e+02	-4.2215	18.084350	0.000892	8.917940	1.510740	-0.000179
1218	1.2109e+02	-4.2424	17.910753	0.000872	8.715259	1.476405	-0.000174
1219	1.2119e+02	-4.2624	17.789639	0.000608	6.080414	1.030050	-0.000122
1220	1.2129e+02	-4.2822	17.644302	0.000730	7.296496	1.236060	-0.000146
1221	1.2139e+02	-4.3018	17.486853	0.000790	7.904538	1.339065	-0.000158
1222	1.2149e+02	-4.3222	17.329405	0.000790	7.904538	1.339065	-0.000158
1223	1.2159e+02	-4.3423	17.167920	0.000811	8.107218	1.373400	-0.000162
1224	1.2169e+02	-4.3624	17.018546	0.000750	7.499177	1.270395	-0.000150
1225	1.2179e+02	-4.3819	16.836875	0.000912	9.120620	1.545075	-0.000183
1226	1.2189e+02	-4.4020	16.691538	0.000730	7.296496	1.236060	-0.000146
1227	1.2199e+02	-4.4212	16.534089	0.000790	7.904538	1.339065	-0.000158
1228	1.2209e+02	-4.4412	16.384715	0.000750	7.499177	1.270395	-0.000150
1229	1.2219e+02	-4.4603	16.211119	0.000872	8.715259	1.476405	-0.000174
1230	1.2229e+02	-4.4814	16.061745	0.000750	7.499177	1.270395	-0.000150
1231	1.2239e+02	-4.5015	15.880073	0.000912	9.120620	1.545075	-0.000183
1232	1.2248e+02	-4.5211	15.754922	0.000628	6.283094	1.064385	-0.000126
1233	1.2258e+02	-4.5406	15.544991	0.001054	10.539383	1.785420	-0.000211
1234	1.2268e+02	-4.5609	15.423877	0.000608	6.080414	1.030050	-0.000122
1235	1.2278e+02	-4.5808	15.246243	0.000892	8.917940	1.510740	-0.000179
1236	1.2288e+02	-4.6011	15.084758	0.000811	8.107218	1.373400	-0.000162
1237	1.2298e+02	-4.6210	14.907124	0.000892	8.917940	1.510740	-0.000179
1238	1.2308e+02	-4.6415	14.761787	0.000730	7.296496	1.236060	-0.000146
1239	1.2318e+02	-4.6606	14.576079	0.000932	9.323301	1.579410	-0.000187
1240	1.2328e+02	-4.6812	14.446890	0.000649	6.485774	1.098720	-0.000130
1241	1.2338e+02	-4.7002	14.269256	0.000892	8.917940	1.510740	-0.000179
1242	1.2348e+02	-4.7217	14.115845	0.000770	7.701857	1.304730	-0.000154
1243	1.2358e+02	-4.7399	13.942248	0.000872	8.715259	1.476405	-0.000174
1244	1.2368e+02	-4.7607	13.760577	0.000912	9.120620	1.545075	-0.000183
1245	1.2378e+02	-4.7801	13.566795	0.000973	9.728662	1.648080	-0.000195
1246	1.2388e+02	-4.8007	13.425495	0.000709	7.093816	1.201725	-0.000142
1247	1.2398e+02	-4.8201	13.280158	0.000730	7.296496	1.236060	-0.000146
1248	1.2408e+02	-4.8398	13.102524	0.000892	8.917940	1.510740	-0.000179
1249	1.2418e+02	-4.8602	12.957187	0.000730	7.296496	1.236060	-0.000146
1250	1.2428e+02	-4.8799	12.775516	0.000912	9.120620	1.545075	-0.000183
1251	1.2438e+02	-4.8996	12.585771	0.000953	9.525981	1.613745	-0.000191
1252	1.2447e+02	-4.9199	12.432360	0.000770	7.701857	1.304730	-0.000154
1253	1.2457e+02	-4.9384	12.258763	0.000872	8.715259	1.476405	-0.000174
1254	1.2467e+02	-4.9594	12.097277	0.000811	8.107218	1.373400	-0.000162
1255	1.2477e+02	-4.9800	11.903495	0.000973	9.728662	1.648080	-0.000195
1256	1.2487e+02	-4.9994	11.721824	0.000912	9.120620	1.545075	-0.000183
1257	1.2497e+02	-5.0201	11.564375	0.000790	7.904538	1.339065	-0.000158
1258	1.2507e+02	-5.0392	11.350407	0.001074	10.742064	1.819755	-0.000215
1259	1.2517e+02	-5.0583	11.188922	0.000811	8.107218	1.373400	-0.000162
1260	1.2527e+02	-5.0784	11.019362	0.000851	8.512579	1.442070	-0.000170
1261	1.2537e+02	-5.0994	10.869988	0.000750	7.499177	1.270395	-0.000150
1262	1.2547e+02	-5.1192	10.651983	0.001094	10.944744	1.854090	-0.000219
1263	1.2557e+02	-5.1390	10.470312	0.000912	9.120620	1.545075	-0.000183
1264	1.2567e+02	-5.1588	10.357272	0.000568	5.675053	0.961380	-0.000114
1265	1.2577e+02	-5.1776	10.115044	0.001216	12.160827	2.060100	-0.000243
1266	1.2587e+02	-5.1995	9.969707	0.000730	7.296496	1.236060	-0.000146
1267	1.2597e+02	-5.2185	9.755739	0.001074	10.742064	1.819755	-0.000215
1268	1.2607e+02	-5.2389	9.557919	0.000993	9.931342	1.682415	-0.000199
1269	1.2617e+02	-5.2588	9.368173	0.000953	9.525981	1.613745	-0.000191
1270	1.2627e+02	-5.2782	9.198614	0.000851	8.512579	1.442070	-0.000170
1271	1.2636e+02	-5.2980	9.004831	0.000973	9.728662	1.648080	-0.000195
1272	1.2646e+02	-5.3186	8.839309	0.000831	8.309898	1.407735	-0.000166
1273	1.2656e+02	-5.3375	8.613229	0.001135	11.350105	1.922760	-0.000227
1274	1.2666e+02	-5.3580	8.439632	0.000872	8.715259	1.476405	-0.000174
1275	1.2676e+02	-5.3790	8.286221	0.000770	7.701857	1.304730	-0.000154
1276	1.2686e+02	-5.3987	8.080327	0.001034	10.336703	1.751085	-0.000207
1277	1.2696e+02	-5.4181	7.858285	0.001115	11.147425	1.888425	-0.000223
1278	1.2706e+02	-5.4381	7.636242	0.001115	11.147425	1.888425	-0.000223
1279	1.2716e+02	-5.4574	7.450534	0.000932	9.323301	1.579410	-0.000187
1280	1.2726e+02	-5.4781	7.256751	0.000973	9.728662	1.648080	-0.000195
1281	1.2736e+02	-5.4975	7.103340	0.000770	7.701857	1.304730	-0.000154
1282	1.2746e+02	-5.5167	6.869186	0.001176	11.755466	1.991430	-0.000235
1283	1.2756e+02	-5.5374	6.691552	0.000892	8.917940	1.510740	-0.000179
1284	1.2766e+02	-5.5568	6.461436	0.001155	11.552786	1.957095	-0.000231
1285	1.2776e+02	-5.5779	6.259579	0.001013	10.134023	1.716750	-0.000203
1286	1.2786e+02	-5.5979	6.049648	0.001054	10.539383	1.785420	-0.000211
1287	1.2796e+02	-5.6178	5.827605	0.001115	11.147425	1.888425	-0.000223
1288	1.2806e+02	-5.6372	5.609600	0.001094	10.944744	1.854090	-0.000219
1289	1.2816e+02	-5.6567	5.460226	0.000750	7.499177	1.270395	-0.000150
1290	1.2826e+02	-5.6766	5.209924	0.001257	12.566188	2.128770	-0.000252
1291	1.2835e+02	-5.6970	5.020178	0.000953	9.525981	1.613745	-0.000191
1292	1.2845e+02	-5.7159	4.790062	0.001155	11.552786	1.957095	-0.000231
1293	1.2855e+02	-5.7372	4.604353	0.000932	9.323301	1.579410	-0.000187
1294	1.2865e+02	-5.7565	4.354051	0.001257	12.566188	2.128770	-0.000252
1295	1.2875e+02	-5.7770	4.168343	0.000932	9.323301	1.579410	-0.000187
1296	1.2885e+02	-5.7962	3.905929	0.001317	13.174229	2.231775	-0.000264
1297	1.2895e+02	-5.8160	3.748481	0.000790	7.904538	1.339065	-0.000158
1298	1.2905e+02	-5.8370	3.526438	0.001115	11.147425	1.888425	-0.000223
1299	1.2915e+02	-5.8563	3.304396	0.001115	11.147425	1.888425	-0.000223
1300	1.2925e+02	-5.8762	3.086390	0.001094	10.944744	1.854090	-0.000219
1301	1.2935e+02	-5.8965	2.860311	0.001135	11.350105	1.922760	-0.000227
1302	1.2945e+02	-5.9160	2.593860	0.001338	13.376910	2.266110	-0.000268
1303	1.2955e+02	-5.9358	2.392003	0.001013	10.134023	1.716750	-0.000203
1304	1.2965e+02	-5.9563	2.153812	0.001196	11.958147	2.025765	-0.000239
1305	1.2975e+02	-5.9753	1.923695	0.001155	11.552786	1.957095	-0.000231
1306	1.2985e+02	-5.9955	1.689541	0.001176	11.755466	1.991430	-0.000235
1307	1.2995e+02	-6.0152	1.467499	0.001115	11.147425	1.888425	-0.000223
1308	1.3005e+02	-6.0352	1.237382	0.001155	11.552786	1.957095	-0.000231
1309	1.3015e+02	-6.0553	1.059748	0.000892	8.917940	1.510740	-0.000179
1310	1.3025e+02	-6.0760	0.752926	0.001540	15.403714	2.609460	-0.000308
1311	1.3034e+02	-6.0965	0.526846	0.001135	11.350105	1.922760	-0.000227
1312	1.3044e+02	-6.1148	0.284618	0.001216	12.160827	2.060100	-0.000243
1313	1.3054e+02	-6.1340	0.010093	0.001378	13.782271	2.334780	-0.000276
1314	1.3064e+02	-6.1560	-0.179653	0.000953	9.525981	1.613745	-0.000191
1315	1.3074e+02	-6.1749	-0.446103	0.001338	13.376910	2.266110	-0.000268
1316	1.3084e+02	-6.1951	-0.736777	0.001459	14.592992	2.472120	-0.000292
1317	1.3094e+02	-6.2158	-0.934597	0.000993	9.931342	1.682415	-0.000199
1318	1.3104e+02	-6.2353	-1.205085	0.001358	13.579590	2.300445	-0.000272
1319	1.3114e+02	-6.2555	-1.471536	0.001338	13.376910	2.266110	-0.000268
1320	1.3124e+02	-6.2750	-1.685504	0.001074	10.742064	1.819755	-0.000215
1321	1.3134e+02	-6.2955	-1.923695	0.001196	11.958147	2.025765	-0.000239
1322	1.3144e+02	-6.3144	-2.202258	0.001398	13.984951	2.369115	-0.000280
1323	1.3154e+02	-6.3336	-2.464671	0.001317	13.174229	2.231775	-0.000264
1324	1.3164e+02	-6.3556	-2.714974	0.001257	12.566188	2.128770	-0.000252
1325	1.3174e+02	-6.3742	-2.945091	0.001155	11.552786	1.957095	-0.000231
1326	1.3184e+02	-6.3940	-3.219616	0.001378	13.782271	2.334780	-0.000276
1327	1.3194e+02	-6.4142	-3.502215	0.001419	14.187632	2.403450	-0.000284
1328	1.3204e+02	-6.4346	-3.744443	0.001216	12.160827	2.060100	-0.000243
1329	1.3214e+02	-6.4549	-4.018969	0.001378	13.782271	2.334780	-0.000276
1330	1.3224e+02	-6.4746	-4.281382	0.001317	13.174229	2.231775	-0.000264
1331	1.3234e+02	-6.4940	-4.551871	0.001358	13.579590	2.300445	-0.000272
1332	1.3243e+02	-6.5152	-4.838507	0.001439	14.390312	2.437785	-0.000288
1333	1.3253e+02	-6.5350	-5.088810	0.001257	12.566188	2.128770	-0.000252
1334	1.3263e+02	-6.5533	-5.359298	0.001358	13.579590	2.300445	-0.000272
1335	1.3273e+02	-6.5738	-5.686306	0.001642	16.417116	2.781135	-0.000329
1336	1.3283e+02	-6.5936	-5.944682	0.001297	12.971549	2.197440	-0.000260
1337	1.3293e+02	-6.6134	-6.211133	0.001338	13.376910	2.266110	-0.000268
1338	1.3303e+02	-6.6323	-6.513919	0.001520	15.201034	2.575125	-0.000304
1339	1.3313e+02	-6.6528	-6.760184	0.001236	12.363507	2.094435	-0.000248
1340	1.3323e+02	-6.6737	-7.062969	0.001520	15.201034	2.575125	-0.000304
1341	1.3333e+02	-6.6931	-7.353643	0.001459	14.592992	2.472120	-0.000292
1342	1.3343e+02	-6.7142	-7.648354	0.001480	14.795673	2.506455	-0.000296
1343	1.3353e+02	-6.7332	-7.926916	0.001398	13.984951	2.369115	-0.000280
1344	1.3363e+02	-6.7538	-8.278147	0.001763	17.633199	2.987145	-0.000353
1345	1.3373e+02	-6.7725	-8.508264	0.001155	11.552786	1.957095	-0.000231
1346	1.3383e+02	-6.7937	-8.839309	0.001662	16.619797	2.815470	-0.000333
1347	1.3393e+02	-6.8127	-9.134020	0.001480	14.795673	2.506455	-0.000296
1348	1.3403e+02	-6.8326	-9.396433	0.001317	13.174229	2.231775	-0.000264
1349	1.3413e+02	-6.8530	-9.727479	0.001662	16.619797	2.815470	-0.000333
1350	1.3423e+02	-6.8723	-9.997967	0.001358	13.579590	2.300445	-0.000272
1351	1.3432e+02	-6.8930	-10.320938	0.001621	16.214436	2.746800	-0.000325
1352	1.3442e+02	-6.9119	-10.635834	0.001581	15.809075	2.678130	-0.000316
1353	1.3452e+02	-6.9315	-10.938619	0.001520	15.201034	2.575125	-0.000304
1354	1.3462e+02	-6.9518	-11.237367	0.001500	14.998353	2.540790	-0.000300
1355	1.3472e+02	-6.9727	-11.556301	0.001601	16.011756	2.712465	-0.000321
1356	1.3482e+02	-6.9920	-11.851012	0.001480	14.795673	2.506455	-0.000296
1357	1.3492e+02	-7.0126	-12.161871	0.001561	15.606395	2.643795	-0.000312
1358	1.3502e+02	-7.0325	-12.505028	0.001723	17.227838	2.918475	-0.000345
1359	1.3512e+02	-7.0509	-12.807813	0.001520	15.201034	2.575125	-0.000304
1360	1.3522e+02	-7.0714	-13.134821	0.001642	16.417116	2.781135	-0.000329
1361	1.3532e+02	-7.0918	-13.469903	0.001682	16.822477	2.849805	-0.000337
1362	1.3542e+02	-7.1119	-13.760577	0.001459	14.592992	2.472120	-0.000292
1363	1.3552e+02	-7.1317	-14.095659	0.001682	16.822477	2.849805	-0.000337
1364	1.3562e+02	-7.1515	-14.418630	0.001621	16.214436	2.746800	-0.000325
1365	1.3572e+02	-7.1714	-14.725453	0.001540	15.403714	2.609460	-0.000308
1366	1.3582e+02	-7.1921	-15.084758	0.001804	18.038560	3.055815	-0.000361
1367	1.3592e+02	-7.2112	-15.419840	0.001682	16.822477	2.849805	-0.000337
1368	1.3602e+02	-7.2310	-15.726662	0.001540	15.403714	2.609460	-0.000308
1369	1.3612e+02	-7.2515	-16.090004	0.001824	18.241241	3.090150	-0.000365
1370	1.3622e+02	-7.2708	-16.429124	0.001703	17.025158	2.884140	-0.000341
1371	1.3631e+02	-7.2906	-16.780355	0.001763	17.633199	2.987145	-0.000353
1372	1.3641e+02	-7.3102	-17.135623	0.001784	17.835880	3.021480	-0.000357
1373	1.3651e+02	-7.3309	-17.438408	0.001520	15.201034	2.575125	-0.000304
1374	1.3661e+02	-7.3502	-17.797713	0.001804	18.038560	3.055815	-0.000361
1375	1.3671e+02	-7.3703	-18.140869	0.001723	17.227838	2.918475	-0.000345
1376	1.3681e+02	-7.3907	-18.508249	0.001844	18.443921	3.124485	-0.000369
1377	1.3691e+02	-7.4103	-18.895814	0.001946	19.457323	3.296160	-0.000390
1378	1.3701e+02	-7.4304	-19.243007	0.001743	17.430519	2.952810	-0.000349
1379	1.3711e+02	-7.4507	-19.570015	0.001642	16.417116	2.781135	-0.000329
1380	1.3721e+02	-7.4697	-19.921246	0.001763	17.633199	2.987145	-0.000353
1381	1.3731e+02	-7.4908	-20.292663	0.001865	18.646601	3.158820	-0.000373
1382	1.3741e+02	-7.5101	-20.696376	0.002027	20.268045	3.433500	-0.000406
1383	1.3751e+02	-7.5298	-21.023384	0.001642	16.417116	2.781135	-0.000329
1384	1.3761e+02	-7.5499	-21.386727	0.001824	18.241241	3.090150	-0.000365
1385	1.3771e+02	-7.5693	-21.733920	0.001743	17.430519	2.952810	-0.000349
1386	1.3781e+02	-7.5894	-22.129560	0.001986	19.862684	3.364830	-0.000398
1387	1.3791e+02	-7.6082	-22.517125	0.001946	19.457323	3.296160	-0.000390
1388	1.3801e+02	-7.6288	-22.888541	0.001865	18.646601	3.158820	-0.000373
1389	1.3811e+02	-7.6494	-23.215549	0.001642	16.417116	2.781135	-0.000329
1390	1.3821e+02	-7.6691	-23.639448	0.002128	21.281447	3.605175	-0.000426
1391	1.3831e+02	-7.6883	-24.047199	0.002047	20.470726	3.467835	-0.000410
1392	1.3840e+02	-7.7086	-24.438801	0.001966	19.660004	3.330495	-0.000394
1393	1.3850e+02	-7.7283	-24.834440	0.001986	19.862684	3.364830	-0.000398
1394	1.3860e+02	-7.7493	-25.213931	0.001905	19.051962	3.227490	-0.000381
1395	1.3870e+02	-7.7692	-25.609571	0.001986	19.862684	3.364830	-0.000398
1396	1.3880e+02	-7.7884	-26.013284	0.002027	20.268045	3.433500	-0.000406
1397	1.3890e+02	-7.8082	-26.372589	0.001804	18.038560	3.055815	-0.000361
1398	1.3900e+02	-7.8281	-26.772266	0.002007	20.065365	3.399165	-0.000402
1399	1.3910e+02	-7.8485	-27.184053	0.002067	20.673406	3.502170	-0.000414
1400	1.3920e+02	-7.8679	-27.595841	0.002067	20.673406	3.502170	-0.000414
1401	1.3930e+02	-7.8870	-27.999555	0.002027	20.268045	3.433500	-0.000406
1402	1.3940e+02	-7.9085	-28.435566	0.002189	21.889489	3.708180	-0.000438
1403	1.3950e+02	-7.9282	-28.855428	0.002108	21.078767	3.570840	-0.000422
1404	1.3960e+02	-7.9478	-29.214733	0.001804	18.038560	3.055815	-0.000361
1405	1.3970e+02	-7.9675	-29.634595	0.002108	21.078767	3.570840	-0.000422
1406	1.3980e+02	-7.9877	-30.066568	0.002169	21.686808	3.673845	-0.000434
1407	1.3990e+02	-8.0082	-30.474319	0.002047	20.470726	3.467835	-0.000410
1408	1.4000e+02	-8.0269	-30.894181	0.002108	21.078767	3.570840	-0.000422
1409	1.4010e+02	-8.0473	-31.362489	0.002351	23.510932	3.982860	-0.000471
1410	1.4020e+02	-8.0670	-31.794463	0.002169	21.686808	3.673845	-0.000434
1411	1.4029e+02	-8.0872	-32.230473	0.002189	21.889489	3.708180	-0.000438
1412	1.4039e+02	-8.1065	-32.630150	0.002007	20.065365	3.399165	-0.000402
1413	1.4049e+02	-8.1273	-33.130754	0.002513	25.132376	4.257540	-0.000503
1414	1.4059e+02	-8.1468	-33.502171	0.001865	18.646601	3.158820	-0.000373
1415	1.4069e+02	-8.1671	-33.990664	0.002452	24.524335	4.154535	-0.000491
1416	1.4079e+02	-8.1874	-34.402452	0.002067	20.673406	3.502170	-0.000414
1417	1.4089e+02	-8.2065	-34.866723	0.002331	23.308252	3.948525	-0.000467
1418	1.4099e+02	-8.2262	-35.318882	0.002270	22.700210	3.845520	-0.000454
1419	1.4109e+02	-8.2458	-35.779115	0.002311	23.105571	3.914190	-0.000463
1420	1.4119e+02	-8.2657	-36.247423	0.002351	23.510932	3.982860	-0.000471
1421	1.4129e+02	-8.2864	-36.675360	0.002148	21.484128	3.639510	-0.000430
1422	1.4139e+02	-8.3065	-37.123482	0.002250	22.497530	3.811185	-0.000450
1423	1.4149e+02	-8.3261	-37.628124	0.002534	25.335056	4.291875	-0.000507
1424	1.4159e+02	-8.3459	-38.064134	0.002189	21.889489	3.708180	-0.000438
1425	1.4169e+02	-8.3658	-38.556665	0.002473	24.727015	4.188870	-0.000495
1426	1.4179e+02	-8.3871	-39.016898	0.002311	23.105571	3.914190	-0.000463
1427	1.4189e+02	-8.4066	-39.521540	0.002534	25.335056	4.291875	-0.000507
1428	1.4199e+02	-8.4267	-39.989848	0.002351	23.510932	3.982860	-0.000471
1429	1.4209e+02	-8.4454	-40.494490	0.002534	25.335056	4.291875	-0.000507
1430	1.4219e+02	-8.4663	-40.991058	0.002493	24.929695	4.223205	-0.000499
1431	1.4228e+02	-8.4860	-41.459365	0.002351	23.510932	3.982860	-0.000471
1432	1.4238e+02	-8.5057	-41.980156	0.002615	26.145778	4.429215	-0.000523
1433	1.4248e+02	-8.5254	-42.472687	0.002473	24.727015	4.188870	-0.000495
1434	1.4258e+02	-8.5464	-42.973291	0.002513	25.132376	4.257540	-0.000503
1435	1.4268e+02	-8.5654	-43.453711	0.002412	24.118974	4.085865	-0.000483
1436	1.4278e+02	-8.5860	-43.994687	0.002716	27.159180	4.600890	-0.000544
1437	1.4288e+02	-8.6052	-44.499329	0.002534	25.335056	4.291875	-0.000507
1438	1.4298e+02	-8.6258	-45.048379	0.002756	27.564541	4.669560	-0.000552
1439	1.4308e+02	-8.6452	-45.544947	0.002493	24.929695	4.223205	-0.000499
1440	1.4318e+02	-8.6653	-46.089960	0.002736	27.361861	4.635225	-0.000548
1441	1.4328e+02	-8.6847	-46.586528	0.002493	24.929695	4.223205	-0.000499
1442	1.4338e+02	-8.7045	-47.147690	0.002817	28.172583	4.772565	-0.000564
1443	1.4348e+02	-8.7251	-47.656369	0.002554	25.537737	4.326210	-0.000511
1444	1.4358e+02	-8.7446	-48.197345	0.002716	27.159180	4.600890	-0.000544
1445	1.4368e+02	-8.7646	-48.766581	0.002858	28.577944	4.841235	-0.000572
1446	1.4378e+02	-8.7845	-49.291409	0.002635	26.348459	4.463550	-0.000527
1447	1.4388e+02	-8.8049	-49.824311	0.002675	26.753819	4.532220	-0.000536
1448	1.4398e+02	-8.8245	-50.385473	0.002817	28.172583	4.772565	-0.000564
1449	1.4408e+02	-8.8438	-50.954709	0.002858	28.577944	4.841235	-0.000572
1450	1.4418e+02	-8.8640	-51.499722	0.002736	27.361861	4.635225	-0.000548
1451	1.4428e+02	-8.8849	-52.040698	0.002716	27.159180	4.600890	-0.000544
1452	1.4437e+02	-8.9037	-52.702788	0.003324	33.239594	5.630940	-0.000665
1453	1.4447e+02	-8.9240	-53.223579	0.002615	26.145778	4.429215	-0.000523
1454	1.4457e+02	-8.9433	-53.817038	0.002979	29.794026	5.047245	-0.000596
1455	1.4467e+02	-8.9636	-54.406460	0.002959	29.591346	5.012910	-0.000592
1456	1.4477e+02	-8.9839	-54.967622	0.002817	28.172583	4.772565	-0.000564
1457	1.4487e+02	-9.0041	-55.565118	0.003000	29.996707	5.081580	-0.000600
1458	1.4497e+02	-9.0240	-56.178762	0.003081	30.807428	5.218920	-0.000617
1459	1.4507e+02	-9.0436	-56.760110	0.002919	29.185985	4.944240	-0.000584
1460	1.4517e+02	-9.0637	-57.353569	0.002979	29.794026	5.047245	-0.000596
1461	1.4527e+02	-9.0836	-57.971251	0.003101	31.010109	5.253255	-0.000621
1462	1.4537e+02	-9.1031	-58.613155	0.003223	32.226192	5.459265	-0.000645
1463	1.4547e+02	-9.1229	-59.186428	0.002878	28.780624	4.875570	-0.000576
1464	1.4557e+02	-9.1441	-59.800073	0.003081	30.807428	5.218920	-0.000617
1465	1.4567e+02	-9.1623	-60.405643	0.003040	30.402068	5.150250	-0.000609
1466	1.4577e+02	-9.1830	-61.067734	0.003324	33.239594	5.630940	-0.000665
1467	1.4587e+02	-9.2026	-61.673304	0.003040	30.402068	5.150250	-0.000609
1468	1.4597e+02	-9.2231	-62.319246	0.003243	32.428872	5.493600	-0.000649
1469	1.4607e+02	-9.2429	-62.981336	0.003324	33.239594	5.630940	-0.000665
1470	1.4617e+02	-9.2624	-63.619204	0.003202	32.023511	5.424930	-0.000641
1471	1.4626e+02	-9.2828	-64.273220	0.003283	32.834233	5.562270	-0.000657
1472	1.4636e+02	-9.3028	-64.935310	0.003324	33.239594	5.630940	-0.000665
1473	1.4646e+02	-9.3213	-65.573177	0.003202	32.023511	5.424930	-0.000641
1474	1.4656e+02	-9.3427	-66.235267	0.003324	33.239594	5.630940	-0.000665
1475	1.4666e+02	-9.3620	-66.905432	0.003364	33.644955	5.699610	-0.000674
1476	1.4676e+02	-9.3822	-67.595782	0.003466	34.658357	5.871285	-0.000694
1477	1.4686e+02	-9.4020	-68.298244	0.003527	35.266398	5.974290	-0.000706
1478	1.4696e+02	-9.4214	-68.968408	0.003364	33.644955	5.699610	-0.000674
1479	1.4706e+02	-9.4418	-69.642610	0.003385	33.847635	5.733945	-0.000678
1480	1.4716e+02	-9.4614	-70.357183	0.003587	35.874440	6.077295	-0.000718
1481	1.4726e+02	-9.4806	-71.063682	0.003547	35.469079	6.008625	-0.000710
1482	1.4736e+02	-9.5015	-71.758069	0.003486	34.861037	5.905620	-0.000698
1483	1.4746e+02	-9.5218	-72.492828	0.003689	36.887842	6.248970	-0.000738
1484	1.4756e+02	-9.5425	-73.215475	0.003628	36.279801	6.145965	-0.000726
1485	1.4766e+02	-9.5621	-73.913900	0.003506	35.063718	5.939955	-0.000702
1486	1.4776e+02	-9.5811	-74.684993	0.003871	38.711966	6.557985	-0.000775
1487	1.4786e+02	-9.6014	-75.363231	0.003405	34.050316	5.768280	-0.000682
1488	1.4796e+02	-9.6213	-76.138361	0.003891	38.914646	6.592320	-0.000779
1489	1.4806e+02	-9.6399	-76.856972	0.003608	36.077120	6.111630	-0.000722
1490	1.4816e+02	-9.6611	-77.628065	0.003871	38.711966	6.557985	-0.000775
1491	1.4825e+02	-9.6814	-78.415306	0.003952	39.522688	6.695325	-0.000791
1492	1.4835e+02	-9.7003	-79.166213	0.003770	37.698564	6.386310	-0.000755
1493	1.4845e+02	-9.7208	-79.953455	0.003952	39.522688	6.695325	-0.000791
1494	1.4855e+02	-9.7411	-80.696288	0.003729	37.293203	6.317640	-0.000747
1495	1.4865e+02	-9.7610	-81.471418	0.003891	38.914646	6.592320	-0.000779
1496	1.4875e+02	-9.7797	-82.266734	0.003993	39.928049	6.763995	-0.000799
1497	1.4885e+02	-9.8000	-83.066086	0.004013	40.130729	6.798330	-0.000803
1498	1.4895e+02	-9.8203	-83.861402	0.003993	39.928049	6.763995	-0.000799
1499	1.4905e+02	-9.8399	-84.676904	0.004094	40.941451	6.935670	-0.000820
1500	1.4915e+02	-9.8593	-85.472219	0.003993	39.928049	6.763995	-0.000799
1501	1.4925e+02	-9.8802	-86.307906	0.004195	41.954853	7.107345	-0.000840
1502	1.4935e+02	-9.8997	-87.200113	0.004479	44.792380	7.588035	-0.000897
1503	1.4945e+02	-9.9200	-87.975243	0.003891	38.914646	6.592320	-0.000779
1504	1.4955e+02	-9.9399	-88.810931	0.004195	41.954853	7.107345	-0.000840
1505	1.4965e+02	-9.9594	-89.674878	0.004337	43.373616	7.347690	-0.000868
1506	1.4975e+02	-9.9806	-90.546899	0.004378	43.778977	7.416360	-0.000876
1507	1.4985e+02	-9.9994	-91.439106	0.004479	44.792380	7.588035	-0.000897
1508	1.4995e+02	-9.9800	-92.032565	-0.002979	-29.794026	-5.047245	-0.000596
1509	1.5005e+02	-9.9591	-92.706767	-0.003385	-33.847635	-5.733945	-0.000678
1510	1.5015e+02	-9.9400	-93.239668	-0.002675	-26.753819	-4.532220	-0.000536
1511	1.5025e+02	-9.9196	-93.792756	-0.002777	-27.767222	-4.703895	-0.000556
1512	1.5034e+02	-9.8994	-94.333732	-0.002716	-27.159180	-4.600890	-0.000544
1513	1.5044e+02	-9.8795	-94.818189	-0.002432	-24.321654	-4.120200	-0.000487
1514	1.5054e+02	-9.8599	-95.355128	-0.002696	-26.956500	-4.566555	-0.000540
1515	1.5064e+02	-9.8404	-95.774990	-0.002108	-21.078767	-3.570840	-0.000422
1516	1.5074e+02	-9.8196	-96.251372	-0.002392	-23.916293	-4.051530	-0.000479
1517	1.5084e+02	-9.8010	-96.679308	-0.002148	-21.484128	-3.639510	-0.000430
1518	1.5094e+02	-9.7821	-97.030539	-0.001763	-17.633199	-2.987145	-0.000353
1519	1.5104e+02	-9.7620	-97.414067	-0.001925	-19.254643	-3.261825	-0.000385
1520	1.5114e+02	-9.7412	-97.805669	-0.001966	-19.660004	-3.330495	-0.000394
1521	1.5124e+02	-9.7204	-98.164974	-0.001804	-18.038560	-3.055815	-0.000361
1522	1.5134e+02	-9.6997	-98.524279	-0.001804	-18.038560	-3.055815	-0.000361
1523	1.5144e+02	-9.6812	-98.899733	-0.001885	-18.849282	-3.193155	-0.000377
1524	1.5154e+02	-9.6617	-99.210592	-0.001561	-15.606395	-2.643795	-0.000312
1525	1.5164e+02	-9.6407	-99.505303	-0.001480	-14.795673	-2.506455	-0.000296
1526	1.5174e+02	-9.6204	-99.824237	-0.001601	-16.011756	-2.712465	-0.000321
1527	1.5184e+02	-9.6013	-100.114911	-0.001459	-14.592992	-2.472120	-0.000292
1528	1.5194e+02	-9.5818	-100.429807	-0.001581	-15.809075	-2.678130	-0.000316
1529	1.5204e+02	-9.5615	-100.659924	-0.001155	-11.552786	-1.957095	-0.000231
1530	1.5214e+02	-9.5410	-100.926375	-0.001338	-13.376910	-2.266110	-0.000268
1531	1.5224e+02	-9.5227	-101.188789	-0.001317	-13.174229	-2.231775	-0.000264
1532	1.5233e+02	-9.5018	-101.459277	-0.001358	-13.579590	-2.300445	-0.000272
1533	1.5243e+02	-9.4810	-101.669208	-0.001054	-10.539383	-1.785420	-0.000211
1534	1.5253e+02	-9.4617	-101.887213	-0.001094	-10.944744	-1.854090	-0.000219
1535	1.5263e+02	-9.4415	-102.137516	-0.001257	-12.566188	-2.128770	-0.000252
1536	1.5273e+02	-9.4218	-102.323224	-0.000932	-9.323301	-1.579410	-0.000187
1537	1.5283e+02	-9.4014	-102.581601	-0.001297	-12.971549	-2.197440	-0.000260
1538	1.5293e+02	-9.3814	-102.759235	-0.000892	-8.917940	-1.510740	-0.000179
1539	1.5303e+02	-9.3613	-102.940906	-0.000912	-9.120620	-1.545075	-0.000183
1540	1.5313e+02	-9.3411	-103.106428	-0.000831	-8.309898	-1.407735	-0.000166
1541	1.5323e+02	-9.3216	-103.308285	-0.001013	-10.134023	-1.716750	-0.000203
1542	1.5333e+02	-9.3031	-103.461696	-0.000770	-7.701857	-1.304730	-0.000154
1543	1.5343e+02	-9.2831	-103.639330	-0.000892	-8.917940	-1.510740	-0.000179
1544	1.5353e+02	-9.2622	-103.776593	-0.000689	-6.891135	-1.167390	-0.000138
1545	1.5363e+02	-9.2416	-103.930004	-0.000770	-7.701857	-1.304730	-0.000154
1546	1.5373e+02	-9.2218	-104.055155	-0.000628	-6.283094	-1.064385	-0.000126
1547	1.5383e+02	-9.2030	-104.208566	-0.000770	-7.701857	-1.304730	-0.000154
1548	1.5393e+02	-9.1824	-104.370052	-0.000811	-8.107218	-1.373400	-0.000162
1549	1.5403e+02	-9.1628	-104.470980	-0.000507	-5.067011	-0.858375	-0.000101
1550	1.5413e+02	-9.1435	-104.604206	-0.000669	-6.688455	-1.133055	-0.000134
1551	1.5422e+02	-9.1232	-104.733394	-0.000649	-6.485774	-1.098720	-0.000130
1552	1.5432e+02	-9.1037	-104.818174	-0.000426	-4.256289	-0.721035	-0.000085
1553	1.5442e+02	-9.0836	-104.983696	-0.000831	-8.309898	-1.407735	-0.000166
1554	1.5452e+02	-9.0631	-105.100773	-0.000588	-5.877733	-0.995715	-0.000118
1555	1.5462e+02	-9.0430	-105.173442	-0.000365	-3.648248	-0.618030	-0.000073
1556	1.5472e+02	-9.0234	-105.233999	-0.000304	-3.040207	-0.515025	-0.000061
1557	1.5482e+02	-9.0042	-105.355113	-0.000608	-6.080414	-1.030050	-0.000122
1558	1.5492e+02	-8.9832	-105.431818	-0.000385	-3.850929	-0.652365	-0.000077
1559	1.5502e+02	-8.9629	-105.552932	-0.000608	-6.080414	-1.030050	-0.000122
1560	1.5512e+02	-8.9433	-105.589267	-0.000182	-1.824124	-0.309015	-0.000037
1561	1.5522e+02	-8.9232	-105.621564	-0.000162	-1.621444	-0.274680	-0.000032
1562	1.5532e+02	-8.9040	-105.738641	-0.000588	-5.877733	-0.995715	-0.000118
1563	1.5542e+02	-8.8834	-105.811309	-0.000365	-3.648248	-0.618030	-0.000073
1564	1.5552e+02	-8.8635	-105.831495	-0.000101	-1.013402	-0.171675	-0.000020
1565	1.5562e+02	-8.8443	-105.944535	-0.000568	-5.675053	-0.961380	-0.000114
1566	1.5572e+02	-8.8248	-105.952609	-0.000041	-0.405361	-0.068670	-0.000008
1567	1.5582e+02	-8.8040	-106.009129	-0.000284	-2.837526	-0.480690	-0.000057
1568	1.5592e+02	-8.7837	-106.069686	-0.000304	-3.040207	-0.515025	-0.000061
1569	1.5602e+02	-8.7651	-106.146391	-0.000385	-3.850929	-0.652365	-0.000077
1570	1.5612e+02	-8.7447	-106.122169	0.000122	1.216083	0.206010	0.000024
1571	1.5622e+02	-8.7256	-106.190800	-0.000345	-3.445568	-0.583695	-0.000069
1572	1.5631e+02	-8.7048	-106.227134	-0.000182	-1.824124	-0.309015	-0.000037
1573	1.5641e+02	-8.6860	-106.235208	-0.000041	-0.405361	-0.068670	-0.000008
1574	1.5651e+02	-8.6652	-106.279617	-0.000223	-2.229485	-0.377685	-0.000045
1575	1.5661e+02	-8.6446	-106.340174	-0.000304	-3.040207	-0.515025	-0.000061
1576	1.5671e+02	-8.6258	-106.336137	0.000020	0.202680	0.034335	0.000004
1577	1.5681e+02	-8.6050	-106.368434	-0.000162	-1.621444	-0.274680	-0.000032
1578	1.5691e+02	-8.5857	-106.372471	-0.000020	-0.202680	-0.034335	-0.000004
1579	1.5701e+02	-8.5657	-106.392657	-0.000101	-1.013402	-0.171675	-0.000020
1580	1.5711e+02	-8.5454	-106.416879	-0.000122	-1.216083	-0.206010	-0.000024
1581	1.5721e+02	-8.5257	-106.420917	-0.000020	-0.202680	-0.034335	-0.000004
1582	1.5731e+02	-8.5053	-106.388620	0.000162	1.621444	0.274680	0.000032
1583	1.5741e+02	-8.4850	-106.420917	-0.000162	-1.621444	-0.274680	-0.000032
1584	1.5751e+02	-8.4653	-106.408805	0.000061	0.608041	0.103005	0.000012
1585	1.5761e+02	-8.4457	-106.392657	0.000081	0.810722	0.137340	0.000016
1586	1.5771e+02	-8.4261	-106.408805	-0.000081	-0.810722	-0.137340	-0.000016
1587	1.5781e+02	-8.4064	-106.384582	0.000122	1.216083	0.206010	0.000024
1588	1.5791e+02	-8.3862	-106.384582	0.000000	0.000000	0.000000	0.000000
1589	1.5801e+02	-8.3655	-106.360360	0.000122	1.216083	0.206010	0.000024
1590	1.5811e+02	-8.3468	-106.372471	-0.000061	-0.608041	-0.103005	-0.000012
1591	1.5821e+02	-8.3261	-106.364397	0.000041	0.405361	0.068670	0.000008
1592	1.5830e+02	-8.3075	-106.344211	0.000101	1.013402	0.171675	0.000020
1593	1.5840e+02	-8.2864	-106.315951	0.000142	1.418763	0.240345	0.000028
1594	1.5850e+02	-8.2661	-106.271543	0.000223	2.229485	0.377685	0.000045
1595	1.5860e+02	-8.2462	-106.259431	0.000061	0.608041	0.103005	0.000012
1596	1.5870e+02	-8.2272	-106.227134	0.000162	1.621444	0.274680	0.000032
1597	1.5880e+02	-8.2071	-106.198874	0.000142	1.418763	0.240345	0.000028
1598	1.5890e+02	-8.1866	-106.198874	0.000000	0.000000	0.000000	0.000000
1599	1.5900e+02	-8.1668	-106.166577	0.000162	1.621444	0.274680	0.000032
1600	1.5910e+02	-8.1468	-106.138317	0.000142	1.418763	0.240345	0.000028
1601	1.5920e+02	-8.1274	-106.110057	0.000142	1.418763	0.240345	0.000028
1602	1.5930e+02	-8.1068	-106.069686	0.000203	2.026805	0.343350	0.000041
1603	1.5940e+02	-8.0875	-106.069686	0.000000	0.000000	0.000000	0.000000
1604	1.5950e+02	-8.0670	-106.001055	0.000345	3.445568	0.583695	0.000069
1605	1.5960e+02	-8.0473	-105.980869	0.000101	1.013402	0.171675	0.000020
1606	1.5970e+02	-8.0284	-105.896089	0.000426	4.256289	0.721035	0.000085
1607	1.5980e+02	-8.0078	-105.875903	0.000101	1.013402	0.171675	0.000020
1608	1.5990e+02	-7.9877	-105.835532	0.000203	2.026805	0.343350	0.000041
1609	1.6000e+02	-7.9680	-105.827458	0.000041	0.405361	0.068670	0.000008
1610	1.6010e+02	-7.9480	-105.766901	0.000304	3.040207	0.515025	0.000061
1611	1.6019e+02	-7.9274	-105.694232	0.000365	3.648248	0.618030	0.000073
1612	1.6029e+02	-7.9068	-105.661935	0.000162	1.621444	0.274680	0.000032
1613	1.6039e+02	-7.8885	-105.609452	0.000263	2.634846	0.446355	0.000053
1614	1.6049e+02	-7.8677	-105.593304	0.000081	0.810722	0.137340	0.000016
1615	1.6059e+02	-7.8477	-105.512561	0.000405	4.053609	0.686700	0.000081
1616	1.6069e+02	-7.8283	-105.472190	0.000203	2.026805	0.343350	0.000041
1617	1.6079e+02	-7.8094	-105.391447	0.000405	4.053609	0.686700	0.000081
1618	1.6089e+02	-7.7896	-105.359150	0.000162	1.621444	0.274680	0.000032
1619	1.6099e+02	-7.7673	-105.355113	0.000020	0.202680	0.034335	0.000004
1620	1.6109e+02	-7.7481	-105.278407	0.000385	3.850929	0.652365	0.000077
1621	1.6119e+02	-7.7284	-105.201702	0.000385	3.850929	0.652365	0.000077
1622	1.6129e+02	-7.7084	-105.165367	0.000182	1.824124	0.309015	0.000037
1623	1.6139e+02	-7.6888	-105.088662	0.000385	3.850929	0.652365	0.000077
1624	1.6149e+02	-7.6689	-105.024068	0.000324	3.242887	0.549360	0.000065
1625	1.6159e+02	-7.6482	-104.983696	0.000203	2.026805	0.343350	0.000041
1626	1.6169e+02	-7.6288	-104.919102	0.000324	3.242887	0.549360	0.000065
1627	1.6179e+02	-7.6099	-104.882768	0.000182	1.824124	0.309015	0.000037
1628	1.6189e+02	-7.5888	-104.806062	0.000385	3.850929	0.652365	0.000077
1629	1.6199e+02	-7.5699	-104.729357	0.000385	3.850929	0.652365	0.000077
1630	1.6209e+02	-7.5491	-104.688985	0.000203	2.026805	0.343350	0.000041
1631	1.6219e+02	-7.5296	-104.608243	0.000405	4.053609	0.686700	0.000081
1632	1.6228e+02	-7.5095	-104.559797	0.000243	2.432165	0.412020	0.000049
1633	1.6238e+02	-7.4914	-104.507314	0.000263	2.634846	0.446355	0.000053
1634	1.6248e+02	-7.4695	-104.434646	0.000365	3.648248	0.618030	0.000073
1635	1.6258e+02	-7.4511	-104.390237	0.000223	2.229485	0.377685	0.000045
1636	1.6268e+02	-7.4306	-104.313532	0.000385	3.850929	0.652365	0.000077
1637	1.6278e+02	-7.4096	-104.212603	0.000507	5.067011	0.858375	0.000101
1638	1.6288e+02	-7.3900	-104.168195	0.000223	2.229485	0.377685	0.000045
1639	1.6298e+02	-7.3698	-104.083415	0.000426	4.256289	0.721035	0.000085
1640	1.6308e+02	-7.3511	-104.030932	0.000263	2.634846	0.446355	0.000053
1641	1.6318e+02	-7.3308	-103.962301	0.000345	3.445568	0.583695	0.000069
1642	1.6328e+02	-7.3108	-103.885595	0.000385	3.850929	0.652365	0.000077
1643	1.6338e+02	-7.2913	-103.792741	0.000466	4.661650	0.789705	0.000093
1644	1.6348e+02	-7.2717	-103.711999	0.000405	4.053609	0.686700	0.000081
1645	1.6358e+02	-7.2510	-103.671627	0.000203	2.026805	0.343350	0.000041
1646	1.6368e+02	-7.2305	-103.574736	0.000486	4.864331	0.824040	0.000097
1647	1.6378e+02	-7.2107	-103.493993	0.000405	4.053609	0.686700	0.000081
1648	1.6388e+02	-7.1906	-103.465733	0.000142	1.418763	0.240345	0.000028
1649	1.6398e+02	-7.1713	-103.372879	0.000466	4.661650	0.789705	0.000093
1650	1.6408e+02	-7.1518	-103.320396	0.000263	2.634846	0.446355	0.000053
1651	1.6418e+02	-7.1320	-103.195245	0.000628	6.283094	1.064385	0.000126
1652	1.6427e+02	-7.1118	-103.146800	0.000243	2.432165	0.412020	0.000049
1653	1.6437e+02	-7.0922	-103.033760	0.000568	5.675053	0.961380	0.000114
1654	1.6447e+02	-7.0709	-103.005500	0.000142	1.418763	0.240345	0.000028
1655	1.6457e+02	-7.0518	-102.928794	0.000385	3.850929	0.652365	0.000077
1656	1.6467e+02	-7.0311	-102.803643	0.000628	6.283094	1.064385	0.000126
1657	1.6477e+02	-7.0117	-102.726937	0.000385	3.850929	0.652365	0.000077
1658	1.6487e+02	-6.9922	-102.666380	0.000304	3.040207	0.515025	0.000061
1659	1.6497e+02	-6.9724	-102.565452	0.000507	5.067011	0.858375	0.000101
1660	1.6507e+02	-6.9519	-102.533155	0.000162	1.621444	0.274680	0.000032
1661	1.6517e+02	-6.9318	-102.472598	0.000304	3.040207	0.515025	0.000061
1662	1.6527e+02	-6.9122	-102.363595	0.000547	5.472372	0.927045	0.000110
1663	1.6537e+02	-6.8918	-102.278815	0.000426	4.256289	0.721035	0.000085
1664	1.6547e+02	-6.8719	-102.214221	0.000324	3.242887	0.549360	0.000065
1665	1.6557e+02	-6.8524	-102.121367	0.000466	4.661650	0.789705	0.000093
1666	1.6567e+02	-6.8326	-102.064847	0.000284	2.837526	0.480690	0.000057
1667	1.6577e+02	-6.8132	-102.012364	0.000263	2.634846	0.446355	0.000053
1668	1.6587e+02	-6.7931	-101.895287	0.000588	5.877733	0.995715	0.000118
1669	1.6597e+02	-6.7725	-101.838768	0.000284	2.837526	0.480690	0.000057
1670	1.6607e+02	-6.7529	-101.725728	0.000568	5.675053	0.961380	0.000114
1671	1.6616e+02	-6.7323	-101.640948	0.000426	4.256289	0.721035	0.000085
1672	1.6626e+02	-6.7136	-101.552131	0.000446	4.458970	0.755370	0.000089
1673	1.6636e+02	-6.6928	-101.523871	0.000142	1.418763	0.240345	0.000028
1674	1.6646e+02	-6.6730	-101.422943	0.000507	5.067011	0.858375	0.000101
1675	1.6656e+02	-6.6525	-101.309903	0.000568	5.675053	0.961380	0.000114
1676	1.6666e+02	-6.6336	-101.237234	0.000365	3.648248	0.618030	0.000073
1677	1.6676e+02	-6.6132	-101.184752	0.000263	2.634846	0.446355	0.000053
1678	1.6686e+02	-6.5936	-101.075749	0.000547	5.472372	0.927045	0.000110
1679	1.6696e+02	-6.5737	-101.011155	0.000324	3.242887	0.549360	0.000065
1680	1.6706e+02	-6.5536	-100.902152	0.000547	5.472372	0.927045	0.000110
1681	1.6716e+02	-6.5340	-100.817372	0.000426	4.256289	0.721035	0.000085
1682	1.6726e+02	-6.5137	-100.736630	0.000405	4.053609	0.686700	0.000081
1683	1.6736e+02	-6.4937	-100.615515	0.000608	6.080414	1.030050	0.000122
1684	1.6746e+02	-6.4728	-100.550921	0.000324	3.242887	0.549360	0.000065
1685	1.6756e+02	-6.4542	-100.470179	0.000405	4.053609	0.686700	0.000081
1686	1.6766e+02	-6.4343	-100.373287	0.000486	4.864331	0.824040	0.000097
1687	1.6776e+02	-6.4136	-100.288507	0.000426	4.256289	0.721035	0.000085
1688	1.6786e+02	-6.3943	-100.240062	0.000243	2.432165	0.412020	0.000049
1689	1.6796e+02	-6.3742	-100.155282	0.000426	4.256289	0.721035	0.000085
1690	1.6806e+02	-6.3549	-100.042242	0.000568	5.675053	0.961380	0.000114
1691	1.6816e+02	-6.3342	-99.953425	0.000446	4.458970	0.755370	0.000089
1692	1.6825e+02	-6.3145	-99.864608	0.000446	4.458970	0.755370	0.000089
1693	1.6835e+02	-6.2949	-99.767717	0.000486	4.864331	0.824040	0.000097
1694	1.6845e+02	-6.2755	-99.674863	0.000466	4.661650	0.789705	0.000093
1695	1.6855e+02	-6.2553	-99.582009	0.000466	4.661650	0.789705	0.000093
1696	1.6865e+02	-6.2354	-99.460895	0.000608	6.080414	1.030050	0.000122
1697	1.6875e+02	-6.2154	-99.347855	0.000568	5.675053	0.961380	0.000114
1698	1.6885e+02	-6.1955	-99.291335	0.000284	2.837526	0.480690	0.000057
1699	1.6895e+02	-6.1749	-99.170221	0.000608	6.080414	1.030050	0.000122
1700	1.6905e+02	-6.1548	-99.097552	0.000365	3.648248	0.618030	0.000073
1701	1.6915e+02	-6.1356	-99.012773	0.000426	4.256289	0.721035	0.000085
1702	1.6925e+02	-6.1157	-98.883584	0.000649	6.485774	1.098720	0.000130
1703	1.6935e+02	-6.0954	-98.818990	0.000324	3.242887	0.549360	0.000065
1704	1.6945e+02	-6.0760	-98.734210	0.000426	4.256289	0.721035	0.000085
1705	1.6955e+02	-6.0553	-98.641356	0.000466	4.661650	0.789705	0.000093
1706	1.6965e+02	-6.0349	-98.556576	0.000426	4.256289	0.721035	0.000085
1707	1.6975e+02	-6.0149	-98.455648	0.000507	5.067011	0.858375	0.000101
1708	1.6985e+02	-5.9966	-98.346645	0.000547	5.472372	0.927045	0.000110
1709	1.6995e+02	-5.9758	-98.253791	0.000466	4.661650	0.789705	0.000093
1710	1.7005e+02	-5.9563	-98.136714	0.000588	5.877733	0.995715	0.000118
1711	1.7015e+02	-5.9360	-98.068083	0.000345	3.445568	0.583695	0.000069
1712	1.7024e+02	-5.9164	-97.995414	0.000365	3.648248	0.618030	0.000073
1713	1.7034e+02	-5.8961	-97.862189	0.000669	6.688455	1.133055	0.000134
1714	1.7044e+02	-5.8762	-97.749149	0.000568	5.675053	0.961380	0.000114
1715	1.7054e+02	-5.8566	-97.668406	0.000405	4.053609	0.686700	0.000081
1716	1.7064e+02	-5.8362	-97.579589	0.000446	4.458970	0.755370	0.000089
1717	1.7074e+02	-5.8169	-97.466550	0.000568	5.675053	0.961380	0.000114
1718	1.7084e+02	-5.7962	-97.389844	0.000385	3.850929	0.652365	0.000077
1719	1.7094e+02	-5.7766	-97.272767	0.000588	5.877733	0.995715	0.000118
1720	1.7104e+02	-5.7565	-97.208173	0.000324	3.242887	0.549360	0.000065
1721	1.7114e+02	-5.7375	-97.095133	0.000568	5.675053	0.961380	0.000114
1722	1.7124e+02	-5.7175	-97.002279	0.000466	4.661650	0.789705	0.000093
1723	1.7134e+02	-5.6974	-96.885202	0.000588	5.877733	0.995715	0.000118
1724	1.7144e+02	-5.6776	-96.800422	0.000426	4.256289	0.721035	0.000085
1725	1.7154e+02	-5.6564	-96.667197	0.000669	6.688455	1.133055	0.000134
1726	1.7164e+02	-5.6375	-96.566268	0.000507	5.067011	0.858375	0.000101
1727	1.7174e+02	-5.6177	-96.497637	0.000345	3.445568	0.583695	0.000069
1728	1.7184e+02	-5.5978	-96.404783	0.000466	4.661650	0.789705	0.000093
1729	1.7194e+02	-5.5769	-96.283669	0.000608	6.080414	1.030050	0.000122
1730	1.7204e+02	-5.5581	-96.198889	0.000426	4.256289	0.721035	0.000085
1731	1.7213e+02	-5.5382	-96.097961	0.000507	5.067011	0.858375	0.000101
1732	1.7223e+02	-5.5167	-95.997032	0.000507	5.067011	0.858375	0.000101
1733	1.7233e+02	-5.4974	-95.908215	0.000446	4.458970	0.755370	0.000089
1734	1.7243e+02	-5.4776	-95.791138	0.000588	5.877733	0.995715	0.000118
1735	1.7253e+02	-5.4578	-95.678098	0.000568	5.675053	0.961380	0.000114
1736	1.7263e+02	-5.4376	-95.597356	0.000405	4.053609	0.686700	0.000081
1737	1.7273e+02	-5.4178	-95.464130	0.000669	6.688455	1.133055	0.000134
1738	1.7283e+02	-5.3984	-95.367239	0.000486	4.864331	0.824040	0.000097
1739	1.7293e+02	-5.3784	-95.250162	0.000588	5.877733	0.995715	0.000118
1740	1.7303e+02	-5.3581	-95.197679	0.000263	2.634846	0.446355	0.000053
1741	1.7313e+02	-5.3381	-95.052342	0.000730	7.296496	1.236060	0.000146
1742	1.7323e+02	-5.3185	-94.991785	0.000304	3.040207	0.515025	0.000061
1743	1.7333e+02	-5.2988	-94.822226	0.000851	8.512579	1.442070	0.000170
1744	1.7343e+02	-5.2780	-94.729372	0.000466	4.661650	0.789705	0.000093
1745	1.7353e+02	-5.2582	-94.644592	0.000426	4.256289	0.721035	0.000085
1746	1.7363e+02	-5.2377	-94.479069	0.000831	8.309898	1.407735	0.000166
1747	1.7373e+02	-5.2188	-94.390252	0.000446	4.458970	0.755370	0.000089
1748	1.7383e+02	-5.1985	-94.293361	0.000486	4.864331	0.824040	0.000097
1749	1.7393e+02	-5.1795	-94.160135	0.000669	6.688455	1.133055	0.000134
1750	1.7403e+02	-5.1584	-94.059207	0.000507	5.067011	0.858375	0.000101
1751	1.7413e+02	-5.1398	-93.958279	0.000507	5.067011	0.858375	0.000101
1752	1.7422e+02	-5.1189	-93.825053	0.000669	6.688455	1.133055	0.000134
1753	1.7432e+02	-5.0987	-93.732199	0.000466	4.661650	0.789705	0.000093
1754	1.7442e+02	-5.0793	-93.639345	0.000466	4.661650	0.789705	0.000093
1755	1.7452e+02	-5.0589	-93.489971	0.000750	7.499177	1.270395	0.000150
1756	1.7462e+02	-5.0402	-93.393080	0.000486	4.864331	0.824040	0.000097
1757	1.7472e+02	-5.0189	-93.263891	0.000649	6.485774	1.098720	0.000130
1758	1.7482e+02	-4.9988	-93.162963	0.000507	5.067011	0.858375	0.000101
1759	1.7492e+02	-4.9799	-93.045886	0.000588	5.877733	0.995715	0.000118
1760	1.7502e+02	-4.9610	-92.961106	0.000426	4.256289	0.721035	0.000085
1761	1.7512e+02	-4.9399	-92.856141	0.000527	5.269692	0.892710	0.000105
1762	1.7522e+02	-4.9213	-92.714841	0.000709	7.093816	1.201725	0.000142
1763	1.7532e+02	-4.8997	-92.613912	0.000507	5.067011	0.858375	0.000101
1764	1.7542e+02	-4.8794	-92.529133	0.000426	4.256289	0.721035	0.000085
1765	1.7552e+02	-4.8604	-92.399944	0.000649	6.485774	1.098720	0.000130
1766	1.7562e+02	-4.8401	-92.258644	0.000709	7.093816	1.201725	0.000142
1767	1.7572e+02	-4.8199	-92.190013	0.000345	3.445568	0.583695	0.000069
1768	1.7582e+02	-4.7998	-92.044676	0.000730	7.296496	1.236060	0.000146
1769	1.7592e+02	-4.7803	-91.931636	0.000568	5.675053	0.961380	0.000114
1770	1.7602e+02	-4.7607	-91.834745	0.000486	4.864331	0.824040	0.000097
1771	1.7612e+02	-4.7406	-91.705557	0.000649	6.485774	1.098720	0.000130
1772	1.7621e+02	-4.7206	-91.596554	0.000547	5.472372	0.927045	0.000110
1773	1.7631e+02	-4.7003	-91.459292	0.000689	6.891135	1.167390	0.000138
1774	1.7641e+02	-4.6805	-91.342215	0.000588	5.877733	0.995715	0.000118
1775	1.7651e+02	-4.6600	-91.204952	0.000689	6.891135	1.167390	0.000138
1776	1.7661e+02	-4.6413	-91.136321	0.000345	3.445568	0.583695	0.000069
1777	1.7671e+02	-4.6211	-91.007132	0.000649	6.485774	1.098720	0.000130
1778	1.7681e+02	-4.6014	-90.902167	0.000527	5.269692	0.892710	0.000105
1779	1.7691e+02	-4.5809	-90.797201	0.000527	5.269692	0.892710	0.000105
1780	1.7701e+02	-4.5602	-90.643790	0.000770	7.701857	1.304730	0.000154
1781	1.7711e+02	-4.5409	-90.530750	0.000568	5.675053	0.961380	0.000114
1782	1.7721e+02	-4.5227	-90.437896	0.000466	4.661650	0.789705	0.000093
1783	1.7731e+02	-4.5016	-90.369265	0.000345	3.445568	0.583695	0.000069
1784	1.7741e+02	-4.4812	-90.244114	0.000628	6.283094	1.064385	0.000126
1785	1.7751e+02	-4.4611	-90.106851	0.000689	6.891135	1.167390	0.000138
1786	1.7761e+02	-4.4408	-89.977663	0.000649	6.485774	1.098720	0.000130
1787	1.7771e+02	-4.4218	-89.856549	0.000608	6.080414	1.030050	0.000122
1788	1.7781e+02	-4.4014	-89.735435	0.000608	6.080414	1.030050	0.000122
1789	1.7791e+02	-4.3814	-89.646618	0.000446	4.458970	0.755370	0.000089
1790	1.7801e+02	-4.3622	-89.481095	0.000831	8.309898	1.407735	0.000166
1791	1.7810e+02	-4.3417	-89.396315	0.000426	4.256289	0.721035	0.000085
1792	1.7820e+02	-4.3221	-89.279238	0.000588	5.877733	0.995715	0.000118
1793	1.7830e+02	-4.3015	-89.186384	0.000466	4.661650	0.789705	0.000093
1794	1.7840e+02	-4.2828	-89.008750	0.000892	8.917940	1.510740	0.000179
1795	1.7850e+02	-4.2624	-88.919933	0.000446	4.458970	0.755370	0.000089
1796	1.7860e+02	-4.2422	-88.758448	0.000811	8.107218	1.373400	0.000162
1797	1.7870e+02	-4.2225	-88.653482	0.000527	5.269692	0.892710	0.000105
1798	1.7880e+02	-4.2026	-88.528331	0.000628	6.283094	1.064385	0.000126
1799	1.7890e+02	-4.1830	-88.391068	0.000689	6.891135	1.167390	0.000138
1800	1.7900e+02	-4.1636	-88.370883	0.000101	1.013402	0.171675	0.000020
1801	1.7910e+02	-4.1431	-88.217472	0.000770	7.701857	1.304730	0.000154
1802	1.7920e+02	-4.1229	-88.076172	0.000709	7.093816	1.201725	0.000142
1803	1.7930e+02	-4.1028	-87.942946	0.000669	6.688455	1.133055	0.000134
1804	1.7940e+02	-4.0826	-87.850092	0.000466	4.661650	0.789705	0.000093
1805	1.7950e+02	-4.0630	-87.696681	0.000770	7.701857	1.304730	0.000154
1806	1.7960e+02	-4.0431	-87.587678	0.000547	5.472372	0.927045	0.000110
1807	1.7970e+02	-4.0240	-87.502899	0.000426	4.256289	0.721035	0.000085
1808	1.7980e+02	-4.0033	-87.353525	0.000750	7.499177	1.270395	0.000150
1809	1.7990e+02	-3.9825	-87.216262	0.000689	6.891135	1.167390	0.000138
1810	1.8000e+02	-3.9629	-87.083036	0.000669	6.688455	1.133055	0.000134
1811	1.8009e+02	-3.9432	-87.002294	0.000405	4.053609	0.686700	0.000081
1812	1.8019e+02	-3.9235	-86.844845	0.000790	7.904538	1.339065	0.000158
1813	1.8029e+02	-3.9034	-86.768140	0.000385	3.850929	0.652365	0.000077
1814	1.8039e+02	-3.8826	-86.566283	0.001013	10.134023	1.716750	0.000203
1815	1.8049e+02	-3.8634	-86.469392	0.000486	4.864331	0.824040	0.000097
1816	1.8059e+02	-3.8434	-86.356352	0.000568	5.675053	0.961380	0.000114
1817	1.8069e+02	-3.8235	-86.223127	0.000669	6.688455	1.133055	0.000134
1818	1.8079e+02	-3.8043	-86.118161	0.000527	5.269692	0.892710	0.000105
1819	1.8089e+02	-3.7839	-86.021270	0.000486	4.864331	0.824040	0.000097
1820	1.8099e+02	-3.7645	-85.867859	0.000770	7.701857	1.304730	0.000154
1821	1.8109e+02	-3.7448	-85.758856	0.000547	5.472372	0.927045	0.000110
1822	1.8119e+02	-3.7251	-85.609482	0.000750	7.499177	1.270395	0.000150
1823	1.8129e+02	-3.7041	-85.532776	0.000385	3.850929	0.652365	0.000077
1824	1.8139e+02	-3.6842	-85.371291	0.000811	8.107218	1.373400	0.000162
1825	1.8149e+02	-3.6649	-85.258251	0.000568	5.675053	0.961380	0.000114
1826	1.8159e+02	-3.6450	-85.129063	0.000649	6.485774	1.098720	0.000130
1827	1.8169e+02	-3.6252	-84.999874	0.000649	6.485774	1.098720	0.000130
1828	1.8179e+02	-3.6046	-84.890872	0.000547	5.472372	0.927045	0.000110
1829	1.8189e+02	-3.5856	-84.753609	0.000689	6.891135	1.167390	0.000138
1830	1.8199e+02	-3.5654	-84.640569	0.000568	5.675053	0.961380	0.000114
1831	1.8209e+02	-3.5449	-84.519455	0.000608	6.080414	1.030050	0.000122
1832	1.8218e+02	-3.5252	-84.398341	0.000608	6.080414	1.030050	0.000122
1833	1.8228e+02	-3.5052	-84.273190	0.000628	6.283094	1.064385	0.000126
1834	1.8238e+02	-3.4853	-84.135927	0.000689	6.891135	1.167390	0.000138
1835	1.8248e+02	-3.4650	-84.006739	0.000649	6.485774	1.098720	0.000130
1836	1.8258e+02	-3.4444	-83.921959	0.000426	4.256289	0.721035	0.000085
1837	1.8268e+02	-3.4256	-83.776622	0.000730	7.296496	1.236060	0.000146
1838	1.8278e+02	-3.4055	-83.651471	0.000628	6.283094	1.064385	0.000126
1839	1.8288e+02	-3.3854	-83.566691	0.000426	4.256289	0.721035	0.000085
1840	1.8298e+02	-3.3656	-83.393094	0.000872	8.715259	1.476405	0.000174
1841	1.8308e+02	-3.3450	-83.235646	0.000790	7.904538	1.339065	0.000158
1842	1.8318e+02	-3.3264	-83.179126	0.000284	2.837526	0.480690	0.000057
1843	1.8328e+02	-3.3060	-83.033789	0.000730	7.296496	1.236060	0.000146
1844	1.8338e+02	-3.2857	-82.936898	0.000486	4.864331	0.824040	0.000097
1845	1.8348e+02	-3.2652	-82.791561	0.000730	7.296496	1.236060	0.000146
1846	1.8358e+02	-3.2470	-82.646224	0.000730	7.296496	1.236060	0.000146
1847	1.8368e+02	-3.2254	-82.541259	0.000527	5.269692	0.892710	0.000105
1848	1.8378e+02	-3.2066	-82.412070	0.000649	6.485774	1.098720	0.000130
1849	1.8388e+02	-3.1854	-82.286919	0.000628	6.283094	1.064385	0.000126
1850	1.8398e+02	-3.1665	-82.177917	0.000547	5.472372	0.927045	0.000110
1851	1.8407e+02	-3.1473	-82.044691	0.000669	6.688455	1.133055	0.000134
1852	1.8417e+02	-3.1274	-81.923577	0.000608	6.080414	1.030050	0.000122
1853	1.8427e+02	-3.1074	-81.794389	0.000649	6.485774	1.098720	0.000130
1854	1.8437e+02	-3.0877	-81.632903	0.000811	8.107218	1.373400	0.000162
1855	1.8447e+02	-3.0673	-81.548123	0.000426	4.256289	0.721035	0.000085
1856	1.8457e+02	-3.0466	-81.386638	0.000811	8.107218	1.373400	0.000162
1857	1.8467e+02	-3.0261	-81.237264	0.000750	7.499177	1.270395	0.000150
1858	1.8477e+02	-3.0066	-81.144410	0.000466	4.661650	0.789705	0.000093
1859	1.8487e+02	-2.9868	-81.007147	0.000689	6.891135	1.167390	0.000138
1860	1.8497e+02	-2.9672	-80.886033	0.000608	6.080414	1.030050	0.000122
1861	1.8507e+02	-2.9474	-80.768956	0.000588	5.877733	0.995715	0.000118
1862	1.8517e+02	-2.9273	-80.607471	0.000811	8.107218	1.373400	0.000162
1863	1.8527e+02	-2.9080	-80.458097	0.000750	7.499177	1.270395	0.000150
1864	1.8537e+02	-2.8868	-80.320834	0.000689	6.891135	1.167390	0.000138
1865	1.8547e+02	-2.8677	-80.227980	0.000466	4.661650	0.789705	0.000093
1866	1.8557e+02	-2.8470	-80.110903	0.000588	5.877733	0.995715	0.000118
1867	1.8567e+02	-2.8276	-79.989789	0.000608	6.080414	1.030050	0.000122
1868	1.8577e+02	-2.8075	-79.812155	0.000892	8.917940	1.510740	0.000179
1869	1.8587e+02	-2.7880	-79.699115	0.000568	5.675053	0.961380	0.000114
1870	1.8597e+02	-2.7681	-79.561853	0.000689	6.891135	1.167390	0.000138
1871	1.8606e+02	-2.7473	-79.436701	0.000628	6.283094	1.064385	0.000126
1872	1.8616e+02	-2.7281	-79.311550	0.000628	6.283094	1.064385	0.000126
1873	1.8626e+02	-2.7074	-79.141990	0.000851	8.512579	1.442070	0.000170
1874	1.8636e+02	-2.6880	-79.073359	0.000345	3.445568	0.583695	0.000069
1875	1.8646e+02	-2.6682	-78.919948	0.000770	7.701857	1.304730	0.000154
1876	1.8656e+02	-2.6482	-78.774611	0.000730	7.296496	1.236060	0.000146
1877	1.8666e+02	-2.6289	-78.633311	0.000709	7.093816	1.201725	0.000142
1878	1.8676e+02	-2.6087	-78.496049	0.000689	6.891135	1.167390	0.000138
1879	1.8686e+02	-2.5883	-78.366860	0.000649	6.485774	1.098720	0.000130
1880	1.8696e+02	-2.5696	-78.209412	0.000790	7.904538	1.339065	0.000158
1881	1.8706e+02	-2.5491	-78.148855	0.000304	3.040207	0.515025	0.000061
1882	1.8716e+02	-2.5285	-77.991407	0.000790	7.904538	1.339065	0.000158
1883	1.8726e+02	-2.5092	-77.854144	0.000689	6.891135	1.167390	0.000138
1884	1.8736e+02	-2.4892	-77.733030	0.000608	6.080414	1.030050	0.000122
1885	1.8746e+02	-2.4701	-77.615953	0.000588	5.877733	0.995715	0.000118
1886	1.8756e+02	-2.4499	-77.446393	0.000851	8.512579	1.442070	0.000170
1887	1.8766e+02	-2.4300	-77.317205	0.000649	6.485774	1.098720	0.000130
1888	1.8776e+02	-2.4094	-77.171868	0.000730	7.296496	1.236060	0.000146
1889	1.8786e+02	-2.3892	-77.010383	0.000811	8.107218	1.373400	0.000162
1890	1.8796e+02	-2.3699	-76.885232	0.000628	6.283094	1.064385	0.000126
1891	1.8806e+02	-2.3499	-76.756043	0.000649	6.485774	1.098720	0.000130
1892	1.8815e+02	-2.3299	-76.630892	0.000628	6.283094	1.064385	0.000126
1893	1.8825e+02	-2.3106	-76.505741	0.000628	6.283094	1.064385	0.000126
1894	1.8835e+02	-2.2909	-76.368478	0.000689	6.891135	1.167390	0.000138
1895	1.8845e+02	-2.2704	-76.251401	0.000588	5.877733	0.995715	0.000118
1896	1.8855e+02	-2.2508	-76.097990	0.000770	7.701857	1.304730	0.000154
1897	1.8865e+02	-2.2308	-75.960727	0.000689	6.891135	1.167390	0.000138
1898	1.8875e+02	-2.2105	-75.803279	0.000790	7.904538	1.339065	0.000158
1899	1.8885e+02	-2.1907	-75.682165	0.000608	6.080414	1.030050	0.000122
1900	1.8895e+02	-2.1706	-75.540865	0.000709	7.093816	1.201725	0.000142
1901	1.8905e+02	-2.1507	-75.399566	0.000709	7.093816	1.201725	0.000142
1902	1.8915e+02	-2.1300	-75.270377	0.000649	6.485774	1.098720	0.000130
1903	1.8925e+02	-2.1115	-75.121003	0.000750	7.499177	1.270395	0.000150
1904	1.8935e+02	-2.0899	-74.987778	0.000669	6.688455	1.133055	0.000134
1905	1.8945e+02	-2.0710	-74.854552	0.000669	6.688455	1.133055	0.000134
1906	1.8955e+02	-2.0507	-74.709215	0.000730	7.296496	1.236060	0.000146
1907	1.8965e+02	-2.0320	-74.527544	0.000912	9.120620	1.545075	0.000183
1908	1.8975e+02	-2.0117	-74.394319	0.000669	6.688455	1.133055	0.000134
1909	1.8985e+02	-1.9908	-74.261093	0.000669	6.688455	1.133055	0.000134
1910	1.8995e+02	-1.9720	-74.144016	0.000588	5.877733	0.995715	0.000118
1911	1.9004e+02	-1.9520	-74.022902	0.000608	6.080414	1.030050	0.000122
1912	1.9014e+02	-1.9315	-73.845268	0.000892	8.917940	1.510740	0.000179
1913	1.9024e+02	-1.9106	-73.744340	0.000507	5.067011	0.858375	0.000101
1914	1.9034e+02	-1.8918	-73.582855	0.000811	8.107218	1.373400	0.000162
1915	1.9044e+02	-1.8716	-73.449629	0.000669	6.688455	1.133055	0.000134
1916	1.9054e+02	-1.8512	-73.296218	0.000770	7.701857	1.304730	0.000154
1917	1.9064e+02	-1.8317	-73.162992	0.000669	6.688455	1.133055	0.000134
1918	1.9074e+02	-1.8124	-72.997470	0.000831	8.309898	1.407735	0.000166
1919	1.9084e+02	-1.7913	-72.848096	0.000750	7.499177	1.270395	0.000150
1920	1.9094e+02	-1.7714	-72.731019	0.000588	5.877733	0.995715	0.000118
1921	1.9104e+02	-1.7511	-72.589719	0.000709	7.093816	1.201725	0.000142
1922	1.9114e+02	-1.7327	-72.424197	0.000831	8.309898	1.407735	0.000166
1923	1.9124e+02	-1.7129	-72.282897	0.000709	7.093816	1.201725	0.000142
1924	1.9134e+02	-1.6924	-72.161783	0.000608	6.080414	1.030050	0.000122
1925	1.9144e+02	-1.6731	-72.020483	0.000709	7.093816	1.201725	0.000142
1926	1.9154e+02	-1.6522	-71.854960	0.000831	8.309898	1.407735	0.000166
1927	1.9164e+02	-1.6327	-71.697512	0.000790	7.904538	1.339065	0.000158
1928	1.9174e+02	-1.6124	-71.544101	0.000770	7.701857	1.304730	0.000154
1929	1.9184e+02	-1.5923	-71.422987	0.000608	6.080414	1.030050	0.000122
1930	1.9194e+02	-1.5733	-71.277650	0.000730	7.296496	1.236060	0.000146
1931	1.9203e+02	-1.5521	-71.168647	0.000547	5.472372	0.927045	0.000110
1932	1.9213e+02	-1.5329	-71.007162	0.000811	8.107218	1.373400	0.000162
1933	1.9223e+02	-1.5130	-70.841639	0.000831	8.309898	1.407735	0.000166
1934	1.9233e+02	-1.4928	-70.680154	0.000811	8.107218	1.373400	0.000162
1935	1.9243e+02	-1.4734	-70.542891	0.000689	6.891135	1.167390	0.000138
1936	1.9253e+02	-1.4539	-70.385443	0.000790	7.904538	1.339065	0.000158
1937	1.9263e+02	-1.4331	-70.264329	0.000608	6.080414	1.030050	0.000122
1938	1.9273e+02	-1.4129	-70.086695	0.000892	8.917940	1.510740	0.000179
1939	1.9283e+02	-1.3927	-69.961544	0.000628	6.283094	1.064385	0.000126
1940	1.9293e+02	-1.3730	-69.832355	0.000649	6.485774	1.098720	0.000130
1941	1.9303e+02	-1.3530	-69.719316	0.000568	5.675053	0.961380	0.000114
1942	1.9313e+02	-1.3342	-69.493236	0.001135	11.350105	1.922760	0.000227
1943	1.9323e+02	-1.3134	-69.368085	0.000628	6.283094	1.064385	0.000126
1944	1.9333e+02	-1.2939	-69.190451	0.000892	8.917940	1.510740	0.000179
1945	1.9343e+02	-1.2724	-69.065300	0.000628	6.283094	1.064385	0.000126
1946	1.9353e+02	-1.2542	-68.928037	0.000689	6.891135	1.167390	0.000138
1947	1.9363e+02	-1.2344	-68.798849	0.000649	6.485774	1.098720	0.000130
1948	1.9373e+02	-1.2145	-68.661586	0.000689	6.891135	1.167390	0.000138
1949	1.9383e+02	-1.1948	-68.520286	0.000709	7.093816	1.201725	0.000142
1950	1.9393e+02	-1.1745	-68.378987	0.000709	7.093816	1.201725	0.000142
1951	1.9403e+02	-1.1551	-68.189241	0.000953	9.525981	1.613745	0.000191
1952	1.9412e+02	-1.1346	-68.092350	0.000486	4.864331	0.824040	0.000097
1953	1.9422e+02	-1.1142	-67.910679	0.000912	9.120620	1.545075	0.000183
1954	1.9432e+02	-1.0947	-67.781490	0.000649	6.485774	1.098720	0.000130
1955	1.9442e+02	-1.0748	-67.632116	0.000750	7.499177	1.270395	0.000150
1956	1.9452e+02	-1.0550	-67.450445	0.000912	9.120620	1.545075	0.000183
1957	1.9462e+02	-1.0347	-67.361628	0.000446	4.458970	0.755370	0.000089
1958	1.9472e+02	-1.0149	-67.208217	0.000770	7.701857	1.304730	0.000154
1959	1.9482e+02	-0.9950	-67.042695	0.000831	8.309898	1.407735	0.000166
1960	1.9492e+02	-0.9759	-66.929655	0.000568	5.675053	0.961380	0.000114
1961	1.9502e+02	-0.9555	-66.780281	0.000750	7.499177	1.270395	0.000150
1962	1.9512e+02	-0.9357	-66.606684	0.000872	8.715259	1.476405	0.000174
1963	1.9522e+02	-0.9155	-66.449236	0.000790	7.904538	1.339065	0.000158
1964	1.9532e+02	-0.8948	-66.299862	0.000750	7.499177	1.270395	0.000150
1965	1.9542e+02	-0.8753	-66.170673	0.000649	6.485774	1.098720	0.000130
1966	1.9552e+02	-0.8561	-65.984965	0.000932	9.323301	1.579410	0.000187
1967	1.9562e+02	-0.8356	-65.892111	0.000466	4.661650	0.789705	0.000093
1968	1.9572e+02	-0.8163	-65.730626	0.000811	8.107218	1.373400	0.000162
1969	1.9582e+02	-0.7956	-65.544917	0.000932	9.323301	1.579410	0.000187
1970	1.9592e+02	-0.7761	-65.403618	0.000709	7.093816	1.201725	0.000142
1971	1.9601e+02	-0.7555	-65.270392	0.000669	6.688455	1.133055	0.000134
1972	1.9611e+02	-0.7359	-65.072572	0.000993	9.931342	1.682415	0.000199
1973	1.9621e+02	-0.7166	-64.963570	0.000547	5.472372	0.927045	0.000110
1974	1.9631e+02	-0.6961	-64.802084	0.000811	8.107218	1.373400	0.000162
1975	1.9641e+02	-0.6767	-64.689044	0.000568	5.675053	0.961380	0.000114
1976	1.9651e+02	-0.6563	-64.555819	0.000669	6.688455	1.133055	0.000134
1977	1.9661e+02	-0.6357	-64.362037	0.000973	9.728662	1.648080	0.000195
1978	1.9671e+02	-0.6163	-64.248997	0.000568	5.675053	0.961380	0.000114
1979	1.9681e+02	-0.5959	-64.063288	0.000932	9.323301	1.579410	0.000187
1980	1.9691e+02	-0.5760	-63.942174	0.000608	6.080414	1.030050	0.000122
1981	1.9701e+02	-0.5566	-63.784726	0.000790	7.904538	1.339065	0.000158
1982	1.9711e+02	-0.5367	-63.615166	0.000851	8.512579	1.442070	0.000170
1983	1.9721e+02	-0.5164	-63.502127	0.000568	5.675053	0.961380	0.000114
1984	1.9731e+02	-0.4968	-63.336604	0.000831	8.309898	1.407735	0.000166
1985	1.9741e+02	-0.4772	-63.154933	0.000912	9.120620	1.545075	0.000183
1986	1.9751e+02	-0.4575	-63.058042	0.000486	4.864331	0.824040	0.000097
1987	1.9761e+02	-0.4369	-62.924816	0.000669	6.688455	1.133055	0.000134
1988	1.9771e+02	-0.4174	-62.755256	0.000851	8.512579	1.442070	0.000170
1989	1.9781e+02	-0.3971	-62.626068	0.000649	6.485774	1.098720	0.000130
1990	1.9791e+02	-0.3780	-62.440360	0.000932	9.323301	1.579410	0.000187
1991	1.9800e+02	-0.3570	-62.282912	0.000790	7.904538	1.339065	0.000158
1992	1.9810e+02	-0.3380	-62.141612	0.000709	7.093816	1.201725	0.000142
1993	1.9820e+02	-0.3178	-62.000312	0.000709	7.093816	1.201725	0.000142
1994	1.9830e+02	-0.2975	-61.818641	0.000912	9.120620	1.545075	0.000183
1995	1.9840e+02	-0.2773	-61.721750	0.000486	4.864331	0.824040	0.000097
1996	1.9850e+02	-0.2576	-61.608710	0.000568	5.675053	0.961380	0.000114
1997	1.9860e+02	-0.2374	-61.451262	0.000790	7.904538	1.339065	0.000158
1998	1.9870e+02	-0.2177	-61.257479	0.000973	9.728662	1.648080	0.000195
1999	1.9880e+02	-0.1990	-61.164625	0.000466	4.661650	0.789705	0.000093
2000	1.9890e+02	-0.1788	-60.966805	0.000993	9.931342	1.682415	0.000199
2001	1.9900e+02	-0.1588	-60.849728	0.000588	5.877733	0.995715	0.000118
2002	1.9910e+02	-0.1375	-60.700354	0.000750	7.499177	1.270395	0.000150
2003	1.9920e+02	-0.1185	-60.555018	0.000730	7.296496	1.236060	0.000146
2004	1.9930e+02	-0.0988	-60.369309	0.000932	9.323301	1.579410	0.000187
2005	1.9940e+02	-0.0780	-60.252232	0.000588	5.877733	0.995715	0.000118
2006	1.9950e+02	-0.0579	-60.086710	0.000831	8.309898	1.407735	0.000166
2007	1.9960e+02	-0.0390	-59.973670	0.000568	5.675053	0.961380	0.000114
2008	1.9970e+02	-0.0189	-59.783925	0.000953	9.525981	1.613745	0.000191
2009	1.9980e+02	0.0006	-59.691070	0.000953	9.525981	1.613745	0.000093

Smooth data before PMax, +/-Pr and +/-Vc Calc.

PMax (uC/cm2):	6.24e+01
Pr (uC/cm2):	6.36e+00
-Pr (uC/cm2):	-1.04e+02
PLoss (uC/cm2):	-1.04e+02
-Vc:	-8.37e-01
C (Max-Eff) (nF):	6.24e-01
K (Eff):	1.06e+03
Vert. (+/-Pr) Shift (uC/cm2):	-4.87e+01
Offset (uC/cm2):	-4.40e+01

A (Loop Area - uC/cm2·Volts):	-5.05e-01



Hysteresis Version: 5.48.1 - Radiant Technologies, Inc., 1999 - 9/12/24

