»»»»»»»»»»»»»»»»»»»»»»»»»»»»»»»»»»»» Hysteresis ««««««««««««««««««««««««««««««««««««
»»»  Executed Version:	5.48.1
»»»  Vision Version:	5.48.4 (R)
»»»  Vision Compiled:	9/18/24
»»»  Driver Version:	5.47.0
»»»  Windows Version:	Windows 8 or 8.1
»»»  Processor Information:	x86 (AMD or Intel) - 32 Processors
»»»  Tester Name:	PMF21124-494 (100V)
»»»  Tester S/N:	PMF21124-494
»»»  Internal Amp Type:	100V RevK 270k
»»»  Internal Amp S/N:	iAB2-596/K     
»»»  Execution Count:	1
»»»»»»»»»»»»»»»»»»»»»»»»»»»»»»»»»»»»»»»»»»««««««««««««««««««««««««««««««««««««««««««

Stored:	7/8/2025 - 16:16:53
Configured:	07/08/25 02:50:47 PM
Executed:	07/08/25 04:16:24 PM

»»»»»»»»»»»»»»»»»»»»»»»»»»»»»»»»»»» Sample Info ««««««««««««««««««««««««««««««««««««
Sample Name:	
Lot Name:	
Wafer Name:	
Die Row/Column:	0/0
Capacitor Number:	0
Sample Area (cm2):	1.00e-04
Sample Thickness (microns):	1.50e-01

Amplifier:	Internal

»»»»»»»»»»»»»»»»»»»»»»»»»»»»»»»»»»» Tester Info «««««««««««««««««««««««««««««««««««
Tester Name:	PMF21124-494 (100V)
Tester Serial Number:	PMF21124-494
Return Signal Amp. Level:	0.19 [Index: 3]

»»»»»»»»»»»»»»»»»»»»»»»»»»»»»»»» Hysteresis Info ««««««««««««««««««««««««««««««««««
Task Name:	Hyst-724
Volts:	10.00
Field:	666.67 (kV/cm)
DCBias:	0.00
DCField:	0.00 (kV/cm)
Hysteresis Period (ms):	2.00e+02
Preset:	Enabled
Preset Delay (ms):	1.00e+03
Profile:	Standard Bipolar

»»»»»»»»»»»»»»»»»»»»»»»»»»»»»»»»»»»»»» Data «««««««««««««««««««««««««««««««««««««««
Points:	2009

Valid Data

Point	Time (ms)	Drive Voltage	Measured Polarization (uC/cm2)	Capacitance (uF)	Normalized Capacitance (uF/cm2)	Dielectric Constant	Instantaneous Current (mA)
   1	0.0000e+00	0.0001	7.888563	0.000669	6.688493	1.133061	0.000134
   2	9.9500e-02	0.0190	8.021789	0.000669	6.688493	1.133061	0.000134
   3	1.9900e-01	0.0385	8.187311	0.000831	8.309946	1.407743	0.000166
   4	2.9850e-01	0.0589	8.356871	0.000851	8.512628	1.442078	0.000170
   5	3.9800e-01	0.0788	8.510282	0.000770	7.701901	1.304737	0.000154
   6	4.9750e-01	0.0989	8.651582	0.000709	7.093856	1.201732	0.000142
   7	5.9700e-01	0.1193	8.845364	0.000973	9.728717	1.648089	0.000195
   8	6.9650e-01	0.1388	9.002813	0.000790	7.904583	1.339073	0.000158
   9	7.9600e-01	0.1587	9.148150	0.000730	7.296538	1.236067	0.000146
  10	8.9550e-01	0.1781	9.325784	0.000892	8.917991	1.510749	0.000179
  11	9.9500e-01	0.1986	9.487269	0.000811	8.107264	1.373408	0.000162
  12	1.0945e+00	0.2184	9.656829	0.000851	8.512628	1.442078	0.000170
  13	1.1940e+00	0.2387	9.814277	0.000790	7.904583	1.339073	0.000158
  14	1.2935e+00	0.2592	9.943465	0.000649	6.485812	1.098726	0.000130
  15	1.3930e+00	0.2786	10.141285	0.000993	9.931399	1.682425	0.000199
  16	1.4925e+00	0.2988	10.302770	0.000811	8.107264	1.373408	0.000162
  17	1.5920e+00	0.3182	10.464256	0.000811	8.107264	1.373408	0.000162
  18	1.6915e+00	0.3383	10.617667	0.000770	7.701901	1.304737	0.000154
  19	1.7910e+00	0.3587	10.771078	0.000770	7.701901	1.304737	0.000154
  20	1.8905e+00	0.3780	10.952749	0.000912	9.120672	1.545084	0.000183
  21	1.9900e+00	0.3986	11.142495	0.000953	9.526036	1.613754	0.000191
  22	2.0895e+00	0.4169	11.247460	0.000527	5.269722	0.892715	0.000105
  23	2.1890e+00	0.4377	11.437206	0.000953	9.526036	1.613754	0.000191
  24	2.2885e+00	0.4575	11.614840	0.000892	8.917991	1.510749	0.000179
  25	2.3880e+00	0.4779	11.792473	0.000892	8.917991	1.510749	0.000179
  26	2.4875e+00	0.4980	11.925699	0.000669	6.688493	1.133061	0.000134
  27	2.5870e+00	0.5173	12.163890	0.001196	11.958215	2.025776	0.000239
  28	2.6865e+00	0.5375	12.329413	0.000831	8.309946	1.407743	0.000166
  29	2.7860e+00	0.5569	12.478787	0.000750	7.499220	1.270402	0.000150
  30	2.8855e+00	0.5768	12.648346	0.000851	8.512628	1.442078	0.000170
  31	2.9850e+00	0.5969	12.805795	0.000790	7.904583	1.339073	0.000158
  32	3.0845e+00	0.6173	12.963243	0.000790	7.904583	1.339073	0.000158
  33	3.1840e+00	0.6374	13.148951	0.000932	9.323354	1.579419	0.000187
  34	3.2835e+00	0.6566	13.366956	0.001094	10.944807	1.854100	0.000219
  35	3.3830e+00	0.6770	13.500182	0.000669	6.688493	1.133061	0.000134
  36	3.4825e+00	0.6963	13.677816	0.000892	8.917991	1.510749	0.000179
  37	3.5820e+00	0.7163	13.827190	0.000750	7.499220	1.270402	0.000150
  38	3.6815e+00	0.7368	14.008861	0.000912	9.120672	1.545084	0.000183
  39	3.7810e+00	0.7570	14.214755	0.001034	10.336762	1.751095	0.000207
  40	3.8805e+00	0.7765	14.376240	0.000811	8.107264	1.373408	0.000162
  41	3.9800e+00	0.7965	14.505429	0.000649	6.485812	1.098726	0.000130
  42	4.0795e+00	0.8165	14.691137	0.000932	9.323354	1.579419	0.000187
  43	4.1790e+00	0.8356	14.880882	0.000953	9.526036	1.613754	0.000191
  44	4.2785e+00	0.8558	15.062553	0.000912	9.120672	1.545084	0.000183
  45	4.3780e+00	0.8772	15.228076	0.000831	8.309946	1.407743	0.000166
  46	4.4775e+00	0.8959	15.393599	0.000831	8.309946	1.407743	0.000166
  47	4.5770e+00	0.9160	15.571233	0.000892	8.917991	1.510749	0.000179
  48	4.6765e+00	0.9355	15.728681	0.000790	7.904583	1.339073	0.000158
  49	4.7760e+00	0.9554	15.914389	0.000932	9.323354	1.579419	0.000187
  50	4.8755e+00	0.9753	16.087986	0.000872	8.715309	1.476413	0.000174
  51	4.9750e+00	0.9946	16.249471	0.000811	8.107264	1.373408	0.000162
  52	5.0745e+00	1.0155	16.435180	0.000932	9.323354	1.579419	0.000187
  53	5.1740e+00	1.0360	16.624925	0.000953	9.526036	1.613754	0.000191
  54	5.2735e+00	1.0556	16.798522	0.000872	8.715309	1.476413	0.000174
  55	5.3730e+00	1.0757	16.935784	0.000689	6.891175	1.167397	0.000138
  56	5.4725e+00	1.0956	17.178013	0.001216	12.160897	2.060112	0.000243
  57	5.5720e+00	1.1159	17.299127	0.000608	6.080448	1.030056	0.000122
  58	5.6715e+00	1.1347	17.480798	0.000912	9.120672	1.545084	0.000183
  59	5.7710e+00	1.1555	17.678617	0.000993	9.931399	1.682425	0.000199
  60	5.8705e+00	1.1745	17.832029	0.000770	7.701901	1.304737	0.000154
  61	5.9700e+00	1.1946	18.033885	0.001013	10.134081	1.716760	0.000203
  62	6.0695e+00	1.2154	18.183259	0.000750	7.499220	1.270402	0.000150
  63	6.1690e+00	1.2359	18.368968	0.000932	9.323354	1.579419	0.000187
  64	6.2685e+00	1.2546	18.510267	0.000709	7.093856	1.201732	0.000142
  65	6.3680e+00	1.2746	18.728273	0.001094	10.944807	1.854100	0.000219
  66	6.4675e+00	1.2936	18.922055	0.000973	9.728717	1.648089	0.000195
  67	6.5670e+00	1.3127	19.083541	0.000811	8.107264	1.373408	0.000162
  68	6.6665e+00	1.3338	19.261175	0.000892	8.917991	1.510749	0.000179
  69	6.7660e+00	1.3532	19.410549	0.000750	7.499220	1.270402	0.000150
  70	6.8655e+00	1.3737	19.616443	0.001034	10.336762	1.751095	0.000207
  71	6.9650e+00	1.3937	19.798114	0.000912	9.120672	1.545084	0.000183
  72	7.0645e+00	1.4135	20.016119	0.001094	10.944807	1.854100	0.000219
  73	7.1640e+00	1.4328	20.157419	0.000709	7.093856	1.201732	0.000142
  74	7.2635e+00	1.4534	20.310830	0.000770	7.701901	1.304737	0.000154
  75	7.3630e+00	1.4729	20.476352	0.000831	8.309946	1.407743	0.000166
  76	7.4625e+00	1.4935	20.666098	0.000953	9.526036	1.613754	0.000191
  77	7.5620e+00	1.5137	20.867955	0.001013	10.134081	1.716760	0.000203
  78	7.6615e+00	1.5323	21.033477	0.000831	8.309946	1.407743	0.000166
  79	7.7610e+00	1.5528	21.170740	0.000689	6.891175	1.167397	0.000138
  80	7.8605e+00	1.5724	21.417005	0.001236	12.363578	2.094447	0.000248
  81	7.9600e+00	1.5926	21.570416	0.000770	7.701901	1.304737	0.000154
  82	8.0595e+00	1.6130	21.711716	0.000709	7.093856	1.201732	0.000142
  83	8.1590e+00	1.6322	21.909536	0.000993	9.931399	1.682425	0.000199
  84	8.2585e+00	1.6518	22.079095	0.000851	8.512628	1.442078	0.000170
  85	8.3580e+00	1.6722	22.264804	0.000932	9.323354	1.579419	0.000187
  86	8.4575e+00	1.6909	22.426289	0.000811	8.107264	1.373408	0.000162
  87	8.5570e+00	1.7126	22.628146	0.001013	10.134081	1.716760	0.000203
  88	8.6565e+00	1.7330	22.777520	0.000750	7.499220	1.270402	0.000150
  89	8.7560e+00	1.7523	22.947080	0.000851	8.512628	1.442078	0.000170
  90	8.8555e+00	1.7716	23.152973	0.001034	10.336762	1.751095	0.000207
  91	8.9550e+00	1.7918	23.334645	0.000912	9.120672	1.545084	0.000183
  92	9.0545e+00	1.8119	23.524390	0.000953	9.526036	1.613754	0.000191
  93	9.1540e+00	1.8322	23.653578	0.000649	6.485812	1.098726	0.000130
  94	9.2535e+00	1.8520	23.859472	0.001034	10.336762	1.751095	0.000207
  95	9.3530e+00	1.8720	23.996735	0.000689	6.891175	1.167397	0.000138
  96	9.4525e+00	1.8922	24.190517	0.000973	9.728717	1.648089	0.000195
  97	9.5520e+00	1.9115	24.364114	0.000872	8.715309	1.476413	0.000174
  98	9.6515e+00	1.9317	24.541748	0.000892	8.917991	1.510749	0.000179
  99	9.7510e+00	1.9514	24.727456	0.000932	9.323354	1.579419	0.000187
 100	9.8505e+00	1.9717	24.897016	0.000851	8.512628	1.442078	0.000170
 101	9.9500e+00	1.9910	25.034279	0.000689	6.891175	1.167397	0.000138
 102	1.0050e+01	2.0112	25.260358	0.001135	11.350170	1.922771	0.000227
 103	1.0149e+01	2.0311	25.393584	0.000669	6.688493	1.133061	0.000134
 104	1.0248e+01	2.0501	25.591403	0.000993	9.931399	1.682425	0.000199
 105	1.0348e+01	2.0715	25.773075	0.000912	9.120672	1.545084	0.000183
 106	1.0447e+01	2.0905	25.926486	0.000770	7.701901	1.304737	0.000154
 107	1.0547e+01	2.1118	26.079897	0.000770	7.701901	1.304737	0.000154
 108	1.0646e+01	2.1313	26.289828	0.001054	10.539444	1.785430	0.000211
 109	1.0746e+01	2.1503	26.463425	0.000872	8.715309	1.476413	0.000174
 110	1.0845e+01	2.1706	26.616836	0.000770	7.701901	1.304737	0.000154
 111	1.0945e+01	2.1903	26.830804	0.001074	10.742125	1.819765	0.000215
 112	1.1044e+01	2.2102	26.996327	0.000831	8.309946	1.407743	0.000166
 113	1.1144e+01	2.2306	27.133589	0.000689	6.891175	1.167397	0.000138
 114	1.1243e+01	2.2511	27.311223	0.000892	8.917991	1.510749	0.000179
 115	1.1343e+01	2.2704	27.448486	0.000689	6.891175	1.167397	0.000138
 116	1.1443e+01	2.2906	27.642268	0.000973	9.728717	1.648089	0.000195
 117	1.1542e+01	2.3096	27.815865	0.000872	8.715309	1.476413	0.000174
 118	1.1642e+01	2.3302	27.989462	0.000872	8.715309	1.476413	0.000174
 119	1.1741e+01	2.3499	28.154985	0.000831	8.309946	1.407743	0.000166
 120	1.1841e+01	2.3698	28.300322	0.000730	7.296538	1.236067	0.000146
 121	1.1940e+01	2.3894	28.530438	0.001155	11.552852	1.957106	0.000231
 122	1.2040e+01	2.4099	28.683849	0.000770	7.701901	1.304737	0.000154
 123	1.2139e+01	2.4293	28.817075	0.000669	6.688493	1.133061	0.000134
 124	1.2239e+01	2.4501	29.002783	0.000932	9.323354	1.579419	0.000187
 125	1.2338e+01	2.4689	29.160231	0.000790	7.904583	1.339073	0.000158
 126	1.2438e+01	2.4902	29.345940	0.000932	9.323354	1.579419	0.000187
 127	1.2537e+01	2.5096	29.539722	0.000973	9.728717	1.648089	0.000195
 128	1.2636e+01	2.5291	29.681022	0.000709	7.093856	1.201732	0.000142
 129	1.2736e+01	2.5497	29.866730	0.000932	9.323354	1.579419	0.000187
 130	1.2835e+01	2.5690	30.012067	0.000730	7.296538	1.236067	0.000146
 131	1.2935e+01	2.5881	30.193738	0.000912	9.120672	1.545084	0.000183
 132	1.3034e+01	2.6087	30.383484	0.000953	9.526036	1.613754	0.000191
 133	1.3134e+01	2.6291	30.569192	0.000932	9.323354	1.579419	0.000187
 134	1.3233e+01	2.6492	30.698380	0.000649	6.485812	1.098726	0.000130
 135	1.3333e+01	2.6688	30.884088	0.000932	9.323354	1.579419	0.000187
 136	1.3432e+01	2.6886	31.037500	0.000770	7.701901	1.304737	0.000154
 137	1.3532e+01	2.7081	31.211096	0.000872	8.715309	1.476413	0.000174
 138	1.3632e+01	2.7282	31.429102	0.001094	10.944807	1.854100	0.000219
 139	1.3731e+01	2.7482	31.542142	0.000568	5.675085	0.961385	0.000114
 140	1.3831e+01	2.7682	31.739961	0.000993	9.931399	1.682425	0.000199
 141	1.3930e+01	2.7879	31.881261	0.000709	7.093856	1.201732	0.000142
 142	1.4030e+01	2.8082	32.091192	0.001054	10.539444	1.785430	0.000211
 143	1.4129e+01	2.8283	32.244603	0.000770	7.701901	1.304737	0.000154
 144	1.4229e+01	2.8478	32.389940	0.000730	7.296538	1.236067	0.000146
 145	1.4328e+01	2.8683	32.563537	0.000872	8.715309	1.476413	0.000174
 146	1.4428e+01	2.8877	32.761357	0.000993	9.931399	1.682425	0.000199
 147	1.4527e+01	2.9078	32.926879	0.000831	8.309946	1.407743	0.000166
 148	1.4627e+01	2.9269	33.092402	0.000831	8.309946	1.407743	0.000166
 149	1.4726e+01	2.9472	33.225627	0.000669	6.688493	1.133061	0.000134
 150	1.4825e+01	2.9673	33.419410	0.000973	9.728717	1.648089	0.000195
 151	1.4925e+01	2.9874	33.552635	0.000669	6.688493	1.133061	0.000134
 152	1.5024e+01	3.0074	33.738343	0.000932	9.323354	1.579419	0.000187
 153	1.5124e+01	3.0283	33.867532	0.000649	6.485812	1.098726	0.000130
 154	1.5223e+01	3.0478	34.057277	0.000953	9.526036	1.613754	0.000191
 155	1.5323e+01	3.0677	34.230874	0.000872	8.715309	1.476413	0.000174
 156	1.5422e+01	3.0878	34.432731	0.001013	10.134081	1.716760	0.000203
 157	1.5522e+01	3.1065	34.598253	0.000831	8.309946	1.407743	0.000166
 158	1.5621e+01	3.1268	34.739553	0.000709	7.093856	1.201732	0.000142
 159	1.5721e+01	3.1472	34.880853	0.000709	7.093856	1.201732	0.000142
 160	1.5820e+01	3.1670	35.066561	0.000932	9.323354	1.579419	0.000187
 161	1.5920e+01	3.1872	35.240158	0.000872	8.715309	1.476413	0.000174
 162	1.6020e+01	3.2060	35.401643	0.000811	8.107264	1.373408	0.000162
 163	1.6119e+01	3.2269	35.555054	0.000770	7.701901	1.304737	0.000154
 164	1.6218e+01	3.2461	35.760948	0.001034	10.336762	1.751095	0.000207
 165	1.6318e+01	3.2675	35.910322	0.000750	7.499220	1.270402	0.000150
 166	1.6418e+01	3.2874	36.027399	0.000588	5.877767	0.995721	0.000118
 167	1.6517e+01	3.3067	36.217145	0.000953	9.526036	1.613754	0.000191
 168	1.6616e+01	3.3254	36.406890	0.000953	9.526036	1.613754	0.000191
 169	1.6716e+01	3.3463	36.572413	0.000831	8.309946	1.407743	0.000166
 170	1.6816e+01	3.3662	36.725824	0.000770	7.701901	1.304737	0.000154
 171	1.6915e+01	3.3856	36.911532	0.000932	9.323354	1.579419	0.000187
 172	1.7015e+01	3.4061	37.052832	0.000709	7.093856	1.201732	0.000142
 173	1.7114e+01	3.4255	37.222392	0.000851	8.512628	1.442078	0.000170
 174	1.7213e+01	3.4463	37.383877	0.000811	8.107264	1.373408	0.000162
 175	1.7313e+01	3.4654	37.565548	0.000912	9.120672	1.545084	0.000183
 176	1.7413e+01	3.4858	37.710885	0.000730	7.296538	1.236067	0.000146
 177	1.7512e+01	3.5056	37.876407	0.000831	8.309946	1.407743	0.000166
 178	1.7611e+01	3.5266	38.045967	0.000851	8.512628	1.442078	0.000170
 179	1.7711e+01	3.5452	38.207453	0.000811	8.107264	1.373408	0.000162
 180	1.7811e+01	3.5656	38.372975	0.000831	8.309946	1.407743	0.000166
 181	1.7910e+01	3.5851	38.546572	0.000872	8.715309	1.476413	0.000174
 182	1.8009e+01	3.6051	38.724206	0.000892	8.917991	1.510749	0.000179
 183	1.8109e+01	3.6262	38.861469	0.000689	6.891175	1.167397	0.000138
 184	1.8209e+01	3.6449	39.035065	0.000872	8.715309	1.476413	0.000174
 185	1.8308e+01	3.6655	39.180402	0.000730	7.296538	1.236067	0.000146
 186	1.8407e+01	3.6852	39.345925	0.000831	8.309946	1.407743	0.000166
 187	1.8507e+01	3.7045	39.511447	0.000831	8.309946	1.407743	0.000166
 188	1.8607e+01	3.7247	39.616413	0.000527	5.269722	0.892715	0.000105
 189	1.8706e+01	3.7455	39.830381	0.001074	10.742125	1.819765	0.000215
 190	1.8805e+01	3.7647	40.008015	0.000892	8.917991	1.510749	0.000179
 191	1.8905e+01	3.7840	40.137204	0.000649	6.485812	1.098726	0.000130
 192	1.9005e+01	3.8009	40.330986	0.000973	9.728717	1.648089	0.000195
 193	1.9104e+01	3.8242	40.492471	0.000811	8.107264	1.373408	0.000162
 194	1.9203e+01	3.8445	40.666068	0.000872	8.715309	1.476413	0.000174
 195	1.9303e+01	3.8644	40.799294	0.000669	6.688493	1.133061	0.000134
 196	1.9402e+01	3.8837	40.980965	0.000912	9.120672	1.545084	0.000183
 197	1.9502e+01	3.9037	41.154562	0.000872	8.715309	1.476413	0.000174
 198	1.9602e+01	3.9240	41.328159	0.000872	8.715309	1.476413	0.000174
 199	1.9701e+01	3.9427	41.453310	0.000628	6.283130	1.064391	0.000126
 200	1.9800e+01	3.9639	41.618832	0.000831	8.309946	1.407743	0.000166
 201	1.9900e+01	3.9834	41.800503	0.000912	9.120672	1.545084	0.000183
 202	2.0000e+01	4.0040	41.957952	0.000790	7.904583	1.339073	0.000158
 203	2.0099e+01	4.0234	42.107326	0.000750	7.499220	1.270402	0.000150
 204	2.0198e+01	4.0421	42.280923	0.000872	8.715309	1.476413	0.000174
 205	2.0298e+01	4.0639	42.426259	0.000730	7.296538	1.236067	0.000146
 206	2.0398e+01	4.0834	42.579671	0.000770	7.701901	1.304737	0.000154
 207	2.0497e+01	4.1029	42.781527	0.001013	10.134081	1.716760	0.000203
 208	2.0596e+01	4.1228	42.934939	0.000770	7.701901	1.304737	0.000154
 209	2.0696e+01	4.1438	43.108535	0.000872	8.715309	1.476413	0.000174
 210	2.0796e+01	4.1627	43.229649	0.000608	6.080448	1.030056	0.000122
 211	2.0895e+01	4.1837	43.362875	0.000669	6.688493	1.133061	0.000134
 212	2.0994e+01	4.2031	43.564732	0.001013	10.134081	1.716760	0.000203
 213	2.1094e+01	4.2229	43.701994	0.000689	6.891175	1.167397	0.000138
 214	2.1194e+01	4.2422	43.887703	0.000932	9.323354	1.579419	0.000187
 215	2.1293e+01	4.2623	44.020928	0.000669	6.688493	1.133061	0.000134
 216	2.1392e+01	4.2828	44.190488	0.000851	8.512628	1.442078	0.000170
 217	2.1492e+01	4.3067	44.335825	0.000730	7.296538	1.236067	0.000146
 218	2.1591e+01	4.3216	44.517496	0.000912	9.120672	1.545084	0.000183
 219	2.1691e+01	4.3410	44.658796	0.000709	7.093856	1.201732	0.000142
 220	2.1791e+01	4.3626	44.812207	0.000770	7.701901	1.304737	0.000154
 221	2.1890e+01	4.3822	44.969655	0.000790	7.904583	1.339073	0.000158
 222	2.1989e+01	4.4015	45.090769	0.000608	6.080448	1.030056	0.000122
 223	2.2089e+01	4.4215	45.280514	0.000953	9.526036	1.613754	0.000191
 224	2.2189e+01	4.4410	45.458148	0.000892	8.917991	1.510749	0.000179
 225	2.2288e+01	4.4615	45.619634	0.000811	8.107264	1.373408	0.000162
 226	2.2387e+01	4.4817	45.740748	0.000608	6.080448	1.030056	0.000122
 227	2.2487e+01	4.5020	45.914345	0.000872	8.715309	1.476413	0.000174
 228	2.2587e+01	4.5217	46.059682	0.000730	7.296538	1.236067	0.000146
 229	2.2686e+01	4.5415	46.213093	0.000770	7.701901	1.304737	0.000154
 230	2.2785e+01	4.5608	46.358430	0.000730	7.296538	1.236067	0.000146
 231	2.2885e+01	4.5808	46.556249	0.000993	9.931399	1.682425	0.000199
 232	2.2985e+01	4.6009	46.669289	0.000568	5.675085	0.961385	0.000114
 233	2.3084e+01	4.6205	46.842886	0.000872	8.715309	1.476413	0.000174
 234	2.3183e+01	4.6407	46.984186	0.000709	7.093856	1.201732	0.000142
 235	2.3283e+01	4.6604	47.141634	0.000790	7.904583	1.339073	0.000158
 236	2.3383e+01	4.6801	47.315231	0.000872	8.715309	1.476413	0.000174
 237	2.3482e+01	4.7009	47.456531	0.000709	7.093856	1.201732	0.000142
 238	2.3581e+01	4.7210	47.618016	0.000811	8.107264	1.373408	0.000162
 239	2.3681e+01	4.7419	47.767390	0.000750	7.499220	1.270402	0.000150
 240	2.3780e+01	4.7602	47.953098	0.000932	9.323354	1.579419	0.000187
 241	2.3880e+01	4.7810	48.045952	0.000466	4.661677	0.789709	0.000093
 242	2.3980e+01	4.8002	48.219549	0.000872	8.715309	1.476413	0.000174
 243	2.4079e+01	4.8208	48.413332	0.000973	9.728717	1.648089	0.000195
 244	2.4178e+01	4.8396	48.578854	0.000831	8.309946	1.407743	0.000166
 245	2.4278e+01	4.8598	48.712080	0.000669	6.688493	1.133061	0.000134
 246	2.4378e+01	4.8806	48.817045	0.000527	5.269722	0.892715	0.000105
 247	2.4477e+01	4.9002	48.998716	0.000912	9.120672	1.545084	0.000183
 248	2.4576e+01	4.9205	49.099645	0.000507	5.067040	0.858380	0.000101
 249	2.4676e+01	4.9406	49.273242	0.000872	8.715309	1.476413	0.000174
 250	2.4776e+01	4.9604	49.434727	0.000811	8.107264	1.373408	0.000162
 251	2.4875e+01	4.9804	49.592175	0.000790	7.904583	1.339073	0.000158
 252	2.4974e+01	4.9993	49.729438	0.000689	6.891175	1.167397	0.000138
 253	2.5074e+01	5.0201	49.854589	0.000628	6.283130	1.064391	0.000126
 254	2.5174e+01	5.0397	50.003963	0.000750	7.499220	1.270402	0.000150
 255	2.5273e+01	5.0588	50.193709	0.000953	9.526036	1.613754	0.000191
 256	2.5372e+01	5.0788	50.306748	0.000568	5.675085	0.961385	0.000114
 257	2.5472e+01	5.0994	50.448048	0.000709	7.093856	1.201732	0.000142
 258	2.5572e+01	5.1189	50.613571	0.000831	8.309946	1.407743	0.000166
 259	2.5671e+01	5.1405	50.762945	0.000750	7.499220	1.270402	0.000150
 260	2.5770e+01	5.1589	50.900207	0.000689	6.891175	1.167397	0.000138
 261	2.5870e+01	5.1794	51.073804	0.000872	8.715309	1.476413	0.000174
 262	2.5970e+01	5.1984	51.166658	0.000466	4.661677	0.789709	0.000093
 263	2.6069e+01	5.2179	51.360441	0.000973	9.728717	1.648089	0.000195
 264	2.6169e+01	5.2389	51.509815	0.000750	7.499220	1.270402	0.000150
 265	2.6268e+01	5.2581	51.663226	0.000770	7.701901	1.304737	0.000154
 266	2.6367e+01	5.2774	51.768192	0.000527	5.269722	0.892715	0.000105
 267	2.6467e+01	5.2981	51.937751	0.000851	8.512628	1.442078	0.000170
 268	2.6567e+01	5.3182	52.066940	0.000649	6.485812	1.098726	0.000130
 269	2.6666e+01	5.3382	52.244574	0.000892	8.917991	1.510749	0.000179
 270	2.6765e+01	5.3573	52.365688	0.000608	6.080448	1.030056	0.000122
 271	2.6865e+01	5.3785	52.498913	0.000669	6.688493	1.133061	0.000134
 272	2.6965e+01	5.3977	52.660399	0.000811	8.107264	1.373408	0.000162
 273	2.7064e+01	5.4180	52.821884	0.000811	8.107264	1.373408	0.000162
 274	2.7163e+01	5.4377	52.926850	0.000527	5.269722	0.892715	0.000105
 275	2.7263e+01	5.4569	53.060075	0.000669	6.688493	1.133061	0.000134
 276	2.7363e+01	5.4778	53.237709	0.000892	8.917991	1.510749	0.000179
 277	2.7462e+01	5.4969	53.379009	0.000709	7.093856	1.201732	0.000142
 278	2.7561e+01	5.5172	53.467826	0.000446	4.458995	0.755374	0.000089
 279	2.7661e+01	5.5386	53.665645	0.000993	9.931399	1.682425	0.000199
 280	2.7761e+01	5.5578	53.802908	0.000689	6.891175	1.167397	0.000138
 281	2.7860e+01	5.5772	53.932096	0.000649	6.485812	1.098726	0.000130
 282	2.7959e+01	5.5967	54.049173	0.000588	5.877767	0.995721	0.000118
 283	2.8059e+01	5.6180	54.210659	0.000811	8.107264	1.373408	0.000162
 284	2.8159e+01	5.6364	54.360033	0.000750	7.499220	1.270402	0.000150
 285	2.8258e+01	5.6567	54.497295	0.000689	6.891175	1.167397	0.000138
 286	2.8358e+01	5.6768	54.622447	0.000628	6.283130	1.064391	0.000126
 287	2.8457e+01	5.6960	54.775858	0.000770	7.701901	1.304737	0.000154
 288	2.8556e+01	5.7165	54.905046	0.000649	6.485812	1.098726	0.000130
 289	2.8656e+01	5.7366	55.074606	0.000851	8.512628	1.442078	0.000170
 290	2.8756e+01	5.7558	55.211868	0.000689	6.891175	1.167397	0.000138
 291	2.8855e+01	5.7769	55.328945	0.000588	5.877767	0.995721	0.000118
 292	2.8954e+01	5.7970	55.478319	0.000750	7.499220	1.270402	0.000150
 293	2.9054e+01	5.8163	55.627693	0.000750	7.499220	1.270402	0.000150
 294	2.9154e+01	5.8364	55.740733	0.000568	5.675085	0.961385	0.000114
 295	2.9253e+01	5.8562	55.910293	0.000851	8.512628	1.442078	0.000170
 296	2.9352e+01	5.8761	56.027370	0.000588	5.877767	0.995721	0.000118
 297	2.9452e+01	5.8965	56.188855	0.000811	8.107264	1.373408	0.000162
 298	2.9552e+01	5.9161	56.301895	0.000568	5.675085	0.961385	0.000114
 299	2.9651e+01	5.9357	56.398786	0.000486	4.864359	0.824045	0.000097
 300	2.9750e+01	5.9563	56.572383	0.000872	8.715309	1.476413	0.000174
 301	2.9850e+01	5.9753	56.709646	0.000689	6.891175	1.167397	0.000138
 302	2.9950e+01	5.9949	56.875168	0.000831	8.309946	1.407743	0.000166
 303	3.0049e+01	6.0146	57.028579	0.000770	7.701901	1.304737	0.000154
 304	3.0148e+01	6.0349	57.121434	0.000466	4.661677	0.789709	0.000093
 305	3.0248e+01	6.0558	57.254659	0.000669	6.688493	1.133061	0.000134
 306	3.0348e+01	6.0755	57.420182	0.000831	8.309946	1.407743	0.000166
 307	3.0447e+01	6.0955	57.557444	0.000689	6.891175	1.167397	0.000138
 308	3.0547e+01	6.1152	57.735078	0.000892	8.917991	1.510749	0.000179
 309	3.0646e+01	6.1350	57.840044	0.000527	5.269722	0.892715	0.000105
 310	3.0745e+01	6.1544	57.977306	0.000689	6.891175	1.167397	0.000138
 311	3.0845e+01	6.1743	58.122643	0.000730	7.296538	1.236067	0.000146
 312	3.0945e+01	6.1947	58.251832	0.000649	6.485812	1.098726	0.000130
 313	3.1044e+01	6.2147	58.401206	0.000750	7.499220	1.270402	0.000150
 314	3.1143e+01	6.2350	58.494060	0.000466	4.661677	0.789709	0.000093
 315	3.1243e+01	6.2546	58.659582	0.000831	8.309946	1.407743	0.000166
 316	3.1343e+01	6.2734	58.792808	0.000669	6.688493	1.133061	0.000134
 317	3.1442e+01	6.2954	58.917959	0.000628	6.283130	1.064391	0.000126
 318	3.1541e+01	6.3145	59.067333	0.000750	7.499220	1.270402	0.000150
 319	3.1641e+01	6.3336	59.188447	0.000608	6.080448	1.030056	0.000122
 320	3.1741e+01	6.3540	59.341858	0.000770	7.701901	1.304737	0.000154
 321	3.1840e+01	6.3747	59.479121	0.000689	6.891175	1.167397	0.000138
 322	3.1939e+01	6.3935	59.588123	0.000547	5.472403	0.927050	0.000110
 323	3.2039e+01	6.4126	59.741535	0.000770	7.701901	1.304737	0.000154
 324	3.2139e+01	6.4345	59.846500	0.000527	5.269722	0.892715	0.000105
 325	3.2238e+01	6.4541	60.003948	0.000790	7.904583	1.339073	0.000158
 326	3.2337e+01	6.4732	60.145248	0.000709	7.093856	1.201732	0.000142
 327	3.2437e+01	6.4935	60.250214	0.000527	5.269722	0.892715	0.000105
 328	3.2536e+01	6.5126	60.407662	0.000790	7.904583	1.339073	0.000158
 329	3.2636e+01	6.5332	60.540888	0.000669	6.688493	1.133061	0.000134
 330	3.2736e+01	6.5517	60.670076	0.000649	6.485812	1.098726	0.000130
 331	3.2835e+01	6.5723	60.795227	0.000628	6.283130	1.064391	0.000126
 332	3.2934e+01	6.5925	60.924415	0.000649	6.485812	1.098726	0.000130
 333	3.3034e+01	6.6124	61.069752	0.000730	7.296538	1.236067	0.000146
 334	3.3133e+01	6.6323	61.219126	0.000750	7.499220	1.270402	0.000150
 335	3.3233e+01	6.6518	61.376575	0.000790	7.904583	1.339073	0.000158
 336	3.3333e+01	6.6723	61.473466	0.000486	4.864359	0.824045	0.000097
 337	3.3432e+01	6.6923	61.622840	0.000750	7.499220	1.270402	0.000150
 338	3.3532e+01	6.7113	61.731843	0.000547	5.472403	0.927050	0.000110
 339	3.3631e+01	6.7334	61.901402	0.000851	8.512628	1.442078	0.000170
 340	3.3730e+01	6.7519	62.030591	0.000649	6.485812	1.098726	0.000130
 341	3.3830e+01	6.7719	62.167853	0.000689	6.891175	1.167397	0.000138
 342	3.3929e+01	6.7912	62.345487	0.000892	8.917991	1.510749	0.000179
 343	3.4029e+01	6.8118	62.470638	0.000628	6.283130	1.064391	0.000126
 344	3.4129e+01	6.8325	62.599827	0.000649	6.485812	1.098726	0.000130
 345	3.4228e+01	6.8521	62.696718	0.000486	4.864359	0.824045	0.000097
 346	3.4328e+01	6.8711	62.838018	0.000709	7.093856	1.201732	0.000142
 347	3.4427e+01	6.8923	62.987392	0.000750	7.499220	1.270402	0.000150
 348	3.4526e+01	6.9118	63.132729	0.000730	7.296538	1.236067	0.000146
 349	3.4626e+01	6.9310	63.286140	0.000770	7.701901	1.304737	0.000154
 350	3.4725e+01	6.9508	63.391105	0.000527	5.269722	0.892715	0.000105
 351	3.4825e+01	6.9704	63.524331	0.000669	6.688493	1.133061	0.000134
 352	3.4925e+01	6.9913	63.661593	0.000689	6.891175	1.167397	0.000138
 353	3.5024e+01	7.0117	63.778670	0.000588	5.877767	0.995721	0.000118
 354	3.5123e+01	7.0315	63.924007	0.000730	7.296538	1.236067	0.000146
 355	3.5223e+01	7.0509	64.037047	0.000568	5.675085	0.961385	0.000114
 356	3.5322e+01	7.0705	64.198533	0.000811	8.107264	1.373408	0.000162
 357	3.5422e+01	7.0915	64.355981	0.000790	7.904583	1.339073	0.000158
 358	3.5522e+01	7.1111	64.460946	0.000527	5.269722	0.892715	0.000105
 359	3.5621e+01	7.1297	64.578023	0.000588	5.877767	0.995721	0.000118
 360	3.5721e+01	7.1501	64.707212	0.000649	6.485812	1.098726	0.000130
 361	3.5820e+01	7.1701	64.900994	0.000973	9.728717	1.648089	0.000195
 362	3.5919e+01	7.1905	64.981737	0.000405	4.053632	0.686704	0.000081
 363	3.6019e+01	7.2096	65.127074	0.000730	7.296538	1.236067	0.000146
 364	3.6118e+01	7.2292	65.280485	0.000770	7.701901	1.304737	0.000154
 365	3.6218e+01	7.2501	65.417747	0.000689	6.891175	1.167397	0.000138
 366	3.6318e+01	7.2705	65.522713	0.000527	5.269722	0.892715	0.000105
 367	3.6417e+01	7.2897	65.700347	0.000892	8.917991	1.510749	0.000179
 368	3.6517e+01	7.3101	65.805313	0.000527	5.269722	0.892715	0.000105
 369	3.6616e+01	7.3297	65.942575	0.000689	6.891175	1.167397	0.000138
 370	3.6715e+01	7.3499	66.071763	0.000649	6.485812	1.098726	0.000130
 371	3.6815e+01	7.3692	66.200952	0.000649	6.485812	1.098726	0.000130
 372	3.6914e+01	7.3891	66.334177	0.000669	6.688493	1.133061	0.000134
 373	3.7014e+01	7.4090	66.479514	0.000730	7.296538	1.236067	0.000146
 374	3.7114e+01	7.4294	66.604665	0.000628	6.283130	1.064391	0.000126
 375	3.7213e+01	7.4500	66.750002	0.000730	7.296538	1.236067	0.000146
 376	3.7313e+01	7.4690	66.883228	0.000669	6.688493	1.133061	0.000134
 377	3.7412e+01	7.4886	67.044713	0.000811	8.107264	1.373408	0.000162
 378	3.7511e+01	7.5087	67.157753	0.000568	5.675085	0.961385	0.000114
 379	3.7611e+01	7.5293	67.258681	0.000507	5.067040	0.858380	0.000101
 380	3.7711e+01	7.5482	67.432278	0.000872	8.715309	1.476413	0.000174
 381	3.7810e+01	7.5687	67.484761	0.000263	2.634861	0.446358	0.000053
 382	3.7910e+01	7.5885	67.638172	0.000770	7.701901	1.304737	0.000154
 383	3.8009e+01	7.6086	67.783509	0.000730	7.296538	1.236067	0.000146
 384	3.8108e+01	7.6295	67.888475	0.000527	5.269722	0.892715	0.000105
 385	3.8208e+01	7.6491	68.049960	0.000811	8.107264	1.373408	0.000162
 386	3.8307e+01	7.6681	68.175111	0.000628	6.283130	1.064391	0.000126
 387	3.8407e+01	7.6888	68.304300	0.000649	6.485812	1.098726	0.000130
 388	3.8507e+01	7.7081	68.425414	0.000608	6.080448	1.030056	0.000122
 389	3.8606e+01	7.7271	68.570751	0.000730	7.296538	1.236067	0.000146
 390	3.8706e+01	7.7478	68.679753	0.000547	5.472403	0.927050	0.000110
 391	3.8805e+01	7.7679	68.821053	0.000709	7.093856	1.201732	0.000142
 392	3.8904e+01	7.7881	68.946204	0.000628	6.283130	1.064391	0.000126
 393	3.9004e+01	7.8078	69.103652	0.000790	7.904583	1.339073	0.000158
 394	3.9103e+01	7.8278	69.220729	0.000588	5.877767	0.995721	0.000118
 395	3.9203e+01	7.8479	69.337806	0.000588	5.877767	0.995721	0.000118
 396	3.9303e+01	7.8677	69.462958	0.000628	6.283130	1.064391	0.000126
 397	3.9402e+01	7.8875	69.612332	0.000750	7.499220	1.270402	0.000150
 398	3.9502e+01	7.9078	69.729408	0.000588	5.877767	0.995721	0.000118
 399	3.9601e+01	7.9272	69.850523	0.000608	6.080448	1.030056	0.000122
 400	3.9700e+01	7.9474	69.943377	0.000466	4.661677	0.789709	0.000093
 401	3.9800e+01	7.9669	70.125048	0.000912	9.120672	1.545084	0.000183
 402	3.9900e+01	7.9864	70.246162	0.000608	6.080448	1.030056	0.000122
 403	3.9999e+01	8.0073	70.351127	0.000527	5.269722	0.892715	0.000105
 404	4.0099e+01	8.0269	70.464167	0.000568	5.675085	0.961385	0.000114
 405	4.0198e+01	8.0472	70.629690	0.000831	8.309946	1.407743	0.000166
 406	4.0297e+01	8.0679	70.734655	0.000527	5.269722	0.892715	0.000105
 407	4.0397e+01	8.0878	70.900178	0.000831	8.309946	1.407743	0.000166
 408	4.0496e+01	8.1072	70.997069	0.000486	4.864359	0.824045	0.000097
 409	4.0596e+01	8.1274	71.142406	0.000730	7.296538	1.236067	0.000146
 410	4.0696e+01	8.1461	71.279669	0.000689	6.891175	1.167397	0.000138
 411	4.0795e+01	8.1670	71.400783	0.000608	6.080448	1.030056	0.000122
 412	4.0895e+01	8.1857	71.493637	0.000466	4.661677	0.789709	0.000093
 413	4.0994e+01	8.2056	71.606677	0.000568	5.675085	0.961385	0.000114
 414	4.1093e+01	8.2254	71.731828	0.000628	6.283130	1.064391	0.000126
 415	4.1193e+01	8.2463	71.881202	0.000750	7.499220	1.270402	0.000150
 416	4.1292e+01	8.2652	72.006353	0.000628	6.283130	1.064391	0.000126
 417	4.1392e+01	8.2872	72.099207	0.000466	4.661677	0.789709	0.000093
 418	4.1492e+01	8.3072	72.248581	0.000750	7.499220	1.270402	0.000150
 419	4.1591e+01	8.3265	72.397955	0.000750	7.499220	1.270402	0.000150
 420	4.1691e+01	8.3451	72.531181	0.000669	6.688493	1.133061	0.000134
 421	4.1790e+01	8.3649	72.624035	0.000466	4.661677	0.789709	0.000093
 422	4.1889e+01	8.3869	72.773409	0.000750	7.499220	1.270402	0.000150
 423	4.1989e+01	8.4053	72.874337	0.000507	5.067040	0.858380	0.000101
 424	4.2089e+01	8.4248	73.027748	0.000770	7.701901	1.304737	0.000154
 425	4.2188e+01	8.4452	73.132714	0.000527	5.269722	0.892715	0.000105
 426	4.2288e+01	8.4648	73.245754	0.000568	5.675085	0.961385	0.000114
 427	4.2387e+01	8.4845	73.326496	0.000405	4.053632	0.686704	0.000081
 428	4.2486e+01	8.5042	73.496056	0.000851	8.512628	1.442078	0.000170
 429	4.2586e+01	8.5254	73.617170	0.000608	6.080448	1.030056	0.000122
 430	4.2685e+01	8.5449	73.710024	0.000466	4.661677	0.789709	0.000093
 431	4.2785e+01	8.5638	73.855361	0.000730	7.296538	1.236067	0.000146
 432	4.2885e+01	8.5842	73.980512	0.000628	6.283130	1.064391	0.000126
 433	4.2984e+01	8.6050	74.097589	0.000588	5.877767	0.995721	0.000118
 434	4.3084e+01	8.6245	74.242926	0.000730	7.296538	1.236067	0.000146
 435	4.3183e+01	8.6439	74.355966	0.000568	5.675085	0.961385	0.000114
 436	4.3282e+01	8.6646	74.456894	0.000507	5.067040	0.858380	0.000101
 437	4.3382e+01	8.6849	74.614343	0.000790	7.904583	1.339073	0.000158
 438	4.3481e+01	8.7038	74.699123	0.000426	4.256314	0.721039	0.000085
 439	4.3581e+01	8.7241	74.856571	0.000790	7.904583	1.339073	0.000158
 440	4.3681e+01	8.7445	74.937314	0.000405	4.053632	0.686704	0.000081
 441	4.3780e+01	8.7640	75.066502	0.000649	6.485812	1.098726	0.000130
 442	4.3880e+01	8.7842	75.207802	0.000709	7.093856	1.201732	0.000142
 443	4.3979e+01	8.8044	75.280470	0.000365	3.648269	0.618033	0.000073
 444	4.4078e+01	8.8245	75.441956	0.000811	8.107264	1.373408	0.000162
 445	4.4178e+01	8.8431	75.498475	0.000284	2.837543	0.480693	0.000057
 446	4.4278e+01	8.8623	75.688221	0.000953	9.526036	1.613754	0.000191
 447	4.4377e+01	8.8818	75.764926	0.000385	3.850951	0.652369	0.000077
 448	4.4477e+01	8.9023	75.902189	0.000689	6.891175	1.167397	0.000138
 449	4.4576e+01	8.9237	75.986969	0.000426	4.256314	0.721039	0.000085
 450	4.4675e+01	8.9420	76.152491	0.000831	8.309946	1.407743	0.000166
 451	4.4775e+01	8.9633	76.257457	0.000527	5.269722	0.892715	0.000105
 452	4.4874e+01	8.9819	76.354348	0.000486	4.864359	0.824045	0.000097
 453	4.4974e+01	9.0031	76.495648	0.000709	7.093856	1.201732	0.000142
 454	4.5074e+01	9.0218	76.596576	0.000507	5.067040	0.858380	0.000101
 455	4.5173e+01	9.0418	76.721728	0.000628	6.283130	1.064391	0.000126
 456	4.5273e+01	9.0617	76.826693	0.000527	5.269722	0.892715	0.000105
 457	4.5372e+01	9.0823	76.963956	0.000689	6.891175	1.167397	0.000138
 458	4.5471e+01	9.1016	77.064884	0.000507	5.067040	0.858380	0.000101
 459	4.5571e+01	9.1212	77.185998	0.000608	6.080448	1.030056	0.000122
 460	4.5670e+01	9.1406	77.311149	0.000628	6.283130	1.064391	0.000126
 461	4.5770e+01	9.1618	77.432263	0.000608	6.080448	1.030056	0.000122
 462	4.5870e+01	9.1815	77.541266	0.000547	5.472403	0.927050	0.000110
 463	4.5969e+01	9.2009	77.650269	0.000547	5.472403	0.927050	0.000110
 464	4.6069e+01	9.2208	77.811754	0.000811	8.107264	1.373408	0.000162
 465	4.6168e+01	9.2419	77.908645	0.000486	4.864359	0.824045	0.000097
 466	4.6267e+01	9.2616	78.017648	0.000547	5.472403	0.927050	0.000110
 467	4.6367e+01	9.2813	78.146836	0.000649	6.485812	1.098726	0.000130
 468	4.6467e+01	9.3008	78.292173	0.000730	7.296538	1.236067	0.000146
 469	4.6566e+01	9.3213	78.397139	0.000527	5.269722	0.892715	0.000105
 470	4.6666e+01	9.3408	78.481919	0.000426	4.256314	0.721039	0.000085
 471	4.6765e+01	9.3604	78.623218	0.000709	7.093856	1.201732	0.000142
 472	4.6864e+01	9.3803	78.764518	0.000709	7.093856	1.201732	0.000142
 473	4.6964e+01	9.4010	78.889669	0.000628	6.283130	1.064391	0.000126
 474	4.7063e+01	9.4194	78.978486	0.000446	4.458995	0.755374	0.000089
 475	4.7163e+01	9.4409	79.091526	0.000568	5.675085	0.961385	0.000114
 476	4.7263e+01	9.4598	79.204566	0.000568	5.675085	0.961385	0.000114
 477	4.7362e+01	9.4794	79.341829	0.000689	6.891175	1.167397	0.000138
 478	4.7462e+01	9.4996	79.491203	0.000750	7.499220	1.270402	0.000150
 479	4.7561e+01	9.5203	79.547723	0.000284	2.837543	0.480693	0.000057
 480	4.7660e+01	9.5411	79.725357	0.000892	8.917991	1.510749	0.000179
 481	4.7760e+01	9.5605	79.834359	0.000547	5.472403	0.927050	0.000110
 482	4.7859e+01	9.5801	79.911065	0.000385	3.850951	0.652369	0.000077
 483	4.7959e+01	9.5990	80.052365	0.000709	7.093856	1.201732	0.000142
 484	4.8059e+01	9.6195	80.193664	0.000709	7.093856	1.201732	0.000142
 485	4.8158e+01	9.6389	80.298630	0.000527	5.269722	0.892715	0.000105
 486	4.8258e+01	9.6591	80.423781	0.000628	6.283130	1.064391	0.000126
 487	4.8357e+01	9.6796	80.508561	0.000426	4.256314	0.721039	0.000085
 488	4.8456e+01	9.6992	80.694269	0.000932	9.323354	1.579419	0.000187
 489	4.8556e+01	9.7192	80.787123	0.000466	4.661677	0.789709	0.000093
 490	4.8656e+01	9.7388	80.912274	0.000628	6.283130	1.064391	0.000126
 491	4.8755e+01	9.7598	81.045500	0.000669	6.688493	1.133061	0.000134
 492	4.8855e+01	9.7791	81.146428	0.000507	5.067040	0.858380	0.000101
 493	4.8954e+01	9.7987	81.231208	0.000426	4.256314	0.721039	0.000085
 494	4.9053e+01	9.8186	81.388656	0.000790	7.904583	1.339073	0.000158
 495	4.9153e+01	9.8382	81.497659	0.000547	5.472403	0.927050	0.000110
 496	4.9252e+01	9.8584	81.610699	0.000568	5.675085	0.961385	0.000114
 497	4.9352e+01	9.8792	81.723739	0.000568	5.675085	0.961385	0.000114
 498	4.9452e+01	9.8981	81.828704	0.000527	5.269722	0.892715	0.000105
 499	4.9551e+01	9.9180	82.018450	0.000953	9.526036	1.613754	0.000191
 500	4.9651e+01	9.9377	82.099192	0.000405	4.053632	0.686704	0.000081
 501	4.9750e+01	9.9591	82.248566	0.000750	7.499220	1.270402	0.000150
 502	4.9849e+01	9.9784	82.361606	0.000568	5.675085	0.961385	0.000114
 503	4.9949e+01	9.9988	82.462535	0.000507	5.067040	0.858380	0.000101
 504	5.0048e+01	9.9780	82.414089	0.000243	2.432179	0.412022	-0.000049
 505	5.0148e+01	9.9578	82.357569	0.000284	2.837543	0.480693	-0.000057
 506	5.0248e+01	9.9380	82.268752	0.000446	4.458995	0.755374	-0.000089
 507	5.0347e+01	9.9184	82.216269	0.000263	2.634861	0.446358	-0.000053
 508	5.0447e+01	9.8985	82.163787	0.000263	2.634861	0.446358	-0.000053
 509	5.0546e+01	9.8789	82.099192	0.000324	3.242906	0.549363	-0.000065
 510	5.0645e+01	9.8585	81.982115	0.000588	5.877767	0.995721	-0.000118
 511	5.0745e+01	9.8390	81.929633	0.000263	2.634861	0.446358	-0.000053
 512	5.0844e+01	9.8175	81.840816	0.000446	4.458995	0.755374	-0.000089
 513	5.0944e+01	9.7999	81.751999	0.000446	4.458995	0.755374	-0.000089
 514	5.1044e+01	9.7778	81.695479	0.000284	2.837543	0.480693	-0.000057
 515	5.1143e+01	9.7584	81.634922	0.000304	3.040224	0.515028	-0.000061
 516	5.1242e+01	9.7389	81.497659	0.000689	6.891175	1.167397	-0.000138
 517	5.1342e+01	9.7192	81.461325	0.000182	1.824134	0.309017	-0.000037
 518	5.1441e+01	9.6986	81.376545	0.000426	4.256314	0.721039	-0.000085
 519	5.1541e+01	9.6793	81.287728	0.000446	4.458995	0.755374	-0.000089
 520	5.1641e+01	9.6594	81.206985	0.000405	4.053632	0.686704	-0.000081
 521	5.1740e+01	9.6395	81.162577	0.000223	2.229498	0.377687	-0.000045
 522	5.1840e+01	9.6195	81.061648	0.000507	5.067040	0.858380	-0.000101
 523	5.1939e+01	9.5996	80.997054	0.000324	3.242906	0.549363	-0.000065
 524	5.2038e+01	9.5793	80.932460	0.000324	3.242906	0.549363	-0.000065
 525	5.2138e+01	9.5586	80.831532	0.000507	5.067040	0.858380	-0.000101
 526	5.2237e+01	9.5397	80.758863	0.000365	3.648269	0.618033	-0.000073
 527	5.2337e+01	9.5203	80.641786	0.000588	5.877767	0.995721	-0.000118
 528	5.2437e+01	9.4996	80.565081	0.000385	3.850951	0.652369	-0.000077
 529	5.2536e+01	9.4805	80.484338	0.000405	4.053632	0.686704	-0.000081
 530	5.2636e+01	9.4600	80.419744	0.000324	3.242906	0.549363	-0.000065
 531	5.2735e+01	9.4405	80.326890	0.000466	4.661677	0.789709	-0.000093
 532	5.2834e+01	9.4202	80.242110	0.000426	4.256314	0.721039	-0.000085
 533	5.2934e+01	9.3996	80.157330	0.000426	4.256314	0.721039	-0.000085
 534	5.3033e+01	9.3799	80.092736	0.000324	3.242906	0.549363	-0.000065
 535	5.3133e+01	9.3604	80.024105	0.000345	3.445587	0.583698	-0.000069
 536	5.3233e+01	9.3412	79.935288	0.000446	4.458995	0.755374	-0.000089
 537	5.3332e+01	9.3213	79.878768	0.000284	2.837543	0.480693	-0.000057
 538	5.3431e+01	9.3018	79.745542	0.000669	6.688493	1.133061	-0.000134
 539	5.3531e+01	9.2810	79.672874	0.000365	3.648269	0.618033	-0.000073
 540	5.3630e+01	9.2604	79.563871	0.000547	5.472403	0.927050	-0.000110
 541	5.3730e+01	9.2410	79.495240	0.000345	3.445587	0.583698	-0.000069
 542	5.3830e+01	9.2212	79.378163	0.000588	5.877767	0.995721	-0.000118
 543	5.3929e+01	9.2017	79.329717	0.000243	2.432179	0.412022	-0.000049
 544	5.4029e+01	9.1821	79.244937	0.000426	4.256314	0.721039	-0.000085
 545	5.4128e+01	9.1619	79.131898	0.000568	5.675085	0.961385	-0.000114
 546	5.4227e+01	9.1417	79.035006	0.000486	4.864359	0.824045	-0.000097
 547	5.4327e+01	9.1223	78.990598	0.000223	2.229498	0.377687	-0.000045
 548	5.4426e+01	9.1016	78.889669	0.000507	5.067040	0.858380	-0.000101
 549	5.4526e+01	9.0820	78.772593	0.000588	5.877767	0.995721	-0.000118
 550	5.4626e+01	9.0629	78.691850	0.000405	4.053632	0.686704	-0.000081
 551	5.4725e+01	9.0430	78.594959	0.000486	4.864359	0.824045	-0.000097
 552	5.4825e+01	9.0224	78.514216	0.000405	4.053632	0.686704	-0.000081
 553	5.4924e+01	9.0018	78.417325	0.000486	4.864359	0.824045	-0.000097
 554	5.5023e+01	8.9819	78.340619	0.000385	3.850951	0.652369	-0.000077
 555	5.5123e+01	8.9617	78.247765	0.000466	4.661677	0.789709	-0.000093
 556	5.5222e+01	8.9421	78.150874	0.000486	4.864359	0.824045	-0.000097
 557	5.5322e+01	8.9234	78.053982	0.000486	4.864359	0.824045	-0.000097
 558	5.5422e+01	8.9017	77.932868	0.000608	6.080448	1.030056	-0.000122
 559	5.5521e+01	8.8828	77.864237	0.000345	3.445587	0.583698	-0.000069
 560	5.5620e+01	8.8626	77.771383	0.000466	4.661677	0.789709	-0.000093
 561	5.5720e+01	8.8428	77.678529	0.000466	4.661677	0.789709	-0.000093
 562	5.5819e+01	8.8235	77.609897	0.000345	3.445587	0.583698	-0.000069
 563	5.5919e+01	8.8042	77.517043	0.000466	4.661677	0.789709	-0.000093
 564	5.6019e+01	8.7842	77.412078	0.000527	5.269722	0.892715	-0.000105
 565	5.6118e+01	8.7646	77.335372	0.000385	3.850951	0.652369	-0.000077
 566	5.6218e+01	8.7438	77.238481	0.000486	4.864359	0.824045	-0.000097
 567	5.6317e+01	8.7238	77.145627	0.000466	4.661677	0.789709	-0.000093
 568	5.6416e+01	8.7036	77.036624	0.000547	5.472403	0.927050	-0.000110
 569	5.6516e+01	8.6842	76.963956	0.000365	3.648269	0.618033	-0.000073
 570	5.6615e+01	8.6644	76.867064	0.000486	4.864359	0.824045	-0.000097
 571	5.6715e+01	8.6439	76.762099	0.000527	5.269722	0.892715	-0.000105
 572	5.6815e+01	8.6240	76.689430	0.000365	3.648269	0.618033	-0.000073
 573	5.6914e+01	8.6047	76.572354	0.000588	5.877767	0.995721	-0.000118
 574	5.7014e+01	8.5850	76.507759	0.000324	3.242906	0.549363	-0.000065
 575	5.7113e+01	8.5650	76.398757	0.000547	5.472403	0.927050	-0.000110
 576	5.7212e+01	8.5441	76.301865	0.000486	4.864359	0.824045	-0.000097
 577	5.7312e+01	8.5255	76.200937	0.000507	5.067040	0.858380	-0.000101
 578	5.7411e+01	8.5041	76.104046	0.000486	4.864359	0.824045	-0.000097
 579	5.7511e+01	8.4846	75.991006	0.000568	5.675085	0.961385	-0.000114
 580	5.7611e+01	8.4650	75.914300	0.000385	3.850951	0.652369	-0.000077
 581	5.7710e+01	8.4438	75.825483	0.000446	4.458995	0.755374	-0.000089
 582	5.7809e+01	8.4244	75.708406	0.000588	5.877767	0.995721	-0.000118
 583	5.7909e+01	8.4049	75.599404	0.000547	5.472403	0.927050	-0.000110
 584	5.8008e+01	8.3858	75.526735	0.000365	3.648269	0.618033	-0.000073
 585	5.8108e+01	8.3652	75.429844	0.000486	4.864359	0.824045	-0.000097
 586	5.8208e+01	8.3456	75.288544	0.000709	7.093856	1.201732	-0.000142
 587	5.8307e+01	8.3252	75.223950	0.000324	3.242906	0.549363	-0.000065
 588	5.8407e+01	8.3057	75.127059	0.000486	4.864359	0.824045	-0.000097
 589	5.8506e+01	8.2837	75.014019	0.000568	5.675085	0.961385	-0.000114
 590	5.8605e+01	8.2666	74.909054	0.000527	5.269722	0.892715	-0.000105
 591	5.8705e+01	8.2462	74.828311	0.000405	4.053632	0.686704	-0.000081
 592	5.8804e+01	8.2254	74.682974	0.000730	7.296538	1.236067	-0.000146
 593	5.8904e+01	8.2059	74.610306	0.000365	3.648269	0.618033	-0.000073
 594	5.9004e+01	8.1860	74.493229	0.000588	5.877767	0.995721	-0.000118
 595	5.9103e+01	8.1666	74.424597	0.000345	3.445587	0.583698	-0.000069
 596	5.9203e+01	8.1463	74.287335	0.000689	6.891175	1.167397	-0.000138
 597	5.9302e+01	8.1258	74.190443	0.000486	4.864359	0.824045	-0.000097
 598	5.9401e+01	8.1070	74.117775	0.000365	3.648269	0.618033	-0.000073
 599	5.9501e+01	8.0860	74.020884	0.000486	4.864359	0.824045	-0.000097
 600	5.9600e+01	8.0658	73.895733	0.000628	6.283130	1.064391	-0.000126
 601	5.9700e+01	8.0471	73.790767	0.000527	5.269722	0.892715	-0.000105
 602	5.9800e+01	8.0254	73.701950	0.000446	4.458995	0.755374	-0.000089
 603	5.9899e+01	8.0064	73.584873	0.000588	5.877767	0.995721	-0.000118
 604	5.9998e+01	7.9867	73.496056	0.000446	4.458995	0.755374	-0.000089
 605	6.0098e+01	7.9656	73.403202	0.000466	4.661677	0.789709	-0.000093
 606	6.0197e+01	7.9483	73.290162	0.000568	5.675085	0.961385	-0.000114
 607	6.0297e+01	7.9272	73.160974	0.000649	6.485812	1.098726	-0.000130
 608	6.0397e+01	7.9066	73.088305	0.000365	3.648269	0.618033	-0.000073
 609	6.0496e+01	7.8879	72.975266	0.000568	5.675085	0.961385	-0.000114
 610	6.0596e+01	7.8678	72.854152	0.000608	6.080448	1.030056	-0.000122
 611	6.0695e+01	7.8467	72.753223	0.000507	5.067040	0.858380	-0.000101
 612	6.0794e+01	7.8267	72.660369	0.000466	4.661677	0.789709	-0.000093
 613	6.0894e+01	7.8087	72.535218	0.000628	6.283130	1.064391	-0.000126
 614	6.0993e+01	7.7869	72.410067	0.000628	6.283130	1.064391	-0.000126
 615	6.1093e+01	7.7673	72.317212	0.000466	4.661677	0.789709	-0.000093
 616	6.1193e+01	7.7480	72.183987	0.000669	6.688493	1.133061	-0.000134
 617	6.1292e+01	7.7282	72.123430	0.000304	3.040224	0.515028	-0.000061
 618	6.1392e+01	7.7085	71.957907	0.000831	8.309946	1.407743	-0.000166
 619	6.1491e+01	7.6881	71.861016	0.000486	4.864359	0.824045	-0.000097
 620	6.1590e+01	7.6693	71.796422	0.000324	3.242906	0.549363	-0.000065
 621	6.1690e+01	7.6487	71.679345	0.000588	5.877767	0.995721	-0.000118
 622	6.1789e+01	7.6276	71.558231	0.000608	6.080448	1.030056	-0.000122
 623	6.1889e+01	7.6087	71.437117	0.000608	6.080448	1.030056	-0.000122
 624	6.1989e+01	7.5887	71.352337	0.000426	4.256314	0.721039	-0.000085
 625	6.2088e+01	7.5689	71.243334	0.000547	5.472403	0.927050	-0.000110
 626	6.2188e+01	7.5494	71.126257	0.000588	5.877767	0.995721	-0.000118
 627	6.2287e+01	7.5295	70.997069	0.000649	6.485812	1.098726	-0.000130
 628	6.2386e+01	7.5095	70.896141	0.000507	5.067040	0.858380	-0.000101
 629	6.2486e+01	7.4884	70.811361	0.000426	4.256314	0.721039	-0.000085
 630	6.2586e+01	7.4696	70.710432	0.000507	5.067040	0.858380	-0.000101
 631	6.2685e+01	7.4494	70.557021	0.000770	7.701901	1.304737	-0.000154
 632	6.2785e+01	7.4300	70.456093	0.000507	5.067040	0.858380	-0.000101
 633	6.2884e+01	7.4100	70.371313	0.000426	4.256314	0.721039	-0.000085
 634	6.2983e+01	7.3893	70.258273	0.000568	5.675085	0.961385	-0.000114
 635	6.3083e+01	7.3684	70.116973	0.000709	7.093856	1.201732	-0.000142
 636	6.3182e+01	7.3489	70.048342	0.000345	3.445587	0.583698	-0.000069
 637	6.3282e+01	7.3298	69.911080	0.000689	6.891175	1.167397	-0.000138
 638	6.3382e+01	7.3096	69.826300	0.000426	4.256314	0.721039	-0.000085
 639	6.3481e+01	7.2901	69.709223	0.000588	5.877767	0.995721	-0.000118
 640	6.3581e+01	7.2707	69.592146	0.000588	5.877767	0.995721	-0.000118
 641	6.3680e+01	7.2501	69.471032	0.000608	6.080448	1.030056	-0.000122
 642	6.3779e+01	7.2295	69.378178	0.000466	4.661677	0.789709	-0.000093
 643	6.3879e+01	7.2100	69.261101	0.000588	5.877767	0.995721	-0.000118
 644	6.3978e+01	7.1902	69.160172	0.000507	5.067040	0.858380	-0.000101
 645	6.4078e+01	7.1698	69.039058	0.000608	6.080448	1.030056	-0.000122
 646	6.4177e+01	7.1503	68.877573	0.000811	8.107264	1.373408	-0.000162
 647	6.4277e+01	7.1310	68.804904	0.000365	3.648269	0.618033	-0.000073
 648	6.4376e+01	7.1121	68.752422	0.000263	2.634861	0.446358	-0.000053
 649	6.4476e+01	7.0910	68.582862	0.000851	8.512628	1.442078	-0.000170
 650	6.4576e+01	7.0703	68.477896	0.000527	5.269722	0.892715	-0.000105
 651	6.4675e+01	7.0516	68.376968	0.000507	5.067040	0.858380	-0.000101
 652	6.4775e+01	7.0313	68.296225	0.000405	4.053632	0.686704	-0.000081
 653	6.4874e+01	7.0110	68.150888	0.000730	7.296538	1.236067	-0.000146
 654	6.4974e+01	6.9910	68.025737	0.000628	6.283130	1.064391	-0.000126
 655	6.5073e+01	6.9714	67.904623	0.000608	6.080448	1.030056	-0.000122
 656	6.5172e+01	6.9518	67.811769	0.000466	4.661677	0.789709	-0.000093
 657	6.5272e+01	6.9321	67.698729	0.000568	5.675085	0.961385	-0.000114
 658	6.5371e+01	6.9121	67.561467	0.000689	6.891175	1.167397	-0.000138
 659	6.5471e+01	6.8911	67.456501	0.000527	5.269722	0.892715	-0.000105
 660	6.5570e+01	6.8718	67.343461	0.000568	5.675085	0.961385	-0.000114
 661	6.5670e+01	6.8508	67.218310	0.000628	6.283130	1.064391	-0.000126
 662	6.5769e+01	6.8310	67.129493	0.000446	4.458995	0.755374	-0.000089
 663	6.5869e+01	6.8127	67.004342	0.000628	6.283130	1.064391	-0.000126
 664	6.5969e+01	6.7912	66.883228	0.000608	6.080448	1.030056	-0.000122
 665	6.6068e+01	6.7727	66.798448	0.000426	4.256314	0.721039	-0.000085
 666	6.6168e+01	6.7518	66.685408	0.000568	5.675085	0.961385	-0.000114
 667	6.6267e+01	6.7316	66.584480	0.000507	5.067040	0.858380	-0.000101
 668	6.6367e+01	6.7128	66.475477	0.000547	5.472403	0.927050	-0.000110
 669	6.6466e+01	6.6914	66.350326	0.000628	6.283130	1.064391	-0.000126
 670	6.6566e+01	6.6715	66.213063	0.000689	6.891175	1.167397	-0.000138
 671	6.6665e+01	6.6515	66.112135	0.000507	5.067040	0.858380	-0.000101
 672	6.6764e+01	6.6317	65.995058	0.000588	5.877767	0.995721	-0.000118
 673	6.6864e+01	6.6122	65.882018	0.000568	5.675085	0.961385	-0.000114
 674	6.6963e+01	6.5930	65.744755	0.000689	6.891175	1.167397	-0.000138
 675	6.7063e+01	6.5723	65.631716	0.000568	5.675085	0.961385	-0.000114
 676	6.7162e+01	6.5529	65.550973	0.000405	4.053632	0.686704	-0.000081
 677	6.7262e+01	6.5336	65.413710	0.000689	6.891175	1.167397	-0.000138
 678	6.7362e+01	6.5124	65.337005	0.000385	3.850951	0.652369	-0.000077
 679	6.7461e+01	6.4924	65.232039	0.000527	5.269722	0.892715	-0.000105
 680	6.7561e+01	6.4729	65.062480	0.000851	8.512628	1.442078	-0.000170
 681	6.7660e+01	6.4532	64.969625	0.000466	4.661677	0.789709	-0.000093
 682	6.7760e+01	6.4333	64.876771	0.000466	4.661677	0.789709	-0.000093
 683	6.7859e+01	6.4132	64.731434	0.000730	7.296538	1.236067	-0.000146
 684	6.7959e+01	6.3932	64.626469	0.000527	5.269722	0.892715	-0.000105
 685	6.8058e+01	6.3732	64.541689	0.000426	4.256314	0.721039	-0.000085
 686	6.8157e+01	6.3527	64.420575	0.000608	6.080448	1.030056	-0.000122
 687	6.8257e+01	6.3343	64.283312	0.000689	6.891175	1.167397	-0.000138
 688	6.8356e+01	6.3128	64.186421	0.000486	4.864359	0.824045	-0.000097
 689	6.8456e+01	6.2945	64.053196	0.000669	6.688493	1.133061	-0.000134
 690	6.8555e+01	6.2744	63.972453	0.000405	4.053632	0.686704	-0.000081
 691	6.8655e+01	6.2540	63.835190	0.000689	6.891175	1.167397	-0.000138
 692	6.8754e+01	6.2347	63.714076	0.000608	6.080448	1.030056	-0.000122
 693	6.8854e+01	6.2150	63.580851	0.000669	6.688493	1.133061	-0.000134
 694	6.8954e+01	6.1952	63.500108	0.000405	4.053632	0.686704	-0.000081
 695	6.9053e+01	6.1758	63.391105	0.000547	5.472403	0.927050	-0.000110
 696	6.9153e+01	6.1552	63.249806	0.000709	7.093856	1.201732	-0.000142
 697	6.9252e+01	6.1358	63.165026	0.000426	4.256314	0.721039	-0.000085
 698	6.9352e+01	6.1152	63.047949	0.000588	5.877767	0.995721	-0.000118
 699	6.9451e+01	6.0942	62.922798	0.000628	6.283130	1.064391	-0.000126
 700	6.9550e+01	6.0754	62.805721	0.000588	5.877767	0.995721	-0.000118
 701	6.9650e+01	6.0549	62.692681	0.000568	5.675085	0.961385	-0.000114
 702	6.9749e+01	6.0348	62.615975	0.000385	3.850951	0.652369	-0.000077
 703	6.9849e+01	6.0156	62.498898	0.000588	5.877767	0.995721	-0.000118
 704	6.9948e+01	5.9957	62.317227	0.000912	9.120672	1.545084	-0.000183
 705	7.0048e+01	5.9762	62.252633	0.000324	3.242906	0.549363	-0.000065
 706	7.0147e+01	5.9560	62.115370	0.000689	6.891175	1.167397	-0.000138
 707	7.0247e+01	5.9353	61.990219	0.000628	6.283130	1.064391	-0.000126
 708	7.0347e+01	5.9170	61.909477	0.000405	4.053632	0.686704	-0.000081
 709	7.0446e+01	5.8953	61.804511	0.000527	5.269722	0.892715	-0.000105
 710	7.0546e+01	5.8764	61.663211	0.000709	7.093856	1.201732	-0.000142
 711	7.0645e+01	5.8562	61.574394	0.000446	4.458995	0.755374	-0.000089
 712	7.0745e+01	5.8364	61.420983	0.000770	7.701901	1.304737	-0.000154
 713	7.0844e+01	5.8172	61.324092	0.000486	4.864359	0.824045	-0.000097
 714	7.0944e+01	5.7961	61.198941	0.000628	6.283130	1.064391	-0.000126
 715	7.1043e+01	5.7769	61.069752	0.000649	6.485812	1.098726	-0.000130
 716	7.1142e+01	5.7569	60.980935	0.000446	4.458995	0.755374	-0.000089
 717	7.1242e+01	5.7368	60.863858	0.000588	5.877767	0.995721	-0.000118
 718	7.1341e+01	5.7159	60.726596	0.000689	6.891175	1.167397	-0.000138
 719	7.1441e+01	5.6966	60.633742	0.000466	4.661677	0.789709	-0.000093
 720	7.1540e+01	5.6755	60.520702	0.000568	5.675085	0.961385	-0.000114
 721	7.1640e+01	5.6565	60.379402	0.000709	7.093856	1.201732	-0.000142
 722	7.1740e+01	5.6373	60.230028	0.000750	7.499220	1.270402	-0.000150
 723	7.1839e+01	5.6164	60.108914	0.000608	6.080448	1.030056	-0.000122
 724	7.1939e+01	5.5972	60.024134	0.000426	4.256314	0.721039	-0.000085
 725	7.2038e+01	5.5773	59.862649	0.000811	8.107264	1.373408	-0.000162
 726	7.2138e+01	5.5569	59.781906	0.000405	4.053632	0.686704	-0.000081
 727	7.2237e+01	5.5376	59.616383	0.000831	8.309946	1.407743	-0.000166
 728	7.2337e+01	5.5160	59.535641	0.000405	4.053632	0.686704	-0.000081
 729	7.2436e+01	5.4977	59.426638	0.000547	5.472403	0.927050	-0.000110
 730	7.2535e+01	5.4778	59.297450	0.000649	6.485812	1.098726	-0.000130
 731	7.2635e+01	5.4574	59.160187	0.000689	6.891175	1.167397	-0.000138
 732	7.2734e+01	5.4365	59.059259	0.000507	5.067040	0.858380	-0.000101
 733	7.2834e+01	5.4176	58.958330	0.000507	5.067040	0.858380	-0.000101
 734	7.2933e+01	5.3976	58.804919	0.000770	7.701901	1.304737	-0.000154
 735	7.3033e+01	5.3773	58.708028	0.000486	4.864359	0.824045	-0.000097
 736	7.3132e+01	5.3579	58.582877	0.000628	6.283130	1.064391	-0.000126
 737	7.3232e+01	5.3382	58.437540	0.000730	7.296538	1.236067	-0.000146
 738	7.3332e+01	5.3182	58.340649	0.000486	4.864359	0.824045	-0.000097
 739	7.3431e+01	5.2987	58.223572	0.000588	5.877767	0.995721	-0.000118
 740	7.3531e+01	5.2775	58.106495	0.000588	5.877767	0.995721	-0.000118
 741	7.3630e+01	5.2578	57.961158	0.000730	7.296538	1.236067	-0.000146
 742	7.3730e+01	5.2383	57.807747	0.000770	7.701901	1.304737	-0.000154
 743	7.3829e+01	5.2181	57.710855	0.000486	4.864359	0.824045	-0.000097
 744	7.3928e+01	5.1984	57.601853	0.000547	5.472403	0.927050	-0.000110
 745	7.4028e+01	5.1785	57.480739	0.000608	6.080448	1.030056	-0.000122
 746	7.4127e+01	5.1592	57.343476	0.000689	6.891175	1.167397	-0.000138
 747	7.4227e+01	5.1385	57.214288	0.000649	6.485812	1.098726	-0.000130
 748	7.4326e+01	5.1184	57.081062	0.000669	6.688493	1.133061	-0.000134
 749	7.4426e+01	5.0996	56.951874	0.000649	6.485812	1.098726	-0.000130
 750	7.4525e+01	5.0782	56.838834	0.000568	5.675085	0.961385	-0.000114
 751	7.4625e+01	5.0588	56.697534	0.000709	7.093856	1.201732	-0.000142
 752	7.4725e+01	5.0386	56.560272	0.000689	6.891175	1.167397	-0.000138
 753	7.4824e+01	5.0204	56.439158	0.000608	6.080448	1.030056	-0.000122
 754	7.4924e+01	5.0000	56.342266	0.000486	4.864359	0.824045	-0.000097
 755	7.5023e+01	4.9789	56.241338	0.000507	5.067040	0.858380	-0.000101
 756	7.5123e+01	4.9603	56.087927	0.000770	7.701901	1.304737	-0.000154
 757	7.5222e+01	4.9407	55.958738	0.000649	6.485812	1.098726	-0.000130
 758	7.5322e+01	4.9206	55.833587	0.000628	6.283130	1.064391	-0.000126
 759	7.5421e+01	4.9001	55.676139	0.000790	7.904583	1.339073	-0.000158
 760	7.5520e+01	4.8801	55.559062	0.000588	5.877767	0.995721	-0.000118
 761	7.5620e+01	4.8605	55.441985	0.000588	5.877767	0.995721	-0.000118
 762	7.5719e+01	4.8402	55.292611	0.000750	7.499220	1.270402	-0.000150
 763	7.5819e+01	4.8205	55.167460	0.000628	6.283130	1.064391	-0.000126
 764	7.5918e+01	4.7993	55.070569	0.000486	4.864359	0.824045	-0.000097
 765	7.6018e+01	4.7797	54.925232	0.000730	7.296538	1.236067	-0.000146
 766	7.6118e+01	4.7607	54.808155	0.000588	5.877767	0.995721	-0.000118
 767	7.6217e+01	4.7401	54.674929	0.000669	6.688493	1.133061	-0.000134
 768	7.6317e+01	4.7214	54.521518	0.000770	7.701901	1.304737	-0.000154
 769	7.6416e+01	4.7001	54.408478	0.000568	5.675085	0.961385	-0.000114
 770	7.6516e+01	4.6810	54.283327	0.000628	6.283130	1.064391	-0.000126
 771	7.6615e+01	4.6603	54.162213	0.000608	6.080448	1.030056	-0.000122
 772	7.6715e+01	4.6413	54.008802	0.000770	7.701901	1.304737	-0.000154
 773	7.6814e+01	4.6206	53.883651	0.000628	6.283130	1.064391	-0.000126
 774	7.6913e+01	4.6012	53.738314	0.000730	7.296538	1.236067	-0.000146
 775	7.7013e+01	4.5813	53.641423	0.000486	4.864359	0.824045	-0.000097
 776	7.7112e+01	4.5619	53.479937	0.000811	8.107264	1.373408	-0.000162
 777	7.7212e+01	4.5412	53.350749	0.000649	6.485812	1.098726	-0.000130
 778	7.7311e+01	4.5211	53.237709	0.000568	5.675085	0.961385	-0.000114
 779	7.7411e+01	4.5011	53.084298	0.000770	7.701901	1.304737	-0.000154
 780	7.7510e+01	4.4801	52.938961	0.000730	7.296538	1.236067	-0.000146
 781	7.7610e+01	4.4615	52.825921	0.000568	5.675085	0.961385	-0.000114
 782	7.7710e+01	4.4419	52.628101	0.000993	9.931399	1.682425	-0.000199
 783	7.7809e+01	4.4209	52.523136	0.000527	5.269722	0.892715	-0.000105
 784	7.7909e+01	4.4016	52.385873	0.000689	6.891175	1.167397	-0.000138
 785	7.8008e+01	4.3822	52.264759	0.000608	6.080448	1.030056	-0.000122
 786	7.8108e+01	4.3620	52.127497	0.000689	6.891175	1.167397	-0.000138
 787	7.8207e+01	4.3423	52.002345	0.000628	6.283130	1.064391	-0.000126
 788	7.8306e+01	4.3214	51.832786	0.000851	8.512628	1.442078	-0.000170
 789	7.8406e+01	4.3037	51.707635	0.000628	6.283130	1.064391	-0.000126
 790	7.8505e+01	4.2830	51.574409	0.000669	6.688493	1.133061	-0.000134
 791	7.8605e+01	4.2617	51.433109	0.000709	7.093856	1.201732	-0.000142
 792	7.8704e+01	4.2422	51.291810	0.000709	7.093856	1.201732	-0.000142
 793	7.8804e+01	4.2226	51.174733	0.000588	5.877767	0.995721	-0.000118
 794	7.8903e+01	4.2029	51.009210	0.000831	8.309946	1.407743	-0.000166
 795	7.9003e+01	4.1822	50.888096	0.000608	6.080448	1.030056	-0.000122
 796	7.9103e+01	4.1630	50.754870	0.000669	6.688493	1.133061	-0.000134
 797	7.9202e+01	4.1426	50.609534	0.000730	7.296538	1.236067	-0.000146
 798	7.9302e+01	4.1225	50.488420	0.000608	6.080448	1.030056	-0.000122
 799	7.9401e+01	4.1032	50.339046	0.000750	7.499220	1.270402	-0.000150
 800	7.9501e+01	4.0825	50.169486	0.000851	8.512628	1.442078	-0.000170
 801	7.9600e+01	4.0626	50.036260	0.000669	6.688493	1.133061	-0.000134
 802	7.9700e+01	4.0430	49.931295	0.000527	5.269722	0.892715	-0.000105
 803	7.9799e+01	4.0236	49.777884	0.000770	7.701901	1.304737	-0.000154
 804	7.9898e+01	4.0028	49.656770	0.000608	6.080448	1.030056	-0.000122
 805	7.9998e+01	3.9841	49.511433	0.000730	7.296538	1.236067	-0.000146
 806	8.0097e+01	3.9640	49.374170	0.000689	6.891175	1.167397	-0.000138
 807	8.0197e+01	3.9431	49.269205	0.000527	5.269722	0.892715	-0.000105
 808	8.0296e+01	3.9239	49.079459	0.000953	9.526036	1.613754	-0.000191
 809	8.0396e+01	3.9047	48.938159	0.000709	7.093856	1.201732	-0.000142
 810	8.0496e+01	3.8840	48.800897	0.000689	6.891175	1.167397	-0.000138
 811	8.0595e+01	3.8634	48.679783	0.000608	6.080448	1.030056	-0.000122
 812	8.0695e+01	3.8440	48.526372	0.000770	7.701901	1.304737	-0.000154
 813	8.0794e+01	3.8240	48.389109	0.000689	6.891175	1.167397	-0.000138
 814	8.0894e+01	3.8039	48.235698	0.000770	7.701901	1.304737	-0.000154
 815	8.0993e+01	3.7838	48.106509	0.000649	6.485812	1.098726	-0.000130
 816	8.1093e+01	3.7657	47.977321	0.000649	6.485812	1.098726	-0.000130
 817	8.1192e+01	3.7445	47.815836	0.000811	8.107264	1.373408	-0.000162
 818	8.1291e+01	3.7252	47.731056	0.000426	4.256314	0.721039	-0.000085
 819	8.1391e+01	3.7041	47.553422	0.000892	8.917991	1.510749	-0.000179
 820	8.1490e+01	3.6861	47.432308	0.000608	6.080448	1.030056	-0.000122
 821	8.1590e+01	3.6654	47.258711	0.000872	8.715309	1.476413	-0.000174
 822	8.1689e+01	3.6447	47.165857	0.000466	4.661677	0.789709	-0.000093
 823	8.1789e+01	3.6259	46.976111	0.000953	9.526036	1.613754	-0.000191
 824	8.1888e+01	3.6054	46.863072	0.000568	5.675085	0.961385	-0.000114
 825	8.1988e+01	3.5857	46.721772	0.000709	7.093856	1.201732	-0.000142
 826	8.2088e+01	3.5645	46.564324	0.000790	7.904583	1.339073	-0.000158
 827	8.2187e+01	3.5447	46.406875	0.000790	7.904583	1.339073	-0.000158
 828	8.2287e+01	3.5260	46.289798	0.000588	5.877767	0.995721	-0.000118
 829	8.2386e+01	3.5059	46.136387	0.000770	7.701901	1.304737	-0.000154
 830	8.2486e+01	3.4855	46.015273	0.000608	6.080448	1.030056	-0.000122
 831	8.2585e+01	3.4656	45.857825	0.000790	7.904583	1.339073	-0.000158
 832	8.2684e+01	3.4451	45.704414	0.000770	7.701901	1.304737	-0.000154
 833	8.2784e+01	3.4257	45.551003	0.000770	7.701901	1.304737	-0.000154
 834	8.2883e+01	3.4058	45.417777	0.000669	6.688493	1.133061	-0.000134
 835	8.2983e+01	3.3865	45.280514	0.000689	6.891175	1.167397	-0.000138
 836	8.3082e+01	3.3665	45.131140	0.000750	7.499220	1.270402	-0.000150
 837	8.3182e+01	3.3457	45.014063	0.000588	5.877767	0.995721	-0.000118
 838	8.3281e+01	3.3262	44.856615	0.000790	7.904583	1.339073	-0.000158
 839	8.3381e+01	3.3071	44.707241	0.000750	7.499220	1.270402	-0.000150
 840	8.3481e+01	3.2864	44.553830	0.000770	7.701901	1.304737	-0.000154
 841	8.3580e+01	3.2657	44.432716	0.000608	6.080448	1.030056	-0.000122
 842	8.3680e+01	3.2460	44.295453	0.000689	6.891175	1.167397	-0.000138
 843	8.3779e+01	3.2266	44.162228	0.000669	6.688493	1.133061	-0.000134
 844	8.3879e+01	3.2068	44.024965	0.000689	6.891175	1.167397	-0.000138
 845	8.3978e+01	3.1861	43.855406	0.000851	8.512628	1.442078	-0.000170
 846	8.4078e+01	3.1664	43.738329	0.000588	5.877767	0.995721	-0.000118
 847	8.4177e+01	3.1474	43.532435	0.001034	10.336762	1.751095	-0.000207
 848	8.4276e+01	3.1272	43.427469	0.000527	5.269722	0.892715	-0.000105
 849	8.4376e+01	3.1074	43.274058	0.000770	7.701901	1.304737	-0.000154
 850	8.4475e+01	3.0872	43.132758	0.000709	7.093856	1.201732	-0.000142
 851	8.4575e+01	3.0672	43.003570	0.000649	6.485812	1.098726	-0.000130
 852	8.4674e+01	3.0476	42.870344	0.000669	6.688493	1.133061	-0.000134
 853	8.4774e+01	3.0284	42.741156	0.000649	6.485812	1.098726	-0.000130
 854	8.4874e+01	3.0074	42.551411	0.000953	9.526036	1.613754	-0.000191
 855	8.4973e+01	2.9874	42.430297	0.000608	6.080448	1.030056	-0.000122
 856	8.5073e+01	2.9678	42.280923	0.000750	7.499220	1.270402	-0.000150
 857	8.5172e+01	2.9473	42.131549	0.000750	7.499220	1.270402	-0.000150
 858	8.5272e+01	2.9280	41.961989	0.000851	8.512628	1.442078	-0.000170
 859	8.5371e+01	2.9079	41.844912	0.000588	5.877767	0.995721	-0.000118
 860	8.5471e+01	2.8867	41.723798	0.000608	6.080448	1.030056	-0.000122
 861	8.5570e+01	2.8689	41.530015	0.000973	9.728717	1.648089	-0.000195
 862	8.5669e+01	2.8466	41.408901	0.000608	6.080448	1.030056	-0.000122
 863	8.5769e+01	2.8284	41.239342	0.000851	8.512628	1.442078	-0.000170
 864	8.5868e+01	2.8079	41.158599	0.000405	4.053632	0.686704	-0.000081
 865	8.5968e+01	2.7879	40.993076	0.000831	8.309946	1.407743	-0.000166
 866	8.6067e+01	2.7687	40.839665	0.000770	7.701901	1.304737	-0.000154
 867	8.6167e+01	2.7482	40.702403	0.000689	6.891175	1.167397	-0.000138
 868	8.6266e+01	2.7287	40.561103	0.000709	7.093856	1.201732	-0.000142
 869	8.6366e+01	2.7084	40.387506	0.000872	8.715309	1.476413	-0.000174
 870	8.6466e+01	2.6876	40.258318	0.000649	6.485812	1.098726	-0.000130
 871	8.6565e+01	2.6694	40.117018	0.000709	7.093856	1.201732	-0.000142
 872	8.6665e+01	2.6485	39.967644	0.000750	7.499220	1.270402	-0.000150
 873	8.6764e+01	2.6301	39.834418	0.000669	6.688493	1.133061	-0.000134
 874	8.6864e+01	2.6082	39.632562	0.001013	10.134081	1.716760	-0.000203
 875	8.6963e+01	2.5890	39.551819	0.000405	4.053632	0.686704	-0.000081
 876	8.7063e+01	2.5689	39.422630	0.000649	6.485812	1.098726	-0.000130
 877	8.7162e+01	2.5498	39.212699	0.001054	10.539444	1.785430	-0.000211
 878	8.7261e+01	2.5288	39.119845	0.000466	4.661677	0.789709	-0.000093
 879	8.7361e+01	2.5096	38.962397	0.000790	7.904583	1.339073	-0.000158
 880	8.7460e+01	2.4902	38.780726	0.000912	9.120672	1.545084	-0.000183
 881	8.7560e+01	2.4696	38.643463	0.000689	6.891175	1.167397	-0.000138
 882	8.7659e+01	2.4496	38.506201	0.000689	6.891175	1.167397	-0.000138
 883	8.7759e+01	2.4304	38.332604	0.000872	8.715309	1.476413	-0.000174
 884	8.7859e+01	2.4099	38.191304	0.000709	7.093856	1.201732	-0.000142
 885	8.7958e+01	2.3901	38.050004	0.000709	7.093856	1.201732	-0.000142
 886	8.8058e+01	2.3703	37.892556	0.000790	7.904583	1.339073	-0.000158
 887	8.8157e+01	2.3507	37.763368	0.000649	6.485812	1.098726	-0.000130
 888	8.8257e+01	2.3297	37.581697	0.000912	9.120672	1.545084	-0.000183
 889	8.8356e+01	2.3095	37.440397	0.000709	7.093856	1.201732	-0.000142
 890	8.8456e+01	2.2902	37.327357	0.000568	5.675085	0.961385	-0.000114
 891	8.8555e+01	2.2697	37.125500	0.001013	10.134081	1.716760	-0.000203
 892	8.8654e+01	2.2509	37.036683	0.000446	4.458995	0.755374	-0.000089
 893	8.8754e+01	2.2306	36.838864	0.000993	9.931399	1.682425	-0.000199
 894	8.8853e+01	2.2111	36.697564	0.000709	7.093856	1.201732	-0.000142
 895	8.8953e+01	2.1909	36.556264	0.000709	7.093856	1.201732	-0.000142
 896	8.9052e+01	2.1714	36.398816	0.000790	7.904583	1.339073	-0.000158
 897	8.9152e+01	2.1509	36.249442	0.000750	7.499220	1.270402	-0.000150
 898	8.9251e+01	2.1306	36.067771	0.000912	9.120672	1.545084	-0.000183
 899	8.9351e+01	2.1119	35.958768	0.000547	5.472403	0.927050	-0.000110
 900	8.9451e+01	2.0910	35.809394	0.000750	7.499220	1.270402	-0.000150
 901	8.9550e+01	2.0712	35.591389	0.001094	10.944807	1.854100	-0.000219
 902	8.9650e+01	2.0521	35.462200	0.000649	6.485812	1.098726	-0.000130
 903	8.9749e+01	2.0315	35.324938	0.000689	6.891175	1.167397	-0.000138
 904	8.9849e+01	2.0113	35.187675	0.000689	6.891175	1.167397	-0.000138
 905	8.9948e+01	1.9910	34.993893	0.000973	9.728717	1.648089	-0.000195
 906	9.0047e+01	1.9715	34.880853	0.000568	5.675085	0.961385	-0.000114
 907	9.0147e+01	1.9514	34.715330	0.000831	8.309946	1.407743	-0.000166
 908	9.0246e+01	1.9312	34.537696	0.000892	8.917991	1.510749	-0.000179
 909	9.0346e+01	1.9108	34.416582	0.000608	6.080448	1.030056	-0.000122
 910	9.0445e+01	1.8920	34.247022	0.000851	8.512628	1.442078	-0.000170
 911	9.0545e+01	1.8723	34.101686	0.000730	7.296538	1.236067	-0.000146
 912	9.0644e+01	1.8517	33.964423	0.000689	6.891175	1.167397	-0.000138
 913	9.0744e+01	1.8335	33.778715	0.000932	9.323354	1.579419	-0.000187
 914	9.0844e+01	1.8124	33.645489	0.000669	6.688493	1.133061	-0.000134
 915	9.0943e+01	1.7912	33.508227	0.000689	6.891175	1.167397	-0.000138
 916	9.1043e+01	1.7719	33.306370	0.001013	10.134081	1.716760	-0.000203
 917	9.1142e+01	1.7525	33.169107	0.000689	6.891175	1.167397	-0.000138
 918	9.1242e+01	1.7324	33.011659	0.000790	7.904583	1.339073	-0.000158
 919	9.1341e+01	1.7120	32.838062	0.000872	8.715309	1.476413	-0.000174
 920	9.1441e+01	1.6918	32.716948	0.000608	6.080448	1.030056	-0.000122
 921	9.1540e+01	1.6734	32.527203	0.000953	9.526036	1.613754	-0.000191
 922	9.1639e+01	1.6524	32.377829	0.000750	7.499220	1.270402	-0.000150
 923	9.1739e+01	1.6326	32.224417	0.000770	7.701901	1.304737	-0.000154
 924	9.1838e+01	1.6132	32.030635	0.000973	9.728717	1.648089	-0.000195
 925	9.1938e+01	1.5926	31.881261	0.000750	7.499220	1.270402	-0.000150
 926	9.2037e+01	1.5731	31.748035	0.000669	6.688493	1.133061	-0.000134
 927	9.2137e+01	1.5530	31.566364	0.000912	9.120672	1.545084	-0.000183
 928	9.2237e+01	1.5337	31.408916	0.000790	7.904583	1.339073	-0.000158
 929	9.2336e+01	1.5134	31.267616	0.000709	7.093856	1.201732	-0.000142
 930	9.2436e+01	1.4928	31.106131	0.000811	8.107264	1.373408	-0.000162
 931	9.2535e+01	1.4732	30.920423	0.000932	9.323354	1.579419	-0.000187
 932	9.2635e+01	1.4539	30.795271	0.000628	6.283130	1.064391	-0.000126
 933	9.2734e+01	1.4330	30.565155	0.001155	11.552852	1.957106	-0.000231
 934	9.2834e+01	1.4129	30.460189	0.000527	5.269722	0.892715	-0.000105
 935	9.2933e+01	1.3937	30.298704	0.000811	8.107264	1.373408	-0.000162
 936	9.3032e+01	1.3741	30.133181	0.000831	8.309946	1.407743	-0.000166
 937	9.3132e+01	1.3542	29.951510	0.000912	9.120672	1.545084	-0.000183
 938	9.3231e+01	1.3332	29.773876	0.000892	8.917991	1.510749	-0.000179
 939	9.3331e+01	1.3145	29.628539	0.000730	7.296538	1.236067	-0.000146
 940	9.3430e+01	1.2940	29.471091	0.000790	7.904583	1.339073	-0.000158
 941	9.3530e+01	1.2746	29.301531	0.000851	8.512628	1.442078	-0.000170
 942	9.3629e+01	1.2546	29.172343	0.000649	6.485812	1.098726	-0.000130
 943	9.3729e+01	1.2337	28.974523	0.000993	9.931399	1.682425	-0.000199
 944	9.3829e+01	1.2144	28.813038	0.000811	8.107264	1.373408	-0.000162
 945	9.3928e+01	1.1950	28.627330	0.000932	9.323354	1.579419	-0.000187
 946	9.4028e+01	1.1754	28.477955	0.000750	7.499220	1.270402	-0.000150
 947	9.4127e+01	1.1546	28.328581	0.000750	7.499220	1.270402	-0.000150
 948	9.4227e+01	1.1353	28.146910	0.000912	9.120672	1.545084	-0.000183
 949	9.4326e+01	1.1153	27.989462	0.000790	7.904583	1.339073	-0.000158
 950	9.4425e+01	1.0960	27.803754	0.000932	9.323354	1.579419	-0.000187
 951	9.4525e+01	1.0760	27.650343	0.000770	7.701901	1.304737	-0.000154
 952	9.4624e+01	1.0569	27.460597	0.000953	9.526036	1.613754	-0.000191
 953	9.4724e+01	1.0352	27.266815	0.000973	9.728717	1.648089	-0.000195
 954	9.4823e+01	1.0161	27.173961	0.000466	4.661677	0.789709	-0.000093
 955	9.4923e+01	0.9961	26.980178	0.000973	9.728717	1.648089	-0.000195
 956	9.5022e+01	0.9755	26.842916	0.000689	6.891175	1.167397	-0.000138
 957	9.5122e+01	0.9560	26.628947	0.001074	10.742125	1.819765	-0.000215
 958	9.5222e+01	0.9351	26.467462	0.000811	8.107264	1.373408	-0.000162
 959	9.5321e+01	0.9158	26.285791	0.000912	9.120672	1.545084	-0.000183
 960	9.5421e+01	0.8966	26.140454	0.000730	7.296538	1.236067	-0.000146
 961	9.5520e+01	0.8773	25.926486	0.001074	10.742125	1.819765	-0.000215
 962	9.5620e+01	0.8556	25.793260	0.000669	6.688493	1.133061	-0.000134
 963	9.5719e+01	0.8367	25.583329	0.001054	10.539444	1.785430	-0.000211
 964	9.5819e+01	0.8160	25.433955	0.000750	7.499220	1.270402	-0.000150
 965	9.5918e+01	0.7965	25.240173	0.000973	9.728717	1.648089	-0.000195
 966	9.6017e+01	0.7765	25.082724	0.000790	7.904583	1.339073	-0.000158
 967	9.6117e+01	0.7571	24.937387	0.000730	7.296538	1.236067	-0.000146
 968	9.6216e+01	0.7364	24.792051	0.000730	7.296538	1.236067	-0.000146
 969	9.6316e+01	0.7172	24.570008	0.001115	11.147489	1.888436	-0.000223
 970	9.6415e+01	0.6970	24.448894	0.000608	6.080448	1.030056	-0.000122
 971	9.6515e+01	0.6761	24.259149	0.000953	9.526036	1.613754	-0.000191
 972	9.6615e+01	0.6569	24.133997	0.000628	6.283130	1.064391	-0.000126
 973	9.6714e+01	0.6374	23.924066	0.001054	10.539444	1.785430	-0.000211
 974	9.6814e+01	0.6181	23.702024	0.001115	11.147489	1.888436	-0.000223
 975	9.6913e+01	0.5977	23.617244	0.000426	4.256314	0.721039	-0.000085
 976	9.7013e+01	0.5776	23.447684	0.000851	8.512628	1.442078	-0.000170
 977	9.7112e+01	0.5578	23.249865	0.000993	9.931399	1.682425	-0.000199
 978	9.7212e+01	0.5369	23.060119	0.000953	9.526036	1.613754	-0.000191
 979	9.7311e+01	0.5168	22.943042	0.000588	5.877767	0.995721	-0.000118
 980	9.7410e+01	0.4975	22.729074	0.001074	10.742125	1.819765	-0.000215
 981	9.7510e+01	0.4768	22.543366	0.000932	9.323354	1.579419	-0.000187
 982	9.7609e+01	0.4574	22.418215	0.000628	6.283130	1.064391	-0.000126
 983	9.7709e+01	0.4374	22.192135	0.001135	11.350170	1.922771	-0.000227
 984	9.7808e+01	0.4179	22.058910	0.000669	6.688493	1.133061	-0.000134
 985	9.7908e+01	0.3979	21.877239	0.000912	9.120672	1.545084	-0.000183
 986	9.8007e+01	0.3774	21.744013	0.000669	6.688493	1.133061	-0.000134
 987	9.8107e+01	0.3576	21.538119	0.001034	10.336762	1.751095	-0.000207
 988	9.8207e+01	0.3386	21.348374	0.000953	9.526036	1.613754	-0.000191
 989	9.8306e+01	0.3185	21.199000	0.000750	7.499220	1.270402	-0.000150
 990	9.8406e+01	0.2978	21.013292	0.000932	9.323354	1.579419	-0.000187
 991	9.8505e+01	0.2792	20.839695	0.000872	8.715309	1.476413	-0.000174
 992	9.8605e+01	0.2591	20.682246	0.000790	7.904583	1.339073	-0.000158
 993	9.8704e+01	0.2380	20.488464	0.000973	9.728717	1.648089	-0.000195
 994	9.8803e+01	0.2186	20.322941	0.000831	8.309946	1.407743	-0.000166
 995	9.8903e+01	0.1997	20.125122	0.000993	9.931399	1.682425	-0.000199
 996	9.9002e+01	0.1795	19.951525	0.000872	8.715309	1.476413	-0.000174
 997	9.9102e+01	0.1582	19.757742	0.000973	9.728717	1.648089	-0.000195
 998	9.9201e+01	0.1382	19.640665	0.000588	5.877767	0.995721	-0.000118
 999	9.9301e+01	0.1192	19.475143	0.000831	8.309946	1.407743	-0.000166
1000	9.9400e+01	0.0986	19.329806	0.000730	7.296538	1.236067	-0.000146
1001	9.9500e+01	0.0799	19.115838	0.001074	10.742125	1.819765	-0.000215
1002	9.9600e+01	0.0591	18.950315	0.000831	8.309946	1.407743	-0.000166
1003	9.9699e+01	0.0393	18.764607	0.000932	9.323354	1.579419	-0.000187
1004	9.9799e+01	0.0189	18.566787	0.000993	9.931399	1.682425	-0.000199
1005	9.9898e+01	0.0001	18.385116	0.000912	9.120672	1.545084	-0.000183
1006	9.9998e+01	-0.0191	18.231705	0.000770	7.701901	1.304737	-0.000154
1007	1.0010e+02	-0.0391	18.106554	0.000628	6.283130	1.064391	-0.000126
1008	1.0020e+02	-0.0589	17.941031	0.000831	8.309946	1.407743	-0.000166
1009	1.0030e+02	-0.0790	17.755323	0.000932	9.323354	1.579419	-0.000187
1010	1.0040e+02	-0.0993	17.561540	0.000973	9.728717	1.648089	-0.000195
1011	1.0050e+02	-0.1180	17.424278	0.000689	6.891175	1.167397	-0.000138
1012	1.0059e+02	-0.1375	17.238570	0.000932	9.323354	1.579419	-0.000187
1013	1.0069e+02	-0.1581	17.085158	0.000770	7.701901	1.304737	-0.000154
1014	1.0079e+02	-0.1781	16.911562	0.000872	8.715309	1.476413	-0.000174
1015	1.0089e+02	-0.1987	16.689519	0.001115	11.147489	1.888436	-0.000223
1016	1.0099e+02	-0.2183	16.552257	0.000689	6.891175	1.167397	-0.000138
1017	1.0109e+02	-0.2387	16.382697	0.000851	8.512628	1.442078	-0.000170
1018	1.0119e+02	-0.2581	16.192951	0.000953	9.526036	1.613754	-0.000191
1019	1.0129e+02	-0.2777	16.043577	0.000750	7.499220	1.270402	-0.000150
1020	1.0139e+02	-0.2981	15.869981	0.000872	8.715309	1.476413	-0.000174
1021	1.0149e+02	-0.3178	15.700421	0.000851	8.512628	1.442078	-0.000170
1022	1.0159e+02	-0.3380	15.494527	0.001034	10.336762	1.751095	-0.000207
1023	1.0169e+02	-0.3578	15.337079	0.000790	7.904583	1.339073	-0.000158
1024	1.0179e+02	-0.3779	15.147333	0.000953	9.526036	1.613754	-0.000191
1025	1.0189e+02	-0.3974	14.977774	0.000851	8.512628	1.442078	-0.000170
1026	1.0199e+02	-0.4169	14.796102	0.000912	9.120672	1.545084	-0.000183
1027	1.0209e+02	-0.4377	14.626543	0.000851	8.512628	1.442078	-0.000170
1028	1.0219e+02	-0.4575	14.469094	0.000790	7.904583	1.339073	-0.000158
1029	1.0229e+02	-0.4769	14.279349	0.000953	9.526036	1.613754	-0.000191
1030	1.0239e+02	-0.4977	14.138049	0.000709	7.093856	1.201732	-0.000142
1031	1.0248e+02	-0.5162	13.972527	0.000831	8.309946	1.407743	-0.000166
1032	1.0258e+02	-0.5371	13.766633	0.001034	10.336762	1.751095	-0.000207
1033	1.0268e+02	-0.5576	13.621296	0.000730	7.296538	1.236067	-0.000146
1034	1.0278e+02	-0.5775	13.415402	0.001034	10.336762	1.751095	-0.000207
1035	1.0288e+02	-0.5969	13.278139	0.000689	6.891175	1.167397	-0.000138
1036	1.0298e+02	-0.6166	13.096468	0.000912	9.120672	1.545084	-0.000183
1037	1.0308e+02	-0.6371	12.939020	0.000790	7.904583	1.339073	-0.000158
1038	1.0318e+02	-0.6567	12.737163	0.001013	10.134081	1.716760	-0.000203
1039	1.0328e+02	-0.6760	12.595864	0.000709	7.093856	1.201732	-0.000142
1040	1.0338e+02	-0.6964	12.402081	0.000973	9.728717	1.648089	-0.000195
1041	1.0348e+02	-0.7161	12.260781	0.000709	7.093856	1.201732	-0.000142
1042	1.0358e+02	-0.7357	12.079110	0.000912	9.120672	1.545084	-0.000183
1043	1.0368e+02	-0.7558	11.861105	0.001094	10.944807	1.854100	-0.000219
1044	1.0378e+02	-0.7758	11.675397	0.000932	9.323354	1.579419	-0.000187
1045	1.0388e+02	-0.7959	11.530060	0.000730	7.296538	1.236067	-0.000146
1046	1.0398e+02	-0.8154	11.384723	0.000730	7.296538	1.236067	-0.000146
1047	1.0408e+02	-0.8356	11.199015	0.000932	9.323354	1.579419	-0.000187
1048	1.0418e+02	-0.8562	11.033492	0.000831	8.309946	1.407743	-0.000166
1049	1.0428e+02	-0.8760	10.831635	0.001013	10.134081	1.716760	-0.000203
1050	1.0438e+02	-0.8950	10.670150	0.000811	8.107264	1.373408	-0.000162
1051	1.0447e+02	-0.9160	10.472330	0.000993	9.931399	1.682425	-0.000199
1052	1.0457e+02	-0.9357	10.335067	0.000689	6.891175	1.167397	-0.000138
1053	1.0467e+02	-0.9547	10.137248	0.000993	9.931399	1.682425	-0.000199
1054	1.0477e+02	-0.9753	9.915205	0.001115	11.147489	1.888436	-0.000223
1055	1.0487e+02	-0.9953	9.794091	0.000608	6.080448	1.030056	-0.000122
1056	1.0497e+02	-1.0146	9.640680	0.000770	7.701901	1.304737	-0.000154
1057	1.0507e+02	-1.0345	9.442860	0.000993	9.931399	1.682425	-0.000199
1058	1.0517e+02	-1.0555	9.273301	0.000851	8.512628	1.442078	-0.000170
1059	1.0527e+02	-1.0748	9.095667	0.000892	8.917991	1.510749	-0.000179
1060	1.0537e+02	-1.0944	8.946293	0.000750	7.499220	1.270402	-0.000150
1061	1.0547e+02	-1.1150	8.728287	0.001094	10.944807	1.854100	-0.000219
1062	1.0557e+02	-1.1347	8.542579	0.000932	9.323354	1.579419	-0.000187
1063	1.0567e+02	-1.1555	8.373020	0.000851	8.512628	1.442078	-0.000170
1064	1.0577e+02	-1.1748	8.191348	0.000912	9.120672	1.545084	-0.000183
1065	1.0587e+02	-1.1948	8.029863	0.000811	8.107264	1.373408	-0.000162
1066	1.0597e+02	-1.2147	7.815895	0.001074	10.742125	1.819765	-0.000215
1067	1.0607e+02	-1.2344	7.714966	0.000507	5.067040	0.858380	-0.000101
1068	1.0617e+02	-1.2539	7.509072	0.001034	10.336762	1.751095	-0.000207
1069	1.0627e+02	-1.2732	7.303179	0.001034	10.336762	1.751095	-0.000207
1070	1.0637e+02	-1.2947	7.157842	0.000730	7.296538	1.236067	-0.000146
1071	1.0647e+02	-1.3131	6.980208	0.000892	8.917991	1.510749	-0.000179
1072	1.0656e+02	-1.3345	6.818722	0.000811	8.107264	1.373408	-0.000162
1073	1.0666e+02	-1.3541	6.628977	0.000953	9.526036	1.613754	-0.000191
1074	1.0676e+02	-1.3732	6.459417	0.000851	8.512628	1.442078	-0.000170
1075	1.0686e+02	-1.3935	6.293895	0.000831	8.309946	1.407743	-0.000166
1076	1.0696e+02	-1.4130	6.108186	0.000932	9.323354	1.579419	-0.000187
1077	1.0706e+02	-1.4332	5.950738	0.000790	7.904583	1.339073	-0.000158
1078	1.0716e+02	-1.4536	5.716584	0.001176	11.755533	1.991441	-0.000235
1079	1.0726e+02	-1.4738	5.603544	0.000568	5.675085	0.961385	-0.000114
1080	1.0736e+02	-1.4935	5.393613	0.001054	10.539444	1.785430	-0.000211
1081	1.0746e+02	-1.5138	5.248276	0.000730	7.296538	1.236067	-0.000146
1082	1.0756e+02	-1.5326	5.050457	0.000993	9.931399	1.682425	-0.000199
1083	1.0766e+02	-1.5533	4.852637	0.000993	9.931399	1.682425	-0.000199
1084	1.0776e+02	-1.5733	4.703263	0.000750	7.499220	1.270402	-0.000150
1085	1.0786e+02	-1.5919	4.501406	0.001013	10.134081	1.716760	-0.000203
1086	1.0796e+02	-1.6125	4.331847	0.000851	8.512628	1.442078	-0.000170
1087	1.0806e+02	-1.6330	4.166324	0.000831	8.309946	1.407743	-0.000166
1088	1.0816e+02	-1.6516	3.936207	0.001155	11.552852	1.957106	-0.000231
1089	1.0826e+02	-1.6721	3.823168	0.000568	5.675085	0.961385	-0.000114
1090	1.0836e+02	-1.6913	3.617274	0.001034	10.336762	1.751095	-0.000207
1091	1.0845e+02	-1.7122	3.443677	0.000872	8.715309	1.476413	-0.000174
1092	1.0855e+02	-1.7334	3.266043	0.000892	8.917991	1.510749	-0.000179
1093	1.0865e+02	-1.7520	3.100520	0.000831	8.309946	1.407743	-0.000166
1094	1.0875e+02	-1.7719	2.947109	0.000770	7.701901	1.304737	-0.000154
1095	1.0885e+02	-1.7918	2.757364	0.000953	9.526036	1.613754	-0.000191
1096	1.0895e+02	-1.8127	2.583767	0.000872	8.715309	1.476413	-0.000174
1097	1.0905e+02	-1.8330	2.353650	0.001155	11.552852	1.957106	-0.000231
1098	1.0915e+02	-1.8517	2.232536	0.000608	6.080448	1.030056	-0.000122
1099	1.0925e+02	-1.8726	2.014531	0.001094	10.944807	1.854100	-0.000219
1100	1.0935e+02	-1.8921	1.877268	0.000689	6.891175	1.167397	-0.000138
1101	1.0945e+02	-1.9121	1.671374	0.001034	10.336762	1.751095	-0.000207
1102	1.0955e+02	-1.9322	1.493740	0.000892	8.917991	1.510749	-0.000179
1103	1.0965e+02	-1.9514	1.303995	0.000953	9.526036	1.613754	-0.000191
1104	1.0975e+02	-1.9724	1.118287	0.000932	9.323354	1.579419	-0.000187
1105	1.0985e+02	-1.9910	0.964875	0.000770	7.701901	1.304737	-0.000154
1106	1.0995e+02	-2.0116	0.779167	0.000932	9.323354	1.579419	-0.000187
1107	1.1005e+02	-2.0309	0.589422	0.000953	9.526036	1.613754	-0.000191
1108	1.1015e+02	-2.0520	0.407751	0.000912	9.120672	1.545084	-0.000183
1109	1.1025e+02	-2.0709	0.250302	0.000790	7.904583	1.339073	-0.000158
1110	1.1035e+02	-2.0909	0.080743	0.000851	8.512628	1.442078	-0.000170
1111	1.1044e+02	-2.1116	-0.104966	0.000932	9.323354	1.579419	-0.000187
1112	1.1054e+02	-2.1310	-0.310859	0.001034	10.336762	1.751095	-0.000207
1113	1.1064e+02	-2.1506	-0.460233	0.000750	7.499220	1.270402	-0.000150
1114	1.1074e+02	-2.1712	-0.645942	0.000932	9.323354	1.579419	-0.000187
1115	1.1084e+02	-2.1905	-0.823576	0.000892	8.917991	1.510749	-0.000179
1116	1.1094e+02	-2.2108	-1.025432	0.001013	10.134081	1.716760	-0.000203
1117	1.1104e+02	-2.2298	-1.166732	0.000709	7.093856	1.201732	-0.000142
1118	1.1114e+02	-2.2512	-1.384738	0.001094	10.944807	1.854100	-0.000219
1119	1.1124e+02	-2.2699	-1.542186	0.000790	7.904583	1.339073	-0.000158
1120	1.1134e+02	-2.2902	-1.707708	0.000831	8.309946	1.407743	-0.000166
1121	1.1144e+02	-2.3095	-1.913602	0.001034	10.336762	1.751095	-0.000207
1122	1.1154e+02	-2.3298	-2.095273	0.000912	9.120672	1.545084	-0.000183
1123	1.1164e+02	-2.3503	-2.232536	0.000689	6.891175	1.167397	-0.000138
1124	1.1174e+02	-2.3703	-2.430356	0.000993	9.931399	1.682425	-0.000199
1125	1.1184e+02	-2.3895	-2.628175	0.000993	9.931399	1.682425	-0.000199
1126	1.1194e+02	-2.4097	-2.825995	0.000993	9.931399	1.682425	-0.000199
1127	1.1204e+02	-2.4301	-2.979406	0.000770	7.701901	1.304737	-0.000154
1128	1.1214e+02	-2.4493	-3.189337	0.001054	10.539444	1.785430	-0.000211
1129	1.1224e+02	-2.4703	-3.362934	0.000872	8.715309	1.476413	-0.000174
1130	1.1234e+02	-2.4897	-3.556717	0.000973	9.728717	1.648089	-0.000195
1131	1.1244e+02	-2.5092	-3.693979	0.000689	6.891175	1.167397	-0.000138
1132	1.1253e+02	-2.5289	-3.859502	0.000831	8.309946	1.407743	-0.000166
1133	1.1263e+02	-2.5488	-4.069433	0.001054	10.539444	1.785430	-0.000211
1134	1.1273e+02	-2.5690	-4.218807	0.000750	7.499220	1.270402	-0.000150
1135	1.1283e+02	-2.5883	-4.347995	0.000649	6.485812	1.098726	-0.000130
1136	1.1293e+02	-2.6085	-4.561963	0.001074	10.742125	1.819765	-0.000215
1137	1.1303e+02	-2.6278	-4.792080	0.001155	11.552852	1.957106	-0.000231
1138	1.1313e+02	-2.6482	-4.953566	0.000811	8.107264	1.373408	-0.000162
1139	1.1323e+02	-2.6685	-5.102940	0.000750	7.499220	1.270402	-0.000150
1140	1.1333e+02	-2.6880	-5.345168	0.001216	12.160897	2.060112	-0.000243
1141	1.1343e+02	-2.7074	-5.478393	0.000669	6.688493	1.133061	-0.000134
1142	1.1353e+02	-2.7283	-5.680250	0.001013	10.134081	1.716760	-0.000203
1143	1.1363e+02	-2.7480	-5.793290	0.000568	5.675085	0.961385	-0.000114
1144	1.1373e+02	-2.7669	-5.999184	0.001034	10.336762	1.751095	-0.000207
1145	1.1383e+02	-2.7890	-6.197003	0.000993	9.931399	1.682425	-0.000199
1146	1.1393e+02	-2.8085	-6.354452	0.000790	7.904583	1.339073	-0.000158
1147	1.1403e+02	-2.8276	-6.507863	0.000770	7.701901	1.304737	-0.000154
1148	1.1413e+02	-2.8481	-6.709720	0.001013	10.134081	1.716760	-0.000203
1149	1.1423e+02	-2.8680	-6.883316	0.000872	8.715309	1.476413	-0.000174
1150	1.1433e+02	-2.8876	-7.048839	0.000831	8.309946	1.407743	-0.000166
1151	1.1442e+02	-2.9074	-7.234547	0.000932	9.323354	1.579419	-0.000187
1152	1.1452e+02	-2.9272	-7.375847	0.000709	7.093856	1.201732	-0.000142
1153	1.1462e+02	-2.9466	-7.569630	0.000973	9.728717	1.648089	-0.000195
1154	1.1472e+02	-2.9671	-7.763412	0.000973	9.728717	1.648089	-0.000195
1155	1.1482e+02	-2.9874	-7.932972	0.000851	8.512628	1.442078	-0.000170
1156	1.1492e+02	-3.0078	-8.118680	0.000932	9.323354	1.579419	-0.000187
1157	1.1502e+02	-3.0267	-8.255943	0.000689	6.891175	1.167397	-0.000138
1158	1.1512e+02	-3.0467	-8.441651	0.000932	9.323354	1.579419	-0.000187
1159	1.1522e+02	-3.0669	-8.643508	0.001013	10.134081	1.716760	-0.000203
1160	1.1532e+02	-3.0871	-8.792882	0.000750	7.499220	1.270402	-0.000150
1161	1.1542e+02	-3.1067	-8.990701	0.000993	9.931399	1.682425	-0.000199
1162	1.1552e+02	-3.1270	-9.127964	0.000689	6.891175	1.167397	-0.000138
1163	1.1562e+02	-3.1467	-9.325784	0.000993	9.931399	1.682425	-0.000199
1164	1.1572e+02	-3.1665	-9.499380	0.000872	8.715309	1.476413	-0.000174
1165	1.1582e+02	-3.1862	-9.668940	0.000851	8.512628	1.442078	-0.000170
1166	1.1592e+02	-3.2057	-9.834463	0.000831	8.309946	1.407743	-0.000166
1167	1.1602e+02	-3.2272	-10.052468	0.001094	10.944807	1.854100	-0.000219
1168	1.1612e+02	-3.2463	-10.201842	0.000750	7.499220	1.270402	-0.000150
1169	1.1622e+02	-3.2655	-10.363327	0.000811	8.107264	1.373408	-0.000162
1170	1.1632e+02	-3.2861	-10.524813	0.000811	8.107264	1.373408	-0.000162
1171	1.1642e+02	-3.3063	-10.666113	0.000709	7.093856	1.201732	-0.000142
1172	1.1651e+02	-3.3261	-10.843747	0.000892	8.917991	1.510749	-0.000179
1173	1.1661e+02	-3.3459	-11.057715	0.001074	10.742125	1.819765	-0.000215
1174	1.1671e+02	-3.3656	-11.219200	0.000811	8.107264	1.373408	-0.000162
1175	1.1681e+02	-3.3859	-11.372611	0.000770	7.701901	1.304737	-0.000154
1176	1.1691e+02	-3.4050	-11.542171	0.000851	8.512628	1.442078	-0.000170
1177	1.1701e+02	-3.4260	-11.683471	0.000709	7.093856	1.201732	-0.000142
1178	1.1711e+02	-3.4459	-11.877253	0.000973	9.728717	1.648089	-0.000195
1179	1.1721e+02	-3.4651	-12.022590	0.000730	7.296538	1.236067	-0.000146
1180	1.1731e+02	-3.4854	-12.248670	0.001135	11.350170	1.922771	-0.000227
1181	1.1741e+02	-3.5057	-12.389970	0.000709	7.093856	1.201732	-0.000142
1182	1.1751e+02	-3.5249	-12.531269	0.000709	7.093856	1.201732	-0.000142
1183	1.1761e+02	-3.5458	-12.712940	0.000912	9.120672	1.545084	-0.000183
1184	1.1771e+02	-3.5652	-12.874426	0.000811	8.107264	1.373408	-0.000162
1185	1.1781e+02	-3.5850	-13.039948	0.000831	8.309946	1.407743	-0.000166
1186	1.1791e+02	-3.6047	-13.241805	0.001013	10.134081	1.716760	-0.000203
1187	1.1801e+02	-3.6252	-13.391179	0.000750	7.499220	1.270402	-0.000150
1188	1.1811e+02	-3.6442	-13.568813	0.000892	8.917991	1.510749	-0.000179
1189	1.1821e+02	-3.6652	-13.726262	0.000790	7.904583	1.339073	-0.000158
1190	1.1831e+02	-3.6846	-13.895821	0.000851	8.512628	1.442078	-0.000170
1191	1.1841e+02	-3.7047	-14.057307	0.000811	8.107264	1.373408	-0.000162
1192	1.1850e+02	-3.7245	-14.218792	0.000811	8.107264	1.373408	-0.000162
1193	1.1860e+02	-3.7442	-14.392389	0.000872	8.715309	1.476413	-0.000174
1194	1.1870e+02	-3.7643	-14.541763	0.000750	7.499220	1.270402	-0.000150
1195	1.1880e+02	-3.7840	-14.727471	0.000932	9.323354	1.579419	-0.000187
1196	1.1890e+02	-3.8040	-14.888957	0.000811	8.107264	1.373408	-0.000162
1197	1.1900e+02	-3.8248	-15.058516	0.000851	8.512628	1.442078	-0.000170
1198	1.1910e+02	-3.8432	-15.256336	0.000993	9.931399	1.682425	-0.000199
1199	1.1920e+02	-3.8634	-15.385524	0.000649	6.485812	1.098726	-0.000130
1200	1.1930e+02	-3.8832	-15.547010	0.000811	8.107264	1.373408	-0.000162
1201	1.1940e+02	-3.9035	-15.692347	0.000730	7.296538	1.236067	-0.000146
1202	1.1950e+02	-3.9234	-15.882092	0.000953	9.526036	1.613754	-0.000191
1203	1.1960e+02	-3.9435	-16.023392	0.000709	7.093856	1.201732	-0.000142
1204	1.1970e+02	-3.9635	-16.196989	0.000872	8.715309	1.476413	-0.000174
1205	1.1980e+02	-3.9828	-16.362511	0.000831	8.309946	1.407743	-0.000166
1206	1.1990e+02	-4.0026	-16.519959	0.000790	7.904583	1.339073	-0.000158
1207	1.2000e+02	-4.0236	-16.685482	0.000831	8.309946	1.407743	-0.000166
1208	1.2010e+02	-4.0434	-16.830819	0.000730	7.296538	1.236067	-0.000146
1209	1.2020e+02	-4.0627	-17.028639	0.000993	9.931399	1.682425	-0.000199
1210	1.2030e+02	-4.0836	-17.165901	0.000689	6.891175	1.167397	-0.000138
1211	1.2039e+02	-4.1026	-17.323349	0.000790	7.904583	1.339073	-0.000158
1212	1.2049e+02	-4.1223	-17.533281	0.001054	10.539444	1.785430	-0.000211
1213	1.2059e+02	-4.1425	-17.674580	0.000709	7.093856	1.201732	-0.000142
1214	1.2069e+02	-4.1628	-17.832029	0.000790	7.904583	1.339073	-0.000158
1215	1.2079e+02	-4.1823	-17.977365	0.000730	7.296538	1.236067	-0.000146
1216	1.2089e+02	-4.2030	-18.163074	0.000932	9.323354	1.579419	-0.000187
1217	1.2099e+02	-4.2224	-18.308411	0.000730	7.296538	1.236067	-0.000146
1218	1.2109e+02	-4.2418	-18.465859	0.000790	7.904583	1.339073	-0.000158
1219	1.2119e+02	-4.2630	-18.679827	0.001074	10.742125	1.819765	-0.000215
1220	1.2129e+02	-4.2830	-18.829201	0.000750	7.499220	1.270402	-0.000150
1221	1.2139e+02	-4.3016	-18.950315	0.000608	6.080448	1.030056	-0.000122
1222	1.2149e+02	-4.3222	-19.115838	0.000831	8.309946	1.407743	-0.000166
1223	1.2159e+02	-4.3419	-19.289435	0.000872	8.715309	1.476413	-0.000174
1224	1.2169e+02	-4.3628	-19.450920	0.000811	8.107264	1.373408	-0.000162
1225	1.2179e+02	-4.3814	-19.616443	0.000831	8.309946	1.407743	-0.000166
1226	1.2189e+02	-4.4015	-19.794077	0.000892	8.917991	1.510749	-0.000179
1227	1.2199e+02	-4.4218	-19.967673	0.000872	8.715309	1.476413	-0.000174
1228	1.2209e+02	-4.4415	-20.100899	0.000669	6.688493	1.133061	-0.000134
1229	1.2219e+02	-4.4614	-20.278533	0.000892	8.917991	1.510749	-0.000179
1230	1.2229e+02	-4.4819	-20.448093	0.000851	8.512628	1.442078	-0.000170
1231	1.2239e+02	-4.5012	-20.589392	0.000709	7.093856	1.201732	-0.000142
1232	1.2248e+02	-4.5216	-20.726655	0.000689	6.891175	1.167397	-0.000138
1233	1.2258e+02	-4.5413	-20.888140	0.000811	8.107264	1.373408	-0.000162
1234	1.2268e+02	-4.5612	-21.045589	0.000790	7.904583	1.339073	-0.000158
1235	1.2278e+02	-4.5815	-21.215148	0.000851	8.512628	1.442078	-0.000170
1236	1.2288e+02	-4.6004	-21.396819	0.000912	9.120672	1.545084	-0.000183
1237	1.2298e+02	-4.6204	-21.582528	0.000932	9.323354	1.579419	-0.000187
1238	1.2308e+02	-4.6399	-21.731902	0.000750	7.499220	1.270402	-0.000150
1239	1.2318e+02	-4.6609	-21.865127	0.000669	6.688493	1.133061	-0.000134
1240	1.2328e+02	-4.6806	-22.026613	0.000811	8.107264	1.373408	-0.000162
1241	1.2338e+02	-4.7008	-22.200209	0.000872	8.715309	1.476413	-0.000174
1242	1.2348e+02	-4.7205	-22.393992	0.000973	9.728717	1.648089	-0.000195
1243	1.2358e+02	-4.7407	-22.523180	0.000649	6.485812	1.098726	-0.000130
1244	1.2368e+02	-4.7607	-22.692740	0.000851	8.512628	1.442078	-0.000170
1245	1.2378e+02	-4.7807	-22.838077	0.000730	7.296538	1.236067	-0.000146
1246	1.2388e+02	-4.8001	-22.991488	0.000770	7.701901	1.304737	-0.000154
1247	1.2398e+02	-4.8203	-23.120676	0.000649	6.485812	1.098726	-0.000130
1248	1.2408e+02	-4.8398	-23.338682	0.001094	10.944807	1.854100	-0.000219
1249	1.2418e+02	-4.8605	-23.524390	0.000932	9.323354	1.579419	-0.000187
1250	1.2428e+02	-4.8809	-23.617244	0.000466	4.661677	0.789709	-0.000093
1251	1.2438e+02	-4.8996	-23.815064	0.000993	9.931399	1.682425	-0.000199
1252	1.2447e+02	-4.9199	-23.984623	0.000851	8.512628	1.442078	-0.000170
1253	1.2457e+02	-4.9396	-24.142072	0.000790	7.904583	1.339073	-0.000158
1254	1.2467e+02	-4.9605	-24.238963	0.000486	4.864359	0.824045	-0.000097
1255	1.2477e+02	-4.9797	-24.432745	0.000973	9.728717	1.648089	-0.000195
1256	1.2487e+02	-4.9998	-24.658825	0.001135	11.350170	1.922771	-0.000227
1257	1.2497e+02	-5.0191	-24.771865	0.000568	5.675085	0.961385	-0.000114
1258	1.2507e+02	-5.0394	-24.921239	0.000750	7.499220	1.270402	-0.000150
1259	1.2517e+02	-5.0588	-25.102910	0.000912	9.120672	1.545084	-0.000183
1260	1.2527e+02	-5.0783	-25.224024	0.000608	6.080448	1.030056	-0.000122
1261	1.2537e+02	-5.0989	-25.421844	0.000993	9.931399	1.682425	-0.000199
1262	1.2547e+02	-5.1190	-25.575255	0.000770	7.701901	1.304737	-0.000154
1263	1.2557e+02	-5.1385	-25.777112	0.001013	10.134081	1.716760	-0.000203
1264	1.2567e+02	-5.1585	-25.906300	0.000649	6.485812	1.098726	-0.000130
1265	1.2577e+02	-5.1779	-26.059711	0.000770	7.701901	1.304737	-0.000154
1266	1.2587e+02	-5.1984	-26.237345	0.000892	8.917991	1.510749	-0.000179
1267	1.2597e+02	-5.2179	-26.427091	0.000953	9.526036	1.613754	-0.000191
1268	1.2607e+02	-5.2385	-26.523982	0.000486	4.864359	0.824045	-0.000097
1269	1.2617e+02	-5.2579	-26.762173	0.001196	11.958215	2.025776	-0.000239
1270	1.2627e+02	-5.2782	-26.907510	0.000730	7.296538	1.236067	-0.000146
1271	1.2636e+02	-5.2985	-27.060921	0.000770	7.701901	1.304737	-0.000154
1272	1.2646e+02	-5.3186	-27.214332	0.000770	7.701901	1.304737	-0.000154
1273	1.2656e+02	-5.3379	-27.371780	0.000790	7.904583	1.339073	-0.000158
1274	1.2666e+02	-5.3581	-27.517117	0.000730	7.296538	1.236067	-0.000146
1275	1.2676e+02	-5.3772	-27.678603	0.000811	8.107264	1.373408	-0.000162
1276	1.2686e+02	-5.3983	-27.840088	0.000811	8.107264	1.373408	-0.000162
1277	1.2696e+02	-5.4171	-28.001573	0.000811	8.107264	1.373408	-0.000162
1278	1.2706e+02	-5.4385	-28.187282	0.000932	9.323354	1.579419	-0.000187
1279	1.2716e+02	-5.4570	-28.356841	0.000851	8.512628	1.442078	-0.000170
1280	1.2726e+02	-5.4782	-28.477955	0.000608	6.080448	1.030056	-0.000122
1281	1.2736e+02	-5.4971	-28.639441	0.000811	8.107264	1.373408	-0.000162
1282	1.2746e+02	-5.5171	-28.845335	0.001034	10.336762	1.751095	-0.000207
1283	1.2756e+02	-5.5377	-28.994709	0.000750	7.499220	1.270402	-0.000150
1284	1.2766e+02	-5.5568	-29.156194	0.000811	8.107264	1.373408	-0.000162
1285	1.2776e+02	-5.5777	-29.325754	0.000851	8.512628	1.442078	-0.000170
1286	1.2786e+02	-5.5972	-29.519537	0.000973	9.728717	1.648089	-0.000195
1287	1.2796e+02	-5.6181	-29.668911	0.000750	7.499220	1.270402	-0.000150
1288	1.2806e+02	-5.6381	-29.834433	0.000831	8.309946	1.407743	-0.000166
1289	1.2816e+02	-5.6570	-29.959584	0.000628	6.283130	1.064391	-0.000126
1290	1.2826e+02	-5.6770	-30.185664	0.001135	11.350170	1.922771	-0.000227
1291	1.2835e+02	-5.6958	-30.318889	0.000669	6.688493	1.133061	-0.000134
1292	1.2845e+02	-5.7159	-30.476338	0.000790	7.904583	1.339073	-0.000158
1293	1.2855e+02	-5.7359	-30.645897	0.000851	8.512628	1.442078	-0.000170
1294	1.2865e+02	-5.7565	-30.831606	0.000932	9.323354	1.579419	-0.000187
1295	1.2875e+02	-5.7767	-31.005202	0.000872	8.715309	1.476413	-0.000174
1296	1.2885e+02	-5.7967	-31.178799	0.000872	8.715309	1.476413	-0.000174
1297	1.2895e+02	-5.8162	-31.275691	0.000486	4.864359	0.824045	-0.000097
1298	1.2905e+02	-5.8366	-31.534067	0.001297	12.971623	2.197452	-0.000260
1299	1.2915e+02	-5.8569	-31.651144	0.000588	5.877767	0.995721	-0.000118
1300	1.2925e+02	-5.8767	-31.800518	0.000750	7.499220	1.270402	-0.000150
1301	1.2935e+02	-5.8960	-31.982189	0.000912	9.120672	1.545084	-0.000183
1302	1.2945e+02	-5.9155	-32.143675	0.000811	8.107264	1.373408	-0.000162
1303	1.2955e+02	-5.9360	-32.309197	0.000831	8.309946	1.407743	-0.000166
1304	1.2965e+02	-5.9561	-32.458571	0.000750	7.499220	1.270402	-0.000150
1305	1.2975e+02	-5.9747	-32.652354	0.000973	9.728717	1.648089	-0.000195
1306	1.2985e+02	-5.9958	-32.801728	0.000750	7.499220	1.270402	-0.000150
1307	1.2995e+02	-6.0165	-32.991473	0.000953	9.526036	1.613754	-0.000191
1308	1.3005e+02	-6.0358	-33.136810	0.000730	7.296538	1.236067	-0.000146
1309	1.3015e+02	-6.0548	-33.306370	0.000851	8.512628	1.442078	-0.000170
1310	1.3025e+02	-6.0748	-33.447670	0.000709	7.093856	1.201732	-0.000142
1311	1.3034e+02	-6.0956	-33.637415	0.000953	9.526036	1.613754	-0.000191
1312	1.3044e+02	-6.1156	-33.770640	0.000669	6.688493	1.133061	-0.000134
1313	1.3054e+02	-6.1346	-33.984609	0.001074	10.742125	1.819765	-0.000215
1314	1.3064e+02	-6.1551	-34.121871	0.000689	6.891175	1.167397	-0.000138
1315	1.3074e+02	-6.1749	-34.319691	0.000993	9.931399	1.682425	-0.000199
1316	1.3084e+02	-6.1952	-34.493288	0.000872	8.715309	1.476413	-0.000174
1317	1.3094e+02	-6.2151	-34.674959	0.000912	9.120672	1.545084	-0.000183
1318	1.3104e+02	-6.2350	-34.820296	0.000730	7.296538	1.236067	-0.000146
1319	1.3114e+02	-6.2547	-34.997930	0.000892	8.917991	1.510749	-0.000179
1320	1.3124e+02	-6.2746	-35.127118	0.000649	6.485812	1.098726	-0.000130
1321	1.3134e+02	-6.2939	-35.341086	0.001074	10.742125	1.819765	-0.000215
1322	1.3144e+02	-6.3142	-35.470275	0.000649	6.485812	1.098726	-0.000130
1323	1.3154e+02	-6.3348	-35.688280	0.001094	10.944807	1.854100	-0.000219
1324	1.3164e+02	-6.3542	-35.869951	0.000912	9.120672	1.545084	-0.000183
1325	1.3174e+02	-6.3734	-36.019325	0.000750	7.499220	1.270402	-0.000150
1326	1.3184e+02	-6.3942	-36.164662	0.000730	7.296538	1.236067	-0.000146
1327	1.3194e+02	-6.4136	-36.390742	0.001135	11.350170	1.922771	-0.000227
1328	1.3204e+02	-6.4342	-36.536078	0.000730	7.296538	1.236067	-0.000146
1329	1.3214e+02	-6.4540	-36.721787	0.000932	9.323354	1.579419	-0.000187
1330	1.3224e+02	-6.4742	-36.899421	0.000892	8.917991	1.510749	-0.000179
1331	1.3234e+02	-6.4925	-37.056869	0.000790	7.904583	1.339073	-0.000158
1332	1.3243e+02	-6.5137	-37.242577	0.000932	9.323354	1.579419	-0.000187
1333	1.3253e+02	-6.5335	-37.387914	0.000730	7.296538	1.236067	-0.000146
1334	1.3263e+02	-6.5536	-37.601882	0.001074	10.742125	1.819765	-0.000215
1335	1.3273e+02	-6.5732	-37.771442	0.000851	8.512628	1.442078	-0.000170
1336	1.3283e+02	-6.5944	-37.924853	0.000770	7.701901	1.304737	-0.000154
1337	1.3293e+02	-6.6130	-38.090376	0.000831	8.309946	1.407743	-0.000166
1338	1.3303e+02	-6.6331	-38.292232	0.001013	10.134081	1.716760	-0.000203
1339	1.3313e+02	-6.6531	-38.453718	0.000811	8.107264	1.373408	-0.000162
1340	1.3323e+02	-6.6727	-38.631352	0.000892	8.917991	1.510749	-0.000179
1341	1.3333e+02	-6.6927	-38.776689	0.000730	7.296538	1.236067	-0.000146
1342	1.3343e+02	-6.7126	-38.966434	0.000953	9.526036	1.613754	-0.000191
1343	1.3353e+02	-6.7334	-39.135994	0.000851	8.512628	1.442078	-0.000170
1344	1.3363e+02	-6.7520	-39.325739	0.000953	9.526036	1.613754	-0.000191
1345	1.3373e+02	-6.7714	-39.499336	0.000872	8.715309	1.476413	-0.000174
1346	1.3383e+02	-6.7924	-39.693119	0.000973	9.728717	1.648089	-0.000195
1347	1.3393e+02	-6.8121	-39.866715	0.000872	8.715309	1.476413	-0.000174
1348	1.3403e+02	-6.8320	-40.040312	0.000872	8.715309	1.476413	-0.000174
1349	1.3413e+02	-6.8509	-40.250243	0.001054	10.539444	1.785430	-0.000211
1350	1.3423e+02	-6.8726	-40.391543	0.000709	7.093856	1.201732	-0.000142
1351	1.3432e+02	-6.8926	-40.581288	0.000953	9.526036	1.613754	-0.000191
1352	1.3442e+02	-6.9122	-40.758922	0.000892	8.917991	1.510749	-0.000179
1353	1.3452e+02	-6.9313	-40.912334	0.000770	7.701901	1.304737	-0.000154
1354	1.3462e+02	-6.9516	-41.118227	0.001034	10.336762	1.751095	-0.000207
1355	1.3472e+02	-6.9714	-41.271639	0.000770	7.701901	1.304737	-0.000154
1356	1.3482e+02	-6.9919	-41.469458	0.000993	9.931399	1.682425	-0.000199
1357	1.3492e+02	-7.0122	-41.667278	0.000993	9.931399	1.682425	-0.000199
1358	1.3502e+02	-7.0309	-41.828763	0.000811	8.107264	1.373408	-0.000162
1359	1.3512e+02	-7.0525	-42.083103	0.001277	12.768941	2.163117	-0.000256
1360	1.3522e+02	-7.0709	-42.248625	0.000831	8.309946	1.407743	-0.000166
1361	1.3532e+02	-7.0920	-42.389925	0.000709	7.093856	1.201732	-0.000142
1362	1.3542e+02	-7.1118	-42.591782	0.001013	10.134081	1.716760	-0.000203
1363	1.3552e+02	-7.1309	-42.789602	0.000993	9.931399	1.682425	-0.000199
1364	1.3562e+02	-7.1510	-42.971273	0.000912	9.120672	1.545084	-0.000183
1365	1.3572e+02	-7.1710	-43.128721	0.000790	7.904583	1.339073	-0.000158
1366	1.3582e+02	-7.1912	-43.330578	0.001013	10.134081	1.716760	-0.000203
1367	1.3592e+02	-7.2107	-43.524360	0.000973	9.728717	1.648089	-0.000195
1368	1.3602e+02	-7.2301	-43.701994	0.000892	8.917991	1.510749	-0.000179
1369	1.3612e+02	-7.2513	-43.875591	0.000872	8.715309	1.476413	-0.000174
1370	1.3622e+02	-7.2717	-44.097634	0.001115	11.147489	1.888436	-0.000223
1371	1.3631e+02	-7.2914	-44.299490	0.001013	10.134081	1.716760	-0.000203
1372	1.3641e+02	-7.3106	-44.469050	0.000851	8.512628	1.442078	-0.000170
1373	1.3651e+02	-7.3312	-44.634573	0.000831	8.309946	1.407743	-0.000166
1374	1.3661e+02	-7.3506	-44.820281	0.000932	9.323354	1.579419	-0.000187
1375	1.3671e+02	-7.3705	-45.014063	0.000973	9.728717	1.648089	-0.000195
1376	1.3681e+02	-7.3904	-45.284552	0.001358	13.579668	2.300458	-0.000272
1377	1.3691e+02	-7.4103	-45.425851	0.000709	7.093856	1.201732	-0.000142
1378	1.3701e+02	-7.4313	-45.627708	0.001013	10.134081	1.716760	-0.000203
1379	1.3711e+02	-7.4508	-45.777082	0.000750	7.499220	1.270402	-0.000150
1380	1.3721e+02	-7.4687	-46.011236	0.001176	11.755533	1.991441	-0.000235
1381	1.3731e+02	-7.4898	-46.245390	0.001176	11.755533	1.991441	-0.000235
1382	1.3741e+02	-7.5101	-46.402838	0.000790	7.904583	1.339073	-0.000158
1383	1.3751e+02	-7.5296	-46.620844	0.001094	10.944807	1.854100	-0.000219
1384	1.3761e+02	-7.5497	-46.818663	0.000993	9.931399	1.682425	-0.000199
1385	1.3771e+02	-7.5690	-47.032631	0.001074	10.742125	1.819765	-0.000215
1386	1.3781e+02	-7.5888	-47.194117	0.000811	8.107264	1.373408	-0.000162
1387	1.3791e+02	-7.6089	-47.416159	0.001115	11.147489	1.888436	-0.000223
1388	1.3801e+02	-7.6285	-47.654350	0.001196	11.958215	2.025776	-0.000239
1389	1.3811e+02	-7.6486	-47.815836	0.000811	8.107264	1.373408	-0.000162
1390	1.3821e+02	-7.6688	-48.029804	0.001074	10.742125	1.819765	-0.000215
1391	1.3831e+02	-7.6881	-48.219549	0.000953	9.526036	1.613754	-0.000191
1392	1.3840e+02	-7.7090	-48.445629	0.001135	11.350170	1.922771	-0.000227
1393	1.3850e+02	-7.7290	-48.655560	0.001054	10.539444	1.785430	-0.000211
1394	1.3860e+02	-7.7481	-48.881640	0.001135	11.350170	1.922771	-0.000227
1395	1.3870e+02	-7.7689	-49.079459	0.000993	9.931399	1.682425	-0.000199
1396	1.3880e+02	-7.7882	-49.289390	0.001054	10.539444	1.785430	-0.000211
1397	1.3890e+02	-7.8091	-49.507396	0.001094	10.944807	1.854100	-0.000219
1398	1.3900e+02	-7.8276	-49.717327	0.001054	10.539444	1.785430	-0.000211
1399	1.3910e+02	-7.8479	-49.963592	0.001236	12.363578	2.094447	-0.000248
1400	1.3920e+02	-7.8682	-50.133152	0.000851	8.512628	1.442078	-0.000170
1401	1.3930e+02	-7.8867	-50.363268	0.001155	11.552852	1.957106	-0.000231
1402	1.3940e+02	-7.9085	-50.585311	0.001115	11.147489	1.888436	-0.000223
1403	1.3950e+02	-7.9276	-50.807353	0.001115	11.147489	1.888436	-0.000223
1404	1.3960e+02	-7.9471	-51.013247	0.001034	10.336762	1.751095	-0.000207
1405	1.3970e+02	-7.9669	-51.223178	0.001054	10.539444	1.785430	-0.000211
1406	1.3980e+02	-7.9867	-51.433109	0.001054	10.539444	1.785430	-0.000211
1407	1.3990e+02	-8.0080	-51.671300	0.001196	11.958215	2.025776	-0.000239
1408	1.4000e+02	-8.0264	-51.889306	0.001094	10.944807	1.854100	-0.000219
1409	1.4010e+02	-8.0469	-52.103274	0.001074	10.742125	1.819765	-0.000215
1410	1.4020e+02	-8.0675	-52.353576	0.001257	12.566260	2.128782	-0.000252
1411	1.4029e+02	-8.0872	-52.547359	0.000973	9.728717	1.648089	-0.000195
1412	1.4039e+02	-8.1067	-52.785550	0.001196	11.958215	2.025776	-0.000239
1413	1.4049e+02	-8.1269	-53.052001	0.001338	13.376986	2.266123	-0.000268
1414	1.4059e+02	-8.1473	-53.225598	0.000872	8.715309	1.476413	-0.000174
1415	1.4069e+02	-8.1664	-53.488011	0.001317	13.174305	2.231788	-0.000264
1416	1.4079e+02	-8.1870	-53.689868	0.001013	10.134081	1.716760	-0.000203
1417	1.4089e+02	-8.2064	-53.928059	0.001196	11.958215	2.025776	-0.000239
1418	1.4099e+02	-8.2272	-54.137990	0.001054	10.539444	1.785430	-0.000211
1419	1.4109e+02	-8.2466	-54.412515	0.001378	13.782350	2.334793	-0.000276
1420	1.4119e+02	-8.2664	-54.678966	0.001338	13.376986	2.266123	-0.000268
1421	1.4129e+02	-8.2866	-54.901009	0.001115	11.147489	1.888436	-0.000223
1422	1.4139e+02	-8.3070	-55.110940	0.001054	10.539444	1.785430	-0.000211
1423	1.4149e+02	-8.3255	-55.361242	0.001257	12.566260	2.128782	-0.000252
1424	1.4159e+02	-8.3453	-55.591359	0.001155	11.552852	1.957106	-0.000231
1425	1.4169e+02	-8.3658	-55.873959	0.001419	14.187713	2.403464	-0.000284
1426	1.4179e+02	-8.3868	-56.087927	0.001074	10.742125	1.819765	-0.000215
1427	1.4189e+02	-8.4061	-56.314006	0.001135	11.350170	1.922771	-0.000227
1428	1.4199e+02	-8.4258	-56.556235	0.001216	12.160897	2.060112	-0.000243
1429	1.4209e+02	-8.4453	-56.859020	0.001520	15.201121	2.575140	-0.000304
1430	1.4219e+02	-8.4644	-57.089136	0.001155	11.552852	1.957106	-0.000231
1431	1.4228e+02	-8.4860	-57.371736	0.001419	14.187713	2.403464	-0.000284
1432	1.4238e+02	-8.5053	-57.565518	0.000973	9.728717	1.648089	-0.000195
1433	1.4248e+02	-8.5249	-57.840044	0.001378	13.782350	2.334793	-0.000276
1434	1.4258e+02	-8.5444	-58.074198	0.001176	11.755533	1.991441	-0.000235
1435	1.4268e+02	-8.5648	-58.316426	0.001216	12.160897	2.060112	-0.000243
1436	1.4278e+02	-8.5854	-58.586914	0.001358	13.579668	2.300458	-0.000272
1437	1.4288e+02	-8.6047	-58.857402	0.001358	13.579668	2.300458	-0.000272
1438	1.4298e+02	-8.6252	-59.111741	0.001277	12.768941	2.163117	-0.000256
1439	1.4308e+02	-8.6462	-59.366081	0.001277	12.768941	2.163117	-0.000256
1440	1.4318e+02	-8.6646	-59.616383	0.001257	12.566260	2.128782	-0.000252
1441	1.4328e+02	-8.6842	-59.915131	0.001500	14.998439	2.540804	-0.000300
1442	1.4338e+02	-8.7055	-60.157360	0.001216	12.160897	2.060112	-0.000243
1443	1.4348e+02	-8.7251	-60.443996	0.001439	14.390394	2.437799	-0.000288
1444	1.4358e+02	-8.7433	-60.722559	0.001399	13.985031	2.369128	-0.000280
1445	1.4368e+02	-8.7643	-60.948638	0.001135	11.350170	1.922771	-0.000227
1446	1.4378e+02	-8.7849	-61.182792	0.001176	11.755533	1.991441	-0.000235
1447	1.4388e+02	-8.8033	-61.493652	0.001561	15.606484	2.643810	-0.000312
1448	1.4398e+02	-8.8247	-61.760103	0.001338	13.376986	2.266123	-0.000268
1449	1.4408e+02	-8.8440	-62.062888	0.001520	15.201121	2.575140	-0.000304
1450	1.4418e+02	-8.8636	-62.309153	0.001236	12.363578	2.094447	-0.000248
1451	1.4428e+02	-8.8840	-62.579641	0.001358	13.579668	2.300458	-0.000272
1452	1.4437e+02	-8.9038	-62.842055	0.001317	13.174305	2.231788	-0.000264
1453	1.4447e+02	-8.9232	-63.177137	0.001682	16.822574	2.849821	-0.000337
1454	1.4457e+02	-8.9427	-63.423402	0.001236	12.363578	2.094447	-0.000248
1455	1.4467e+02	-8.9627	-63.734262	0.001561	15.606484	2.643810	-0.000312
1456	1.4477e+02	-8.9829	-64.000713	0.001338	13.376986	2.266123	-0.000268
1457	1.4487e+02	-9.0034	-64.279275	0.001399	13.985031	2.369128	-0.000280
1458	1.4497e+02	-9.0230	-64.590135	0.001561	15.606484	2.643810	-0.000312
1459	1.4507e+02	-9.0439	-64.832363	0.001216	12.160897	2.060112	-0.000243
1460	1.4517e+02	-9.0628	-65.139185	0.001540	15.403802	2.609475	-0.000308
1461	1.4527e+02	-9.0829	-65.446007	0.001540	15.403802	2.609475	-0.000308
1462	1.4537e+02	-9.1029	-65.724570	0.001399	13.985031	2.369128	-0.000280
1463	1.4547e+02	-9.1226	-65.999095	0.001378	13.782350	2.334793	-0.000276
1464	1.4557e+02	-9.1418	-66.374549	0.001885	18.849390	3.193173	-0.000377
1465	1.4567e+02	-9.1617	-66.645037	0.001358	13.579668	2.300458	-0.000272
1466	1.4577e+02	-9.1824	-66.943785	0.001500	14.998439	2.540804	-0.000300
1467	1.4587e+02	-9.2027	-67.218310	0.001378	13.782350	2.334793	-0.000276
1468	1.4597e+02	-9.2225	-67.492835	0.001378	13.782350	2.334793	-0.000276
1469	1.4607e+02	-9.2419	-67.827918	0.001682	16.822574	2.849821	-0.000337
1470	1.4617e+02	-9.2624	-68.138777	0.001561	15.606484	2.643810	-0.000312
1471	1.4626e+02	-9.2827	-68.453674	0.001581	15.809166	2.678145	-0.000316
1472	1.4636e+02	-9.3013	-68.752422	0.001500	14.998439	2.540804	-0.000300
1473	1.4646e+02	-9.3208	-69.067318	0.001581	15.809166	2.678145	-0.000316
1474	1.4656e+02	-9.3411	-69.333769	0.001338	13.376986	2.266123	-0.000268
1475	1.4666e+02	-9.3623	-69.664814	0.001662	16.619892	2.815486	-0.000333
1476	1.4676e+02	-9.3810	-69.971637	0.001540	15.403802	2.609475	-0.000308
1477	1.4686e+02	-9.4014	-70.294607	0.001621	16.214529	2.746816	-0.000325
1478	1.4696e+02	-9.4212	-70.593356	0.001500	14.998439	2.540804	-0.000300
1479	1.4706e+02	-9.4411	-70.892104	0.001500	14.998439	2.540804	-0.000300
1480	1.4716e+02	-9.4600	-71.247372	0.001784	17.835982	3.021497	-0.000357
1481	1.4726e+02	-9.4812	-71.590528	0.001723	17.227937	2.918492	-0.000345
1482	1.4736e+02	-9.5015	-71.889276	0.001500	14.998439	2.540804	-0.000300
1483	1.4746e+02	-9.5203	-72.248581	0.001804	18.038663	3.055832	-0.000361
1484	1.4756e+02	-9.5410	-72.583663	0.001682	16.822574	2.849821	-0.000337
1485	1.4766e+02	-9.5601	-72.882411	0.001500	14.998439	2.540804	-0.000300
1486	1.4776e+02	-9.5811	-73.237679	0.001784	17.835982	3.021497	-0.000357
1487	1.4786e+02	-9.6008	-73.548539	0.001561	15.606484	2.643810	-0.000312
1488	1.4796e+02	-9.6201	-73.879584	0.001662	16.619892	2.815486	-0.000333
1489	1.4806e+02	-9.6397	-74.210629	0.001662	16.619892	2.815486	-0.000333
1490	1.4816e+02	-9.6609	-74.545711	0.001682	16.822574	2.849821	-0.000337
1491	1.4825e+02	-9.6808	-74.909054	0.001824	18.241345	3.090167	-0.000365
1492	1.4835e+02	-9.7006	-75.248173	0.001703	17.025255	2.884156	-0.000341
1493	1.4845e+02	-9.7206	-75.599404	0.001763	17.633300	2.987162	-0.000353
1494	1.4855e+02	-9.7397	-75.914300	0.001581	15.809166	2.678145	-0.000316
1495	1.4865e+02	-9.7602	-76.309940	0.001986	19.862798	3.364849	-0.000398
1496	1.4875e+02	-9.7797	-76.640985	0.001662	16.619892	2.815486	-0.000333
1497	1.4885e+02	-9.7993	-76.980104	0.001703	17.025255	2.884156	-0.000341
1498	1.4895e+02	-9.8203	-77.339409	0.001804	18.038663	3.055832	-0.000361
1499	1.4905e+02	-9.8388	-77.670454	0.001662	16.619892	2.815486	-0.000333
1500	1.4915e+02	-9.8598	-78.025722	0.001784	17.835982	3.021497	-0.000357
1501	1.4925e+02	-9.8799	-78.380990	0.001784	17.835982	3.021497	-0.000357
1502	1.4935e+02	-9.8994	-78.748370	0.001844	18.444027	3.124503	-0.000369
1503	1.4945e+02	-9.9197	-79.103638	0.001784	17.835982	3.021497	-0.000357
1504	1.4955e+02	-9.9391	-79.466980	0.001824	18.241345	3.090167	-0.000365
1505	1.4965e+02	-9.9590	-79.842433	0.001885	18.849390	3.193173	-0.000377
1506	1.4975e+02	-9.9786	-80.213850	0.001865	18.646708	3.158838	-0.000373
1507	1.4985e+02	-9.9997	-80.597378	0.001925	19.254753	3.261843	-0.000385
1508	1.4995e+02	-9.9795	-80.750789	-0.000770	-7.701901	-1.304737	-0.000154
1509	1.5005e+02	-9.9587	-80.932460	-0.000912	-9.120672	-1.545084	-0.000183
1510	1.5015e+02	-9.9377	-81.057611	-0.000628	-6.283130	-1.064391	-0.000126
1511	1.5025e+02	-9.9197	-81.206985	-0.000750	-7.499220	-1.270402	-0.000150
1512	1.5034e+02	-9.8997	-81.303877	-0.000486	-4.864359	-0.824045	-0.000097
1513	1.5044e+02	-9.8790	-81.437102	-0.000669	-6.688493	-1.133061	-0.000134
1514	1.5054e+02	-9.8601	-81.521882	-0.000426	-4.256314	-0.721039	-0.000085
1515	1.5064e+02	-9.8392	-81.630885	-0.000547	-5.472403	-0.927050	-0.000110
1516	1.5074e+02	-9.8196	-81.727776	-0.000486	-4.864359	-0.824045	-0.000097
1517	1.5084e+02	-9.8000	-81.768147	-0.000203	-2.026816	-0.343352	-0.000041
1518	1.5094e+02	-9.7793	-81.836779	-0.000345	-3.445587	-0.583698	-0.000069
1519	1.5104e+02	-9.7602	-81.945781	-0.000547	-5.472403	-0.927050	-0.000110
1520	1.5114e+02	-9.7407	-82.042672	-0.000486	-4.864359	-0.824045	-0.000097
1521	1.5124e+02	-9.7199	-82.066895	-0.000122	-1.216090	-0.206011	-0.000024
1522	1.5134e+02	-9.6999	-82.115341	-0.000243	-2.432179	-0.412022	-0.000049
1523	1.5144e+02	-9.6802	-82.179935	-0.000324	-3.242906	-0.549363	-0.000065
1524	1.5154e+02	-9.6609	-82.248566	-0.000345	-3.445587	-0.583698	-0.000069
1525	1.5164e+02	-9.6399	-82.224344	0.000122	1.216090	0.206011	0.000024
1526	1.5174e+02	-9.6208	-82.321235	-0.000486	-4.864359	-0.824045	-0.000097
1527	1.5184e+02	-9.5995	-82.309123	0.000061	0.608045	0.103006	0.000012
1528	1.5194e+02	-9.5801	-82.349495	-0.000203	-2.026816	-0.343352	-0.000041
1529	1.5204e+02	-9.5604	-82.393903	-0.000223	-2.229498	-0.377687	-0.000045
1530	1.5214e+02	-9.5415	-82.434275	-0.000203	-2.026816	-0.343352	-0.000041
1531	1.5224e+02	-9.5215	-82.365643	0.000345	3.445587	0.583698	0.000069
1532	1.5233e+02	-9.5015	-82.414089	-0.000243	-2.432179	-0.412022	-0.000049
1533	1.5243e+02	-9.4815	-82.438312	-0.000122	-1.216090	-0.206011	-0.000024
1534	1.5253e+02	-9.4617	-82.422163	0.000081	0.810726	0.137341	0.000016
1535	1.5263e+02	-9.4412	-82.434275	-0.000061	-0.608045	-0.103006	-0.000012
1536	1.5273e+02	-9.4218	-82.462535	-0.000142	-1.418771	-0.240346	-0.000028
1537	1.5283e+02	-9.4009	-82.446386	0.000081	0.810726	0.137341	0.000016
1538	1.5293e+02	-9.3817	-82.397940	0.000243	2.432179	0.412022	0.000049
1539	1.5303e+02	-9.3623	-82.418126	-0.000101	-1.013408	-0.171676	-0.000020
1540	1.5313e+02	-9.3416	-82.406015	0.000061	0.608045	0.103006	0.000012
1541	1.5323e+02	-9.3213	-82.389866	0.000081	0.810726	0.137341	0.000016
1542	1.5333e+02	-9.3021	-82.397940	-0.000041	-0.405363	-0.068670	-0.000008
1543	1.5343e+02	-9.2828	-82.329309	0.000345	3.445587	0.583698	0.000069
1544	1.5353e+02	-9.2627	-82.264715	0.000324	3.242906	0.549363	0.000065
1545	1.5363e+02	-9.2426	-82.288938	-0.000122	-1.216090	-0.206011	-0.000024
1546	1.5373e+02	-9.2223	-82.272789	0.000081	0.810726	0.137341	0.000016
1547	1.5383e+02	-9.2030	-82.232418	0.000203	2.026816	0.343352	0.000041
1548	1.5393e+02	-9.1823	-82.240492	-0.000041	-0.405363	-0.068670	-0.000008
1549	1.5403e+02	-9.1632	-82.147638	0.000466	4.661677	0.789709	0.000093
1550	1.5413e+02	-9.1427	-82.167824	-0.000101	-1.013408	-0.171676	-0.000020
1551	1.5422e+02	-9.1238	-82.066895	0.000507	5.067040	0.858380	0.000101
1552	1.5432e+02	-9.1031	-82.087081	-0.000101	-1.013408	-0.171676	-0.000020
1553	1.5442e+02	-9.0824	-82.050747	0.000182	1.824134	0.309017	0.000037
1554	1.5452e+02	-9.0630	-81.994227	0.000284	2.837543	0.480693	0.000057
1555	1.5462e+02	-9.0422	-81.965967	0.000142	1.418771	0.240346	0.000028
1556	1.5472e+02	-9.0229	-81.909447	0.000284	2.837543	0.480693	0.000057
1557	1.5482e+02	-9.0036	-81.869076	0.000203	2.026816	0.343352	0.000041
1558	1.5492e+02	-8.9822	-81.828704	0.000203	2.026816	0.343352	0.000041
1559	1.5502e+02	-8.9635	-81.800444	0.000142	1.418771	0.240346	0.000028
1560	1.5512e+02	-8.9427	-81.772184	0.000142	1.418771	0.240346	0.000028
1561	1.5522e+02	-8.9231	-81.711627	0.000304	3.040224	0.515028	0.000061
1562	1.5532e+02	-8.9037	-81.651070	0.000304	3.040224	0.515028	0.000061
1563	1.5542e+02	-8.8831	-81.586476	0.000324	3.242906	0.549363	0.000065
1564	1.5552e+02	-8.8642	-81.529956	0.000284	2.837543	0.480693	0.000057
1565	1.5562e+02	-8.8437	-81.501696	0.000142	1.418771	0.240346	0.000028
1566	1.5572e+02	-8.8240	-81.441139	0.000304	3.040224	0.515028	0.000061
1567	1.5582e+02	-8.8040	-81.380582	0.000304	3.040224	0.515028	0.000061
1568	1.5592e+02	-8.7842	-81.332137	0.000243	2.432179	0.412022	0.000049
1569	1.5602e+02	-8.7649	-81.283691	0.000243	2.432179	0.412022	0.000049
1570	1.5612e+02	-8.7442	-81.223134	0.000304	3.040224	0.515028	0.000061
1571	1.5622e+02	-8.7256	-81.097983	0.000628	6.283130	1.064391	0.000126
1572	1.5631e+02	-8.7042	-81.102020	-0.000020	-0.202682	-0.034335	-0.000004
1573	1.5641e+02	-8.6847	-81.025314	0.000385	3.850951	0.652369	0.000077
1574	1.5651e+02	-8.6642	-80.948609	0.000385	3.850951	0.652369	0.000077
1575	1.5661e+02	-8.6443	-80.888052	0.000304	3.040224	0.515028	0.000061
1576	1.5671e+02	-8.6258	-80.843643	0.000223	2.229498	0.377687	0.000045
1577	1.5681e+02	-8.6050	-80.787123	0.000284	2.837543	0.480693	0.000057
1578	1.5691e+02	-8.5850	-80.674083	0.000568	5.675085	0.961385	0.000114
1579	1.5701e+02	-8.5657	-80.649861	0.000122	1.216090	0.206011	0.000024
1580	1.5711e+02	-8.5449	-80.544895	0.000527	5.269722	0.892715	0.000105
1581	1.5721e+02	-8.5249	-80.492412	0.000263	2.634861	0.446358	0.000053
1582	1.5731e+02	-8.5060	-80.419744	0.000365	3.648269	0.618033	0.000073
1583	1.5741e+02	-8.4858	-80.383410	0.000182	1.824134	0.309017	0.000037
1584	1.5751e+02	-8.4659	-80.290556	0.000466	4.661677	0.789709	0.000093
1585	1.5761e+02	-8.4457	-80.209813	0.000405	4.053632	0.686704	0.000081
1586	1.5771e+02	-8.4258	-80.145219	0.000324	3.242906	0.549363	0.000065
1587	1.5781e+02	-8.4067	-80.056402	0.000446	4.458995	0.755374	0.000089
1588	1.5791e+02	-8.3861	-79.983733	0.000365	3.648269	0.618033	0.000073
1589	1.5801e+02	-8.3658	-79.935288	0.000243	2.432179	0.412022	0.000049
1590	1.5811e+02	-8.3453	-79.846471	0.000446	4.458995	0.755374	0.000089
1591	1.5821e+02	-8.3250	-79.761691	0.000426	4.256314	0.721039	0.000085
1592	1.5830e+02	-8.3061	-79.749579	0.000061	0.608045	0.103006	0.000012
1593	1.5840e+02	-8.2856	-79.604242	0.000730	7.296538	1.236067	0.000146
1594	1.5850e+02	-8.2651	-79.584057	0.000101	1.013408	0.171676	0.000020
1595	1.5860e+02	-8.2461	-79.487166	0.000486	4.864359	0.824045	0.000097
1596	1.5870e+02	-8.2262	-79.426609	0.000304	3.040224	0.515028	0.000061
1597	1.5880e+02	-8.2063	-79.337792	0.000446	4.458995	0.755374	0.000089
1598	1.5890e+02	-8.1870	-79.240900	0.000486	4.864359	0.824045	0.000097
1599	1.5900e+02	-8.1667	-79.184380	0.000284	2.837543	0.480693	0.000057
1600	1.5910e+02	-8.1479	-79.111712	0.000365	3.648269	0.618033	0.000073
1601	1.5920e+02	-8.1261	-79.043081	0.000345	3.445587	0.583698	0.000069
1602	1.5930e+02	-8.1075	-78.966375	0.000385	3.850951	0.652369	0.000077
1603	1.5940e+02	-8.0862	-78.857372	0.000547	5.472403	0.927050	0.000110
1604	1.5950e+02	-8.0672	-78.764518	0.000466	4.661677	0.789709	0.000093
1605	1.5960e+02	-8.0475	-78.679738	0.000426	4.256314	0.721039	0.000085
1606	1.5970e+02	-8.0270	-78.639367	0.000203	2.026816	0.343352	0.000041
1607	1.5980e+02	-8.0069	-78.526327	0.000568	5.675085	0.961385	0.000114
1608	1.5990e+02	-7.9877	-78.477882	0.000243	2.432179	0.412022	0.000049
1609	1.6000e+02	-7.9669	-78.389065	0.000446	4.458995	0.755374	0.000089
1610	1.6010e+02	-7.9483	-78.276025	0.000568	5.675085	0.961385	0.000114
1611	1.6019e+02	-7.9278	-78.231616	0.000223	2.229498	0.377687	0.000045
1612	1.6029e+02	-7.9077	-78.122614	0.000547	5.472403	0.927050	0.000110
1613	1.6039e+02	-7.8874	-78.074168	0.000243	2.432179	0.412022	0.000049
1614	1.6049e+02	-7.8679	-77.953054	0.000608	6.080448	1.030056	0.000122
1615	1.6059e+02	-7.8482	-77.872311	0.000405	4.053632	0.686704	0.000081
1616	1.6069e+02	-7.8271	-77.819828	0.000263	2.634861	0.446358	0.000053
1617	1.6079e+02	-7.8072	-77.714863	0.000527	5.269722	0.892715	0.000105
1618	1.6089e+02	-7.7881	-77.646232	0.000345	3.445587	0.583698	0.000069
1619	1.6099e+02	-7.7684	-77.500895	0.000730	7.296538	1.236067	0.000146
1620	1.6109e+02	-7.7485	-77.412078	0.000446	4.458995	0.755374	0.000089
1621	1.6119e+02	-7.7290	-77.391892	0.000101	1.013408	0.171676	0.000020
1622	1.6129e+02	-7.7094	-77.274815	0.000588	5.877767	0.995721	0.000118
1623	1.6139e+02	-7.6891	-77.226370	0.000243	2.432179	0.412022	0.000049
1624	1.6149e+02	-7.6685	-77.117367	0.000547	5.472403	0.927050	0.000110
1625	1.6159e+02	-7.6483	-77.024513	0.000466	4.661677	0.789709	0.000093
1626	1.6169e+02	-7.6285	-76.943770	0.000405	4.053632	0.686704	0.000081
1627	1.6179e+02	-7.6077	-76.818619	0.000628	6.283130	1.064391	0.000126
1628	1.6189e+02	-7.5888	-76.790359	0.000142	1.418771	0.240346	0.000028
1629	1.6199e+02	-7.5688	-76.669245	0.000608	6.080448	1.030056	0.000122
1630	1.6209e+02	-7.5500	-76.612725	0.000284	2.837543	0.480693	0.000057
1631	1.6219e+02	-7.5298	-76.523908	0.000446	4.458995	0.755374	0.000089
1632	1.6228e+02	-7.5095	-76.398757	0.000628	6.283130	1.064391	0.000126
1633	1.6238e+02	-7.4921	-76.309940	0.000446	4.458995	0.755374	0.000089
1634	1.6248e+02	-7.4698	-76.285717	0.000122	1.216090	0.206011	0.000024
1635	1.6258e+02	-7.4490	-76.188826	0.000486	4.864359	0.824045	0.000097
1636	1.6268e+02	-7.4301	-76.124231	0.000324	3.242906	0.549363	0.000065
1637	1.6278e+02	-7.4100	-75.942560	0.000912	9.120672	1.545084	0.000183
1638	1.6288e+02	-7.3904	-75.861818	0.000405	4.053632	0.686704	0.000081
1639	1.6298e+02	-7.3702	-75.760889	0.000507	5.067040	0.858380	0.000101
1640	1.6308e+02	-7.3502	-75.668035	0.000466	4.661677	0.789709	0.000093
1641	1.6318e+02	-7.3304	-75.579218	0.000446	4.458995	0.755374	0.000089
1642	1.6328e+02	-7.3105	-75.494438	0.000426	4.256314	0.721039	0.000085
1643	1.6338e+02	-7.2905	-75.389473	0.000527	5.269722	0.892715	0.000105
1644	1.6348e+02	-7.2702	-75.260284	0.000649	6.485812	1.098726	0.000130
1645	1.6358e+02	-7.2501	-75.199727	0.000304	3.040224	0.515028	0.000061
1646	1.6368e+02	-7.2296	-75.110910	0.000446	4.458995	0.755374	0.000089
1647	1.6378e+02	-7.2103	-75.042279	0.000345	3.445587	0.583698	0.000069
1648	1.6388e+02	-7.1909	-74.896942	0.000730	7.296538	1.236067	0.000146
1649	1.6398e+02	-7.1713	-74.808125	0.000446	4.458995	0.755374	0.000089
1650	1.6408e+02	-7.1513	-74.771791	0.000182	1.824134	0.309017	0.000037
1651	1.6418e+02	-7.1317	-74.626454	0.000730	7.296538	1.236067	0.000146
1652	1.6427e+02	-7.1110	-74.501303	0.000628	6.283130	1.064391	0.000126
1653	1.6437e+02	-7.0914	-74.481117	0.000101	1.013408	0.171676	0.000020
1654	1.6447e+02	-7.0712	-74.323669	0.000790	7.904583	1.339073	0.000158
1655	1.6457e+02	-7.0513	-74.226778	0.000486	4.864359	0.824045	0.000097
1656	1.6467e+02	-7.0316	-74.146035	0.000405	4.053632	0.686704	0.000081
1657	1.6477e+02	-7.0111	-74.061255	0.000426	4.256314	0.721039	0.000085
1658	1.6487e+02	-6.9920	-73.956290	0.000527	5.269722	0.892715	0.000105
1659	1.6497e+02	-6.9713	-73.843250	0.000568	5.675085	0.961385	0.000114
1660	1.6507e+02	-6.9516	-73.746359	0.000486	4.864359	0.824045	0.000097
1661	1.6517e+02	-6.9315	-73.681764	0.000324	3.242906	0.549363	0.000065
1662	1.6527e+02	-6.9120	-73.536427	0.000730	7.296538	1.236067	0.000146
1663	1.6537e+02	-6.8924	-73.447610	0.000446	4.458995	0.755374	0.000089
1664	1.6547e+02	-6.8730	-73.346682	0.000507	5.067040	0.858380	0.000101
1665	1.6557e+02	-6.8520	-73.282088	0.000324	3.242906	0.549363	0.000065
1666	1.6567e+02	-6.8326	-73.169048	0.000568	5.675085	0.961385	0.000114
1667	1.6577e+02	-6.8127	-73.084268	0.000426	4.256314	0.721039	0.000085
1668	1.6587e+02	-6.7929	-72.938931	0.000730	7.296538	1.236067	0.000146
1669	1.6597e+02	-6.7737	-72.817817	0.000608	6.080448	1.030056	0.000122
1670	1.6607e+02	-6.7534	-72.745149	0.000365	3.648269	0.618033	0.000073
1671	1.6616e+02	-6.7327	-72.668443	0.000385	3.850951	0.652369	0.000077
1672	1.6626e+02	-6.7120	-72.563478	0.000527	5.269722	0.892715	0.000105
1673	1.6636e+02	-6.6935	-72.430252	0.000669	6.688493	1.133061	0.000134
1674	1.6646e+02	-6.6733	-72.313175	0.000588	5.877767	0.995721	0.000118
1675	1.6656e+02	-6.6531	-72.196098	0.000588	5.877767	0.995721	0.000118
1676	1.6666e+02	-6.6338	-72.111319	0.000426	4.256314	0.721039	0.000085
1677	1.6676e+02	-6.6133	-72.030576	0.000405	4.053632	0.686704	0.000081
1678	1.6686e+02	-6.5933	-71.917536	0.000568	5.675085	0.961385	0.000114
1679	1.6696e+02	-6.5729	-71.808533	0.000547	5.472403	0.927050	0.000110
1680	1.6706e+02	-6.5536	-71.715679	0.000466	4.661677	0.789709	0.000093
1681	1.6716e+02	-6.5341	-71.594565	0.000608	6.080448	1.030056	0.000122
1682	1.6726e+02	-6.5132	-71.481525	0.000568	5.675085	0.961385	0.000114
1683	1.6736e+02	-6.4923	-71.344263	0.000689	6.891175	1.167397	0.000138
1684	1.6746e+02	-6.4739	-71.299854	0.000223	2.229498	0.377687	0.000045
1685	1.6756e+02	-6.4531	-71.162592	0.000689	6.891175	1.167397	0.000138
1686	1.6766e+02	-6.4340	-71.057626	0.000527	5.269722	0.892715	0.000105
1687	1.6776e+02	-6.4139	-70.948623	0.000547	5.472403	0.927050	0.000110
1688	1.6786e+02	-6.3945	-70.839621	0.000547	5.472403	0.927050	0.000110
1689	1.6796e+02	-6.3748	-70.750804	0.000446	4.458995	0.755374	0.000089
1690	1.6806e+02	-6.3536	-70.633727	0.000588	5.877767	0.995721	0.000118
1691	1.6816e+02	-6.3341	-70.524724	0.000547	5.472403	0.927050	0.000110
1692	1.6825e+02	-6.3138	-70.407647	0.000588	5.877767	0.995721	0.000118
1693	1.6835e+02	-6.2956	-70.270385	0.000689	6.891175	1.167397	0.000138
1694	1.6845e+02	-6.2744	-70.193679	0.000385	3.850951	0.652369	0.000077
1695	1.6855e+02	-6.2548	-70.056416	0.000689	6.891175	1.167397	0.000138
1696	1.6865e+02	-6.2341	-69.979711	0.000385	3.850951	0.652369	0.000077
1697	1.6875e+02	-6.2148	-69.838411	0.000709	7.093856	1.201732	0.000142
1698	1.6885e+02	-6.1945	-69.761706	0.000385	3.850951	0.652369	0.000077
1699	1.6895e+02	-6.1747	-69.616369	0.000730	7.296538	1.236067	0.000146
1700	1.6905e+02	-6.1551	-69.523515	0.000466	4.661677	0.789709	0.000093
1701	1.6915e+02	-6.1349	-69.398363	0.000628	6.283130	1.064391	0.000126
1702	1.6925e+02	-6.1144	-69.285324	0.000568	5.675085	0.961385	0.000114
1703	1.6935e+02	-6.0950	-69.172284	0.000568	5.675085	0.961385	0.000114
1704	1.6945e+02	-6.0760	-69.047133	0.000628	6.283130	1.064391	0.000126
1705	1.6955e+02	-6.0556	-68.905833	0.000709	7.093856	1.201732	0.000142
1706	1.6965e+02	-6.0349	-68.821053	0.000426	4.256314	0.721039	0.000085
1707	1.6975e+02	-6.0155	-68.708013	0.000568	5.675085	0.961385	0.000114
1708	1.6985e+02	-5.9964	-68.607085	0.000507	5.067040	0.858380	0.000101
1709	1.6995e+02	-5.9752	-68.477896	0.000649	6.485812	1.098726	0.000130
1710	1.7005e+02	-5.9561	-68.364857	0.000568	5.675085	0.961385	0.000114
1711	1.7015e+02	-5.9367	-68.199334	0.000831	8.309946	1.407743	0.000166
1712	1.7024e+02	-5.9158	-68.150888	0.000243	2.432179	0.412022	0.000049
1713	1.7034e+02	-5.8958	-68.013626	0.000689	6.891175	1.167397	0.000138
1714	1.7044e+02	-5.8760	-67.896549	0.000588	5.877767	0.995721	0.000118
1715	1.7054e+02	-5.8563	-67.803695	0.000466	4.661677	0.789709	0.000093
1716	1.7064e+02	-5.8370	-67.630098	0.000872	8.715309	1.476413	0.000174
1717	1.7074e+02	-5.8166	-67.533207	0.000486	4.864359	0.824045	0.000097
1718	1.7084e+02	-5.7973	-67.416130	0.000588	5.877767	0.995721	0.000118
1719	1.7094e+02	-5.7761	-67.286941	0.000649	6.485812	1.098726	0.000130
1720	1.7104e+02	-5.7561	-67.141604	0.000730	7.296538	1.236067	0.000146
1721	1.7114e+02	-5.7361	-67.060862	0.000405	4.053632	0.686704	0.000081
1722	1.7124e+02	-5.7170	-66.951859	0.000547	5.472403	0.927050	0.000110
1723	1.7134e+02	-5.6966	-66.822671	0.000649	6.485812	1.098726	0.000130
1724	1.7144e+02	-5.6771	-66.685408	0.000689	6.891175	1.167397	0.000138
1725	1.7154e+02	-5.6566	-66.600628	0.000426	4.256314	0.721039	0.000085
1726	1.7164e+02	-5.6365	-66.443180	0.000790	7.904583	1.339073	0.000158
1727	1.7174e+02	-5.6172	-66.358400	0.000426	4.256314	0.721039	0.000085
1728	1.7184e+02	-5.5971	-66.225175	0.000669	6.688493	1.133061	0.000134
1729	1.7194e+02	-5.5768	-66.180766	0.000223	2.229498	0.377687	0.000045
1730	1.7204e+02	-5.5571	-66.023318	0.000790	7.904583	1.339073	0.000158
1731	1.7213e+02	-5.5374	-65.869907	0.000770	7.701901	1.304737	0.000154
1732	1.7223e+02	-5.5173	-65.768978	0.000507	5.067040	0.858380	0.000101
1733	1.7233e+02	-5.4979	-65.659976	0.000547	5.472403	0.927050	0.000110
1734	1.7243e+02	-5.4782	-65.530787	0.000649	6.485812	1.098726	0.000130
1735	1.7253e+02	-5.4570	-65.421785	0.000547	5.472403	0.927050	0.000110
1736	1.7263e+02	-5.4375	-65.312782	0.000547	5.472403	0.927050	0.000110
1737	1.7273e+02	-5.4173	-65.143222	0.000851	8.512628	1.442078	0.000170
1738	1.7283e+02	-5.3980	-65.038257	0.000527	5.269722	0.892715	0.000105
1739	1.7293e+02	-5.3778	-64.921180	0.000588	5.877767	0.995721	0.000118
1740	1.7303e+02	-5.3580	-64.804103	0.000588	5.877767	0.995721	0.000118
1741	1.7313e+02	-5.3384	-64.646655	0.000790	7.904583	1.339073	0.000158
1742	1.7323e+02	-5.3178	-64.537652	0.000547	5.472403	0.927050	0.000110
1743	1.7333e+02	-5.2988	-64.432686	0.000527	5.269722	0.892715	0.000105
1744	1.7343e+02	-5.2781	-64.303498	0.000649	6.485812	1.098726	0.000130
1745	1.7353e+02	-5.2579	-64.129901	0.000872	8.715309	1.476413	0.000174
1746	1.7363e+02	-5.2386	-64.061270	0.000345	3.445587	0.583698	0.000069
1747	1.7373e+02	-5.2185	-63.940156	0.000608	6.080448	1.030056	0.000122
1748	1.7383e+02	-5.1981	-63.790782	0.000750	7.499220	1.270402	0.000150
1749	1.7393e+02	-5.1788	-63.697928	0.000466	4.661677	0.789709	0.000093
1750	1.7403e+02	-5.1581	-63.548554	0.000750	7.499220	1.270402	0.000150
1751	1.7413e+02	-5.1386	-63.423402	0.000628	6.283130	1.064391	0.000126
1752	1.7422e+02	-5.1187	-63.302288	0.000608	6.080448	1.030056	0.000122
1753	1.7432e+02	-5.0989	-63.185211	0.000588	5.877767	0.995721	0.000118
1754	1.7442e+02	-5.0796	-63.027763	0.000790	7.904583	1.339073	0.000158
1755	1.7452e+02	-5.0597	-62.938946	0.000446	4.458995	0.755374	0.000089
1756	1.7462e+02	-5.0397	-62.850129	0.000446	4.458995	0.755374	0.000089
1757	1.7472e+02	-5.0198	-62.668458	0.000912	9.120672	1.545084	0.000183
1758	1.7482e+02	-5.0000	-62.559455	0.000547	5.472403	0.927050	0.000110
1759	1.7492e+02	-4.9799	-62.385859	0.000872	8.715309	1.476413	0.000174
1760	1.7502e+02	-4.9605	-62.321264	0.000324	3.242906	0.549363	0.000065
1761	1.7512e+02	-4.9405	-62.196113	0.000628	6.283130	1.064391	0.000126
1762	1.7522e+02	-4.9197	-62.066925	0.000649	6.485812	1.098726	0.000130
1763	1.7532e+02	-4.9001	-61.949848	0.000588	5.877767	0.995721	0.000118
1764	1.7542e+02	-4.8798	-61.780288	0.000851	8.512628	1.442078	0.000170
1765	1.7552e+02	-4.8595	-61.683397	0.000486	4.864359	0.824045	0.000097
1766	1.7562e+02	-4.8402	-61.570357	0.000568	5.675085	0.961385	0.000114
1767	1.7572e+02	-4.8209	-61.453280	0.000588	5.877767	0.995721	0.000118
1768	1.7582e+02	-4.8001	-61.328129	0.000628	6.283130	1.064391	0.000126
1769	1.7592e+02	-4.7803	-61.198941	0.000649	6.485812	1.098726	0.000130
1770	1.7602e+02	-4.7602	-61.065715	0.000669	6.688493	1.133061	0.000134
1771	1.7612e+02	-4.7404	-60.964787	0.000507	5.067040	0.858380	0.000101
1772	1.7621e+02	-4.7212	-60.799264	0.000831	8.309946	1.407743	0.000166
1773	1.7631e+02	-4.7008	-60.690262	0.000547	5.472403	0.927050	0.000110
1774	1.7641e+02	-4.6805	-60.593370	0.000486	4.864359	0.824045	0.000097
1775	1.7651e+02	-4.6613	-60.439959	0.000770	7.701901	1.304737	0.000154
1776	1.7661e+02	-4.6411	-60.310771	0.000649	6.485812	1.098726	0.000130
1777	1.7671e+02	-4.6207	-60.234065	0.000385	3.850951	0.652369	0.000077
1778	1.7681e+02	-4.6010	-60.084691	0.000750	7.499220	1.270402	0.000150
1779	1.7691e+02	-4.5816	-59.919169	0.000831	8.309946	1.407743	0.000166
1780	1.7701e+02	-4.5614	-59.757683	0.000811	8.107264	1.373408	0.000162
1781	1.7711e+02	-4.5408	-59.676940	0.000405	4.053632	0.686704	0.000081
1782	1.7721e+02	-4.5213	-59.571975	0.000527	5.269722	0.892715	0.000105
1783	1.7731e+02	-4.5012	-59.402415	0.000851	8.512628	1.442078	0.000170
1784	1.7741e+02	-4.4813	-59.277264	0.000628	6.283130	1.064391	0.000126
1785	1.7751e+02	-4.4617	-59.140001	0.000689	6.891175	1.167397	0.000138
1786	1.7761e+02	-4.4412	-59.026962	0.000568	5.675085	0.961385	0.000114
1787	1.7771e+02	-4.4214	-58.893736	0.000669	6.688493	1.133061	0.000134
1788	1.7781e+02	-4.4015	-58.764548	0.000649	6.485812	1.098726	0.000130
1789	1.7791e+02	-4.3822	-58.635359	0.000649	6.485812	1.098726	0.000130
1790	1.7801e+02	-4.3623	-58.518283	0.000588	5.877767	0.995721	0.000118
1791	1.7810e+02	-4.3425	-58.376983	0.000709	7.093856	1.201732	0.000142
1792	1.7820e+02	-4.3227	-58.296240	0.000405	4.053632	0.686704	0.000081
1793	1.7830e+02	-4.3014	-58.094383	0.001013	10.134081	1.716760	0.000203
1794	1.7840e+02	-4.2822	-57.981343	0.000568	5.675085	0.961385	0.000114
1795	1.7850e+02	-4.2625	-57.884452	0.000486	4.864359	0.824045	0.000097
1796	1.7860e+02	-4.2428	-57.743152	0.000709	7.093856	1.201732	0.000142
1797	1.7870e+02	-4.2227	-57.626076	0.000588	5.877767	0.995721	0.000118
1798	1.7880e+02	-4.2026	-57.484776	0.000709	7.093856	1.201732	0.000142
1799	1.7890e+02	-4.1837	-57.331365	0.000770	7.701901	1.304737	0.000154
1800	1.7900e+02	-4.1626	-57.226399	0.000527	5.269722	0.892715	0.000105
1801	1.7910e+02	-4.1418	-57.072988	0.000770	7.701901	1.304737	0.000154
1802	1.7920e+02	-4.1225	-56.931688	0.000709	7.093856	1.201732	0.000142
1803	1.7930e+02	-4.1022	-56.867094	0.000324	3.242906	0.549363	0.000065
1804	1.7940e+02	-4.0826	-56.737906	0.000649	6.485812	1.098726	0.000130
1805	1.7950e+02	-4.0633	-56.532012	0.001034	10.336762	1.751095	0.000207
1806	1.7960e+02	-4.0434	-56.418972	0.000568	5.675085	0.961385	0.000114
1807	1.7970e+02	-4.0229	-56.257487	0.000811	8.107264	1.373408	0.000162
1808	1.7980e+02	-4.0041	-56.188855	0.000345	3.445587	0.583698	0.000069
1809	1.7990e+02	-3.9834	-55.995073	0.000973	9.728717	1.648089	0.000195
1810	1.8000e+02	-3.9632	-55.882033	0.000568	5.675085	0.961385	0.000114
1811	1.8009e+02	-3.9429	-55.736696	0.000730	7.296538	1.236067	0.000146
1812	1.8019e+02	-3.9236	-55.587322	0.000750	7.499220	1.270402	0.000150
1813	1.8029e+02	-3.9041	-55.506579	0.000405	4.053632	0.686704	0.000081
1814	1.8039e+02	-3.8838	-55.365280	0.000709	7.093856	1.201732	0.000142
1815	1.8049e+02	-3.8640	-55.195720	0.000851	8.512628	1.442078	0.000170
1816	1.8059e+02	-3.8441	-55.042309	0.000770	7.701901	1.304737	0.000154
1817	1.8069e+02	-3.8243	-54.913120	0.000649	6.485812	1.098726	0.000130
1818	1.8079e+02	-3.8036	-54.796043	0.000588	5.877767	0.995721	0.000118
1819	1.8089e+02	-3.7835	-54.674929	0.000608	6.080448	1.030056	0.000122
1820	1.8099e+02	-3.7649	-54.517481	0.000790	7.904583	1.339073	0.000158
1821	1.8109e+02	-3.7453	-54.392330	0.000628	6.283130	1.064391	0.000126
1822	1.8119e+02	-3.7244	-54.242956	0.000750	7.499220	1.270402	0.000150
1823	1.8129e+02	-3.7045	-54.081470	0.000811	8.107264	1.373408	0.000162
1824	1.8139e+02	-3.6839	-53.956319	0.000628	6.283130	1.064391	0.000126
1825	1.8149e+02	-3.6655	-53.835205	0.000608	6.080448	1.030056	0.000122
1826	1.8159e+02	-3.6458	-53.689868	0.000730	7.296538	1.236067	0.000146
1827	1.8169e+02	-3.6256	-53.512234	0.000892	8.917991	1.510749	0.000179
1828	1.8179e+02	-3.6055	-53.387083	0.000628	6.283130	1.064391	0.000126
1829	1.8189e+02	-3.5852	-53.274043	0.000568	5.675085	0.961385	0.000114
1830	1.8199e+02	-3.5645	-53.116595	0.000790	7.904583	1.339073	0.000158
1831	1.8209e+02	-3.5453	-52.983369	0.000669	6.688493	1.133061	0.000134
1832	1.8218e+02	-3.5262	-52.838033	0.000730	7.296538	1.236067	0.000146
1833	1.8228e+02	-3.5041	-52.692696	0.000730	7.296538	1.236067	0.000146
1834	1.8238e+02	-3.4851	-52.583693	0.000547	5.472403	0.927050	0.000110
1835	1.8248e+02	-3.4657	-52.385873	0.000993	9.931399	1.682425	0.000199
1836	1.8258e+02	-3.4464	-52.317242	0.000345	3.445587	0.583698	0.000069
1837	1.8268e+02	-3.4256	-52.171905	0.000730	7.296538	1.236067	0.000146
1838	1.8278e+02	-3.4058	-51.998308	0.000872	8.715309	1.476413	0.000174
1839	1.8288e+02	-3.3858	-51.893343	0.000527	5.269722	0.892715	0.000105
1840	1.8298e+02	-3.3658	-51.715709	0.000892	8.917991	1.510749	0.000179
1841	1.8308e+02	-3.3456	-51.594595	0.000608	6.080448	1.030056	0.000122
1842	1.8318e+02	-3.3253	-51.408886	0.000932	9.323354	1.579419	0.000187
1843	1.8328e+02	-3.3068	-51.275661	0.000669	6.688493	1.133061	0.000134
1844	1.8338e+02	-3.2860	-51.142436	0.000669	6.688493	1.133061	0.000134
1845	1.8348e+02	-3.2661	-50.984987	0.000790	7.904583	1.339073	0.000158
1846	1.8358e+02	-3.2471	-50.827539	0.000790	7.904583	1.339073	0.000158
1847	1.8368e+02	-3.2262	-50.641831	0.000932	9.323354	1.579419	0.000187
1848	1.8378e+02	-3.2059	-50.472271	0.000851	8.512628	1.442078	0.000170
1849	1.8388e+02	-3.1866	-50.387491	0.000426	4.256314	0.721039	0.000085
1850	1.8398e+02	-3.1660	-50.226006	0.000811	8.107264	1.373408	0.000162
1851	1.8407e+02	-3.1467	-50.088743	0.000689	6.891175	1.167397	0.000138
1852	1.8417e+02	-3.1261	-49.943406	0.000730	7.296538	1.236067	0.000146
1853	1.8427e+02	-3.1064	-49.777884	0.000831	8.309946	1.407743	0.000166
1854	1.8437e+02	-3.0864	-49.652732	0.000628	6.283130	1.064391	0.000126
1855	1.8447e+02	-3.0682	-49.479136	0.000872	8.715309	1.476413	0.000174
1856	1.8457e+02	-3.0470	-49.349947	0.000649	6.485812	1.098726	0.000130
1857	1.8467e+02	-3.0273	-49.172313	0.000892	8.917991	1.510749	0.000179
1858	1.8477e+02	-3.0073	-49.067348	0.000527	5.269722	0.892715	0.000105
1859	1.8487e+02	-2.9878	-48.885677	0.000912	9.120672	1.545084	0.000183
1860	1.8497e+02	-2.9680	-48.740340	0.000730	7.296538	1.236067	0.000146
1861	1.8507e+02	-2.9480	-48.578854	0.000811	8.107264	1.373408	0.000162
1862	1.8517e+02	-2.9274	-48.481963	0.000486	4.864359	0.824045	0.000097
1863	1.8527e+02	-2.9073	-48.276069	0.001034	10.336762	1.751095	0.000207
1864	1.8537e+02	-2.8872	-48.150918	0.000628	6.283130	1.064391	0.000126
1865	1.8547e+02	-2.8677	-47.969247	0.000912	9.120672	1.545084	0.000183
1866	1.8557e+02	-2.8481	-47.811799	0.000790	7.904583	1.339073	0.000158
1867	1.8567e+02	-2.8275	-47.674536	0.000689	6.891175	1.167397	0.000138
1868	1.8577e+02	-2.8083	-47.529199	0.000730	7.296538	1.236067	0.000146
1869	1.8587e+02	-2.7881	-47.355602	0.000872	8.715309	1.476413	0.000174
1870	1.8597e+02	-2.7676	-47.210265	0.000730	7.296538	1.236067	0.000146
1871	1.8606e+02	-2.7480	-47.044743	0.000831	8.309946	1.407743	0.000166
1872	1.8616e+02	-2.7289	-46.842886	0.001013	10.134081	1.716760	0.000203
1873	1.8626e+02	-2.7072	-46.733883	0.000547	5.472403	0.927050	0.000110
1874	1.8636e+02	-2.6883	-46.560286	0.000872	8.715309	1.476413	0.000174
1875	1.8646e+02	-2.6691	-46.439172	0.000608	6.080448	1.030056	0.000122
1876	1.8656e+02	-2.6482	-46.269613	0.000851	8.512628	1.442078	0.000170
1877	1.8666e+02	-2.6283	-46.083904	0.000932	9.323354	1.579419	0.000187
1878	1.8676e+02	-2.6085	-45.938568	0.000730	7.296538	1.236067	0.000146
1879	1.8686e+02	-2.5890	-45.781119	0.000790	7.904583	1.339073	0.000158
1880	1.8696e+02	-2.5685	-45.660005	0.000608	6.080448	1.030056	0.000122
1881	1.8706e+02	-2.5485	-45.450074	0.001054	10.539444	1.785430	0.000211
1882	1.8716e+02	-2.5298	-45.280514	0.000851	8.512628	1.442078	0.000170
1883	1.8726e+02	-2.5095	-45.106918	0.000872	8.715309	1.476413	0.000174
1884	1.8736e+02	-2.4902	-45.026175	0.000405	4.053632	0.686704	0.000081
1885	1.8746e+02	-2.4698	-44.836430	0.000953	9.526036	1.613754	0.000191
1886	1.8756e+02	-2.4506	-44.654758	0.000912	9.120672	1.545084	0.000183
1887	1.8766e+02	-2.4303	-44.497310	0.000790	7.904583	1.339073	0.000158
1888	1.8776e+02	-2.4097	-44.331788	0.000831	8.309946	1.407743	0.000166
1889	1.8786e+02	-2.3905	-44.182414	0.000750	7.499220	1.270402	0.000150
1890	1.8796e+02	-2.3695	-44.037077	0.000730	7.296538	1.236067	0.000146
1891	1.8806e+02	-2.3500	-43.875591	0.000811	8.107264	1.373408	0.000162
1892	1.8815e+02	-2.3301	-43.701994	0.000872	8.715309	1.476413	0.000174
1893	1.8825e+02	-2.3099	-43.548583	0.000770	7.701901	1.304737	0.000154
1894	1.8835e+02	-2.2906	-43.387098	0.000811	8.107264	1.373408	0.000162
1895	1.8845e+02	-2.2705	-43.225612	0.000811	8.107264	1.373408	0.000162
1896	1.8855e+02	-2.2510	-43.031830	0.000973	9.728717	1.648089	0.000195
1897	1.8865e+02	-2.2303	-42.898604	0.000669	6.688493	1.133061	0.000134
1898	1.8875e+02	-2.2107	-42.737119	0.000811	8.107264	1.373408	0.000162
1899	1.8885e+02	-2.1910	-42.563522	0.000872	8.715309	1.476413	0.000174
1900	1.8895e+02	-2.1707	-42.389925	0.000872	8.715309	1.476413	0.000174
1901	1.8905e+02	-2.1512	-42.276885	0.000568	5.675085	0.961385	0.000114
1902	1.8915e+02	-2.1309	-42.087140	0.000953	9.526036	1.613754	0.000191
1903	1.8925e+02	-2.1108	-41.921618	0.000831	8.309946	1.407743	0.000166
1904	1.8935e+02	-2.0908	-41.731872	0.000953	9.526036	1.613754	0.000191
1905	1.8945e+02	-2.0714	-41.598647	0.000669	6.688493	1.133061	0.000134
1906	1.8955e+02	-2.0518	-41.465421	0.000669	6.688493	1.133061	0.000134
1907	1.8965e+02	-2.0308	-41.263564	0.001013	10.134081	1.716760	0.000203
1908	1.8975e+02	-2.0113	-41.085930	0.000892	8.917991	1.510749	0.000179
1909	1.8985e+02	-1.9909	-40.912334	0.000872	8.715309	1.476413	0.000174
1910	1.8995e+02	-1.9708	-40.775071	0.000689	6.891175	1.167397	0.000138
1911	1.9004e+02	-1.9516	-40.613586	0.000811	8.107264	1.373408	0.000162
1912	1.9014e+02	-1.9317	-40.415766	0.000993	9.931399	1.682425	0.000199
1913	1.9024e+02	-1.9115	-40.262355	0.000770	7.701901	1.304737	0.000154
1914	1.9034e+02	-1.8925	-40.096832	0.000831	8.309946	1.407743	0.000166
1915	1.9044e+02	-1.8725	-39.939384	0.000790	7.904583	1.339073	0.000158
1916	1.9054e+02	-1.8520	-39.745601	0.000973	9.728717	1.648089	0.000195
1917	1.9064e+02	-1.8321	-39.636599	0.000547	5.472403	0.927050	0.000110
1918	1.9074e+02	-1.8127	-39.414556	0.001115	11.147489	1.888436	0.000223
1919	1.9084e+02	-1.7920	-39.289405	0.000628	6.283130	1.064391	0.000126
1920	1.9094e+02	-1.7722	-39.115808	0.000872	8.715309	1.476413	0.000174
1921	1.9104e+02	-1.7522	-38.934137	0.000912	9.120672	1.545084	0.000183
1922	1.9114e+02	-1.7326	-38.768614	0.000831	8.309946	1.407743	0.000166
1923	1.9124e+02	-1.7123	-38.619240	0.000750	7.499220	1.270402	0.000150
1924	1.9134e+02	-1.6920	-38.401235	0.001094	10.944807	1.854100	0.000219
1925	1.9144e+02	-1.6730	-38.259935	0.000709	7.093856	1.201732	0.000142
1926	1.9154e+02	-1.6528	-38.106524	0.000770	7.701901	1.304737	0.000154
1927	1.9164e+02	-1.6322	-37.900630	0.001034	10.336762	1.751095	0.000207
1928	1.9174e+02	-1.6122	-37.763368	0.000689	6.891175	1.167397	0.000138
1929	1.9184e+02	-1.5929	-37.593808	0.000851	8.512628	1.442078	0.000170
1930	1.9194e+02	-1.5736	-37.428285	0.000831	8.309946	1.407743	0.000166
1931	1.9203e+02	-1.5530	-37.234503	0.000973	9.728717	1.648089	0.000195
1932	1.9213e+02	-1.5334	-37.101277	0.000669	6.688493	1.133061	0.000134
1933	1.9223e+02	-1.5130	-36.899421	0.001013	10.134081	1.716760	0.000203
1934	1.9233e+02	-1.4928	-36.741972	0.000790	7.904583	1.339073	0.000158
1935	1.9243e+02	-1.4734	-36.576450	0.000831	8.309946	1.407743	0.000166
1936	1.9253e+02	-1.4539	-36.427076	0.000750	7.499220	1.270402	0.000150
1937	1.9263e+02	-1.4339	-36.245405	0.000912	9.120672	1.545084	0.000183
1938	1.9273e+02	-1.4132	-36.075845	0.000851	8.512628	1.442078	0.000170
1939	1.9283e+02	-1.3926	-35.898211	0.000892	8.917991	1.510749	0.000179
1940	1.9293e+02	-1.3741	-35.728651	0.000851	8.512628	1.442078	0.000170
1941	1.9303e+02	-1.3536	-35.551017	0.000892	8.917991	1.510749	0.000179
1942	1.9313e+02	-1.3340	-35.417792	0.000669	6.688493	1.133061	0.000134
1943	1.9323e+02	-1.3139	-35.203824	0.001074	10.742125	1.819765	0.000215
1944	1.9333e+02	-1.2933	-35.054450	0.000750	7.499220	1.270402	0.000150
1945	1.9343e+02	-1.2727	-34.876816	0.000892	8.917991	1.510749	0.000179
1946	1.9353e+02	-1.2549	-34.699182	0.000892	8.917991	1.510749	0.000179
1947	1.9363e+02	-1.2341	-34.545771	0.000770	7.701901	1.304737	0.000154
1948	1.9373e+02	-1.2141	-34.392359	0.000770	7.701901	1.304737	0.000154
1949	1.9383e+02	-1.1954	-34.178391	0.001074	10.742125	1.819765	0.000215
1950	1.9393e+02	-1.1749	-34.041129	0.000689	6.891175	1.167397	0.000138
1951	1.9403e+02	-1.1554	-33.871569	0.000851	8.512628	1.442078	0.000170
1952	1.9412e+02	-1.1360	-33.689898	0.000912	9.120672	1.545084	0.000183
1953	1.9422e+02	-1.1147	-33.512264	0.000892	8.917991	1.510749	0.000179
1954	1.9432e+02	-1.0944	-33.350778	0.000811	8.107264	1.373408	0.000162
1955	1.9442e+02	-1.0751	-33.173144	0.000892	8.917991	1.510749	0.000179
1956	1.9452e+02	-1.0563	-33.019733	0.000770	7.701901	1.304737	0.000154
1957	1.9462e+02	-1.0353	-32.825951	0.000973	9.728717	1.648089	0.000195
1958	1.9472e+02	-1.0155	-32.664465	0.000811	8.107264	1.373408	0.000162
1959	1.9482e+02	-0.9958	-32.515091	0.000750	7.499220	1.270402	0.000150
1960	1.9492e+02	-0.9750	-32.325346	0.000953	9.526036	1.613754	0.000191
1961	1.9502e+02	-0.9557	-32.135600	0.000953	9.526036	1.613754	0.000191
1962	1.9512e+02	-0.9361	-31.953929	0.000912	9.120672	1.545084	0.000183
1963	1.9522e+02	-0.9164	-31.824741	0.000649	6.485812	1.098726	0.000130
1964	1.9532e+02	-0.8959	-31.610773	0.001074	10.742125	1.819765	0.000215
1965	1.9542e+02	-0.8752	-31.517919	0.000466	4.661677	0.789709	0.000093
1966	1.9552e+02	-0.8559	-31.267616	0.001257	12.566260	2.128782	0.000252
1967	1.9562e+02	-0.8357	-31.122279	0.000730	7.296538	1.236067	0.000146
1968	1.9572e+02	-0.8151	-30.940608	0.000912	9.120672	1.545084	0.000183
1969	1.9582e+02	-0.7962	-30.746826	0.000973	9.728717	1.648089	0.000195
1970	1.9592e+02	-0.7769	-30.585340	0.000811	8.107264	1.373408	0.000162
1971	1.9601e+02	-0.7571	-30.427892	0.000790	7.904583	1.339073	0.000158
1972	1.9611e+02	-0.7357	-30.226035	0.001013	10.134081	1.716760	0.000203
1973	1.9621e+02	-0.7156	-30.092810	0.000669	6.688493	1.133061	0.000134
1974	1.9631e+02	-0.6956	-29.919213	0.000872	8.715309	1.476413	0.000174
1975	1.9641e+02	-0.6767	-29.693133	0.001135	11.350170	1.922771	0.000227
1976	1.9651e+02	-0.6564	-29.543759	0.000750	7.499220	1.270402	0.000150
1977	1.9661e+02	-0.6364	-29.354014	0.000953	9.526036	1.613754	0.000191
1978	1.9671e+02	-0.6171	-29.196566	0.000790	7.904583	1.339073	0.000158
1979	1.9681e+02	-0.5965	-29.022969	0.000872	8.715309	1.476413	0.000174
1980	1.9691e+02	-0.5775	-28.837261	0.000932	9.323354	1.579419	0.000187
1981	1.9701e+02	-0.5569	-28.667701	0.000851	8.512628	1.442078	0.000170
1982	1.9711e+02	-0.5371	-28.469881	0.000993	9.931399	1.682425	0.000199
1983	1.9721e+02	-0.5167	-28.300322	0.000851	8.512628	1.442078	0.000170
1984	1.9731e+02	-0.4970	-28.090390	0.001054	10.539444	1.785430	0.000211
1985	1.9741e+02	-0.4766	-27.936979	0.000770	7.701901	1.304737	0.000154
1986	1.9751e+02	-0.4568	-27.775494	0.000811	8.107264	1.373408	0.000162
1987	1.9761e+02	-0.4375	-27.581711	0.000973	9.728717	1.648089	0.000195
1988	1.9771e+02	-0.4176	-27.416189	0.000831	8.309946	1.407743	0.000166
1989	1.9781e+02	-0.3979	-27.234518	0.000912	9.120672	1.545084	0.000183
1990	1.9791e+02	-0.3775	-27.060921	0.000872	8.715309	1.476413	0.000174
1991	1.9800e+02	-0.3564	-26.879250	0.000912	9.120672	1.545084	0.000183
1992	1.9810e+02	-0.3380	-26.713727	0.000831	8.309946	1.407743	0.000166
1993	1.9820e+02	-0.3172	-26.519945	0.000973	9.728717	1.648089	0.000195
1994	1.9830e+02	-0.2978	-26.358459	0.000811	8.107264	1.373408	0.000162
1995	1.9840e+02	-0.2775	-26.156602	0.001013	10.134081	1.716760	0.000203
1996	1.9850e+02	-0.2578	-26.007228	0.000750	7.499220	1.270402	0.000150
1997	1.9860e+02	-0.2388	-25.809409	0.000993	9.931399	1.682425	0.000199
1998	1.9870e+02	-0.2177	-25.599478	0.001054	10.539444	1.785430	0.000211
1999	1.9880e+02	-0.1982	-25.433955	0.000831	8.309946	1.407743	0.000166
2000	1.9890e+02	-0.1792	-25.256321	0.000892	8.917991	1.510749	0.000179
2001	1.9900e+02	-0.1584	-25.038316	0.001094	10.944807	1.854100	0.000219
2002	1.9910e+02	-0.1393	-24.897016	0.000709	7.093856	1.201732	0.000142
2003	1.9920e+02	-0.1182	-24.735531	0.000811	8.107264	1.373408	0.000162
2004	1.9930e+02	-0.0989	-24.513488	0.001115	11.147489	1.888436	0.000223
2005	1.9940e+02	-0.0785	-24.356040	0.000790	7.904583	1.339073	0.000158
2006	1.9950e+02	-0.0587	-24.146109	0.001054	10.539444	1.785430	0.000211
2007	1.9960e+02	-0.0394	-24.008846	0.000689	6.891175	1.167397	0.000138
2008	1.9970e+02	-0.0189	-23.770655	0.001196	11.958215	2.025776	0.000239
2009	1.9980e+02	-0.0003	-23.637430	0.001196	11.958215	2.025776	0.000134

Smooth data before PMax, +/-Pr and +/-Vc Calc.

PMax (uC/cm2):	7.46e+01
Pr (uC/cm2):	1.05e+01
-Pr (uC/cm2):	-3.16e+01
PLoss (uC/cm2):	-3.16e+01
-Vc:	-1.21e+00
C (Max-Eff) (nF):	7.46e-01
K (Eff):	1.26e+03
Vert. (+/-Pr) Shift (uC/cm2):	-1.05e+01
Offset (uC/cm2):	-7.88e+00

A (Loop Area - uC/cm2·Volts):	-6.32e-02



Hysteresis Version: 5.48.1 - Radiant Technologies, Inc., 1999 - 9/12/24

