»»»»»»»»»»»»»»»»»»»»»»»»»»»»»»»»»»»» Hysteresis ««««««««««««««««««««««««««««««««««««
»»»  Executed Version:	5.48.1
»»»  Vision Version:	5.48.4 (R)
»»»  Vision Compiled:	9/18/24
»»»  Driver Version:	5.47.0
»»»  Windows Version:	Windows 8 or 8.1
»»»  Processor Information:	x86 (AMD or Intel) - 32 Processors
»»»  Tester Name:	PMF21124-494 (100V)
»»»  Tester S/N:	PMF21124-494
»»»  Internal Amp Type:	100V RevK 270k
»»»  Internal Amp S/N:	iAB2-596/K     
»»»  Execution Count:	1
»»»»»»»»»»»»»»»»»»»»»»»»»»»»»»»»»»»»»»»»»»««««««««««««««««««««««««««««««««««««««««««

Stored:	7/8/2025 - 16:23:36
Configured:	07/08/25 02:50:47 PM
Executed:	07/08/25 04:22:48 PM

»»»»»»»»»»»»»»»»»»»»»»»»»»»»»»»»»»» Sample Info ««««««««««««««««««««««««««««««««««««
Sample Name:	
Lot Name:	
Wafer Name:	
Die Row/Column:	0/0
Capacitor Number:	0
Sample Area (cm2):	1.00e-04
Sample Thickness (microns):	1.50e-01

Amplifier:	Internal

»»»»»»»»»»»»»»»»»»»»»»»»»»»»»»»»»»» Tester Info «««««««««««««««««««««««««««««««««««
Tester Name:	PMF21124-494 (100V)
Tester Serial Number:	PMF21124-494
Return Signal Amp. Level:	0.19 [Index: 3]

»»»»»»»»»»»»»»»»»»»»»»»»»»»»»»»» Hysteresis Info ««««««««««««««««««««««««««««««««««
Task Name:	Hyst-724
Volts:	10.00
Field:	666.67 (kV/cm)
DCBias:	0.00
DCField:	0.00 (kV/cm)
Hysteresis Period (ms):	2.00e+02
Preset:	Enabled
Preset Delay (ms):	1.00e+03
Profile:	Standard Bipolar

»»»»»»»»»»»»»»»»»»»»»»»»»»»»»»»»»»»»»» Data «««««««««««««««««««««««««««««««««««««««
Points:	2009

Valid Data

Point	Time (ms)	Drive Voltage	Measured Polarization (uC/cm2)	Capacitance (uF)	Normalized Capacitance (uF/cm2)	Dielectric Constant	Instantaneous Current (mA)
   1	0.0000e+00	0.0002	14.991904	0.000669	6.688863	1.133124	0.000134
   2	9.9500e-02	0.0196	15.125129	0.000669	6.688863	1.133124	0.000134
   3	1.9900e-01	0.0388	15.254317	0.000649	6.486170	1.098787	0.000130
   4	2.9850e-01	0.0590	15.391580	0.000689	6.891556	1.167461	0.000138
   5	3.9800e-01	0.0793	15.524805	0.000669	6.688863	1.133124	0.000134
   6	4.9750e-01	0.0988	15.629771	0.000527	5.270013	0.892764	0.000105
   7	5.9700e-01	0.1187	15.758959	0.000649	6.486170	1.098787	0.000130
   8	6.9650e-01	0.1387	15.904296	0.000730	7.296942	1.236135	0.000146
   9	7.9600e-01	0.1588	16.061745	0.000791	7.905020	1.339147	0.000158
  10	8.9550e-01	0.1785	16.150562	0.000446	4.459242	0.755416	0.000089
  11	9.9500e-01	0.1979	16.291861	0.000709	7.094249	1.201798	0.000142
  12	1.0945e+00	0.2184	16.425087	0.000669	6.688863	1.133124	0.000134
  13	1.1940e+00	0.2393	16.594646	0.000851	8.513099	1.442158	0.000170
  14	1.2935e+00	0.2576	16.711723	0.000588	5.878092	0.995776	0.000118
  15	1.3930e+00	0.2781	16.869172	0.000791	7.905020	1.339147	0.000158
  16	1.4925e+00	0.2982	16.974137	0.000527	5.270013	0.892764	0.000105
  17	1.5920e+00	0.3181	17.123511	0.000750	7.499634	1.270472	0.000150
  18	1.6915e+00	0.3381	17.260774	0.000689	6.891556	1.167461	0.000138
  19	1.7910e+00	0.3576	17.361702	0.000507	5.067321	0.858427	0.000101
  20	1.8905e+00	0.3787	17.511076	0.000750	7.499634	1.270472	0.000150
  21	1.9900e+00	0.3977	17.640265	0.000649	6.486170	1.098787	0.000130
  22	2.0895e+00	0.4182	17.830010	0.000953	9.526563	1.613843	0.000191
  23	2.1890e+00	0.4383	17.922864	0.000466	4.661935	0.789753	0.000093
  24	2.2885e+00	0.4569	18.060127	0.000689	6.891556	1.167461	0.000138
  25	2.3880e+00	0.4774	18.185278	0.000628	6.283478	1.064450	0.000126
  26	2.4875e+00	0.5001	18.334652	0.000750	7.499634	1.270472	0.000150
  27	2.5870e+00	0.5170	18.500175	0.000831	8.310406	1.407821	0.000166
  28	2.6865e+00	0.5375	18.613214	0.000568	5.675399	0.961439	0.000114
  29	2.7860e+00	0.5570	18.762588	0.000750	7.499634	1.270472	0.000150
  30	2.8855e+00	0.5773	18.875628	0.000568	5.675399	0.961439	0.000114
  31	2.9850e+00	0.5965	19.045188	0.000851	8.513099	1.442158	0.000170
  32	3.0845e+00	0.6177	19.186488	0.000709	7.094249	1.201798	0.000142
  33	3.1840e+00	0.6371	19.287416	0.000507	5.067321	0.858427	0.000101
  34	3.2835e+00	0.6570	19.469087	0.000912	9.121177	1.545169	0.000183
  35	3.3830e+00	0.6776	19.602313	0.000669	6.688863	1.133124	0.000134
  36	3.4825e+00	0.6958	19.711315	0.000547	5.472706	0.927102	0.000110
  37	3.5820e+00	0.7167	19.840504	0.000649	6.486170	1.098787	0.000130
  38	3.6815e+00	0.7363	20.038323	0.000993	9.931948	1.682518	0.000199
  39	3.7810e+00	0.7567	20.167512	0.000649	6.486170	1.098787	0.000130
  40	3.8805e+00	0.7761	20.292663	0.000628	6.283478	1.064450	0.000126
  41	3.9800e+00	0.7962	20.438000	0.000730	7.296942	1.236135	0.000146
  42	4.0795e+00	0.8168	20.587374	0.000750	7.499634	1.270472	0.000150
  43	4.1790e+00	0.8368	20.700413	0.000568	5.675399	0.961439	0.000114
  44	4.2785e+00	0.8560	20.865936	0.000831	8.310406	1.407821	0.000166
  45	4.3780e+00	0.8765	21.023384	0.000791	7.905020	1.339147	0.000158
  46	4.4775e+00	0.8955	21.144498	0.000608	6.080785	1.030113	0.000122
  47	4.5770e+00	0.9156	21.289835	0.000730	7.296942	1.236135	0.000146
  48	4.6765e+00	0.9355	21.406912	0.000588	5.878092	0.995776	0.000118
  49	4.7760e+00	0.9561	21.548212	0.000709	7.094249	1.201798	0.000142
  50	4.8755e+00	0.9760	21.733920	0.000932	9.323870	1.579506	0.000187
  51	4.9750e+00	0.9962	21.863109	0.000649	6.486170	1.098787	0.000130
  52	5.0745e+00	1.0156	21.992297	0.000649	6.486170	1.098787	0.000130
  53	5.1740e+00	1.0354	22.165894	0.000872	8.715791	1.476495	0.000174
  54	5.2735e+00	1.0553	22.315268	0.000750	7.499634	1.270472	0.000150
  55	5.3730e+00	1.0755	22.476753	0.000811	8.107713	1.373484	0.000162
  56	5.4725e+00	1.0957	22.569607	0.000466	4.661935	0.789753	0.000093
  57	5.5720e+00	1.1151	22.767427	0.000993	9.931948	1.682518	0.000199
  58	5.6715e+00	1.1353	22.815873	0.000243	2.432314	0.412045	0.000049
  59	5.7710e+00	1.1556	23.021767	0.001034	10.337334	1.751192	0.000207
  60	5.8705e+00	1.1753	23.122695	0.000507	5.067321	0.858427	0.000101
  61	5.9700e+00	1.1941	23.288218	0.000831	8.310406	1.407821	0.000166
  62	6.0695e+00	1.2141	23.437592	0.000750	7.499634	1.270472	0.000150
  63	6.1690e+00	1.2343	23.554668	0.000588	5.878092	0.995776	0.000118
  64	6.2685e+00	1.2544	23.708080	0.000770	7.702327	1.304810	0.000154
  65	6.3680e+00	1.2749	23.821119	0.000568	5.675399	0.961439	0.000114
  66	6.4675e+00	1.2941	24.022976	0.001013	10.134641	1.716855	0.000203
  67	6.5670e+00	1.3129	24.168313	0.000730	7.296942	1.236135	0.000146
  68	6.6665e+00	1.3329	24.253093	0.000426	4.256549	0.721079	0.000085
  69	6.7660e+00	1.3538	24.374207	0.000608	6.080785	1.030113	0.000122
  70	6.8655e+00	1.3735	24.543767	0.000851	8.513099	1.442158	0.000170
  71	6.9650e+00	1.3943	24.693141	0.000750	7.499634	1.270472	0.000150
  72	7.0645e+00	1.4137	24.830403	0.000689	6.891556	1.167461	0.000138
  73	7.1640e+00	1.4331	25.028223	0.000993	9.931948	1.682518	0.000199
  74	7.2635e+00	1.4530	25.121077	0.000466	4.661935	0.789753	0.000093
  75	7.3630e+00	1.4732	25.290637	0.000851	8.513099	1.442158	0.000170
  76	7.4625e+00	1.4927	25.407714	0.000588	5.878092	0.995776	0.000118
  77	7.5620e+00	1.5139	25.524791	0.000588	5.878092	0.995776	0.000118
  78	7.6615e+00	1.5325	25.690313	0.000831	8.310406	1.407821	0.000166
  79	7.7610e+00	1.5536	25.811427	0.000608	6.080785	1.030113	0.000122
  80	7.8605e+00	1.5730	25.928504	0.000588	5.878092	0.995776	0.000118
  81	7.9600e+00	1.5933	26.106138	0.000892	8.918484	1.510832	0.000179
  82	8.0595e+00	1.6125	26.231289	0.000628	6.283478	1.064450	0.000126
  83	8.1590e+00	1.6319	26.376626	0.000730	7.296942	1.236135	0.000146
  84	8.2585e+00	1.6516	26.517926	0.000709	7.094249	1.201798	0.000142
  85	8.3580e+00	1.6735	26.651152	0.000669	6.688863	1.133124	0.000134
  86	8.4575e+00	1.6916	26.788414	0.000689	6.891556	1.167461	0.000138
  87	8.5570e+00	1.7122	26.945862	0.000791	7.905020	1.339147	0.000158
  88	8.6565e+00	1.7334	27.103311	0.000791	7.905020	1.339147	0.000158
  89	8.7560e+00	1.7524	27.280945	0.000892	8.918484	1.510832	0.000179
  90	8.8555e+00	1.7721	27.422245	0.000709	7.094249	1.201798	0.000142
  91	8.9550e+00	1.7925	27.523173	0.000507	5.067321	0.858427	0.000101
  92	9.0545e+00	1.8118	27.700807	0.000892	8.918484	1.510832	0.000179
  93	9.1540e+00	1.8320	27.793661	0.000466	4.661935	0.789753	0.000093
  94	9.2535e+00	1.8520	27.991481	0.000993	9.931948	1.682518	0.000199
  95	9.3530e+00	1.8727	28.100483	0.000547	5.472706	0.927102	0.000110
  96	9.4525e+00	1.8919	28.253894	0.000770	7.702327	1.304810	0.000154
  97	9.5520e+00	1.9125	28.407306	0.000770	7.702327	1.304810	0.000154
  98	9.6515e+00	1.9321	28.536494	0.000649	6.486170	1.098787	0.000130
  99	9.7510e+00	1.9517	28.697979	0.000811	8.107713	1.373484	0.000162
 100	9.8505e+00	1.9708	28.802945	0.000527	5.270013	0.892764	0.000105
 101	9.9500e+00	1.9917	28.992690	0.000953	9.526563	1.613843	0.000191
 102	1.0050e+01	2.0102	29.109767	0.000588	5.878092	0.995776	0.000118
 103	1.0149e+01	2.0310	29.263178	0.000770	7.702327	1.304810	0.000154
 104	1.0248e+01	2.0512	29.392367	0.000649	6.486170	1.098787	0.000130
 105	1.0348e+01	2.0707	29.505407	0.000568	5.675399	0.961439	0.000114
 106	1.0447e+01	2.0906	29.662855	0.000791	7.905020	1.339147	0.000158
 107	1.0547e+01	2.1110	29.836452	0.000872	8.715791	1.476495	0.000174
 108	1.0646e+01	2.1305	29.961603	0.000628	6.283478	1.064450	0.000126
 109	1.0746e+01	2.1511	30.119051	0.000791	7.905020	1.339147	0.000158
 110	1.0845e+01	2.1709	30.264388	0.000730	7.296942	1.236135	0.000146
 111	1.0945e+01	2.1909	30.389539	0.000628	6.283478	1.064450	0.000126
 112	1.1044e+01	2.2105	30.518728	0.000649	6.486170	1.098787	0.000130
 113	1.1144e+01	2.2299	30.688287	0.000851	8.513099	1.442158	0.000170
 114	1.1243e+01	2.2509	30.890144	0.001013	10.134641	1.716855	0.000203
 115	1.1343e+01	2.2705	30.987035	0.000486	4.864628	0.824090	0.000097
 116	1.1443e+01	2.2903	31.108149	0.000608	6.080785	1.030113	0.000122
 117	1.1542e+01	2.3100	31.249449	0.000709	7.094249	1.201798	0.000142
 118	1.1642e+01	2.3297	31.394786	0.000730	7.296942	1.236135	0.000146
 119	1.1741e+01	2.3505	31.552234	0.000791	7.905020	1.339147	0.000158
 120	1.1841e+01	2.3699	31.669311	0.000588	5.878092	0.995776	0.000118
 121	1.1940e+01	2.3898	31.842908	0.000872	8.715791	1.476495	0.000174
 122	1.2040e+01	2.4096	31.939799	0.000486	4.864628	0.824090	0.000097
 123	1.2139e+01	2.4299	32.125508	0.000932	9.323870	1.579506	0.000187
 124	1.2239e+01	2.4500	32.238547	0.000568	5.675399	0.961439	0.000114
 125	1.2338e+01	2.4697	32.383884	0.000730	7.296942	1.236135	0.000146
 126	1.2438e+01	2.4900	32.509036	0.000628	6.283478	1.064450	0.000126
 127	1.2537e+01	2.5097	32.686670	0.000892	8.918484	1.510832	0.000179
 128	1.2636e+01	2.5291	32.848155	0.000811	8.107713	1.373484	0.000162
 129	1.2736e+01	2.5497	32.957158	0.000547	5.472706	0.927102	0.000110
 130	1.2835e+01	2.5694	33.086346	0.000649	6.486170	1.098787	0.000130
 131	1.2935e+01	2.5883	33.259943	0.000872	8.715791	1.476495	0.000174
 132	1.3034e+01	2.6090	33.372983	0.000568	5.675399	0.961439	0.000114
 133	1.3134e+01	2.6296	33.550617	0.000892	8.918484	1.510832	0.000179
 134	1.3233e+01	2.6482	33.659619	0.000547	5.472706	0.927102	0.000110
 135	1.3333e+01	2.6691	33.837253	0.000892	8.918484	1.510832	0.000179
 136	1.3432e+01	2.6879	33.922033	0.000426	4.256549	0.721079	0.000085
 137	1.3532e+01	2.7087	34.075444	0.000770	7.702327	1.304810	0.000154
 138	1.3632e+01	2.7285	34.236930	0.000811	8.107713	1.373484	0.000162
 139	1.3731e+01	2.7477	34.378229	0.000709	7.094249	1.201798	0.000142
 140	1.3831e+01	2.7681	34.535678	0.000791	7.905020	1.339147	0.000158
 141	1.3930e+01	2.7881	34.685052	0.000750	7.499634	1.270472	0.000150
 142	1.4030e+01	2.8078	34.806166	0.000608	6.080785	1.030113	0.000122
 143	1.4129e+01	2.8278	34.955540	0.000750	7.499634	1.270472	0.000150
 144	1.4229e+01	2.8477	35.080691	0.000628	6.283478	1.064450	0.000126
 145	1.4328e+01	2.8691	35.221991	0.000709	7.094249	1.201798	0.000142
 146	1.4428e+01	2.8884	35.379439	0.000791	7.905020	1.339147	0.000158
 147	1.4527e+01	2.9081	35.540924	0.000811	8.107713	1.373484	0.000162
 148	1.4627e+01	2.9279	35.670113	0.000649	6.486170	1.098787	0.000130
 149	1.4726e+01	2.9476	35.815450	0.000730	7.296942	1.236135	0.000146
 150	1.4825e+01	2.9673	35.976935	0.000811	8.107713	1.373484	0.000162
 151	1.4925e+01	2.9873	36.081901	0.000527	5.270013	0.892764	0.000105
 152	1.5024e+01	3.0074	36.247423	0.000831	8.310406	1.407821	0.000166
 153	1.5124e+01	3.0268	36.376612	0.000649	6.486170	1.098787	0.000130
 154	1.5223e+01	3.0470	36.513874	0.000689	6.891556	1.167461	0.000138
 155	1.5323e+01	3.0677	36.659211	0.000730	7.296942	1.236135	0.000146
 156	1.5422e+01	3.0874	36.820696	0.000811	8.107713	1.373484	0.000162
 157	1.5522e+01	3.1069	36.877216	0.000284	2.837700	0.480719	0.000057
 158	1.5621e+01	3.1266	37.115407	0.001196	11.958877	2.025889	0.000239
 159	1.5721e+01	3.1472	37.236521	0.000608	6.080785	1.030113	0.000122
 160	1.5820e+01	3.1668	37.389933	0.000770	7.702327	1.304810	0.000154
 161	1.5920e+01	3.1864	37.502972	0.000568	5.675399	0.961439	0.000114
 162	1.6020e+01	3.2057	37.640235	0.000689	6.891556	1.167461	0.000138
 163	1.6119e+01	3.2264	37.785572	0.000730	7.296942	1.236135	0.000146
 164	1.6218e+01	3.2461	37.947057	0.000811	8.107713	1.373484	0.000162
 165	1.6318e+01	3.2667	38.068171	0.000608	6.080785	1.030113	0.000122
 166	1.6418e+01	3.2866	38.201397	0.000669	6.688863	1.133124	0.000134
 167	1.6517e+01	3.3068	38.358845	0.000791	7.905020	1.339147	0.000158
 168	1.6616e+01	3.3266	38.500145	0.000709	7.094249	1.201798	0.000142
 169	1.6716e+01	3.3469	38.629333	0.000649	6.486170	1.098787	0.000130
 170	1.6816e+01	3.3657	38.782744	0.000770	7.702327	1.304810	0.000154
 171	1.6915e+01	3.3863	38.944230	0.000811	8.107713	1.373484	0.000162
 172	1.7015e+01	3.4058	39.073418	0.000649	6.486170	1.098787	0.000130
 173	1.7114e+01	3.4266	39.230867	0.000791	7.905020	1.339147	0.000158
 174	1.7213e+01	3.4464	39.331795	0.000507	5.067321	0.858427	0.000101
 175	1.7313e+01	3.4661	39.460983	0.000649	6.486170	1.098787	0.000130
 176	1.7413e+01	3.4865	39.606320	0.000730	7.296942	1.236135	0.000146
 177	1.7512e+01	3.5050	39.719360	0.000568	5.675399	0.961439	0.000114
 178	1.7611e+01	3.5258	39.880845	0.000811	8.107713	1.373484	0.000162
 179	1.7711e+01	3.5448	40.005997	0.000628	6.283478	1.064450	0.000126
 180	1.7811e+01	3.5650	40.147296	0.000709	7.094249	1.201798	0.000142
 181	1.7910e+01	3.5853	40.292633	0.000730	7.296942	1.236135	0.000146
 182	1.8009e+01	3.6049	40.421822	0.000649	6.486170	1.098787	0.000130
 183	1.8109e+01	3.6243	40.611567	0.000953	9.526563	1.613843	0.000191
 184	1.8209e+01	3.6446	40.660013	0.000243	2.432314	0.412045	0.000049
 185	1.8308e+01	3.6658	40.853795	0.000973	9.729255	1.648180	0.000195
 186	1.8407e+01	3.6848	40.970872	0.000588	5.878092	0.995776	0.000118
 187	1.8507e+01	3.7051	41.087949	0.000588	5.878092	0.995776	0.000118
 188	1.8607e+01	3.7252	41.261546	0.000872	8.715791	1.476495	0.000174
 189	1.8706e+01	3.7451	41.370548	0.000547	5.472706	0.927102	0.000110
 190	1.8805e+01	3.7646	41.519922	0.000750	7.499634	1.270472	0.000150
 191	1.8905e+01	3.7829	41.649111	0.000649	6.486170	1.098787	0.000130
 192	1.9005e+01	3.8039	41.786373	0.000689	6.891556	1.167461	0.000138
 193	1.9104e+01	3.8235	41.935747	0.000750	7.499634	1.270472	0.000150
 194	1.9203e+01	3.8442	42.060899	0.000628	6.283478	1.064450	0.000126
 195	1.9303e+01	3.8634	42.194124	0.000669	6.688863	1.133124	0.000134
 196	1.9402e+01	3.8844	42.319275	0.000628	6.283478	1.064450	0.000126
 197	1.9502e+01	3.9036	42.456538	0.000689	6.891556	1.167461	0.000138
 198	1.9602e+01	3.9242	42.618023	0.000811	8.107713	1.373484	0.000162
 199	1.9701e+01	3.9442	42.775472	0.000791	7.905020	1.339147	0.000158
 200	1.9800e+01	3.9639	42.864289	0.000446	4.459242	0.755416	0.000089
 201	1.9900e+01	3.9832	42.989440	0.000628	6.283478	1.064450	0.000126
 202	2.0000e+01	4.0031	43.134777	0.000730	7.296942	1.236135	0.000146
 203	2.0099e+01	4.0227	43.296262	0.000811	8.107713	1.373484	0.000162
 204	2.0198e+01	4.0437	43.389116	0.000466	4.661935	0.789753	0.000093
 205	2.0298e+01	4.0636	43.530416	0.000709	7.094249	1.201798	0.000142
 206	2.0398e+01	4.0823	43.663642	0.000669	6.688863	1.133124	0.000134
 207	2.0497e+01	4.1029	43.813016	0.000750	7.499634	1.270472	0.000150
 208	2.0596e+01	4.1237	43.958352	0.000730	7.296942	1.236135	0.000146
 209	2.0696e+01	4.1436	44.059281	0.000507	5.067321	0.858427	0.000101
 210	2.0796e+01	4.1625	44.180395	0.000608	6.080785	1.030113	0.000122
 211	2.0895e+01	4.1821	44.333806	0.000770	7.702327	1.304810	0.000154
 212	2.0994e+01	4.2022	44.475106	0.000709	7.094249	1.201798	0.000142
 213	2.1094e+01	4.2223	44.624480	0.000750	7.499634	1.270472	0.000150
 214	2.1194e+01	4.2420	44.729445	0.000527	5.270013	0.892764	0.000105
 215	2.1293e+01	4.2623	44.874782	0.000730	7.296942	1.236135	0.000146
 216	2.1392e+01	4.2822	44.987822	0.000568	5.675399	0.961439	0.000114
 217	2.1492e+01	4.3027	45.161419	0.000872	8.715791	1.476495	0.000174
 218	2.1591e+01	4.3221	45.242162	0.000405	4.053856	0.686742	0.000081
 219	2.1691e+01	4.3427	45.387499	0.000730	7.296942	1.236135	0.000146
 220	2.1791e+01	4.3620	45.512650	0.000628	6.283478	1.064450	0.000126
 221	2.1890e+01	4.3824	45.641838	0.000649	6.486170	1.098787	0.000130
 222	2.1989e+01	4.4013	45.758915	0.000588	5.878092	0.995776	0.000118
 223	2.2089e+01	4.4207	45.920400	0.000811	8.107713	1.373484	0.000162
 224	2.2189e+01	4.4408	46.033440	0.000568	5.675399	0.961439	0.000114
 225	2.2288e+01	4.4616	46.166666	0.000669	6.688863	1.133124	0.000134
 226	2.2387e+01	4.4808	46.255483	0.000446	4.459242	0.755416	0.000089
 227	2.2487e+01	4.5016	46.449265	0.000973	9.729255	1.648180	0.000195
 228	2.2587e+01	4.5215	46.570379	0.000608	6.080785	1.030113	0.000122
 229	2.2686e+01	4.5402	46.671308	0.000507	5.067321	0.858427	0.000101
 230	2.2785e+01	4.5617	46.796459	0.000628	6.283478	1.064450	0.000126
 231	2.2885e+01	4.5821	46.929684	0.000669	6.688863	1.133124	0.000134
 232	2.2985e+01	4.6008	47.026576	0.000486	4.864628	0.824090	0.000097
 233	2.3084e+01	4.6214	47.188061	0.000811	8.107713	1.373484	0.000162
 234	2.3183e+01	4.6413	47.280915	0.000466	4.661935	0.789753	0.000093
 235	2.3283e+01	4.6609	47.418178	0.000689	6.891556	1.167461	0.000138
 236	2.3383e+01	4.6804	47.543329	0.000628	6.283478	1.064450	0.000126
 237	2.3482e+01	4.7005	47.684629	0.000709	7.094249	1.201798	0.000142
 238	2.3581e+01	4.7211	47.781520	0.000486	4.864628	0.824090	0.000097
 239	2.3681e+01	4.7407	47.975303	0.000973	9.729255	1.648180	0.000195
 240	2.3780e+01	4.7625	47.991451	0.000081	0.810771	0.137348	0.000016
 241	2.3880e+01	4.7800	48.161011	0.000851	8.513099	1.442158	0.000170
 242	2.3980e+01	4.8003	48.306348	0.000730	7.296942	1.236135	0.000146
 243	2.4079e+01	4.8197	48.423425	0.000588	5.878092	0.995776	0.000118
 244	2.4178e+01	4.8402	48.552613	0.000649	6.486170	1.098787	0.000130
 245	2.4278e+01	4.8595	48.653541	0.000507	5.067321	0.858427	0.000101
 246	2.4378e+01	4.8797	48.782730	0.000649	6.486170	1.098787	0.000130
 247	2.4477e+01	4.9004	48.919992	0.000689	6.891556	1.167461	0.000138
 248	2.4576e+01	4.9191	49.012846	0.000466	4.661935	0.789753	0.000093
 249	2.4676e+01	4.9406	49.154146	0.000709	7.094249	1.201798	0.000142
 250	2.4776e+01	4.9595	49.291409	0.000689	6.891556	1.167461	0.000138
 251	2.4875e+01	4.9796	49.412523	0.000608	6.080785	1.030113	0.000122
 252	2.4974e+01	4.9993	49.533637	0.000608	6.080785	1.030113	0.000122
 253	2.5074e+01	5.0195	49.666862	0.000669	6.688863	1.133124	0.000134
 254	2.5174e+01	5.0396	49.763754	0.000486	4.864628	0.824090	0.000097
 255	2.5273e+01	5.0593	49.884868	0.000608	6.080785	1.030113	0.000122
 256	2.5372e+01	5.0783	50.034242	0.000750	7.499634	1.270472	0.000150
 257	2.5472e+01	5.0998	50.127096	0.000466	4.661935	0.789753	0.000093
 258	2.5572e+01	5.1189	50.284544	0.000791	7.905020	1.339147	0.000158
 259	2.5671e+01	5.1385	50.437955	0.000770	7.702327	1.304810	0.000154
 260	2.5770e+01	5.1592	50.534847	0.000486	4.864628	0.824090	0.000097
 261	2.5870e+01	5.1785	50.639812	0.000527	5.270013	0.892764	0.000105
 262	2.5970e+01	5.1986	50.769000	0.000649	6.486170	1.098787	0.000130
 263	2.6069e+01	5.2180	50.886077	0.000588	5.878092	0.995776	0.000118
 264	2.6169e+01	5.2383	51.011229	0.000628	6.283478	1.064450	0.000126
 265	2.6268e+01	5.2579	51.156566	0.000730	7.296942	1.236135	0.000146
 266	2.6367e+01	5.2773	51.285754	0.000649	6.486170	1.098787	0.000130
 267	2.6467e+01	5.2981	51.346311	0.000304	3.040392	0.515056	0.000061
 268	2.6567e+01	5.3187	51.503759	0.000791	7.905020	1.339147	0.000158
 269	2.6666e+01	5.3382	51.628910	0.000628	6.283478	1.064450	0.000126
 270	2.6765e+01	5.3579	51.713690	0.000426	4.256549	0.721079	0.000085
 271	2.6865e+01	5.3776	51.887287	0.000872	8.715791	1.476495	0.000174
 272	2.6965e+01	5.3982	51.996290	0.000547	5.472706	0.927102	0.000110
 273	2.7064e+01	5.4175	52.077032	0.000405	4.053856	0.686742	0.000081
 274	2.7163e+01	5.4375	52.214295	0.000689	6.891556	1.167461	0.000138
 275	2.7263e+01	5.4572	52.347521	0.000669	6.688863	1.133124	0.000134
 276	2.7363e+01	5.4783	52.476709	0.000649	6.486170	1.098787	0.000130
 277	2.7462e+01	5.4972	52.553414	0.000385	3.851164	0.652405	0.000077
 278	2.7561e+01	5.5177	52.698751	0.000730	7.296942	1.236135	0.000146
 279	2.7661e+01	5.5367	52.836014	0.000689	6.891556	1.167461	0.000138
 280	2.7761e+01	5.5566	52.957128	0.000608	6.080785	1.030113	0.000122
 281	2.7860e+01	5.5775	53.098428	0.000709	7.094249	1.201798	0.000142
 282	2.7959e+01	5.5973	53.191282	0.000466	4.661935	0.789753	0.000093
 283	2.8059e+01	5.6181	53.328545	0.000689	6.891556	1.167461	0.000138
 284	2.8159e+01	5.6367	53.421399	0.000466	4.661935	0.789753	0.000093
 285	2.8258e+01	5.6560	53.562698	0.000709	7.094249	1.201798	0.000142
 286	2.8358e+01	5.6763	53.671701	0.000547	5.472706	0.927102	0.000110
 287	2.8457e+01	5.6954	53.825112	0.000770	7.702327	1.304810	0.000154
 288	2.8556e+01	5.7159	53.897781	0.000365	3.648471	0.618068	0.000073
 289	2.8656e+01	5.7368	54.014858	0.000588	5.878092	0.995776	0.000118
 290	2.8756e+01	5.7568	54.164232	0.000750	7.499634	1.270472	0.000150
 291	2.8855e+01	5.7764	54.285346	0.000608	6.080785	1.030113	0.000122
 292	2.8954e+01	5.7956	54.382237	0.000486	4.864628	0.824090	0.000097
 293	2.9054e+01	5.8160	54.515462	0.000669	6.688863	1.133124	0.000134
 294	2.9154e+01	5.8358	54.632539	0.000588	5.878092	0.995776	0.000118
 295	2.9253e+01	5.8559	54.729431	0.000486	4.864628	0.824090	0.000097
 296	2.9352e+01	5.8761	54.878805	0.000750	7.499634	1.270472	0.000150
 297	2.9452e+01	5.8959	54.935325	0.000284	2.837700	0.480719	0.000057
 298	2.9552e+01	5.9157	55.096810	0.000811	8.107713	1.373484	0.000162
 299	2.9651e+01	5.9361	55.230035	0.000669	6.688863	1.133124	0.000134
 300	2.9750e+01	5.9559	55.367298	0.000689	6.891556	1.167461	0.000138
 301	2.9850e+01	5.9768	55.464189	0.000486	4.864628	0.824090	0.000097
 302	2.9950e+01	5.9945	55.605489	0.000709	7.094249	1.201798	0.000142
 303	3.0049e+01	6.0148	55.670083	0.000324	3.243085	0.549393	0.000065
 304	3.0148e+01	6.0354	55.863866	0.000973	9.729255	1.648180	0.000195
 305	3.0248e+01	6.0551	55.948646	0.000426	4.256549	0.721079	0.000085
 306	3.0348e+01	6.0748	56.061685	0.000568	5.675399	0.961439	0.000114
 307	3.0447e+01	6.0945	56.174725	0.000568	5.675399	0.961439	0.000114
 308	3.0547e+01	6.1150	56.283728	0.000547	5.472706	0.927102	0.000110
 309	3.0646e+01	6.1346	56.416953	0.000669	6.688863	1.133124	0.000134
 310	3.0745e+01	6.1541	56.542105	0.000628	6.283478	1.064450	0.000126
 311	3.0845e+01	6.1744	56.659182	0.000588	5.878092	0.995776	0.000118
 312	3.0945e+01	6.1953	56.764147	0.000527	5.270013	0.892764	0.000105
 313	3.1044e+01	6.2148	56.881224	0.000588	5.878092	0.995776	0.000118
 314	3.1143e+01	6.2339	57.026561	0.000730	7.296942	1.236135	0.000146
 315	3.1243e+01	6.2539	57.095192	0.000345	3.445778	0.583731	0.000069
 316	3.1343e+01	6.2737	57.236492	0.000709	7.094249	1.201798	0.000142
 317	3.1442e+01	6.2934	57.377792	0.000709	7.094249	1.201798	0.000142
 318	3.1541e+01	6.3139	57.470646	0.000466	4.661935	0.789753	0.000093
 319	3.1641e+01	6.3330	57.652317	0.000912	9.121177	1.545169	0.000183
 320	3.1741e+01	6.3532	57.729022	0.000385	3.851164	0.652405	0.000077
 321	3.1840e+01	6.3738	57.846099	0.000588	5.878092	0.995776	0.000118
 322	3.1939e+01	6.3934	57.999511	0.000770	7.702327	1.304810	0.000154
 323	3.2039e+01	6.4144	58.072179	0.000365	3.648471	0.618068	0.000073
 324	3.2139e+01	6.4336	58.225590	0.000770	7.702327	1.304810	0.000154
 325	3.2238e+01	6.4526	58.338630	0.000568	5.675399	0.961439	0.000114
 326	3.2337e+01	6.4738	58.423410	0.000426	4.256549	0.721079	0.000085
 327	3.2437e+01	6.4928	58.564710	0.000709	7.094249	1.201798	0.000142
 328	3.2536e+01	6.5127	58.693898	0.000649	6.486170	1.098787	0.000130
 329	3.2636e+01	6.5334	58.794826	0.000507	5.067321	0.858427	0.000101
 330	3.2736e+01	6.5518	58.944200	0.000750	7.499634	1.270472	0.000150
 331	3.2835e+01	6.5730	59.069352	0.000628	6.283478	1.064450	0.000126
 332	3.2934e+01	6.5926	59.154131	0.000426	4.256549	0.721079	0.000085
 333	3.3034e+01	6.6125	59.339840	0.000932	9.323870	1.579506	0.000187
 334	3.3133e+01	6.6326	59.368100	0.000142	1.418850	0.240360	0.000028
 335	3.3233e+01	6.6531	59.529585	0.000811	8.107713	1.373484	0.000162
 336	3.3333e+01	6.6729	59.610328	0.000405	4.053856	0.686742	0.000081
 337	3.3432e+01	6.6933	59.767776	0.000791	7.905020	1.339147	0.000158
 338	3.3532e+01	6.7123	59.852556	0.000426	4.256549	0.721079	0.000085
 339	3.3631e+01	6.7321	60.022116	0.000851	8.513099	1.442158	0.000170
 340	3.3730e+01	6.7525	60.094784	0.000365	3.648471	0.618068	0.000073
 341	3.3830e+01	6.7730	60.199750	0.000527	5.270013	0.892764	0.000105
 342	3.3929e+01	6.7916	60.337012	0.000689	6.891556	1.167461	0.000138
 343	3.4029e+01	6.8119	60.450052	0.000568	5.675399	0.961439	0.000114
 344	3.4129e+01	6.8316	60.555018	0.000527	5.270013	0.892764	0.000105
 345	3.4228e+01	6.8514	60.651909	0.000486	4.864628	0.824090	0.000097
 346	3.4328e+01	6.8713	60.785134	0.000669	6.688863	1.133124	0.000134
 347	3.4427e+01	6.8911	60.910285	0.000628	6.283478	1.064450	0.000126
 348	3.4526e+01	6.9118	61.031400	0.000608	6.080785	1.030113	0.000122
 349	3.4626e+01	6.9317	61.104068	0.000365	3.648471	0.618068	0.000073
 350	3.4725e+01	6.9520	61.225182	0.000608	6.080785	1.030113	0.000122
 351	3.4825e+01	6.9714	61.390705	0.000831	8.310406	1.407821	0.000166
 352	3.4925e+01	6.9911	61.511819	0.000608	6.080785	1.030113	0.000122
 353	3.5024e+01	7.0114	61.580450	0.000345	3.445778	0.583731	0.000069
 354	3.5123e+01	7.0306	61.693490	0.000568	5.675399	0.961439	0.000114
 355	3.5223e+01	7.0512	61.818641	0.000628	6.283478	1.064450	0.000126
 356	3.5322e+01	7.0703	61.895347	0.000385	3.851164	0.652405	0.000077
 357	3.5422e+01	7.0904	62.048758	0.000770	7.702327	1.304810	0.000154
 358	3.5522e+01	7.1104	62.149686	0.000507	5.067321	0.858427	0.000101
 359	3.5621e+01	7.1304	62.286949	0.000689	6.891556	1.167461	0.000138
 360	3.5721e+01	7.1503	62.375766	0.000446	4.459242	0.755416	0.000089
 361	3.5820e+01	7.1702	62.500917	0.000628	6.283478	1.064450	0.000126
 362	3.5919e+01	7.1902	62.626068	0.000628	6.283478	1.064450	0.000126
 363	3.6019e+01	7.2103	62.747182	0.000608	6.080785	1.030113	0.000122
 364	3.6118e+01	7.2298	62.864259	0.000588	5.878092	0.995776	0.000118
 365	3.6218e+01	7.2498	62.969225	0.000527	5.270013	0.892764	0.000105
 366	3.6318e+01	7.2701	63.049967	0.000405	4.053856	0.686742	0.000081
 367	3.6417e+01	7.2926	63.203379	0.000770	7.702327	1.304810	0.000154
 368	3.6517e+01	7.3094	63.296233	0.000466	4.661935	0.789753	0.000093
 369	3.6616e+01	7.3295	63.417347	0.000608	6.080785	1.030113	0.000122
 370	3.6715e+01	7.3486	63.530387	0.000568	5.675399	0.961439	0.000114
 371	3.6815e+01	7.3687	63.631315	0.000507	5.067321	0.858427	0.000101
 372	3.6914e+01	7.3897	63.788763	0.000791	7.905020	1.339147	0.000158
 373	3.7014e+01	7.4091	63.881617	0.000466	4.661935	0.789753	0.000093
 374	3.7114e+01	7.4297	63.978509	0.000486	4.864628	0.824090	0.000097
 375	3.7213e+01	7.4493	64.095586	0.000588	5.878092	0.995776	0.000118
 376	3.7313e+01	7.4683	64.188440	0.000466	4.661935	0.789753	0.000093
 377	3.7412e+01	7.4883	64.281294	0.000466	4.661935	0.789753	0.000093
 378	3.7511e+01	7.5099	64.430668	0.000750	7.499634	1.270472	0.000150
 379	3.7611e+01	7.5286	64.515448	0.000426	4.256549	0.721079	0.000085
 380	3.7711e+01	7.5478	64.624450	0.000547	5.472706	0.927102	0.000110
 381	3.7810e+01	7.5686	64.757676	0.000669	6.688863	1.133124	0.000134
 382	3.7910e+01	7.5879	64.874753	0.000588	5.878092	0.995776	0.000118
 383	3.8009e+01	7.6078	64.971644	0.000486	4.864628	0.824090	0.000097
 384	3.8108e+01	7.6292	65.080647	0.000547	5.472706	0.927102	0.000110
 385	3.8208e+01	7.6492	65.217909	0.000689	6.891556	1.167461	0.000138
 386	3.8307e+01	7.6692	65.306726	0.000446	4.459242	0.755416	0.000089
 387	3.8407e+01	7.6876	65.407655	0.000507	5.067321	0.858427	0.000101
 388	3.8507e+01	7.7077	65.476286	0.000345	3.445778	0.583731	0.000069
 389	3.8606e+01	7.7287	65.621623	0.000730	7.296942	1.236135	0.000146
 390	3.8706e+01	7.7472	65.758885	0.000689	6.891556	1.167461	0.000138
 391	3.8805e+01	7.7679	65.855777	0.000486	4.864628	0.824090	0.000097
 392	3.8904e+01	7.7871	65.972854	0.000588	5.878092	0.995776	0.000118
 393	3.9004e+01	7.8076	66.065708	0.000466	4.661935	0.789753	0.000093
 394	3.9103e+01	7.8268	66.178748	0.000568	5.675399	0.961439	0.000114
 395	3.9203e+01	7.8474	66.243342	0.000324	3.243085	0.549393	0.000065
 396	3.9303e+01	7.8671	66.376567	0.000669	6.688863	1.133124	0.000134
 397	3.9402e+01	7.8880	66.509793	0.000669	6.688863	1.133124	0.000134
 398	3.9502e+01	7.9075	66.594573	0.000426	4.256549	0.721079	0.000085
 399	3.9601e+01	7.9278	66.707612	0.000568	5.675399	0.961439	0.000114
 400	3.9700e+01	7.9472	66.804504	0.000486	4.864628	0.824090	0.000097
 401	3.9800e+01	7.9679	66.893321	0.000446	4.459242	0.755416	0.000089
 402	3.9900e+01	7.9860	67.010398	0.000588	5.878092	0.995776	0.000118
 403	3.9999e+01	8.0070	67.167846	0.000791	7.905020	1.339147	0.000158
 404	4.0099e+01	8.0267	67.228403	0.000304	3.040392	0.515056	0.000061
 405	4.0198e+01	8.0473	67.301071	0.000365	3.648471	0.618068	0.000073
 406	4.0297e+01	8.0658	67.410074	0.000547	5.472706	0.927102	0.000110
 407	4.0397e+01	8.0860	67.511002	0.000507	5.067321	0.858427	0.000101
 408	4.0496e+01	8.1062	67.652302	0.000709	7.094249	1.201798	0.000142
 409	4.0596e+01	8.1265	67.753231	0.000507	5.067321	0.858427	0.000101
 410	4.0696e+01	8.1461	67.829936	0.000385	3.851164	0.652405	0.000077
 411	4.0795e+01	8.1664	67.959124	0.000649	6.486170	1.098787	0.000130
 412	4.0895e+01	8.1873	68.068127	0.000547	5.472706	0.927102	0.000110
 413	4.0994e+01	8.2062	68.140796	0.000365	3.648471	0.618068	0.000073
 414	4.1093e+01	8.2263	68.261910	0.000608	6.080785	1.030113	0.000122
 415	4.1193e+01	8.2452	68.346689	0.000426	4.256549	0.721079	0.000085
 416	4.1292e+01	8.2658	68.471841	0.000628	6.283478	1.064450	0.000126
 417	4.1392e+01	8.2858	68.556621	0.000426	4.256549	0.721079	0.000085
 418	4.1492e+01	8.3060	68.673697	0.000588	5.878092	0.995776	0.000118
 419	4.1591e+01	8.3254	68.790774	0.000588	5.878092	0.995776	0.000118
 420	4.1691e+01	8.3450	68.863443	0.000365	3.648471	0.618068	0.000073
 421	4.1790e+01	8.3655	68.936111	0.000365	3.648471	0.618068	0.000073
 422	4.1889e+01	8.3853	69.089522	0.000770	7.702327	1.304810	0.000154
 423	4.1989e+01	8.4051	69.174302	0.000426	4.256549	0.721079	0.000085
 424	4.2089e+01	8.4253	69.291379	0.000588	5.878092	0.995776	0.000118
 425	4.2188e+01	8.4448	69.428642	0.000689	6.891556	1.167461	0.000138
 426	4.2288e+01	8.4634	69.497273	0.000345	3.445778	0.583731	0.000069
 427	4.2387e+01	8.4837	69.590127	0.000466	4.661935	0.789753	0.000093
 428	4.2486e+01	8.5044	69.695093	0.000527	5.270013	0.892764	0.000105
 429	4.2586e+01	8.5239	69.791984	0.000486	4.864628	0.824090	0.000097
 430	4.2685e+01	8.5450	69.917135	0.000628	6.283478	1.064450	0.000126
 431	4.2785e+01	8.5640	70.030175	0.000568	5.675399	0.961439	0.000114
 432	4.2885e+01	8.5836	70.147252	0.000588	5.878092	0.995776	0.000118
 433	4.2984e+01	8.6047	70.215883	0.000345	3.445778	0.583731	0.000069
 434	4.3084e+01	8.6248	70.320849	0.000527	5.270013	0.892764	0.000105
 435	4.3183e+01	8.6446	70.401592	0.000405	4.053856	0.686742	0.000081
 436	4.3282e+01	8.6642	70.542891	0.000709	7.094249	1.201798	0.000142
 437	4.3382e+01	8.6836	70.639783	0.000486	4.864628	0.824090	0.000097
 438	4.3481e+01	8.7034	70.720525	0.000405	4.053856	0.686742	0.000081
 439	4.3581e+01	8.7231	70.853751	0.000669	6.688863	1.133124	0.000134
 440	4.3681e+01	8.7441	70.946605	0.000466	4.661935	0.789753	0.000093
 441	4.3780e+01	8.7639	71.047533	0.000507	5.067321	0.858427	0.000101
 442	4.3880e+01	8.7842	71.140387	0.000466	4.661935	0.789753	0.000093
 443	4.3979e+01	8.8033	71.245353	0.000527	5.270013	0.892764	0.000105
 444	4.4078e+01	8.8227	71.350318	0.000527	5.270013	0.892764	0.000105
 445	4.4178e+01	8.8428	71.471433	0.000608	6.080785	1.030113	0.000122
 446	4.4278e+01	8.8628	71.536027	0.000324	3.243085	0.549393	0.000065
 447	4.4377e+01	8.8818	71.645029	0.000547	5.472706	0.927102	0.000110
 448	4.4477e+01	8.9032	71.754032	0.000547	5.472706	0.927102	0.000110
 449	4.4576e+01	8.9222	71.871109	0.000588	5.878092	0.995776	0.000118
 450	4.4675e+01	8.9429	71.955889	0.000426	4.256549	0.721079	0.000085
 451	4.4775e+01	8.9625	72.040669	0.000426	4.256549	0.721079	0.000085
 452	4.4874e+01	8.9828	72.149671	0.000547	5.472706	0.927102	0.000110
 453	4.4974e+01	9.0025	72.246563	0.000486	4.864628	0.824090	0.000097
 454	4.5074e+01	9.0223	72.319231	0.000365	3.648471	0.618068	0.000073
 455	4.5173e+01	9.0423	72.468605	0.000750	7.499634	1.270472	0.000150
 456	4.5273e+01	9.0612	72.565496	0.000486	4.864628	0.824090	0.000097
 457	4.5372e+01	9.0820	72.634128	0.000345	3.445778	0.583731	0.000069
 458	4.5471e+01	9.1016	72.747167	0.000568	5.675399	0.961439	0.000114
 459	4.5571e+01	9.1217	72.868282	0.000608	6.080785	1.030113	0.000122
 460	4.5670e+01	9.1423	72.985358	0.000588	5.878092	0.995776	0.000118
 461	4.5770e+01	9.1614	73.045915	0.000304	3.040392	0.515056	0.000061
 462	4.5870e+01	9.1800	73.158955	0.000568	5.675399	0.961439	0.000114
 463	4.5969e+01	9.2007	73.251809	0.000466	4.661935	0.789753	0.000093
 464	4.6069e+01	9.2209	73.320441	0.000345	3.445778	0.583731	0.000069
 465	4.6168e+01	9.2421	73.457703	0.000689	6.891556	1.167461	0.000138
 466	4.6267e+01	9.2605	73.534409	0.000385	3.851164	0.652405	0.000077
 467	4.6367e+01	9.2812	73.663597	0.000649	6.486170	1.098787	0.000130
 468	4.6467e+01	9.3011	73.752414	0.000446	4.459242	0.755416	0.000089
 469	4.6566e+01	9.3207	73.849305	0.000486	4.864628	0.824090	0.000097
 470	4.6666e+01	9.3403	73.921974	0.000365	3.648471	0.618068	0.000073
 471	4.6765e+01	9.3609	74.055199	0.000669	6.688863	1.133124	0.000134
 472	4.6864e+01	9.3806	74.148054	0.000466	4.661935	0.789753	0.000093
 473	4.6964e+01	9.4007	74.269168	0.000608	6.080785	1.030113	0.000122
 474	4.7063e+01	9.4206	74.366059	0.000486	4.864628	0.824090	0.000097
 475	4.7163e+01	9.4403	74.422579	0.000284	2.837700	0.480719	0.000057
 476	4.7263e+01	9.4596	74.559841	0.000689	6.891556	1.167461	0.000138
 477	4.7362e+01	9.4794	74.648658	0.000446	4.459242	0.755416	0.000089
 478	4.7462e+01	9.5004	74.753624	0.000527	5.270013	0.892764	0.000105
 479	4.7561e+01	9.5206	74.834367	0.000405	4.053856	0.686742	0.000081
 480	4.7660e+01	9.5399	74.963555	0.000649	6.486170	1.098787	0.000130
 481	4.7760e+01	9.5594	75.068520	0.000527	5.270013	0.892764	0.000105
 482	4.7859e+01	9.5795	75.165412	0.000486	4.864628	0.824090	0.000097
 483	4.7959e+01	9.5960	75.254229	0.000446	4.459242	0.755416	0.000089
 484	4.8059e+01	9.6192	75.403603	0.000750	7.499634	1.270472	0.000150
 485	4.8158e+01	9.6378	75.468197	0.000324	3.243085	0.549393	0.000065
 486	4.8258e+01	9.6594	75.585274	0.000588	5.878092	0.995776	0.000118
 487	4.8357e+01	9.6786	75.641794	0.000284	2.837700	0.480719	0.000057
 488	4.8456e+01	9.6995	75.770982	0.000649	6.486170	1.098787	0.000130
 489	4.8556e+01	9.7188	75.871910	0.000507	5.067321	0.858427	0.000101
 490	4.8656e+01	9.7393	75.980913	0.000547	5.472706	0.927102	0.000110
 491	4.8755e+01	9.7589	76.057619	0.000385	3.851164	0.652405	0.000077
 492	4.8855e+01	9.7786	76.182770	0.000628	6.283478	1.064450	0.000126
 493	4.8954e+01	9.7987	76.271587	0.000446	4.459242	0.755416	0.000089
 494	4.9053e+01	9.8193	76.364441	0.000466	4.661935	0.789753	0.000093
 495	4.9153e+01	9.8389	76.489592	0.000628	6.283478	1.064450	0.000126
 496	4.9252e+01	9.8585	76.558224	0.000345	3.445778	0.583731	0.000069
 497	4.9352e+01	9.8792	76.687412	0.000649	6.486170	1.098787	0.000130
 498	4.9452e+01	9.8981	76.760080	0.000365	3.648471	0.618068	0.000073
 499	4.9551e+01	9.9189	76.889269	0.000649	6.486170	1.098787	0.000130
 500	4.9651e+01	9.9377	76.994234	0.000527	5.270013	0.892764	0.000105
 501	4.9750e+01	9.9580	77.103237	0.000547	5.472706	0.927102	0.000110
 502	4.9849e+01	9.9790	77.183980	0.000405	4.053856	0.686742	0.000081
 503	4.9949e+01	9.9982	77.276834	0.000466	4.661935	0.789753	0.000093
 504	5.0048e+01	9.9773	77.240500	0.000182	1.824235	0.309034	-0.000037
 505	5.0148e+01	9.9585	77.163794	0.000385	3.851164	0.652405	-0.000077
 506	5.0248e+01	9.9380	77.135534	0.000142	1.418850	0.240360	-0.000028
 507	5.0347e+01	9.9170	77.042680	0.000466	4.661935	0.789753	-0.000093
 508	5.0447e+01	9.8988	76.929640	0.000568	5.675399	0.961439	-0.000114
 509	5.0546e+01	9.8780	76.905417	0.000122	1.216157	0.206023	-0.000024
 510	5.0645e+01	9.8585	76.840823	0.000324	3.243085	0.549393	-0.000065
 511	5.0745e+01	9.8389	76.743932	0.000486	4.864628	0.824090	-0.000097
 512	5.0844e+01	9.8183	76.667226	0.000385	3.851164	0.652405	-0.000077
 513	5.0944e+01	9.7998	76.618781	0.000243	2.432314	0.412045	-0.000049
 514	5.1044e+01	9.7787	76.513815	0.000527	5.270013	0.892764	-0.000105
 515	5.1143e+01	9.7593	76.461332	0.000264	2.635007	0.446382	-0.000053
 516	5.1242e+01	9.7390	76.388664	0.000365	3.648471	0.618068	-0.000073
 517	5.1342e+01	9.7196	76.315995	0.000365	3.648471	0.618068	-0.000073
 518	5.1441e+01	9.6997	76.275624	0.000203	2.026928	0.343371	-0.000041
 519	5.1541e+01	9.6795	76.154510	0.000608	6.080785	1.030113	-0.000122
 520	5.1641e+01	9.6600	76.081842	0.000365	3.648471	0.618068	-0.000073
 521	5.1740e+01	9.6392	76.021285	0.000304	3.040392	0.515056	-0.000061
 522	5.1840e+01	9.6191	75.924393	0.000486	4.864628	0.824090	-0.000097
 523	5.1939e+01	9.5997	75.835576	0.000446	4.459242	0.755416	-0.000089
 524	5.2038e+01	9.5792	75.779056	0.000284	2.837700	0.480719	-0.000057
 525	5.2138e+01	9.5596	75.706388	0.000365	3.648471	0.618068	-0.000073
 526	5.2237e+01	9.5393	75.645831	0.000304	3.040392	0.515056	-0.000061
 527	5.2337e+01	9.5200	75.569125	0.000385	3.851164	0.652405	-0.000077
 528	5.2437e+01	9.4997	75.488383	0.000405	4.053856	0.686742	-0.000081
 529	5.2536e+01	9.4801	75.419751	0.000345	3.445778	0.583731	-0.000069
 530	5.2636e+01	9.4602	75.339009	0.000405	4.053856	0.686742	-0.000081
 531	5.2735e+01	9.4402	75.242117	0.000486	4.864628	0.824090	-0.000097
 532	5.2834e+01	9.4209	75.141189	0.000507	5.067321	0.858427	-0.000101
 533	5.2934e+01	9.4000	75.076595	0.000324	3.243085	0.549393	-0.000065
 534	5.3033e+01	9.3799	75.024112	0.000264	2.635007	0.446382	-0.000053
 535	5.3133e+01	9.3613	74.939332	0.000426	4.256549	0.721079	-0.000085
 536	5.3233e+01	9.3408	74.854552	0.000426	4.256549	0.721079	-0.000085
 537	5.3332e+01	9.3208	74.793995	0.000304	3.040392	0.515056	-0.000061
 538	5.3431e+01	9.3005	74.717290	0.000385	3.851164	0.652405	-0.000077
 539	5.3531e+01	9.2825	74.628473	0.000446	4.459242	0.755416	-0.000089
 540	5.3630e+01	9.2612	74.527544	0.000507	5.067321	0.858427	-0.000101
 541	5.3730e+01	9.2407	74.454876	0.000365	3.648471	0.618068	-0.000073
 542	5.3830e+01	9.2213	74.357985	0.000486	4.864628	0.824090	-0.000097
 543	5.3929e+01	9.2017	74.289353	0.000345	3.445778	0.583731	-0.000069
 544	5.4029e+01	9.1807	74.216685	0.000365	3.648471	0.618068	-0.000073
 545	5.4128e+01	9.1627	74.172276	0.000223	2.229621	0.377708	-0.000045
 546	5.4227e+01	9.1416	74.047125	0.000628	6.283478	1.064450	-0.000126
 547	5.4327e+01	9.1214	73.962345	0.000426	4.256549	0.721079	-0.000085
 548	5.4426e+01	9.1010	73.921974	0.000203	2.026928	0.343371	-0.000041
 549	5.4526e+01	9.0807	73.796823	0.000628	6.283478	1.064450	-0.000126
 550	5.4626e+01	9.0619	73.736266	0.000304	3.040392	0.515056	-0.000061
 551	5.4725e+01	9.0418	73.647449	0.000446	4.459242	0.755416	-0.000089
 552	5.4825e+01	9.0222	73.542483	0.000527	5.270013	0.892764	-0.000105
 553	5.4924e+01	9.0021	73.477889	0.000324	3.243085	0.549393	-0.000065
 554	5.5023e+01	8.9822	73.425406	0.000264	2.635007	0.446382	-0.000053
 555	5.5123e+01	8.9621	73.328515	0.000486	4.864628	0.824090	-0.000097
 556	5.5222e+01	8.9417	73.231624	0.000486	4.864628	0.824090	-0.000097
 557	5.5322e+01	8.9225	73.142807	0.000446	4.459242	0.755416	-0.000089
 558	5.5422e+01	8.9029	73.066101	0.000385	3.851164	0.652405	-0.000077
 559	5.5521e+01	8.8829	72.981321	0.000426	4.256549	0.721079	-0.000085
 560	5.5620e+01	8.8633	72.896541	0.000426	4.256549	0.721079	-0.000085
 561	5.5720e+01	8.8428	72.840022	0.000284	2.837700	0.480719	-0.000057
 562	5.5819e+01	8.8232	72.714870	0.000628	6.283478	1.064450	-0.000126
 563	5.5919e+01	8.8032	72.642202	0.000365	3.648471	0.618068	-0.000073
 564	5.6019e+01	8.7830	72.525125	0.000588	5.878092	0.995776	-0.000118
 565	5.6118e+01	8.7637	72.464568	0.000304	3.040392	0.515056	-0.000061
 566	5.6218e+01	8.7437	72.395937	0.000345	3.445778	0.583731	-0.000069
 567	5.6317e+01	8.7238	72.311157	0.000426	4.256549	0.721079	-0.000085
 568	5.6416e+01	8.7044	72.214266	0.000486	4.864628	0.824090	-0.000097
 569	5.6516e+01	8.6848	72.141597	0.000365	3.648471	0.618068	-0.000073
 570	5.6615e+01	8.6646	72.040669	0.000507	5.067321	0.858427	-0.000101
 571	5.6715e+01	8.6438	71.927629	0.000568	5.675399	0.961439	-0.000114
 572	5.6815e+01	8.6255	71.871109	0.000284	2.837700	0.480719	-0.000057
 573	5.6914e+01	8.6044	71.770181	0.000507	5.067321	0.858427	-0.000101
 574	5.7014e+01	8.5838	71.681364	0.000446	4.459242	0.755416	-0.000089
 575	5.7113e+01	8.5645	71.580435	0.000507	5.067321	0.858427	-0.000101
 576	5.7212e+01	8.5439	71.483544	0.000486	4.864628	0.824090	-0.000097
 577	5.7312e+01	8.5257	71.402801	0.000405	4.053856	0.686742	-0.000081
 578	5.7411e+01	8.5059	71.305910	0.000486	4.864628	0.824090	-0.000097
 579	5.7511e+01	8.4833	71.209019	0.000486	4.864628	0.824090	-0.000097
 580	5.7611e+01	8.4644	71.136350	0.000365	3.648471	0.618068	-0.000073
 581	5.7710e+01	8.4454	71.059645	0.000385	3.851164	0.652405	-0.000077
 582	5.7809e+01	8.4250	70.950642	0.000547	5.472706	0.927102	-0.000110
 583	5.7909e+01	8.4058	70.877974	0.000365	3.648471	0.618068	-0.000073
 584	5.8008e+01	8.3851	70.760897	0.000588	5.878092	0.995776	-0.000118
 585	5.8108e+01	8.3652	70.696302	0.000324	3.243085	0.549393	-0.000065
 586	5.8208e+01	8.3452	70.579226	0.000588	5.878092	0.995776	-0.000118
 587	5.8307e+01	8.3252	70.506557	0.000365	3.648471	0.618068	-0.000073
 588	5.8407e+01	8.3050	70.405629	0.000507	5.067321	0.858427	-0.000101
 589	5.8506e+01	8.2861	70.369294	0.000182	1.824235	0.309034	-0.000037
 590	5.8605e+01	8.2655	70.248180	0.000608	6.080785	1.030113	-0.000122
 591	5.8705e+01	8.2455	70.191661	0.000284	2.837700	0.480719	-0.000057
 592	5.8804e+01	8.2262	70.046324	0.000730	7.296942	1.236135	-0.000146
 593	5.8904e+01	8.2056	69.961544	0.000426	4.256549	0.721079	-0.000085
 594	5.9004e+01	8.1863	69.917135	0.000223	2.229621	0.377708	-0.000045
 595	5.9103e+01	8.1662	69.800058	0.000588	5.878092	0.995776	-0.000118
 596	5.9203e+01	8.1459	69.723353	0.000385	3.851164	0.652405	-0.000077
 597	5.9302e+01	8.1264	69.622424	0.000507	5.067321	0.858427	-0.000101
 598	5.9401e+01	8.1059	69.553793	0.000345	3.445778	0.583731	-0.000069
 599	5.9501e+01	8.0865	69.444790	0.000547	5.472706	0.927102	-0.000110
 600	5.9600e+01	8.0672	69.355973	0.000446	4.459242	0.755416	-0.000089
 601	5.9700e+01	8.0470	69.279268	0.000385	3.851164	0.652405	-0.000077
 602	5.9800e+01	8.0270	69.198525	0.000405	4.053856	0.686742	-0.000081
 603	5.9899e+01	8.0062	69.061263	0.000689	6.891556	1.167461	-0.000138
 604	5.9998e+01	7.9863	69.024928	0.000182	1.824235	0.309034	-0.000037
 605	6.0098e+01	7.9668	68.899777	0.000628	6.283478	1.064450	-0.000126
 606	6.0197e+01	7.9478	68.806923	0.000466	4.661935	0.789753	-0.000093
 607	6.0297e+01	7.9283	68.742329	0.000324	3.243085	0.549393	-0.000065
 608	6.0397e+01	7.9067	68.633326	0.000547	5.472706	0.927102	-0.000110
 609	6.0496e+01	7.8879	68.532398	0.000507	5.067321	0.858427	-0.000101
 610	6.0596e+01	7.8667	68.443581	0.000446	4.459242	0.755416	-0.000089
 611	6.0695e+01	7.8471	68.350727	0.000466	4.661935	0.789753	-0.000093
 612	6.0794e+01	7.8274	68.253835	0.000486	4.864628	0.824090	-0.000097
 613	6.0894e+01	7.8082	68.213464	0.000203	2.026928	0.343371	-0.000041
 614	6.0993e+01	7.7883	68.064090	0.000750	7.499634	1.270472	-0.000150
 615	6.1093e+01	7.7688	67.959124	0.000527	5.270013	0.892764	-0.000105
 616	6.1193e+01	7.7471	67.890493	0.000345	3.445778	0.583731	-0.000069
 617	6.1292e+01	7.7276	67.813788	0.000385	3.851164	0.652405	-0.000077
 618	6.1392e+01	7.7076	67.724971	0.000446	4.459242	0.755416	-0.000089
 619	6.1491e+01	7.6883	67.624042	0.000507	5.067321	0.858427	-0.000101
 620	6.1590e+01	7.6687	67.506965	0.000588	5.878092	0.995776	-0.000118
 621	6.1690e+01	7.6480	67.426223	0.000405	4.053856	0.686742	-0.000081
 622	6.1789e+01	7.6283	67.333368	0.000466	4.661935	0.789753	-0.000093
 623	6.1889e+01	7.6071	67.264737	0.000345	3.445778	0.583731	-0.000069
 624	6.1989e+01	7.5883	67.143623	0.000608	6.080785	1.030113	-0.000122
 625	6.2088e+01	7.5689	67.030583	0.000568	5.675399	0.961439	-0.000114
 626	6.2188e+01	7.5493	66.957915	0.000365	3.648471	0.618068	-0.000073
 627	6.2287e+01	7.5298	66.881209	0.000385	3.851164	0.652405	-0.000077
 628	6.2386e+01	7.5080	66.764132	0.000588	5.878092	0.995776	-0.000118
 629	6.2486e+01	7.4888	66.671278	0.000466	4.661935	0.789753	-0.000093
 630	6.2586e+01	7.4685	66.610721	0.000304	3.040392	0.515056	-0.000061
 631	6.2685e+01	7.4491	66.501718	0.000547	5.472706	0.927102	-0.000110
 632	6.2785e+01	7.4299	66.449236	0.000264	2.635007	0.446382	-0.000053
 633	6.2884e+01	7.4093	66.307936	0.000709	7.094249	1.201798	-0.000142
 634	6.2983e+01	7.3886	66.235267	0.000365	3.648471	0.618068	-0.000073
 635	6.3083e+01	7.3696	66.134339	0.000507	5.067321	0.858427	-0.000101
 636	6.3182e+01	7.3504	66.025336	0.000547	5.472706	0.927102	-0.000110
 637	6.3282e+01	7.3298	65.912297	0.000568	5.675399	0.961439	-0.000114
 638	6.3382e+01	7.3096	65.815405	0.000486	4.864628	0.824090	-0.000097
 639	6.3481e+01	7.2903	65.779071	0.000182	1.824235	0.309034	-0.000037
 640	6.3581e+01	7.2702	65.649883	0.000649	6.486170	1.098787	-0.000130
 641	6.3680e+01	7.2504	65.536843	0.000568	5.675399	0.961439	-0.000114
 642	6.3779e+01	7.2301	65.496472	0.000203	2.026928	0.343371	-0.000041
 643	6.3879e+01	7.2097	65.411692	0.000426	4.256549	0.721079	-0.000085
 644	6.3978e+01	7.1909	65.286541	0.000628	6.283478	1.064450	-0.000126
 645	6.4078e+01	7.1702	65.213872	0.000365	3.648471	0.618068	-0.000073
 646	6.4177e+01	7.1499	65.108907	0.000527	5.270013	0.892764	-0.000105
 647	6.4277e+01	7.1301	65.016052	0.000466	4.661935	0.789753	-0.000093
 648	6.4376e+01	7.1110	64.931273	0.000426	4.256549	0.721079	-0.000085
 649	6.4476e+01	7.0899	64.806121	0.000628	6.283478	1.064450	-0.000126
 650	6.4576e+01	7.0703	64.725379	0.000405	4.053856	0.686742	-0.000081
 651	6.4675e+01	7.0508	64.656747	0.000345	3.445778	0.583731	-0.000069
 652	6.4775e+01	7.0305	64.551782	0.000527	5.270013	0.892764	-0.000105
 653	6.4874e+01	7.0110	64.479113	0.000365	3.648471	0.618068	-0.000073
 654	6.4974e+01	6.9905	64.386259	0.000466	4.661935	0.789753	-0.000093
 655	6.5073e+01	6.9711	64.309554	0.000385	3.851164	0.652405	-0.000077
 656	6.5172e+01	6.9505	64.188440	0.000608	6.080785	1.030113	-0.000122
 657	6.5272e+01	6.9317	64.091548	0.000486	4.864628	0.824090	-0.000097
 658	6.5371e+01	6.9115	63.998694	0.000466	4.661935	0.789753	-0.000093
 659	6.5471e+01	6.8921	63.938137	0.000304	3.040392	0.515056	-0.000061
 660	6.5570e+01	6.8716	63.792800	0.000730	7.296942	1.236135	-0.000146
 661	6.5670e+01	6.8510	63.695909	0.000486	4.864628	0.824090	-0.000097
 662	6.5769e+01	6.8322	63.667649	0.000142	1.418850	0.240360	-0.000028
 663	6.5869e+01	6.8127	63.558646	0.000547	5.472706	0.927102	-0.000110
 664	6.5969e+01	6.7931	63.457718	0.000507	5.067321	0.858427	-0.000101
 665	6.6068e+01	6.7721	63.340641	0.000588	5.878092	0.995776	-0.000118
 666	6.6168e+01	6.7516	63.243750	0.000486	4.864628	0.824090	-0.000097
 667	6.6267e+01	6.7327	63.199341	0.000223	2.229621	0.377708	-0.000045
 668	6.6367e+01	6.7120	63.130710	0.000345	3.445778	0.583731	-0.000069
 669	6.6466e+01	6.6929	63.001522	0.000649	6.486170	1.098787	-0.000130
 670	6.6566e+01	6.6726	62.888482	0.000568	5.675399	0.961439	-0.000114
 671	6.6665e+01	6.6525	62.779479	0.000547	5.472706	0.927102	-0.000110
 672	6.6764e+01	6.6325	62.710848	0.000345	3.445778	0.583731	-0.000069
 673	6.6864e+01	6.6122	62.622031	0.000446	4.459242	0.755416	-0.000089
 674	6.6963e+01	6.5926	62.496880	0.000628	6.283478	1.064450	-0.000126
 675	6.7063e+01	6.5728	62.412100	0.000426	4.256549	0.721079	-0.000085
 676	6.7162e+01	6.5522	62.311172	0.000507	5.067321	0.858427	-0.000101
 677	6.7262e+01	6.5331	62.238503	0.000365	3.648471	0.618068	-0.000073
 678	6.7362e+01	6.5135	62.117389	0.000608	6.080785	1.030113	-0.000122
 679	6.7461e+01	6.4929	62.016461	0.000507	5.067321	0.858427	-0.000101
 680	6.7561e+01	6.4721	61.939755	0.000385	3.851164	0.652405	-0.000077
 681	6.7660e+01	6.4532	61.854975	0.000426	4.256549	0.721079	-0.000085
 682	6.7760e+01	6.4330	61.717713	0.000689	6.891556	1.167461	-0.000138
 683	6.7859e+01	6.4132	61.665230	0.000264	2.635007	0.446382	-0.000053
 684	6.7959e+01	6.3935	61.544116	0.000608	6.080785	1.030113	-0.000122
 685	6.8058e+01	6.3735	61.455299	0.000446	4.459242	0.755416	-0.000089
 686	6.8157e+01	6.3540	61.350333	0.000527	5.270013	0.892764	-0.000105
 687	6.8257e+01	6.3338	61.204996	0.000730	7.296942	1.236135	-0.000146
 688	6.8356e+01	6.3139	61.152514	0.000264	2.635007	0.446382	-0.000053
 689	6.8456e+01	6.2956	61.100031	0.000264	2.635007	0.446382	-0.000053
 690	6.8555e+01	6.2746	60.926434	0.000872	8.715791	1.476495	-0.000174
 691	6.8655e+01	6.2539	60.861840	0.000324	3.243085	0.549393	-0.000065
 692	6.8754e+01	6.2343	60.756874	0.000527	5.270013	0.892764	-0.000105
 693	6.8854e+01	6.2145	60.631723	0.000628	6.283478	1.064450	-0.000126
 694	6.8954e+01	6.1947	60.563092	0.000345	3.445778	0.583731	-0.000069
 695	6.9053e+01	6.1742	60.437941	0.000628	6.283478	1.064450	-0.000126
 696	6.9153e+01	6.1549	60.385458	0.000264	2.635007	0.446382	-0.000053
 697	6.9252e+01	6.1340	60.248195	0.000689	6.891556	1.167461	-0.000138
 698	6.9352e+01	6.1150	60.163415	0.000426	4.256549	0.721079	-0.000085
 699	6.9451e+01	6.0958	60.086710	0.000385	3.851164	0.652405	-0.000077
 700	6.9550e+01	6.0755	59.993856	0.000466	4.661935	0.789753	-0.000093
 701	6.9650e+01	6.0558	59.880816	0.000568	5.675399	0.961439	-0.000114
 702	6.9749e+01	6.0357	59.751627	0.000649	6.486170	1.098787	-0.000130
 703	6.9849e+01	6.0156	59.666848	0.000426	4.256549	0.721079	-0.000085
 704	6.9948e+01	5.9951	59.573994	0.000466	4.661935	0.789753	-0.000093
 705	7.0048e+01	5.9759	59.481139	0.000466	4.661935	0.789753	-0.000093
 706	7.0147e+01	5.9560	59.408471	0.000365	3.648471	0.618068	-0.000073
 707	7.0247e+01	5.9359	59.267171	0.000709	7.094249	1.201798	-0.000142
 708	7.0347e+01	5.9161	59.162206	0.000527	5.270013	0.892764	-0.000105
 709	7.0446e+01	5.8953	59.089537	0.000365	3.648471	0.618068	-0.000073
 710	7.0546e+01	5.8770	59.000720	0.000446	4.459242	0.755416	-0.000089
 711	7.0645e+01	5.8566	58.847309	0.000770	7.702327	1.304810	-0.000154
 712	7.0745e+01	5.8361	58.802901	0.000223	2.229621	0.377708	-0.000045
 713	7.0844e+01	5.8170	58.661601	0.000709	7.094249	1.201798	-0.000142
 714	7.0944e+01	5.7961	58.572784	0.000446	4.459242	0.755416	-0.000089
 715	7.1043e+01	5.7760	58.459744	0.000568	5.675399	0.961439	-0.000114
 716	7.1142e+01	5.7558	58.374964	0.000426	4.256549	0.721079	-0.000085
 717	7.1242e+01	5.7357	58.269999	0.000527	5.270013	0.892764	-0.000105
 718	7.1341e+01	5.7163	58.185219	0.000426	4.256549	0.721079	-0.000085
 719	7.1441e+01	5.6959	58.080253	0.000527	5.270013	0.892764	-0.000105
 720	7.1540e+01	5.6767	57.947028	0.000669	6.688863	1.133124	-0.000134
 721	7.1640e+01	5.6573	57.825914	0.000608	6.080785	1.030113	-0.000122
 722	7.1740e+01	5.6379	57.724985	0.000507	5.067321	0.858427	-0.000101
 723	7.1839e+01	5.6185	57.632131	0.000466	4.661935	0.789753	-0.000093
 724	7.1939e+01	5.5965	57.539277	0.000466	4.661935	0.789753	-0.000093
 725	7.2038e+01	5.5770	57.410089	0.000649	6.486170	1.098787	-0.000130
 726	7.2138e+01	5.5569	57.345495	0.000324	3.243085	0.549393	-0.000065
 727	7.2237e+01	5.5371	57.232455	0.000568	5.675399	0.961439	-0.000114
 728	7.2337e+01	5.5169	57.135564	0.000486	4.864628	0.824090	-0.000097
 729	7.2436e+01	5.4974	57.010412	0.000628	6.283478	1.064450	-0.000126
 730	7.2535e+01	5.4765	56.889298	0.000608	6.080785	1.030113	-0.000122
 731	7.2635e+01	5.4578	56.808556	0.000405	4.053856	0.686742	-0.000081
 732	7.2734e+01	5.4372	56.695516	0.000568	5.675399	0.961439	-0.000114
 733	7.2834e+01	5.4175	56.606699	0.000446	4.459242	0.755416	-0.000089
 734	7.2933e+01	5.3979	56.485585	0.000608	6.080785	1.030113	-0.000122
 735	7.3033e+01	5.3777	56.364471	0.000608	6.080785	1.030113	-0.000122
 736	7.3132e+01	5.3574	56.303914	0.000304	3.040392	0.515056	-0.000061
 737	7.3232e+01	5.3379	56.178762	0.000628	6.283478	1.064450	-0.000126
 738	7.3332e+01	5.3188	56.045537	0.000669	6.688863	1.133124	-0.000134
 739	7.3431e+01	5.2981	55.972868	0.000365	3.648471	0.618068	-0.000073
 740	7.3531e+01	5.2773	55.863866	0.000547	5.472706	0.927102	-0.000110
 741	7.3630e+01	5.2584	55.746789	0.000588	5.878092	0.995776	-0.000118
 742	7.3730e+01	5.2386	55.625675	0.000608	6.080785	1.030113	-0.000122
 743	7.3829e+01	5.2183	55.524746	0.000507	5.067321	0.858427	-0.000101
 744	7.3928e+01	5.1985	55.399595	0.000628	6.283478	1.064450	-0.000126
 745	7.4028e+01	5.1776	55.282518	0.000588	5.878092	0.995776	-0.000118
 746	7.4127e+01	5.1588	55.181590	0.000507	5.067321	0.858427	-0.000101
 747	7.4227e+01	5.1389	55.068550	0.000568	5.675399	0.961439	-0.000114
 748	7.4326e+01	5.1189	54.963585	0.000527	5.270013	0.892764	-0.000105
 749	7.4426e+01	5.0991	54.907065	0.000284	2.837700	0.480719	-0.000057
 750	7.4525e+01	5.0782	54.761728	0.000730	7.296942	1.236135	-0.000146
 751	7.4625e+01	5.0600	54.668874	0.000466	4.661935	0.789753	-0.000093
 752	7.4725e+01	5.0392	54.519500	0.000750	7.499634	1.270472	-0.000150
 753	7.4824e+01	5.0204	54.410497	0.000547	5.472706	0.927102	-0.000110
 754	7.4924e+01	4.9986	54.305531	0.000527	5.270013	0.892764	-0.000105
 755	7.5023e+01	4.9796	54.184417	0.000608	6.080785	1.030113	-0.000122
 756	7.5123e+01	4.9599	54.067340	0.000588	5.878092	0.995776	-0.000118
 757	7.5222e+01	4.9393	53.958338	0.000547	5.472706	0.927102	-0.000110
 758	7.5322e+01	4.9196	53.901818	0.000284	2.837700	0.480719	-0.000057
 759	7.5421e+01	4.8995	53.752444	0.000750	7.499634	1.270472	-0.000150
 760	7.5520e+01	4.8804	53.647478	0.000527	5.270013	0.892764	-0.000105
 761	7.5620e+01	4.8598	53.542513	0.000527	5.270013	0.892764	-0.000105
 762	7.5719e+01	4.8403	53.429473	0.000568	5.675399	0.961439	-0.000114
 763	7.5819e+01	4.8202	53.348730	0.000405	4.053856	0.686742	-0.000081
 764	7.5918e+01	4.7998	53.239728	0.000547	5.472706	0.927102	-0.000110
 765	7.6018e+01	4.7812	53.106502	0.000669	6.688863	1.133124	-0.000134
 766	7.6118e+01	4.7610	53.005574	0.000507	5.067321	0.858427	-0.000101
 767	7.6217e+01	4.7400	52.908682	0.000486	4.864628	0.824090	-0.000097
 768	7.6317e+01	4.7201	52.771420	0.000689	6.891556	1.167461	-0.000138
 769	7.6416e+01	4.7003	52.678566	0.000466	4.661935	0.789753	-0.000093
 770	7.6516e+01	4.6802	52.577637	0.000507	5.067321	0.858427	-0.000101
 771	7.6615e+01	4.6610	52.448449	0.000649	6.486170	1.098787	-0.000130
 772	7.6715e+01	4.6399	52.335409	0.000568	5.675399	0.961439	-0.000114
 773	7.6814e+01	4.6218	52.194109	0.000709	7.094249	1.201798	-0.000142
 774	7.6913e+01	4.6001	52.117404	0.000385	3.851164	0.652405	-0.000077
 775	7.7013e+01	4.5815	51.996290	0.000608	6.080785	1.030113	-0.000122
 776	7.7112e+01	4.5611	51.883250	0.000568	5.675399	0.961439	-0.000114
 777	7.7212e+01	4.5412	51.770210	0.000568	5.675399	0.961439	-0.000114
 778	7.7311e+01	4.5208	51.661207	0.000547	5.472706	0.927102	-0.000110
 779	7.7411e+01	4.5021	51.552205	0.000547	5.472706	0.927102	-0.000110
 780	7.7510e+01	4.4813	51.439165	0.000568	5.675399	0.961439	-0.000114
 781	7.7610e+01	4.4613	51.362459	0.000385	3.851164	0.652405	-0.000077
 782	7.7710e+01	4.4415	51.205011	0.000791	7.905020	1.339147	-0.000158
 783	7.7809e+01	4.4221	51.104083	0.000507	5.067321	0.858427	-0.000101
 784	7.7909e+01	4.4023	51.007191	0.000486	4.864628	0.824090	-0.000097
 785	7.8008e+01	4.3822	50.861855	0.000730	7.296942	1.236135	-0.000146
 786	7.8108e+01	4.3618	50.736703	0.000628	6.283478	1.064450	-0.000126
 787	7.8207e+01	4.3424	50.639812	0.000486	4.864628	0.824090	-0.000097
 788	7.8306e+01	4.3215	50.555032	0.000426	4.256549	0.721079	-0.000085
 789	7.8406e+01	4.3026	50.421807	0.000669	6.688863	1.133124	-0.000134
 790	7.8505e+01	4.2823	50.332990	0.000446	4.459242	0.755416	-0.000089
 791	7.8605e+01	4.2623	50.207839	0.000628	6.283478	1.064450	-0.000126
 792	7.8704e+01	4.2422	50.102873	0.000527	5.270013	0.892764	-0.000105
 793	7.8804e+01	4.2221	49.989833	0.000568	5.675399	0.961439	-0.000114
 794	7.8903e+01	4.2034	49.860645	0.000649	6.486170	1.098787	-0.000130
 795	7.9003e+01	4.1817	49.751642	0.000547	5.472706	0.927102	-0.000110
 796	7.9103e+01	4.1628	49.658788	0.000466	4.661935	0.789753	-0.000093
 797	7.9202e+01	4.1430	49.481154	0.000892	8.918484	1.510832	-0.000179
 798	7.9302e+01	4.1233	49.376189	0.000527	5.270013	0.892764	-0.000105
 799	7.9401e+01	4.1030	49.299483	0.000385	3.851164	0.652405	-0.000077
 800	7.9501e+01	4.0826	49.186443	0.000568	5.675399	0.961439	-0.000114
 801	7.9600e+01	4.0636	49.077441	0.000547	5.472706	0.927102	-0.000110
 802	7.9700e+01	4.0437	48.948252	0.000649	6.486170	1.098787	-0.000130
 803	7.9799e+01	4.0233	48.831175	0.000588	5.878092	0.995776	-0.000118
 804	7.9898e+01	4.0038	48.689876	0.000709	7.094249	1.201798	-0.000142
 805	7.9998e+01	3.9831	48.649504	0.000203	2.026928	0.343371	-0.000041
 806	8.0097e+01	3.9632	48.471870	0.000892	8.918484	1.510832	-0.000179
 807	8.0197e+01	3.9440	48.387090	0.000426	4.256549	0.721079	-0.000085
 808	8.0296e+01	3.9246	48.233679	0.000770	7.702327	1.304810	-0.000154
 809	8.0396e+01	3.9043	48.140825	0.000466	4.661935	0.789753	-0.000093
 810	8.0496e+01	3.8834	48.039897	0.000507	5.067321	0.858427	-0.000101
 811	8.0595e+01	3.8648	47.910708	0.000649	6.486170	1.098787	-0.000130
 812	8.0695e+01	3.8434	47.797669	0.000568	5.675399	0.961439	-0.000114
 813	8.0794e+01	3.8245	47.700777	0.000486	4.864628	0.824090	-0.000097
 814	8.0894e+01	3.8023	47.595812	0.000527	5.270013	0.892764	-0.000105
 815	8.0993e+01	3.7843	47.458549	0.000689	6.891556	1.167461	-0.000138
 816	8.1093e+01	3.7641	47.341472	0.000588	5.878092	0.995776	-0.000118
 817	8.1192e+01	3.7455	47.220358	0.000608	6.080785	1.030113	-0.000122
 818	8.1291e+01	3.7245	47.099244	0.000608	6.080785	1.030113	-0.000122
 819	8.1391e+01	3.7051	46.998316	0.000507	5.067321	0.858427	-0.000101
 820	8.1490e+01	3.6852	46.889313	0.000547	5.472706	0.927102	-0.000110
 821	8.1590e+01	3.6655	46.768199	0.000608	6.080785	1.030113	-0.000122
 822	8.1689e+01	3.6456	46.647085	0.000608	6.080785	1.030113	-0.000122
 823	8.1789e+01	3.6257	46.550194	0.000486	4.864628	0.824090	-0.000097
 824	8.1888e+01	3.6054	46.465414	0.000426	4.256549	0.721079	-0.000085
 825	8.1988e+01	3.5851	46.340263	0.000628	6.283478	1.064450	-0.000126
 826	8.2088e+01	3.5651	46.194926	0.000730	7.296942	1.236135	-0.000146
 827	8.2187e+01	3.5455	46.126294	0.000345	3.445778	0.583731	-0.000069
 828	8.2287e+01	3.5251	45.989032	0.000689	6.891556	1.167461	-0.000138
 829	8.2386e+01	3.5059	45.880029	0.000547	5.472706	0.927102	-0.000110
 830	8.2486e+01	3.4861	45.771026	0.000547	5.472706	0.927102	-0.000110
 831	8.2585e+01	3.4646	45.625690	0.000730	7.296942	1.236135	-0.000146
 832	8.2684e+01	3.4461	45.536873	0.000446	4.459242	0.755416	-0.000089
 833	8.2784e+01	3.4261	45.415758	0.000608	6.080785	1.030113	-0.000122
 834	8.2883e+01	3.4058	45.314830	0.000507	5.067321	0.858427	-0.000101
 835	8.2983e+01	3.3863	45.193716	0.000608	6.080785	1.030113	-0.000122
 836	8.3082e+01	3.3653	45.036268	0.000791	7.905020	1.339147	-0.000158
 837	8.3182e+01	3.3466	44.983785	0.000264	2.635007	0.446382	-0.000053
 838	8.3281e+01	3.3256	44.806151	0.000892	8.918484	1.510832	-0.000179
 839	8.3381e+01	3.3062	44.733483	0.000365	3.648471	0.618068	-0.000073
 840	8.3481e+01	3.2861	44.604294	0.000649	6.486170	1.098787	-0.000130
 841	8.3580e+01	3.2659	44.479143	0.000628	6.283478	1.064450	-0.000126
 842	8.3680e+01	3.2466	44.374177	0.000527	5.270013	0.892764	-0.000105
 843	8.3779e+01	3.2268	44.216729	0.000791	7.905020	1.339147	-0.000158
 844	8.3879e+01	3.2064	44.131949	0.000426	4.256549	0.721079	-0.000085
 845	8.3978e+01	3.1863	43.998724	0.000669	6.688863	1.133124	-0.000134
 846	8.4078e+01	3.1666	43.889721	0.000547	5.472706	0.927102	-0.000110
 847	8.4177e+01	3.1470	43.740347	0.000750	7.499634	1.270472	-0.000150
 848	8.4276e+01	3.1267	43.651530	0.000446	4.459242	0.755416	-0.000089
 849	8.4376e+01	3.1075	43.550602	0.000507	5.067321	0.858427	-0.000101
 850	8.4475e+01	3.0870	43.421413	0.000649	6.486170	1.098787	-0.000130
 851	8.4575e+01	3.0665	43.296262	0.000628	6.283478	1.064450	-0.000126
 852	8.4674e+01	3.0469	43.167074	0.000649	6.486170	1.098787	-0.000130
 853	8.4774e+01	3.0279	43.037886	0.000649	6.486170	1.098787	-0.000130
 854	8.4874e+01	3.0081	42.945031	0.000466	4.661935	0.789753	-0.000093
 855	8.4973e+01	2.9876	42.819880	0.000628	6.283478	1.064450	-0.000126
 856	8.5073e+01	2.9676	42.702803	0.000588	5.878092	0.995776	-0.000118
 857	8.5172e+01	2.9478	42.537281	0.000831	8.310406	1.407821	-0.000166
 858	8.5272e+01	2.9276	42.408092	0.000649	6.486170	1.098787	-0.000130
 859	8.5371e+01	2.9076	42.295053	0.000568	5.675399	0.961439	-0.000114
 860	8.5471e+01	2.8881	42.190087	0.000527	5.270013	0.892764	-0.000105
 861	8.5570e+01	2.8684	42.077047	0.000568	5.675399	0.961439	-0.000114
 862	8.5669e+01	2.8483	41.964007	0.000568	5.675399	0.961439	-0.000114
 863	8.5769e+01	2.8279	41.814633	0.000750	7.499634	1.270472	-0.000150
 864	8.5868e+01	2.8077	41.721779	0.000466	4.661935	0.789753	-0.000093
 865	8.5968e+01	2.7880	41.572405	0.000750	7.499634	1.270472	-0.000150
 866	8.6067e+01	2.7679	41.439180	0.000669	6.688863	1.133124	-0.000134
 867	8.6167e+01	2.7485	41.362474	0.000385	3.851164	0.652405	-0.000077
 868	8.6266e+01	2.7280	41.237323	0.000628	6.283478	1.064450	-0.000126
 869	8.6366e+01	2.7081	41.104098	0.000669	6.688863	1.133124	-0.000134
 870	8.6466e+01	2.6884	40.978946	0.000628	6.283478	1.064450	-0.000126
 871	8.6565e+01	2.6685	40.882055	0.000486	4.864628	0.824090	-0.000097
 872	8.6665e+01	2.6480	40.728644	0.000770	7.702327	1.304810	-0.000154
 873	8.6764e+01	2.6286	40.615604	0.000568	5.675399	0.961439	-0.000114
 874	8.6864e+01	2.6086	40.478341	0.000689	6.891556	1.167461	-0.000138
 875	8.6963e+01	2.5881	40.381450	0.000486	4.864628	0.824090	-0.000097
 876	8.7063e+01	2.5692	40.228039	0.000770	7.702327	1.304810	-0.000154
 877	8.7162e+01	2.5491	40.119036	0.000547	5.472706	0.927102	-0.000110
 878	8.7261e+01	2.5303	40.018108	0.000507	5.067321	0.858427	-0.000101
 879	8.7361e+01	2.5103	39.872771	0.000730	7.296942	1.236135	-0.000146
 880	8.7460e+01	2.4887	39.775880	0.000486	4.864628	0.824090	-0.000097
 881	8.7560e+01	2.4705	39.634580	0.000709	7.094249	1.201798	-0.000142
 882	8.7659e+01	2.4500	39.517503	0.000588	5.878092	0.995776	-0.000118
 883	8.7759e+01	2.4293	39.388315	0.000649	6.486170	1.098787	-0.000130
 884	8.7859e+01	2.4099	39.238941	0.000750	7.499634	1.270472	-0.000150
 885	8.7958e+01	2.3904	39.121864	0.000588	5.878092	0.995776	-0.000118
 886	8.8058e+01	2.3701	38.996713	0.000628	6.283478	1.064450	-0.000126
 887	8.8157e+01	2.3497	38.928081	0.000345	3.445778	0.583731	-0.000069
 888	8.8257e+01	2.3306	38.746410	0.000912	9.121177	1.545169	-0.000183
 889	8.8356e+01	2.3103	38.613185	0.000669	6.688863	1.133124	-0.000134
 890	8.8456e+01	2.2906	38.483996	0.000649	6.486170	1.098787	-0.000130
 891	8.8555e+01	2.2706	38.326548	0.000791	7.905020	1.339147	-0.000158
 892	8.8654e+01	2.2511	38.241768	0.000426	4.256549	0.721079	-0.000085
 893	8.8754e+01	2.2300	38.088357	0.000770	7.702327	1.304810	-0.000154
 894	8.8853e+01	2.2105	37.987429	0.000507	5.067321	0.858427	-0.000101
 895	8.8953e+01	2.1912	37.854203	0.000669	6.688863	1.133124	-0.000134
 896	8.9052e+01	2.1706	37.733089	0.000608	6.080785	1.030113	-0.000122
 897	8.9152e+01	2.1519	37.640235	0.000466	4.661935	0.789753	-0.000093
 898	8.9251e+01	2.1312	37.454527	0.000932	9.323870	1.579506	-0.000187
 899	8.9351e+01	2.1114	37.337450	0.000588	5.878092	0.995776	-0.000118
 900	8.9451e+01	2.0907	37.204224	0.000669	6.688863	1.133124	-0.000134
 901	8.9550e+01	2.0708	37.062925	0.000709	7.094249	1.201798	-0.000142
 902	8.9650e+01	2.0507	36.945848	0.000588	5.878092	0.995776	-0.000118
 903	8.9749e+01	2.0319	36.796474	0.000750	7.499634	1.270472	-0.000150
 904	8.9849e+01	2.0110	36.699582	0.000486	4.864628	0.824090	-0.000097
 905	8.9948e+01	1.9920	36.562320	0.000689	6.891556	1.167461	-0.000138
 906	9.0047e+01	1.9715	36.400834	0.000811	8.107713	1.373484	-0.000162
 907	9.0147e+01	1.9509	36.324129	0.000385	3.851164	0.652405	-0.000077
 908	9.0246e+01	1.9312	36.142458	0.000912	9.121177	1.545169	-0.000183
 909	9.0346e+01	1.9117	36.041529	0.000507	5.067321	0.858427	-0.000101
 910	9.0445e+01	1.8925	35.904267	0.000689	6.891556	1.167461	-0.000138
 911	9.0545e+01	1.8722	35.746818	0.000791	7.905020	1.339147	-0.000158
 912	9.0644e+01	1.8510	35.649927	0.000486	4.864628	0.824090	-0.000097
 913	9.0744e+01	1.8323	35.500553	0.000750	7.499634	1.270472	-0.000150
 914	9.0844e+01	1.8125	35.343105	0.000791	7.905020	1.339147	-0.000158
 915	9.0943e+01	1.7916	35.234102	0.000547	5.472706	0.927102	-0.000110
 916	9.1043e+01	1.7728	35.072617	0.000811	8.107713	1.373484	-0.000162
 917	9.1142e+01	1.7524	34.979763	0.000466	4.661935	0.789753	-0.000093
 918	9.1242e+01	1.7323	34.838463	0.000709	7.094249	1.201798	-0.000142
 919	9.1341e+01	1.7129	34.660829	0.000892	8.918484	1.510832	-0.000179
 920	9.1441e+01	1.6921	34.551826	0.000547	5.472706	0.927102	-0.000110
 921	9.1540e+01	1.6732	34.430712	0.000608	6.080785	1.030113	-0.000122
 922	9.1639e+01	1.6524	34.313635	0.000588	5.878092	0.995776	-0.000118
 923	9.1739e+01	1.6325	34.152150	0.000811	8.107713	1.373484	-0.000162
 924	9.1838e+01	1.6129	34.035073	0.000588	5.878092	0.995776	-0.000118
 925	9.1938e+01	1.5934	33.913959	0.000608	6.080785	1.030113	-0.000122
 926	9.2037e+01	1.5734	33.748436	0.000831	8.310406	1.407821	-0.000166
 927	9.2137e+01	1.5530	33.631359	0.000588	5.878092	0.995776	-0.000118
 928	9.2237e+01	1.5337	33.494097	0.000689	6.891556	1.167461	-0.000138
 929	9.2336e+01	1.5133	33.372983	0.000608	6.080785	1.030113	-0.000122
 930	9.2436e+01	1.4928	33.219571	0.000770	7.702327	1.304810	-0.000154
 931	9.2535e+01	1.4729	33.110569	0.000547	5.472706	0.927102	-0.000110
 932	9.2635e+01	1.4535	32.977343	0.000669	6.688863	1.133124	-0.000134
 933	9.2734e+01	1.4341	32.819895	0.000791	7.905020	1.339147	-0.000158
 934	9.2834e+01	1.4130	32.698781	0.000608	6.080785	1.030113	-0.000122
 935	9.2933e+01	1.3944	32.561518	0.000689	6.891556	1.167461	-0.000138
 936	9.3032e+01	1.3735	32.404070	0.000791	7.905020	1.339147	-0.000158
 937	9.3132e+01	1.3546	32.286993	0.000588	5.878092	0.995776	-0.000118
 938	9.3231e+01	1.3325	32.129545	0.000791	7.905020	1.339147	-0.000158
 939	9.3331e+01	1.3128	32.012468	0.000588	5.878092	0.995776	-0.000118
 940	9.3430e+01	1.2947	31.859057	0.000770	7.702327	1.304810	-0.000154
 941	9.3530e+01	1.2746	31.774277	0.000426	4.256549	0.721079	-0.000085
 942	9.3629e+01	1.2547	31.620866	0.000770	7.702327	1.304810	-0.000154
 943	9.3729e+01	1.2348	31.503789	0.000588	5.878092	0.995776	-0.000118
 944	9.3829e+01	1.2150	31.370563	0.000669	6.688863	1.133124	-0.000134
 945	9.3928e+01	1.1944	31.196966	0.000872	8.715791	1.476495	-0.000174
 946	9.4028e+01	1.1749	31.079889	0.000588	5.878092	0.995776	-0.000118
 947	9.4127e+01	1.1550	30.942627	0.000689	6.891556	1.167461	-0.000138
 948	9.4227e+01	1.1349	30.813439	0.000649	6.486170	1.098787	-0.000130
 949	9.4326e+01	1.1155	30.676176	0.000689	6.891556	1.167461	-0.000138
 950	9.4425e+01	1.0952	30.534876	0.000709	7.094249	1.201798	-0.000142
 951	9.4525e+01	1.0754	30.393576	0.000709	7.094249	1.201798	-0.000142
 952	9.4624e+01	1.0555	30.284574	0.000547	5.472706	0.927102	-0.000110
 953	9.4724e+01	1.0368	30.110977	0.000872	8.715791	1.476495	-0.000174
 954	9.4823e+01	1.0162	29.965640	0.000730	7.296942	1.236135	-0.000146
 955	9.4923e+01	0.9960	29.844526	0.000608	6.080785	1.030113	-0.000122
 956	9.5022e+01	0.9760	29.719375	0.000628	6.283478	1.064450	-0.000126
 957	9.5122e+01	0.9558	29.517518	0.001013	10.134641	1.716855	-0.000203
 958	9.5222e+01	0.9356	29.404478	0.000568	5.675399	0.961439	-0.000114
 959	9.5321e+01	0.9167	29.323735	0.000405	4.053856	0.686742	-0.000081
 960	9.5421e+01	0.8955	29.162250	0.000811	8.107713	1.373484	-0.000162
 961	9.5520e+01	0.8771	29.012876	0.000750	7.499634	1.270472	-0.000150
 962	9.5620e+01	0.8570	28.903873	0.000547	5.472706	0.927102	-0.000110
 963	9.5719e+01	0.8358	28.750462	0.000770	7.702327	1.304810	-0.000154
 964	9.5819e+01	0.8160	28.613200	0.000689	6.891556	1.167461	-0.000138
 965	9.5918e+01	0.7970	28.471900	0.000709	7.094249	1.201798	-0.000142
 966	9.6017e+01	0.7773	28.338674	0.000669	6.688863	1.133124	-0.000134
 967	9.6117e+01	0.7564	28.177189	0.000811	8.107713	1.373484	-0.000162
 968	9.6216e+01	0.7366	28.056075	0.000608	6.080785	1.030113	-0.000122
 969	9.6316e+01	0.7168	27.890552	0.000831	8.310406	1.407821	-0.000166
 970	9.6415e+01	0.6966	27.769438	0.000608	6.080785	1.030113	-0.000122
 971	9.6515e+01	0.6778	27.656398	0.000568	5.675399	0.961439	-0.000114
 972	9.6615e+01	0.6558	27.559507	0.000486	4.864628	0.824090	-0.000097
 973	9.6714e+01	0.6377	27.393985	0.000831	8.310406	1.407821	-0.000166
 974	9.6814e+01	0.6174	27.240573	0.000770	7.702327	1.304810	-0.000154
 975	9.6913e+01	0.5977	27.103311	0.000689	6.891556	1.167461	-0.000138
 976	9.7013e+01	0.5779	26.970085	0.000669	6.688863	1.133124	-0.000134
 977	9.7112e+01	0.5580	26.832823	0.000689	6.891556	1.167461	-0.000138
 978	9.7212e+01	0.5369	26.687486	0.000730	7.296942	1.236135	-0.000146
 979	9.7311e+01	0.5181	26.550223	0.000689	6.891556	1.167461	-0.000138
 980	9.7410e+01	0.4975	26.412961	0.000689	6.891556	1.167461	-0.000138
 981	9.7510e+01	0.4775	26.239364	0.000872	8.715791	1.476495	-0.000174
 982	9.7609e+01	0.4569	26.186881	0.000264	2.635007	0.446382	-0.000053
 983	9.7709e+01	0.4375	25.985024	0.001013	10.134641	1.716855	-0.000203
 984	9.7808e+01	0.4170	25.876022	0.000547	5.472706	0.927102	-0.000110
 985	9.7908e+01	0.3983	25.750870	0.000628	6.283478	1.064450	-0.000126
 986	9.8007e+01	0.3781	25.581311	0.000851	8.513099	1.442158	-0.000170
 987	9.8107e+01	0.3578	25.460197	0.000608	6.080785	1.030113	-0.000122
 988	9.8207e+01	0.3386	25.331008	0.000649	6.486170	1.098787	-0.000130
 989	9.8306e+01	0.3188	25.153374	0.000892	8.918484	1.510832	-0.000179
 990	9.8406e+01	0.2991	25.056483	0.000486	4.864628	0.824090	-0.000097
 991	9.8505e+01	0.2779	24.907109	0.000750	7.499634	1.270472	-0.000150
 992	9.8605e+01	0.2583	24.798106	0.000547	5.472706	0.927102	-0.000110
 993	9.8704e+01	0.2388	24.628547	0.000851	8.513099	1.442158	-0.000170
 994	9.8803e+01	0.2186	24.495321	0.000669	6.688863	1.133124	-0.000134
 995	9.8903e+01	0.1982	24.414578	0.000405	4.053856	0.686742	-0.000081
 996	9.9002e+01	0.1781	24.228870	0.000932	9.323870	1.579506	-0.000187
 997	9.9102e+01	0.1588	24.119867	0.000547	5.472706	0.927102	-0.000110
 998	9.9201e+01	0.1385	23.954345	0.000831	8.310406	1.407821	-0.000166
 999	9.9301e+01	0.1189	23.784785	0.000851	8.513099	1.442158	-0.000170
1000	9.9400e+01	0.0992	23.667708	0.000588	5.878092	0.995776	-0.000118
1001	9.9500e+01	0.0799	23.562743	0.000527	5.270013	0.892764	-0.000105
1002	9.9600e+01	0.0586	23.401257	0.000811	8.107713	1.373484	-0.000162
1003	9.9699e+01	0.0385	23.268032	0.000669	6.688863	1.133124	-0.000134
1004	9.9799e+01	0.0185	23.150955	0.000588	5.878092	0.995776	-0.000118
1005	9.9898e+01	-0.0002	22.981395	0.000851	8.513099	1.442158	-0.000170
1006	9.9998e+01	-0.0188	22.900652	0.000405	4.053856	0.686742	-0.000081
1007	1.0010e+02	-0.0397	22.690721	0.001054	10.540027	1.785529	-0.000211
1008	1.0020e+02	-0.0579	22.577682	0.000568	5.675399	0.961439	-0.000114
1009	1.0030e+02	-0.0788	22.432345	0.000730	7.296942	1.236135	-0.000146
1010	1.0040e+02	-0.0989	22.303156	0.000649	6.486170	1.098787	-0.000130
1011	1.0050e+02	-0.1187	22.157819	0.000730	7.296942	1.236135	-0.000146
1012	1.0059e+02	-0.1392	22.004408	0.000770	7.702327	1.304810	-0.000154
1013	1.0069e+02	-0.1588	21.883294	0.000608	6.080785	1.030113	-0.000122
1014	1.0079e+02	-0.1776	21.741995	0.000709	7.094249	1.201798	-0.000142
1015	1.0089e+02	-0.1977	21.596658	0.000730	7.296942	1.236135	-0.000146
1016	1.0099e+02	-0.2180	21.431135	0.000831	8.310406	1.407821	-0.000166
1017	1.0109e+02	-0.2380	21.281761	0.000750	7.499634	1.270472	-0.000150
1018	1.0119e+02	-0.2586	21.180833	0.000507	5.067321	0.858427	-0.000101
1019	1.0129e+02	-0.2781	21.039533	0.000709	7.094249	1.201798	-0.000142
1020	1.0139e+02	-0.2979	20.882085	0.000791	7.905020	1.339147	-0.000158
1021	1.0149e+02	-0.3178	20.777119	0.000527	5.270013	0.892764	-0.000105
1022	1.0159e+02	-0.3385	20.639856	0.000689	6.891556	1.167461	-0.000138
1023	1.0169e+02	-0.3577	20.462222	0.000892	8.918484	1.510832	-0.000179
1024	1.0179e+02	-0.3778	20.312848	0.000750	7.499634	1.270472	-0.000150
1025	1.0189e+02	-0.3970	20.155400	0.000791	7.905020	1.339147	-0.000158
1026	1.0199e+02	-0.4179	19.993915	0.000811	8.107713	1.373484	-0.000162
1027	1.0209e+02	-0.4370	19.892986	0.000507	5.067321	0.858427	-0.000101
1028	1.0219e+02	-0.4574	19.771872	0.000608	6.080785	1.030113	-0.000122
1029	1.0229e+02	-0.4768	19.618461	0.000770	7.702327	1.304810	-0.000154
1030	1.0239e+02	-0.4975	19.448901	0.000851	8.513099	1.442158	-0.000170
1031	1.0248e+02	-0.5164	19.323750	0.000628	6.283478	1.064450	-0.000126
1032	1.0258e+02	-0.5378	19.138042	0.000932	9.323870	1.579506	-0.000187
1033	1.0268e+02	-0.5570	19.025002	0.000568	5.675399	0.961439	-0.000114
1034	1.0278e+02	-0.5774	18.899851	0.000628	6.283478	1.064450	-0.000126
1035	1.0288e+02	-0.5972	18.778737	0.000608	6.080785	1.030113	-0.000122
1036	1.0298e+02	-0.6165	18.613214	0.000831	8.310406	1.407821	-0.000166
1037	1.0308e+02	-0.6360	18.492100	0.000608	6.080785	1.030113	-0.000122
1038	1.0318e+02	-0.6586	18.354838	0.000689	6.891556	1.167461	-0.000138
1039	1.0328e+02	-0.6772	18.165092	0.000953	9.526563	1.613843	-0.000191
1040	1.0338e+02	-0.6963	18.076275	0.000446	4.459242	0.755416	-0.000089
1041	1.0348e+02	-0.7166	17.874418	0.001013	10.134641	1.716855	-0.000203
1042	1.0358e+02	-0.7367	17.769453	0.000527	5.270013	0.892764	-0.000105
1043	1.0368e+02	-0.7562	17.620079	0.000750	7.499634	1.270472	-0.000150
1044	1.0378e+02	-0.7758	17.494928	0.000628	6.283478	1.064450	-0.000126
1045	1.0388e+02	-0.7961	17.321331	0.000872	8.715791	1.476495	-0.000174
1046	1.0398e+02	-0.8167	17.171957	0.000750	7.499634	1.270472	-0.000150
1047	1.0408e+02	-0.8365	17.034694	0.000689	6.891556	1.167461	-0.000138
1048	1.0418e+02	-0.8562	16.877246	0.000791	7.905020	1.339147	-0.000158
1049	1.0428e+02	-0.8752	16.748058	0.000649	6.486170	1.098787	-0.000130
1050	1.0438e+02	-0.8958	16.618869	0.000649	6.486170	1.098787	-0.000130
1051	1.0447e+02	-0.9162	16.485644	0.000669	6.688863	1.133124	-0.000134
1052	1.0457e+02	-0.9356	16.344344	0.000709	7.094249	1.201798	-0.000142
1053	1.0467e+02	-0.9555	16.166710	0.000892	8.918484	1.510832	-0.000179
1054	1.0477e+02	-0.9756	16.057707	0.000547	5.472706	0.927102	-0.000110
1055	1.0487e+02	-0.9953	15.920445	0.000689	6.891556	1.167461	-0.000138
1056	1.0497e+02	-1.0148	15.730699	0.000953	9.526563	1.613843	-0.000191
1057	1.0507e+02	-1.0349	15.597474	0.000669	6.688863	1.133124	-0.000134
1058	1.0517e+02	-1.0553	15.488471	0.000547	5.472706	0.927102	-0.000110
1059	1.0527e+02	-1.0754	15.322949	0.000831	8.310406	1.407821	-0.000166
1060	1.0537e+02	-1.0947	15.165500	0.000791	7.905020	1.339147	-0.000158
1061	1.0547e+02	-1.1150	15.028238	0.000689	6.891556	1.167461	-0.000138
1062	1.0557e+02	-1.1346	14.858678	0.000851	8.513099	1.442158	-0.000170
1063	1.0567e+02	-1.1554	14.733527	0.000628	6.283478	1.064450	-0.000126
1064	1.0577e+02	-1.1739	14.584153	0.000750	7.499634	1.270472	-0.000150
1065	1.0587e+02	-1.1943	14.442853	0.000709	7.094249	1.201798	-0.000142
1066	1.0597e+02	-1.2146	14.305590	0.000689	6.891556	1.167461	-0.000138
1067	1.0607e+02	-1.2341	14.123919	0.000912	9.121177	1.545169	-0.000183
1068	1.0617e+02	-1.2541	14.006842	0.000588	5.878092	0.995776	-0.000118
1069	1.0627e+02	-1.2732	13.833246	0.000872	8.715791	1.476495	-0.000174
1070	1.0637e+02	-1.2941	13.700020	0.000669	6.688863	1.133124	-0.000134
1071	1.0647e+02	-1.3138	13.534498	0.000831	8.310406	1.407821	-0.000166
1072	1.0656e+02	-1.3330	13.397235	0.000689	6.891556	1.167461	-0.000138
1073	1.0666e+02	-1.3538	13.243824	0.000770	7.702327	1.304810	-0.000154
1074	1.0676e+02	-1.3737	13.074264	0.000851	8.513099	1.442158	-0.000170
1075	1.0686e+02	-1.3936	12.985447	0.000446	4.459242	0.755416	-0.000089
1076	1.0696e+02	-1.4140	12.799739	0.000932	9.323870	1.579506	-0.000187
1077	1.0706e+02	-1.4330	12.662476	0.000689	6.891556	1.167461	-0.000138
1078	1.0716e+02	-1.4533	12.517139	0.000730	7.296942	1.236135	-0.000146
1079	1.0726e+02	-1.4734	12.363728	0.000770	7.702327	1.304810	-0.000154
1080	1.0736e+02	-1.4931	12.230503	0.000669	6.688863	1.133124	-0.000134
1081	1.0746e+02	-1.5128	12.077092	0.000770	7.702327	1.304810	-0.000154
1082	1.0756e+02	-1.5337	11.903495	0.000872	8.715791	1.476495	-0.000174
1083	1.0766e+02	-1.5535	11.782381	0.000608	6.080785	1.030113	-0.000122
1084	1.0776e+02	-1.5730	11.645118	0.000689	6.891556	1.167461	-0.000138
1085	1.0786e+02	-1.5924	11.415001	0.001155	11.553491	1.957214	-0.000231
1086	1.0796e+02	-1.6125	11.318110	0.000486	4.864628	0.824090	-0.000097
1087	1.0806e+02	-1.6326	11.160662	0.000791	7.905020	1.339147	-0.000158
1088	1.0816e+02	-1.6526	11.055696	0.000527	5.270013	0.892764	-0.000105
1089	1.0826e+02	-1.6727	10.849802	0.001034	10.337334	1.751192	-0.000207
1090	1.0836e+02	-1.6933	10.752911	0.000486	4.864628	0.824090	-0.000097
1091	1.0845e+02	-1.7117	10.551054	0.001013	10.134641	1.716855	-0.000203
1092	1.0855e+02	-1.7324	10.433977	0.000588	5.878092	0.995776	-0.000118
1093	1.0865e+02	-1.7523	10.288640	0.000730	7.296942	1.236135	-0.000146
1094	1.0875e+02	-1.7727	10.143304	0.000730	7.296942	1.236135	-0.000146
1095	1.0885e+02	-1.7920	9.957595	0.000932	9.323870	1.579506	-0.000187
1096	1.0895e+02	-1.8127	9.852630	0.000527	5.270013	0.892764	-0.000105
1097	1.0905e+02	-1.8320	9.634624	0.001095	10.945412	1.854203	-0.000219
1098	1.0915e+02	-1.8519	9.529659	0.000527	5.270013	0.892764	-0.000105
1099	1.0925e+02	-1.8724	9.368173	0.000811	8.107713	1.373484	-0.000162
1100	1.0935e+02	-1.8916	9.247059	0.000608	6.080785	1.030113	-0.000122
1101	1.0945e+02	-1.9122	9.073463	0.000872	8.715791	1.476495	-0.000174
1102	1.0955e+02	-1.9321	8.960423	0.000568	5.675399	0.961439	-0.000114
1103	1.0965e+02	-1.9505	8.839309	0.000608	6.080785	1.030113	-0.000122
1104	1.0975e+02	-1.9714	8.677823	0.000811	8.107713	1.373484	-0.000162
1105	1.0985e+02	-1.9911	8.492115	0.000932	9.323870	1.579506	-0.000187
1106	1.0995e+02	-2.0109	8.362927	0.000649	6.486170	1.098787	-0.000130
1107	1.1005e+02	-2.0309	8.209516	0.000770	7.702327	1.304810	-0.000154
1108	1.1015e+02	-2.0517	8.096476	0.000568	5.675399	0.961439	-0.000114
1109	1.1025e+02	-2.0703	7.914805	0.000912	9.121177	1.545169	-0.000183
1110	1.1035e+02	-2.0908	7.753319	0.000811	8.107713	1.373484	-0.000162
1111	1.1044e+02	-2.1107	7.607982	0.000730	7.296942	1.236135	-0.000146
1112	1.1054e+02	-2.1316	7.478794	0.000649	6.486170	1.098787	-0.000130
1113	1.1064e+02	-2.1513	7.345568	0.000669	6.688863	1.133124	-0.000134
1114	1.1074e+02	-2.1707	7.196194	0.000750	7.499634	1.270472	-0.000150
1115	1.1084e+02	-2.1907	7.026635	0.000851	8.513099	1.442158	-0.000170
1116	1.1094e+02	-2.2118	6.885335	0.000709	7.094249	1.201798	-0.000142
1117	1.1104e+02	-2.2302	6.752110	0.000669	6.688863	1.133124	-0.000134
1118	1.1114e+02	-2.2507	6.554290	0.000993	9.931948	1.682518	-0.000199
1119	1.1124e+02	-2.2701	6.425102	0.000649	6.486170	1.098787	-0.000130
1120	1.1134e+02	-2.2906	6.299950	0.000628	6.283478	1.064450	-0.000126
1121	1.1144e+02	-2.3098	6.122316	0.000892	8.918484	1.510832	-0.000179
1122	1.1154e+02	-2.3299	6.001202	0.000608	6.080785	1.030113	-0.000122
1123	1.1164e+02	-2.3502	5.847791	0.000770	7.702327	1.304810	-0.000154
1124	1.1174e+02	-2.3697	5.702454	0.000730	7.296942	1.236135	-0.000146
1125	1.1184e+02	-2.3898	5.553080	0.000750	7.499634	1.270472	-0.000150
1126	1.1194e+02	-2.4105	5.395632	0.000791	7.905020	1.339147	-0.000158
1127	1.1204e+02	-2.4293	5.270481	0.000628	6.283478	1.064450	-0.000126
1128	1.1214e+02	-2.4500	5.121107	0.000750	7.499634	1.270472	-0.000150
1129	1.1224e+02	-2.4701	4.955584	0.000831	8.310406	1.407821	-0.000166
1130	1.1234e+02	-2.4896	4.781987	0.000872	8.715791	1.476495	-0.000174
1131	1.1244e+02	-2.5092	4.636650	0.000730	7.296942	1.236135	-0.000146
1132	1.1253e+02	-2.5285	4.527648	0.000547	5.472706	0.927102	-0.000110
1133	1.1263e+02	-2.5491	4.390385	0.000689	6.891556	1.167461	-0.000138
1134	1.1273e+02	-2.5693	4.220825	0.000851	8.513099	1.442158	-0.000170
1135	1.1283e+02	-2.5882	4.091637	0.000649	6.486170	1.098787	-0.000130
1136	1.1293e+02	-2.6076	3.918040	0.000872	8.715791	1.476495	-0.000174
1137	1.1303e+02	-2.6286	3.764629	0.000770	7.702327	1.304810	-0.000154
1138	1.1313e+02	-2.6486	3.663701	0.000507	5.067321	0.858427	-0.000101
1139	1.1323e+02	-2.6682	3.534512	0.000649	6.486170	1.098787	-0.000130
1140	1.1333e+02	-2.6889	3.352841	0.000912	9.121177	1.545169	-0.000183
1141	1.1343e+02	-2.7077	3.215579	0.000689	6.891556	1.167461	-0.000138
1142	1.1353e+02	-2.7288	3.082353	0.000669	6.688863	1.133124	-0.000134
1143	1.1363e+02	-2.7478	2.932979	0.000750	7.499634	1.270472	-0.000150
1144	1.1373e+02	-2.7684	2.775531	0.000791	7.905020	1.339147	-0.000158
1145	1.1383e+02	-2.7884	2.605971	0.000851	8.513099	1.442158	-0.000170
1146	1.1393e+02	-2.8088	2.476783	0.000649	6.486170	1.098787	-0.000130
1147	1.1403e+02	-2.8278	2.347594	0.000649	6.486170	1.098787	-0.000130
1148	1.1413e+02	-2.8472	2.190146	0.000791	7.905020	1.339147	-0.000158
1149	1.1423e+02	-2.8674	2.056921	0.000669	6.688863	1.133124	-0.000134
1150	1.1433e+02	-2.8870	1.871212	0.000932	9.323870	1.579506	-0.000187
1151	1.1442e+02	-2.9073	1.754135	0.000588	5.878092	0.995776	-0.000118
1152	1.1452e+02	-2.9274	1.592650	0.000811	8.107713	1.373484	-0.000162
1153	1.1462e+02	-2.9472	1.467499	0.000628	6.283478	1.064450	-0.000126
1154	1.1472e+02	-2.9672	1.334273	0.000669	6.688863	1.133124	-0.000134
1155	1.1482e+02	-2.9877	1.180862	0.000770	7.702327	1.304810	-0.000154
1156	1.1492e+02	-3.0081	1.051674	0.000649	6.486170	1.098787	-0.000130
1157	1.1502e+02	-3.0275	0.938634	0.000568	5.675399	0.961439	-0.000114
1158	1.1512e+02	-3.0478	0.761000	0.000892	8.918484	1.510832	-0.000179
1159	1.1522e+02	-3.0672	0.660072	0.000507	5.067321	0.858427	-0.000101
1160	1.1532e+02	-3.0861	0.486475	0.000872	8.715791	1.476495	-0.000174
1161	1.1542e+02	-3.1073	0.365361	0.000608	6.080785	1.030113	-0.000122
1162	1.1552e+02	-3.1268	0.207912	0.000791	7.905020	1.339147	-0.000158
1163	1.1562e+02	-3.1470	0.034316	0.000872	8.715791	1.476495	-0.000174
1164	1.1572e+02	-3.1665	-0.090836	0.000628	6.283478	1.064450	-0.000126
1165	1.1582e+02	-3.1864	-0.220024	0.000649	6.486170	1.098787	-0.000130
1166	1.1592e+02	-3.2062	-0.361324	0.000709	7.094249	1.201798	-0.000142
1167	1.1602e+02	-3.2266	-0.506661	0.000730	7.296942	1.236135	-0.000146
1168	1.1612e+02	-3.2462	-0.643923	0.000689	6.891556	1.167461	-0.000138
1169	1.1622e+02	-3.2661	-0.793297	0.000750	7.499634	1.270472	-0.000150
1170	1.1632e+02	-3.2862	-0.938634	0.000730	7.296942	1.236135	-0.000146
1171	1.1642e+02	-3.3061	-1.063785	0.000628	6.283478	1.064450	-0.000126
1172	1.1651e+02	-3.3263	-1.201048	0.000689	6.891556	1.167461	-0.000138
1173	1.1661e+02	-3.3465	-1.366570	0.000831	8.310406	1.407821	-0.000166
1174	1.1671e+02	-3.3668	-1.519982	0.000770	7.702327	1.304810	-0.000154
1175	1.1681e+02	-3.3840	-1.637059	0.000588	5.878092	0.995776	-0.000118
1176	1.1691e+02	-3.4056	-1.746061	0.000547	5.472706	0.927102	-0.000110
1177	1.1701e+02	-3.4253	-1.939844	0.000973	9.729255	1.648180	-0.000195
1178	1.1711e+02	-3.4451	-2.060958	0.000608	6.080785	1.030113	-0.000122
1179	1.1721e+02	-3.4644	-2.254740	0.000973	9.729255	1.648180	-0.000195
1180	1.1731e+02	-3.4852	-2.383929	0.000649	6.486170	1.098787	-0.000130
1181	1.1741e+02	-3.5051	-2.492931	0.000547	5.472706	0.927102	-0.000110
1182	1.1751e+02	-3.5255	-2.626157	0.000669	6.688863	1.133124	-0.000134
1183	1.1761e+02	-3.5445	-2.779568	0.000770	7.702327	1.304810	-0.000154
1184	1.1771e+02	-3.5655	-2.924905	0.000730	7.296942	1.236135	-0.000146
1185	1.1781e+02	-3.5857	-3.098502	0.000872	8.715791	1.476495	-0.000174
1186	1.1791e+02	-3.6054	-3.215579	0.000588	5.878092	0.995776	-0.000118
1187	1.1801e+02	-3.6259	-3.348804	0.000669	6.688863	1.133124	-0.000134
1188	1.1811e+02	-3.6452	-3.506252	0.000791	7.905020	1.339147	-0.000158
1189	1.1821e+02	-3.6649	-3.635441	0.000649	6.486170	1.098787	-0.000130
1190	1.1831e+02	-3.6852	-3.780778	0.000730	7.296942	1.236135	-0.000146
1191	1.1841e+02	-3.7049	-3.954374	0.000872	8.715791	1.476495	-0.000174
1192	1.1850e+02	-3.7242	-4.119897	0.000831	8.310406	1.407821	-0.000166
1193	1.1860e+02	-3.7437	-4.257160	0.000689	6.891556	1.167461	-0.000138
1194	1.1870e+02	-3.7644	-4.362125	0.000527	5.270013	0.892764	-0.000105
1195	1.1880e+02	-3.7846	-4.515536	0.000770	7.702327	1.304810	-0.000154
1196	1.1890e+02	-3.8036	-4.596279	0.000405	4.053856	0.686742	-0.000081
1197	1.1900e+02	-3.8237	-4.777950	0.000912	9.121177	1.545169	-0.000183
1198	1.1910e+02	-3.8434	-4.915213	0.000689	6.891556	1.167461	-0.000138
1199	1.1920e+02	-3.8643	-5.072661	0.000791	7.905020	1.339147	-0.000158
1200	1.1930e+02	-3.8834	-5.205887	0.000669	6.688863	1.133124	-0.000134
1201	1.1940e+02	-3.9029	-5.335075	0.000649	6.486170	1.098787	-0.000130
1202	1.1950e+02	-3.9236	-5.520783	0.000932	9.323870	1.579506	-0.000187
1203	1.1960e+02	-3.9439	-5.585377	0.000324	3.243085	0.549393	-0.000065
1204	1.1970e+02	-3.9636	-5.738788	0.000770	7.702327	1.304810	-0.000154
1205	1.1980e+02	-3.9835	-5.912385	0.000872	8.715791	1.476495	-0.000174
1206	1.1990e+02	-4.0041	-6.057722	0.000730	7.296942	1.236135	-0.000146
1207	1.2000e+02	-4.0234	-6.194985	0.000689	6.891556	1.167461	-0.000138
1208	1.2010e+02	-4.0429	-6.316099	0.000608	6.080785	1.030113	-0.000122
1209	1.2020e+02	-4.0630	-6.489696	0.000872	8.715791	1.476495	-0.000174
1210	1.2030e+02	-4.0832	-6.630995	0.000709	7.094249	1.201798	-0.000142
1211	1.2039e+02	-4.1016	-6.715775	0.000426	4.256549	0.721079	-0.000085
1212	1.2049e+02	-4.1229	-6.869186	0.000770	7.702327	1.304810	-0.000154
1213	1.2059e+02	-4.1428	-7.026635	0.000791	7.905020	1.339147	-0.000158
1214	1.2069e+02	-4.1626	-7.155823	0.000649	6.486170	1.098787	-0.000130
1215	1.2079e+02	-4.1821	-7.321346	0.000831	8.310406	1.407821	-0.000166
1216	1.2089e+02	-4.2021	-7.450534	0.000649	6.486170	1.098787	-0.000130
1217	1.2099e+02	-4.2220	-7.579722	0.000649	6.486170	1.098787	-0.000130
1218	1.2109e+02	-4.2427	-7.741208	0.000811	8.107713	1.373484	-0.000162
1219	1.2119e+02	-4.2623	-7.890582	0.000750	7.499634	1.270472	-0.000150
1220	1.2129e+02	-4.2831	-8.015733	0.000628	6.283478	1.064450	-0.000126
1221	1.2139e+02	-4.3031	-8.144921	0.000649	6.486170	1.098787	-0.000130
1222	1.2149e+02	-4.3219	-8.310444	0.000831	8.310406	1.407821	-0.000166
1223	1.2159e+02	-4.3427	-8.480004	0.000851	8.513099	1.442158	-0.000170
1224	1.2169e+02	-4.3625	-8.605155	0.000628	6.283478	1.064450	-0.000126
1225	1.2179e+02	-4.3817	-8.730306	0.000628	6.283478	1.064450	-0.000126
1226	1.2189e+02	-4.4019	-8.895829	0.000831	8.310406	1.407821	-0.000166
1227	1.2199e+02	-4.4213	-9.037128	0.000709	7.094249	1.201798	-0.000142
1228	1.2209e+02	-4.4415	-9.190540	0.000770	7.702327	1.304810	-0.000154
1229	1.2219e+02	-4.4603	-9.303579	0.000568	5.675399	0.961439	-0.000114
1230	1.2229e+02	-4.4811	-9.444879	0.000709	7.094249	1.201798	-0.000142
1231	1.2239e+02	-4.5012	-9.610402	0.000831	8.310406	1.407821	-0.000166
1232	1.2248e+02	-4.5210	-9.723441	0.000568	5.675399	0.961439	-0.000114
1233	1.2258e+02	-4.5404	-9.868778	0.000730	7.296942	1.236135	-0.000146
1234	1.2268e+02	-4.5613	-10.022189	0.000770	7.702327	1.304810	-0.000154
1235	1.2278e+02	-4.5815	-10.151378	0.000649	6.486170	1.098787	-0.000130
1236	1.2288e+02	-4.6005	-10.312863	0.000811	8.107713	1.373484	-0.000162
1237	1.2298e+02	-4.6217	-10.486460	0.000872	8.715791	1.476495	-0.000174
1238	1.2308e+02	-4.6414	-10.579314	0.000466	4.661935	0.789753	-0.000093
1239	1.2318e+02	-4.6603	-10.740800	0.000811	8.107713	1.373484	-0.000162
1240	1.2328e+02	-4.6816	-10.857877	0.000588	5.878092	0.995776	-0.000118
1241	1.2338e+02	-4.7016	-11.031473	0.000872	8.715791	1.476495	-0.000174
1242	1.2348e+02	-4.7212	-11.188922	0.000791	7.905020	1.339147	-0.000158
1243	1.2358e+02	-4.7404	-11.277739	0.000446	4.459242	0.755416	-0.000089
1244	1.2368e+02	-4.7611	-11.439224	0.000811	8.107713	1.373484	-0.000162
1245	1.2378e+02	-4.7803	-11.584561	0.000730	7.296942	1.236135	-0.000146
1246	1.2388e+02	-4.8007	-11.733935	0.000750	7.499634	1.270472	-0.000150
1247	1.2398e+02	-4.8199	-11.887346	0.000770	7.702327	1.304810	-0.000154
1248	1.2408e+02	-4.8398	-12.008460	0.000608	6.080785	1.030113	-0.000122
1249	1.2418e+02	-4.8604	-12.165909	0.000791	7.905020	1.339147	-0.000158
1250	1.2428e+02	-4.8806	-12.299134	0.000669	6.688863	1.133124	-0.000134
1251	1.2438e+02	-4.8997	-12.484842	0.000932	9.323870	1.579506	-0.000187
1252	1.2447e+02	-4.9199	-12.605956	0.000608	6.080785	1.030113	-0.000122
1253	1.2457e+02	-4.9393	-12.767442	0.000811	8.107713	1.373484	-0.000162
1254	1.2467e+02	-4.9606	-12.928927	0.000811	8.107713	1.373484	-0.000162
1255	1.2477e+02	-4.9795	-13.021781	0.000466	4.661935	0.789753	-0.000093
1256	1.2487e+02	-4.9998	-13.167118	0.000730	7.296942	1.236135	-0.000146
1257	1.2497e+02	-5.0204	-13.324567	0.000791	7.905020	1.339147	-0.000158
1258	1.2507e+02	-5.0389	-13.425495	0.000507	5.067321	0.858427	-0.000101
1259	1.2517e+02	-5.0588	-13.607166	0.000912	9.121177	1.545169	-0.000183
1260	1.2527e+02	-5.0787	-13.736354	0.000649	6.486170	1.098787	-0.000130
1261	1.2537e+02	-5.0999	-13.877654	0.000709	7.094249	1.201798	-0.000142
1262	1.2547e+02	-5.1196	-14.018954	0.000709	7.094249	1.201798	-0.000142
1263	1.2557e+02	-5.1389	-14.168328	0.000750	7.499634	1.270472	-0.000150
1264	1.2567e+02	-5.1596	-14.301553	0.000669	6.688863	1.133124	-0.000134
1265	1.2577e+02	-5.1784	-14.450927	0.000750	7.499634	1.270472	-0.000150
1266	1.2587e+02	-5.1984	-14.580116	0.000649	6.486170	1.098787	-0.000130
1267	1.2597e+02	-5.2179	-14.717378	0.000689	6.891556	1.167461	-0.000138
1268	1.2607e+02	-5.2390	-14.858678	0.000709	7.094249	1.201798	-0.000142
1269	1.2617e+02	-5.2583	-14.979792	0.000608	6.080785	1.030113	-0.000122
1270	1.2627e+02	-5.2776	-15.165500	0.000932	9.323870	1.579506	-0.000187
1271	1.2636e+02	-5.2985	-15.290652	0.000628	6.283478	1.064450	-0.000126
1272	1.2646e+02	-5.3190	-15.415803	0.000628	6.283478	1.064450	-0.000126
1273	1.2656e+02	-5.3354	-15.532880	0.000588	5.878092	0.995776	-0.000118
1274	1.2666e+02	-5.3574	-15.734737	0.001013	10.134641	1.716855	-0.000203
1275	1.2676e+02	-5.3784	-15.831628	0.000486	4.864628	0.824090	-0.000097
1276	1.2686e+02	-5.3975	-15.952742	0.000608	6.080785	1.030113	-0.000122
1277	1.2696e+02	-5.4169	-16.118264	0.000831	8.310406	1.407821	-0.000166
1278	1.2706e+02	-5.4385	-16.251490	0.000669	6.688863	1.133124	-0.000134
1279	1.2716e+02	-5.4568	-16.433161	0.000912	9.121177	1.545169	-0.000183
1280	1.2726e+02	-5.4778	-16.542164	0.000547	5.472706	0.927102	-0.000110
1281	1.2736e+02	-5.4971	-16.703649	0.000811	8.107713	1.373484	-0.000162
1282	1.2746e+02	-5.5179	-16.824763	0.000608	6.080785	1.030113	-0.000122
1283	1.2756e+02	-5.5377	-16.982211	0.000791	7.905020	1.339147	-0.000158
1284	1.2766e+02	-5.5570	-17.119474	0.000689	6.891556	1.167461	-0.000138
1285	1.2776e+02	-5.5779	-17.248662	0.000649	6.486170	1.098787	-0.000130
1286	1.2786e+02	-5.5968	-17.418222	0.000851	8.513099	1.442158	-0.000170
1287	1.2796e+02	-5.6168	-17.511076	0.000466	4.661935	0.789753	-0.000093
1288	1.2806e+02	-5.6377	-17.684673	0.000872	8.715791	1.476495	-0.000174
1289	1.2816e+02	-5.6567	-17.842121	0.000791	7.905020	1.339147	-0.000158
1290	1.2826e+02	-5.6774	-17.939013	0.000486	4.864628	0.824090	-0.000097
1291	1.2835e+02	-5.6976	-18.136832	0.000993	9.931948	1.682518	-0.000199
1292	1.2845e+02	-5.7165	-18.298318	0.000811	8.107713	1.373484	-0.000162
1293	1.2855e+02	-5.7361	-18.411358	0.000568	5.675399	0.961439	-0.000114
1294	1.2865e+02	-5.7568	-18.580917	0.000851	8.513099	1.442158	-0.000170
1295	1.2875e+02	-5.7771	-18.726254	0.000730	7.296942	1.236135	-0.000146
1296	1.2885e+02	-5.7964	-18.847368	0.000608	6.080785	1.030113	-0.000122
1297	1.2895e+02	-5.8159	-18.976557	0.000649	6.486170	1.098787	-0.000130
1298	1.2905e+02	-5.8357	-19.134005	0.000791	7.905020	1.339147	-0.000158
1299	1.2915e+02	-5.8563	-19.283379	0.000750	7.499634	1.270472	-0.000150
1300	1.2925e+02	-5.8752	-19.428716	0.000730	7.296942	1.236135	-0.000146
1301	1.2935e+02	-5.8957	-19.574053	0.000730	7.296942	1.236135	-0.000146
1302	1.2945e+02	-5.9163	-19.695167	0.000608	6.080785	1.030113	-0.000122
1303	1.2955e+02	-5.9354	-19.856652	0.000811	8.107713	1.373484	-0.000162
1304	1.2965e+02	-5.9566	-20.001989	0.000730	7.296942	1.236135	-0.000146
1305	1.2975e+02	-5.9761	-20.135214	0.000669	6.688863	1.133124	-0.000134
1306	1.2985e+02	-5.9953	-20.300737	0.000831	8.310406	1.407821	-0.000166
1307	1.2995e+02	-6.0158	-20.429925	0.000649	6.486170	1.098787	-0.000130
1308	1.3005e+02	-6.0359	-20.542965	0.000568	5.675399	0.961439	-0.000114
1309	1.3015e+02	-6.0558	-20.712525	0.000851	8.513099	1.442158	-0.000170
1310	1.3025e+02	-6.0760	-20.886122	0.000872	8.715791	1.476495	-0.000174
1311	1.3034e+02	-6.0955	-21.027421	0.000709	7.094249	1.201798	-0.000142
1312	1.3044e+02	-6.1153	-21.144498	0.000588	5.878092	0.995776	-0.000118
1313	1.3054e+02	-6.1355	-21.273687	0.000649	6.486170	1.098787	-0.000130
1314	1.3064e+02	-6.1552	-21.459395	0.000932	9.323870	1.579506	-0.000187
1315	1.3074e+02	-6.1757	-21.628955	0.000851	8.513099	1.442158	-0.000170
1316	1.3084e+02	-6.1942	-21.758143	0.000649	6.486170	1.098787	-0.000130
1317	1.3094e+02	-6.2155	-21.895406	0.000689	6.891556	1.167461	-0.000138
1318	1.3104e+02	-6.2354	-22.064965	0.000851	8.513099	1.442158	-0.000170
1319	1.3114e+02	-6.2555	-22.218377	0.000770	7.702327	1.304810	-0.000154
1320	1.3124e+02	-6.2741	-22.331416	0.000568	5.675399	0.961439	-0.000114
1321	1.3134e+02	-6.2946	-22.488865	0.000791	7.905020	1.339147	-0.000158
1322	1.3144e+02	-6.3135	-22.614016	0.000628	6.283478	1.064450	-0.000126
1323	1.3154e+02	-6.3345	-22.759353	0.000730	7.296942	1.236135	-0.000146
1324	1.3164e+02	-6.3531	-22.928912	0.000851	8.513099	1.442158	-0.000170
1325	1.3174e+02	-6.3742	-23.062138	0.000669	6.688863	1.133124	-0.000134
1326	1.3184e+02	-6.3939	-23.247846	0.000932	9.323870	1.579506	-0.000187
1327	1.3194e+02	-6.4135	-23.393183	0.000730	7.296942	1.236135	-0.000146
1328	1.3204e+02	-6.4351	-23.558706	0.000831	8.310406	1.407821	-0.000166
1329	1.3214e+02	-6.4532	-23.695968	0.000689	6.891556	1.167461	-0.000138
1330	1.3224e+02	-6.4738	-23.833231	0.000689	6.891556	1.167461	-0.000138
1331	1.3234e+02	-6.4937	-23.998753	0.000831	8.310406	1.407821	-0.000166
1332	1.3243e+02	-6.5135	-24.140053	0.000709	7.094249	1.201798	-0.000142
1333	1.3253e+02	-6.5327	-24.277316	0.000689	6.891556	1.167461	-0.000138
1334	1.3263e+02	-6.5535	-24.422653	0.000730	7.296942	1.236135	-0.000146
1335	1.3273e+02	-6.5741	-24.616435	0.000973	9.729255	1.648180	-0.000195
1336	1.3283e+02	-6.5932	-24.765809	0.000750	7.499634	1.270472	-0.000150
1337	1.3293e+02	-6.6131	-24.907109	0.000709	7.094249	1.201798	-0.000142
1338	1.3303e+02	-6.6340	-25.068594	0.000811	8.107713	1.373484	-0.000162
1339	1.3313e+02	-6.6522	-25.222006	0.000770	7.702327	1.304810	-0.000154
1340	1.3323e+02	-6.6734	-25.379454	0.000791	7.905020	1.339147	-0.000158
1341	1.3333e+02	-6.6931	-25.516716	0.000689	6.891556	1.167461	-0.000138
1342	1.3343e+02	-6.7133	-25.702425	0.000932	9.323870	1.579506	-0.000187
1343	1.3353e+02	-6.7331	-25.867947	0.000831	8.310406	1.407821	-0.000166
1344	1.3363e+02	-6.7519	-26.065767	0.000993	9.931948	1.682518	-0.000199
1345	1.3373e+02	-6.7715	-26.215141	0.000750	7.499634	1.270472	-0.000150
1346	1.3383e+02	-6.7917	-26.392775	0.000892	8.918484	1.510832	-0.000179
1347	1.3393e+02	-6.8127	-26.530038	0.000689	6.891556	1.167461	-0.000138
1348	1.3403e+02	-6.8329	-26.711709	0.000912	9.121177	1.545169	-0.000183
1349	1.3413e+02	-6.8512	-26.848971	0.000689	6.891556	1.167461	-0.000138
1350	1.3423e+02	-6.8729	-27.066977	0.001095	10.945412	1.854203	-0.000219
1351	1.3432e+02	-6.8928	-27.244611	0.000892	8.918484	1.510832	-0.000179
1352	1.3442e+02	-6.9122	-27.410133	0.000831	8.310406	1.407821	-0.000166
1353	1.3452e+02	-6.9321	-27.551433	0.000709	7.094249	1.201798	-0.000142
1354	1.3462e+02	-6.9518	-27.785587	0.001176	11.756184	1.991551	-0.000235
1355	1.3472e+02	-6.9714	-27.943035	0.000791	7.905020	1.339147	-0.000158
1356	1.3482e+02	-6.9917	-28.104520	0.000811	8.107713	1.373484	-0.000162
1357	1.3492e+02	-7.0117	-28.286192	0.000912	9.121177	1.545169	-0.000183
1358	1.3502e+02	-7.0320	-28.471900	0.000932	9.323870	1.579506	-0.000187
1359	1.3512e+02	-7.0517	-28.629348	0.000791	7.905020	1.339147	-0.000158
1360	1.3522e+02	-7.0712	-28.782759	0.000770	7.702327	1.304810	-0.000154
1361	1.3532e+02	-7.0908	-29.024987	0.001216	12.161569	2.060226	-0.000243
1362	1.3542e+02	-7.1121	-29.174361	0.000750	7.499634	1.270472	-0.000150
1363	1.3552e+02	-7.1313	-29.356033	0.000912	9.121177	1.545169	-0.000183
1364	1.3562e+02	-7.1508	-29.493295	0.000689	6.891556	1.167461	-0.000138
1365	1.3572e+02	-7.1704	-29.707263	0.001074	10.742720	1.819866	-0.000215
1366	1.3582e+02	-7.1915	-29.945454	0.001196	11.958877	2.025889	-0.000239
1367	1.3592e+02	-7.2110	-30.090791	0.000730	7.296942	1.236135	-0.000146
1368	1.3602e+02	-7.2306	-30.284574	0.000973	9.729255	1.648180	-0.000195
1369	1.3612e+02	-7.2508	-30.494505	0.001054	10.540027	1.785529	-0.000211
1370	1.3622e+02	-7.2720	-30.676176	0.000912	9.121177	1.545169	-0.000183
1371	1.3631e+02	-7.2906	-30.821513	0.000730	7.296942	1.236135	-0.000146
1372	1.3641e+02	-7.3106	-31.011258	0.000953	9.526563	1.613843	-0.000191
1373	1.3651e+02	-7.3312	-31.229264	0.001095	10.945412	1.854203	-0.000219
1374	1.3661e+02	-7.3502	-31.459380	0.001155	11.553491	1.957214	-0.000231
1375	1.3671e+02	-7.3701	-31.661237	0.001013	10.134641	1.716855	-0.000203
1376	1.3681e+02	-7.3901	-31.846945	0.000932	9.323870	1.579506	-0.000187
1377	1.3691e+02	-7.4109	-32.024579	0.000892	8.918484	1.510832	-0.000179
1378	1.3701e+02	-7.4310	-32.234510	0.001054	10.540027	1.785529	-0.000211
1379	1.3711e+02	-7.4501	-32.452516	0.001095	10.945412	1.854203	-0.000219
1380	1.3721e+02	-7.4695	-32.622075	0.000851	8.513099	1.442158	-0.000170
1381	1.3731e+02	-7.4898	-32.844118	0.001115	11.148105	1.888540	-0.000223
1382	1.3741e+02	-7.5095	-33.037900	0.000973	9.729255	1.648180	-0.000195
1383	1.3751e+02	-7.5307	-33.239757	0.001013	10.134641	1.716855	-0.000203
1384	1.3761e+02	-7.5500	-33.494097	0.001277	12.769648	2.163237	-0.000256
1385	1.3771e+02	-7.5693	-33.691916	0.000993	9.931948	1.682518	-0.000199
1386	1.3781e+02	-7.5884	-33.873587	0.000912	9.121177	1.545169	-0.000183
1387	1.3791e+02	-7.6096	-34.099667	0.001135	11.350798	1.922877	-0.000227
1388	1.3801e+02	-7.6281	-34.305561	0.001034	10.337334	1.751192	-0.000207
1389	1.3811e+02	-7.6489	-34.563938	0.001297	12.972341	2.197574	-0.000260
1390	1.3821e+02	-7.6690	-34.761757	0.000993	9.931948	1.682518	-0.000199
1391	1.3831e+02	-7.6892	-34.995911	0.001176	11.756184	1.991551	-0.000235
1392	1.3840e+02	-7.7088	-35.213916	0.001095	10.945412	1.854203	-0.000219
1393	1.3850e+02	-7.7286	-35.444033	0.001155	11.553491	1.957214	-0.000231
1394	1.3860e+02	-7.7485	-35.666076	0.001115	11.148105	1.888540	-0.000223
1395	1.3870e+02	-7.7676	-35.880044	0.001074	10.742720	1.819866	-0.000215
1396	1.3880e+02	-7.7879	-36.110161	0.001155	11.553491	1.957214	-0.000231
1397	1.3890e+02	-7.8079	-36.324129	0.001074	10.742720	1.819866	-0.000215
1398	1.3900e+02	-7.8282	-36.582505	0.001297	12.972341	2.197574	-0.000260
1399	1.3910e+02	-7.8473	-36.796474	0.001074	10.742720	1.819866	-0.000215
1400	1.3920e+02	-7.8683	-37.058888	0.001318	13.175033	2.231911	-0.000264
1401	1.3930e+02	-7.8880	-37.276893	0.001095	10.945412	1.854203	-0.000219
1402	1.3940e+02	-7.9082	-37.494898	0.001095	10.945412	1.854203	-0.000219
1403	1.3950e+02	-7.9279	-37.741163	0.001236	12.364262	2.094563	-0.000248
1404	1.3960e+02	-7.9466	-37.991466	0.001257	12.566955	2.128900	-0.000252
1405	1.3970e+02	-7.9674	-38.229657	0.001196	11.958877	2.025889	-0.000239
1406	1.3980e+02	-7.9866	-38.496108	0.001338	13.377726	2.266248	-0.000268
1407	1.3990e+02	-8.0081	-38.730262	0.001176	11.756184	1.991551	-0.000235
1408	1.4000e+02	-8.0276	-38.992676	0.001318	13.175033	2.231911	-0.000264
1409	1.4010e+02	-8.0463	-39.238941	0.001236	12.364262	2.094563	-0.000248
1410	1.4020e+02	-8.0673	-39.473095	0.001176	11.756184	1.991551	-0.000235
1411	1.4029e+02	-8.0871	-39.727434	0.001277	12.769648	2.163237	-0.000256
1412	1.4039e+02	-8.1066	-40.005997	0.001399	13.985805	2.369259	-0.000280
1413	1.4049e+02	-8.1271	-40.244188	0.001196	11.958877	2.025889	-0.000239
1414	1.4059e+02	-8.1470	-40.526787	0.001419	14.188498	2.403597	-0.000284
1415	1.4069e+02	-8.1668	-40.744792	0.001095	10.945412	1.854203	-0.000219
1416	1.4079e+02	-8.1866	-41.043540	0.001500	14.999269	2.540945	-0.000300
1417	1.4089e+02	-8.2056	-41.309991	0.001338	13.377726	2.266248	-0.000268
1418	1.4099e+02	-8.2270	-41.584517	0.001378	13.783112	2.334922	-0.000276
1419	1.4109e+02	-8.2458	-41.818671	0.001176	11.756184	1.991551	-0.000235
1420	1.4119e+02	-8.2658	-42.101270	0.001419	14.188498	2.403597	-0.000284
1421	1.4129e+02	-8.2856	-42.339461	0.001196	11.958877	2.025889	-0.000239
1422	1.4139e+02	-8.3063	-42.654358	0.001581	15.810040	2.678293	-0.000316
1423	1.4149e+02	-8.3257	-42.900623	0.001236	12.364262	2.094563	-0.000248
1424	1.4159e+02	-8.3466	-43.195334	0.001480	14.796576	2.506608	-0.000296
1425	1.4169e+02	-8.3658	-43.429488	0.001176	11.756184	1.991551	-0.000235
1426	1.4179e+02	-8.3859	-43.748421	0.001601	16.012733	2.712630	-0.000321
1427	1.4189e+02	-8.4054	-43.994687	0.001236	12.364262	2.094563	-0.000248
1428	1.4199e+02	-8.4267	-44.309583	0.001581	15.810040	2.678293	-0.000316
1429	1.4209e+02	-8.4453	-44.584109	0.001378	13.783112	2.334922	-0.000276
1430	1.4219e+02	-8.4654	-44.858634	0.001378	13.783112	2.334922	-0.000276
1431	1.4228e+02	-8.4858	-45.117010	0.001297	12.972341	2.197574	-0.000260
1432	1.4238e+02	-8.5059	-45.407684	0.001459	14.593883	2.472271	-0.000292
1433	1.4248e+02	-8.5251	-45.706432	0.001500	14.999269	2.540945	-0.000300
1434	1.4258e+02	-8.5464	-46.005180	0.001500	14.999269	2.540945	-0.000300
1435	1.4268e+02	-8.5649	-46.275668	0.001358	13.580419	2.300585	-0.000272
1436	1.4278e+02	-8.5846	-46.566342	0.001459	14.593883	2.472271	-0.000292
1437	1.4288e+02	-8.6044	-46.897387	0.001662	16.620811	2.815642	-0.000333
1438	1.4298e+02	-8.6245	-47.175950	0.001399	13.985805	2.369259	-0.000280
1439	1.4308e+02	-8.6440	-47.494883	0.001601	16.012733	2.712630	-0.000321
1440	1.4318e+02	-8.6646	-47.801706	0.001540	15.404655	2.609619	-0.000308
1441	1.4328e+02	-8.6845	-48.084305	0.001419	14.188498	2.403597	-0.000284
1442	1.4338e+02	-8.7041	-48.411313	0.001642	16.418119	2.781305	-0.000329
1443	1.4348e+02	-8.7251	-48.706024	0.001480	14.796576	2.506608	-0.000296
1444	1.4358e+02	-8.7446	-48.988624	0.001419	14.188498	2.403597	-0.000284
1445	1.4368e+02	-8.7651	-49.368114	0.001905	19.053125	3.227687	-0.000381
1446	1.4378e+02	-8.7846	-49.638602	0.001358	13.580419	2.300585	-0.000272
1447	1.4388e+02	-8.8046	-49.949462	0.001561	15.607347	2.643956	-0.000312
1448	1.4398e+02	-8.8239	-50.280507	0.001662	16.620811	2.815642	-0.000333
1449	1.4408e+02	-8.8440	-50.623664	0.001723	17.228890	2.918653	-0.000345
1450	1.4418e+02	-8.8643	-50.942597	0.001601	16.012733	2.712630	-0.000321
1451	1.4428e+02	-8.8837	-51.269605	0.001642	16.418119	2.781305	-0.000329
1452	1.4437e+02	-8.9037	-51.552205	0.001419	14.188498	2.403597	-0.000284
1453	1.4447e+02	-8.9229	-51.891324	0.001703	17.026197	2.884316	-0.000341
1454	1.4457e+02	-8.9433	-52.282926	0.001966	19.661204	3.330698	-0.000394
1455	1.4467e+02	-8.9632	-52.561489	0.001399	13.985805	2.369259	-0.000280
1456	1.4477e+02	-8.9828	-52.940980	0.001905	19.053125	3.227687	-0.000381
1457	1.4487e+02	-9.0028	-53.259913	0.001601	16.012733	2.712630	-0.000321
1458	1.4497e+02	-9.0234	-53.603070	0.001723	17.228890	2.918653	-0.000345
1459	1.4507e+02	-9.0424	-53.926041	0.001622	16.215426	2.746967	-0.000325
1460	1.4517e+02	-9.0628	-54.293420	0.001845	18.445047	3.124676	-0.000369
1461	1.4527e+02	-9.0831	-54.604279	0.001561	15.607347	2.643956	-0.000312
1462	1.4537e+02	-9.1022	-54.991844	0.001946	19.458511	3.296361	-0.000390
1463	1.4547e+02	-9.1238	-55.314815	0.001622	16.215426	2.746967	-0.000325
1464	1.4557e+02	-9.1426	-55.682195	0.001845	18.445047	3.124676	-0.000369
1465	1.4567e+02	-9.1626	-56.085908	0.002027	20.269282	3.433709	-0.000406
1466	1.4577e+02	-9.1818	-56.388693	0.001520	15.201962	2.575282	-0.000304
1467	1.4587e+02	-9.2036	-56.768184	0.001905	19.053125	3.227687	-0.000381
1468	1.4597e+02	-9.2212	-57.095192	0.001642	16.418119	2.781305	-0.000329
1469	1.4607e+02	-9.2426	-57.454497	0.001804	18.039661	3.056001	-0.000361
1470	1.4617e+02	-9.2622	-57.858211	0.002027	20.269282	3.433709	-0.000406
1471	1.4626e+02	-9.2832	-58.173107	0.001581	15.810040	2.678293	-0.000316
1472	1.4636e+02	-9.3025	-58.584895	0.002067	20.674668	3.502384	-0.000414
1473	1.4646e+02	-9.3208	-58.944200	0.001804	18.039661	3.056001	-0.000361
1474	1.4656e+02	-9.3417	-59.327728	0.001926	19.255818	3.262024	-0.000385
1475	1.4666e+02	-9.3614	-59.715293	0.001946	19.458511	3.296361	-0.000390
1476	1.4676e+02	-9.3822	-60.074598	0.001804	18.039661	3.056001	-0.000361
1477	1.4686e+02	-9.4005	-60.437941	0.001824	18.242354	3.090338	-0.000365
1478	1.4696e+02	-9.4209	-60.833580	0.001986	19.863897	3.365035	-0.000398
1479	1.4706e+02	-9.4421	-61.229219	0.001986	19.863897	3.365035	-0.000398
1480	1.4716e+02	-9.4607	-61.620821	0.001966	19.661204	3.330698	-0.000394
1481	1.4726e+02	-9.4810	-62.028572	0.002047	20.471975	3.468046	-0.000410
1482	1.4736e+02	-9.5016	-62.383840	0.001784	17.836968	3.021664	-0.000357
1483	1.4746e+02	-9.5210	-62.783516	0.002007	20.066589	3.399372	-0.000402
1484	1.4756e+02	-9.5412	-63.171081	0.001946	19.458511	3.296361	-0.000390
1485	1.4766e+02	-9.5605	-63.566721	0.001986	19.863897	3.365035	-0.000398
1486	1.4776e+02	-9.5816	-64.010806	0.002230	22.296211	3.777080	-0.000446
1487	1.4786e+02	-9.6005	-64.349925	0.001703	17.026197	2.884316	-0.000341
1488	1.4796e+02	-9.6210	-64.802084	0.002270	22.701596	3.845754	-0.000454
1489	1.4806e+02	-9.6397	-65.230021	0.002149	21.485439	3.639732	-0.000430
1490	1.4816e+02	-9.6602	-65.657957	0.002149	21.485439	3.639732	-0.000430
1491	1.4825e+02	-9.6809	-66.025336	0.001845	18.445047	3.124676	-0.000369
1492	1.4835e+02	-9.6992	-66.465384	0.002209	22.093518	3.742743	-0.000442
1493	1.4845e+02	-9.7197	-66.856986	0.001966	19.661204	3.330698	-0.000394
1494	1.4855e+02	-9.7407	-67.280886	0.002128	21.282746	3.605395	-0.000426
1495	1.4865e+02	-9.7597	-67.676525	0.001986	19.863897	3.365035	-0.000398
1496	1.4875e+02	-9.7803	-68.132721	0.002290	22.904289	3.880092	-0.000458
1497	1.4885e+02	-9.7998	-68.629289	0.002493	24.931217	4.223463	-0.000499
1498	1.4895e+02	-9.8197	-68.964371	0.001682	16.823504	2.849979	-0.000337
1499	1.4905e+02	-9.8383	-69.444790	0.002412	24.120446	4.086114	-0.000483
1500	1.4915e+02	-9.8589	-69.888875	0.002230	22.296211	3.777080	-0.000446
1501	1.4925e+02	-9.8798	-70.320849	0.002169	21.688132	3.674069	-0.000434
1502	1.4935e+02	-9.8990	-70.768971	0.002250	22.498903	3.811417	-0.000450
1503	1.4945e+02	-9.9193	-71.245353	0.002392	23.917753	4.051777	-0.000479
1504	1.4955e+02	-9.9399	-71.673289	0.002149	21.485439	3.639732	-0.000430
1505	1.4965e+02	-9.9593	-72.125449	0.002270	22.701596	3.845754	-0.000454
1506	1.4975e+02	-9.9787	-72.597793	0.002372	23.715060	4.017440	-0.000475
1507	1.4985e+02	-9.9990	-73.005544	0.002047	20.471975	3.468046	-0.000410
1508	1.4995e+02	-9.9785	-73.316404	-0.001561	-15.607347	-2.643956	-0.000312
1509	1.5005e+02	-9.9587	-73.594966	-0.001399	-13.985805	-2.369259	-0.000280
1510	1.5015e+02	-9.9400	-73.825083	-0.001155	-11.553491	-1.957214	-0.000231
1511	1.5025e+02	-9.9189	-74.067311	-0.001216	-12.161569	-2.060226	-0.000243
1512	1.5034e+02	-9.8997	-74.277242	-0.001054	-10.540027	-1.785529	-0.000211
1513	1.5044e+02	-9.8793	-74.487173	-0.001054	-10.540027	-1.785529	-0.000211
1514	1.5054e+02	-9.8596	-74.693067	-0.001034	-10.337334	-1.751192	-0.000207
1515	1.5064e+02	-9.8393	-74.838404	-0.000730	-7.296942	-1.236135	-0.000146
1516	1.5074e+02	-9.8206	-75.028149	-0.000953	-9.526563	-1.613843	-0.000191
1517	1.5084e+02	-9.7997	-75.177523	-0.000750	-7.499634	-1.270472	-0.000150
1518	1.5094e+02	-9.7797	-75.334971	-0.000791	-7.905020	-1.339147	-0.000158
1519	1.5104e+02	-9.7606	-75.464160	-0.000649	-6.486170	-1.098787	-0.000130
1520	1.5114e+02	-9.7407	-75.605460	-0.000709	-7.094249	-1.201798	-0.000142
1521	1.5124e+02	-9.7202	-75.726574	-0.000608	-6.080785	-1.030113	-0.000122
1522	1.5134e+02	-9.7007	-75.859799	-0.000669	-6.688863	-1.133124	-0.000134
1523	1.5144e+02	-9.6804	-75.972839	-0.000568	-5.675399	-0.961439	-0.000114
1524	1.5154e+02	-9.6606	-76.085879	-0.000568	-5.675399	-0.961439	-0.000114
1525	1.5164e+02	-9.6394	-76.194881	-0.000547	-5.472706	-0.927102	-0.000110
1526	1.5174e+02	-9.6204	-76.283698	-0.000446	-4.459242	-0.755416	-0.000089
1527	1.5184e+02	-9.6013	-76.376552	-0.000466	-4.661935	-0.789753	-0.000093
1528	1.5194e+02	-9.5816	-76.408850	-0.000162	-1.621543	-0.274697	-0.000032
1529	1.5204e+02	-9.5600	-76.505741	-0.000486	-4.864628	-0.824090	-0.000097
1530	1.5214e+02	-9.5407	-76.590521	-0.000426	-4.256549	-0.721079	-0.000085
1531	1.5224e+02	-9.5215	-76.679338	-0.000446	-4.459242	-0.755416	-0.000089
1532	1.5233e+02	-9.5014	-76.752006	-0.000365	-3.648471	-0.618068	-0.000073
1533	1.5243e+02	-9.4807	-76.772192	-0.000101	-1.013464	-0.171685	-0.000020
1534	1.5253e+02	-9.4614	-76.824675	-0.000264	-2.635007	-0.446382	-0.000053
1535	1.5263e+02	-9.4413	-76.869083	-0.000223	-2.229621	-0.377708	-0.000045
1536	1.5273e+02	-9.4206	-76.953863	-0.000426	-4.256549	-0.721079	-0.000085
1537	1.5283e+02	-9.4016	-76.953863	0.000000	0.000000	0.000000	0.000000
1538	1.5293e+02	-9.3826	-77.058828	-0.000527	-5.270013	-0.892764	-0.000105
1539	1.5303e+02	-9.3616	-77.111311	-0.000264	-2.635007	-0.446382	-0.000053
1540	1.5313e+02	-9.3413	-77.074977	0.000182	1.824235	0.309034	0.000037
1541	1.5323e+02	-9.3213	-77.099200	-0.000122	-1.216157	-0.206023	-0.000024
1542	1.5333e+02	-9.3027	-77.163794	-0.000324	-3.243085	-0.549393	-0.000065
1543	1.5343e+02	-9.2825	-77.151683	0.000061	0.608078	0.103011	0.000012
1544	1.5353e+02	-9.2622	-77.188017	-0.000182	-1.824235	-0.309034	-0.000037
1545	1.5363e+02	-9.2426	-77.200128	-0.000061	-0.608078	-0.103011	-0.000012
1546	1.5373e+02	-9.2223	-77.244537	-0.000223	-2.229621	-0.377708	-0.000045
1547	1.5383e+02	-9.2026	-77.252611	-0.000041	-0.405386	-0.068674	-0.000008
1548	1.5393e+02	-9.1817	-77.228388	0.000122	1.216157	0.206023	0.000024
1549	1.5403e+02	-9.1622	-77.236462	-0.000041	-0.405386	-0.068674	-0.000008
1550	1.5413e+02	-9.1426	-77.244537	-0.000041	-0.405386	-0.068674	-0.000008
1551	1.5422e+02	-9.1228	-77.256648	-0.000061	-0.608078	-0.103011	-0.000012
1552	1.5432e+02	-9.1019	-77.240500	0.000081	0.810771	0.137348	0.000016
1553	1.5442e+02	-9.0825	-77.264722	-0.000122	-1.216157	-0.206023	-0.000024
1554	1.5452e+02	-9.0630	-77.252611	0.000061	0.608078	0.103011	0.000012
1555	1.5462e+02	-9.0430	-77.276834	-0.000122	-1.216157	-0.206023	-0.000024
1556	1.5472e+02	-9.0229	-77.244537	0.000162	1.621543	0.274697	0.000032
1557	1.5482e+02	-9.0028	-77.200128	0.000223	2.229621	0.377708	0.000045
1558	1.5492e+02	-8.9825	-77.196091	0.000020	0.202693	0.034337	0.000004
1559	1.5502e+02	-8.9629	-77.200128	-0.000020	-0.202693	-0.034337	-0.000004
1560	1.5512e+02	-8.9428	-77.200128	0.000000	0.000000	0.000000	0.000000
1561	1.5522e+02	-8.9239	-77.188017	0.000061	0.608078	0.103011	0.000012
1562	1.5532e+02	-8.9041	-77.175905	0.000061	0.608078	0.103011	0.000012
1563	1.5542e+02	-8.8838	-77.155720	0.000101	1.013464	0.171685	0.000020
1564	1.5552e+02	-8.8635	-77.087088	0.000345	3.445778	0.583731	0.000069
1565	1.5562e+02	-8.8434	-77.127460	-0.000203	-2.026928	-0.343371	-0.000041
1566	1.5572e+02	-8.8248	-77.079014	0.000243	2.432314	0.412045	0.000049
1567	1.5582e+02	-8.8049	-77.066903	0.000061	0.608078	0.103011	0.000012
1568	1.5592e+02	-8.7839	-77.054791	0.000061	0.608078	0.103011	0.000012
1569	1.5602e+02	-8.7641	-76.974049	0.000405	4.053856	0.686742	0.000081
1570	1.5612e+02	-8.7442	-76.957900	0.000081	0.810771	0.137348	0.000016
1571	1.5622e+02	-8.7238	-76.929640	0.000142	1.418850	0.240360	0.000028
1572	1.5631e+02	-8.7042	-76.909454	0.000101	1.013464	0.171685	0.000020
1573	1.5641e+02	-8.6856	-76.897343	0.000061	0.608078	0.103011	0.000012
1574	1.5651e+02	-8.6648	-76.812563	0.000426	4.256549	0.721079	0.000085
1575	1.5661e+02	-8.6441	-76.792377	0.000101	1.013464	0.171685	0.000020
1576	1.5671e+02	-8.6245	-76.772192	0.000101	1.013464	0.171685	0.000020
1577	1.5681e+02	-8.6040	-76.727783	0.000223	2.229621	0.377708	0.000045
1578	1.5691e+02	-8.5849	-76.695486	0.000162	1.621543	0.274697	0.000032
1579	1.5701e+02	-8.5641	-76.655115	0.000203	2.026928	0.343371	0.000041
1580	1.5711e+02	-8.5452	-76.614743	0.000203	2.026928	0.343371	0.000041
1581	1.5721e+02	-8.5257	-76.574372	0.000203	2.026928	0.343371	0.000041
1582	1.5731e+02	-8.5053	-76.529964	0.000223	2.229621	0.377708	0.000045
1583	1.5741e+02	-8.4853	-76.469407	0.000304	3.040392	0.515056	0.000061
1584	1.5751e+02	-8.4653	-76.449221	0.000101	1.013464	0.171685	0.000020
1585	1.5761e+02	-8.4451	-76.429035	0.000101	1.013464	0.171685	0.000020
1586	1.5771e+02	-8.4256	-76.344255	0.000426	4.256549	0.721079	0.000085
1587	1.5781e+02	-8.4062	-76.291773	0.000264	2.635007	0.446382	0.000053
1588	1.5791e+02	-8.3873	-76.287735	0.000020	0.202693	0.034337	0.000004
1589	1.5801e+02	-8.3655	-76.243327	0.000223	2.229621	0.377708	0.000045
1590	1.5811e+02	-8.3463	-76.178733	0.000324	3.243085	0.549393	0.000065
1591	1.5821e+02	-8.3247	-76.093953	0.000426	4.256549	0.721079	0.000085
1592	1.5830e+02	-8.3061	-76.057619	0.000182	1.824235	0.309034	0.000037
1593	1.5840e+02	-8.2865	-76.001099	0.000284	2.837700	0.480719	0.000057
1594	1.5850e+02	-8.2661	-75.952653	0.000243	2.432314	0.412045	0.000049
1595	1.5860e+02	-8.2465	-75.920356	0.000162	1.621543	0.274697	0.000032
1596	1.5870e+02	-8.2270	-75.892096	0.000142	1.418850	0.240360	0.000028
1597	1.5880e+02	-8.2060	-75.807316	0.000426	4.256549	0.721079	0.000085
1598	1.5890e+02	-8.1864	-75.718499	0.000446	4.459242	0.755416	0.000089
1599	1.5900e+02	-8.1668	-75.661979	0.000284	2.837700	0.480719	0.000057
1600	1.5910e+02	-8.1466	-75.625645	0.000182	1.824235	0.309034	0.000037
1601	1.5920e+02	-8.1262	-75.569125	0.000284	2.837700	0.480719	0.000057
1602	1.5930e+02	-8.1067	-75.508568	0.000304	3.040392	0.515056	0.000061
1603	1.5940e+02	-8.0869	-75.423788	0.000426	4.256549	0.721079	0.000085
1604	1.5950e+02	-8.0666	-75.371306	0.000264	2.635007	0.446382	0.000053
1605	1.5960e+02	-8.0477	-75.326897	0.000223	2.229621	0.377708	0.000045
1606	1.5970e+02	-8.0268	-75.221932	0.000527	5.270013	0.892764	0.000105
1607	1.5980e+02	-8.0074	-75.133115	0.000446	4.459242	0.755416	0.000089
1608	1.5990e+02	-7.9865	-75.092743	0.000203	2.026928	0.343371	0.000041
1609	1.6000e+02	-7.9677	-75.048335	0.000223	2.229621	0.377708	0.000045
1610	1.6010e+02	-7.9477	-74.995852	0.000264	2.635007	0.446382	0.000053
1611	1.6019e+02	-7.9279	-74.874738	0.000608	6.080785	1.030113	0.000122
1612	1.6029e+02	-7.9071	-74.870701	0.000020	0.202693	0.034337	0.000004
1613	1.6039e+02	-7.8876	-74.822255	0.000243	2.432314	0.412045	0.000049
1614	1.6049e+02	-7.8693	-74.761698	0.000304	3.040392	0.515056	0.000061
1615	1.6059e+02	-7.8473	-74.652695	0.000547	5.472706	0.927102	0.000110
1616	1.6069e+02	-7.8287	-74.575990	0.000385	3.851164	0.652405	0.000077
1617	1.6079e+02	-7.8088	-74.495247	0.000405	4.053856	0.686742	0.000081
1618	1.6089e+02	-7.7885	-74.430653	0.000324	3.243085	0.549393	0.000065
1619	1.6099e+02	-7.7680	-74.390282	0.000203	2.026928	0.343371	0.000041
1620	1.6109e+02	-7.7489	-74.345873	0.000223	2.229621	0.377708	0.000045
1621	1.6119e+02	-7.7284	-74.228796	0.000588	5.878092	0.995776	0.000118
1622	1.6129e+02	-7.7089	-74.200536	0.000142	1.418850	0.240360	0.000028
1623	1.6139e+02	-7.6878	-74.111719	0.000446	4.459242	0.755416	0.000089
1624	1.6149e+02	-7.6685	-74.002717	0.000547	5.472706	0.927102	0.000110
1625	1.6159e+02	-7.6492	-73.998680	0.000020	0.202693	0.034337	0.000004
1626	1.6169e+02	-7.6289	-73.869491	0.000649	6.486170	1.098787	0.000130
1627	1.6179e+02	-7.6093	-73.825083	0.000223	2.229621	0.377708	0.000045
1628	1.6189e+02	-7.5885	-73.764526	0.000304	3.040392	0.515056	0.000061
1629	1.6199e+02	-7.5700	-73.679746	0.000426	4.256549	0.721079	0.000085
1630	1.6209e+02	-7.5485	-73.611114	0.000345	3.445778	0.583731	0.000069
1631	1.6219e+02	-7.5299	-73.534409	0.000385	3.851164	0.652405	0.000077
1632	1.6228e+02	-7.5092	-73.465778	0.000345	3.445778	0.583731	0.000069
1633	1.6238e+02	-7.4897	-73.389072	0.000385	3.851164	0.652405	0.000077
1634	1.6248e+02	-7.4702	-73.320441	0.000345	3.445778	0.583731	0.000069
1635	1.6258e+02	-7.4492	-73.231624	0.000446	4.459242	0.755416	0.000089
1636	1.6268e+02	-7.4309	-73.138770	0.000466	4.661935	0.789753	0.000093
1637	1.6278e+02	-7.4101	-73.041878	0.000486	4.864628	0.824090	0.000097
1638	1.6288e+02	-7.3895	-73.005544	0.000182	1.824235	0.309034	0.000037
1639	1.6298e+02	-7.3702	-72.916727	0.000446	4.459242	0.755416	0.000089
1640	1.6308e+02	-7.3502	-72.872319	0.000223	2.229621	0.377708	0.000045
1641	1.6318e+02	-7.3306	-72.751205	0.000608	6.080785	1.030113	0.000122
1642	1.6328e+02	-7.3111	-72.698722	0.000264	2.635007	0.446382	0.000053
1643	1.6338e+02	-7.2906	-72.638165	0.000304	3.040392	0.515056	0.000061
1644	1.6348e+02	-7.2707	-72.529162	0.000547	5.472706	0.927102	0.000110
1645	1.6358e+02	-7.2499	-72.456494	0.000365	3.648471	0.618068	0.000073
1646	1.6368e+02	-7.2306	-72.331342	0.000628	6.283478	1.064450	0.000126
1647	1.6378e+02	-7.2109	-72.295008	0.000182	1.824235	0.309034	0.000037
1648	1.6388e+02	-7.1909	-72.230414	0.000324	3.243085	0.549393	0.000065
1649	1.6398e+02	-7.1710	-72.141597	0.000446	4.459242	0.755416	0.000089
1650	1.6408e+02	-7.1510	-72.048743	0.000466	4.661935	0.789753	0.000093
1651	1.6418e+02	-7.1320	-71.951852	0.000486	4.864628	0.824090	0.000097
1652	1.6427e+02	-7.1114	-71.883220	0.000345	3.445778	0.583731	0.000069
1653	1.6437e+02	-7.0911	-71.830738	0.000264	2.635007	0.446382	0.000053
1654	1.6447e+02	-7.0723	-71.709624	0.000608	6.080785	1.030113	0.000122
1655	1.6457e+02	-7.0526	-71.645029	0.000324	3.243085	0.549393	0.000065
1656	1.6467e+02	-7.0313	-71.511804	0.000669	6.688863	1.133124	0.000134
1657	1.6477e+02	-7.0107	-71.443173	0.000345	3.445778	0.583731	0.000069
1658	1.6487e+02	-6.9911	-71.358393	0.000426	4.256549	0.721079	0.000085
1659	1.6497e+02	-6.9714	-71.253427	0.000527	5.270013	0.892764	0.000105
1660	1.6507e+02	-6.9527	-71.172684	0.000405	4.053856	0.686742	0.000081
1661	1.6517e+02	-6.9321	-71.095979	0.000385	3.851164	0.652405	0.000077
1662	1.6527e+02	-6.9128	-70.978902	0.000588	5.878092	0.995776	0.000118
1663	1.6537e+02	-6.8918	-70.942568	0.000182	1.824235	0.309034	0.000037
1664	1.6547e+02	-6.8721	-70.853751	0.000446	4.459242	0.755416	0.000089
1665	1.6557e+02	-6.8518	-70.720525	0.000669	6.688863	1.133124	0.000134
1666	1.6567e+02	-6.8314	-70.668043	0.000264	2.635007	0.446382	0.000053
1667	1.6577e+02	-6.8114	-70.591337	0.000385	3.851164	0.652405	0.000077
1668	1.6587e+02	-6.7931	-70.458111	0.000669	6.688863	1.133124	0.000134
1669	1.6597e+02	-6.7726	-70.369294	0.000446	4.459242	0.755416	0.000089
1670	1.6607e+02	-6.7524	-70.280477	0.000446	4.459242	0.755416	0.000089
1671	1.6616e+02	-6.7334	-70.187623	0.000466	4.661935	0.789753	0.000093
1672	1.6626e+02	-6.7136	-70.106881	0.000405	4.053856	0.686742	0.000081
1673	1.6636e+02	-6.6936	-70.050361	0.000284	2.837700	0.480719	0.000057
1674	1.6646e+02	-6.6743	-69.933284	0.000588	5.878092	0.995776	0.000118
1675	1.6656e+02	-6.6521	-69.840430	0.000466	4.661935	0.789753	0.000093
1676	1.6666e+02	-6.6328	-69.739501	0.000507	5.067321	0.858427	0.000101
1677	1.6676e+02	-6.6122	-69.695093	0.000223	2.229621	0.377708	0.000045
1678	1.6686e+02	-6.5929	-69.569942	0.000628	6.283478	1.064450	0.000126
1679	1.6696e+02	-6.5732	-69.501310	0.000345	3.445778	0.583731	0.000069
1680	1.6706e+02	-6.5527	-69.355973	0.000730	7.296942	1.236135	0.000146
1681	1.6716e+02	-6.5332	-69.295416	0.000304	3.040392	0.515056	0.000061
1682	1.6726e+02	-6.5134	-69.206599	0.000446	4.459242	0.755416	0.000089
1683	1.6736e+02	-6.4936	-69.085485	0.000608	6.080785	1.030113	0.000122
1684	1.6746e+02	-6.4734	-69.028965	0.000284	2.837700	0.480719	0.000057
1685	1.6756e+02	-6.4539	-68.887666	0.000709	7.094249	1.201798	0.000142
1686	1.6766e+02	-6.4333	-68.810960	0.000385	3.851164	0.652405	0.000077
1687	1.6776e+02	-6.4137	-68.730217	0.000405	4.053856	0.686742	0.000081
1688	1.6786e+02	-6.3949	-68.645438	0.000426	4.256549	0.721079	0.000085
1689	1.6796e+02	-6.3736	-68.516249	0.000649	6.486170	1.098787	0.000130
1690	1.6806e+02	-6.3540	-68.443581	0.000365	3.648471	0.618068	0.000073
1691	1.6816e+02	-6.3340	-68.322467	0.000608	6.080785	1.030113	0.000122
1692	1.6825e+02	-6.3141	-68.282095	0.000203	2.026928	0.343371	0.000041
1693	1.6835e+02	-6.2952	-68.169056	0.000568	5.675399	0.961439	0.000114
1694	1.6845e+02	-6.2740	-68.108498	0.000304	3.040392	0.515056	0.000061
1695	1.6855e+02	-6.2550	-68.011607	0.000486	4.864628	0.824090	0.000097
1696	1.6865e+02	-6.2347	-67.918753	0.000466	4.661935	0.789753	0.000093
1697	1.6875e+02	-6.2148	-67.838010	0.000405	4.053856	0.686742	0.000081
1698	1.6885e+02	-6.1950	-67.773416	0.000324	3.243085	0.549393	0.000065
1699	1.6895e+02	-6.1755	-67.583671	0.000953	9.526563	1.613843	0.000191
1700	1.6905e+02	-6.1555	-67.523114	0.000304	3.040392	0.515056	0.000061
1701	1.6915e+02	-6.1356	-67.418148	0.000527	5.270013	0.892764	0.000105
1702	1.6925e+02	-6.1154	-67.365665	0.000264	2.635007	0.446382	0.000053
1703	1.6935e+02	-6.0957	-67.248589	0.000588	5.878092	0.995776	0.000118
1704	1.6945e+02	-6.0747	-67.163809	0.000426	4.256549	0.721079	0.000085
1705	1.6955e+02	-6.0553	-67.050769	0.000568	5.675399	0.961439	0.000114
1706	1.6965e+02	-6.0352	-66.949841	0.000507	5.067321	0.858427	0.000101
1707	1.6975e+02	-6.0155	-66.828726	0.000608	6.080785	1.030113	0.000122
1708	1.6985e+02	-5.9958	-66.776244	0.000264	2.635007	0.446382	0.000053
1709	1.6995e+02	-5.9761	-66.626870	0.000750	7.499634	1.270472	0.000150
1710	1.7005e+02	-5.9555	-66.618795	0.000041	0.405386	0.068674	0.000008
1711	1.7015e+02	-5.9361	-66.453273	0.000831	8.310406	1.407821	0.000166
1712	1.7024e+02	-5.9161	-66.344270	0.000547	5.472706	0.927102	0.000110
1713	1.7034e+02	-5.8951	-66.275639	0.000345	3.445778	0.583731	0.000069
1714	1.7044e+02	-5.8765	-66.154525	0.000608	6.080785	1.030113	0.000122
1715	1.7054e+02	-5.8569	-66.041485	0.000568	5.675399	0.961439	0.000114
1716	1.7064e+02	-5.8369	-65.956705	0.000426	4.256549	0.721079	0.000085
1717	1.7074e+02	-5.8157	-65.863851	0.000466	4.661935	0.789753	0.000093
1718	1.7084e+02	-5.7970	-65.758885	0.000527	5.270013	0.892764	0.000105
1719	1.7094e+02	-5.7764	-65.653920	0.000527	5.270013	0.892764	0.000105
1720	1.7104e+02	-5.7570	-65.532806	0.000608	6.080785	1.030113	0.000122
1721	1.7114e+02	-5.7364	-65.472249	0.000304	3.040392	0.515056	0.000061
1722	1.7124e+02	-5.7175	-65.367283	0.000527	5.270013	0.892764	0.000105
1723	1.7134e+02	-5.6969	-65.250206	0.000588	5.878092	0.995776	0.000118
1724	1.7144e+02	-5.6769	-65.197724	0.000264	2.635007	0.446382	0.000053
1725	1.7154e+02	-5.6570	-65.080647	0.000588	5.878092	0.995776	0.000118
1726	1.7164e+02	-5.6367	-64.955495	0.000628	6.283478	1.064450	0.000126
1727	1.7174e+02	-5.6174	-64.846493	0.000547	5.472706	0.927102	0.000110
1728	1.7184e+02	-5.5962	-64.753639	0.000466	4.661935	0.789753	0.000093
1729	1.7194e+02	-5.5772	-64.689044	0.000324	3.243085	0.549393	0.000065
1730	1.7204e+02	-5.5575	-64.576005	0.000568	5.675399	0.961439	0.000114
1731	1.7213e+02	-5.5377	-64.479113	0.000486	4.864628	0.824090	0.000097
1732	1.7223e+02	-5.5168	-64.329739	0.000750	7.499634	1.270472	0.000150
1733	1.7233e+02	-5.4968	-64.293405	0.000182	1.824235	0.309034	0.000037
1734	1.7243e+02	-5.4775	-64.196514	0.000486	4.864628	0.824090	0.000097
1735	1.7253e+02	-5.4573	-64.059251	0.000689	6.891556	1.167461	0.000138
1736	1.7263e+02	-5.4379	-63.998694	0.000304	3.040392	0.515056	0.000061
1737	1.7273e+02	-5.4185	-63.869506	0.000649	6.486170	1.098787	0.000130
1738	1.7283e+02	-5.3973	-63.804912	0.000324	3.243085	0.549393	0.000065
1739	1.7293e+02	-5.3784	-63.687835	0.000588	5.878092	0.995776	0.000118
1740	1.7303e+02	-5.3586	-63.554609	0.000669	6.688863	1.133124	0.000134
1741	1.7313e+02	-5.3384	-63.485978	0.000345	3.445778	0.583731	0.000069
1742	1.7323e+02	-5.3186	-63.360827	0.000628	6.283478	1.064450	0.000126
1743	1.7333e+02	-5.2979	-63.296233	0.000324	3.243085	0.549393	0.000065
1744	1.7343e+02	-5.2785	-63.179156	0.000588	5.878092	0.995776	0.000118
1745	1.7353e+02	-5.2579	-63.086302	0.000466	4.661935	0.789753	0.000093
1746	1.7363e+02	-5.2397	-63.001522	0.000426	4.256549	0.721079	0.000085
1747	1.7373e+02	-5.2177	-62.864259	0.000689	6.891556	1.167461	0.000138
1748	1.7383e+02	-5.1993	-62.783516	0.000405	4.053856	0.686742	0.000081
1749	1.7393e+02	-5.1784	-62.698737	0.000426	4.256549	0.721079	0.000085
1750	1.7403e+02	-5.1586	-62.581660	0.000588	5.878092	0.995776	0.000118
1751	1.7413e+02	-5.1388	-62.428248	0.000770	7.702327	1.304810	0.000154
1752	1.7422e+02	-5.1187	-62.371729	0.000284	2.837700	0.480719	0.000057
1753	1.7432e+02	-5.0993	-62.303097	0.000345	3.445778	0.583731	0.000069
1754	1.7442e+02	-5.0795	-62.165835	0.000689	6.891556	1.167461	0.000138
1755	1.7452e+02	-5.0588	-62.068943	0.000486	4.864628	0.824090	0.000097
1756	1.7462e+02	-5.0389	-61.959941	0.000547	5.472706	0.927102	0.000110
1757	1.7472e+02	-5.0192	-61.871124	0.000446	4.459242	0.755416	0.000089
1758	1.7482e+02	-4.9995	-61.754047	0.000588	5.878092	0.995776	0.000118
1759	1.7492e+02	-4.9792	-61.661193	0.000466	4.661935	0.789753	0.000093
1760	1.7502e+02	-4.9596	-61.564301	0.000486	4.864628	0.824090	0.000097
1761	1.7512e+02	-4.9409	-61.483559	0.000405	4.053856	0.686742	0.000081
1762	1.7522e+02	-4.9200	-61.305925	0.000892	8.918484	1.510832	0.000179
1763	1.7532e+02	-4.8999	-61.237293	0.000345	3.445778	0.583731	0.000069
1764	1.7542e+02	-4.8799	-61.132328	0.000527	5.270013	0.892764	0.000105
1765	1.7552e+02	-4.8603	-61.011214	0.000608	6.080785	1.030113	0.000122
1766	1.7562e+02	-4.8407	-60.902211	0.000547	5.472706	0.927102	0.000110
1767	1.7572e+02	-4.8206	-60.813394	0.000446	4.459242	0.755416	0.000089
1768	1.7582e+02	-4.7993	-60.728614	0.000426	4.256549	0.721079	0.000085
1769	1.7592e+02	-4.7798	-60.595389	0.000669	6.688863	1.133124	0.000134
1770	1.7602e+02	-4.7606	-60.514646	0.000405	4.053856	0.686742	0.000081
1771	1.7612e+02	-4.7407	-60.357198	0.000791	7.905020	1.339147	0.000158
1772	1.7621e+02	-4.7207	-60.308752	0.000243	2.432314	0.412045	0.000049
1773	1.7631e+02	-4.7006	-60.155341	0.000770	7.702327	1.304810	0.000154
1774	1.7641e+02	-4.6797	-60.050376	0.000527	5.270013	0.892764	0.000105
1775	1.7651e+02	-4.6603	-59.933299	0.000588	5.878092	0.995776	0.000118
1776	1.7661e+02	-4.6419	-59.812185	0.000608	6.080785	1.030113	0.000122
1777	1.7671e+02	-4.6209	-59.707219	0.000527	5.270013	0.892764	0.000105
1778	1.7681e+02	-4.6001	-59.606291	0.000507	5.067321	0.858427	0.000101
1779	1.7691e+02	-4.5816	-59.529585	0.000385	3.851164	0.652405	0.000077
1780	1.7701e+02	-4.5613	-59.420582	0.000547	5.472706	0.927102	0.000110
1781	1.7711e+02	-4.5407	-59.299468	0.000608	6.080785	1.030113	0.000122
1782	1.7721e+02	-4.5227	-59.170280	0.000649	6.486170	1.098787	0.000130
1783	1.7731e+02	-4.5014	-59.065314	0.000527	5.270013	0.892764	0.000105
1784	1.7741e+02	-4.4815	-58.928052	0.000689	6.891556	1.167461	0.000138
1785	1.7751e+02	-4.4617	-58.875569	0.000264	2.635007	0.446382	0.000053
1786	1.7761e+02	-4.4408	-58.738306	0.000689	6.891556	1.167461	0.000138
1787	1.7771e+02	-4.4212	-58.637378	0.000507	5.067321	0.858427	0.000101
1788	1.7781e+02	-4.4023	-58.488004	0.000750	7.499634	1.270472	0.000150
1789	1.7791e+02	-4.3822	-58.374964	0.000568	5.675399	0.961439	0.000114
1790	1.7801e+02	-4.3620	-58.294221	0.000405	4.053856	0.686742	0.000081
1791	1.7810e+02	-4.3421	-58.169070	0.000628	6.283478	1.064450	0.000126
1792	1.7820e+02	-4.3221	-58.084290	0.000426	4.256549	0.721079	0.000085
1793	1.7830e+02	-4.3030	-57.967213	0.000588	5.878092	0.995776	0.000118
1794	1.7840e+02	-4.2830	-57.858211	0.000547	5.472706	0.927102	0.000110
1795	1.7850e+02	-4.2626	-57.729022	0.000649	6.486170	1.098787	0.000130
1796	1.7860e+02	-4.2432	-57.624057	0.000527	5.270013	0.892764	0.000105
1797	1.7870e+02	-4.2225	-57.506980	0.000588	5.878092	0.995776	0.000118
1798	1.7880e+02	-4.2029	-57.397977	0.000547	5.472706	0.927102	0.000110
1799	1.7890e+02	-4.1828	-57.248603	0.000750	7.499634	1.270472	0.000150
1800	1.7900e+02	-4.1622	-57.163823	0.000426	4.256549	0.721079	0.000085
1801	1.7910e+02	-4.1427	-57.075006	0.000446	4.459242	0.755416	0.000089
1802	1.7920e+02	-4.1231	-56.941781	0.000669	6.688863	1.133124	0.000134
1803	1.7930e+02	-4.1035	-56.848927	0.000466	4.661935	0.789753	0.000093
1804	1.7940e+02	-4.0823	-56.739924	0.000547	5.472706	0.927102	0.000110
1805	1.7950e+02	-4.0631	-56.570365	0.000851	8.513099	1.442158	0.000170
1806	1.7960e+02	-4.0436	-56.497696	0.000365	3.648471	0.618068	0.000073
1807	1.7970e+02	-4.0231	-56.420991	0.000385	3.851164	0.652405	0.000077
1808	1.7980e+02	-4.0038	-56.243357	0.000892	8.918484	1.510832	0.000179
1809	1.7990e+02	-3.9827	-56.142428	0.000507	5.067321	0.858427	0.000101
1810	1.8000e+02	-3.9631	-56.025351	0.000588	5.878092	0.995776	0.000118
1811	1.8009e+02	-3.9433	-55.904237	0.000608	6.080785	1.030113	0.000122
1812	1.8019e+02	-3.9235	-55.791197	0.000568	5.675399	0.961439	0.000114
1813	1.8029e+02	-3.9049	-55.670083	0.000608	6.080785	1.030113	0.000122
1814	1.8039e+02	-3.8834	-55.561081	0.000547	5.472706	0.927102	0.000110
1815	1.8049e+02	-3.8646	-55.435929	0.000628	6.283478	1.064450	0.000126
1816	1.8059e+02	-3.8435	-55.318852	0.000588	5.878092	0.995776	0.000118
1817	1.8069e+02	-3.8239	-55.181590	0.000689	6.891556	1.167461	0.000138
1818	1.8079e+02	-3.8040	-55.076624	0.000527	5.270013	0.892764	0.000105
1819	1.8089e+02	-3.7840	-54.951473	0.000628	6.283478	1.064450	0.000126
1820	1.8099e+02	-3.7651	-54.842470	0.000547	5.472706	0.927102	0.000110
1821	1.8109e+02	-3.7439	-54.725393	0.000588	5.878092	0.995776	0.000118
1822	1.8119e+02	-3.7244	-54.592168	0.000669	6.688863	1.133124	0.000134
1823	1.8129e+02	-3.7037	-54.475091	0.000588	5.878092	0.995776	0.000118
1824	1.8139e+02	-3.6850	-54.341866	0.000669	6.688863	1.133124	0.000134
1825	1.8149e+02	-3.6655	-54.240937	0.000507	5.067321	0.858427	0.000101
1826	1.8159e+02	-3.6456	-54.148083	0.000466	4.661935	0.789753	0.000093
1827	1.8169e+02	-3.6259	-53.990635	0.000791	7.905020	1.339147	0.000158
1828	1.8179e+02	-3.6052	-53.881632	0.000547	5.472706	0.927102	0.000110
1829	1.8189e+02	-3.5854	-53.716110	0.000831	8.310406	1.407821	0.000166
1830	1.8199e+02	-3.5646	-53.615181	0.000507	5.067321	0.858427	0.000101
1831	1.8209e+02	-3.5452	-53.494067	0.000608	6.080785	1.030113	0.000122
1832	1.8218e+02	-3.5251	-53.376990	0.000588	5.878092	0.995776	0.000118
1833	1.8228e+02	-3.5050	-53.223579	0.000770	7.702327	1.304810	0.000154
1834	1.8238e+02	-3.4854	-53.098428	0.000628	6.283478	1.064450	0.000126
1835	1.8248e+02	-3.4656	-52.981351	0.000588	5.878092	0.995776	0.000118
1836	1.8258e+02	-3.4456	-52.880422	0.000507	5.067321	0.858427	0.000101
1837	1.8268e+02	-3.4258	-52.722974	0.000791	7.905020	1.339147	0.000158
1838	1.8278e+02	-3.4059	-52.581674	0.000709	7.094249	1.201798	0.000142
1839	1.8288e+02	-3.3860	-52.492857	0.000446	4.459242	0.755416	0.000089
1840	1.8298e+02	-3.3662	-52.371743	0.000608	6.080785	1.030113	0.000122
1841	1.8308e+02	-3.3456	-52.226406	0.000730	7.296942	1.236135	0.000146
1842	1.8318e+02	-3.3260	-52.081070	0.000730	7.296942	1.236135	0.000146
1843	1.8328e+02	-3.3058	-51.992253	0.000446	4.459242	0.755416	0.000089
1844	1.8338e+02	-3.2858	-51.842879	0.000750	7.499634	1.270472	0.000150
1845	1.8348e+02	-3.2666	-51.701579	0.000709	7.094249	1.201798	0.000142
1846	1.8358e+02	-3.2461	-51.624873	0.000385	3.851164	0.652405	0.000077
1847	1.8368e+02	-3.2265	-51.507796	0.000588	5.878092	0.995776	0.000118
1848	1.8378e+02	-3.2064	-51.374571	0.000669	6.688863	1.133124	0.000134
1849	1.8388e+02	-3.1860	-51.237308	0.000689	6.891556	1.167461	0.000138
1850	1.8398e+02	-3.1667	-51.104083	0.000669	6.688863	1.133124	0.000134
1851	1.8407e+02	-3.1470	-50.978932	0.000628	6.283478	1.064450	0.000126
1852	1.8417e+02	-3.1264	-50.857817	0.000608	6.080785	1.030113	0.000122
1853	1.8427e+02	-3.1071	-50.736703	0.000608	6.080785	1.030113	0.000122
1854	1.8437e+02	-3.0866	-50.635775	0.000507	5.067321	0.858427	0.000101
1855	1.8447e+02	-3.0669	-50.454104	0.000912	9.121177	1.545169	0.000183
1856	1.8457e+02	-3.0468	-50.353175	0.000507	5.067321	0.858427	0.000101
1857	1.8467e+02	-3.0264	-50.240136	0.000568	5.675399	0.961439	0.000114
1858	1.8477e+02	-3.0074	-50.058465	0.000912	9.121177	1.545169	0.000183
1859	1.8487e+02	-2.9873	-49.965610	0.000466	4.661935	0.789753	0.000093
1860	1.8497e+02	-2.9684	-49.828348	0.000689	6.891556	1.167461	0.000138
1861	1.8507e+02	-2.9470	-49.678974	0.000750	7.499634	1.270472	0.000150
1862	1.8517e+02	-2.9281	-49.569971	0.000547	5.472706	0.927102	0.000110
1863	1.8527e+02	-2.9073	-49.473080	0.000486	4.864628	0.824090	0.000097
1864	1.8537e+02	-2.8880	-49.323706	0.000750	7.499634	1.270472	0.000150
1865	1.8547e+02	-2.8680	-49.202592	0.000608	6.080785	1.030113	0.000122
1866	1.8557e+02	-2.8481	-49.061292	0.000709	7.094249	1.201798	0.000142
1867	1.8567e+02	-2.8271	-48.944215	0.000588	5.878092	0.995776	0.000118
1868	1.8577e+02	-2.8078	-48.798878	0.000730	7.296942	1.236135	0.000146
1869	1.8587e+02	-2.7872	-48.693913	0.000527	5.270013	0.892764	0.000105
1870	1.8597e+02	-2.7686	-48.552613	0.000709	7.094249	1.201798	0.000142
1871	1.8606e+02	-2.7483	-48.423425	0.000649	6.486170	1.098787	0.000130
1872	1.8616e+02	-2.7280	-48.261939	0.000811	8.107713	1.373484	0.000162
1873	1.8626e+02	-2.7086	-48.173122	0.000446	4.459242	0.755416	0.000089
1874	1.8636e+02	-2.6872	-48.031822	0.000709	7.094249	1.201798	0.000142
1875	1.8646e+02	-2.6691	-47.862263	0.000851	8.513099	1.442158	0.000170
1876	1.8656e+02	-2.6482	-47.757297	0.000527	5.270013	0.892764	0.000105
1877	1.8666e+02	-2.6291	-47.615997	0.000709	7.094249	1.201798	0.000142
1878	1.8676e+02	-2.6076	-47.502958	0.000568	5.675399	0.961439	0.000114
1879	1.8686e+02	-2.5880	-47.357621	0.000730	7.296942	1.236135	0.000146
1880	1.8696e+02	-2.5691	-47.236507	0.000608	6.080785	1.030113	0.000122
1881	1.8706e+02	-2.5488	-47.103281	0.000669	6.688863	1.133124	0.000134
1882	1.8716e+02	-2.5293	-46.949870	0.000770	7.702327	1.304810	0.000154
1883	1.8726e+02	-2.5096	-46.840867	0.000547	5.472706	0.927102	0.000110
1884	1.8736e+02	-2.4899	-46.699568	0.000709	7.094249	1.201798	0.000142
1885	1.8746e+02	-2.4696	-46.574416	0.000628	6.283478	1.064450	0.000126
1886	1.8756e+02	-2.4498	-46.449265	0.000628	6.283478	1.064450	0.000126
1887	1.8766e+02	-2.4300	-46.291817	0.000791	7.905020	1.339147	0.000158
1888	1.8776e+02	-2.4097	-46.162629	0.000649	6.486170	1.098787	0.000130
1889	1.8786e+02	-2.3904	-46.037477	0.000628	6.283478	1.064450	0.000126
1890	1.8796e+02	-2.3703	-45.875992	0.000811	8.107713	1.373484	0.000162
1891	1.8806e+02	-2.3489	-45.722581	0.000770	7.702327	1.304810	0.000154
1892	1.8815e+02	-2.3302	-45.633764	0.000446	4.459242	0.755416	0.000089
1893	1.8825e+02	-2.3102	-45.496501	0.000689	6.891556	1.167461	0.000138
1894	1.8835e+02	-2.2900	-45.375387	0.000608	6.080785	1.030113	0.000122
1895	1.8845e+02	-2.2702	-45.242162	0.000669	6.688863	1.133124	0.000134
1896	1.8855e+02	-2.2509	-45.108936	0.000669	6.688863	1.133124	0.000134
1897	1.8865e+02	-2.2304	-44.947451	0.000811	8.107713	1.373484	0.000162
1898	1.8875e+02	-2.2106	-44.854597	0.000466	4.661935	0.789753	0.000093
1899	1.8885e+02	-2.1909	-44.705223	0.000750	7.499634	1.270472	0.000150
1900	1.8895e+02	-2.1710	-44.576034	0.000649	6.486170	1.098787	0.000130
1901	1.8905e+02	-2.1511	-44.430697	0.000730	7.296942	1.236135	0.000146
1902	1.8915e+02	-2.1309	-44.273249	0.000791	7.905020	1.339147	0.000158
1903	1.8925e+02	-2.1107	-44.156172	0.000588	5.878092	0.995776	0.000118
1904	1.8935e+02	-2.0906	-44.039095	0.000588	5.878092	0.995776	0.000118
1905	1.8945e+02	-2.0709	-43.881647	0.000791	7.905020	1.339147	0.000158
1906	1.8955e+02	-2.0517	-43.744384	0.000689	6.891556	1.167461	0.000138
1907	1.8965e+02	-2.0309	-43.603085	0.000709	7.094249	1.201798	0.000142
1908	1.8975e+02	-2.0119	-43.469859	0.000669	6.688863	1.133124	0.000134
1909	1.8985e+02	-1.9919	-43.344708	0.000628	6.283478	1.064450	0.000126
1910	1.8995e+02	-1.9720	-43.203408	0.000709	7.094249	1.201798	0.000142
1911	1.9004e+02	-1.9523	-43.094405	0.000547	5.472706	0.927102	0.000110
1912	1.9014e+02	-1.9327	-42.977328	0.000588	5.878092	0.995776	0.000118
1913	1.9024e+02	-1.9122	-42.823917	0.000770	7.702327	1.304810	0.000154
1914	1.9034e+02	-1.8924	-42.666469	0.000791	7.905020	1.339147	0.000158
1915	1.9044e+02	-1.8721	-42.549392	0.000588	5.878092	0.995776	0.000118
1916	1.9054e+02	-1.8520	-42.440389	0.000547	5.472706	0.927102	0.000110
1917	1.9064e+02	-1.8321	-42.270830	0.000851	8.513099	1.442158	0.000170
1918	1.9074e+02	-1.8119	-42.161827	0.000547	5.472706	0.927102	0.000110
1919	1.9084e+02	-1.7924	-42.004379	0.000791	7.905020	1.339147	0.000158
1920	1.9094e+02	-1.7722	-41.871153	0.000669	6.688863	1.133124	0.000134
1921	1.9104e+02	-1.7526	-41.741965	0.000649	6.486170	1.098787	0.000130
1922	1.9114e+02	-1.7323	-41.616814	0.000628	6.283478	1.064450	0.000126
1923	1.9124e+02	-1.7126	-41.467440	0.000750	7.499634	1.270472	0.000150
1924	1.9134e+02	-1.6927	-41.334214	0.000669	6.688863	1.133124	0.000134
1925	1.9144e+02	-1.6727	-41.172729	0.000811	8.107713	1.373484	0.000162
1926	1.9154e+02	-1.6527	-41.059689	0.000568	5.675399	0.961439	0.000114
1927	1.9164e+02	-1.6330	-40.926464	0.000669	6.688863	1.133124	0.000134
1928	1.9174e+02	-1.6135	-40.797275	0.000649	6.486170	1.098787	0.000130
1929	1.9184e+02	-1.5932	-40.639827	0.000791	7.905020	1.339147	0.000158
1930	1.9194e+02	-1.5733	-40.530824	0.000547	5.472706	0.927102	0.000110
1931	1.9203e+02	-1.5527	-40.409710	0.000608	6.080785	1.030113	0.000122
1932	1.9213e+02	-1.5341	-40.211891	0.000993	9.931948	1.682518	0.000199
1933	1.9223e+02	-1.5129	-40.066554	0.000730	7.296942	1.236135	0.000146
1934	1.9233e+02	-1.4923	-39.957551	0.000547	5.472706	0.927102	0.000110
1935	1.9243e+02	-1.4736	-39.840474	0.000588	5.878092	0.995776	0.000118
1936	1.9253e+02	-1.4536	-39.630543	0.001054	10.540027	1.785529	0.000211
1937	1.9263e+02	-1.4334	-39.561912	0.000345	3.445778	0.583731	0.000069
1938	1.9273e+02	-1.4131	-39.392352	0.000851	8.513099	1.442158	0.000170
1939	1.9283e+02	-1.3946	-39.259126	0.000669	6.688863	1.133124	0.000134
1940	1.9293e+02	-1.3737	-39.081493	0.000892	8.918484	1.510832	0.000179
1941	1.9303e+02	-1.3544	-38.928081	0.000770	7.702327	1.304810	0.000154
1942	1.9313e+02	-1.3336	-38.847339	0.000405	4.053856	0.686742	0.000081
1943	1.9323e+02	-1.3143	-38.714113	0.000669	6.688863	1.133124	0.000134
1944	1.9333e+02	-1.2934	-38.540516	0.000872	8.715791	1.476495	0.000174
1945	1.9343e+02	-1.2743	-38.459774	0.000405	4.053856	0.686742	0.000081
1946	1.9353e+02	-1.2554	-38.261954	0.000993	9.931948	1.682518	0.000199
1947	1.9363e+02	-1.2346	-38.092394	0.000851	8.513099	1.442158	0.000170
1948	1.9373e+02	-1.2150	-37.947057	0.000730	7.296942	1.236135	0.000146
1949	1.9383e+02	-1.1946	-37.817869	0.000649	6.486170	1.098787	0.000130
1950	1.9393e+02	-1.1749	-37.684644	0.000669	6.688863	1.133124	0.000134
1951	1.9403e+02	-1.1550	-37.555455	0.000649	6.486170	1.098787	0.000130
1952	1.9412e+02	-1.1344	-37.410118	0.000730	7.296942	1.236135	0.000146
1953	1.9422e+02	-1.1156	-37.248633	0.000811	8.107713	1.373484	0.000162
1954	1.9432e+02	-1.0953	-37.091185	0.000791	7.905020	1.339147	0.000158
1955	1.9442e+02	-1.0742	-37.010442	0.000405	4.053856	0.686742	0.000081
1956	1.9452e+02	-1.0550	-36.844919	0.000831	8.310406	1.407821	0.000166
1957	1.9462e+02	-1.0353	-36.707657	0.000689	6.891556	1.167461	0.000138
1958	1.9472e+02	-1.0149	-36.542134	0.000831	8.310406	1.407821	0.000166
1959	1.9482e+02	-0.9949	-36.408909	0.000669	6.688863	1.133124	0.000134
1960	1.9492e+02	-0.9759	-36.239349	0.000851	8.513099	1.442158	0.000170
1961	1.9502e+02	-0.9548	-36.174755	0.000324	3.243085	0.549393	0.000065
1962	1.9512e+02	-0.9353	-35.972898	0.001013	10.134641	1.716855	0.000203
1963	1.9522e+02	-0.9158	-35.843710	0.000649	6.486170	1.098787	0.000130
1964	1.9532e+02	-0.8953	-35.690298	0.000770	7.702327	1.304810	0.000154
1965	1.9542e+02	-0.8755	-35.569184	0.000608	6.080785	1.030113	0.000122
1966	1.9552e+02	-0.8560	-35.411736	0.000791	7.905020	1.339147	0.000158
1967	1.9562e+02	-0.8365	-35.298696	0.000568	5.675399	0.961439	0.000114
1968	1.9572e+02	-0.8157	-35.133174	0.000831	8.310406	1.407821	0.000166
1969	1.9582e+02	-0.7960	-34.979763	0.000770	7.702327	1.304810	0.000154
1970	1.9592e+02	-0.7761	-34.838463	0.000709	7.094249	1.201798	0.000142
1971	1.9601e+02	-0.7566	-34.693126	0.000730	7.296942	1.236135	0.000146
1972	1.9611e+02	-0.7365	-34.551826	0.000709	7.094249	1.201798	0.000142
1973	1.9621e+02	-0.7174	-34.398415	0.000770	7.702327	1.304810	0.000154
1974	1.9631e+02	-0.6969	-34.236930	0.000811	8.107713	1.373484	0.000162
1975	1.9641e+02	-0.6772	-34.091593	0.000730	7.296942	1.236135	0.000146
1976	1.9651e+02	-0.6555	-33.962404	0.000649	6.486170	1.098787	0.000130
1977	1.9661e+02	-0.6367	-33.756510	0.001034	10.337334	1.751192	0.000207
1978	1.9671e+02	-0.6173	-33.635396	0.000608	6.080785	1.030113	0.000122
1979	1.9681e+02	-0.5959	-33.473911	0.000811	8.107713	1.373484	0.000162
1980	1.9691e+02	-0.5771	-33.356834	0.000588	5.878092	0.995776	0.000118
1981	1.9701e+02	-0.5561	-33.219571	0.000689	6.891556	1.167461	0.000138
1982	1.9711e+02	-0.5372	-33.090383	0.000649	6.486170	1.098787	0.000130
1983	1.9721e+02	-0.5169	-32.932935	0.000791	7.905020	1.339147	0.000158
1984	1.9731e+02	-0.4971	-32.787598	0.000730	7.296942	1.236135	0.000146
1985	1.9741e+02	-0.4767	-32.593815	0.000973	9.729255	1.648180	0.000195
1986	1.9751e+02	-0.4564	-32.472701	0.000608	6.080785	1.030113	0.000122
1987	1.9761e+02	-0.4372	-32.323327	0.000750	7.499634	1.270472	0.000150
1988	1.9771e+02	-0.4179	-32.165879	0.000791	7.905020	1.339147	0.000158
1989	1.9781e+02	-0.3976	-32.048802	0.000588	5.878092	0.995776	0.000118
1990	1.9791e+02	-0.3773	-31.879242	0.000851	8.513099	1.442158	0.000170
1991	1.9800e+02	-0.3582	-31.693534	0.000932	9.323870	1.579506	0.000187
1992	1.9810e+02	-0.3378	-31.596643	0.000486	4.864628	0.824090	0.000097
1993	1.9820e+02	-0.3165	-31.459380	0.000689	6.891556	1.167461	0.000138
1994	1.9830e+02	-0.2977	-31.265598	0.000973	9.729255	1.648180	0.000195
1995	1.9840e+02	-0.2779	-31.075852	0.000953	9.526563	1.613843	0.000191
1996	1.9850e+02	-0.2579	-30.974924	0.000507	5.067321	0.858427	0.000101
1997	1.9860e+02	-0.2381	-30.833624	0.000709	7.094249	1.201798	0.000142
1998	1.9870e+02	-0.2182	-30.668102	0.000831	8.310406	1.407821	0.000166
1999	1.9880e+02	-0.1987	-30.498542	0.000851	8.513099	1.442158	0.000170
2000	1.9890e+02	-0.1781	-30.361279	0.000689	6.891556	1.167461	0.000138
2001	1.9900e+02	-0.1587	-30.215942	0.000730	7.296942	1.236135	0.000146
2002	1.9910e+02	-0.1379	-30.054457	0.000811	8.107713	1.373484	0.000162
2003	1.9920e+02	-0.1181	-29.945454	0.000547	5.472706	0.927102	0.000110
2004	1.9930e+02	-0.0988	-29.743598	0.001013	10.134641	1.716855	0.000203
2005	1.9940e+02	-0.0783	-29.602298	0.000709	7.094249	1.201798	0.000142
2006	1.9950e+02	-0.0582	-29.436775	0.000831	8.310406	1.407821	0.000166
2007	1.9960e+02	-0.0388	-29.311624	0.000628	6.283478	1.064450	0.000126
2008	1.9970e+02	-0.0186	-29.133990	0.000892	8.918484	1.510832	0.000179
2009	1.9980e+02	0.0001	-29.012876	0.000892	8.918484	1.510832	0.000122

Smooth data before PMax, +/-Pr and +/-Vc Calc.

PMax (uC/cm2):	6.23e+01
Pr (uC/cm2):	8.06e+00
-Pr (uC/cm2):	-4.40e+01
PLoss (uC/cm2):	-4.41e+01
-Vc:	-1.12e+00
C (Max-Eff) (nF):	6.23e-01
K (Eff):	1.06e+03
Vert. (+/-Pr) Shift (uC/cm2):	-1.80e+01
Offset (uC/cm2):	-1.50e+01

A (Loop Area - uC/cm2·Volts):	-1.58e-01



Hysteresis Version: 5.48.1 - Radiant Technologies, Inc., 1999 - 9/12/24

