»»»»»»»»»»»»»»»»»»»»»»»»»»»»»»»»»»»» Hysteresis ««««««««««««««««««««««««««««««««««««
»»»  Executed Version:	5.48.1
»»»  Vision Version:	5.48.4 (R)
»»»  Vision Compiled:	9/18/24
»»»  Driver Version:	5.47.0
»»»  Windows Version:	Windows 8 or 8.1
»»»  Processor Information:	x86 (AMD or Intel) - 32 Processors
»»»  Tester Name:	PMF21124-494 (100V)
»»»  Tester S/N:	PMF21124-494
»»»  Internal Amp Type:	100V RevK 270k
»»»  Internal Amp S/N:	iAB2-596/K     
»»»  Execution Count:	1
»»»»»»»»»»»»»»»»»»»»»»»»»»»»»»»»»»»»»»»»»»««««««««««««««««««««««««««««««««««««««««««

Stored:	7/8/2025 - 16:1:29
Configured:	07/08/25 02:50:47 PM
Executed:	07/08/25 04:00:57 PM

»»»»»»»»»»»»»»»»»»»»»»»»»»»»»»»»»»» Sample Info ««««««««««««««««««««««««««««««««««««
Sample Name:	
Lot Name:	
Wafer Name:	
Die Row/Column:	0/0
Capacitor Number:	0
Sample Area (cm2):	1.00e-04
Sample Thickness (microns):	1.50e-01

Amplifier:	Internal

»»»»»»»»»»»»»»»»»»»»»»»»»»»»»»»»»»» Tester Info «««««««««««««««««««««««««««««««««««
Tester Name:	PMF21124-494 (100V)
Tester Serial Number:	PMF21124-494
Return Signal Amp. Level:	0.19 [Index: 3]

»»»»»»»»»»»»»»»»»»»»»»»»»»»»»»»» Hysteresis Info ««««««««««««««««««««««««««««««««««
Task Name:	Hyst-724
Volts:	10.00
Field:	666.67 (kV/cm)
DCBias:	0.00
DCField:	0.00 (kV/cm)
Hysteresis Period (ms):	2.00e+02
Preset:	Enabled
Preset Delay (ms):	1.00e+03
Profile:	Standard Bipolar

»»»»»»»»»»»»»»»»»»»»»»»»»»»»»»»»»»»»»» Data «««««««««««««««««««««««««««««««««««««««
Points:	2009

Valid Data

Point	Time (ms)	Drive Voltage	Measured Polarization (uC/cm2)	Capacitance (uF)	Normalized Capacitance (uF/cm2)	Dielectric Constant	Instantaneous Current (mA)
   1	0.0000e+00	-0.0006	25.888133	0.000649	6.486096	1.098774	0.000130
   2	9.9500e-02	0.0196	26.017321	0.000649	6.486096	1.098774	0.000130
   3	1.9900e-01	0.0392	26.134398	0.000588	5.878025	0.995764	0.000118
   4	2.9850e-01	0.0595	26.287809	0.000770	7.702239	1.304795	0.000154
   5	3.9800e-01	0.0793	26.457369	0.000851	8.513001	1.442141	0.000170
   6	4.9750e-01	0.0993	26.618854	0.000811	8.107620	1.373468	0.000162
   7	5.9700e-01	0.1181	26.707671	0.000446	4.459191	0.755407	0.000089
   8	6.9650e-01	0.1387	26.909528	0.001013	10.134525	1.716835	0.000203
   9	7.9600e-01	0.1599	27.018531	0.000547	5.472644	0.927091	0.000110
  10	8.9550e-01	0.1784	27.171942	0.000770	7.702239	1.304795	0.000154
  11	9.9500e-01	0.1985	27.325353	0.000770	7.702239	1.304795	0.000154
  12	1.0945e+00	0.2176	27.507024	0.000912	9.121073	1.545152	0.000183
  13	1.1940e+00	0.2393	27.599878	0.000466	4.661882	0.789744	0.000093
  14	1.2935e+00	0.2583	27.761364	0.000811	8.107620	1.373468	0.000162
  15	1.3930e+00	0.2776	27.930924	0.000851	8.513001	1.442141	0.000170
  16	1.4925e+00	0.2985	28.039926	0.000547	5.472644	0.927091	0.000110
  17	1.5920e+00	0.3191	28.189300	0.000750	7.499549	1.270458	0.000150
  18	1.6915e+00	0.3381	28.366934	0.000892	8.918382	1.510815	0.000179
  19	1.7910e+00	0.3571	28.475937	0.000547	5.472644	0.927091	0.000110
  20	1.8905e+00	0.3777	28.677794	0.001013	10.134525	1.716835	0.000203
  21	1.9900e+00	0.3976	28.827168	0.000750	7.499549	1.270458	0.000150
  22	2.0895e+00	0.4173	28.984616	0.000790	7.904930	1.339131	0.000158
  23	2.1890e+00	0.4385	29.121879	0.000689	6.891477	1.167448	0.000138
  24	2.2885e+00	0.4581	29.271253	0.000750	7.499549	1.270458	0.000150
  25	2.3880e+00	0.4782	29.408515	0.000689	6.891477	1.167448	0.000138
  26	2.4875e+00	0.4972	29.553852	0.000730	7.296858	1.236121	0.000146
  27	2.5870e+00	0.5168	29.739560	0.000932	9.323763	1.579488	0.000187
  28	2.6865e+00	0.5374	29.864712	0.000628	6.283406	1.064438	0.000126
  29	2.7860e+00	0.5573	30.014086	0.000750	7.499549	1.270458	0.000150
  30	2.8855e+00	0.5771	30.163460	0.000750	7.499549	1.270458	0.000150
  31	2.9850e+00	0.5969	30.312834	0.000750	7.499549	1.270458	0.000150
  32	3.0845e+00	0.6173	30.502579	0.000953	9.526454	1.613825	0.000191
  33	3.1840e+00	0.6381	30.660027	0.000790	7.904930	1.339131	0.000158
  34	3.2835e+00	0.6570	30.756919	0.000486	4.864572	0.824081	0.000097
  35	3.3830e+00	0.6766	30.938590	0.000912	9.121073	1.545152	0.000183
  36	3.4825e+00	0.6970	31.087964	0.000750	7.499549	1.270458	0.000150
  37	3.5820e+00	0.7169	31.245412	0.000790	7.904930	1.339131	0.000158
  38	3.6815e+00	0.7361	31.386712	0.000709	7.094168	1.201785	0.000142
  39	3.7810e+00	0.7571	31.564346	0.000892	8.918382	1.510815	0.000179
  40	3.8805e+00	0.7761	31.709683	0.000730	7.296858	1.236121	0.000146
  41	3.9800e+00	0.7958	31.859057	0.000750	7.499549	1.270458	0.000150
  42	4.0795e+00	0.8160	31.996319	0.000689	6.891477	1.167448	0.000138
  43	4.1790e+00	0.8369	32.153768	0.000790	7.904930	1.339131	0.000158
  44	4.2785e+00	0.8560	32.311216	0.000790	7.904930	1.339131	0.000158
  45	4.3780e+00	0.8763	32.472701	0.000811	8.107620	1.373468	0.000162
  46	4.4775e+00	0.8952	32.618038	0.000730	7.296858	1.236121	0.000146
  47	4.5770e+00	0.9158	32.755301	0.000689	6.891477	1.167448	0.000138
  48	4.6765e+00	0.9353	32.904675	0.000750	7.499549	1.270458	0.000150
  49	4.7760e+00	0.9566	33.114606	0.001054	10.539906	1.785508	0.000211
  50	4.8755e+00	0.9743	33.215534	0.000507	5.067263	0.858418	0.000101
  51	4.9750e+00	0.9962	33.360871	0.000730	7.296858	1.236121	0.000146
  52	5.0745e+00	1.0162	33.530431	0.000851	8.513001	1.442141	0.000170
  53	5.1740e+00	1.0361	33.679805	0.000750	7.499549	1.270458	0.000150
  54	5.2735e+00	1.0554	33.800919	0.000608	6.080715	1.030101	0.000122
  55	5.3730e+00	1.0751	34.010850	0.001054	10.539906	1.785508	0.000211
  56	5.4725e+00	1.0961	34.144076	0.000669	6.688787	1.133111	0.000134
  57	5.5720e+00	1.1163	34.285375	0.000709	7.094168	1.201785	0.000142
  58	5.6715e+00	1.1359	34.426675	0.000709	7.094168	1.201785	0.000142
  59	5.7710e+00	1.1559	34.580086	0.000770	7.702239	1.304795	0.000154
  60	5.8705e+00	1.1751	34.729460	0.000750	7.499549	1.270458	0.000150
  61	5.9700e+00	1.1945	34.907094	0.000892	8.918382	1.510815	0.000179
  62	6.0695e+00	1.2144	35.056468	0.000750	7.499549	1.270458	0.000150
  63	6.1690e+00	1.2355	35.201805	0.000730	7.296858	1.236121	0.000146
  64	6.2685e+00	1.2547	35.355216	0.000770	7.702239	1.304795	0.000154
  65	6.3680e+00	1.2745	35.500553	0.000730	7.296858	1.236121	0.000146
  66	6.4675e+00	1.2942	35.629741	0.000649	6.486096	1.098774	0.000130
  67	6.5670e+00	1.3132	35.815450	0.000932	9.323763	1.579488	0.000187
  68	6.6665e+00	1.3342	35.960787	0.000730	7.296858	1.236121	0.000146
  69	6.7660e+00	1.3533	36.138421	0.000892	8.918382	1.510815	0.000179
  70	6.8655e+00	1.3741	36.263572	0.000628	6.283406	1.064438	0.000126
  71	6.9650e+00	1.3943	36.421020	0.000790	7.904930	1.339131	0.000158
  72	7.0645e+00	1.4137	36.614803	0.000973	9.729144	1.648162	0.000195
  73	7.1640e+00	1.4339	36.703620	0.000446	4.459191	0.755407	0.000089
  74	7.2635e+00	1.4542	36.897402	0.000973	9.729144	1.648162	0.000195
  75	7.3630e+00	1.4735	37.066962	0.000851	8.513001	1.442141	0.000170
  76	7.4625e+00	1.4933	37.212299	0.000730	7.296858	1.236121	0.000146
  77	7.5620e+00	1.5133	37.341487	0.000649	6.486096	1.098774	0.000130
  78	7.6615e+00	1.5331	37.519121	0.000892	8.918382	1.510815	0.000179
  79	7.7610e+00	1.5534	37.656384	0.000689	6.891477	1.167448	0.000138
  80	7.8605e+00	1.5727	37.817869	0.000811	8.107620	1.373468	0.000162
  81	7.9600e+00	1.5933	38.015689	0.000993	9.931835	1.682498	0.000199
  82	8.0595e+00	1.6134	38.161026	0.000730	7.296858	1.236121	0.000146
  83	8.1590e+00	1.6332	38.318474	0.000790	7.904930	1.339131	0.000158
  84	8.2585e+00	1.6528	38.447662	0.000649	6.486096	1.098774	0.000130
  85	8.3580e+00	1.6732	38.633370	0.000932	9.323763	1.579488	0.000187
  86	8.4575e+00	1.6935	38.754485	0.000608	6.080715	1.030101	0.000122
  87	8.5570e+00	1.7122	38.887710	0.000669	6.688787	1.133111	0.000134
  88	8.6565e+00	1.7318	39.061307	0.000872	8.715692	1.476478	0.000174
  89	8.7560e+00	1.7530	39.247015	0.000932	9.323763	1.579488	0.000187
  90	8.8555e+00	1.7722	39.428686	0.000912	9.121073	1.545152	0.000183
  91	8.9550e+00	1.7923	39.549800	0.000608	6.080715	1.030101	0.000122
  92	9.0545e+00	1.8118	39.695137	0.000730	7.296858	1.236121	0.000146
  93	9.1540e+00	1.8325	39.860660	0.000831	8.310311	1.407805	0.000166
  94	9.2535e+00	1.8517	40.058479	0.000993	9.931835	1.682498	0.000199
  95	9.3530e+00	1.8726	40.219965	0.000811	8.107620	1.373468	0.000162
  96	9.4525e+00	1.8920	40.349153	0.000649	6.486096	1.098774	0.000130
  97	9.5520e+00	1.9118	40.534861	0.000932	9.323763	1.579488	0.000187
  98	9.6515e+00	1.9314	40.676161	0.000709	7.094168	1.201785	0.000142
  99	9.7510e+00	1.9521	40.857832	0.000912	9.121073	1.545152	0.000183
 100	9.8505e+00	1.9711	40.966835	0.000547	5.472644	0.927091	0.000110
 101	9.9500e+00	1.9930	41.128320	0.000811	8.107620	1.373468	0.000162
 102	1.0050e+01	2.0123	41.330177	0.001013	10.134525	1.716835	0.000203
 103	1.0149e+01	2.0308	41.471477	0.000709	7.094168	1.201785	0.000142
 104	1.0248e+01	2.0514	41.616814	0.000730	7.296858	1.236121	0.000146
 105	1.0348e+01	2.0707	41.758114	0.000709	7.094168	1.201785	0.000142
 106	1.0447e+01	2.0911	41.955933	0.000993	9.931835	1.682498	0.000199
 107	1.0547e+01	2.1107	42.085122	0.000649	6.486096	1.098774	0.000130
 108	1.0646e+01	2.1311	42.190087	0.000527	5.269953	0.892754	0.000105
 109	1.0746e+01	2.1509	42.383870	0.000973	9.729144	1.648162	0.000195
 110	1.0845e+01	2.1705	42.561504	0.000892	8.918382	1.510815	0.000179
 111	1.0945e+01	2.1911	42.670506	0.000547	5.472644	0.927091	0.000110
 112	1.1044e+01	2.2108	42.840066	0.000851	8.513001	1.442141	0.000170
 113	1.1144e+01	2.2301	43.021737	0.000912	9.121073	1.545152	0.000183
 114	1.1243e+01	2.2511	43.171111	0.000750	7.499549	1.270458	0.000150
 115	1.1343e+01	2.2706	43.332596	0.000811	8.107620	1.373468	0.000162
 116	1.1443e+01	2.2909	43.486008	0.000770	7.702239	1.304795	0.000154
 117	1.1542e+01	2.3104	43.631344	0.000730	7.296858	1.236121	0.000146
 118	1.1642e+01	2.3302	43.788793	0.000790	7.904930	1.339131	0.000158
 119	1.1741e+01	2.3514	43.934130	0.000730	7.296858	1.236121	0.000146
 120	1.1841e+01	2.3705	44.091578	0.000790	7.904930	1.339131	0.000158
 121	1.1940e+01	2.3901	44.273249	0.000912	9.121073	1.545152	0.000183
 122	1.2040e+01	2.4106	44.434735	0.000811	8.107620	1.373468	0.000162
 123	1.2139e+01	2.4303	44.567960	0.000669	6.688787	1.133111	0.000134
 124	1.2239e+01	2.4509	44.741557	0.000872	8.715692	1.476478	0.000174
 125	1.2338e+01	2.4702	44.862671	0.000608	6.080715	1.030101	0.000122
 126	1.2438e+01	2.4899	45.040305	0.000892	8.918382	1.510815	0.000179
 127	1.2537e+01	2.5096	45.217939	0.000892	8.918382	1.510815	0.000179
 128	1.2636e+01	2.5294	45.415758	0.000993	9.931835	1.682498	0.000199
 129	1.2736e+01	2.5497	45.532835	0.000588	5.878025	0.995764	0.000118
 130	1.2835e+01	2.5692	45.698358	0.000831	8.310311	1.407805	0.000166
 131	1.2935e+01	2.5890	45.859843	0.000811	8.107620	1.373468	0.000162
 132	1.3034e+01	2.6092	45.997106	0.000689	6.891477	1.167448	0.000138
 133	1.3134e+01	2.6299	46.186851	0.000953	9.526454	1.613825	0.000191
 134	1.3233e+01	2.6482	46.348337	0.000811	8.107620	1.373468	0.000162
 135	1.3333e+01	2.6688	46.513859	0.000831	8.310311	1.407805	0.000166
 136	1.3432e+01	2.6893	46.647085	0.000669	6.688787	1.133111	0.000134
 137	1.3532e+01	2.7090	46.796459	0.000750	7.499549	1.270458	0.000150
 138	1.3632e+01	2.7283	46.933722	0.000689	6.891477	1.167448	0.000138
 139	1.3731e+01	2.7483	47.119430	0.000932	9.323763	1.579488	0.000187
 140	1.3831e+01	2.7685	47.268804	0.000750	7.499549	1.270458	0.000150
 141	1.3930e+01	2.7879	47.402029	0.000669	6.688787	1.133111	0.000134
 142	1.4030e+01	2.8089	47.611960	0.001054	10.539906	1.785508	0.000211
 143	1.4129e+01	2.8284	47.765371	0.000770	7.702239	1.304795	0.000154
 144	1.4229e+01	2.8482	47.882448	0.000588	5.878025	0.995764	0.000118
 145	1.4328e+01	2.8686	48.060082	0.000892	8.918382	1.510815	0.000179
 146	1.4428e+01	2.8872	48.181196	0.000608	6.080715	1.030101	0.000122
 147	1.4527e+01	2.9079	48.379016	0.000993	9.931835	1.682498	0.000199
 148	1.4627e+01	2.9273	48.556650	0.000892	8.918382	1.510815	0.000179
 149	1.4726e+01	2.9473	48.718136	0.000811	8.107620	1.373468	0.000162
 150	1.4825e+01	2.9682	48.891732	0.000872	8.715692	1.476478	0.000174
 151	1.4925e+01	2.9871	49.008809	0.000588	5.878025	0.995764	0.000118
 152	1.5024e+01	3.0079	49.186443	0.000892	8.918382	1.510815	0.000179
 153	1.5124e+01	3.0271	49.335817	0.000750	7.499549	1.270458	0.000150
 154	1.5223e+01	3.0472	49.497303	0.000811	8.107620	1.373468	0.000162
 155	1.5323e+01	3.0677	49.658788	0.000811	8.107620	1.373468	0.000162
 156	1.5422e+01	3.0870	49.767791	0.000547	5.472644	0.927091	0.000110
 157	1.5522e+01	3.1070	49.925239	0.000790	7.904930	1.339131	0.000158
 158	1.5621e+01	3.1275	50.131133	0.001034	10.337216	1.751172	0.000207
 159	1.5721e+01	3.1481	50.256284	0.000628	6.283406	1.064438	0.000126
 160	1.5820e+01	3.1673	50.389510	0.000669	6.688787	1.133111	0.000134
 161	1.5920e+01	3.1869	50.567144	0.000892	8.918382	1.510815	0.000179
 162	1.6020e+01	3.2058	50.720555	0.000770	7.702239	1.304795	0.000154
 163	1.6119e+01	3.2271	50.861855	0.000709	7.094168	1.201785	0.000142
 164	1.6218e+01	3.2471	51.023340	0.000811	8.107620	1.373468	0.000162
 165	1.6318e+01	3.2667	51.188863	0.000831	8.310311	1.407805	0.000166
 166	1.6418e+01	3.2867	51.354385	0.000831	8.310311	1.407805	0.000166
 167	1.6517e+01	3.3070	51.479536	0.000628	6.283406	1.064438	0.000126
 168	1.6616e+01	3.3261	51.641022	0.000811	8.107620	1.373468	0.000162
 169	1.6716e+01	3.3466	51.830767	0.000953	9.526454	1.613825	0.000191
 170	1.6816e+01	3.3669	51.968030	0.000689	6.891477	1.167448	0.000138
 171	1.6915e+01	3.3867	52.089144	0.000608	6.080715	1.030101	0.000122
 172	1.7015e+01	3.4055	52.262741	0.000872	8.715692	1.476478	0.000174
 173	1.7114e+01	3.4270	52.424226	0.000811	8.107620	1.373468	0.000162
 174	1.7213e+01	3.4460	52.557452	0.000669	6.688787	1.133111	0.000134
 175	1.7313e+01	3.4651	52.702788	0.000730	7.296858	1.236121	0.000146
 176	1.7413e+01	3.4853	52.888497	0.000932	9.323763	1.579488	0.000187
 177	1.7512e+01	3.5061	53.001537	0.000568	5.675334	0.961428	0.000114
 178	1.7611e+01	3.5261	53.215505	0.001074	10.742597	1.819845	0.000215
 179	1.7711e+01	3.5462	53.316433	0.000507	5.067263	0.858418	0.000101
 180	1.7811e+01	3.5651	53.494067	0.000892	8.918382	1.510815	0.000179
 181	1.7910e+01	3.5845	53.659590	0.000831	8.310311	1.407805	0.000166
 182	1.8009e+01	3.6057	53.788778	0.000649	6.486096	1.098774	0.000130
 183	1.8109e+01	3.6259	53.970449	0.000912	9.121073	1.545152	0.000183
 184	1.8209e+01	3.6440	54.119823	0.000750	7.499549	1.270458	0.000150
 185	1.8308e+01	3.6666	54.253049	0.000669	6.688787	1.133111	0.000134
 186	1.8407e+01	3.6848	54.390311	0.000689	6.891477	1.167448	0.000138
 187	1.8507e+01	3.7051	54.539685	0.000750	7.499549	1.270458	0.000150
 188	1.8607e+01	3.7247	54.693096	0.000770	7.702239	1.304795	0.000154
 189	1.8706e+01	3.7452	54.858619	0.000831	8.310311	1.407805	0.000166
 190	1.8805e+01	3.7641	55.024142	0.000831	8.310311	1.407805	0.000166
 191	1.8905e+01	3.7850	55.153330	0.000649	6.486096	1.098774	0.000130
 192	1.9005e+01	3.8033	55.278481	0.000628	6.283406	1.064438	0.000126
 193	1.9104e+01	3.8248	55.476301	0.000993	9.931835	1.682498	0.000199
 194	1.9203e+01	3.8442	55.577229	0.000507	5.067263	0.858418	0.000101
 195	1.9303e+01	3.8633	55.787160	0.001054	10.539906	1.785508	0.000211
 196	1.9402e+01	3.8833	55.908274	0.000608	6.080715	1.030101	0.000122
 197	1.9502e+01	3.9045	56.073797	0.000831	8.310311	1.407805	0.000166
 198	1.9602e+01	3.9236	56.207022	0.000669	6.688787	1.133111	0.000134
 199	1.9701e+01	3.9437	56.348322	0.000709	7.094168	1.201785	0.000142
 200	1.9800e+01	3.9634	56.534030	0.000932	9.323763	1.579488	0.000187
 201	1.9900e+01	3.9841	56.655144	0.000608	6.080715	1.030101	0.000122
 202	2.0000e+01	4.0034	56.812593	0.000790	7.904930	1.339131	0.000158
 203	2.0099e+01	4.0234	56.982152	0.000851	8.513001	1.442141	0.000170
 204	2.0198e+01	4.0427	57.107304	0.000628	6.283406	1.064438	0.000126
 205	2.0298e+01	4.0636	57.268789	0.000811	8.107620	1.373468	0.000162
 206	2.0398e+01	4.0829	57.410089	0.000709	7.094168	1.201785	0.000142
 207	2.0497e+01	4.1039	57.591760	0.000912	9.121073	1.545152	0.000183
 208	2.0596e+01	4.1238	57.729022	0.000689	6.891477	1.167448	0.000138
 209	2.0696e+01	4.1428	57.878397	0.000750	7.499549	1.270458	0.000150
 210	2.0796e+01	4.1625	57.999511	0.000608	6.080715	1.030101	0.000122
 211	2.0895e+01	4.1834	58.156959	0.000790	7.904930	1.339131	0.000158
 212	2.0994e+01	4.2032	58.286147	0.000649	6.486096	1.098774	0.000130
 213	2.1094e+01	4.2226	58.475893	0.000953	9.526454	1.613825	0.000191
 214	2.1194e+01	4.2425	58.605081	0.000649	6.486096	1.098774	0.000130
 215	2.1293e+01	4.2637	58.750418	0.000730	7.296858	1.236121	0.000146
 216	2.1392e+01	4.2828	58.891718	0.000709	7.094168	1.201785	0.000142
 217	2.1492e+01	4.3027	59.033017	0.000709	7.094168	1.201785	0.000142
 218	2.1591e+01	4.3227	59.162206	0.000649	6.486096	1.098774	0.000130
 219	2.1691e+01	4.3432	59.319654	0.000790	7.904930	1.339131	0.000158
 220	2.1791e+01	4.3623	59.460954	0.000709	7.094168	1.201785	0.000142
 221	2.1890e+01	4.3823	59.606291	0.000730	7.296858	1.236121	0.000146
 222	2.1989e+01	4.4016	59.779887	0.000872	8.715692	1.476478	0.000174
 223	2.2089e+01	4.4210	59.896964	0.000588	5.878025	0.995764	0.000118
 224	2.2189e+01	4.4424	60.034227	0.000689	6.891477	1.167448	0.000138
 225	2.2288e+01	4.4624	60.159378	0.000628	6.283406	1.064438	0.000126
 226	2.2387e+01	4.4817	60.284529	0.000628	6.283406	1.064438	0.000126
 227	2.2487e+01	4.5013	60.446015	0.000811	8.107620	1.373468	0.000162
 228	2.2587e+01	4.5217	60.607500	0.000811	8.107620	1.373468	0.000162
 229	2.2686e+01	4.5415	60.724577	0.000588	5.878025	0.995764	0.000118
 230	2.2785e+01	4.5615	60.873951	0.000750	7.499549	1.270458	0.000150
 231	2.2885e+01	4.5819	61.043511	0.000851	8.513001	1.442141	0.000170
 232	2.2985e+01	4.6004	61.140402	0.000486	4.864572	0.824081	0.000097
 233	2.3084e+01	4.6210	61.313999	0.000872	8.715692	1.476478	0.000174
 234	2.3183e+01	4.6413	61.439150	0.000628	6.283406	1.064438	0.000126
 235	2.3283e+01	4.6613	61.580450	0.000709	7.094168	1.201785	0.000142
 236	2.3383e+01	4.6812	61.758084	0.000892	8.918382	1.510815	0.000179
 237	2.3482e+01	4.7012	61.871124	0.000568	5.675334	0.961428	0.000114
 238	2.3581e+01	4.7213	62.020498	0.000750	7.499549	1.270458	0.000150
 239	2.3681e+01	4.7414	62.165835	0.000730	7.296858	1.236121	0.000146
 240	2.3780e+01	4.7616	62.274837	0.000547	5.472644	0.927091	0.000110
 241	2.3880e+01	4.7807	62.444397	0.000851	8.513001	1.442141	0.000170
 242	2.3980e+01	4.8008	62.569548	0.000628	6.283406	1.064438	0.000126
 243	2.4079e+01	4.8208	62.694699	0.000628	6.283406	1.064438	0.000126
 244	2.4178e+01	4.8399	62.880408	0.000932	9.323763	1.579488	0.000187
 245	2.4278e+01	4.8600	63.005559	0.000628	6.283406	1.064438	0.000126
 246	2.4378e+01	4.8801	63.134747	0.000649	6.486096	1.098774	0.000130
 247	2.4477e+01	4.9004	63.284121	0.000750	7.499549	1.270458	0.000150
 248	2.4576e+01	4.9197	63.429458	0.000730	7.296858	1.236121	0.000146
 249	2.4676e+01	4.9409	63.578832	0.000750	7.499549	1.270458	0.000150
 250	2.4776e+01	4.9593	63.736280	0.000790	7.904930	1.339131	0.000158
 251	2.4875e+01	4.9800	63.825097	0.000446	4.459191	0.755407	0.000089
 252	2.4974e+01	5.0001	64.006769	0.000912	9.121073	1.545152	0.000183
 253	2.5074e+01	5.0198	64.135957	0.000649	6.486096	1.098774	0.000130
 254	2.5174e+01	5.0396	64.281294	0.000730	7.296858	1.236121	0.000146
 255	2.5273e+01	5.0595	64.414519	0.000669	6.688787	1.133111	0.000134
 256	2.5372e+01	5.0788	64.559856	0.000730	7.296858	1.236121	0.000146
 257	2.5472e+01	5.0999	64.680970	0.000608	6.080715	1.030101	0.000122
 258	2.5572e+01	5.1190	64.806121	0.000628	6.283406	1.064438	0.000126
 259	2.5671e+01	5.1394	65.012015	0.001034	10.337216	1.751172	0.000207
 260	2.5770e+01	5.1586	65.096795	0.000426	4.256501	0.721071	0.000085
 261	2.5870e+01	5.1776	65.234058	0.000689	6.891477	1.167448	0.000138
 262	2.5970e+01	5.1993	65.387469	0.000770	7.702239	1.304795	0.000154
 263	2.6069e+01	5.2181	65.516657	0.000649	6.486096	1.098774	0.000130
 264	2.6169e+01	5.2393	65.661994	0.000730	7.296858	1.236121	0.000146
 265	2.6268e+01	5.2588	65.811368	0.000750	7.499549	1.270458	0.000150
 266	2.6367e+01	5.2783	65.972854	0.000811	8.107620	1.373468	0.000162
 267	2.6467e+01	5.2983	66.077819	0.000527	5.269953	0.892754	0.000105
 268	2.6567e+01	5.3189	66.186822	0.000547	5.472644	0.927091	0.000110
 269	2.6666e+01	5.3387	66.348307	0.000811	8.107620	1.373468	0.000162
 270	2.6765e+01	5.3574	66.469421	0.000608	6.080715	1.030101	0.000122
 271	2.6865e+01	5.3777	66.630907	0.000811	8.107620	1.373468	0.000162
 272	2.6965e+01	5.3982	66.756058	0.000628	6.283406	1.064438	0.000126
 273	2.7064e+01	5.4185	66.901395	0.000730	7.296858	1.236121	0.000146
 274	2.7163e+01	5.4381	67.022509	0.000608	6.080715	1.030101	0.000122
 275	2.7263e+01	5.4568	67.155734	0.000669	6.688787	1.133111	0.000134
 276	2.7363e+01	5.4782	67.292997	0.000689	6.891477	1.167448	0.000138
 277	2.7462e+01	5.4972	67.430260	0.000689	6.891477	1.167448	0.000138
 278	2.7561e+01	5.5173	67.547337	0.000588	5.878025	0.995764	0.000118
 279	2.7661e+01	5.5376	67.708822	0.000811	8.107620	1.373468	0.000162
 280	2.7761e+01	5.5578	67.825899	0.000588	5.878025	0.995764	0.000118
 281	2.7860e+01	5.5775	67.959124	0.000669	6.688787	1.133111	0.000134
 282	2.7959e+01	5.5967	68.112536	0.000770	7.702239	1.304795	0.000154
 283	2.8059e+01	5.6178	68.237687	0.000628	6.283406	1.064438	0.000126
 284	2.8159e+01	5.6380	68.366875	0.000649	6.486096	1.098774	0.000130
 285	2.8258e+01	5.6568	68.516249	0.000750	7.499549	1.270458	0.000150
 286	2.8358e+01	5.6768	68.617178	0.000507	5.067263	0.858418	0.000101
 287	2.8457e+01	5.6963	68.778663	0.000811	8.107620	1.373468	0.000162
 288	2.8556e+01	5.7166	68.915926	0.000689	6.891477	1.167448	0.000138
 289	2.8656e+01	5.7368	69.049151	0.000669	6.688787	1.133111	0.000134
 290	2.8756e+01	5.7568	69.154117	0.000527	5.269953	0.892754	0.000105
 291	2.8855e+01	5.7764	69.291379	0.000689	6.891477	1.167448	0.000138
 292	2.8954e+01	5.7966	69.440753	0.000750	7.499549	1.270458	0.000150
 293	2.9054e+01	5.8166	69.602239	0.000811	8.107620	1.373468	0.000162
 294	2.9154e+01	5.8361	69.711241	0.000547	5.472644	0.927091	0.000110
 295	2.9253e+01	5.8572	69.876764	0.000831	8.310311	1.407805	0.000166
 296	2.9352e+01	5.8765	69.993841	0.000588	5.878025	0.995764	0.000118
 297	2.9452e+01	5.8959	70.143215	0.000750	7.499549	1.270458	0.000150
 298	2.9552e+01	5.9161	70.244143	0.000507	5.067263	0.858418	0.000101
 299	2.9651e+01	5.9359	70.425814	0.000912	9.121073	1.545152	0.000183
 300	2.9750e+01	5.9557	70.522706	0.000486	4.864572	0.824081	0.000097
 301	2.9850e+01	5.9760	70.647857	0.000628	6.283406	1.064438	0.000126
 302	2.9950e+01	5.9959	70.805305	0.000790	7.904930	1.339131	0.000158
 303	3.0049e+01	6.0157	70.918345	0.000568	5.675334	0.961428	0.000114
 304	3.0148e+01	6.0345	71.055608	0.000689	6.891477	1.167448	0.000138
 305	3.0248e+01	6.0561	71.192870	0.000689	6.891477	1.167448	0.000138
 306	3.0348e+01	6.0751	71.326096	0.000669	6.688787	1.133111	0.000134
 307	3.0447e+01	6.0960	71.455284	0.000649	6.486096	1.098774	0.000130
 308	3.0547e+01	6.1148	71.604658	0.000750	7.499549	1.270458	0.000150
 309	3.0646e+01	6.1347	71.725772	0.000608	6.080715	1.030101	0.000122
 310	3.0745e+01	6.1559	71.875146	0.000750	7.499549	1.270458	0.000150
 311	3.0845e+01	6.1745	72.012409	0.000689	6.891477	1.167448	0.000138
 312	3.0945e+01	6.1955	72.153708	0.000709	7.094168	1.201785	0.000142
 313	3.1044e+01	6.2151	72.278860	0.000628	6.283406	1.064438	0.000126
 314	3.1143e+01	6.2356	72.432271	0.000770	7.702239	1.304795	0.000154
 315	3.1243e+01	6.2551	72.569533	0.000689	6.891477	1.167448	0.000138
 316	3.1343e+01	6.2746	72.670462	0.000507	5.067263	0.858418	0.000101
 317	3.1442e+01	6.2940	72.791576	0.000608	6.080715	1.030101	0.000122
 318	3.1541e+01	6.3131	72.973247	0.000912	9.121073	1.545152	0.000183
 319	3.1641e+01	6.3348	73.066101	0.000466	4.661882	0.789744	0.000093
 320	3.1741e+01	6.3532	73.239698	0.000872	8.715692	1.476478	0.000174
 321	3.1840e+01	6.3750	73.324478	0.000426	4.256501	0.721071	0.000085
 322	3.1939e+01	6.3924	73.461740	0.000689	6.891477	1.167448	0.000138
 323	3.2039e+01	6.4127	73.586892	0.000628	6.283406	1.064438	0.000126
 324	3.2139e+01	6.4330	73.716080	0.000649	6.486096	1.098774	0.000130
 325	3.2238e+01	6.4529	73.857380	0.000709	7.094168	1.201785	0.000142
 326	3.2337e+01	6.4739	74.010791	0.000770	7.702239	1.304795	0.000154
 327	3.2437e+01	6.4938	74.131905	0.000608	6.080715	1.030101	0.000122
 328	3.2536e+01	6.5131	74.232833	0.000507	5.067263	0.858418	0.000101
 329	3.2636e+01	6.5340	74.402393	0.000851	8.513001	1.442141	0.000170
 330	3.2736e+01	6.5536	74.475062	0.000365	3.648429	0.618061	0.000073
 331	3.2835e+01	6.5736	74.628473	0.000770	7.702239	1.304795	0.000154
 332	3.2934e+01	6.5925	74.769772	0.000709	7.094168	1.201785	0.000142
 333	3.3034e+01	6.6122	74.915109	0.000730	7.296858	1.236121	0.000146
 334	3.3133e+01	6.6325	75.036223	0.000608	6.080715	1.030101	0.000122
 335	3.3233e+01	6.6521	75.149263	0.000568	5.675334	0.961428	0.000114
 336	3.3333e+01	6.6726	75.282489	0.000669	6.688787	1.133111	0.000134
 337	3.3432e+01	6.6922	75.415714	0.000669	6.688787	1.133111	0.000134
 338	3.3532e+01	6.7130	75.573162	0.000790	7.904930	1.339131	0.000158
 339	3.3631e+01	6.7325	75.666017	0.000466	4.661882	0.789744	0.000093
 340	3.3730e+01	6.7513	75.783094	0.000588	5.878025	0.995764	0.000118
 341	3.3830e+01	6.7718	75.944579	0.000811	8.107620	1.373468	0.000162
 342	3.3929e+01	6.7927	76.065693	0.000608	6.080715	1.030101	0.000122
 343	3.4029e+01	6.8137	76.158547	0.000466	4.661882	0.789744	0.000093
 344	3.4129e+01	6.8321	76.291773	0.000669	6.688787	1.133111	0.000134
 345	3.4228e+01	6.8514	76.437109	0.000730	7.296858	1.236121	0.000146
 346	3.4328e+01	6.8703	76.558224	0.000608	6.080715	1.030101	0.000122
 347	3.4427e+01	6.8913	76.695486	0.000689	6.891477	1.167448	0.000138
 348	3.4526e+01	6.9122	76.788340	0.000466	4.661882	0.789744	0.000093
 349	3.4626e+01	6.9316	76.921566	0.000669	6.688787	1.133111	0.000134
 350	3.4725e+01	6.9518	77.046717	0.000628	6.283406	1.064438	0.000126
 351	3.4825e+01	6.9702	77.179942	0.000669	6.688787	1.133111	0.000134
 352	3.4925e+01	6.9908	77.309131	0.000649	6.486096	1.098774	0.000130
 353	3.5024e+01	7.0113	77.442356	0.000669	6.688787	1.133111	0.000134
 354	3.5123e+01	7.0307	77.563470	0.000608	6.080715	1.030101	0.000122
 355	3.5223e+01	7.0509	77.684584	0.000608	6.080715	1.030101	0.000122
 356	3.5322e+01	7.0705	77.801661	0.000588	5.878025	0.995764	0.000118
 357	3.5422e+01	7.0910	77.930850	0.000649	6.486096	1.098774	0.000130
 358	3.5522e+01	7.1111	78.088298	0.000790	7.904930	1.339131	0.000158
 359	3.5621e+01	7.1307	78.201338	0.000568	5.675334	0.961428	0.000114
 360	3.5721e+01	7.1513	78.354749	0.000770	7.702239	1.304795	0.000154
 361	3.5820e+01	7.1706	78.459715	0.000527	5.269953	0.892754	0.000105
 362	3.5919e+01	7.1909	78.588903	0.000649	6.486096	1.098774	0.000130
 363	3.6019e+01	7.2103	78.710017	0.000608	6.080715	1.030101	0.000122
 364	3.6118e+01	7.2301	78.798834	0.000446	4.459191	0.755407	0.000089
 365	3.6218e+01	7.2501	78.964356	0.000831	8.310311	1.407805	0.000166
 366	3.6318e+01	7.2701	79.073359	0.000547	5.472644	0.927091	0.000110
 367	3.6417e+01	7.2896	79.226770	0.000770	7.702239	1.304795	0.000154
 368	3.6517e+01	7.3096	79.315587	0.000446	4.459191	0.755407	0.000089
 369	3.6616e+01	7.3314	79.477073	0.000811	8.107620	1.373468	0.000162
 370	3.6715e+01	7.3505	79.565890	0.000446	4.459191	0.755407	0.000089
 371	3.6815e+01	7.3699	79.699115	0.000669	6.688787	1.133111	0.000134
 372	3.6914e+01	7.3901	79.840415	0.000709	7.094168	1.201785	0.000142
 373	3.7014e+01	7.4097	79.961529	0.000608	6.080715	1.030101	0.000122
 374	3.7114e+01	7.4294	80.070532	0.000547	5.472644	0.927091	0.000110
 375	3.7213e+01	7.4498	80.236054	0.000831	8.310311	1.407805	0.000166
 376	3.7313e+01	7.4691	80.272388	0.000182	1.824215	0.309030	0.000037
 377	3.7412e+01	7.4892	80.437911	0.000831	8.310311	1.407805	0.000166
 378	3.7511e+01	7.5085	80.534802	0.000486	4.864572	0.824081	0.000097
 379	3.7611e+01	7.5293	80.704362	0.000851	8.513001	1.442141	0.000170
 380	3.7711e+01	7.5484	80.829513	0.000628	6.283406	1.064438	0.000126
 381	3.7810e+01	7.5695	80.910256	0.000405	4.053810	0.686734	0.000081
 382	3.7910e+01	7.5890	81.047519	0.000689	6.891477	1.167448	0.000138
 383	3.8009e+01	7.6089	81.168633	0.000608	6.080715	1.030101	0.000122
 384	3.8108e+01	7.6292	81.265524	0.000486	4.864572	0.824081	0.000097
 385	3.8208e+01	7.6490	81.370489	0.000527	5.269953	0.892754	0.000105
 386	3.8307e+01	7.6690	81.495641	0.000628	6.283406	1.064438	0.000126
 387	3.8407e+01	7.6880	81.632903	0.000689	6.891477	1.167448	0.000138
 388	3.8507e+01	7.7082	81.754017	0.000608	6.080715	1.030101	0.000122
 389	3.8606e+01	7.7283	81.883206	0.000649	6.486096	1.098774	0.000130
 390	3.8706e+01	7.7483	81.992208	0.000547	5.472644	0.927091	0.000110
 391	3.8805e+01	7.7686	82.125434	0.000669	6.688787	1.133111	0.000134
 392	3.8904e+01	7.7882	82.218288	0.000466	4.661882	0.789744	0.000093
 393	3.9004e+01	7.8077	82.335365	0.000588	5.878025	0.995764	0.000118
 394	3.9103e+01	7.8282	82.472627	0.000689	6.891477	1.167448	0.000138
 395	3.9203e+01	7.8481	82.553370	0.000405	4.053810	0.686734	0.000081
 396	3.9303e+01	7.8683	82.678521	0.000628	6.283406	1.064438	0.000126
 397	3.9402e+01	7.8873	82.823858	0.000730	7.296858	1.236121	0.000146
 398	3.9502e+01	7.9076	82.928824	0.000527	5.269953	0.892754	0.000105
 399	3.9601e+01	7.9279	83.045901	0.000588	5.878025	0.995764	0.000118
 400	3.9700e+01	7.9473	83.179126	0.000669	6.688787	1.133111	0.000134
 401	3.9800e+01	7.9681	83.276017	0.000486	4.864572	0.824081	0.000097
 402	3.9900e+01	7.9871	83.397132	0.000608	6.080715	1.030101	0.000122
 403	3.9999e+01	8.0069	83.514208	0.000588	5.878025	0.995764	0.000118
 404	4.0099e+01	8.0273	83.643397	0.000649	6.486096	1.098774	0.000130
 405	4.0198e+01	8.0471	83.748362	0.000527	5.269953	0.892754	0.000105
 406	4.0297e+01	8.0666	83.821031	0.000365	3.648429	0.618061	0.000073
 407	4.0397e+01	8.0868	83.978479	0.000790	7.904930	1.339131	0.000158
 408	4.0496e+01	8.1079	84.071333	0.000466	4.661882	0.789744	0.000093
 409	4.0596e+01	8.1271	84.196484	0.000628	6.283406	1.064438	0.000126
 410	4.0696e+01	8.1463	84.345858	0.000750	7.499549	1.270458	0.000150
 411	4.0795e+01	8.1670	84.438713	0.000466	4.661882	0.789744	0.000093
 412	4.0895e+01	8.1868	84.575975	0.000689	6.891477	1.167448	0.000138
 413	4.0994e+01	8.2063	84.693052	0.000588	5.878025	0.995764	0.000118
 414	4.1093e+01	8.2258	84.777832	0.000426	4.256501	0.721071	0.000085
 415	4.1193e+01	8.2465	84.915095	0.000689	6.891477	1.167448	0.000138
 416	4.1292e+01	8.2666	85.024097	0.000547	5.472644	0.927091	0.000110
 417	4.1392e+01	8.2861	85.149248	0.000628	6.283406	1.064438	0.000126
 418	4.1492e+01	8.3068	85.262288	0.000568	5.675334	0.961428	0.000114
 419	4.1591e+01	8.3253	85.351105	0.000446	4.459191	0.755407	0.000089
 420	4.1691e+01	8.3453	85.508553	0.000790	7.904930	1.339131	0.000158
 421	4.1790e+01	8.3656	85.645816	0.000689	6.891477	1.167448	0.000138
 422	4.1889e+01	8.3863	85.726559	0.000405	4.053810	0.686734	0.000081
 423	4.1989e+01	8.4058	85.811339	0.000426	4.256501	0.721071	0.000085
 424	4.2089e+01	8.4253	85.900156	0.000446	4.459191	0.755407	0.000089
 425	4.2188e+01	8.4454	86.093938	0.000973	9.729144	1.648162	0.000195
 426	4.2288e+01	8.4650	86.182755	0.000446	4.459191	0.755407	0.000089
 427	4.2387e+01	8.4854	86.271572	0.000446	4.459191	0.755407	0.000089
 428	4.2486e+01	8.5040	86.424983	0.000770	7.702239	1.304795	0.000154
 429	4.2586e+01	8.5255	86.529949	0.000527	5.269953	0.892754	0.000105
 430	4.2685e+01	8.5461	86.675286	0.000730	7.296858	1.236121	0.000146
 431	4.2785e+01	8.5648	86.784288	0.000547	5.472644	0.927091	0.000110
 432	4.2885e+01	8.5841	86.877143	0.000466	4.661882	0.789744	0.000093
 433	4.2984e+01	8.6051	87.006331	0.000649	6.486096	1.098774	0.000130
 434	4.3084e+01	8.6252	87.087074	0.000405	4.053810	0.686734	0.000081
 435	4.3183e+01	8.6440	87.228373	0.000709	7.094168	1.201785	0.000142
 436	4.3282e+01	8.6652	87.369673	0.000709	7.094168	1.201785	0.000142
 437	4.3382e+01	8.6835	87.450416	0.000405	4.053810	0.686734	0.000081
 438	4.3481e+01	8.7041	87.595753	0.000730	7.296858	1.236121	0.000146
 439	4.3581e+01	8.7241	87.640161	0.000223	2.229596	0.377704	0.000045
 440	4.3681e+01	8.7437	87.781461	0.000709	7.094168	1.201785	0.000142
 441	4.3780e+01	8.7646	87.910649	0.000649	6.486096	1.098774	0.000130
 442	4.3880e+01	8.7842	87.995429	0.000426	4.256501	0.721071	0.000085
 443	4.3979e+01	8.8028	88.144803	0.000750	7.499549	1.270458	0.000150
 444	4.4078e+01	8.8235	88.221509	0.000385	3.851120	0.652397	0.000077
 445	4.4178e+01	8.8428	88.338586	0.000588	5.878025	0.995764	0.000118
 446	4.4278e+01	8.8626	88.496034	0.000790	7.904930	1.339131	0.000158
 447	4.4377e+01	8.8824	88.540442	0.000223	2.229596	0.377704	0.000045
 448	4.4477e+01	8.9027	88.665594	0.000628	6.283406	1.064438	0.000126
 449	4.4576e+01	8.9233	88.762485	0.000486	4.864572	0.824081	0.000097
 450	4.4675e+01	8.9423	88.907822	0.000730	7.296858	1.236121	0.000146
 451	4.4775e+01	8.9624	89.028936	0.000608	6.080715	1.030101	0.000122
 452	4.4874e+01	8.9833	89.113716	0.000426	4.256501	0.721071	0.000085
 453	4.4974e+01	9.0022	89.242904	0.000649	6.486096	1.098774	0.000130
 454	4.5074e+01	9.0218	89.343832	0.000507	5.067263	0.858418	0.000101
 455	4.5173e+01	9.0415	89.440724	0.000486	4.864572	0.824081	0.000097
 456	4.5273e+01	9.0617	89.545689	0.000527	5.269953	0.892754	0.000105
 457	4.5372e+01	9.0820	89.686989	0.000709	7.094168	1.201785	0.000142
 458	4.5471e+01	9.1019	89.840400	0.000770	7.702239	1.304795	0.000154
 459	4.5571e+01	9.1218	89.900957	0.000304	3.040358	0.515051	0.000061
 460	4.5670e+01	9.1419	90.022071	0.000608	6.080715	1.030101	0.000122
 461	4.5770e+01	9.1631	90.110888	0.000446	4.459191	0.755407	0.000089
 462	4.5870e+01	9.1819	90.240077	0.000649	6.486096	1.098774	0.000130
 463	4.5969e+01	9.2017	90.353116	0.000568	5.675334	0.961428	0.000114
 464	4.6069e+01	9.2212	90.445971	0.000466	4.661882	0.789744	0.000093
 465	4.6168e+01	9.2413	90.554973	0.000547	5.472644	0.927091	0.000110
 466	4.6267e+01	9.2606	90.716459	0.000811	8.107620	1.373468	0.000162
 467	4.6367e+01	9.2804	90.813350	0.000486	4.864572	0.824081	0.000097
 468	4.6467e+01	9.3005	90.914278	0.000507	5.067263	0.858418	0.000101
 469	4.6566e+01	9.3198	91.043467	0.000649	6.486096	1.098774	0.000130
 470	4.6666e+01	9.3408	91.152469	0.000547	5.472644	0.927091	0.000110
 471	4.6765e+01	9.3604	91.277620	0.000628	6.283406	1.064438	0.000126
 472	4.6864e+01	9.3814	91.378549	0.000507	5.067263	0.858418	0.000101
 473	4.6964e+01	9.4007	91.479477	0.000507	5.067263	0.858418	0.000101
 474	4.7063e+01	9.4202	91.592517	0.000568	5.675334	0.961428	0.000114
 475	4.7163e+01	9.4409	91.729780	0.000689	6.891477	1.167448	0.000138
 476	4.7263e+01	9.4601	91.806485	0.000385	3.851120	0.652397	0.000077
 477	4.7362e+01	9.4802	91.935674	0.000649	6.486096	1.098774	0.000130
 478	4.7462e+01	9.5009	92.056788	0.000608	6.080715	1.030101	0.000122
 479	4.7561e+01	9.5215	92.190013	0.000669	6.688787	1.133111	0.000134
 480	4.7660e+01	9.5402	92.294979	0.000527	5.269953	0.892754	0.000105
 481	4.7760e+01	9.5599	92.383796	0.000446	4.459191	0.755407	0.000089
 482	4.7859e+01	9.5791	92.553355	0.000851	8.513001	1.442141	0.000170
 483	4.7959e+01	9.6002	92.613912	0.000304	3.040358	0.515051	0.000061
 484	4.8059e+01	9.6206	92.739064	0.000628	6.283406	1.064438	0.000126
 485	4.8158e+01	9.6394	92.811732	0.000365	3.648429	0.618061	0.000073
 486	4.8258e+01	9.6595	92.973217	0.000811	8.107620	1.373468	0.000162
 487	4.8357e+01	9.6799	93.049923	0.000385	3.851120	0.652397	0.000077
 488	4.8456e+01	9.6989	93.171037	0.000608	6.080715	1.030101	0.000122
 489	4.8556e+01	9.7195	93.296188	0.000628	6.283406	1.064438	0.000126
 490	4.8656e+01	9.7388	93.437488	0.000709	7.094168	1.201785	0.000142
 491	4.8755e+01	9.7589	93.489971	0.000263	2.634977	0.446377	0.000053
 492	4.8855e+01	9.7791	93.619159	0.000649	6.486096	1.098774	0.000130
 493	4.8954e+01	9.7992	93.740273	0.000608	6.080715	1.030101	0.000122
 494	4.9053e+01	9.8195	93.825053	0.000426	4.256501	0.721071	0.000085
 495	4.9153e+01	9.8396	93.994613	0.000851	8.513001	1.442141	0.000170
 496	4.9252e+01	9.8587	94.051133	0.000284	2.837667	0.480714	0.000057
 497	4.9352e+01	9.8792	94.192432	0.000709	7.094168	1.201785	0.000142
 498	4.9452e+01	9.8978	94.277212	0.000426	4.256501	0.721071	0.000085
 499	4.9551e+01	9.9181	94.406401	0.000649	6.486096	1.098774	0.000130
 500	4.9651e+01	9.9384	94.499255	0.000466	4.661882	0.789744	0.000093
 501	4.9750e+01	9.9586	94.632480	0.000669	6.688787	1.133111	0.000134
 502	4.9849e+01	9.9786	94.725334	0.000466	4.661882	0.789744	0.000093
 503	4.9949e+01	9.9984	94.834337	0.000547	5.472644	0.927091	0.000110
 504	5.0048e+01	9.9781	94.765706	0.000345	3.445739	0.583724	-0.000069
 505	5.0148e+01	9.9575	94.660740	0.000527	5.269953	0.892754	-0.000105
 506	5.0248e+01	9.9378	94.616332	0.000223	2.229596	0.377704	-0.000045
 507	5.0347e+01	9.9194	94.547700	0.000345	3.445739	0.583724	-0.000069
 508	5.0447e+01	9.8986	94.446772	0.000507	5.067263	0.858418	-0.000101
 509	5.0546e+01	9.8785	94.370066	0.000385	3.851120	0.652397	-0.000077
 510	5.0645e+01	9.8586	94.281249	0.000446	4.459191	0.755407	-0.000089
 511	5.0745e+01	9.8383	94.180321	0.000507	5.067263	0.858418	-0.000101
 512	5.0844e+01	9.8193	94.095541	0.000426	4.256501	0.721071	-0.000085
 513	5.0944e+01	9.7998	94.018836	0.000385	3.851120	0.652397	-0.000077
 514	5.1044e+01	9.7784	93.930019	0.000446	4.459191	0.755407	-0.000089
 515	5.1143e+01	9.7592	93.877536	0.000263	2.634977	0.446377	-0.000053
 516	5.1242e+01	9.7388	93.780645	0.000486	4.864572	0.824081	-0.000097
 517	5.1342e+01	9.7195	93.699902	0.000405	4.053810	0.686734	-0.000081
 518	5.1441e+01	9.6987	93.586862	0.000568	5.675334	0.961428	-0.000114
 519	5.1541e+01	9.6796	93.514194	0.000365	3.648429	0.618061	-0.000073
 520	5.1641e+01	9.6585	93.405191	0.000547	5.472644	0.927091	-0.000110
 521	5.1740e+01	9.6391	93.344634	0.000304	3.040358	0.515051	-0.000061
 522	5.1840e+01	9.6201	93.251780	0.000466	4.661882	0.789744	-0.000093
 523	5.1939e+01	9.5996	93.167000	0.000426	4.256501	0.721071	-0.000085
 524	5.2038e+01	9.5802	93.082220	0.000426	4.256501	0.721071	-0.000085
 525	5.2138e+01	9.5591	92.973217	0.000547	5.472644	0.927091	-0.000110
 526	5.2237e+01	9.5398	92.892475	0.000405	4.053810	0.686734	-0.000081
 527	5.2337e+01	9.5183	92.799621	0.000466	4.661882	0.789744	-0.000093
 528	5.2437e+01	9.5005	92.718878	0.000405	4.053810	0.686734	-0.000081
 529	5.2536e+01	9.4806	92.646209	0.000365	3.648429	0.618061	-0.000073
 530	5.2636e+01	9.4604	92.557392	0.000446	4.459191	0.755407	-0.000089
 531	5.2735e+01	9.4410	92.476650	0.000405	4.053810	0.686734	-0.000081
 532	5.2834e+01	9.4202	92.383796	0.000466	4.661882	0.789744	-0.000093
 533	5.2934e+01	9.4005	92.258644	0.000628	6.283406	1.064438	-0.000126
 534	5.3033e+01	9.3806	92.194050	0.000324	3.243048	0.549387	-0.000065
 535	5.3133e+01	9.3611	92.105233	0.000446	4.459191	0.755407	-0.000089
 536	5.3233e+01	9.3412	91.996231	0.000547	5.472644	0.927091	-0.000110
 537	5.3332e+01	9.3201	91.935674	0.000304	3.040358	0.515051	-0.000061
 538	5.3431e+01	9.3018	91.863005	0.000365	3.648429	0.618061	-0.000073
 539	5.3531e+01	9.2812	91.766114	0.000486	4.864572	0.824081	-0.000097
 540	5.3630e+01	9.2605	91.640963	0.000628	6.283406	1.064438	-0.000126
 541	5.3730e+01	9.2418	91.572331	0.000345	3.445739	0.583724	-0.000069
 542	5.3830e+01	9.2212	91.475440	0.000486	4.864572	0.824081	-0.000097
 543	5.3929e+01	9.2018	91.370475	0.000527	5.269953	0.892754	-0.000105
 544	5.4029e+01	9.1818	91.317992	0.000263	2.634977	0.446377	-0.000053
 545	5.4128e+01	9.1620	91.176692	0.000709	7.094168	1.201785	-0.000142
 546	5.4227e+01	9.1416	91.116135	0.000304	3.040358	0.515051	-0.000061
 547	5.4327e+01	9.1211	91.007132	0.000547	5.472644	0.927091	-0.000110
 548	5.4426e+01	9.1019	90.898130	0.000547	5.472644	0.927091	-0.000110
 549	5.4526e+01	9.0820	90.785090	0.000568	5.675334	0.961428	-0.000114
 550	5.4626e+01	9.0610	90.692236	0.000466	4.661882	0.789744	-0.000093
 551	5.4725e+01	9.0430	90.567085	0.000628	6.283406	1.064438	-0.000126
 552	5.4825e+01	9.0225	90.506528	0.000304	3.040358	0.515051	-0.000061
 553	5.4924e+01	9.0026	90.417711	0.000446	4.459191	0.755407	-0.000089
 554	5.5023e+01	8.9821	90.308708	0.000547	5.472644	0.927091	-0.000110
 555	5.5123e+01	8.9616	90.195668	0.000568	5.675334	0.961428	-0.000114
 556	5.5222e+01	8.9418	90.118963	0.000385	3.851120	0.652397	-0.000077
 557	5.5322e+01	8.9230	90.038220	0.000405	4.053810	0.686734	-0.000081
 558	5.5422e+01	8.9024	89.921143	0.000588	5.878025	0.995764	-0.000118
 559	5.5521e+01	8.8824	89.860586	0.000304	3.040358	0.515051	-0.000061
 560	5.5620e+01	8.8635	89.727360	0.000669	6.688787	1.133111	-0.000134
 561	5.5720e+01	8.8438	89.626432	0.000507	5.067263	0.858418	-0.000101
 562	5.5819e+01	8.8239	89.529541	0.000486	4.864572	0.824081	-0.000097
 563	5.5919e+01	8.8040	89.436687	0.000466	4.661882	0.789744	-0.000093
 564	5.6019e+01	8.7836	89.331721	0.000527	5.269953	0.892754	-0.000105
 565	5.6118e+01	8.7652	89.238867	0.000466	4.661882	0.789744	-0.000093
 566	5.6218e+01	8.7435	89.105641	0.000669	6.688787	1.133111	-0.000134
 567	5.6317e+01	8.7235	89.041047	0.000324	3.243048	0.549387	-0.000065
 568	5.6416e+01	8.7034	88.919933	0.000608	6.080715	1.030101	-0.000122
 569	5.6516e+01	8.6852	88.867450	0.000263	2.634977	0.446377	-0.000053
 570	5.6615e+01	8.6649	88.738262	0.000649	6.486096	1.098774	-0.000130
 571	5.6715e+01	8.6447	88.596962	0.000709	7.094168	1.201785	-0.000142
 572	5.6815e+01	8.6256	88.544480	0.000263	2.634977	0.446377	-0.000053
 573	5.6914e+01	8.6047	88.475848	0.000345	3.445739	0.583724	-0.000069
 574	5.7014e+01	8.5844	88.330511	0.000730	7.296858	1.236121	-0.000146
 575	5.7113e+01	8.5651	88.233620	0.000486	4.864572	0.824081	-0.000097
 576	5.7212e+01	8.5450	88.148840	0.000426	4.256501	0.721071	-0.000085
 577	5.7312e+01	8.5254	87.999466	0.000750	7.499549	1.270458	-0.000150
 578	5.7411e+01	8.5049	87.963132	0.000182	1.824215	0.309030	-0.000037
 579	5.7511e+01	8.4845	87.842018	0.000608	6.080715	1.030101	-0.000122
 580	5.7611e+01	8.4649	87.749164	0.000466	4.661882	0.789744	-0.000093
 581	5.7710e+01	8.4457	87.619975	0.000649	6.486096	1.098774	-0.000130
 582	5.7809e+01	8.4253	87.551344	0.000345	3.445739	0.583724	-0.000069
 583	5.7909e+01	8.4058	87.418119	0.000669	6.688787	1.133111	-0.000134
 584	5.8008e+01	8.3854	87.329302	0.000446	4.459191	0.755407	-0.000089
 585	5.8108e+01	8.3658	87.228373	0.000507	5.067263	0.858418	-0.000101
 586	5.8208e+01	8.3463	87.139556	0.000446	4.459191	0.755407	-0.000089
 587	5.8307e+01	8.3252	87.014405	0.000628	6.283406	1.064438	-0.000126
 588	5.8407e+01	8.3065	86.945774	0.000345	3.445739	0.583724	-0.000069
 589	5.8506e+01	8.2862	86.840808	0.000527	5.269953	0.892754	-0.000105
 590	5.8605e+01	8.2662	86.707583	0.000669	6.688787	1.133111	-0.000134
 591	5.8705e+01	8.2460	86.630877	0.000385	3.851120	0.652397	-0.000077
 592	5.8804e+01	8.2275	86.533986	0.000486	4.864572	0.824081	-0.000097
 593	5.8904e+01	8.2066	86.429020	0.000527	5.269953	0.892754	-0.000105
 594	5.9004e+01	8.1868	86.360389	0.000345	3.445739	0.583724	-0.000069
 595	5.9103e+01	8.1670	86.194867	0.000831	8.310311	1.407805	-0.000166
 596	5.9203e+01	8.1454	86.134310	0.000304	3.040358	0.515051	-0.000061
 597	5.9302e+01	8.1261	86.029344	0.000527	5.269953	0.892754	-0.000105
 598	5.9401e+01	8.1070	85.908230	0.000608	6.080715	1.030101	-0.000122
 599	5.9501e+01	8.0872	85.803264	0.000527	5.269953	0.892754	-0.000105
 600	5.9600e+01	8.0671	85.694262	0.000547	5.472644	0.927091	-0.000110
 601	5.9700e+01	8.0475	85.617556	0.000385	3.851120	0.652397	-0.000077
 602	5.9800e+01	8.0273	85.496442	0.000608	6.080715	1.030101	-0.000122
 603	5.9899e+01	8.0078	85.387439	0.000547	5.472644	0.927091	-0.000110
 604	5.9998e+01	7.9874	85.290548	0.000486	4.864572	0.824081	-0.000097
 605	6.0098e+01	7.9676	85.213843	0.000385	3.851120	0.652397	-0.000077
 606	6.0197e+01	7.9474	85.076580	0.000689	6.891477	1.167448	-0.000138
 607	6.0297e+01	7.9272	84.987763	0.000446	4.459191	0.755407	-0.000089
 608	6.0397e+01	7.9076	84.919132	0.000345	3.445739	0.583724	-0.000069
 609	6.0496e+01	7.8880	84.781869	0.000689	6.891477	1.167448	-0.000138
 610	6.0596e+01	7.8681	84.668829	0.000568	5.675334	0.961428	-0.000114
 611	6.0695e+01	7.8478	84.571938	0.000486	4.864572	0.824081	-0.000097
 612	6.0794e+01	7.8282	84.479084	0.000466	4.661882	0.789744	-0.000093
 613	6.0894e+01	7.8079	84.333747	0.000730	7.296858	1.236121	-0.000146
 614	6.0993e+01	7.7878	84.265116	0.000345	3.445739	0.583724	-0.000069
 615	6.1093e+01	7.7680	84.139964	0.000628	6.283406	1.064438	-0.000126
 616	6.1193e+01	7.7472	84.014813	0.000628	6.283406	1.064438	-0.000126
 617	6.1292e+01	7.7282	83.905811	0.000547	5.472644	0.927091	-0.000110
 618	6.1392e+01	7.7076	83.845254	0.000304	3.040358	0.515051	-0.000061
 619	6.1491e+01	7.6877	83.712028	0.000669	6.688787	1.133111	-0.000134
 620	6.1590e+01	7.6693	83.603025	0.000547	5.472644	0.927091	-0.000110
 621	6.1690e+01	7.6482	83.481911	0.000608	6.080715	1.030101	-0.000122
 622	6.1789e+01	7.6287	83.385020	0.000486	4.864572	0.824081	-0.000097
 623	6.1889e+01	7.6093	83.284092	0.000507	5.067263	0.858418	-0.000101
 624	6.1989e+01	7.5887	83.175089	0.000547	5.472644	0.927091	-0.000110
 625	6.2088e+01	7.5697	83.066086	0.000547	5.472644	0.927091	-0.000110
 626	6.2188e+01	7.5484	82.957084	0.000547	5.472644	0.927091	-0.000110
 627	6.2287e+01	7.5294	82.872304	0.000426	4.256501	0.721071	-0.000085
 628	6.2386e+01	7.5094	82.739078	0.000669	6.688787	1.133111	-0.000134
 629	6.2486e+01	7.4900	82.654299	0.000426	4.256501	0.721071	-0.000085
 630	6.2586e+01	7.4689	82.545296	0.000547	5.472644	0.927091	-0.000110
 631	6.2685e+01	7.4493	82.448405	0.000486	4.864572	0.824081	-0.000097
 632	6.2785e+01	7.4297	82.327291	0.000608	6.080715	1.030101	-0.000122
 633	6.2884e+01	7.4100	82.230399	0.000486	4.864572	0.824081	-0.000097
 634	6.2983e+01	7.3902	82.117359	0.000568	5.675334	0.961428	-0.000114
 635	6.3083e+01	7.3701	82.020468	0.000486	4.864572	0.824081	-0.000097
 636	6.3182e+01	7.3502	81.951837	0.000345	3.445739	0.583724	-0.000069
 637	6.3282e+01	7.3306	81.826686	0.000628	6.283406	1.064438	-0.000126
 638	6.3382e+01	7.3096	81.709609	0.000588	5.878025	0.995764	-0.000118
 639	6.3481e+01	7.2907	81.600606	0.000547	5.472644	0.927091	-0.000110
 640	6.3581e+01	7.2695	81.495641	0.000527	5.269953	0.892754	-0.000105
 641	6.3680e+01	7.2501	81.406824	0.000446	4.459191	0.755407	-0.000089
 642	6.3779e+01	7.2305	81.273598	0.000669	6.688787	1.133111	-0.000134
 643	6.3879e+01	7.2105	81.168633	0.000527	5.269953	0.892754	-0.000105
 644	6.3978e+01	7.1914	81.079816	0.000446	4.459191	0.755407	-0.000089
 645	6.4078e+01	7.1706	80.970813	0.000547	5.472644	0.927091	-0.000110
 646	6.4177e+01	7.1508	80.865847	0.000527	5.269953	0.892754	-0.000105
 647	6.4277e+01	7.1302	80.740696	0.000628	6.283406	1.064438	-0.000126
 648	6.4376e+01	7.1104	80.663991	0.000385	3.851120	0.652397	-0.000077
 649	6.4476e+01	7.0907	80.579211	0.000426	4.256501	0.721071	-0.000085
 650	6.4576e+01	7.0712	80.433874	0.000730	7.296858	1.236121	-0.000146
 651	6.4675e+01	7.0513	80.316797	0.000588	5.878025	0.995764	-0.000118
 652	6.4775e+01	7.0313	80.236054	0.000405	4.053810	0.686734	-0.000081
 653	6.4874e+01	7.0117	80.131089	0.000527	5.269953	0.892754	-0.000105
 654	6.4974e+01	6.9909	80.018049	0.000568	5.675334	0.961428	-0.000114
 655	6.5073e+01	6.9709	79.896935	0.000608	6.080715	1.030101	-0.000122
 656	6.5172e+01	6.9516	79.796006	0.000507	5.067263	0.858418	-0.000101
 657	6.5272e+01	6.9320	79.670855	0.000628	6.283406	1.064438	-0.000126
 658	6.5371e+01	6.9115	79.553778	0.000588	5.878025	0.995764	-0.000118
 659	6.5471e+01	6.8915	79.481110	0.000365	3.648429	0.618061	-0.000073
 660	6.5570e+01	6.8715	79.376144	0.000527	5.269953	0.892754	-0.000105
 661	6.5670e+01	6.8520	79.250993	0.000628	6.283406	1.064438	-0.000126
 662	6.5769e+01	6.8324	79.158139	0.000466	4.661882	0.789744	-0.000093
 663	6.5869e+01	6.8116	79.049136	0.000547	5.472644	0.927091	-0.000110
 664	6.5969e+01	6.7913	78.919948	0.000649	6.486096	1.098774	-0.000130
 665	6.6068e+01	6.7725	78.814982	0.000527	5.269953	0.892754	-0.000105
 666	6.6168e+01	6.7524	78.697906	0.000588	5.878025	0.995764	-0.000118
 667	6.6267e+01	6.7323	78.592940	0.000527	5.269953	0.892754	-0.000105
 668	6.6367e+01	6.7127	78.483937	0.000547	5.472644	0.927091	-0.000110
 669	6.6466e+01	6.6915	78.350712	0.000669	6.688787	1.133111	-0.000134
 670	6.6566e+01	6.6732	78.274006	0.000385	3.851120	0.652397	-0.000077
 671	6.6665e+01	6.6525	78.152892	0.000608	6.080715	1.030101	-0.000122
 672	6.6764e+01	6.6325	78.039852	0.000568	5.675334	0.961428	-0.000114
 673	6.6864e+01	6.6126	77.910664	0.000649	6.486096	1.098774	-0.000130
 674	6.6963e+01	6.5923	77.805699	0.000527	5.269953	0.892754	-0.000105
 675	6.7063e+01	6.5721	77.704770	0.000507	5.067263	0.858418	-0.000101
 676	6.7162e+01	6.5527	77.579619	0.000628	6.283406	1.064438	-0.000126
 677	6.7262e+01	6.5337	77.450431	0.000649	6.486096	1.098774	-0.000130
 678	6.7362e+01	6.5133	77.357576	0.000466	4.661882	0.789744	-0.000093
 679	6.7461e+01	6.4930	77.264722	0.000466	4.661882	0.789744	-0.000093
 680	6.7561e+01	6.4733	77.131497	0.000669	6.688787	1.133111	-0.000134
 681	6.7660e+01	6.4530	76.994234	0.000689	6.891477	1.167448	-0.000138
 682	6.7760e+01	6.4337	76.917529	0.000385	3.851120	0.652397	-0.000077
 683	6.7859e+01	6.4127	76.828712	0.000446	4.459191	0.755407	-0.000089
 684	6.7959e+01	6.3923	76.687412	0.000709	7.094168	1.201785	-0.000142
 685	6.8058e+01	6.3731	76.546112	0.000709	7.094168	1.201785	-0.000142
 686	6.8157e+01	6.3540	76.429035	0.000588	5.878025	0.995764	-0.000118
 687	6.8257e+01	6.3335	76.315995	0.000568	5.675334	0.961428	-0.000114
 688	6.8356e+01	6.3135	76.215067	0.000507	5.067263	0.858418	-0.000101
 689	6.8456e+01	6.2944	76.118176	0.000486	4.864572	0.824081	-0.000097
 690	6.8555e+01	6.2744	75.980913	0.000689	6.891477	1.167448	-0.000138
 691	6.8655e+01	6.2548	75.884022	0.000486	4.864572	0.824081	-0.000097
 692	6.8754e+01	6.2350	75.750796	0.000669	6.688787	1.133111	-0.000134
 693	6.8854e+01	6.2146	75.666017	0.000426	4.256501	0.721071	-0.000085
 694	6.8954e+01	6.1947	75.577200	0.000446	4.459191	0.755407	-0.000089
 695	6.9053e+01	6.1750	75.435900	0.000709	7.094168	1.201785	-0.000142
 696	6.9153e+01	6.1552	75.302674	0.000669	6.688787	1.133111	-0.000134
 697	6.9252e+01	6.1358	75.221932	0.000405	4.053810	0.686734	-0.000081
 698	6.9352e+01	6.1144	75.096780	0.000628	6.283406	1.064438	-0.000126
 699	6.9451e+01	6.0948	74.967592	0.000649	6.486096	1.098774	-0.000130
 700	6.9550e+01	6.0762	74.854552	0.000568	5.675334	0.961428	-0.000114
 701	6.9650e+01	6.0558	74.753624	0.000507	5.067263	0.858418	-0.000101
 702	6.9749e+01	6.0353	74.616361	0.000689	6.891477	1.167448	-0.000138
 703	6.9849e+01	6.0156	74.519470	0.000486	4.864572	0.824081	-0.000097
 704	6.9948e+01	5.9966	74.418542	0.000507	5.067263	0.858418	-0.000101
 705	7.0048e+01	5.9762	74.265130	0.000770	7.702239	1.304795	-0.000154
 706	7.0147e+01	5.9563	74.148054	0.000588	5.878025	0.995764	-0.000118
 707	7.0247e+01	5.9354	74.039051	0.000547	5.472644	0.927091	-0.000110
 708	7.0347e+01	5.9162	73.934085	0.000527	5.269953	0.892754	-0.000105
 709	7.0446e+01	5.8953	73.808934	0.000628	6.283406	1.064438	-0.000126
 710	7.0546e+01	5.8759	73.724154	0.000426	4.256501	0.721071	-0.000085
 711	7.0645e+01	5.8565	73.558632	0.000831	8.310311	1.407805	-0.000166
 712	7.0745e+01	5.8370	73.465778	0.000466	4.661882	0.789744	-0.000093
 713	7.0844e+01	5.8166	73.348701	0.000588	5.878025	0.995764	-0.000118
 714	7.0944e+01	5.7961	73.219512	0.000649	6.486096	1.098774	-0.000130
 715	7.1043e+01	5.7760	73.130695	0.000446	4.459191	0.755407	-0.000089
 716	7.1142e+01	5.7555	72.985358	0.000730	7.296858	1.236121	-0.000146
 717	7.1242e+01	5.7366	72.860207	0.000628	6.283406	1.064438	-0.000126
 718	7.1341e+01	5.7165	72.735056	0.000628	6.283406	1.064438	-0.000126
 719	7.1441e+01	5.6980	72.622016	0.000568	5.675334	0.961428	-0.000114
 720	7.1540e+01	5.6765	72.492828	0.000649	6.486096	1.098774	-0.000130
 721	7.1640e+01	5.6562	72.363640	0.000649	6.486096	1.098774	-0.000130
 722	7.1740e+01	5.6368	72.246563	0.000588	5.878025	0.995764	-0.000118
 723	7.1839e+01	5.6179	72.141597	0.000527	5.269953	0.892754	-0.000105
 724	7.1939e+01	5.5970	71.984149	0.000790	7.904930	1.339131	-0.000158
 725	7.2038e+01	5.5782	71.891295	0.000466	4.661882	0.789744	-0.000093
 726	7.2138e+01	5.5570	71.766143	0.000628	6.283406	1.064438	-0.000126
 727	7.2237e+01	5.5366	71.645029	0.000608	6.080715	1.030101	-0.000122
 728	7.2337e+01	5.5170	71.507767	0.000689	6.891477	1.167448	-0.000138
 729	7.2436e+01	5.4971	71.386653	0.000608	6.080715	1.030101	-0.000122
 730	7.2535e+01	5.4775	71.281687	0.000527	5.269953	0.892754	-0.000105
 731	7.2635e+01	5.4574	71.140387	0.000709	7.094168	1.201785	-0.000142
 732	7.2734e+01	5.4377	71.023310	0.000588	5.878025	0.995764	-0.000118
 733	7.2834e+01	5.4180	70.890085	0.000669	6.688787	1.133111	-0.000134
 734	7.2933e+01	5.3984	70.760897	0.000649	6.486096	1.098774	-0.000130
 735	7.3033e+01	5.3774	70.651894	0.000547	5.472644	0.927091	-0.000110
 736	7.3132e+01	5.3576	70.522706	0.000649	6.486096	1.098774	-0.000130
 737	7.3232e+01	5.3389	70.385443	0.000689	6.891477	1.167448	-0.000138
 738	7.3332e+01	5.3182	70.252218	0.000669	6.688787	1.133111	-0.000134
 739	7.3431e+01	5.2982	70.118992	0.000669	6.688787	1.133111	-0.000134
 740	7.3531e+01	5.2782	70.042286	0.000385	3.851120	0.652397	-0.000077
 741	7.3630e+01	5.2586	69.905024	0.000689	6.891477	1.167448	-0.000138
 742	7.3730e+01	5.2396	69.759687	0.000730	7.296858	1.236121	-0.000146
 743	7.3829e+01	5.2187	69.662796	0.000486	4.864572	0.824081	-0.000097
 744	7.3928e+01	5.1982	69.521496	0.000709	7.094168	1.201785	-0.000142
 745	7.4028e+01	5.1793	69.404419	0.000588	5.878025	0.995764	-0.000118
 746	7.4127e+01	5.1591	69.287342	0.000588	5.878025	0.995764	-0.000118
 747	7.4227e+01	5.1391	69.170265	0.000588	5.878025	0.995764	-0.000118
 748	7.4326e+01	5.1191	69.016854	0.000770	7.702239	1.304795	-0.000154
 749	7.4426e+01	5.0999	68.891703	0.000628	6.283406	1.064438	-0.000126
 750	7.4525e+01	5.0790	68.770589	0.000608	6.080715	1.030101	-0.000122
 751	7.4625e+01	5.0595	68.649475	0.000608	6.080715	1.030101	-0.000122
 752	7.4725e+01	5.0401	68.524323	0.000628	6.283406	1.064438	-0.000126
 753	7.4824e+01	5.0199	68.403209	0.000608	6.080715	1.030101	-0.000122
 754	7.4924e+01	5.0002	68.298244	0.000527	5.269953	0.892754	-0.000105
 755	7.5023e+01	4.9801	68.128684	0.000851	8.513001	1.442141	-0.000170
 756	7.5123e+01	4.9602	68.023719	0.000527	5.269953	0.892754	-0.000105
 757	7.5222e+01	4.9406	67.910679	0.000568	5.675334	0.961428	-0.000114
 758	7.5322e+01	4.9201	67.733045	0.000892	8.918382	1.510815	-0.000179
 759	7.5421e+01	4.8992	67.656339	0.000385	3.851120	0.652397	-0.000077
 760	7.5520e+01	4.8806	67.511002	0.000730	7.296858	1.236121	-0.000146
 761	7.5620e+01	4.8602	67.406037	0.000527	5.269953	0.892754	-0.000105
 762	7.5719e+01	4.8409	67.280886	0.000628	6.283406	1.064438	-0.000126
 763	7.5819e+01	4.8212	67.123437	0.000790	7.904930	1.339131	-0.000158
 764	7.5918e+01	4.8000	67.002323	0.000608	6.080715	1.030101	-0.000122
 765	7.6018e+01	4.7803	66.873135	0.000649	6.486096	1.098774	-0.000130
 766	7.6118e+01	4.7610	66.772207	0.000507	5.067263	0.858418	-0.000101
 767	7.6217e+01	4.7402	66.614758	0.000790	7.904930	1.339131	-0.000158
 768	7.6317e+01	4.7204	66.489607	0.000628	6.283406	1.064438	-0.000126
 769	7.6416e+01	4.7005	66.372530	0.000588	5.878025	0.995764	-0.000118
 770	7.6516e+01	4.6810	66.235267	0.000689	6.891477	1.167448	-0.000138
 771	7.6615e+01	4.6601	66.122228	0.000568	5.675334	0.961428	-0.000114
 772	7.6715e+01	4.6422	66.001114	0.000608	6.080715	1.030101	-0.000122
 773	7.6814e+01	4.6212	65.851740	0.000750	7.499549	1.270458	-0.000150
 774	7.6913e+01	4.6014	65.714477	0.000689	6.891477	1.167448	-0.000138
 775	7.7013e+01	4.5812	65.597400	0.000588	5.878025	0.995764	-0.000118
 776	7.7112e+01	4.5621	65.456100	0.000709	7.094168	1.201785	-0.000142
 777	7.7212e+01	4.5411	65.306726	0.000750	7.499549	1.270458	-0.000150
 778	7.7311e+01	4.5220	65.169464	0.000689	6.891477	1.167448	-0.000138
 779	7.7411e+01	4.5020	65.068535	0.000507	5.067263	0.858418	-0.000101
 780	7.7510e+01	4.4814	64.939347	0.000649	6.486096	1.098774	-0.000130
 781	7.7610e+01	4.4609	64.818233	0.000608	6.080715	1.030101	-0.000122
 782	7.7710e+01	4.4413	64.672896	0.000730	7.296858	1.236121	-0.000146
 783	7.7809e+01	4.4228	64.531596	0.000709	7.094168	1.201785	-0.000142
 784	7.7909e+01	4.4031	64.394334	0.000689	6.891477	1.167448	-0.000138
 785	7.8008e+01	4.3826	64.232848	0.000811	8.107620	1.373468	-0.000162
 786	7.8108e+01	4.3621	64.164217	0.000345	3.445739	0.583724	-0.000069
 787	7.8207e+01	4.3425	64.026954	0.000689	6.891477	1.167448	-0.000138
 788	7.8306e+01	4.3214	63.889692	0.000689	6.891477	1.167448	-0.000138
 789	7.8406e+01	4.3018	63.732243	0.000790	7.904930	1.339131	-0.000158
 790	7.8505e+01	4.2826	63.623241	0.000547	5.472644	0.927091	-0.000110
 791	7.8605e+01	4.2626	63.506164	0.000588	5.878025	0.995764	-0.000118
 792	7.8704e+01	4.2428	63.328530	0.000892	8.918382	1.510815	-0.000179
 793	7.8804e+01	4.2227	63.215490	0.000568	5.675334	0.961428	-0.000114
 794	7.8903e+01	4.2030	63.078227	0.000689	6.891477	1.167448	-0.000138
 795	7.9003e+01	4.1829	62.924816	0.000770	7.702239	1.304795	-0.000154
 796	7.9103e+01	4.1630	62.791591	0.000669	6.688787	1.133111	-0.000134
 797	7.9202e+01	4.1424	62.670477	0.000608	6.080715	1.030101	-0.000122
 798	7.9302e+01	4.1235	62.549363	0.000608	6.080715	1.030101	-0.000122
 799	7.9401e+01	4.1029	62.412100	0.000689	6.891477	1.167448	-0.000138
 800	7.9501e+01	4.0831	62.246577	0.000831	8.310311	1.407805	-0.000166
 801	7.9600e+01	4.0646	62.161798	0.000426	4.256501	0.721071	-0.000085
 802	7.9700e+01	4.0432	61.992238	0.000851	8.513001	1.442141	-0.000170
 803	7.9799e+01	4.0234	61.883235	0.000547	5.472644	0.927091	-0.000110
 804	7.9898e+01	4.0036	61.774232	0.000547	5.472644	0.927091	-0.000110
 805	7.9998e+01	3.9832	61.624858	0.000750	7.499549	1.270458	-0.000150
 806	8.0097e+01	3.9642	61.483559	0.000709	7.094168	1.201785	-0.000142
 807	8.0197e+01	3.9435	61.378593	0.000527	5.269953	0.892754	-0.000105
 808	8.0296e+01	3.9238	61.225182	0.000770	7.702239	1.304795	-0.000154
 809	8.0396e+01	3.9039	61.075808	0.000750	7.499549	1.270458	-0.000150
 810	8.0496e+01	3.8833	60.942583	0.000669	6.688787	1.133111	-0.000134
 811	8.0595e+01	3.8642	60.873951	0.000345	3.445739	0.583724	-0.000069
 812	8.0695e+01	3.8442	60.684206	0.000953	9.526454	1.613825	-0.000191
 813	8.0794e+01	3.8242	60.555018	0.000649	6.486096	1.098774	-0.000130
 814	8.0894e+01	3.8036	60.409681	0.000730	7.296858	1.236121	-0.000146
 815	8.0993e+01	3.7850	60.316826	0.000466	4.661882	0.789744	-0.000093
 816	8.1093e+01	3.7659	60.171490	0.000730	7.296858	1.236121	-0.000146
 817	8.1192e+01	3.7460	60.030190	0.000709	7.094168	1.201785	-0.000142
 818	8.1291e+01	3.7250	59.896964	0.000669	6.688787	1.133111	-0.000134
 819	8.1391e+01	3.7045	59.767776	0.000649	6.486096	1.098774	-0.000130
 820	8.1490e+01	3.6849	59.650699	0.000588	5.878025	0.995764	-0.000118
 821	8.1590e+01	3.6651	59.485177	0.000831	8.310311	1.407805	-0.000166
 822	8.1689e+01	3.6447	59.376174	0.000547	5.472644	0.927091	-0.000110
 823	8.1789e+01	3.6254	59.206614	0.000851	8.513001	1.442141	-0.000170
 824	8.1888e+01	3.6050	59.077426	0.000649	6.486096	1.098774	-0.000130
 825	8.1988e+01	3.5856	58.952275	0.000628	6.283406	1.064438	-0.000126
 826	8.2088e+01	3.5662	58.823086	0.000649	6.486096	1.098774	-0.000130
 827	8.2187e+01	3.5461	58.701972	0.000608	6.080715	1.030101	-0.000122
 828	8.2287e+01	3.5267	58.556635	0.000730	7.296858	1.236121	-0.000146
 829	8.2386e+01	3.5060	58.411298	0.000730	7.296858	1.236121	-0.000146
 830	8.2486e+01	3.4856	58.249813	0.000811	8.107620	1.373468	-0.000162
 831	8.2585e+01	3.4663	58.144847	0.000527	5.269953	0.892754	-0.000105
 832	8.2684e+01	3.4465	57.963176	0.000912	9.121073	1.545152	-0.000183
 833	8.2784e+01	3.4268	57.858211	0.000527	5.269953	0.892754	-0.000105
 834	8.2883e+01	3.4063	57.700763	0.000790	7.904930	1.339131	-0.000158
 835	8.2983e+01	3.3861	57.591760	0.000547	5.472644	0.927091	-0.000110
 836	8.3082e+01	3.3661	57.438349	0.000770	7.702239	1.304795	-0.000154
 837	8.3182e+01	3.3462	57.288975	0.000750	7.499549	1.270458	-0.000150
 838	8.3281e+01	3.3264	57.167861	0.000608	6.080715	1.030101	-0.000122
 839	8.3381e+01	3.3070	57.018487	0.000750	7.499549	1.270458	-0.000150
 840	8.3481e+01	3.2865	56.877187	0.000709	7.094168	1.201785	-0.000142
 841	8.3580e+01	3.2659	56.768184	0.000547	5.472644	0.927091	-0.000110
 842	8.3680e+01	3.2467	56.610736	0.000790	7.904930	1.339131	-0.000158
 843	8.3779e+01	3.2264	56.437139	0.000872	8.715692	1.476478	-0.000174
 844	8.3879e+01	3.2064	56.360433	0.000385	3.851120	0.652397	-0.000077
 845	8.3978e+01	3.1869	56.170688	0.000953	9.526454	1.613825	-0.000191
 846	8.4078e+01	3.1674	56.065723	0.000527	5.269953	0.892754	-0.000105
 847	8.4177e+01	3.1482	55.892126	0.000872	8.715692	1.476478	-0.000174
 848	8.4276e+01	3.1267	55.766975	0.000628	6.283406	1.064438	-0.000126
 849	8.4376e+01	3.1068	55.605489	0.000811	8.107620	1.373468	-0.000162
 850	8.4475e+01	3.0869	55.464189	0.000709	7.094168	1.201785	-0.000142
 851	8.4575e+01	3.0669	55.318852	0.000730	7.296858	1.236121	-0.000146
 852	8.4674e+01	3.0476	55.189664	0.000649	6.486096	1.098774	-0.000130
 853	8.4774e+01	3.0279	55.088736	0.000507	5.067263	0.858418	-0.000101
 854	8.4874e+01	3.0085	54.919176	0.000851	8.513001	1.442141	-0.000170
 855	8.4973e+01	2.9869	54.753653	0.000831	8.310311	1.407805	-0.000166
 856	8.5073e+01	2.9672	54.620428	0.000669	6.688787	1.133111	-0.000134
 857	8.5172e+01	2.9476	54.475091	0.000730	7.296858	1.236121	-0.000146
 858	8.5272e+01	2.9276	54.309569	0.000831	8.310311	1.407805	-0.000166
 859	8.5371e+01	2.9079	54.172306	0.000689	6.891477	1.167448	-0.000138
 860	8.5471e+01	2.8872	54.059266	0.000568	5.675334	0.961428	-0.000114
 861	8.5570e+01	2.8683	53.958338	0.000507	5.067263	0.858418	-0.000101
 862	8.5669e+01	2.8483	53.760518	0.000993	9.931835	1.682498	-0.000199
 863	8.5769e+01	2.8284	53.635367	0.000628	6.283406	1.064438	-0.000126
 864	8.5868e+01	2.8082	53.498104	0.000689	6.891477	1.167448	-0.000138
 865	8.5968e+01	2.7890	53.340656	0.000790	7.904930	1.339131	-0.000158
 866	8.6067e+01	2.7688	53.187245	0.000770	7.702239	1.304795	-0.000154
 867	8.6167e+01	2.7490	53.045945	0.000709	7.094168	1.201785	-0.000142
 868	8.6266e+01	2.7286	52.924831	0.000608	6.080715	1.030101	-0.000122
 869	8.6366e+01	2.7093	52.775457	0.000750	7.499549	1.270458	-0.000150
 870	8.6466e+01	2.6893	52.662417	0.000568	5.675334	0.961428	-0.000114
 871	8.6565e+01	2.6694	52.472672	0.000953	9.526454	1.613825	-0.000191
 872	8.6665e+01	2.6475	52.335409	0.000689	6.891477	1.167448	-0.000138
 873	8.6764e+01	2.6291	52.250629	0.000426	4.256501	0.721071	-0.000085
 874	8.6864e+01	2.6086	52.040698	0.001054	10.539906	1.785508	-0.000211
 875	8.6963e+01	2.5888	51.850953	0.000953	9.526454	1.613825	-0.000191
 876	8.7063e+01	2.5694	51.750024	0.000507	5.067263	0.858418	-0.000101
 877	8.7162e+01	2.5488	51.588539	0.000811	8.107620	1.373468	-0.000162
 878	8.7261e+01	2.5293	51.427054	0.000811	8.107620	1.373468	-0.000162
 879	8.7361e+01	2.5094	51.366497	0.000304	3.040358	0.515051	-0.000061
 880	8.7460e+01	2.4895	51.217123	0.000750	7.499549	1.270458	-0.000150
 881	8.7560e+01	2.4693	51.007191	0.001054	10.539906	1.785508	-0.000211
 882	8.7659e+01	2.4494	50.878003	0.000649	6.486096	1.098774	-0.000130
 883	8.7759e+01	2.4305	50.740741	0.000689	6.891477	1.167448	-0.000138
 884	8.7859e+01	2.4093	50.583292	0.000790	7.904930	1.339131	-0.000158
 885	8.7958e+01	2.3897	50.421807	0.000811	8.107620	1.373468	-0.000162
 886	8.8058e+01	2.3693	50.280507	0.000709	7.094168	1.201785	-0.000142
 887	8.8157e+01	2.3503	50.127096	0.000770	7.702239	1.304795	-0.000154
 888	8.8257e+01	2.3298	49.985796	0.000709	7.094168	1.201785	-0.000142
 889	8.8356e+01	2.3106	49.828348	0.000790	7.904930	1.339131	-0.000158
 890	8.8456e+01	2.2906	49.683011	0.000730	7.296858	1.236121	-0.000146
 891	8.8555e+01	2.2713	49.525563	0.000790	7.904930	1.339131	-0.000158
 892	8.8654e+01	2.2507	49.360040	0.000831	8.310311	1.407805	-0.000166
 893	8.8754e+01	2.2295	49.234889	0.000628	6.283406	1.064438	-0.000126
 894	8.8853e+01	2.2107	49.057255	0.000892	8.918382	1.510815	-0.000179
 895	8.8953e+01	2.1918	48.928067	0.000649	6.486096	1.098774	-0.000130
 896	8.9052e+01	2.1713	48.770618	0.000790	7.904930	1.339131	-0.000158
 897	8.9152e+01	2.1516	48.572799	0.000993	9.931835	1.682498	-0.000199
 898	8.9251e+01	2.1306	48.463796	0.000547	5.472644	0.927091	-0.000110
 899	8.9351e+01	2.1109	48.278088	0.000932	9.323763	1.579488	-0.000187
 900	8.9451e+01	2.0909	48.132751	0.000730	7.296858	1.236121	-0.000146
 901	8.9550e+01	2.0708	48.003562	0.000649	6.486096	1.098774	-0.000130
 902	8.9650e+01	2.0512	47.834003	0.000851	8.513001	1.442141	-0.000170
 903	8.9749e+01	2.0313	47.708852	0.000628	6.283406	1.064438	-0.000126
 904	8.9849e+01	2.0121	47.563515	0.000730	7.296858	1.236121	-0.000146
 905	8.9948e+01	1.9913	47.353584	0.001054	10.539906	1.785508	-0.000211
 906	9.0047e+01	1.9719	47.236507	0.000588	5.878025	0.995764	-0.000118
 907	9.0147e+01	1.9514	47.083096	0.000770	7.702239	1.304795	-0.000154
 908	9.0246e+01	1.9315	46.913536	0.000851	8.513001	1.442141	-0.000170
 909	9.0346e+01	1.9118	46.792422	0.000608	6.080715	1.030101	-0.000122
 910	9.0445e+01	1.8925	46.578454	0.001074	10.742597	1.819845	-0.000215
 911	9.0545e+01	1.8736	46.465414	0.000568	5.675334	0.961428	-0.000114
 912	9.0644e+01	1.8519	46.283743	0.000912	9.121073	1.545152	-0.000183
 913	9.0744e+01	1.8321	46.138406	0.000730	7.296858	1.236121	-0.000146
 914	9.0844e+01	1.8121	45.993069	0.000730	7.296858	1.236121	-0.000146
 915	9.0943e+01	1.7922	45.815435	0.000892	8.918382	1.510815	-0.000179
 916	9.1043e+01	1.7728	45.666061	0.000750	7.499549	1.270458	-0.000150
 917	9.1142e+01	1.7525	45.508613	0.000790	7.904930	1.339131	-0.000158
 918	9.1242e+01	1.7315	45.383461	0.000628	6.283406	1.064438	-0.000126
 919	9.1341e+01	1.7119	45.209865	0.000872	8.715692	1.476478	-0.000174
 920	9.1441e+01	1.6917	45.032231	0.000892	8.918382	1.510815	-0.000179
 921	9.1540e+01	1.6730	44.903042	0.000649	6.486096	1.098774	-0.000130
 922	9.1639e+01	1.6518	44.757705	0.000730	7.296858	1.236121	-0.000146
 923	9.1739e+01	1.6328	44.571997	0.000932	9.323763	1.579488	-0.000187
 924	9.1838e+01	1.6128	44.434735	0.000689	6.891477	1.167448	-0.000138
 925	9.1938e+01	1.5928	44.285360	0.000750	7.499549	1.270458	-0.000150
 926	9.2037e+01	1.5732	44.176358	0.000547	5.472644	0.927091	-0.000110
 927	9.2137e+01	1.5533	43.974501	0.001013	10.134525	1.716835	-0.000203
 928	9.2237e+01	1.5328	43.837238	0.000689	6.891477	1.167448	-0.000138
 929	9.2336e+01	1.5135	43.699976	0.000689	6.891477	1.167448	-0.000138
 930	9.2436e+01	1.4933	43.530416	0.000851	8.513001	1.442141	-0.000170
 931	9.2535e+01	1.4735	43.364894	0.000831	8.310311	1.407805	-0.000166
 932	9.2635e+01	1.4539	43.223594	0.000709	7.094168	1.201785	-0.000142
 933	9.2734e+01	1.4336	43.070183	0.000770	7.702239	1.304795	-0.000154
 934	9.2834e+01	1.4132	42.880437	0.000953	9.526454	1.613825	-0.000191
 935	9.2933e+01	1.3934	42.735100	0.000730	7.296858	1.236121	-0.000146
 936	9.3032e+01	1.3742	42.581689	0.000770	7.702239	1.304795	-0.000154
 937	9.3132e+01	1.3544	42.412129	0.000851	8.513001	1.442141	-0.000170
 938	9.3231e+01	1.3342	42.278904	0.000669	6.688787	1.133111	-0.000134
 939	9.3331e+01	1.3137	42.137604	0.000709	7.094168	1.201785	-0.000142
 940	9.3430e+01	1.2939	41.955933	0.000912	9.121073	1.545152	-0.000183
 941	9.3530e+01	1.2741	41.778299	0.000892	8.918382	1.510815	-0.000179
 942	9.3629e+01	1.2547	41.657185	0.000608	6.080715	1.030101	-0.000122
 943	9.3729e+01	1.2350	41.455328	0.001013	10.134525	1.716835	-0.000203
 944	9.3829e+01	1.2151	41.326140	0.000649	6.486096	1.098774	-0.000130
 945	9.3928e+01	1.1938	41.148506	0.000892	8.918382	1.510815	-0.000179
 946	9.4028e+01	1.1751	41.015281	0.000669	6.688787	1.133111	-0.000134
 947	9.4127e+01	1.1552	40.853795	0.000811	8.107620	1.373468	-0.000162
 948	9.4227e+01	1.1355	40.676161	0.000892	8.918382	1.510815	-0.000179
 949	9.4326e+01	1.1158	40.498527	0.000892	8.918382	1.510815	-0.000179
 950	9.4425e+01	1.0950	40.357227	0.000709	7.094168	1.201785	-0.000142
 951	9.4525e+01	1.0754	40.215928	0.000709	7.094168	1.201785	-0.000142
 952	9.4624e+01	1.0563	40.050405	0.000831	8.310311	1.407805	-0.000166
 953	9.4724e+01	1.0356	39.884883	0.000831	8.310311	1.407805	-0.000166
 954	9.4823e+01	1.0163	39.719360	0.000831	8.310311	1.407805	-0.000166
 955	9.4923e+01	0.9959	39.586134	0.000669	6.688787	1.133111	-0.000134
 956	9.5022e+01	0.9756	39.420612	0.000831	8.310311	1.407805	-0.000166
 957	9.5122e+01	0.9560	39.238941	0.000912	9.121073	1.545152	-0.000183
 958	9.5222e+01	0.9356	39.024973	0.001074	10.742597	1.819845	-0.000215
 959	9.5321e+01	0.9163	38.944230	0.000405	4.053810	0.686734	-0.000081
 960	9.5421e+01	0.8961	38.722187	0.001115	11.147978	1.888519	-0.000223
 961	9.5520e+01	0.8767	38.564739	0.000790	7.904930	1.339131	-0.000158
 962	9.5620e+01	0.8563	38.471885	0.000466	4.661882	0.789744	-0.000093
 963	9.5719e+01	0.8367	38.286177	0.000932	9.323763	1.579488	-0.000187
 964	9.5819e+01	0.8165	38.104506	0.000912	9.121073	1.545152	-0.000183
 965	9.5918e+01	0.7966	37.959169	0.000730	7.296858	1.236121	-0.000146
 966	9.6017e+01	0.7779	37.785572	0.000872	8.715692	1.476478	-0.000174
 967	9.6117e+01	0.7570	37.624087	0.000811	8.107620	1.373468	-0.000162
 968	9.6216e+01	0.7360	37.458564	0.000831	8.310311	1.407805	-0.000166
 969	9.6316e+01	0.7169	37.341487	0.000588	5.878025	0.995764	-0.000118
 970	9.6415e+01	0.6967	37.159816	0.000912	9.121073	1.545152	-0.000183
 971	9.6515e+01	0.6770	36.986219	0.000872	8.715692	1.476478	-0.000174
 972	9.6615e+01	0.6570	36.828771	0.000790	7.904930	1.339131	-0.000158
 973	9.6714e+01	0.6372	36.703620	0.000628	6.283406	1.064438	-0.000126
 974	9.6814e+01	0.6174	36.542134	0.000811	8.107620	1.373468	-0.000162
 975	9.6913e+01	0.5970	36.388723	0.000770	7.702239	1.304795	-0.000154
 976	9.7013e+01	0.5776	36.219163	0.000851	8.513001	1.442141	-0.000170
 977	9.7112e+01	0.5573	36.041529	0.000892	8.918382	1.510815	-0.000179
 978	9.7212e+01	0.5374	35.912341	0.000649	6.486096	1.098774	-0.000130
 979	9.7311e+01	0.5173	35.726633	0.000932	9.323763	1.579488	-0.000187
 980	9.7410e+01	0.4984	35.577259	0.000750	7.499549	1.270458	-0.000150
 981	9.7510e+01	0.4774	35.435959	0.000709	7.094168	1.201785	-0.000142
 982	9.7609e+01	0.4575	35.294659	0.000709	7.094168	1.201785	-0.000142
 983	9.7709e+01	0.4376	35.117025	0.000892	8.918382	1.510815	-0.000179
 984	9.7808e+01	0.4177	34.959577	0.000790	7.904930	1.339131	-0.000158
 985	9.7908e+01	0.3980	34.749646	0.001054	10.539906	1.785508	-0.000211
 986	9.8007e+01	0.3781	34.608346	0.000709	7.094168	1.201785	-0.000142
 987	9.8107e+01	0.3585	34.434749	0.000872	8.715692	1.476478	-0.000174
 988	9.8207e+01	0.3385	34.289412	0.000730	7.296858	1.236121	-0.000146
 989	9.8306e+01	0.3188	34.103704	0.000932	9.323763	1.579488	-0.000187
 990	9.8406e+01	0.2984	33.950293	0.000770	7.702239	1.304795	-0.000154
 991	9.8505e+01	0.2783	33.861476	0.000446	4.459191	0.755407	-0.000089
 992	9.8605e+01	0.2583	33.643471	0.001095	10.945287	1.854182	-0.000219
 993	9.8704e+01	0.2380	33.486022	0.000790	7.904930	1.339131	-0.000158
 994	9.8803e+01	0.2193	33.312426	0.000872	8.715692	1.476478	-0.000174
 995	9.8903e+01	0.1987	33.191311	0.000608	6.080715	1.030101	-0.000122
 996	9.9002e+01	0.1777	32.981380	0.001054	10.539906	1.785508	-0.000211
 997	9.9102e+01	0.1598	32.836044	0.000730	7.296858	1.236121	-0.000146
 998	9.9201e+01	0.1391	32.626112	0.001054	10.539906	1.785508	-0.000211
 999	9.9301e+01	0.1183	32.500961	0.000628	6.283406	1.064438	-0.000126
1000	9.9400e+01	0.0987	32.331402	0.000851	8.513001	1.442141	-0.000170
1001	9.9500e+01	0.0787	32.173953	0.000790	7.904930	1.339131	-0.000158
1002	9.9600e+01	0.0585	32.008431	0.000831	8.310311	1.407805	-0.000166
1003	9.9699e+01	0.0401	31.846945	0.000811	8.107620	1.373468	-0.000162
1004	9.9799e+01	0.0200	31.665274	0.000912	9.121073	1.545152	-0.000183
1005	9.9898e+01	-0.0005	31.556271	0.000547	5.472644	0.927091	-0.000110
1006	9.9998e+01	-0.0187	31.382675	0.000872	8.715692	1.476478	-0.000174
1007	1.0010e+02	-0.0380	31.241375	0.000709	7.094168	1.201785	-0.000142
1008	1.0020e+02	-0.0592	31.043555	0.000993	9.931835	1.682498	-0.000199
1009	1.0030e+02	-0.0781	30.841698	0.001013	10.134525	1.716835	-0.000203
1010	1.0040e+02	-0.0986	30.708473	0.000669	6.688787	1.133111	-0.000134
1011	1.0050e+02	-0.1172	30.567173	0.000709	7.094168	1.201785	-0.000142
1012	1.0059e+02	-0.1379	30.373391	0.000973	9.729144	1.648162	-0.000195
1013	1.0069e+02	-0.1591	30.219980	0.000770	7.702239	1.304795	-0.000154
1014	1.0079e+02	-0.1778	30.058494	0.000811	8.107620	1.373468	-0.000162
1015	1.0089e+02	-0.1983	29.884897	0.000872	8.715692	1.476478	-0.000174
1016	1.0099e+02	-0.2180	29.715338	0.000851	8.513001	1.442141	-0.000170
1017	1.0109e+02	-0.2380	29.574038	0.000709	7.094168	1.201785	-0.000142
1018	1.0119e+02	-0.2583	29.376218	0.000993	9.931835	1.682498	-0.000199
1019	1.0129e+02	-0.2771	29.226844	0.000750	7.499549	1.270458	-0.000150
1020	1.0139e+02	-0.2973	29.053247	0.000872	8.715692	1.476478	-0.000174
1021	1.0149e+02	-0.3179	28.879651	0.000872	8.715692	1.476478	-0.000174
1022	1.0159e+02	-0.3380	28.697979	0.000912	9.121073	1.545152	-0.000183
1023	1.0169e+02	-0.3577	28.540531	0.000790	7.904930	1.339131	-0.000158
1024	1.0179e+02	-0.3765	28.391157	0.000750	7.499549	1.270458	-0.000150
1025	1.0189e+02	-0.3969	28.237746	0.000770	7.702239	1.304795	-0.000154
1026	1.0199e+02	-0.4173	28.056075	0.000912	9.121073	1.545152	-0.000183
1027	1.0209e+02	-0.4378	27.918812	0.000689	6.891477	1.167448	-0.000138
1028	1.0219e+02	-0.4566	27.745215	0.000872	8.715692	1.476478	-0.000174
1029	1.0229e+02	-0.4773	27.583730	0.000811	8.107620	1.373468	-0.000162
1030	1.0239e+02	-0.4971	27.385910	0.000993	9.931835	1.682498	-0.000199
1031	1.0248e+02	-0.5166	27.268833	0.000588	5.878025	0.995764	-0.000118
1032	1.0258e+02	-0.5374	27.071014	0.000993	9.931835	1.682498	-0.000199
1033	1.0268e+02	-0.5566	26.917603	0.000770	7.702239	1.304795	-0.000154
1034	1.0278e+02	-0.5768	26.760154	0.000790	7.904930	1.339131	-0.000158
1035	1.0288e+02	-0.5962	26.578483	0.000912	9.121073	1.545152	-0.000183
1036	1.0298e+02	-0.6172	26.421035	0.000790	7.904930	1.339131	-0.000158
1037	1.0308e+02	-0.6355	26.235327	0.000932	9.323763	1.579488	-0.000187
1038	1.0318e+02	-0.6564	26.073841	0.000811	8.107620	1.373468	-0.000162
1039	1.0328e+02	-0.6758	25.900244	0.000872	8.715692	1.476478	-0.000174
1040	1.0338e+02	-0.6965	25.754907	0.000730	7.296858	1.236121	-0.000146
1041	1.0348e+02	-0.7165	25.593422	0.000811	8.107620	1.373468	-0.000162
1042	1.0358e+02	-0.7361	25.415788	0.000892	8.918382	1.510815	-0.000179
1043	1.0368e+02	-0.7557	25.217968	0.000993	9.931835	1.682498	-0.000199
1044	1.0378e+02	-0.7764	25.096854	0.000608	6.080715	1.030101	-0.000122
1045	1.0388e+02	-0.7957	24.894998	0.001013	10.134525	1.716835	-0.000203
1046	1.0398e+02	-0.8160	24.761772	0.000669	6.688787	1.133111	-0.000134
1047	1.0408e+02	-0.8353	24.563952	0.000993	9.931835	1.682498	-0.000199
1048	1.0418e+02	-0.8562	24.418616	0.000730	7.296858	1.236121	-0.000146
1049	1.0428e+02	-0.8752	24.257130	0.000811	8.107620	1.373468	-0.000162
1050	1.0438e+02	-0.8954	24.083533	0.000872	8.715692	1.476478	-0.000174
1051	1.0447e+02	-0.9155	23.897825	0.000932	9.323763	1.579488	-0.000187
1052	1.0457e+02	-0.9356	23.732302	0.000831	8.310311	1.407805	-0.000166
1053	1.0467e+02	-0.9562	23.562743	0.000851	8.513001	1.442141	-0.000170
1054	1.0477e+02	-0.9753	23.409332	0.000770	7.702239	1.304795	-0.000154
1055	1.0487e+02	-0.9951	23.211512	0.000993	9.931835	1.682498	-0.000199
1056	1.0497e+02	-1.0146	23.054064	0.000790	7.904930	1.339131	-0.000158
1057	1.0507e+02	-1.0356	22.884504	0.000851	8.513001	1.442141	-0.000170
1058	1.0517e+02	-1.0548	22.702833	0.000912	9.121073	1.545152	-0.000183
1059	1.0527e+02	-1.0759	22.549422	0.000770	7.702239	1.304795	-0.000154
1060	1.0537e+02	-1.0952	22.347565	0.001013	10.134525	1.716835	-0.000203
1061	1.0547e+02	-1.1148	22.210302	0.000689	6.891477	1.167448	-0.000138
1062	1.0557e+02	-1.1343	22.016520	0.000973	9.729144	1.648162	-0.000195
1063	1.0567e+02	-1.1546	21.855034	0.000811	8.107620	1.373468	-0.000162
1064	1.0577e+02	-1.1746	21.677400	0.000892	8.918382	1.510815	-0.000179
1065	1.0587e+02	-1.1947	21.511878	0.000831	8.310311	1.407805	-0.000166
1066	1.0597e+02	-1.2141	21.322132	0.000953	9.526454	1.613825	-0.000191
1067	1.0607e+02	-1.2338	21.156610	0.000831	8.310311	1.407805	-0.000166
1068	1.0617e+02	-1.2550	20.974939	0.000912	9.121073	1.545152	-0.000183
1069	1.0627e+02	-1.2743	20.845750	0.000649	6.486096	1.098774	-0.000130
1070	1.0637e+02	-1.2947	20.631782	0.001074	10.742597	1.819845	-0.000215
1071	1.0647e+02	-1.3135	20.482408	0.000750	7.499549	1.270458	-0.000150
1072	1.0656e+02	-1.3329	20.308811	0.000872	8.715692	1.476478	-0.000174
1073	1.0666e+02	-1.3531	20.163474	0.000730	7.296858	1.236121	-0.000146
1074	1.0676e+02	-1.3731	19.941432	0.001115	11.147978	1.888519	-0.000223
1075	1.0686e+02	-1.3940	19.788021	0.000770	7.702239	1.304795	-0.000154
1076	1.0696e+02	-1.4137	19.638647	0.000750	7.499549	1.270458	-0.000150
1077	1.0706e+02	-1.4331	19.428716	0.001054	10.539906	1.785508	-0.000211
1078	1.0716e+02	-1.4532	19.319713	0.000547	5.472644	0.927091	-0.000110
1079	1.0726e+02	-1.4725	19.097671	0.001115	11.147978	1.888519	-0.000223
1080	1.0736e+02	-1.4923	18.936185	0.000811	8.107620	1.373468	-0.000162
1081	1.0746e+02	-1.5131	18.802960	0.000669	6.688787	1.133111	-0.000134
1082	1.0756e+02	-1.5331	18.613214	0.000953	9.526454	1.613825	-0.000191
1083	1.0766e+02	-1.5524	18.411358	0.001013	10.134525	1.716835	-0.000203
1084	1.0776e+02	-1.5729	18.274095	0.000689	6.891477	1.167448	-0.000138
1085	1.0786e+02	-1.5933	18.080312	0.000973	9.729144	1.648162	-0.000195
1086	1.0796e+02	-1.6130	17.939013	0.000709	7.094168	1.201785	-0.000142
1087	1.0806e+02	-1.6330	17.745230	0.000973	9.729144	1.648162	-0.000195
1088	1.0816e+02	-1.6523	17.583745	0.000811	8.107620	1.373468	-0.000162
1089	1.0826e+02	-1.6722	17.418222	0.000831	8.310311	1.407805	-0.000166
1090	1.0836e+02	-1.6920	17.260774	0.000790	7.904930	1.339131	-0.000158
1091	1.0845e+02	-1.7125	17.066991	0.000973	9.729144	1.648162	-0.000195
1092	1.0855e+02	-1.7323	16.897432	0.000851	8.513001	1.442141	-0.000170
1093	1.0865e+02	-1.7519	16.727872	0.000851	8.513001	1.442141	-0.000170
1094	1.0875e+02	-1.7723	16.554275	0.000872	8.715692	1.476478	-0.000174
1095	1.0885e+02	-1.7925	16.396827	0.000790	7.904930	1.339131	-0.000158
1096	1.0895e+02	-1.8123	16.219193	0.000892	8.918382	1.510815	-0.000179
1097	1.0905e+02	-1.8320	16.081930	0.000689	6.891477	1.167448	-0.000138
1098	1.0915e+02	-1.8518	15.892185	0.000953	9.526454	1.613825	-0.000191
1099	1.0925e+02	-1.8723	15.767034	0.000628	6.283406	1.064438	-0.000126
1100	1.0935e+02	-1.8916	15.561140	0.001034	10.337216	1.751172	-0.000207
1101	1.0945e+02	-1.9115	15.407729	0.000770	7.702239	1.304795	-0.000154
1102	1.0955e+02	-1.9318	15.197797	0.001054	10.539906	1.785508	-0.000211
1103	1.0965e+02	-1.9518	15.064572	0.000669	6.688787	1.133111	-0.000134
1104	1.0975e+02	-1.9714	14.870789	0.000973	9.729144	1.648162	-0.000195
1105	1.0985e+02	-1.9912	14.713341	0.000790	7.904930	1.339131	-0.000158
1106	1.0995e+02	-2.0108	14.551856	0.000811	8.107620	1.373468	-0.000162
1107	1.1005e+02	-2.0310	14.354036	0.000993	9.931835	1.682498	-0.000199
1108	1.1015e+02	-2.0516	14.216774	0.000689	6.891477	1.167448	-0.000138
1109	1.1025e+02	-2.0709	14.035102	0.000912	9.121073	1.545152	-0.000183
1110	1.1035e+02	-2.0910	13.865543	0.000851	8.513001	1.442141	-0.000170
1111	1.1044e+02	-2.1117	13.683872	0.000912	9.121073	1.545152	-0.000183
1112	1.1054e+02	-2.1310	13.510275	0.000872	8.715692	1.476478	-0.000174
1113	1.1064e+02	-2.1507	13.324567	0.000932	9.323763	1.579488	-0.000187
1114	1.1074e+02	-2.1701	13.195378	0.000649	6.486096	1.098774	-0.000130
1115	1.1084e+02	-2.1909	13.013707	0.000912	9.121073	1.545152	-0.000183
1116	1.1094e+02	-2.2104	12.848184	0.000831	8.310311	1.407805	-0.000166
1117	1.1104e+02	-2.2309	12.658439	0.000953	9.526454	1.613825	-0.000191
1118	1.1114e+02	-2.2506	12.476768	0.000912	9.121073	1.545152	-0.000183
1119	1.1124e+02	-2.2699	12.339505	0.000689	6.891477	1.167448	-0.000138
1120	1.1134e+02	-2.2907	12.169946	0.000851	8.513001	1.442141	-0.000170
1121	1.1144e+02	-2.3102	12.016535	0.000770	7.702239	1.304795	-0.000154
1122	1.1154e+02	-2.3306	11.851012	0.000831	8.310311	1.407805	-0.000166
1123	1.1164e+02	-2.3497	11.633007	0.001095	10.945287	1.854182	-0.000219
1124	1.1174e+02	-2.3700	11.511893	0.000608	6.080715	1.030101	-0.000122
1125	1.1184e+02	-2.3904	11.293887	0.001095	10.945287	1.854182	-0.000219
1126	1.1194e+02	-2.4096	11.140476	0.000770	7.702239	1.304795	-0.000154
1127	1.1204e+02	-2.4295	10.995139	0.000730	7.296858	1.236121	-0.000146
1128	1.1214e+02	-2.4496	10.813468	0.000912	9.121073	1.545152	-0.000183
1129	1.1224e+02	-2.4697	10.660057	0.000770	7.702239	1.304795	-0.000154
1130	1.1234e+02	-2.4896	10.466274	0.000973	9.729144	1.648162	-0.000195
1131	1.1244e+02	-2.5092	10.312863	0.000770	7.702239	1.304795	-0.000154
1132	1.1253e+02	-2.5290	10.123118	0.000953	9.526454	1.613825	-0.000191
1133	1.1263e+02	-2.5491	9.945484	0.000892	8.918382	1.510815	-0.000179
1134	1.1273e+02	-2.5696	9.800147	0.000730	7.296858	1.236121	-0.000146
1135	1.1283e+02	-2.5894	9.670959	0.000649	6.486096	1.098774	-0.000130
1136	1.1293e+02	-2.6077	9.473139	0.000993	9.931835	1.682498	-0.000199
1137	1.1303e+02	-2.6288	9.347988	0.000628	6.283406	1.064438	-0.000126
1138	1.1313e+02	-2.6480	9.178428	0.000851	8.513001	1.442141	-0.000170
1139	1.1323e+02	-2.6686	8.960423	0.001095	10.945287	1.854182	-0.000219
1140	1.1333e+02	-2.6888	8.883717	0.000385	3.851120	0.652397	-0.000077
1141	1.1343e+02	-2.7071	8.641489	0.001216	12.161430	2.060202	-0.000243
1142	1.1353e+02	-2.7281	8.500189	0.000709	7.094168	1.201785	-0.000142
1143	1.1363e+02	-2.7469	8.306407	0.000973	9.729144	1.648162	-0.000195
1144	1.1373e+02	-2.7684	8.193367	0.000568	5.675334	0.961428	-0.000114
1145	1.1383e+02	-2.7882	8.007659	0.000932	9.323763	1.579488	-0.000187
1146	1.1393e+02	-2.8076	7.846173	0.000811	8.107620	1.373468	-0.000162
1147	1.1403e+02	-2.8270	7.680651	0.000831	8.310311	1.407805	-0.000166
1148	1.1413e+02	-2.8479	7.494942	0.000932	9.323763	1.579488	-0.000187
1149	1.1423e+02	-2.8673	7.357680	0.000689	6.891477	1.167448	-0.000138
1150	1.1433e+02	-2.8873	7.188120	0.000851	8.513001	1.442141	-0.000170
1151	1.1442e+02	-2.9074	7.075080	0.000568	5.675334	0.961428	-0.000114
1152	1.1452e+02	-2.9275	6.901484	0.000872	8.715692	1.476478	-0.000174
1153	1.1462e+02	-2.9470	6.719812	0.000912	9.121073	1.545152	-0.000183
1154	1.1472e+02	-2.9672	6.574476	0.000730	7.296858	1.236121	-0.000146
1155	1.1482e+02	-2.9866	6.360507	0.001074	10.742597	1.819845	-0.000215
1156	1.1492e+02	-3.0075	6.219208	0.000709	7.094168	1.201785	-0.000142
1157	1.1502e+02	-3.0270	6.049648	0.000851	8.513001	1.442141	-0.000170
1158	1.1512e+02	-3.0472	5.888162	0.000811	8.107620	1.373468	-0.000162
1159	1.1522e+02	-3.0670	5.730714	0.000790	7.904930	1.339131	-0.000158
1160	1.1532e+02	-3.0861	5.557117	0.000872	8.715692	1.476478	-0.000174
1161	1.1542e+02	-3.1063	5.395632	0.000811	8.107620	1.373468	-0.000162
1162	1.1552e+02	-3.1268	5.258369	0.000689	6.891477	1.167448	-0.000138
1163	1.1562e+02	-3.1464	5.088810	0.000851	8.513001	1.442141	-0.000170
1164	1.1572e+02	-3.1657	4.899064	0.000953	9.526454	1.613825	-0.000191
1165	1.1582e+02	-3.1862	4.749690	0.000750	7.499549	1.270458	-0.000150
1166	1.1592e+02	-3.2055	4.584168	0.000831	8.310311	1.407805	-0.000166
1167	1.1602e+02	-3.2256	4.422682	0.000811	8.107620	1.373468	-0.000162
1168	1.1612e+02	-3.2462	4.281382	0.000709	7.094168	1.201785	-0.000142
1169	1.1622e+02	-3.2663	4.075489	0.001034	10.337216	1.751172	-0.000207
1170	1.1632e+02	-3.2859	3.946300	0.000649	6.486096	1.098774	-0.000130
1171	1.1642e+02	-3.3065	3.784815	0.000811	8.107620	1.373468	-0.000162
1172	1.1651e+02	-3.3261	3.619292	0.000831	8.310311	1.407805	-0.000166
1173	1.1661e+02	-3.3469	3.449732	0.000851	8.513001	1.442141	-0.000170
1174	1.1671e+02	-3.3664	3.276136	0.000872	8.715692	1.476478	-0.000174
1175	1.1681e+02	-3.3865	3.138873	0.000689	6.891477	1.167448	-0.000138
1176	1.1691e+02	-3.4057	2.973350	0.000831	8.310311	1.407805	-0.000166
1177	1.1701e+02	-3.4256	2.807828	0.000831	8.310311	1.407805	-0.000166
1178	1.1711e+02	-3.4457	2.634231	0.000872	8.715692	1.476478	-0.000174
1179	1.1721e+02	-3.4660	2.476783	0.000790	7.904930	1.339131	-0.000158
1180	1.1731e+02	-3.4874	2.343557	0.000669	6.688787	1.133111	-0.000134
1181	1.1741e+02	-3.5044	2.161886	0.000912	9.121073	1.545152	-0.000183
1182	1.1751e+02	-3.5252	1.980215	0.000912	9.121073	1.545152	-0.000183
1183	1.1761e+02	-3.5451	1.810655	0.000851	8.513001	1.442141	-0.000170
1184	1.1771e+02	-3.5658	1.645133	0.000831	8.310311	1.407805	-0.000166
1185	1.1781e+02	-3.5841	1.495759	0.000750	7.499549	1.270458	-0.000150
1186	1.1791e+02	-3.6050	1.346385	0.000750	7.499549	1.270458	-0.000150
1187	1.1801e+02	-3.6246	1.188936	0.000790	7.904930	1.339131	-0.000158
1188	1.1811e+02	-3.6448	1.035525	0.000770	7.702239	1.304795	-0.000154
1189	1.1821e+02	-3.6655	0.821557	0.001074	10.742597	1.819845	-0.000215
1190	1.1831e+02	-3.6843	0.684295	0.000689	6.891477	1.167448	-0.000138
1191	1.1841e+02	-3.7052	0.547032	0.000689	6.891477	1.167448	-0.000138
1192	1.1850e+02	-3.7241	0.361324	0.000932	9.323763	1.579488	-0.000187
1193	1.1860e+02	-3.7434	0.207912	0.000770	7.702239	1.304795	-0.000154
1194	1.1870e+02	-3.7636	0.046427	0.000811	8.107620	1.373468	-0.000162
1195	1.1880e+02	-3.7834	-0.106984	0.000770	7.702239	1.304795	-0.000154
1196	1.1890e+02	-3.8037	-0.252321	0.000730	7.296858	1.236121	-0.000146
1197	1.1900e+02	-3.8241	-0.425918	0.000872	8.715692	1.476478	-0.000174
1198	1.1910e+02	-3.8439	-0.579329	0.000770	7.702239	1.304795	-0.000154
1199	1.1920e+02	-3.8634	-0.716592	0.000689	6.891477	1.167448	-0.000138
1200	1.1930e+02	-3.8833	-0.865966	0.000750	7.499549	1.270458	-0.000150
1201	1.1940e+02	-3.9034	-1.063785	0.000993	9.931835	1.682498	-0.000199
1202	1.1950e+02	-3.9230	-1.217196	0.000770	7.702239	1.304795	-0.000154
1203	1.1960e+02	-3.9435	-1.366570	0.000750	7.499549	1.270458	-0.000150
1204	1.1970e+02	-3.9632	-1.532093	0.000831	8.310311	1.407805	-0.000166
1205	1.1980e+02	-3.9838	-1.697616	0.000831	8.310311	1.407805	-0.000166
1206	1.1990e+02	-4.0040	-1.834878	0.000689	6.891477	1.167448	-0.000138
1207	1.2000e+02	-4.0234	-1.996364	0.000811	8.107620	1.373468	-0.000162
1208	1.2010e+02	-4.0431	-2.141701	0.000730	7.296858	1.236121	-0.000146
1209	1.2020e+02	-4.0627	-2.315297	0.000872	8.715692	1.476478	-0.000174
1210	1.2030e+02	-4.0828	-2.444486	0.000649	6.486096	1.098774	-0.000130
1211	1.2039e+02	-4.1034	-2.630194	0.000932	9.323763	1.579488	-0.000187
1212	1.2049e+02	-4.1228	-2.795716	0.000831	8.310311	1.407805	-0.000166
1213	1.2059e+02	-4.1425	-2.961239	0.000831	8.310311	1.407805	-0.000166
1214	1.2069e+02	-4.1629	-3.126762	0.000831	8.310311	1.407805	-0.000166
1215	1.2079e+02	-4.1822	-3.264024	0.000689	6.891477	1.167448	-0.000138
1216	1.2089e+02	-4.2024	-3.441658	0.000892	8.918382	1.510815	-0.000179
1217	1.2099e+02	-4.2225	-3.570847	0.000649	6.486096	1.098774	-0.000130
1218	1.2109e+02	-4.2423	-3.780778	0.001054	10.539906	1.785508	-0.000211
1219	1.2119e+02	-4.2613	-3.914003	0.000669	6.688787	1.133111	-0.000134
1220	1.2129e+02	-4.2821	-4.035117	0.000608	6.080715	1.030101	-0.000122
1221	1.2139e+02	-4.3030	-4.253123	0.001095	10.945287	1.854182	-0.000219
1222	1.2149e+02	-4.3221	-4.394422	0.000709	7.094168	1.201785	-0.000142
1223	1.2159e+02	-4.3423	-4.572056	0.000892	8.918382	1.510815	-0.000179
1224	1.2169e+02	-4.3624	-4.721430	0.000750	7.499549	1.270458	-0.000150
1225	1.2179e+02	-4.3823	-4.911176	0.000953	9.526454	1.613825	-0.000191
1226	1.2189e+02	-4.4023	-5.012104	0.000507	5.067263	0.858418	-0.000101
1227	1.2199e+02	-4.4216	-5.226072	0.001074	10.742597	1.819845	-0.000215
1228	1.2209e+02	-4.4420	-5.379483	0.000770	7.702239	1.304795	-0.000154
1229	1.2219e+02	-4.4607	-5.540969	0.000811	8.107620	1.373468	-0.000162
1230	1.2229e+02	-4.4820	-5.682269	0.000709	7.094168	1.201785	-0.000142
1231	1.2239e+02	-4.5009	-5.884125	0.001013	10.134525	1.716835	-0.000203
1232	1.2248e+02	-4.5219	-6.025425	0.000709	7.094168	1.201785	-0.000142
1233	1.2258e+02	-4.5410	-6.203059	0.000892	8.918382	1.510815	-0.000179
1234	1.2268e+02	-4.5619	-6.384730	0.000912	9.121073	1.545152	-0.000183
1235	1.2278e+02	-4.5819	-6.509881	0.000628	6.283406	1.064438	-0.000126
1236	1.2288e+02	-4.6001	-6.695590	0.000932	9.323763	1.579488	-0.000187
1237	1.2298e+02	-4.6206	-6.853038	0.000790	7.904930	1.339131	-0.000158
1238	1.2308e+02	-4.6411	-7.034709	0.000912	9.121073	1.545152	-0.000183
1239	1.2318e+02	-4.6602	-7.188120	0.000770	7.702239	1.304795	-0.000154
1240	1.2328e+02	-4.6816	-7.337494	0.000750	7.499549	1.270458	-0.000150
1241	1.2338e+02	-4.6996	-7.503017	0.000831	8.310311	1.407805	-0.000166
1242	1.2348e+02	-4.7205	-7.640279	0.000689	6.891477	1.167448	-0.000138
1243	1.2358e+02	-4.7409	-7.830025	0.000953	9.526454	1.613825	-0.000191
1244	1.2368e+02	-4.7614	-7.975362	0.000730	7.296858	1.236121	-0.000146
1245	1.2378e+02	-4.7799	-8.161070	0.000932	9.323763	1.579488	-0.000187
1246	1.2388e+02	-4.8011	-8.318518	0.000790	7.904930	1.339131	-0.000158
1247	1.2398e+02	-4.8204	-8.492115	0.000872	8.715692	1.476478	-0.000174
1248	1.2408e+02	-4.8406	-8.629378	0.000689	6.891477	1.167448	-0.000138
1249	1.2418e+02	-4.8604	-8.819123	0.000953	9.526454	1.613825	-0.000191
1250	1.2428e+02	-4.8793	-8.972534	0.000770	7.702239	1.304795	-0.000154
1251	1.2438e+02	-4.8996	-9.158242	0.000932	9.323763	1.579488	-0.000187
1252	1.2447e+02	-4.9196	-9.291468	0.000669	6.688787	1.133111	-0.000134
1253	1.2457e+02	-4.9391	-9.473139	0.000912	9.121073	1.545152	-0.000183
1254	1.2467e+02	-4.9612	-9.654810	0.000912	9.121073	1.545152	-0.000183
1255	1.2477e+02	-4.9802	-9.840518	0.000932	9.323763	1.579488	-0.000187
1256	1.2487e+02	-5.0000	-9.989892	0.000750	7.499549	1.270458	-0.000150
1257	1.2497e+02	-5.0208	-10.135229	0.000730	7.296858	1.236121	-0.000146
1258	1.2507e+02	-5.0397	-10.345160	0.001054	10.539906	1.785508	-0.000211
1259	1.2517e+02	-5.0589	-10.474349	0.000649	6.486096	1.098774	-0.000130
1260	1.2527e+02	-5.0793	-10.631797	0.000790	7.904930	1.339131	-0.000158
1261	1.2537e+02	-5.0989	-10.845765	0.001074	10.742597	1.819845	-0.000215
1262	1.2547e+02	-5.1186	-10.983028	0.000689	6.891477	1.167448	-0.000138
1263	1.2557e+02	-5.1395	-11.172773	0.000953	9.526454	1.613825	-0.000191
1264	1.2567e+02	-5.1586	-11.310036	0.000689	6.891477	1.167448	-0.000138
1265	1.2577e+02	-5.1788	-11.471521	0.000811	8.107620	1.373468	-0.000162
1266	1.2587e+02	-5.1981	-11.685489	0.001074	10.742597	1.819845	-0.000215
1267	1.2597e+02	-5.2192	-11.806603	0.000608	6.080715	1.030101	-0.000122
1268	1.2607e+02	-5.2388	-12.012497	0.001034	10.337216	1.751172	-0.000207
1269	1.2617e+02	-5.2582	-12.161871	0.000750	7.499549	1.270458	-0.000150
1270	1.2627e+02	-5.2780	-12.367765	0.001034	10.337216	1.751172	-0.000207
1271	1.2636e+02	-5.2986	-12.509065	0.000709	7.094168	1.201785	-0.000142
1272	1.2646e+02	-5.3184	-12.682662	0.000872	8.715692	1.476478	-0.000174
1273	1.2656e+02	-5.3380	-12.848184	0.000831	8.310311	1.407805	-0.000166
1274	1.2666e+02	-5.3578	-13.054078	0.001034	10.337216	1.751172	-0.000207
1275	1.2676e+02	-5.3781	-13.207490	0.000770	7.702239	1.304795	-0.000154
1276	1.2686e+02	-5.3978	-13.381086	0.000872	8.715692	1.476478	-0.000174
1277	1.2696e+02	-5.4175	-13.591017	0.001054	10.539906	1.785508	-0.000211
1278	1.2706e+02	-5.4382	-13.732317	0.000709	7.094168	1.201785	-0.000142
1279	1.2716e+02	-5.4579	-13.889766	0.000790	7.904930	1.339131	-0.000158
1280	1.2726e+02	-5.4769	-14.087585	0.000993	9.931835	1.682498	-0.000199
1281	1.2736e+02	-5.4977	-14.297516	0.001054	10.539906	1.785508	-0.000211
1282	1.2746e+02	-5.5170	-14.463039	0.000831	8.310311	1.407805	-0.000166
1283	1.2756e+02	-5.5381	-14.644710	0.000912	9.121073	1.545152	-0.000183
1284	1.2766e+02	-5.5576	-14.858678	0.001074	10.742597	1.819845	-0.000215
1285	1.2776e+02	-5.5765	-15.036312	0.000892	8.918382	1.510815	-0.000179
1286	1.2786e+02	-5.5963	-15.205872	0.000851	8.513001	1.442141	-0.000170
1287	1.2796e+02	-5.6165	-15.403691	0.000993	9.931835	1.682498	-0.000199
1288	1.2806e+02	-5.6369	-15.569214	0.000831	8.310311	1.407805	-0.000166
1289	1.2816e+02	-5.6577	-15.787219	0.001095	10.945287	1.854182	-0.000219
1290	1.2826e+02	-5.6776	-15.944668	0.000790	7.904930	1.339131	-0.000158
1291	1.2835e+02	-5.6964	-16.146524	0.001013	10.134525	1.716835	-0.000203
1292	1.2845e+02	-5.7168	-16.308010	0.000811	8.107620	1.373468	-0.000162
1293	1.2855e+02	-5.7373	-16.493718	0.000932	9.323763	1.579488	-0.000187
1294	1.2865e+02	-5.7564	-16.691538	0.000993	9.931835	1.682498	-0.000199
1295	1.2875e+02	-5.7760	-16.877246	0.000932	9.323763	1.579488	-0.000187
1296	1.2885e+02	-5.7973	-17.058917	0.000912	9.121073	1.545152	-0.000183
1297	1.2895e+02	-5.8169	-17.289034	0.001155	11.553359	1.957192	-0.000231
1298	1.2905e+02	-5.8362	-17.430334	0.000709	7.094168	1.201785	-0.000142
1299	1.2915e+02	-5.8560	-17.652376	0.001115	11.147978	1.888519	-0.000223
1300	1.2925e+02	-5.8759	-17.825973	0.000872	8.715692	1.476478	-0.000174
1301	1.2935e+02	-5.8960	-18.019755	0.000973	9.729144	1.648162	-0.000195
1302	1.2945e+02	-5.9166	-18.233724	0.001074	10.742597	1.819845	-0.000215
1303	1.2955e+02	-5.9366	-18.415395	0.000912	9.121073	1.545152	-0.000183
1304	1.2965e+02	-5.9557	-18.617251	0.001013	10.134525	1.716835	-0.000203
1305	1.2975e+02	-5.9758	-18.786811	0.000851	8.513001	1.442141	-0.000170
1306	1.2985e+02	-5.9956	-19.000779	0.001074	10.742597	1.819845	-0.000215
1307	1.2995e+02	-6.0159	-19.202636	0.001013	10.134525	1.716835	-0.000203
1308	1.3005e+02	-6.0358	-19.376233	0.000872	8.715692	1.476478	-0.000174
1309	1.3015e+02	-6.0559	-19.582127	0.001034	10.337216	1.751172	-0.000207
1310	1.3025e+02	-6.0748	-19.759761	0.000892	8.918382	1.510815	-0.000179
1311	1.3034e+02	-6.0951	-19.985840	0.001135	11.350668	1.922855	-0.000227
1312	1.3044e+02	-6.1145	-20.203846	0.001095	10.945287	1.854182	-0.000219
1313	1.3054e+02	-6.1343	-20.389554	0.000932	9.323763	1.579488	-0.000187
1314	1.3064e+02	-6.1554	-20.551039	0.000811	8.107620	1.373468	-0.000162
1315	1.3074e+02	-6.1749	-20.760971	0.001054	10.539906	1.785508	-0.000211
1316	1.3084e+02	-6.1949	-20.966864	0.001034	10.337216	1.751172	-0.000207
1317	1.3094e+02	-6.2144	-21.209093	0.001216	12.161430	2.060202	-0.000243
1318	1.3104e+02	-6.2350	-21.410949	0.001013	10.134525	1.716835	-0.000203
1319	1.3114e+02	-6.2553	-21.604732	0.000973	9.729144	1.648162	-0.000195
1320	1.3124e+02	-6.2743	-21.778329	0.000872	8.715692	1.476478	-0.000174
1321	1.3134e+02	-6.2950	-22.012483	0.001176	11.756049	1.991529	-0.000235
1322	1.3144e+02	-6.3144	-22.226451	0.001074	10.742597	1.819845	-0.000215
1323	1.3154e+02	-6.3342	-22.492902	0.001338	13.377573	2.266222	-0.000268
1324	1.3164e+02	-6.3548	-22.646313	0.000770	7.702239	1.304795	-0.000154
1325	1.3174e+02	-6.3730	-22.880467	0.001176	11.756049	1.991529	-0.000235
1326	1.3184e+02	-6.3928	-23.054064	0.000872	8.715692	1.476478	-0.000174
1327	1.3194e+02	-6.4127	-23.296292	0.001216	12.161430	2.060202	-0.000243
1328	1.3204e+02	-6.4334	-23.530446	0.001176	11.756049	1.991529	-0.000235
1329	1.3214e+02	-6.4536	-23.732302	0.001013	10.134525	1.716835	-0.000203
1330	1.3224e+02	-6.4741	-23.926085	0.000973	9.729144	1.648162	-0.000195
1331	1.3234e+02	-6.4925	-24.208684	0.001419	14.188335	2.403569	-0.000284
1332	1.3243e+02	-6.5129	-24.382281	0.000872	8.715692	1.476478	-0.000174
1333	1.3253e+02	-6.5341	-24.572027	0.000953	9.526454	1.613825	-0.000191
1334	1.3263e+02	-6.5533	-24.834440	0.001317	13.174883	2.231886	-0.000264
1335	1.3273e+02	-6.5744	-25.036297	0.001013	10.134525	1.716835	-0.000203
1336	1.3283e+02	-6.5930	-25.266414	0.001155	11.553359	1.957192	-0.000231
1337	1.3293e+02	-6.6126	-25.504605	0.001196	11.958740	2.025865	-0.000239
1338	1.3303e+02	-6.6333	-25.738759	0.001176	11.756049	1.991529	-0.000235
1339	1.3313e+02	-6.6523	-25.968876	0.001155	11.553359	1.957192	-0.000231
1340	1.3323e+02	-6.6732	-26.174770	0.001034	10.337216	1.751172	-0.000207
1341	1.3333e+02	-6.6924	-26.425072	0.001257	12.566811	2.128875	-0.000252
1342	1.3343e+02	-6.7123	-26.643077	0.001095	10.945287	1.854182	-0.000219
1343	1.3353e+02	-6.7340	-26.865120	0.001115	11.147978	1.888519	-0.000223
1344	1.3363e+02	-6.7542	-27.111385	0.001236	12.364121	2.094539	-0.000248
1345	1.3373e+02	-6.7732	-27.333428	0.001115	11.147978	1.888519	-0.000223
1346	1.3383e+02	-6.7928	-27.559507	0.001135	11.350668	1.922855	-0.000227
1347	1.3393e+02	-6.8130	-27.821921	0.001317	13.174883	2.231886	-0.000264
1348	1.3403e+02	-6.8327	-28.035889	0.001074	10.742597	1.819845	-0.000215
1349	1.3413e+02	-6.8520	-28.266006	0.001155	11.553359	1.957192	-0.000231
1350	1.3423e+02	-6.8724	-28.556680	0.001459	14.593716	2.472242	-0.000292
1351	1.3432e+02	-6.8910	-28.750462	0.000973	9.729144	1.648162	-0.000195
1352	1.3442e+02	-6.9119	-28.996727	0.001236	12.364121	2.094539	-0.000248
1353	1.3452e+02	-6.9314	-29.242993	0.001236	12.364121	2.094539	-0.000248
1354	1.3462e+02	-6.9516	-29.460998	0.001095	10.945287	1.854182	-0.000219
1355	1.3472e+02	-6.9713	-29.767820	0.001540	15.404478	2.609589	-0.000308
1356	1.3482e+02	-6.9919	-30.001974	0.001176	11.756049	1.991529	-0.000235
1357	1.3492e+02	-7.0116	-30.252277	0.001257	12.566811	2.128875	-0.000252
1358	1.3502e+02	-7.0319	-30.498542	0.001236	12.364121	2.094539	-0.000248
1359	1.3512e+02	-7.0514	-30.748844	0.001257	12.566811	2.128875	-0.000252
1360	1.3522e+02	-7.0718	-30.991072	0.001216	12.161430	2.060202	-0.000243
1361	1.3532e+02	-7.0901	-31.245412	0.001277	12.769502	2.163212	-0.000256
1362	1.3542e+02	-7.1115	-31.479566	0.001176	11.756049	1.991529	-0.000235
1363	1.3552e+02	-7.1313	-31.746017	0.001338	13.377573	2.266222	-0.000268
1364	1.3562e+02	-7.1510	-31.992282	0.001236	12.364121	2.094539	-0.000248
1365	1.3572e+02	-7.1704	-32.282956	0.001459	14.593716	2.472242	-0.000292
1366	1.3582e+02	-7.1918	-32.500961	0.001095	10.945287	1.854182	-0.000219
1367	1.3592e+02	-7.2107	-32.807784	0.001540	15.404478	2.609589	-0.000308
1368	1.3602e+02	-7.2298	-33.045975	0.001196	11.958740	2.025865	-0.000239
1369	1.3612e+02	-7.2501	-33.316463	0.001358	13.580264	2.300559	-0.000272
1370	1.3622e+02	-7.2714	-33.590988	0.001378	13.782954	2.334896	-0.000276
1371	1.3631e+02	-7.2918	-33.829179	0.001196	11.958740	2.025865	-0.000239
1372	1.3641e+02	-7.3105	-34.099667	0.001358	13.580264	2.300559	-0.000272
1373	1.3651e+02	-7.3308	-34.354007	0.001277	12.769502	2.163212	-0.000256
1374	1.3661e+02	-7.3502	-34.612383	0.001297	12.972192	2.197549	-0.000260
1375	1.3671e+02	-7.3698	-34.890946	0.001399	13.985645	2.369232	-0.000280
1376	1.3681e+02	-7.3907	-35.157397	0.001338	13.377573	2.266222	-0.000268
1377	1.3691e+02	-7.4112	-35.464219	0.001540	15.404478	2.609589	-0.000308
1378	1.3701e+02	-7.4304	-35.682224	0.001095	10.945287	1.854182	-0.000219
1379	1.3711e+02	-7.4499	-35.972898	0.001459	14.593716	2.472242	-0.000292
1380	1.3721e+02	-7.4687	-36.259535	0.001439	14.391026	2.437906	-0.000288
1381	1.3731e+02	-7.4900	-36.558283	0.001500	14.999097	2.540916	-0.000300
1382	1.3741e+02	-7.5096	-36.800511	0.001216	12.161430	2.060202	-0.000243
1383	1.3751e+02	-7.5294	-37.123482	0.001622	16.215240	2.746936	-0.000325
1384	1.3761e+02	-7.5494	-37.389933	0.001338	13.377573	2.266222	-0.000268
1385	1.3771e+02	-7.5693	-37.716941	0.001642	16.417931	2.781273	-0.000329
1386	1.3781e+02	-7.5887	-37.971280	0.001277	12.769502	2.163212	-0.000256
1387	1.3791e+02	-7.6085	-38.233694	0.001317	13.174883	2.231886	-0.000264
1388	1.3801e+02	-7.6294	-38.556665	0.001622	16.215240	2.746936	-0.000325
1389	1.3811e+02	-7.6488	-38.819079	0.001317	13.174883	2.231886	-0.000264
1390	1.3821e+02	-7.6689	-39.174347	0.001784	17.836764	3.021630	-0.000357
1391	1.3831e+02	-7.6889	-39.420612	0.001236	12.364121	2.094539	-0.000248
1392	1.3840e+02	-7.7094	-39.771843	0.001763	17.634074	2.987293	-0.000353
1393	1.3850e+02	-7.7290	-40.070591	0.001500	14.999097	2.540916	-0.000300
1394	1.3860e+02	-7.7477	-40.337042	0.001338	13.377573	2.266222	-0.000268
1395	1.3870e+02	-7.7686	-40.623678	0.001439	14.391026	2.437906	-0.000288
1396	1.3880e+02	-7.7882	-40.974909	0.001763	17.634074	2.987293	-0.000353
1397	1.3890e+02	-7.8079	-41.265583	0.001459	14.593716	2.472242	-0.000292
1398	1.3900e+02	-7.8278	-41.572405	0.001540	15.404478	2.609589	-0.000308
1399	1.3910e+02	-7.8470	-41.883265	0.001561	15.607169	2.643926	-0.000312
1400	1.3920e+02	-7.8680	-42.202198	0.001601	16.012550	2.712599	-0.000321
1401	1.3930e+02	-7.8870	-42.496909	0.001480	14.796407	2.506579	-0.000296
1402	1.3940e+02	-7.9089	-42.791620	0.001480	14.796407	2.506579	-0.000296
1403	1.3950e+02	-7.9277	-43.106517	0.001581	15.809859	2.678263	-0.000316
1404	1.3960e+02	-7.9475	-43.457748	0.001763	17.634074	2.987293	-0.000353
1405	1.3970e+02	-7.9656	-43.740347	0.001419	14.188335	2.403569	-0.000284
1406	1.3980e+02	-7.9872	-44.079467	0.001703	17.026002	2.884283	-0.000341
1407	1.3990e+02	-8.0066	-44.410512	0.001662	16.620621	2.815609	-0.000333
1408	1.4000e+02	-8.0270	-44.753668	0.001723	17.228693	2.918620	-0.000345
1409	1.4010e+02	-8.0466	-45.040305	0.001439	14.391026	2.437906	-0.000288
1410	1.4020e+02	-8.0670	-45.391536	0.001763	17.634074	2.987293	-0.000353
1411	1.4029e+02	-8.0869	-45.714507	0.001622	16.215240	2.746936	-0.000325
1412	1.4039e+02	-8.1071	-46.057663	0.001723	17.228693	2.918620	-0.000345
1413	1.4049e+02	-8.1269	-46.433117	0.001885	18.850217	3.193313	-0.000377
1414	1.4059e+02	-8.1470	-46.731865	0.001500	14.999097	2.540916	-0.000300
1415	1.4069e+02	-8.1677	-47.030613	0.001500	14.999097	2.540916	-0.000300
1416	1.4079e+02	-8.1870	-47.385881	0.001784	17.836764	3.021630	-0.000357
1417	1.4089e+02	-8.2060	-47.696740	0.001561	15.607169	2.643926	-0.000312
1418	1.4099e+02	-8.2272	-48.124677	0.002149	21.485193	3.639690	-0.000430
1419	1.4109e+02	-8.2469	-48.391128	0.001338	13.377573	2.266222	-0.000268
1420	1.4119e+02	-8.2669	-48.774655	0.001926	19.255598	3.261987	-0.000385
1421	1.4129e+02	-8.2866	-49.089552	0.001581	15.809859	2.678263	-0.000316
1422	1.4139e+02	-8.3061	-49.452894	0.001824	18.242145	3.090303	-0.000365
1423	1.4149e+02	-8.3255	-49.828348	0.001885	18.850217	3.193313	-0.000377
1424	1.4159e+02	-8.3459	-50.183616	0.001784	17.836764	3.021630	-0.000357
1425	1.4169e+02	-8.3655	-50.530809	0.001743	17.431383	2.952956	-0.000349
1426	1.4179e+02	-8.3865	-50.902226	0.001865	18.647526	3.158976	-0.000373
1427	1.4189e+02	-8.4058	-51.261531	0.001804	18.039455	3.055966	-0.000361
1428	1.4199e+02	-8.4268	-51.620836	0.001804	18.039455	3.055966	-0.000361
1429	1.4209e+02	-8.4453	-51.972067	0.001763	17.634074	2.987293	-0.000353
1430	1.4219e+02	-8.4653	-52.351558	0.001905	19.052907	3.227650	-0.000381
1431	1.4228e+02	-8.4848	-52.706826	0.001784	17.836764	3.021630	-0.000357
1432	1.4238e+02	-8.5049	-53.086316	0.001905	19.052907	3.227650	-0.000381
1433	1.4248e+02	-8.5252	-53.465807	0.001905	19.052907	3.227650	-0.000381
1434	1.4258e+02	-8.5449	-53.841261	0.001885	18.850217	3.193313	-0.000377
1435	1.4268e+02	-8.5651	-54.188454	0.001743	17.431383	2.952956	-0.000349
1436	1.4278e+02	-8.5852	-54.588131	0.002007	20.066360	3.399333	-0.000402
1437	1.4288e+02	-8.6047	-54.951473	0.001824	18.242145	3.090303	-0.000365
1438	1.4298e+02	-8.6244	-55.363261	0.002067	20.674431	3.502343	-0.000414
1439	1.4308e+02	-8.6440	-55.726603	0.001824	18.242145	3.090303	-0.000365
1440	1.4318e+02	-8.6649	-56.126280	0.002007	20.066360	3.399333	-0.000402
1441	1.4328e+02	-8.6855	-56.509807	0.001926	19.255598	3.261987	-0.000385
1442	1.4338e+02	-8.7055	-56.933707	0.002128	21.282503	3.605354	-0.000426
1443	1.4348e+02	-8.7241	-57.264752	0.001662	16.620621	2.815609	-0.000333
1444	1.4358e+02	-8.7435	-57.720948	0.002290	22.904027	3.880047	-0.000458
1445	1.4368e+02	-8.7648	-58.104476	0.001926	19.255598	3.261987	-0.000385
1446	1.4378e+02	-8.7837	-58.488004	0.001926	19.255598	3.261987	-0.000385
1447	1.4388e+02	-8.8045	-58.932089	0.002230	22.295955	3.777037	-0.000446
1448	1.4398e+02	-8.8246	-59.307543	0.001885	18.850217	3.193313	-0.000377
1449	1.4408e+02	-8.8449	-59.687033	0.001905	19.052907	3.227650	-0.000381
1450	1.4418e+02	-8.8641	-60.175527	0.002453	24.525551	4.154741	-0.000491
1451	1.4428e+02	-8.8832	-60.563092	0.001946	19.458288	3.296323	-0.000390
1452	1.4437e+02	-8.9037	-60.991028	0.002149	21.485193	3.639690	-0.000430
1453	1.4447e+02	-8.9230	-61.402816	0.002067	20.674431	3.502343	-0.000414
1454	1.4457e+02	-8.9435	-61.774232	0.001865	18.647526	3.158976	-0.000373
1455	1.4467e+02	-8.9633	-62.226392	0.002270	22.701336	3.845710	-0.000454
1456	1.4477e+02	-8.9834	-62.670477	0.002230	22.295955	3.777037	-0.000446
1457	1.4487e+02	-9.0044	-63.078227	0.002047	20.471741	3.468007	-0.000410
1458	1.4497e+02	-9.0230	-63.494052	0.002088	20.877122	3.536680	-0.000418
1459	1.4507e+02	-9.0428	-63.958323	0.002331	23.309408	3.948721	-0.000467
1460	1.4517e+02	-9.0627	-64.430668	0.002371	23.714789	4.017394	-0.000475
1461	1.4527e+02	-9.0827	-64.858604	0.002149	21.485193	3.639690	-0.000430
1462	1.4537e+02	-9.1035	-65.334986	0.002392	23.917479	4.051731	-0.000479
1463	1.4547e+02	-9.1222	-65.742737	0.002047	20.471741	3.468007	-0.000410
1464	1.4557e+02	-9.1428	-66.239305	0.002493	24.930932	4.223414	-0.000499
1465	1.4567e+02	-9.1614	-66.671278	0.002169	21.687884	3.674027	-0.000434
1466	1.4577e+02	-9.1832	-67.095177	0.002128	21.282503	3.605354	-0.000426
1467	1.4587e+02	-9.2029	-67.547337	0.002270	22.701336	3.845710	-0.000454
1468	1.4597e+02	-9.2231	-67.987384	0.002209	22.093265	3.742700	-0.000442
1469	1.4607e+02	-9.2418	-68.483952	0.002493	24.930932	4.223414	-0.000499
1470	1.4617e+02	-9.2622	-68.907851	0.002128	21.282503	3.605354	-0.000426
1471	1.4626e+02	-9.2821	-69.364048	0.002290	22.904027	3.880047	-0.000458
1472	1.4636e+02	-9.3029	-69.840430	0.002392	23.917479	4.051731	-0.000479
1473	1.4646e+02	-9.3217	-70.353146	0.002574	25.741694	4.360761	-0.000515
1474	1.4656e+02	-9.3417	-70.793194	0.002209	22.093265	3.742700	-0.000442
1475	1.4666e+02	-9.3610	-71.313984	0.002615	26.147075	4.429434	-0.000523
1476	1.4676e+02	-9.3808	-71.774218	0.002311	23.106717	3.914384	-0.000463
1477	1.4686e+02	-9.4014	-72.238488	0.002331	23.309408	3.948721	-0.000467
1478	1.4696e+02	-9.4211	-72.759279	0.002615	26.147075	4.429434	-0.000523
1479	1.4706e+02	-9.4416	-73.183178	0.002128	21.282503	3.605354	-0.000426
1480	1.4716e+02	-9.4611	-73.708006	0.002635	26.349765	4.463771	-0.000527
1481	1.4726e+02	-9.4814	-74.204573	0.002493	24.930932	4.223414	-0.000499
1482	1.4736e+02	-9.5014	-74.697104	0.002473	24.728241	4.189077	-0.000495
1483	1.4746e+02	-9.5212	-75.205783	0.002554	25.539003	4.326424	-0.000511
1484	1.4756e+02	-9.5415	-75.730611	0.002635	26.349765	4.463771	-0.000527
1485	1.4766e+02	-9.5602	-76.247364	0.002594	25.944384	4.395098	-0.000519
1486	1.4776e+02	-9.5806	-76.796415	0.002757	27.565908	4.669791	-0.000552
1487	1.4786e+02	-9.6005	-77.264722	0.002351	23.512098	3.983057	-0.000471
1488	1.4796e+02	-9.6210	-77.793587	0.002655	26.552456	4.498108	-0.000532
1489	1.4806e+02	-9.6404	-78.306303	0.002574	25.741694	4.360761	-0.000515
1490	1.4816e+02	-9.6605	-78.855354	0.002757	27.565908	4.669791	-0.000552
1491	1.4825e+02	-9.6804	-79.388256	0.002676	26.755146	4.532444	-0.000536
1492	1.4835e+02	-9.7005	-79.921158	0.002676	26.755146	4.532444	-0.000536
1493	1.4845e+02	-9.7211	-80.421762	0.002513	25.133622	4.257751	-0.000503
1494	1.4855e+02	-9.7388	-80.982924	0.002817	28.173980	4.772801	-0.000564
1495	1.4865e+02	-9.7604	-81.507752	0.002635	26.349765	4.463771	-0.000527
1496	1.4875e+02	-9.7806	-82.113322	0.003040	30.403575	5.150505	-0.000609
1497	1.4885e+02	-9.7998	-82.670447	0.002797	27.971289	4.738465	-0.000560
1498	1.4895e+02	-9.8196	-83.195275	0.002635	26.349765	4.463771	-0.000527
1499	1.4905e+02	-9.8398	-83.744325	0.002757	27.565908	4.669791	-0.000552
1500	1.4915e+02	-9.8605	-84.337784	0.002980	29.795504	5.047495	-0.000596
1501	1.4925e+02	-9.8795	-84.935280	0.003000	29.998194	5.081832	-0.000600
1502	1.4935e+02	-9.8996	-85.460108	0.002635	26.349765	4.463771	-0.000527
1503	1.4945e+02	-9.9204	-86.057604	0.003000	29.998194	5.081832	-0.000600
1504	1.4955e+02	-9.9398	-86.634914	0.002898	28.984742	4.910148	-0.000580
1505	1.4965e+02	-9.9593	-87.192039	0.002797	27.971289	4.738465	-0.000560
1506	1.4975e+02	-9.9799	-87.789535	0.003000	29.998194	5.081832	-0.000600
1507	1.4985e+02	-9.9988	-88.415291	0.003142	31.417028	5.322189	-0.000629
1508	1.4995e+02	-9.9792	-88.762485	-0.001743	-17.431383	-2.952956	-0.000349
1509	1.5005e+02	-9.9593	-89.117753	-0.001784	-17.836764	-3.021630	-0.000357
1510	1.5015e+02	-9.9393	-89.477058	-0.001804	-18.039455	-3.055966	-0.000361
1511	1.5025e+02	-9.9182	-89.795992	-0.001601	-16.012550	-2.712599	-0.000321
1512	1.5034e+02	-9.8999	-90.098777	-0.001520	-15.201788	-2.575253	-0.000304
1513	1.5044e+02	-9.8792	-90.332931	-0.001176	-11.756049	-1.991529	-0.000235
1514	1.5054e+02	-9.8598	-90.563047	-0.001155	-11.553359	-1.957192	-0.000231
1515	1.5064e+02	-9.8399	-90.886018	-0.001622	-16.215240	-2.746936	-0.000325
1516	1.5074e+02	-9.8207	-91.091912	-0.001034	-10.337216	-1.751172	-0.000207
1517	1.5084e+02	-9.8001	-91.317992	-0.001135	-11.350668	-1.922855	-0.000227
1518	1.5094e+02	-9.7797	-91.548109	-0.001155	-11.553359	-1.957192	-0.000231
1519	1.5104e+02	-9.7610	-91.741891	-0.000973	-9.729144	-1.648162	-0.000195
1520	1.5114e+02	-9.7398	-91.891265	-0.000750	-7.499549	-1.270458	-0.000150
1521	1.5124e+02	-9.7205	-92.089085	-0.000993	-9.931835	-1.682498	-0.000199
1522	1.5134e+02	-9.6996	-92.266719	-0.000892	-8.918382	-1.510815	-0.000179
1523	1.5144e+02	-9.6808	-92.452427	-0.000932	-9.323763	-1.579488	-0.000187
1524	1.5154e+02	-9.6613	-92.581615	-0.000649	-6.486096	-1.098774	-0.000130
1525	1.5164e+02	-9.6407	-92.771361	-0.000953	-9.526454	-1.613825	-0.000191
1526	1.5174e+02	-9.6212	-92.892475	-0.000608	-6.080715	-1.030101	-0.000122
1527	1.5184e+02	-9.6005	-93.041849	-0.000750	-7.499549	-1.270458	-0.000150
1528	1.5194e+02	-9.5804	-93.203334	-0.000811	-8.107620	-1.373468	-0.000162
1529	1.5204e+02	-9.5600	-93.292151	-0.000446	-4.459191	-0.755407	-0.000089
1530	1.5214e+02	-9.5410	-93.425377	-0.000669	-6.688787	-1.133111	-0.000134
1531	1.5224e+02	-9.5210	-93.530342	-0.000527	-5.269953	-0.892754	-0.000105
1532	1.5233e+02	-9.5014	-93.631271	-0.000507	-5.067263	-0.858418	-0.000101
1533	1.5243e+02	-9.4807	-93.716050	-0.000426	-4.256501	-0.721071	-0.000085
1534	1.5253e+02	-9.4608	-93.780645	-0.000324	-3.243048	-0.549387	-0.000065
1535	1.5263e+02	-9.4409	-93.893684	-0.000568	-5.675334	-0.961428	-0.000114
1536	1.5273e+02	-9.4214	-93.978464	-0.000426	-4.256501	-0.721071	-0.000085
1537	1.5283e+02	-9.4004	-94.039021	-0.000304	-3.040358	-0.515051	-0.000061
1538	1.5293e+02	-9.3811	-94.111690	-0.000365	-3.648429	-0.618061	-0.000073
1539	1.5303e+02	-9.3614	-94.196470	-0.000426	-4.256501	-0.721071	-0.000085
1540	1.5313e+02	-9.3411	-94.273175	-0.000385	-3.851120	-0.652397	-0.000077
1541	1.5323e+02	-9.3216	-94.289324	-0.000081	-0.810762	-0.137347	-0.000016
1542	1.5333e+02	-9.3024	-94.357955	-0.000345	-3.445739	-0.583724	-0.000069
1543	1.5343e+02	-9.2827	-94.406401	-0.000243	-2.432286	-0.412040	-0.000049
1544	1.5353e+02	-9.2622	-94.450809	-0.000223	-2.229596	-0.377704	-0.000045
1545	1.5363e+02	-9.2418	-94.523478	-0.000365	-3.648429	-0.618061	-0.000073
1546	1.5373e+02	-9.2223	-94.567886	-0.000223	-2.229596	-0.377704	-0.000045
1547	1.5383e+02	-9.2019	-94.600183	-0.000162	-1.621524	-0.274694	-0.000032
1548	1.5393e+02	-9.1818	-94.628443	-0.000142	-1.418834	-0.240357	-0.000028
1549	1.5403e+02	-9.1621	-94.612295	0.000081	0.810762	0.137347	0.000016
1550	1.5413e+02	-9.1426	-94.648629	-0.000182	-1.824215	-0.309030	-0.000037
1551	1.5422e+02	-9.1226	-94.701112	-0.000263	-2.634977	-0.446377	-0.000053
1552	1.5432e+02	-9.1029	-94.709186	-0.000041	-0.405381	-0.068673	-0.000008
1553	1.5442e+02	-9.0831	-94.741483	-0.000162	-1.621524	-0.274694	-0.000032
1554	1.5452e+02	-9.0623	-94.721297	0.000101	1.013453	0.171684	0.000020
1555	1.5462e+02	-9.0421	-94.789929	-0.000345	-3.445739	-0.583724	-0.000069
1556	1.5472e+02	-9.0221	-94.798003	-0.000041	-0.405381	-0.068673	-0.000008
1557	1.5482e+02	-9.0027	-94.789929	0.000041	0.405381	0.068673	0.000008
1558	1.5492e+02	-8.9838	-94.834337	-0.000223	-2.229596	-0.377704	-0.000045
1559	1.5502e+02	-8.9636	-94.814151	0.000101	1.013453	0.171684	0.000020
1560	1.5512e+02	-8.9433	-94.810114	0.000020	0.202691	0.034337	0.000004
1561	1.5522e+02	-8.9232	-94.802040	0.000041	0.405381	0.068673	0.000008
1562	1.5532e+02	-8.9040	-94.810114	-0.000041	-0.405381	-0.068673	-0.000008
1563	1.5542e+02	-8.8840	-94.806077	0.000020	0.202691	0.034337	0.000004
1564	1.5552e+02	-8.8638	-94.769743	0.000182	1.824215	0.309030	0.000037
1565	1.5562e+02	-8.8426	-94.773780	-0.000020	-0.202691	-0.034337	-0.000004
1566	1.5572e+02	-8.8244	-94.798003	-0.000122	-1.216143	-0.206020	-0.000024
1567	1.5582e+02	-8.8041	-94.769743	0.000142	1.418834	0.240357	0.000028
1568	1.5592e+02	-8.7846	-94.745520	0.000122	1.216143	0.206020	0.000024
1569	1.5602e+02	-8.7643	-94.693037	0.000263	2.634977	0.446377	0.000053
1570	1.5612e+02	-8.7439	-94.684963	0.000041	0.405381	0.068673	0.000008
1571	1.5622e+02	-8.7244	-94.680926	0.000020	0.202691	0.034337	0.000004
1572	1.5631e+02	-8.7048	-94.640555	0.000203	2.026905	0.343367	0.000041
1573	1.5641e+02	-8.6855	-94.612295	0.000142	1.418834	0.240357	0.000028
1574	1.5651e+02	-8.6641	-94.596146	0.000081	0.810762	0.137347	0.000016
1575	1.5661e+02	-8.6446	-94.543663	0.000263	2.634977	0.446377	0.000053
1576	1.5671e+02	-8.6241	-94.527515	0.000081	0.810762	0.137347	0.000016
1577	1.5681e+02	-8.6052	-94.539626	-0.000061	-0.608072	-0.103010	-0.000012
1578	1.5691e+02	-8.5841	-94.483106	0.000284	2.837667	0.480714	0.000057
1579	1.5701e+02	-8.5655	-94.426586	0.000284	2.837667	0.480714	0.000057
1580	1.5711e+02	-8.5449	-94.374104	0.000263	2.634977	0.446377	0.000053
1581	1.5721e+02	-8.5254	-94.293361	0.000405	4.053810	0.686734	0.000081
1582	1.5731e+02	-8.5048	-94.329695	-0.000182	-1.824215	-0.309030	-0.000037
1583	1.5741e+02	-8.4861	-94.252990	0.000385	3.851120	0.652397	0.000077
1584	1.5751e+02	-8.4663	-94.224730	0.000142	1.418834	0.240357	0.000028
1585	1.5761e+02	-8.4454	-94.208581	0.000081	0.810762	0.137347	0.000016
1586	1.5771e+02	-8.4249	-94.160135	0.000243	2.432286	0.412040	0.000049
1587	1.5781e+02	-8.4058	-94.079393	0.000405	4.053810	0.686734	0.000081
1588	1.5791e+02	-8.3865	-94.030947	0.000243	2.432286	0.412040	0.000049
1589	1.5801e+02	-8.3656	-93.946167	0.000426	4.256501	0.721071	0.000085
1590	1.5811e+02	-8.3464	-93.921944	0.000122	1.216143	0.206020	0.000024
1591	1.5821e+02	-8.3260	-93.885610	0.000182	1.824215	0.309030	0.000037
1592	1.5830e+02	-8.3065	-93.849276	0.000182	1.824215	0.309030	0.000037
1593	1.5840e+02	-8.2864	-93.764496	0.000426	4.256501	0.721071	0.000085
1594	1.5850e+02	-8.2669	-93.699902	0.000324	3.243048	0.549387	0.000065
1595	1.5860e+02	-8.2458	-93.639345	0.000304	3.040358	0.515051	0.000061
1596	1.5870e+02	-8.2262	-93.627233	0.000061	0.608072	0.103010	0.000012
1597	1.5880e+02	-8.2065	-93.530342	0.000486	4.864572	0.824081	0.000097
1598	1.5890e+02	-8.1863	-93.481897	0.000243	2.432286	0.412040	0.000049
1599	1.5900e+02	-8.1662	-93.413265	0.000345	3.445739	0.583724	0.000069
1600	1.5910e+02	-8.1473	-93.332523	0.000405	4.053810	0.686734	0.000081
1601	1.5920e+02	-8.1259	-93.259854	0.000365	3.648429	0.618061	0.000073
1602	1.5930e+02	-8.1075	-93.215446	0.000223	2.229596	0.377704	0.000045
1603	1.5940e+02	-8.0881	-93.134703	0.000405	4.053810	0.686734	0.000081
1604	1.5950e+02	-8.0669	-93.122592	0.000061	0.608072	0.103010	0.000012
1605	1.5960e+02	-8.0469	-93.005515	0.000588	5.878025	0.995764	0.000118
1606	1.5970e+02	-8.0272	-92.916698	0.000446	4.459191	0.755407	0.000089
1607	1.5980e+02	-8.0075	-92.864215	0.000263	2.634977	0.446377	0.000053
1608	1.5990e+02	-7.9871	-92.795584	0.000345	3.445739	0.583724	0.000069
1609	1.6000e+02	-7.9678	-92.714841	0.000405	4.053810	0.686734	0.000081
1610	1.6010e+02	-7.9482	-92.654284	0.000304	3.040358	0.515051	0.000061
1611	1.6019e+02	-7.9263	-92.593727	0.000304	3.040358	0.515051	0.000061
1612	1.6029e+02	-7.9077	-92.537207	0.000284	2.837667	0.480714	0.000057
1613	1.6039e+02	-7.8882	-92.444353	0.000466	4.661882	0.789744	0.000093
1614	1.6049e+02	-7.8682	-92.343424	0.000507	5.067263	0.858418	0.000101
1615	1.6059e+02	-7.8473	-92.278830	0.000324	3.243048	0.549387	0.000065
1616	1.6069e+02	-7.8278	-92.194050	0.000426	4.256501	0.721071	0.000085
1617	1.6079e+02	-7.8079	-92.149642	0.000223	2.229596	0.377704	0.000045
1618	1.6089e+02	-7.7888	-92.085048	0.000324	3.243048	0.549387	0.000065
1619	1.6099e+02	-7.7684	-91.963934	0.000608	6.080715	1.030101	0.000122
1620	1.6109e+02	-7.7489	-91.911451	0.000263	2.634977	0.446377	0.000053
1621	1.6119e+02	-7.7283	-91.830708	0.000405	4.053810	0.686734	0.000081
1622	1.6129e+02	-7.7087	-91.745928	0.000426	4.256501	0.721071	0.000085
1623	1.6139e+02	-7.6884	-91.681334	0.000324	3.243048	0.549387	0.000065
1624	1.6149e+02	-7.6686	-91.572331	0.000547	5.472644	0.927091	0.000110
1625	1.6159e+02	-7.6488	-91.527923	0.000223	2.229596	0.377704	0.000045
1626	1.6169e+02	-7.6301	-91.443143	0.000426	4.256501	0.721071	0.000085
1627	1.6179e+02	-7.6089	-91.346252	0.000486	4.864572	0.824081	0.000097
1628	1.6189e+02	-7.5888	-91.281658	0.000324	3.243048	0.549387	0.000065
1629	1.6199e+02	-7.5693	-91.144395	0.000689	6.891477	1.167448	0.000138
1630	1.6209e+02	-7.5494	-91.071727	0.000365	3.648429	0.618061	0.000073
1631	1.6219e+02	-7.5294	-91.027318	0.000223	2.229596	0.377704	0.000045
1632	1.6228e+02	-7.5092	-90.946575	0.000405	4.053810	0.686734	0.000081
1633	1.6238e+02	-7.4883	-90.853721	0.000466	4.661882	0.789744	0.000093
1634	1.6248e+02	-7.4695	-90.768941	0.000426	4.256501	0.721071	0.000085
1635	1.6258e+02	-7.4496	-90.684162	0.000426	4.256501	0.721071	0.000085
1636	1.6268e+02	-7.4298	-90.579196	0.000527	5.269953	0.892754	0.000105
1637	1.6278e+02	-7.4095	-90.478268	0.000507	5.067263	0.858418	0.000101
1638	1.6288e+02	-7.3903	-90.405599	0.000365	3.648429	0.618061	0.000073
1639	1.6298e+02	-7.3701	-90.316782	0.000446	4.459191	0.755407	0.000089
1640	1.6308e+02	-7.3496	-90.223928	0.000466	4.661882	0.789744	0.000093
1641	1.6318e+02	-7.3309	-90.106851	0.000588	5.878025	0.995764	0.000118
1642	1.6328e+02	-7.3100	-89.981700	0.000628	6.283406	1.064438	0.000126
1643	1.6338e+02	-7.2906	-89.925180	0.000284	2.837667	0.480714	0.000057
1644	1.6348e+02	-7.2700	-89.856549	0.000345	3.445739	0.583724	0.000069
1645	1.6358e+02	-7.2504	-89.755620	0.000507	5.067263	0.858418	0.000101
1646	1.6368e+02	-7.2310	-89.658729	0.000486	4.864572	0.824081	0.000097
1647	1.6378e+02	-7.2107	-89.573949	0.000426	4.256501	0.721071	0.000085
1648	1.6388e+02	-7.1922	-89.428612	0.000730	7.296858	1.236121	0.000146
1649	1.6398e+02	-7.1707	-89.339795	0.000446	4.459191	0.755407	0.000089
1650	1.6408e+02	-7.1518	-89.295387	0.000223	2.229596	0.377704	0.000045
1651	1.6418e+02	-7.1310	-89.158124	0.000689	6.891477	1.167448	0.000138
1652	1.6427e+02	-7.1117	-89.101604	0.000284	2.837667	0.480714	0.000057
1653	1.6437e+02	-7.0920	-88.972416	0.000649	6.486096	1.098774	0.000130
1654	1.6447e+02	-7.0712	-88.863413	0.000547	5.472644	0.927091	0.000110
1655	1.6457e+02	-7.0515	-88.746336	0.000588	5.878025	0.995764	0.000118
1656	1.6467e+02	-7.0320	-88.681742	0.000324	3.243048	0.549387	0.000065
1657	1.6477e+02	-7.0110	-88.572740	0.000547	5.472644	0.927091	0.000110
1658	1.6487e+02	-6.9919	-88.467774	0.000527	5.269953	0.892754	0.000105
1659	1.6497e+02	-6.9714	-88.378957	0.000446	4.459191	0.755407	0.000089
1660	1.6507e+02	-6.9516	-88.290140	0.000446	4.459191	0.755407	0.000089
1661	1.6517e+02	-6.9318	-88.197286	0.000466	4.661882	0.789744	0.000093
1662	1.6527e+02	-6.9128	-88.076172	0.000608	6.080715	1.030101	0.000122
1663	1.6537e+02	-6.8913	-87.987355	0.000446	4.459191	0.755407	0.000089
1664	1.6547e+02	-6.8716	-87.894501	0.000466	4.661882	0.789744	0.000093
1665	1.6557e+02	-6.8521	-87.753201	0.000709	7.094168	1.201785	0.000142
1666	1.6567e+02	-6.8324	-87.692644	0.000304	3.040358	0.515051	0.000061
1667	1.6577e+02	-6.8134	-87.547307	0.000730	7.296858	1.236121	0.000146
1668	1.6587e+02	-6.7921	-87.446379	0.000507	5.067263	0.858418	0.000101
1669	1.6597e+02	-6.7720	-87.373710	0.000365	3.648429	0.618061	0.000073
1670	1.6607e+02	-6.7519	-87.280856	0.000466	4.661882	0.789744	0.000093
1671	1.6616e+02	-6.7325	-87.175891	0.000527	5.269953	0.892754	0.000105
1672	1.6626e+02	-6.7136	-87.074962	0.000507	5.067263	0.858418	0.000101
1673	1.6636e+02	-6.6940	-86.965960	0.000547	5.472644	0.927091	0.000110
1674	1.6646e+02	-6.6737	-86.869068	0.000486	4.864572	0.824081	0.000097
1675	1.6656e+02	-6.6534	-86.751991	0.000588	5.878025	0.995764	0.000118
1676	1.6666e+02	-6.6329	-86.634914	0.000588	5.878025	0.995764	0.000118
1677	1.6676e+02	-6.6133	-86.525912	0.000547	5.472644	0.927091	0.000110
1678	1.6686e+02	-6.5933	-86.449206	0.000385	3.851120	0.652397	0.000077
1679	1.6696e+02	-6.5729	-86.344241	0.000527	5.269953	0.892754	0.000105
1680	1.6706e+02	-6.5540	-86.251386	0.000466	4.661882	0.789744	0.000093
1681	1.6716e+02	-6.5344	-86.130272	0.000608	6.080715	1.030101	0.000122
1682	1.6726e+02	-6.5135	-86.049530	0.000405	4.053810	0.686734	0.000081
1683	1.6736e+02	-6.4938	-85.904193	0.000730	7.296858	1.236121	0.000146
1684	1.6746e+02	-6.4741	-85.843636	0.000304	3.040358	0.515051	0.000061
1685	1.6756e+02	-6.4539	-85.726559	0.000588	5.878025	0.995764	0.000118
1686	1.6766e+02	-6.4338	-85.633705	0.000466	4.661882	0.789744	0.000093
1687	1.6776e+02	-6.4138	-85.504516	0.000649	6.486096	1.098774	0.000130
1688	1.6786e+02	-6.3943	-85.411662	0.000466	4.661882	0.789744	0.000093
1689	1.6796e+02	-6.3736	-85.266325	0.000730	7.296858	1.236121	0.000146
1690	1.6806e+02	-6.3538	-85.157323	0.000547	5.472644	0.927091	0.000110
1691	1.6816e+02	-6.3339	-85.036209	0.000608	6.080715	1.030101	0.000122
1692	1.6825e+02	-6.3152	-84.959503	0.000385	3.851120	0.652397	0.000077
1693	1.6835e+02	-6.2946	-84.874723	0.000426	4.256501	0.721071	0.000085
1694	1.6845e+02	-6.2743	-84.761683	0.000568	5.675334	0.961428	0.000114
1695	1.6855e+02	-6.2549	-84.656718	0.000527	5.269953	0.892754	0.000105
1696	1.6865e+02	-6.2349	-84.555789	0.000507	5.067263	0.858418	0.000101
1697	1.6875e+02	-6.2146	-84.402378	0.000770	7.702239	1.304795	0.000154
1698	1.6885e+02	-6.1948	-84.341821	0.000304	3.040358	0.515051	0.000061
1699	1.6895e+02	-6.1748	-84.216670	0.000628	6.283406	1.064438	0.000126
1700	1.6905e+02	-6.1547	-84.079407	0.000689	6.891477	1.167448	0.000138
1701	1.6915e+02	-6.1352	-83.994628	0.000426	4.256501	0.721071	0.000085
1702	1.6925e+02	-6.1148	-83.881588	0.000568	5.675334	0.961428	0.000114
1703	1.6935e+02	-6.0951	-83.728177	0.000770	7.702239	1.304795	0.000154
1704	1.6945e+02	-6.0753	-83.619174	0.000547	5.472644	0.927091	0.000110
1705	1.6955e+02	-6.0550	-83.562654	0.000284	2.837667	0.480714	0.000057
1706	1.6965e+02	-6.0356	-83.425391	0.000689	6.891477	1.167448	0.000138
1707	1.6975e+02	-6.0155	-83.288129	0.000689	6.891477	1.167448	0.000138
1708	1.6985e+02	-5.9969	-83.167015	0.000608	6.080715	1.030101	0.000122
1709	1.6995e+02	-5.9756	-83.098383	0.000345	3.445739	0.583724	0.000069
1710	1.7005e+02	-5.9569	-82.932861	0.000831	8.310311	1.407805	0.000166
1711	1.7015e+02	-5.9355	-82.811747	0.000608	6.080715	1.030101	0.000122
1712	1.7024e+02	-5.9160	-82.690633	0.000608	6.080715	1.030101	0.000122
1713	1.7034e+02	-5.8960	-82.622001	0.000345	3.445739	0.583724	0.000069
1714	1.7044e+02	-5.8765	-82.512999	0.000547	5.472644	0.927091	0.000110
1715	1.7054e+02	-5.8556	-82.383810	0.000649	6.486096	1.098774	0.000130
1716	1.7064e+02	-5.8361	-82.299031	0.000426	4.256501	0.721071	0.000085
1717	1.7074e+02	-5.8160	-82.161768	0.000689	6.891477	1.167448	0.000138
1718	1.7084e+02	-5.7964	-82.052765	0.000547	5.472644	0.927091	0.000110
1719	1.7094e+02	-5.7761	-81.931651	0.000608	6.080715	1.030101	0.000122
1720	1.7104e+02	-5.7555	-81.822649	0.000547	5.472644	0.927091	0.000110
1721	1.7114e+02	-5.7352	-81.693460	0.000649	6.486096	1.098774	0.000130
1722	1.7124e+02	-5.7166	-81.632903	0.000304	3.040358	0.515051	0.000061
1723	1.7134e+02	-5.6973	-81.491603	0.000709	7.094168	1.201785	0.000142
1724	1.7144e+02	-5.6776	-81.338192	0.000770	7.702239	1.304795	0.000154
1725	1.7154e+02	-5.6570	-81.225152	0.000568	5.675334	0.961428	0.000114
1726	1.7164e+02	-5.6369	-81.140373	0.000426	4.256501	0.721071	0.000085
1727	1.7174e+02	-5.6174	-81.023296	0.000588	5.878025	0.995764	0.000118
1728	1.7184e+02	-5.5962	-80.877959	0.000730	7.296858	1.236121	0.000146
1729	1.7194e+02	-5.5772	-80.777030	0.000507	5.067263	0.858418	0.000101
1730	1.7204e+02	-5.5576	-80.684176	0.000466	4.661882	0.789744	0.000093
1731	1.7213e+02	-5.5373	-80.587285	0.000486	4.864572	0.824081	0.000097
1732	1.7223e+02	-5.5176	-80.454060	0.000669	6.688787	1.133111	0.000134
1733	1.7233e+02	-5.4971	-80.345057	0.000547	5.472644	0.927091	0.000110
1734	1.7243e+02	-5.4778	-80.215869	0.000649	6.486096	1.098774	0.000130
1735	1.7253e+02	-5.4578	-80.114940	0.000507	5.067263	0.858418	0.000101
1736	1.7263e+02	-5.4373	-80.022086	0.000466	4.661882	0.789744	0.000093
1737	1.7273e+02	-5.4181	-79.892898	0.000649	6.486096	1.098774	0.000130
1738	1.7283e+02	-5.3980	-79.755635	0.000689	6.891477	1.167448	0.000138
1739	1.7293e+02	-5.3786	-79.622410	0.000669	6.688787	1.133111	0.000134
1740	1.7303e+02	-5.3579	-79.529555	0.000466	4.661882	0.789744	0.000093
1741	1.7313e+02	-5.3381	-79.416516	0.000568	5.675334	0.961428	0.000114
1742	1.7323e+02	-5.3181	-79.275216	0.000709	7.094168	1.201785	0.000142
1743	1.7333e+02	-5.2971	-79.117768	0.000790	7.904930	1.339131	0.000158
1744	1.7343e+02	-5.2792	-79.020876	0.000486	4.864572	0.824081	0.000097
1745	1.7353e+02	-5.2579	-78.936097	0.000426	4.256501	0.721071	0.000085
1746	1.7363e+02	-5.2387	-78.819020	0.000588	5.878025	0.995764	0.000118
1747	1.7373e+02	-5.2194	-78.701943	0.000588	5.878025	0.995764	0.000118
1748	1.7383e+02	-5.1968	-78.564680	0.000689	6.891477	1.167448	0.000138
1749	1.7393e+02	-5.1775	-78.407232	0.000790	7.904930	1.339131	0.000158
1750	1.7403e+02	-5.1584	-78.322452	0.000426	4.256501	0.721071	0.000085
1751	1.7413e+02	-5.1393	-78.197301	0.000628	6.283406	1.064438	0.000126
1752	1.7422e+02	-5.1185	-78.060038	0.000689	6.891477	1.167448	0.000138
1753	1.7432e+02	-5.0986	-77.975258	0.000426	4.256501	0.721071	0.000085
1754	1.7442e+02	-5.0789	-77.829921	0.000730	7.296858	1.236121	0.000146
1755	1.7452e+02	-5.0593	-77.676510	0.000770	7.702239	1.304795	0.000154
1756	1.7462e+02	-5.0394	-77.595767	0.000405	4.053810	0.686734	0.000081
1757	1.7472e+02	-5.0198	-77.462542	0.000669	6.688787	1.133111	0.000134
1758	1.7482e+02	-5.0006	-77.369688	0.000466	4.661882	0.789744	0.000093
1759	1.7492e+02	-4.9789	-77.224351	0.000730	7.296858	1.236121	0.000146
1760	1.7502e+02	-4.9593	-77.119385	0.000527	5.269953	0.892754	0.000105
1761	1.7512e+02	-4.9393	-76.974049	0.000730	7.296858	1.236121	0.000146
1762	1.7522e+02	-4.9205	-76.856972	0.000588	5.878025	0.995764	0.000118
1763	1.7532e+02	-4.8994	-76.727783	0.000649	6.486096	1.098774	0.000130
1764	1.7542e+02	-4.8802	-76.598595	0.000649	6.486096	1.098774	0.000130
1765	1.7552e+02	-4.8602	-76.465369	0.000669	6.688787	1.133111	0.000134
1766	1.7562e+02	-4.8396	-76.344255	0.000608	6.080715	1.030101	0.000122
1767	1.7572e+02	-4.8203	-76.215067	0.000649	6.486096	1.098774	0.000130
1768	1.7582e+02	-4.8003	-76.130287	0.000426	4.256501	0.721071	0.000085
1769	1.7592e+02	-4.7797	-75.984950	0.000730	7.296858	1.236121	0.000146
1770	1.7602e+02	-4.7604	-75.863836	0.000608	6.080715	1.030101	0.000122
1771	1.7612e+02	-4.7408	-75.714462	0.000750	7.499549	1.270458	0.000150
1772	1.7621e+02	-4.7204	-75.589311	0.000628	6.283406	1.064438	0.000126
1773	1.7631e+02	-4.7006	-75.448011	0.000709	7.094168	1.201785	0.000142
1774	1.7641e+02	-4.6802	-75.375343	0.000365	3.648429	0.618061	0.000073
1775	1.7651e+02	-4.6611	-75.217895	0.000790	7.904930	1.339131	0.000158
1776	1.7661e+02	-4.6414	-75.060446	0.000790	7.904930	1.339131	0.000158
1777	1.7671e+02	-4.6216	-74.967592	0.000466	4.661882	0.789744	0.000093
1778	1.7681e+02	-4.6006	-74.810144	0.000790	7.904930	1.339131	0.000158
1779	1.7691e+02	-4.5813	-74.721327	0.000446	4.459191	0.755407	0.000089
1780	1.7701e+02	-4.5615	-74.555804	0.000831	8.310311	1.407805	0.000166
1781	1.7711e+02	-4.5419	-74.454876	0.000507	5.067263	0.858418	0.000101
1782	1.7721e+02	-4.5214	-74.353947	0.000507	5.067263	0.858418	0.000101
1783	1.7731e+02	-4.5018	-74.168239	0.000932	9.323763	1.579488	0.000187
1784	1.7741e+02	-4.4817	-74.075385	0.000466	4.661882	0.789744	0.000093
1785	1.7751e+02	-4.4611	-73.974457	0.000507	5.067263	0.858418	0.000101
1786	1.7761e+02	-4.4423	-73.849305	0.000628	6.283406	1.064438	0.000126
1787	1.7771e+02	-4.4225	-73.675709	0.000872	8.715692	1.476478	0.000174
1788	1.7781e+02	-4.4012	-73.554595	0.000608	6.080715	1.030101	0.000122
1789	1.7791e+02	-4.3817	-73.405221	0.000750	7.499549	1.270458	0.000150
1790	1.7801e+02	-4.3617	-73.284106	0.000608	6.080715	1.030101	0.000122
1791	1.7810e+02	-4.3421	-73.138770	0.000730	7.296858	1.236121	0.000146
1792	1.7820e+02	-4.3227	-73.041878	0.000486	4.864572	0.824081	0.000097
1793	1.7830e+02	-4.3019	-72.900579	0.000709	7.094168	1.201785	0.000142
1794	1.7840e+02	-4.2824	-72.783502	0.000588	5.878025	0.995764	0.000118
1795	1.7850e+02	-4.2625	-72.646239	0.000689	6.891477	1.167448	0.000138
1796	1.7860e+02	-4.2419	-72.517051	0.000649	6.486096	1.098774	0.000130
1797	1.7870e+02	-4.2226	-72.375751	0.000709	7.094168	1.201785	0.000142
1798	1.7880e+02	-4.2030	-72.250600	0.000628	6.283406	1.064438	0.000126
1799	1.7890e+02	-4.1826	-72.109300	0.000709	7.094168	1.201785	0.000142
1800	1.7900e+02	-4.1623	-71.996260	0.000568	5.675334	0.961428	0.000114
1801	1.7910e+02	-4.1428	-71.830738	0.000831	8.310311	1.407805	0.000166
1802	1.7920e+02	-4.1232	-71.721735	0.000547	5.472644	0.927091	0.000110
1803	1.7930e+02	-4.1035	-71.552175	0.000851	8.513001	1.442141	0.000170
1804	1.7940e+02	-4.0828	-71.435098	0.000588	5.878025	0.995764	0.000118
1805	1.7950e+02	-4.0633	-71.297836	0.000689	6.891477	1.167448	0.000138
1806	1.7960e+02	-4.0430	-71.196907	0.000507	5.067263	0.858418	0.000101
1807	1.7970e+02	-4.0226	-71.039459	0.000790	7.904930	1.339131	0.000158
1808	1.7980e+02	-4.0033	-70.869899	0.000851	8.513001	1.442141	0.000170
1809	1.7990e+02	-3.9838	-70.789157	0.000405	4.053810	0.686734	0.000081
1810	1.8000e+02	-3.9630	-70.583263	0.001034	10.337216	1.751172	0.000207
1811	1.8009e+02	-3.9433	-70.462149	0.000608	6.080715	1.030101	0.000122
1812	1.8019e+02	-3.9229	-70.312775	0.000750	7.499549	1.270458	0.000150
1813	1.8029e+02	-3.9037	-70.175512	0.000689	6.891477	1.167448	0.000138
1814	1.8039e+02	-3.8842	-70.046324	0.000649	6.486096	1.098774	0.000130
1815	1.8049e+02	-3.8633	-69.945395	0.000507	5.067263	0.858418	0.000101
1816	1.8059e+02	-3.8438	-69.763724	0.000912	9.121073	1.545152	0.000183
1817	1.8069e+02	-3.8242	-69.646647	0.000588	5.878025	0.995764	0.000118
1818	1.8079e+02	-3.8037	-69.489199	0.000790	7.904930	1.339131	0.000158
1819	1.8089e+02	-3.7839	-69.355973	0.000669	6.688787	1.133111	0.000134
1820	1.8099e+02	-3.7653	-69.230822	0.000628	6.283406	1.064438	0.000126
1821	1.8109e+02	-3.7447	-69.077411	0.000770	7.702239	1.304795	0.000154
1822	1.8119e+02	-3.7247	-68.915926	0.000811	8.107620	1.373468	0.000162
1823	1.8129e+02	-3.7044	-68.802886	0.000568	5.675334	0.961428	0.000114
1824	1.8139e+02	-3.6848	-68.649475	0.000770	7.702239	1.304795	0.000154
1825	1.8149e+02	-3.6649	-68.504138	0.000730	7.296858	1.236121	0.000146
1826	1.8159e+02	-3.6456	-68.378987	0.000628	6.283406	1.064438	0.000126
1827	1.8169e+02	-3.6249	-68.225575	0.000770	7.702239	1.304795	0.000154
1828	1.8179e+02	-3.6039	-68.084276	0.000709	7.094168	1.201785	0.000142
1829	1.8189e+02	-3.5852	-67.934902	0.000750	7.499549	1.270458	0.000150
1830	1.8199e+02	-3.5658	-67.809750	0.000628	6.283406	1.064438	0.000126
1831	1.8209e+02	-3.5455	-67.664414	0.000730	7.296858	1.236121	0.000146
1832	1.8218e+02	-3.5254	-67.506965	0.000790	7.904930	1.339131	0.000158
1833	1.8228e+02	-3.5053	-67.357591	0.000750	7.499549	1.270458	0.000150
1834	1.8238e+02	-3.4859	-67.260700	0.000486	4.864572	0.824081	0.000097
1835	1.8248e+02	-3.4651	-67.095177	0.000831	8.310311	1.407805	0.000166
1836	1.8258e+02	-3.4451	-66.945803	0.000750	7.499549	1.270458	0.000150
1837	1.8268e+02	-3.4254	-66.832764	0.000568	5.675334	0.961428	0.000114
1838	1.8278e+02	-3.4054	-66.655130	0.000892	8.918382	1.510815	0.000179
1839	1.8288e+02	-3.3858	-66.529978	0.000628	6.283406	1.064438	0.000126
1840	1.8298e+02	-3.3662	-66.360419	0.000851	8.513001	1.442141	0.000170
1841	1.8308e+02	-3.3469	-66.251416	0.000547	5.472644	0.927091	0.000110
1842	1.8318e+02	-3.3260	-66.077819	0.000872	8.715692	1.476478	0.000174
1843	1.8328e+02	-3.3065	-65.944594	0.000669	6.688787	1.133111	0.000134
1844	1.8338e+02	-3.2860	-65.835591	0.000547	5.472644	0.927091	0.000110
1845	1.8348e+02	-3.2658	-65.661994	0.000872	8.715692	1.476478	0.000174
1846	1.8358e+02	-3.2463	-65.496472	0.000831	8.310311	1.407805	0.000166
1847	1.8368e+02	-3.2268	-65.339023	0.000790	7.904930	1.339131	0.000158
1848	1.8378e+02	-3.2063	-65.205798	0.000669	6.688787	1.133111	0.000134
1849	1.8388e+02	-3.1856	-65.064498	0.000709	7.094168	1.201785	0.000142
1850	1.8398e+02	-3.1667	-64.890901	0.000872	8.715692	1.476478	0.000174
1851	1.8407e+02	-3.1471	-64.830344	0.000304	3.040358	0.515051	0.000061
1852	1.8417e+02	-3.1271	-64.616376	0.001074	10.742597	1.819845	0.000215
1853	1.8427e+02	-3.1075	-64.479113	0.000689	6.891477	1.167448	0.000138
1854	1.8437e+02	-3.0871	-64.341851	0.000689	6.891477	1.167448	0.000138
1855	1.8447e+02	-3.0667	-64.196514	0.000730	7.296858	1.236121	0.000146
1856	1.8457e+02	-3.0474	-64.026954	0.000851	8.513001	1.442141	0.000170
1857	1.8467e+02	-3.0267	-63.950249	0.000385	3.851120	0.652397	0.000077
1858	1.8477e+02	-3.0074	-63.760503	0.000953	9.526454	1.613825	0.000191
1859	1.8487e+02	-2.9867	-63.639389	0.000608	6.080715	1.030101	0.000122
1860	1.8497e+02	-2.9673	-63.485978	0.000770	7.702239	1.304795	0.000154
1861	1.8507e+02	-2.9464	-63.316418	0.000851	8.513001	1.442141	0.000170
1862	1.8517e+02	-2.9276	-63.179156	0.000689	6.891477	1.167448	0.000138
1863	1.8527e+02	-2.9070	-63.049967	0.000649	6.486096	1.098774	0.000130
1864	1.8537e+02	-2.8869	-62.835999	0.001074	10.742597	1.819845	0.000215
1865	1.8547e+02	-2.8685	-62.731034	0.000527	5.269953	0.892754	0.000105
1866	1.8557e+02	-2.8467	-62.593771	0.000689	6.891477	1.167448	0.000138
1867	1.8567e+02	-2.8272	-62.428248	0.000831	8.310311	1.407805	0.000166
1868	1.8577e+02	-2.8085	-62.270800	0.000790	7.904930	1.339131	0.000158
1869	1.8587e+02	-2.7881	-62.109315	0.000811	8.107620	1.373468	0.000162
1870	1.8597e+02	-2.7684	-61.951866	0.000790	7.904930	1.339131	0.000158
1871	1.8606e+02	-2.7477	-61.802492	0.000750	7.499549	1.270458	0.000150
1872	1.8616e+02	-2.7277	-61.705601	0.000486	4.864572	0.824081	0.000097
1873	1.8626e+02	-2.7084	-61.532004	0.000872	8.715692	1.476478	0.000174
1874	1.8636e+02	-2.6888	-61.370519	0.000811	8.107620	1.373468	0.000162
1875	1.8646e+02	-2.6684	-61.217108	0.000770	7.702239	1.304795	0.000154
1876	1.8656e+02	-2.6488	-61.075808	0.000709	7.094168	1.201785	0.000142
1877	1.8666e+02	-2.6285	-60.930471	0.000730	7.296858	1.236121	0.000146
1878	1.8676e+02	-2.6076	-60.785134	0.000730	7.296858	1.236121	0.000146
1879	1.8686e+02	-2.5888	-60.587315	0.000993	9.931835	1.682498	0.000199
1880	1.8696e+02	-2.5694	-60.458126	0.000649	6.486096	1.098774	0.000130
1881	1.8706e+02	-2.5484	-60.312789	0.000730	7.296858	1.236121	0.000146
1882	1.8716e+02	-2.5281	-60.147267	0.000831	8.310311	1.407805	0.000166
1883	1.8726e+02	-2.5103	-60.014041	0.000669	6.688787	1.133111	0.000134
1884	1.8736e+02	-2.4898	-59.876779	0.000689	6.891477	1.167448	0.000138
1885	1.8746e+02	-2.4701	-59.739516	0.000689	6.891477	1.167448	0.000138
1886	1.8756e+02	-2.4496	-59.529585	0.001054	10.539906	1.785508	0.000211
1887	1.8766e+02	-2.4300	-59.396360	0.000669	6.688787	1.133111	0.000134
1888	1.8776e+02	-2.4097	-59.238911	0.000790	7.904930	1.339131	0.000158
1889	1.8786e+02	-2.3893	-59.101649	0.000689	6.891477	1.167448	0.000138
1890	1.8796e+02	-2.3701	-58.984572	0.000588	5.878025	0.995764	0.000118
1891	1.8806e+02	-2.3498	-58.810975	0.000872	8.715692	1.476478	0.000174
1892	1.8815e+02	-2.3299	-58.693898	0.000588	5.878025	0.995764	0.000118
1893	1.8825e+02	-2.3104	-58.496078	0.000993	9.931835	1.682498	0.000199
1894	1.8835e+02	-2.2914	-58.338630	0.000790	7.904930	1.339131	0.000158
1895	1.8845e+02	-2.2708	-58.197330	0.000709	7.094168	1.201785	0.000142
1896	1.8855e+02	-2.2502	-58.068142	0.000649	6.486096	1.098774	0.000130
1897	1.8865e+02	-2.2303	-57.902619	0.000831	8.310311	1.407805	0.000166
1898	1.8875e+02	-2.2104	-57.761320	0.000709	7.094168	1.201785	0.000142
1899	1.8885e+02	-2.1908	-57.611946	0.000750	7.499549	1.270458	0.000150
1900	1.8895e+02	-2.1719	-57.422200	0.000953	9.526454	1.613825	0.000191
1901	1.8905e+02	-2.1499	-57.280900	0.000709	7.094168	1.201785	0.000142
1902	1.8915e+02	-2.1310	-57.175935	0.000527	5.269953	0.892754	0.000105
1903	1.8925e+02	-2.1109	-57.006375	0.000851	8.513001	1.442141	0.000170
1904	1.8935e+02	-2.0912	-56.852964	0.000770	7.702239	1.304795	0.000154
1905	1.8945e+02	-2.0708	-56.739924	0.000568	5.675334	0.961428	0.000114
1906	1.8955e+02	-2.0512	-56.534030	0.001034	10.337216	1.751172	0.000207
1907	1.8965e+02	-2.0314	-56.384656	0.000750	7.499549	1.270458	0.000150
1908	1.8975e+02	-2.0117	-56.235282	0.000750	7.499549	1.270458	0.000150
1909	1.8985e+02	-1.9913	-56.065723	0.000851	8.513001	1.442141	0.000170
1910	1.8995e+02	-1.9708	-55.924423	0.000709	7.094168	1.201785	0.000142
1911	1.9004e+02	-1.9515	-55.754863	0.000851	8.513001	1.442141	0.000170
1912	1.9014e+02	-1.9321	-55.637786	0.000588	5.878025	0.995764	0.000118
1913	1.9024e+02	-1.9118	-55.439967	0.000993	9.931835	1.682498	0.000199
1914	1.9034e+02	-1.8915	-55.339038	0.000507	5.067263	0.858418	0.000101
1915	1.9044e+02	-1.8727	-55.153330	0.000932	9.323763	1.579488	0.000187
1916	1.9054e+02	-1.8515	-55.020104	0.000669	6.688787	1.133111	0.000134
1917	1.9064e+02	-1.8320	-54.866693	0.000770	7.702239	1.304795	0.000154
1918	1.9074e+02	-1.8127	-54.697134	0.000851	8.513001	1.442141	0.000170
1919	1.9084e+02	-1.7915	-54.559871	0.000689	6.891477	1.167448	0.000138
1920	1.9094e+02	-1.7721	-54.341866	0.001095	10.945287	1.854182	0.000219
1921	1.9104e+02	-1.7521	-54.204603	0.000689	6.891477	1.167448	0.000138
1922	1.9114e+02	-1.7325	-54.091563	0.000568	5.675334	0.961428	0.000114
1923	1.9124e+02	-1.7121	-53.873558	0.001095	10.945287	1.854182	0.000219
1924	1.9134e+02	-1.6936	-53.748407	0.000628	6.283406	1.064438	0.000126
1925	1.9144e+02	-1.6727	-53.635367	0.000568	5.675334	0.961428	0.000114
1926	1.9154e+02	-1.6527	-53.429473	0.001034	10.337216	1.751172	0.000207
1927	1.9164e+02	-1.6325	-53.276062	0.000770	7.702239	1.304795	0.000154
1928	1.9174e+02	-1.6119	-53.122651	0.000770	7.702239	1.304795	0.000154
1929	1.9184e+02	-1.5930	-52.969239	0.000770	7.702239	1.304795	0.000154
1930	1.9194e+02	-1.5736	-52.807754	0.000811	8.107620	1.373468	0.000162
1931	1.9203e+02	-1.5521	-52.634157	0.000872	8.715692	1.476478	0.000174
1932	1.9213e+02	-1.5324	-52.513043	0.000608	6.080715	1.030101	0.000122
1933	1.9223e+02	-1.5127	-52.343483	0.000851	8.513001	1.442141	0.000170
1934	1.9233e+02	-1.4930	-52.181998	0.000811	8.107620	1.373468	0.000162
1935	1.9243e+02	-1.4732	-51.984178	0.000993	9.931835	1.682498	0.000199
1936	1.9253e+02	-1.4523	-51.814619	0.000851	8.513001	1.442141	0.000170
1937	1.9263e+02	-1.4334	-51.697542	0.000588	5.878025	0.995764	0.000118
1938	1.9273e+02	-1.4140	-51.499722	0.000993	9.931835	1.682498	0.000199
1939	1.9283e+02	-1.3940	-51.374571	0.000628	6.283406	1.064438	0.000126
1940	1.9293e+02	-1.3741	-51.237308	0.000689	6.891477	1.167448	0.000138
1941	1.9303e+02	-1.3537	-51.043526	0.000973	9.729144	1.648162	0.000195
1942	1.9313e+02	-1.3338	-50.934523	0.000547	5.472644	0.927091	0.000110
1943	1.9323e+02	-1.3139	-50.724592	0.001054	10.539906	1.785508	0.000211
1944	1.9333e+02	-1.2934	-50.603478	0.000608	6.080715	1.030101	0.000122
1945	1.9343e+02	-1.2734	-50.393547	0.001054	10.539906	1.785508	0.000211
1946	1.9353e+02	-1.2547	-50.232061	0.000811	8.107620	1.373468	0.000162
1947	1.9363e+02	-1.2340	-50.070576	0.000811	8.107620	1.373468	0.000162
1948	1.9373e+02	-1.2151	-49.909091	0.000811	8.107620	1.373468	0.000162
1949	1.9383e+02	-1.1950	-49.731457	0.000892	8.918382	1.510815	0.000179
1950	1.9393e+02	-1.1747	-49.634565	0.000486	4.864572	0.824081	0.000097
1951	1.9403e+02	-1.1549	-49.473080	0.000811	8.107620	1.373468	0.000162
1952	1.9412e+02	-1.1343	-49.311594	0.000811	8.107620	1.373468	0.000162
1953	1.9422e+02	-1.1150	-49.129923	0.000912	9.121073	1.545152	0.000183
1954	1.9432e+02	-1.0949	-48.996698	0.000669	6.688787	1.133111	0.000134
1955	1.9442e+02	-1.0735	-48.823101	0.000872	8.715692	1.476478	0.000174
1956	1.9452e+02	-1.0556	-48.685838	0.000689	6.891477	1.167448	0.000138
1957	1.9462e+02	-1.0354	-48.520316	0.000831	8.310311	1.407805	0.000166
1958	1.9472e+02	-1.0149	-48.374979	0.000730	7.296858	1.236121	0.000146
1959	1.9482e+02	-0.9953	-48.169085	0.001034	10.337216	1.751172	0.000207
1960	1.9492e+02	-0.9754	-48.027785	0.000709	7.094168	1.201785	0.000142
1961	1.9502e+02	-0.9556	-47.894560	0.000669	6.688787	1.133111	0.000134
1962	1.9512e+02	-0.9351	-47.700777	0.000973	9.729144	1.648162	0.000195
1963	1.9522e+02	-0.9157	-47.567552	0.000669	6.688787	1.133111	0.000134
1964	1.9532e+02	-0.8955	-47.402029	0.000831	8.310311	1.407805	0.000166
1965	1.9542e+02	-0.8755	-47.244581	0.000790	7.904930	1.339131	0.000158
1966	1.9552e+02	-0.8560	-47.070984	0.000872	8.715692	1.476478	0.000174
1967	1.9562e+02	-0.8362	-46.945833	0.000628	6.283406	1.064438	0.000126
1968	1.9572e+02	-0.8156	-46.723790	0.001115	11.147978	1.888519	0.000223
1969	1.9582e+02	-0.7970	-46.586528	0.000689	6.891477	1.167448	0.000138
1970	1.9592e+02	-0.7756	-46.396782	0.000953	9.526454	1.613825	0.000191
1971	1.9601e+02	-0.7559	-46.263557	0.000669	6.688787	1.133111	0.000134
1972	1.9611e+02	-0.7361	-46.041515	0.001115	11.147978	1.888519	0.000223
1973	1.9621e+02	-0.7162	-45.936549	0.000527	5.269953	0.892754	0.000105
1974	1.9631e+02	-0.6956	-45.746804	0.000953	9.526454	1.613825	0.000191
1975	1.9641e+02	-0.6773	-45.569170	0.000892	8.918382	1.510815	0.000179
1976	1.9651e+02	-0.6561	-45.391536	0.000892	8.918382	1.510815	0.000179
1977	1.9661e+02	-0.6365	-45.250236	0.000709	7.094168	1.201785	0.000142
1978	1.9671e+02	-0.6161	-45.064528	0.000932	9.323763	1.579488	0.000187
1979	1.9681e+02	-0.5966	-44.903042	0.000811	8.107620	1.373468	0.000162
1980	1.9691e+02	-0.5764	-44.761742	0.000709	7.094168	1.201785	0.000142
1981	1.9701e+02	-0.5567	-44.600257	0.000811	8.107620	1.373468	0.000162
1982	1.9711e+02	-0.5365	-44.450883	0.000750	7.499549	1.270458	0.000150
1983	1.9721e+02	-0.5167	-44.265175	0.000932	9.323763	1.579488	0.000187
1984	1.9731e+02	-0.4961	-44.071392	0.000973	9.729144	1.648162	0.000195
1985	1.9741e+02	-0.4770	-43.893758	0.000892	8.918382	1.510815	0.000179
1986	1.9751e+02	-0.4575	-43.740347	0.000770	7.702239	1.304795	0.000154
1987	1.9761e+02	-0.4368	-43.595010	0.000730	7.296858	1.236121	0.000146
1988	1.9771e+02	-0.4177	-43.425451	0.000851	8.513001	1.442141	0.000170
1989	1.9781e+02	-0.3974	-43.235705	0.000953	9.526454	1.613825	0.000191
1990	1.9791e+02	-0.3773	-43.098443	0.000689	6.891477	1.167448	0.000138
1991	1.9800e+02	-0.3569	-42.888512	0.001054	10.539906	1.785508	0.000211
1992	1.9810e+02	-0.3376	-42.731063	0.000790	7.904930	1.339131	0.000158
1993	1.9820e+02	-0.3180	-42.585726	0.000730	7.296858	1.236121	0.000146
1994	1.9830e+02	-0.2985	-42.408092	0.000892	8.918382	1.510815	0.000179
1995	1.9840e+02	-0.2777	-42.242570	0.000831	8.310311	1.407805	0.000166
1996	1.9850e+02	-0.2579	-42.073010	0.000851	8.513001	1.442141	0.000170
1997	1.9860e+02	-0.2388	-41.899413	0.000872	8.715692	1.476478	0.000174
1998	1.9870e+02	-0.2183	-41.737928	0.000811	8.107620	1.373468	0.000162
1999	1.9880e+02	-0.1981	-41.612777	0.000628	6.283406	1.064438	0.000126
2000	1.9890e+02	-0.1788	-41.378623	0.001176	11.756049	1.991529	0.000235
2001	1.9900e+02	-0.1584	-41.265583	0.000568	5.675334	0.961428	0.000114
2002	1.9910e+02	-0.1380	-41.083912	0.000912	9.121073	1.545152	0.000183
2003	1.9920e+02	-0.1186	-40.942612	0.000709	7.094168	1.201785	0.000142
2004	1.9930e+02	-0.0987	-40.760941	0.000912	9.121073	1.545152	0.000183
2005	1.9940e+02	-0.0792	-40.567158	0.000973	9.729144	1.648162	0.000195
2006	1.9950e+02	-0.0583	-40.470267	0.000486	4.864572	0.824081	0.000097
2007	1.9960e+02	-0.0385	-40.256299	0.001074	10.742597	1.819845	0.000215
2008	1.9970e+02	-0.0189	-40.082702	0.000872	8.715692	1.476478	0.000174
2009	1.9980e+02	-0.0002	-39.953514	0.000872	8.715692	1.476478	0.000130

Smooth data before PMax, +/-Pr and +/-Vc Calc.

PMax (uC/cm2):	6.89e+01
Pr (uC/cm2):	5.67e+00
-Pr (uC/cm2):	-6.58e+01
PLoss (uC/cm2):	-6.59e+01
-Vc:	-6.81e-01
C (Max-Eff) (nF):	6.89e-01
K (Eff):	1.17e+03
Vert. (+/-Pr) Shift (uC/cm2):	-3.01e+01
Offset (uC/cm2):	-2.59e+01

A (Loop Area - uC/cm2·Volts):	-2.51e-01



Hysteresis Version: 5.48.1 - Radiant Technologies, Inc., 1999 - 9/12/24

