»»»»»»»»»»»»»»»»»»»»»»»»»»»»»»»»»»»» Hysteresis ««««««««««««««««««««««««««««««««««««
»»»  Executed Version:	5.48.1
»»»  Vision Version:	5.48.4 (R)
»»»  Vision Compiled:	9/18/24
»»»  Driver Version:	5.47.0
»»»  Windows Version:	Windows 8 or 8.1
»»»  Processor Information:	x86 (AMD or Intel) - 32 Processors
»»»  Tester Name:	PMF21124-494 (100V)
»»»  Tester S/N:	PMF21124-494
»»»  Internal Amp Type:	100V RevK 270k
»»»  Internal Amp S/N:	iAB2-596/K     
»»»  Execution Count:	1
»»»»»»»»»»»»»»»»»»»»»»»»»»»»»»»»»»»»»»»»»»««««««««««««««««««««««««««««««««««««««««««

Stored:	7/8/2025 - 16:46:6
Configured:	07/08/25 02:50:47 PM
Executed:	07/08/25 04:45:36 PM

»»»»»»»»»»»»»»»»»»»»»»»»»»»»»»»»»»» Sample Info ««««««««««««««««««««««««««««««««««««
Sample Name:	
Lot Name:	
Wafer Name:	
Die Row/Column:	0/0
Capacitor Number:	0
Sample Area (cm2):	1.00e-04
Sample Thickness (microns):	1.50e-01

Amplifier:	Internal

»»»»»»»»»»»»»»»»»»»»»»»»»»»»»»»»»»» Tester Info «««««««««««««««««««««««««««««««««««
Tester Name:	PMF21124-494 (100V)
Tester Serial Number:	PMF21124-494
Return Signal Amp. Level:	0.19 [Index: 3]

»»»»»»»»»»»»»»»»»»»»»»»»»»»»»»»» Hysteresis Info ««««««««««««««««««««««««««««««««««
Task Name:	Hyst-724
Volts:	10.00
Field:	666.67 (kV/cm)
DCBias:	0.00
DCField:	0.00 (kV/cm)
Hysteresis Period (ms):	2.00e+02
Preset:	Enabled
Preset Delay (ms):	1.00e+03
Profile:	Standard Bipolar

»»»»»»»»»»»»»»»»»»»»»»»»»»»»»»»»»»»»»» Data «««««««««««««««««««««««««««««««««««««««
Points:	2009

Valid Data

Point	Time (ms)	Drive Voltage	Measured Polarization (uC/cm2)	Capacitance (uF)	Normalized Capacitance (uF/cm2)	Dielectric Constant	Instantaneous Current (mA)
   1	0.0000e+00	-0.0005	-1.907547	0.001014	10.135434	1.716989	0.000203
   2	9.9500e-02	0.0189	-1.705690	0.001014	10.135434	1.716989	0.000203
   3	1.9900e-01	0.0381	-1.576502	0.000649	6.486678	1.098873	0.000130
   4	2.9850e-01	0.0590	-1.362533	0.001074	10.743560	1.820008	0.000215
   5	3.9800e-01	0.0793	-1.184899	0.000892	8.919182	1.510950	0.000179
   6	4.9750e-01	0.0989	-1.015340	0.000851	8.513764	1.442271	0.000170
   7	5.9700e-01	0.1189	-0.813483	0.001014	10.135434	1.716989	0.000203
   8	6.9650e-01	0.1381	-0.704480	0.000547	5.473134	0.927174	0.000110
   9	7.9600e-01	0.1594	-0.518772	0.000932	9.324599	1.579630	0.000187
  10	8.9550e-01	0.1785	-0.337101	0.000912	9.121890	1.545290	0.000183
  11	9.9500e-01	0.1984	-0.131207	0.001034	10.338143	1.751329	0.000207
  12	1.0945e+00	0.2178	0.018167	0.000750	7.500221	1.270572	0.000150
  13	1.1940e+00	0.2390	0.211950	0.000973	9.730017	1.648309	0.000195
  14	1.2935e+00	0.2589	0.353249	0.000709	7.094804	1.201892	0.000142
  15	1.3930e+00	0.2779	0.538958	0.000932	9.324599	1.579630	0.000187
  16	1.4925e+00	0.2988	0.732740	0.000973	9.730017	1.648309	0.000195
  17	1.5920e+00	0.3184	0.890188	0.000791	7.905638	1.339251	0.000158
  18	1.6915e+00	0.3386	1.079934	0.000953	9.527308	1.613970	0.000191
  19	1.7910e+00	0.3584	1.245456	0.000831	8.311056	1.407931	0.000166
  20	1.8905e+00	0.3771	1.447313	0.001014	10.135434	1.716989	0.000203
  21	1.9900e+00	0.3978	1.596687	0.000750	7.500221	1.270572	0.000150
  22	2.0895e+00	0.4176	1.762210	0.000831	8.311056	1.407931	0.000166
  23	2.1890e+00	0.4373	1.947918	0.000932	9.324599	1.579630	0.000187
  24	2.2885e+00	0.4575	2.145738	0.000993	9.932725	1.682649	0.000199
  25	2.3880e+00	0.4778	2.299149	0.000770	7.702930	1.304912	0.000154
  26	2.4875e+00	0.4972	2.513117	0.001074	10.743560	1.820008	0.000215
  27	2.5870e+00	0.5167	2.674602	0.000811	8.108347	1.373591	0.000162
  28	2.6865e+00	0.5372	2.856274	0.000912	9.121890	1.545290	0.000183
  29	2.7860e+00	0.5570	3.050056	0.000973	9.730017	1.648309	0.000195
  30	2.8855e+00	0.5778	3.231727	0.000912	9.121890	1.545290	0.000183
  31	2.9850e+00	0.5959	3.393213	0.000811	8.108347	1.373591	0.000162
  32	3.0845e+00	0.6169	3.566809	0.000872	8.716473	1.476611	0.000174
  33	3.1840e+00	0.6367	3.760592	0.000973	9.730017	1.648309	0.000195
  34	3.2835e+00	0.6574	3.954374	0.000973	9.730017	1.648309	0.000195
  35	3.3830e+00	0.6761	4.136046	0.000912	9.121890	1.545290	0.000183
  36	3.4825e+00	0.6960	4.277345	0.000709	7.094804	1.201892	0.000142
  37	3.5820e+00	0.7165	4.471128	0.000973	9.730017	1.648309	0.000195
  38	3.6815e+00	0.7362	4.677022	0.001034	10.338143	1.751329	0.000207
  39	3.7810e+00	0.7568	4.834470	0.000791	7.905638	1.339251	0.000158
  40	3.8805e+00	0.7760	5.016141	0.000912	9.121890	1.545290	0.000183
  41	3.9800e+00	0.7958	5.222035	0.001034	10.338143	1.751329	0.000207
  42	4.0795e+00	0.8161	5.391595	0.000851	8.513764	1.442271	0.000170
  43	4.1790e+00	0.8360	5.593452	0.001014	10.135434	1.716989	0.000203
  44	4.2785e+00	0.8570	5.779160	0.000932	9.324599	1.579630	0.000187
  45	4.3780e+00	0.8759	5.956794	0.000892	8.919182	1.510950	0.000179
  46	4.4775e+00	0.8959	6.118279	0.000811	8.108347	1.373591	0.000162
  47	4.5770e+00	0.9161	6.356470	0.001196	11.959812	2.026047	0.000239
  48	4.6765e+00	0.9348	6.546216	0.000953	9.527308	1.613970	0.000191
  49	4.7760e+00	0.9559	6.719812	0.000872	8.716473	1.476611	0.000174
  50	4.8755e+00	0.9756	6.933781	0.001074	10.743560	1.820008	0.000215
  51	4.9750e+00	0.9954	7.067006	0.000669	6.689386	1.133213	0.000134
  52	5.0745e+00	1.0159	7.260789	0.000973	9.730017	1.648309	0.000195
  53	5.1740e+00	1.0349	7.474757	0.001074	10.743560	1.820008	0.000215
  54	5.2735e+00	1.0553	7.668539	0.000973	9.730017	1.648309	0.000195
  55	5.3730e+00	1.0756	7.817913	0.000750	7.500221	1.270572	0.000150
  56	5.4725e+00	1.0947	8.048030	0.001155	11.554395	1.957367	0.000231
  57	5.5720e+00	1.1147	8.257961	0.001054	10.540851	1.785669	0.000211
  58	5.6715e+00	1.1346	8.447707	0.000953	9.527308	1.613970	0.000191
  59	5.7710e+00	1.1555	8.584969	0.000689	6.892095	1.167553	0.000138
  60	5.8705e+00	1.1747	8.807012	0.001115	11.148977	1.888688	0.000223
  61	5.9700e+00	1.1942	9.000794	0.000973	9.730017	1.648309	0.000195
  62	6.0695e+00	1.2151	9.202651	0.001014	10.135434	1.716989	0.000203
  63	6.1690e+00	1.2347	9.372211	0.000851	8.513764	1.442271	0.000170
  64	6.2685e+00	1.2543	9.561956	0.000953	9.527308	1.613970	0.000191
  65	6.3680e+00	1.2756	9.735553	0.000872	8.716473	1.476611	0.000174
  66	6.4675e+00	1.2929	9.945484	0.001054	10.540851	1.785669	0.000211
  67	6.5670e+00	1.3137	10.135229	0.000953	9.527308	1.613970	0.000191
  68	6.6665e+00	1.3332	10.329012	0.000973	9.730017	1.648309	0.000195
  69	6.7660e+00	1.3537	10.563166	0.001176	11.757103	1.991707	0.000235
  70	6.8655e+00	1.3741	10.716577	0.000770	7.702930	1.304912	0.000154
  71	6.9650e+00	1.3931	10.934582	0.001095	10.946269	1.854348	0.000219
  72	7.0645e+00	1.4127	11.108179	0.000872	8.716473	1.476611	0.000174
  73	7.1640e+00	1.4346	11.338296	0.001155	11.554395	1.957367	0.000231
  74	7.2635e+00	1.4526	11.471521	0.000669	6.689386	1.133213	0.000134
  75	7.3630e+00	1.4728	11.661267	0.000953	9.527308	1.613970	0.000191
  76	7.4625e+00	1.4922	11.859086	0.000993	9.932725	1.682649	0.000199
  77	7.5620e+00	1.5137	12.069017	0.001054	10.540851	1.785669	0.000211
  78	7.6615e+00	1.5324	12.242614	0.000872	8.716473	1.476611	0.000174
  79	7.7610e+00	1.5520	12.452545	0.001054	10.540851	1.785669	0.000211
  80	7.8605e+00	1.5728	12.646328	0.000973	9.730017	1.648309	0.000195
  81	7.9600e+00	1.5928	12.856259	0.001054	10.540851	1.785669	0.000211
  82	8.0595e+00	1.6125	13.013707	0.000791	7.905638	1.339251	0.000158
  83	8.1590e+00	1.6326	13.227675	0.001074	10.743560	1.820008	0.000215
  84	8.2585e+00	1.6531	13.389161	0.000811	8.108347	1.373591	0.000162
  85	8.3580e+00	1.6721	13.582943	0.000973	9.730017	1.648309	0.000195
  86	8.4575e+00	1.6917	13.788837	0.001034	10.338143	1.751329	0.000207
  87	8.5570e+00	1.7120	13.998768	0.001054	10.540851	1.785669	0.000211
  88	8.6565e+00	1.7324	14.188514	0.000953	9.527308	1.613970	0.000191
  89	8.7560e+00	1.7521	14.374222	0.000932	9.324599	1.579630	0.000187
  90	8.8555e+00	1.7725	14.543781	0.000851	8.513764	1.442271	0.000170
  91	8.9550e+00	1.7919	14.769861	0.001135	11.351686	1.923028	0.000227
  92	9.0545e+00	1.8126	14.951532	0.000912	9.121890	1.545290	0.000183
  93	9.1540e+00	1.8335	15.113018	0.000811	8.108347	1.373591	0.000162
  94	9.2535e+00	1.8517	15.343134	0.001155	11.554395	1.957367	0.000231
  95	9.3530e+00	1.8725	15.496546	0.000770	7.702930	1.304912	0.000154
  96	9.4525e+00	1.8912	15.702439	0.001034	10.338143	1.751329	0.000207
  97	9.5520e+00	1.9118	15.908333	0.001034	10.338143	1.751329	0.000207
  98	9.6515e+00	1.9311	16.065782	0.000791	7.905638	1.339251	0.000158
  99	9.7510e+00	1.9519	16.263601	0.000993	9.932725	1.682649	0.000199
 100	9.8505e+00	1.9709	16.473532	0.001054	10.540851	1.785669	0.000211
 101	9.9500e+00	1.9904	16.671352	0.000993	9.932725	1.682649	0.000199
 102	1.0050e+01	2.0104	16.832837	0.000811	8.108347	1.373591	0.000162
 103	1.0149e+01	2.0306	17.046806	0.001074	10.743560	1.820008	0.000215
 104	1.0248e+01	2.0515	17.248662	0.001014	10.135434	1.716989	0.000203
 105	1.0348e+01	2.0708	17.438408	0.000953	9.527308	1.613970	0.000191
 106	1.0447e+01	2.0905	17.583745	0.000730	7.297512	1.236232	0.000146
 107	1.0547e+01	2.1134	17.825973	0.001216	12.162521	2.060387	0.000243
 108	1.0646e+01	2.1310	18.003607	0.000892	8.919182	1.510950	0.000179
 109	1.0746e+01	2.1512	18.193352	0.000953	9.527308	1.613970	0.000191
 110	1.0845e+01	2.1703	18.395209	0.001014	10.135434	1.716989	0.000203
 111	1.0945e+01	2.1911	18.576880	0.000912	9.121890	1.545290	0.000183
 112	1.1044e+01	2.2100	18.782774	0.001034	10.338143	1.751329	0.000207
 113	1.1144e+01	2.2309	18.968482	0.000932	9.324599	1.579630	0.000187
 114	1.1243e+01	2.2501	19.093633	0.000628	6.283969	1.064533	0.000126
 115	1.1343e+01	2.2707	19.327787	0.001176	11.757103	1.991707	0.000235
 116	1.1443e+01	2.2901	19.509458	0.000912	9.121890	1.545290	0.000183
 117	1.1542e+01	2.3098	19.723427	0.001074	10.743560	1.820008	0.000215
 118	1.1642e+01	2.3297	19.945469	0.001115	11.148977	1.888688	0.000223
 119	1.1741e+01	2.3500	20.098880	0.000770	7.702930	1.304912	0.000154
 120	1.1841e+01	2.3695	20.304774	0.001034	10.338143	1.751329	0.000207
 121	1.1940e+01	2.3901	20.470297	0.000831	8.311056	1.407931	0.000166
 122	1.2040e+01	2.4102	20.676191	0.001034	10.338143	1.751329	0.000207
 123	1.2139e+01	2.4304	20.853825	0.000892	8.919182	1.510950	0.000179
 124	1.2239e+01	2.4491	21.019347	0.000831	8.311056	1.407931	0.000166
 125	1.2338e+01	2.4695	21.245427	0.001135	11.351686	1.923028	0.000227
 126	1.2438e+01	2.4897	21.447284	0.001014	10.135434	1.716989	0.000203
 127	1.2537e+01	2.5098	21.604732	0.000791	7.905638	1.339251	0.000158
 128	1.2636e+01	2.5294	21.810626	0.001034	10.338143	1.751329	0.000207
 129	1.2736e+01	2.5494	21.960000	0.000750	7.500221	1.270572	0.000150
 130	1.2835e+01	2.5690	22.169931	0.001054	10.540851	1.785669	0.000211
 131	1.2935e+01	2.5889	22.315268	0.000730	7.297512	1.236232	0.000146
 132	1.3034e+01	2.6089	22.553459	0.001196	11.959812	2.026047	0.000239
 133	1.3134e+01	2.6283	22.702833	0.000750	7.500221	1.270572	0.000150
 134	1.3233e+01	2.6476	22.928912	0.001135	11.351686	1.923028	0.000227
 135	1.3333e+01	2.6689	23.110584	0.000912	9.121890	1.545290	0.000183
 136	1.3432e+01	2.6887	23.255920	0.000730	7.297512	1.236232	0.000146
 137	1.3532e+01	2.7070	23.425480	0.000851	8.513764	1.442271	0.000170
 138	1.3632e+01	2.7285	23.619263	0.000973	9.730017	1.648309	0.000195
 139	1.3731e+01	2.7490	23.821119	0.001014	10.135434	1.716989	0.000203
 140	1.3831e+01	2.7677	23.994716	0.000872	8.716473	1.476611	0.000174
 141	1.3930e+01	2.7885	24.220796	0.001135	11.351686	1.923028	0.000227
 142	1.4030e+01	2.8081	24.418616	0.000993	9.932725	1.682649	0.000199
 143	1.4129e+01	2.8277	24.588175	0.000851	8.513764	1.442271	0.000170
 144	1.4229e+01	2.8489	24.729475	0.000709	7.094804	1.201892	0.000142
 145	1.4328e+01	2.8680	24.919220	0.000953	9.527308	1.613970	0.000191
 146	1.4428e+01	2.8873	25.113003	0.000973	9.730017	1.648309	0.000195
 147	1.4527e+01	2.9075	25.290637	0.000892	8.919182	1.510950	0.000179
 148	1.4627e+01	2.9275	25.492494	0.001014	10.135434	1.716989	0.000203
 149	1.4726e+01	2.9478	25.666090	0.000872	8.716473	1.476611	0.000174
 150	1.4825e+01	2.9675	25.876022	0.001054	10.540851	1.785669	0.000211
 151	1.4925e+01	2.9867	26.025396	0.000750	7.500221	1.270572	0.000150
 152	1.5024e+01	3.0079	26.194955	0.000851	8.513764	1.442271	0.000170
 153	1.5124e+01	3.0274	26.400849	0.001034	10.338143	1.751329	0.000207
 154	1.5223e+01	3.0476	26.570409	0.000851	8.513764	1.442271	0.000170
 155	1.5323e+01	3.0672	26.780340	0.001054	10.540851	1.785669	0.000211
 156	1.5422e+01	3.0865	26.925677	0.000730	7.297512	1.236232	0.000146
 157	1.5522e+01	3.1071	27.127534	0.001014	10.135434	1.716989	0.000203
 158	1.5621e+01	3.1268	27.321316	0.000973	9.730017	1.648309	0.000195
 159	1.5721e+01	3.1469	27.482802	0.000811	8.108347	1.373591	0.000162
 160	1.5820e+01	3.1664	27.680621	0.000993	9.932725	1.682649	0.000199
 161	1.5920e+01	3.1872	27.854218	0.000872	8.716473	1.476611	0.000174
 162	1.6020e+01	3.2056	28.039926	0.000932	9.324599	1.579630	0.000187
 163	1.6119e+01	3.2265	28.209486	0.000851	8.513764	1.442271	0.000170
 164	1.6218e+01	3.2462	28.362897	0.000770	7.702930	1.304912	0.000154
 165	1.6318e+01	3.2652	28.568791	0.001034	10.338143	1.751329	0.000207
 166	1.6418e+01	3.2854	28.766611	0.000993	9.932725	1.682649	0.000199
 167	1.6517e+01	3.3065	28.911948	0.000730	7.297512	1.236232	0.000146
 168	1.6616e+01	3.3268	29.069396	0.000791	7.905638	1.339251	0.000158
 169	1.6716e+01	3.3453	29.311624	0.001216	12.162521	2.060387	0.000243
 170	1.6816e+01	3.3669	29.485221	0.000872	8.716473	1.476611	0.000174
 171	1.6915e+01	3.3858	29.642669	0.000791	7.905638	1.339251	0.000158
 172	1.7015e+01	3.4057	29.820303	0.000892	8.919182	1.510950	0.000179
 173	1.7114e+01	3.4248	30.010049	0.000953	9.527308	1.613970	0.000191
 174	1.7213e+01	3.4454	30.171534	0.000811	8.108347	1.373591	0.000162
 175	1.7313e+01	3.4658	30.353205	0.000912	9.121890	1.545290	0.000183
 176	1.7413e+01	3.4850	30.542950	0.000953	9.527308	1.613970	0.000191
 177	1.7512e+01	3.5052	30.716547	0.000872	8.716473	1.476611	0.000174
 178	1.7611e+01	3.5261	30.918404	0.001014	10.135434	1.716989	0.000203
 179	1.7711e+01	3.5450	31.083927	0.000831	8.311056	1.407931	0.000166
 180	1.7811e+01	3.5653	31.229264	0.000730	7.297512	1.236232	0.000146
 181	1.7910e+01	3.5848	31.394786	0.000831	8.311056	1.407931	0.000166
 182	1.8009e+01	3.6047	31.592606	0.000993	9.932725	1.682649	0.000199
 183	1.8109e+01	3.6252	31.798500	0.001034	10.338143	1.751329	0.000207
 184	1.8209e+01	3.6446	32.000356	0.001014	10.135434	1.716989	0.000203
 185	1.8308e+01	3.6655	32.121470	0.000608	6.081260	1.030193	0.000122
 186	1.8407e+01	3.6837	32.335439	0.001074	10.743560	1.820008	0.000215
 187	1.8507e+01	3.7036	32.517110	0.000912	9.121890	1.545290	0.000183
 188	1.8607e+01	3.7243	32.694744	0.000892	8.919182	1.510950	0.000179
 189	1.8706e+01	3.7450	32.856229	0.000811	8.108347	1.373591	0.000162
 190	1.8805e+01	3.7646	33.029826	0.000872	8.716473	1.476611	0.000174
 191	1.8905e+01	3.7847	33.203423	0.000872	8.716473	1.476611	0.000174
 192	1.9005e+01	3.8030	33.372983	0.000851	8.513764	1.442271	0.000170
 193	1.9104e+01	3.8239	33.550617	0.000892	8.919182	1.510950	0.000179
 194	1.9203e+01	3.8438	33.728251	0.000892	8.919182	1.510950	0.000179
 195	1.9303e+01	3.8638	33.885699	0.000791	7.905638	1.339251	0.000158
 196	1.9402e+01	3.8824	34.083518	0.000993	9.932725	1.682649	0.000199
 197	1.9502e+01	3.9050	34.232892	0.000750	7.500221	1.270572	0.000150
 198	1.9602e+01	3.9237	34.382267	0.000750	7.500221	1.270572	0.000150
 199	1.9701e+01	3.9426	34.572012	0.000953	9.527308	1.613970	0.000191
 200	1.9800e+01	3.9635	34.757720	0.000932	9.324599	1.579630	0.000187
 201	1.9900e+01	3.9825	34.943428	0.000932	9.324599	1.579630	0.000187
 202	2.0000e+01	4.0023	35.117025	0.000872	8.716473	1.476611	0.000174
 203	2.0099e+01	4.0231	35.286585	0.000851	8.513764	1.442271	0.000170
 204	2.0198e+01	4.0427	35.435959	0.000750	7.500221	1.270572	0.000150
 205	2.0298e+01	4.0636	35.621667	0.000932	9.324599	1.579630	0.000187
 206	2.0398e+01	4.0825	35.791227	0.000851	8.513764	1.442271	0.000170
 207	2.0497e+01	4.1030	35.956749	0.000831	8.311056	1.407931	0.000166
 208	2.0596e+01	4.1235	36.118235	0.000811	8.108347	1.373591	0.000162
 209	2.0696e+01	4.1436	36.316055	0.000993	9.932725	1.682649	0.000199
 210	2.0796e+01	4.1628	36.477540	0.000811	8.108347	1.373591	0.000162
 211	2.0895e+01	4.1830	36.663248	0.000932	9.324599	1.579630	0.000187
 212	2.0994e+01	4.2030	36.840882	0.000892	8.919182	1.510950	0.000179
 213	2.1094e+01	4.2220	37.006405	0.000831	8.311056	1.407931	0.000166
 214	2.1194e+01	4.2422	37.151742	0.000730	7.297512	1.236232	0.000146
 215	2.1293e+01	4.2621	37.357636	0.001034	10.338143	1.751329	0.000207
 216	2.1392e+01	4.2828	37.539307	0.000912	9.121890	1.545290	0.000183
 217	2.1492e+01	4.3018	37.688681	0.000750	7.500221	1.270572	0.000150
 218	2.1591e+01	4.3220	37.854203	0.000831	8.311056	1.407931	0.000166
 219	2.1691e+01	4.3424	38.060097	0.001034	10.338143	1.751329	0.000207
 220	2.1791e+01	4.3624	38.213508	0.000770	7.702930	1.304912	0.000154
 221	2.1890e+01	4.3813	38.399217	0.000932	9.324599	1.579630	0.000187
 222	2.1989e+01	4.4012	38.580888	0.000912	9.121890	1.545290	0.000183
 223	2.2089e+01	4.4205	38.746410	0.000831	8.311056	1.407931	0.000166
 224	2.2189e+01	4.4418	38.887710	0.000709	7.094804	1.201892	0.000142
 225	2.2288e+01	4.4612	39.077455	0.000953	9.527308	1.613970	0.000191
 226	2.2387e+01	4.4805	39.238941	0.000811	8.108347	1.373591	0.000162
 227	2.2487e+01	4.5013	39.420612	0.000912	9.121890	1.545290	0.000183
 228	2.2587e+01	4.5208	39.578060	0.000791	7.905638	1.339251	0.000158
 229	2.2686e+01	4.5412	39.775880	0.000993	9.932725	1.682649	0.000199
 230	2.2785e+01	4.5604	39.921217	0.000730	7.297512	1.236232	0.000146
 231	2.2885e+01	4.5803	40.058479	0.000689	6.892095	1.167553	0.000138
 232	2.2985e+01	4.6008	40.296670	0.001196	11.959812	2.026047	0.000239
 233	2.3084e+01	4.6215	40.437970	0.000709	7.094804	1.201892	0.000142
 234	2.3183e+01	4.6411	40.607530	0.000851	8.513764	1.442271	0.000170
 235	2.3283e+01	4.6606	40.817461	0.001054	10.540851	1.785669	0.000211
 236	2.3383e+01	4.6807	40.974909	0.000791	7.905638	1.339251	0.000158
 237	2.3482e+01	4.7001	41.112172	0.000689	6.892095	1.167553	0.000138
 238	2.3581e+01	4.7201	41.309991	0.000993	9.932725	1.682649	0.000199
 239	2.3681e+01	4.7399	41.487625	0.000892	8.919182	1.510950	0.000179
 240	2.3780e+01	4.7596	41.641037	0.000770	7.702930	1.304912	0.000154
 241	2.3880e+01	4.7803	41.790411	0.000750	7.500221	1.270572	0.000150
 242	2.3980e+01	4.8000	41.939785	0.000750	7.500221	1.270572	0.000150
 243	2.4079e+01	4.8206	42.133567	0.000973	9.730017	1.648309	0.000195
 244	2.4178e+01	4.8398	42.286978	0.000770	7.702930	1.304912	0.000154
 245	2.4278e+01	4.8602	42.440389	0.000770	7.702930	1.304912	0.000154
 246	2.4378e+01	4.8794	42.618023	0.000892	8.919182	1.510950	0.000179
 247	2.4477e+01	4.8995	42.799695	0.000912	9.121890	1.545290	0.000183
 248	2.4576e+01	4.9197	42.977328	0.000892	8.919182	1.510950	0.000179
 249	2.4676e+01	4.9395	43.134777	0.000791	7.905638	1.339251	0.000158
 250	2.4776e+01	4.9598	43.300299	0.000831	8.311056	1.407931	0.000166
 251	2.4875e+01	4.9802	43.477933	0.000892	8.919182	1.510950	0.000179
 252	2.4974e+01	4.9992	43.627307	0.000750	7.500221	1.270572	0.000150
 253	2.5074e+01	5.0185	43.808978	0.000912	9.121890	1.545290	0.000183
 254	2.5174e+01	5.0394	43.986612	0.000892	8.919182	1.510950	0.000179
 255	2.5273e+01	5.0593	44.140024	0.000770	7.702930	1.304912	0.000154
 256	2.5372e+01	5.0791	44.281323	0.000709	7.094804	1.201892	0.000142
 257	2.5472e+01	5.0994	44.462994	0.000912	9.121890	1.545290	0.000183
 258	2.5572e+01	5.1186	44.632554	0.000851	8.513764	1.442271	0.000170
 259	2.5671e+01	5.1383	44.810188	0.000892	8.919182	1.510950	0.000179
 260	2.5770e+01	5.1583	44.955525	0.000730	7.297512	1.236232	0.000146
 261	2.5870e+01	5.1777	45.137196	0.000912	9.121890	1.545290	0.000183
 262	2.5970e+01	5.1987	45.282533	0.000730	7.297512	1.236232	0.000146
 263	2.6069e+01	5.2175	45.448056	0.000831	8.311056	1.407931	0.000166
 264	2.6169e+01	5.2386	45.645875	0.000993	9.932725	1.682649	0.000199
 265	2.6268e+01	5.2584	45.775064	0.000649	6.486678	1.098873	0.000130
 266	2.6367e+01	5.2776	45.968846	0.000973	9.730017	1.648309	0.000195
 267	2.6467e+01	5.2984	46.102072	0.000669	6.689386	1.133213	0.000134
 268	2.6567e+01	5.3179	46.271631	0.000851	8.513764	1.442271	0.000170
 269	2.6666e+01	5.3375	46.433117	0.000811	8.108347	1.373591	0.000162
 270	2.6765e+01	5.3576	46.602676	0.000851	8.513764	1.442271	0.000170
 271	2.6865e+01	5.3785	46.760125	0.000791	7.905638	1.339251	0.000158
 272	2.6965e+01	5.3979	46.913536	0.000770	7.702930	1.304912	0.000154
 273	2.7064e+01	5.4183	47.022539	0.000547	5.473134	0.927174	0.000110
 274	2.7163e+01	5.4368	47.276878	0.001277	12.770647	2.163406	0.000256
 275	2.7263e+01	5.4568	47.393955	0.000588	5.878552	0.995854	0.000118
 276	2.7363e+01	5.4776	47.563515	0.000851	8.513764	1.442271	0.000170
 277	2.7462e+01	5.4967	47.712889	0.000750	7.500221	1.270572	0.000150
 278	2.7561e+01	5.5170	47.882448	0.000851	8.513764	1.442271	0.000170
 279	2.7661e+01	5.5370	48.092379	0.001054	10.540851	1.785669	0.000211
 280	2.7761e+01	5.5569	48.257902	0.000831	8.311056	1.407931	0.000166
 281	2.7860e+01	5.5770	48.411313	0.000770	7.702930	1.304912	0.000154
 282	2.7959e+01	5.5967	48.544539	0.000669	6.689386	1.133213	0.000134
 283	2.8059e+01	5.6171	48.734284	0.000953	9.527308	1.613970	0.000191
 284	2.8159e+01	5.6367	48.915955	0.000912	9.121890	1.545290	0.000183
 285	2.8258e+01	5.6564	49.057255	0.000709	7.094804	1.201892	0.000142
 286	2.8358e+01	5.6760	49.198555	0.000709	7.094804	1.201892	0.000142
 287	2.8457e+01	5.6963	49.368114	0.000851	8.513764	1.442271	0.000170
 288	2.8556e+01	5.7159	49.582083	0.001074	10.743560	1.820008	0.000215
 289	2.8656e+01	5.7366	49.699160	0.000588	5.878552	0.995854	0.000118
 290	2.8756e+01	5.7561	49.828348	0.000649	6.486678	1.098873	0.000130
 291	2.8855e+01	5.7766	50.018093	0.000953	9.527308	1.613970	0.000191
 292	2.8954e+01	5.7962	50.191690	0.000872	8.716473	1.476611	0.000174
 293	2.9054e+01	5.8165	50.357213	0.000831	8.311056	1.407931	0.000166
 294	2.9154e+01	5.8369	50.514661	0.000791	7.905638	1.339251	0.000158
 295	2.9253e+01	5.8558	50.659998	0.000730	7.297512	1.236232	0.000146
 296	2.9352e+01	5.8753	50.837632	0.000892	8.919182	1.510950	0.000179
 297	2.9452e+01	5.8959	50.999117	0.000811	8.108347	1.373591	0.000162
 298	2.9552e+01	5.9158	51.124268	0.000628	6.283969	1.064533	0.000126
 299	2.9651e+01	5.9368	51.289791	0.000831	8.311056	1.407931	0.000166
 300	2.9750e+01	5.9551	51.439165	0.000750	7.500221	1.270572	0.000150
 301	2.9850e+01	5.9751	51.604688	0.000831	8.311056	1.407931	0.000166
 302	2.9950e+01	5.9951	51.758099	0.000770	7.702930	1.304912	0.000154
 303	3.0049e+01	6.0146	51.883250	0.000628	6.283969	1.064533	0.000126
 304	3.0148e+01	6.0340	52.093181	0.001054	10.540851	1.785669	0.000211
 305	3.0248e+01	6.0558	52.210258	0.000588	5.878552	0.995854	0.000118
 306	3.0348e+01	6.0748	52.359632	0.000750	7.500221	1.270572	0.000150
 307	3.0447e+01	6.0951	52.557452	0.000993	9.932725	1.682649	0.000199
 308	3.0547e+01	6.1150	52.698751	0.000709	7.094804	1.201892	0.000142
 309	3.0646e+01	6.1343	52.831977	0.000669	6.689386	1.133213	0.000134
 310	3.0745e+01	6.1556	53.029796	0.000993	9.932725	1.682649	0.000199
 311	3.0845e+01	6.1756	53.158985	0.000649	6.486678	1.098873	0.000130
 312	3.0945e+01	6.1945	53.324507	0.000831	8.311056	1.407931	0.000166
 313	3.1044e+01	6.2145	53.485993	0.000811	8.108347	1.373591	0.000162
 314	3.1143e+01	6.2350	53.615181	0.000649	6.486678	1.098873	0.000130
 315	3.1243e+01	6.2545	53.808964	0.000973	9.730017	1.648309	0.000195
 316	3.1343e+01	6.2737	53.950263	0.000709	7.094804	1.201892	0.000142
 317	3.1442e+01	6.2939	54.087526	0.000689	6.892095	1.167553	0.000138
 318	3.1541e+01	6.3142	54.305531	0.001095	10.946269	1.854348	0.000219
 319	3.1641e+01	6.3331	54.418571	0.000568	5.675843	0.961514	0.000114
 320	3.1741e+01	6.3534	54.571982	0.000770	7.702930	1.304912	0.000154
 321	3.1840e+01	6.3743	54.733468	0.000811	8.108347	1.373591	0.000162
 322	3.1939e+01	6.3932	54.903027	0.000851	8.513764	1.442271	0.000170
 323	3.2039e+01	6.4131	55.056439	0.000770	7.702930	1.304912	0.000154
 324	3.2139e+01	6.4321	55.221961	0.000831	8.311056	1.407931	0.000166
 325	3.2238e+01	6.4520	55.379409	0.000791	7.905638	1.339251	0.000158
 326	3.2337e+01	6.4731	55.524746	0.000730	7.297512	1.236232	0.000146
 327	3.2437e+01	6.4925	55.662009	0.000689	6.892095	1.167553	0.000138
 328	3.2536e+01	6.5131	55.815420	0.000770	7.702930	1.304912	0.000154
 329	3.2636e+01	6.5325	56.013240	0.000993	9.932725	1.682649	0.000199
 330	3.2736e+01	6.5520	56.138391	0.000628	6.283969	1.064533	0.000126
 331	3.2835e+01	6.5713	56.299876	0.000811	8.108347	1.373591	0.000162
 332	3.2934e+01	6.5920	56.437139	0.000689	6.892095	1.167553	0.000138
 333	3.3034e+01	6.6137	56.618810	0.000912	9.121890	1.545290	0.000183
 334	3.3133e+01	6.6320	56.756073	0.000689	6.892095	1.167553	0.000138
 335	3.3233e+01	6.6521	56.901410	0.000730	7.297512	1.236232	0.000146
 336	3.3333e+01	6.6724	57.131526	0.001155	11.554395	1.957367	0.000231
 337	3.3432e+01	6.6915	57.260715	0.000649	6.486678	1.098873	0.000130
 338	3.3532e+01	6.7114	57.418163	0.000791	7.905638	1.339251	0.000158
 339	3.3631e+01	6.7334	57.575611	0.000791	7.905638	1.339251	0.000158
 340	3.3730e+01	6.7512	57.696725	0.000608	6.081260	1.030193	0.000122
 341	3.3830e+01	6.7712	57.890508	0.000973	9.730017	1.648309	0.000195
 342	3.3929e+01	6.7917	58.007585	0.000588	5.878552	0.995854	0.000118
 343	3.4029e+01	6.8118	58.201367	0.000973	9.730017	1.648309	0.000195
 344	3.4129e+01	6.8320	58.338630	0.000689	6.892095	1.167553	0.000138
 345	3.4228e+01	6.8519	58.483967	0.000730	7.297512	1.236232	0.000146
 346	3.4328e+01	6.8714	58.661601	0.000892	8.919182	1.510950	0.000179
 347	3.4427e+01	6.8914	58.823086	0.000811	8.108347	1.373591	0.000162
 348	3.4526e+01	6.9115	58.980535	0.000791	7.905638	1.339251	0.000158
 349	3.4626e+01	6.9311	59.142020	0.000811	8.108347	1.373591	0.000162
 350	3.4725e+01	6.9503	59.271208	0.000649	6.486678	1.098873	0.000130
 351	3.4825e+01	6.9704	59.448842	0.000892	8.919182	1.510950	0.000179
 352	3.4925e+01	6.9911	59.626476	0.000892	8.919182	1.510950	0.000179
 353	3.5024e+01	7.0107	59.751627	0.000628	6.283969	1.064533	0.000126
 354	3.5123e+01	7.0307	59.896964	0.000730	7.297512	1.236232	0.000146
 355	3.5223e+01	7.0508	60.062487	0.000831	8.311056	1.407931	0.000166
 356	3.5322e+01	7.0705	60.232047	0.000851	8.513764	1.442271	0.000170
 357	3.5422e+01	7.0904	60.357198	0.000628	6.283969	1.064533	0.000126
 358	3.5522e+01	7.1105	60.498498	0.000709	7.094804	1.201892	0.000142
 359	3.5621e+01	7.1303	60.659983	0.000811	8.108347	1.373591	0.000162
 360	3.5721e+01	7.1497	60.817431	0.000791	7.905638	1.339251	0.000158
 361	3.5820e+01	7.1697	60.958731	0.000709	7.094804	1.201892	0.000142
 362	3.5919e+01	7.1901	61.160588	0.001014	10.135434	1.716989	0.000203
 363	3.6019e+01	7.2097	61.285739	0.000628	6.283969	1.064533	0.000126
 364	3.6118e+01	7.2292	61.451262	0.000831	8.311056	1.407931	0.000166
 365	3.6218e+01	7.2501	61.588524	0.000689	6.892095	1.167553	0.000138
 366	3.6318e+01	7.2700	61.786344	0.000993	9.932725	1.682649	0.000199
 367	3.6417e+01	7.2897	61.903421	0.000588	5.878552	0.995854	0.000118
 368	3.6517e+01	7.3096	62.052795	0.000750	7.500221	1.270572	0.000150
 369	3.6616e+01	7.3302	62.258689	0.001034	10.338143	1.751329	0.000207
 370	3.6715e+01	7.3494	62.339431	0.000405	4.054174	0.686796	0.000081
 371	3.6815e+01	7.3696	62.508991	0.000851	8.513764	1.442271	0.000170
 372	3.6914e+01	7.3898	62.674514	0.000831	8.311056	1.407931	0.000166
 373	3.7014e+01	7.4095	62.819851	0.000730	7.297512	1.236232	0.000146
 374	3.7114e+01	7.4303	62.985373	0.000831	8.311056	1.407931	0.000166
 375	3.7213e+01	7.4497	63.142822	0.000791	7.905638	1.339251	0.000158
 376	3.7313e+01	7.4685	63.304307	0.000811	8.108347	1.373591	0.000162
 377	3.7412e+01	7.4891	63.445607	0.000709	7.094804	1.201892	0.000142
 378	3.7511e+01	7.5091	63.603055	0.000791	7.905638	1.339251	0.000158
 379	3.7611e+01	7.5285	63.748392	0.000730	7.297512	1.236232	0.000146
 380	3.7711e+01	7.5480	63.901803	0.000770	7.702930	1.304912	0.000154
 381	3.7810e+01	7.5684	64.067326	0.000831	8.311056	1.407931	0.000166
 382	3.7910e+01	7.5875	64.232848	0.000831	8.311056	1.407931	0.000166
 383	3.8009e+01	7.6075	64.394334	0.000811	8.108347	1.373591	0.000162
 384	3.8108e+01	7.6284	64.519485	0.000628	6.283969	1.064533	0.000126
 385	3.8208e+01	7.6482	64.717304	0.000993	9.932725	1.682649	0.000199
 386	3.8307e+01	7.6675	64.866678	0.000750	7.500221	1.270572	0.000150
 387	3.8407e+01	7.6865	65.020090	0.000770	7.702930	1.304912	0.000154
 388	3.8507e+01	7.7073	65.181575	0.000811	8.108347	1.373591	0.000162
 389	3.8606e+01	7.7276	65.351135	0.000851	8.513764	1.442271	0.000170
 390	3.8706e+01	7.7490	65.520694	0.000851	8.513764	1.442271	0.000170
 391	3.8805e+01	7.7674	65.653920	0.000669	6.689386	1.133213	0.000134
 392	3.8904e+01	7.7875	65.819443	0.000831	8.311056	1.407931	0.000166
 393	3.9004e+01	7.8083	65.984965	0.000831	8.311056	1.407931	0.000166
 394	3.9103e+01	7.8275	66.138376	0.000770	7.702930	1.304912	0.000154
 395	3.9203e+01	7.8461	66.275639	0.000689	6.892095	1.167553	0.000138
 396	3.9303e+01	7.8674	66.445199	0.000851	8.513764	1.442271	0.000170
 397	3.9402e+01	7.8863	66.614758	0.000851	8.513764	1.442271	0.000170
 398	3.9502e+01	7.9062	66.756058	0.000709	7.094804	1.201892	0.000142
 399	3.9601e+01	7.9275	66.965989	0.001054	10.540851	1.785669	0.000211
 400	3.9700e+01	7.9478	67.095177	0.000649	6.486678	1.098873	0.000130
 401	3.9800e+01	7.9672	67.264737	0.000851	8.513764	1.442271	0.000170
 402	3.9900e+01	7.9855	67.389888	0.000628	6.283969	1.064533	0.000126
 403	3.9999e+01	8.0059	67.563485	0.000872	8.716473	1.476611	0.000174
 404	4.0099e+01	8.0266	67.733045	0.000851	8.513764	1.442271	0.000170
 405	4.0198e+01	8.0463	67.882419	0.000750	7.500221	1.270572	0.000150
 406	4.0297e+01	8.0653	68.031793	0.000750	7.500221	1.270572	0.000150
 407	4.0397e+01	8.0872	68.185204	0.000770	7.702930	1.304912	0.000154
 408	4.0496e+01	8.1067	68.334578	0.000750	7.500221	1.270572	0.000150
 409	4.0596e+01	8.1269	68.496063	0.000811	8.108347	1.373591	0.000162
 410	4.0696e+01	8.1464	68.661586	0.000831	8.311056	1.407931	0.000166
 411	4.0795e+01	8.1659	68.819034	0.000791	7.905638	1.339251	0.000158
 412	4.0895e+01	8.1857	68.992631	0.000872	8.716473	1.476611	0.000174
 413	4.0994e+01	8.2051	69.146042	0.000770	7.702930	1.304912	0.000154
 414	4.1093e+01	8.2262	69.279268	0.000669	6.689386	1.133213	0.000134
 415	4.1193e+01	8.2458	69.456902	0.000892	8.919182	1.510950	0.000179
 416	4.1292e+01	8.2649	69.618387	0.000811	8.108347	1.373591	0.000162
 417	4.1392e+01	8.2856	69.735464	0.000588	5.878552	0.995854	0.000118
 418	4.1492e+01	8.3057	69.896950	0.000811	8.108347	1.373591	0.000162
 419	4.1591e+01	8.3252	70.066509	0.000851	8.513764	1.442271	0.000170
 420	4.1691e+01	8.3450	70.248180	0.000912	9.121890	1.545290	0.000183
 421	4.1790e+01	8.3646	70.401592	0.000770	7.702930	1.304912	0.000154
 422	4.1889e+01	8.3855	70.563077	0.000811	8.108347	1.373591	0.000162
 423	4.1989e+01	8.4047	70.692265	0.000649	6.486678	1.098873	0.000130
 424	4.2089e+01	8.4252	70.873936	0.000912	9.121890	1.545290	0.000183
 425	4.2188e+01	8.4438	71.051570	0.000892	8.919182	1.510950	0.000179
 426	4.2288e+01	8.4644	71.184796	0.000669	6.689386	1.133213	0.000134
 427	4.2387e+01	8.4848	71.370504	0.000932	9.324599	1.579630	0.000187
 428	4.2486e+01	8.5040	71.499692	0.000649	6.486678	1.098873	0.000130
 429	4.2586e+01	8.5250	71.649067	0.000750	7.500221	1.270572	0.000150
 430	4.2685e+01	8.5447	71.818626	0.000851	8.513764	1.442271	0.000170
 431	4.2785e+01	8.5648	71.996260	0.000892	8.919182	1.510950	0.000179
 432	4.2885e+01	8.5844	72.145634	0.000750	7.500221	1.270572	0.000150
 433	4.2984e+01	8.6044	72.278860	0.000669	6.689386	1.133213	0.000134
 434	4.3084e+01	8.6245	72.472642	0.000973	9.730017	1.648309	0.000195
 435	4.3183e+01	8.6436	72.617979	0.000730	7.297512	1.236232	0.000146
 436	4.3282e+01	8.6636	72.807724	0.000953	9.527308	1.613970	0.000191
 437	4.3382e+01	8.6839	72.940950	0.000669	6.689386	1.133213	0.000134
 438	4.3481e+01	8.7036	73.118584	0.000892	8.919182	1.510950	0.000179
 439	4.3581e+01	8.7238	73.300255	0.000912	9.121890	1.545290	0.000183
 440	4.3681e+01	8.7435	73.429443	0.000649	6.486678	1.098873	0.000130
 441	4.3780e+01	8.7630	73.635337	0.001034	10.338143	1.751329	0.000207
 442	4.3880e+01	8.7842	73.720117	0.000426	4.256882	0.721135	0.000085
 443	4.3979e+01	8.8037	73.942160	0.001115	11.148977	1.888688	0.000223
 444	4.4078e+01	8.8239	74.115756	0.000872	8.716473	1.476611	0.000174
 445	4.4178e+01	8.8419	74.216685	0.000507	5.067717	0.858494	0.000101
 446	4.4278e+01	8.8625	74.398356	0.000912	9.121890	1.545290	0.000183
 447	4.4377e+01	8.8821	74.575990	0.000892	8.919182	1.510950	0.000179
 448	4.4477e+01	8.9029	74.729401	0.000770	7.702930	1.304912	0.000154
 449	4.4576e+01	8.9236	74.902998	0.000872	8.716473	1.476611	0.000174
 450	4.4675e+01	8.9423	75.068520	0.000831	8.311056	1.407931	0.000166
 451	4.4775e+01	8.9617	75.262303	0.000973	9.730017	1.648309	0.000195
 452	4.4874e+01	8.9809	75.439937	0.000892	8.919182	1.510950	0.000179
 453	4.4974e+01	9.0022	75.536828	0.000487	4.865008	0.824155	0.000097
 454	4.5074e+01	9.0217	75.738685	0.001014	10.135434	1.716989	0.000203
 455	4.5173e+01	9.0417	75.944579	0.001034	10.338143	1.751329	0.000207
 456	4.5273e+01	9.0615	76.073767	0.000649	6.486678	1.098873	0.000130
 457	4.5372e+01	9.0815	76.202956	0.000649	6.486678	1.098873	0.000130
 458	4.5471e+01	9.1016	76.388664	0.000932	9.324599	1.579630	0.000187
 459	4.5571e+01	9.1208	76.574372	0.000932	9.324599	1.579630	0.000187
 460	4.5670e+01	9.1412	76.731820	0.000791	7.905638	1.339251	0.000158
 461	4.5770e+01	9.1614	76.873120	0.000709	7.094804	1.201892	0.000142
 462	4.5870e+01	9.1800	77.034606	0.000811	8.108347	1.373591	0.000162
 463	4.5969e+01	9.2010	77.179942	0.000730	7.297512	1.236232	0.000146
 464	4.6069e+01	9.2209	77.381799	0.001014	10.135434	1.716989	0.000203
 465	4.6168e+01	9.2404	77.523099	0.000709	7.094804	1.201892	0.000142
 466	4.6267e+01	9.2606	77.716882	0.000973	9.730017	1.648309	0.000195
 467	4.6367e+01	9.2807	77.862218	0.000730	7.297512	1.236232	0.000146
 468	4.6467e+01	9.3003	78.027741	0.000831	8.311056	1.407931	0.000166
 469	4.6566e+01	9.3213	78.221523	0.000973	9.730017	1.648309	0.000195
 470	4.6666e+01	9.3400	78.374935	0.000770	7.702930	1.304912	0.000154
 471	4.6765e+01	9.3597	78.479900	0.000527	5.270426	0.892834	0.000105
 472	4.6864e+01	9.3800	78.722128	0.001216	12.162521	2.060387	0.000243
 473	4.6964e+01	9.3999	78.867465	0.000730	7.297512	1.236232	0.000146
 474	4.7063e+01	9.4192	78.996654	0.000649	6.486678	1.098873	0.000130
 475	4.7163e+01	9.4391	79.186399	0.000953	9.527308	1.613970	0.000191
 476	4.7263e+01	9.4601	79.331736	0.000730	7.297512	1.236232	0.000146
 477	4.7362e+01	9.4805	79.529555	0.000993	9.932725	1.682649	0.000199
 478	4.7462e+01	9.4990	79.707189	0.000892	8.919182	1.510950	0.000179
 479	4.7561e+01	9.5197	79.856563	0.000750	7.500221	1.270572	0.000150
 480	4.7660e+01	9.5386	79.993826	0.000689	6.892095	1.167553	0.000138
 481	4.7760e+01	9.5591	80.151274	0.000791	7.905638	1.339251	0.000158
 482	4.7859e+01	9.5782	80.357168	0.001034	10.338143	1.751329	0.000207
 483	4.7959e+01	9.5990	80.514617	0.000791	7.905638	1.339251	0.000158
 484	4.8059e+01	9.6191	80.704362	0.000953	9.527308	1.613970	0.000191
 485	4.8158e+01	9.6387	80.837587	0.000669	6.689386	1.133213	0.000134
 486	4.8258e+01	9.6589	81.023296	0.000932	9.324599	1.579630	0.000187
 487	4.8357e+01	9.6793	81.188818	0.000831	8.311056	1.407931	0.000166
 488	4.8456e+01	9.6988	81.382601	0.000973	9.730017	1.648309	0.000195
 489	4.8556e+01	9.7175	81.540049	0.000791	7.905638	1.339251	0.000158
 490	4.8656e+01	9.7384	81.737869	0.000993	9.932725	1.682649	0.000199
 491	4.8755e+01	9.7583	81.919540	0.000912	9.121890	1.545290	0.000183
 492	4.8855e+01	9.7793	82.064877	0.000730	7.297512	1.236232	0.000146
 493	4.8954e+01	9.7987	82.226362	0.000811	8.108347	1.373591	0.000162
 494	4.9053e+01	9.8183	82.448405	0.001115	11.148977	1.888688	0.000223
 495	4.9153e+01	9.8373	82.613927	0.000831	8.311056	1.407931	0.000166
 496	4.9252e+01	9.8575	82.783487	0.000851	8.513764	1.442271	0.000170
 497	4.9352e+01	9.8788	82.920749	0.000689	6.892095	1.167553	0.000138
 498	4.9452e+01	9.8978	83.134718	0.001074	10.743560	1.820008	0.000215
 499	4.9551e+01	9.9182	83.284092	0.000750	7.500221	1.270572	0.000150
 500	4.9651e+01	9.9378	83.461726	0.000892	8.919182	1.510950	0.000179
 501	4.9750e+01	9.9586	83.663582	0.001014	10.135434	1.716989	0.000203
 502	4.9849e+01	9.9763	83.833142	0.000851	8.513764	1.442271	0.000170
 503	4.9949e+01	9.9972	84.039036	0.001034	10.338143	1.751329	0.000207
 504	5.0048e+01	9.9774	83.958293	0.000405	4.054174	0.686796	-0.000081
 505	5.0148e+01	9.9580	83.962331	-0.000020	-0.202709	-0.034340	0.000004
 506	5.0248e+01	9.9377	83.921959	0.000203	2.027087	0.343398	-0.000041
 507	5.0347e+01	9.9185	83.853328	0.000345	3.446048	0.583776	-0.000069
 508	5.0447e+01	9.8987	83.796808	0.000284	2.837921	0.480757	-0.000057
 509	5.0546e+01	9.8793	83.816994	-0.000101	-1.013543	-0.171699	0.000020
 510	5.0645e+01	9.8584	83.744325	0.000365	3.648756	0.618116	-0.000073
 511	5.0745e+01	9.8370	83.679731	0.000324	3.243339	0.549436	-0.000065
 512	5.0844e+01	9.8179	83.675694	0.000020	0.202709	0.034340	-0.000004
 513	5.0944e+01	9.7986	83.603025	0.000365	3.648756	0.618116	-0.000073
 514	5.1044e+01	9.7781	83.586877	0.000081	0.810835	0.137359	-0.000016
 515	5.1143e+01	9.7589	83.518246	0.000345	3.446048	0.583776	-0.000069
 516	5.1242e+01	9.7388	83.502097	0.000081	0.810835	0.137359	-0.000016
 517	5.1342e+01	9.7190	83.425391	0.000385	3.851465	0.652456	-0.000077
 518	5.1441e+01	9.6983	83.405206	0.000101	1.013543	0.171699	-0.000020
 519	5.1541e+01	9.6802	83.328500	0.000385	3.851465	0.652456	-0.000077
 520	5.1641e+01	9.6589	83.288129	0.000203	2.027087	0.343398	-0.000041
 521	5.1740e+01	9.6387	83.239683	0.000243	2.432504	0.412077	-0.000049
 522	5.1840e+01	9.6198	83.183163	0.000284	2.837921	0.480757	-0.000057
 523	5.1939e+01	9.5996	83.122606	0.000304	3.040630	0.515097	-0.000061
 524	5.2038e+01	9.5791	83.098383	0.000122	1.216252	0.206039	-0.000024
 525	5.2138e+01	9.5585	83.041864	0.000284	2.837921	0.480757	-0.000057
 526	5.2237e+01	9.5393	82.965158	0.000385	3.851465	0.652456	-0.000077
 527	5.2337e+01	9.5190	82.932861	0.000162	1.621669	0.274718	-0.000032
 528	5.2437e+01	9.5004	82.884415	0.000243	2.432504	0.412077	-0.000049
 529	5.2536e+01	9.4802	82.799635	0.000426	4.256882	0.721135	-0.000085
 530	5.2636e+01	9.4601	82.743116	0.000284	2.837921	0.480757	-0.000057
 531	5.2735e+01	9.4402	82.694670	0.000243	2.432504	0.412077	-0.000049
 532	5.2834e+01	9.4199	82.646224	0.000243	2.432504	0.412077	-0.000049
 533	5.2934e+01	9.3998	82.577593	0.000345	3.446048	0.583776	-0.000069
 534	5.3033e+01	9.3799	82.512999	0.000324	3.243339	0.549436	-0.000065
 535	5.3133e+01	9.3595	82.440330	0.000365	3.648756	0.618116	-0.000073
 536	5.3233e+01	9.3410	82.412070	0.000142	1.418961	0.240378	-0.000028
 537	5.3332e+01	9.3203	82.331328	0.000405	4.054174	0.686796	-0.000081
 538	5.3431e+01	9.3005	82.262696	0.000345	3.446048	0.583776	-0.000069
 539	5.3531e+01	9.2810	82.194065	0.000345	3.446048	0.583776	-0.000069
 540	5.3630e+01	9.2606	82.161768	0.000162	1.621669	0.274718	-0.000032
 541	5.3730e+01	9.2407	82.076988	0.000426	4.256882	0.721135	-0.000085
 542	5.3830e+01	9.2212	82.004320	0.000365	3.648756	0.618116	-0.000073
 543	5.3929e+01	9.2018	81.951837	0.000264	2.635213	0.446417	-0.000053
 544	5.4029e+01	9.1804	81.871094	0.000405	4.054174	0.686796	-0.000081
 545	5.4128e+01	9.1608	81.858983	0.000061	0.608126	0.103019	-0.000012
 546	5.4227e+01	9.1415	81.770166	0.000446	4.459591	0.755475	-0.000089
 547	5.4327e+01	9.1220	81.713646	0.000284	2.837921	0.480757	-0.000057
 548	5.4426e+01	9.1010	81.649052	0.000324	3.243339	0.549436	-0.000065
 549	5.4526e+01	9.0805	81.560235	0.000446	4.459591	0.755475	-0.000089
 550	5.4626e+01	9.0613	81.511789	0.000243	2.432504	0.412077	-0.000049
 551	5.4725e+01	9.0416	81.455269	0.000284	2.837921	0.480757	-0.000057
 552	5.4825e+01	9.0210	81.382601	0.000365	3.648756	0.618116	-0.000073
 553	5.4924e+01	9.0023	81.330118	0.000264	2.635213	0.446417	-0.000053
 554	5.5023e+01	8.9825	81.217078	0.000568	5.675843	0.961514	-0.000114
 555	5.5123e+01	8.9616	81.184781	0.000162	1.621669	0.274718	-0.000032
 556	5.5222e+01	8.9418	81.152484	0.000162	1.621669	0.274718	-0.000032
 557	5.5322e+01	8.9222	81.047519	0.000527	5.270426	0.892834	-0.000105
 558	5.5422e+01	8.9024	80.990999	0.000284	2.837921	0.480757	-0.000057
 559	5.5521e+01	8.8818	80.918330	0.000365	3.648756	0.618116	-0.000073
 560	5.5620e+01	8.8623	80.857773	0.000304	3.040630	0.515097	-0.000061
 561	5.5720e+01	8.8422	80.805290	0.000264	2.635213	0.446417	-0.000053
 562	5.5819e+01	8.8233	80.724548	0.000405	4.054174	0.686796	-0.000081
 563	5.5919e+01	8.8030	80.615545	0.000547	5.473134	0.927174	-0.000110
 564	5.6019e+01	8.7826	80.567099	0.000243	2.432504	0.412077	-0.000049
 565	5.6118e+01	8.7646	80.510579	0.000284	2.837921	0.480757	-0.000057
 566	5.6218e+01	8.7440	80.429837	0.000405	4.054174	0.686796	-0.000081
 567	5.6317e+01	8.7240	80.377354	0.000264	2.635213	0.446417	-0.000053
 568	5.6416e+01	8.7037	80.300648	0.000385	3.851465	0.652456	-0.000077
 569	5.6516e+01	8.6840	80.219906	0.000405	4.054174	0.686796	-0.000081
 570	5.6615e+01	8.6646	80.143200	0.000385	3.851465	0.652456	-0.000077
 571	5.6715e+01	8.6444	80.082643	0.000304	3.040630	0.515097	-0.000061
 572	5.6815e+01	8.6233	79.997863	0.000426	4.256882	0.721135	-0.000085
 573	5.6914e+01	8.6037	79.921158	0.000385	3.851465	0.652456	-0.000077
 574	5.7014e+01	8.5840	79.860601	0.000304	3.040630	0.515097	-0.000061
 575	5.7113e+01	8.5647	79.779858	0.000405	4.054174	0.686796	-0.000081
 576	5.7212e+01	8.5439	79.723338	0.000284	2.837921	0.480757	-0.000057
 577	5.7312e+01	8.5256	79.654707	0.000345	3.446048	0.583776	-0.000069
 578	5.7411e+01	8.5040	79.529555	0.000628	6.283969	1.064533	-0.000126
 579	5.7511e+01	8.4842	79.477073	0.000264	2.635213	0.446417	-0.000053
 580	5.7611e+01	8.4655	79.408441	0.000345	3.446048	0.583776	-0.000069
 581	5.7710e+01	8.4449	79.327699	0.000405	4.054174	0.686796	-0.000081
 582	5.7809e+01	8.4250	79.263105	0.000324	3.243339	0.549436	-0.000065
 583	5.7909e+01	8.4048	79.162176	0.000507	5.067717	0.858494	-0.000101
 584	5.8008e+01	8.3838	79.105656	0.000284	2.837921	0.480757	-0.000057
 585	5.8108e+01	8.3649	79.016839	0.000446	4.459591	0.755475	-0.000089
 586	5.8208e+01	8.3453	78.899762	0.000588	5.878552	0.995854	-0.000118
 587	5.8307e+01	8.3253	78.863428	0.000182	1.824378	0.309058	-0.000037
 588	5.8407e+01	8.3046	78.798834	0.000324	3.243339	0.549436	-0.000065
 589	5.8506e+01	8.2861	78.722128	0.000385	3.851465	0.652456	-0.000077
 590	5.8605e+01	8.2657	78.605051	0.000588	5.878552	0.995854	-0.000118
 591	5.8705e+01	8.2458	78.540457	0.000324	3.243339	0.549436	-0.000065
 592	5.8804e+01	8.2258	78.443566	0.000487	4.865008	0.824155	-0.000097
 593	5.8904e+01	8.2063	78.383009	0.000304	3.040630	0.515097	-0.000061
 594	5.9004e+01	8.1855	78.290155	0.000466	4.662300	0.789815	-0.000093
 595	5.9103e+01	8.1652	78.209412	0.000405	4.054174	0.686796	-0.000081
 596	5.9203e+01	8.1445	78.100409	0.000547	5.473134	0.927174	-0.000110
 597	5.9302e+01	8.1252	78.027741	0.000365	3.648756	0.618116	-0.000073
 598	5.9401e+01	8.1065	77.922775	0.000527	5.270426	0.892834	-0.000105
 599	5.9501e+01	8.0869	77.862218	0.000304	3.040630	0.515097	-0.000061
 600	5.9600e+01	8.0666	77.825884	0.000182	1.824378	0.309058	-0.000037
 601	5.9700e+01	8.0466	77.676510	0.000750	7.500221	1.270572	-0.000150
 602	5.9800e+01	8.0260	77.599805	0.000385	3.851465	0.652456	-0.000077
 603	5.9899e+01	8.0068	77.519062	0.000405	4.054174	0.686796	-0.000081
 604	5.9998e+01	7.9867	77.430245	0.000446	4.459591	0.755475	-0.000089
 605	6.0098e+01	7.9673	77.353539	0.000385	3.851465	0.652456	-0.000077
 606	6.0197e+01	7.9469	77.248574	0.000527	5.270426	0.892834	-0.000105
 607	6.0297e+01	7.9274	77.183980	0.000324	3.243339	0.549436	-0.000065
 608	6.0397e+01	7.9072	77.115348	0.000345	3.446048	0.583776	-0.000069
 609	6.0496e+01	7.8873	77.014420	0.000507	5.067717	0.858494	-0.000101
 610	6.0596e+01	7.8674	76.929640	0.000426	4.256882	0.721135	-0.000085
 611	6.0695e+01	7.8469	76.836786	0.000466	4.662300	0.789815	-0.000093
 612	6.0794e+01	7.8292	76.723746	0.000568	5.675843	0.961514	-0.000114
 613	6.0894e+01	7.8076	76.671263	0.000264	2.635213	0.446417	-0.000053
 614	6.0993e+01	7.7872	76.566298	0.000527	5.270426	0.892834	-0.000105
 615	6.1093e+01	7.7673	76.445184	0.000608	6.081260	1.030193	-0.000122
 616	6.1193e+01	7.7471	76.364441	0.000405	4.054174	0.686796	-0.000081
 617	6.1292e+01	7.7283	76.283698	0.000405	4.054174	0.686796	-0.000081
 618	6.1392e+01	7.7082	76.202956	0.000405	4.054174	0.686796	-0.000081
 619	6.1491e+01	7.6870	76.085879	0.000588	5.878552	0.995854	-0.000118
 620	6.1590e+01	7.6675	76.009173	0.000385	3.851465	0.652456	-0.000077
 621	6.1690e+01	7.6484	75.912282	0.000487	4.865008	0.824155	-0.000097
 622	6.1789e+01	7.6286	75.839613	0.000365	3.648756	0.618116	-0.000073
 623	6.1889e+01	7.6078	75.742722	0.000487	4.865008	0.824155	-0.000097
 624	6.1989e+01	7.5879	75.645831	0.000487	4.865008	0.824155	-0.000097
 625	6.2088e+01	7.5687	75.577200	0.000345	3.446048	0.583776	-0.000069
 626	6.2188e+01	7.5483	75.472234	0.000527	5.270426	0.892834	-0.000105
 627	6.2287e+01	7.5284	75.318823	0.000770	7.702930	1.304912	-0.000154
 628	6.2386e+01	7.5082	75.278452	0.000203	2.027087	0.343398	-0.000041
 629	6.2486e+01	7.4889	75.193672	0.000426	4.256882	0.721135	-0.000085
 630	6.2586e+01	7.4691	75.088706	0.000527	5.270426	0.892834	-0.000105
 631	6.2685e+01	7.4484	74.971629	0.000588	5.878552	0.995854	-0.000118
 632	6.2785e+01	7.4287	74.858589	0.000568	5.675843	0.961514	-0.000114
 633	6.2884e+01	7.4088	74.777847	0.000405	4.054174	0.686796	-0.000081
 634	6.2983e+01	7.3895	74.672881	0.000527	5.270426	0.892834	-0.000105
 635	6.3083e+01	7.3683	74.571953	0.000507	5.067717	0.858494	-0.000101
 636	6.3182e+01	7.3487	74.499284	0.000365	3.648756	0.618116	-0.000073
 637	6.3282e+01	7.3293	74.378170	0.000608	6.081260	1.030193	-0.000122
 638	6.3382e+01	7.3086	74.305502	0.000365	3.648756	0.618116	-0.000073
 639	6.3481e+01	7.2890	74.196499	0.000547	5.473134	0.927174	-0.000110
 640	6.3581e+01	7.2701	74.055199	0.000709	7.094804	1.201892	-0.000142
 641	6.3680e+01	7.2494	73.974457	0.000405	4.054174	0.686796	-0.000081
 642	6.3779e+01	7.2295	73.881603	0.000466	4.662300	0.789815	-0.000093
 643	6.3879e+01	7.2112	73.764526	0.000588	5.878552	0.995854	-0.000118
 644	6.3978e+01	7.1905	73.683783	0.000405	4.054174	0.686796	-0.000081
 645	6.4078e+01	7.1702	73.586892	0.000487	4.865008	0.824155	-0.000097
 646	6.4177e+01	7.1503	73.449629	0.000689	6.892095	1.167553	-0.000138
 647	6.4277e+01	7.1297	73.344664	0.000527	5.270426	0.892834	-0.000105
 648	6.4376e+01	7.1105	73.227587	0.000588	5.878552	0.995854	-0.000118
 649	6.4476e+01	7.0903	73.150881	0.000385	3.851465	0.652456	-0.000077
 650	6.4576e+01	7.0715	73.021693	0.000649	6.486678	1.098873	-0.000130
 651	6.4675e+01	7.0503	72.924801	0.000487	4.865008	0.824155	-0.000097
 652	6.4775e+01	7.0301	72.844059	0.000405	4.054174	0.686796	-0.000081
 653	6.4874e+01	7.0104	72.706796	0.000689	6.892095	1.167553	-0.000138
 654	6.4974e+01	6.9903	72.638165	0.000345	3.446048	0.583776	-0.000069
 655	6.5073e+01	6.9701	72.500902	0.000689	6.892095	1.167553	-0.000138
 656	6.5172e+01	6.9506	72.387862	0.000568	5.675843	0.961514	-0.000114
 657	6.5272e+01	6.9303	72.295008	0.000466	4.662300	0.789815	-0.000093
 658	6.5371e+01	6.9108	72.206191	0.000446	4.459591	0.755475	-0.000089
 659	6.5471e+01	6.8911	72.089114	0.000588	5.878552	0.995854	-0.000118
 660	6.5570e+01	6.8716	71.984149	0.000527	5.270426	0.892834	-0.000105
 661	6.5670e+01	6.8518	71.875146	0.000547	5.473134	0.927174	-0.000110
 662	6.5769e+01	6.8313	71.806515	0.000345	3.446048	0.583776	-0.000069
 663	6.5869e+01	6.8118	71.661178	0.000730	7.297512	1.236232	-0.000146
 664	6.5969e+01	6.7915	71.564287	0.000487	4.865008	0.824155	-0.000097
 665	6.6068e+01	6.7721	71.463358	0.000507	5.067717	0.858494	-0.000101
 666	6.6168e+01	6.7510	71.350318	0.000568	5.675843	0.961514	-0.000114
 667	6.6267e+01	6.7319	71.217093	0.000669	6.689386	1.133213	-0.000134
 668	6.6367e+01	6.7123	71.156536	0.000304	3.040630	0.515097	-0.000061
 669	6.6466e+01	6.6924	71.027348	0.000649	6.486678	1.098873	-0.000130
 670	6.6566e+01	6.6724	70.950642	0.000385	3.851465	0.652456	-0.000077
 671	6.6665e+01	6.6510	70.825491	0.000628	6.283969	1.064533	-0.000126
 672	6.6764e+01	6.6314	70.696302	0.000649	6.486678	1.098873	-0.000130
 673	6.6864e+01	6.6138	70.591337	0.000527	5.270426	0.892834	-0.000105
 674	6.6963e+01	6.5920	70.486371	0.000527	5.270426	0.892834	-0.000105
 675	6.7063e+01	6.5731	70.393517	0.000466	4.662300	0.789815	-0.000093
 676	6.7162e+01	6.5527	70.272403	0.000608	6.081260	1.030193	-0.000122
 677	6.7262e+01	6.5334	70.135141	0.000689	6.892095	1.167553	-0.000138
 678	6.7362e+01	6.5123	70.018064	0.000588	5.878552	0.995854	-0.000118
 679	6.7461e+01	6.4928	69.888875	0.000649	6.486678	1.098873	-0.000130
 680	6.7561e+01	6.4727	69.832355	0.000284	2.837921	0.480757	-0.000057
 681	6.7660e+01	6.4535	69.699130	0.000669	6.689386	1.133213	-0.000134
 682	6.7760e+01	6.4333	69.569942	0.000649	6.486678	1.098873	-0.000130
 683	6.7859e+01	6.4133	69.444790	0.000628	6.283969	1.064533	-0.000126
 684	6.7959e+01	6.3934	69.343862	0.000507	5.067717	0.858494	-0.000101
 685	6.8058e+01	6.3732	69.246971	0.000487	4.865008	0.824155	-0.000097
 686	6.8157e+01	6.3540	69.154117	0.000466	4.662300	0.789815	-0.000093
 687	6.8257e+01	6.3332	69.012817	0.000709	7.094804	1.201892	-0.000142
 688	6.8356e+01	6.3131	68.924000	0.000446	4.459591	0.755475	-0.000089
 689	6.8456e+01	6.2952	68.806923	0.000588	5.878552	0.995854	-0.000118
 690	6.8555e+01	6.2737	68.669660	0.000689	6.892095	1.167553	-0.000138
 691	6.8655e+01	6.2534	68.576806	0.000466	4.662300	0.789815	-0.000093
 692	6.8754e+01	6.2337	68.443581	0.000669	6.689386	1.133213	-0.000134
 693	6.8854e+01	6.2152	68.298244	0.000730	7.297512	1.236232	-0.000146
 694	6.8954e+01	6.1939	68.201353	0.000487	4.865008	0.824155	-0.000097
 695	6.9053e+01	6.1744	68.116573	0.000426	4.256882	0.721135	-0.000085
 696	6.9153e+01	6.1549	68.011607	0.000527	5.270426	0.892834	-0.000105
 697	6.9252e+01	6.1343	67.833973	0.000892	8.919182	1.510950	-0.000179
 698	6.9352e+01	6.1151	67.692673	0.000709	7.094804	1.201892	-0.000142
 699	6.9451e+01	6.0950	67.615968	0.000385	3.851465	0.652456	-0.000077
 700	6.9550e+01	6.0751	67.478705	0.000689	6.892095	1.167553	-0.000138
 701	6.9650e+01	6.0549	67.369703	0.000547	5.473134	0.927174	-0.000110
 702	6.9749e+01	6.0366	67.264737	0.000527	5.270426	0.892834	-0.000105
 703	6.9849e+01	6.0159	67.127474	0.000689	6.892095	1.167553	-0.000138
 704	6.9948e+01	5.9956	67.018472	0.000547	5.473134	0.927174	-0.000110
 705	7.0048e+01	5.9753	66.901395	0.000588	5.878552	0.995854	-0.000118
 706	7.0147e+01	5.9547	66.747984	0.000770	7.702930	1.304912	-0.000154
 707	7.0247e+01	5.9345	66.643018	0.000527	5.270426	0.892834	-0.000105
 708	7.0347e+01	5.9155	66.538053	0.000527	5.270426	0.892834	-0.000105
 709	7.0446e+01	5.8959	66.420976	0.000588	5.878552	0.995854	-0.000118
 710	7.0546e+01	5.8761	66.271602	0.000750	7.500221	1.270572	-0.000150
 711	7.0645e+01	5.8563	66.154525	0.000588	5.878552	0.995854	-0.000118
 712	7.0745e+01	5.8356	66.053596	0.000507	5.067717	0.858494	-0.000101
 713	7.0844e+01	5.8158	65.928445	0.000628	6.283969	1.064533	-0.000126
 714	7.0944e+01	5.7964	65.823480	0.000527	5.270426	0.892834	-0.000105
 715	7.1043e+01	5.7761	65.674106	0.000750	7.500221	1.270572	-0.000150
 716	7.1142e+01	5.7556	65.548954	0.000628	6.283969	1.064533	-0.000126
 717	7.1242e+01	5.7357	65.435915	0.000568	5.675843	0.961514	-0.000114
 718	7.1341e+01	5.7166	65.314801	0.000608	6.081260	1.030193	-0.000122
 719	7.1441e+01	5.6970	65.234058	0.000405	4.054174	0.686796	-0.000081
 720	7.1540e+01	5.6761	65.092758	0.000709	7.094804	1.201892	-0.000142
 721	7.1640e+01	5.6570	64.975681	0.000588	5.878552	0.995854	-0.000118
 722	7.1740e+01	5.6367	64.838419	0.000689	6.892095	1.167553	-0.000138
 723	7.1839e+01	5.6166	64.713267	0.000628	6.283969	1.064533	-0.000126
 724	7.1939e+01	5.5965	64.588116	0.000628	6.283969	1.064533	-0.000126
 725	7.2038e+01	5.5769	64.450853	0.000689	6.892095	1.167553	-0.000138
 726	7.2138e+01	5.5574	64.357999	0.000466	4.662300	0.789815	-0.000093
 727	7.2237e+01	5.5371	64.208625	0.000750	7.500221	1.270572	-0.000150
 728	7.2337e+01	5.5172	64.103660	0.000527	5.270426	0.892834	-0.000105
 729	7.2436e+01	5.4967	63.954286	0.000750	7.500221	1.270572	-0.000150
 730	7.2535e+01	5.4763	63.829135	0.000628	6.283969	1.064533	-0.000126
 731	7.2635e+01	5.4572	63.732243	0.000487	4.865008	0.824155	-0.000097
 732	7.2734e+01	5.4375	63.603055	0.000649	6.486678	1.098873	-0.000130
 733	7.2834e+01	5.4171	63.477904	0.000628	6.283969	1.064533	-0.000126
 734	7.2933e+01	5.3982	63.356790	0.000608	6.081260	1.030193	-0.000122
 735	7.3033e+01	5.3773	63.235676	0.000608	6.081260	1.030193	-0.000122
 736	7.3132e+01	5.3575	63.102450	0.000669	6.689386	1.133213	-0.000134
 737	7.3232e+01	5.3380	62.969225	0.000669	6.689386	1.133213	-0.000134
 738	7.3332e+01	5.3179	62.848111	0.000608	6.081260	1.030193	-0.000122
 739	7.3431e+01	5.2995	62.718922	0.000649	6.486678	1.098873	-0.000130
 740	7.3531e+01	5.2776	62.561474	0.000791	7.905638	1.339251	-0.000158
 741	7.3630e+01	5.2572	62.456508	0.000527	5.270426	0.892834	-0.000105
 742	7.3730e+01	5.2386	62.323283	0.000669	6.689386	1.133213	-0.000134
 743	7.3829e+01	5.2179	62.206206	0.000588	5.878552	0.995854	-0.000118
 744	7.3928e+01	5.1981	62.077018	0.000649	6.486678	1.098873	-0.000130
 745	7.4028e+01	5.1785	61.951866	0.000628	6.283969	1.064533	-0.000126
 746	7.4127e+01	5.1586	61.814604	0.000689	6.892095	1.167553	-0.000138
 747	7.4227e+01	5.1389	61.685416	0.000649	6.486678	1.098873	-0.000130
 748	7.4326e+01	5.1183	61.556227	0.000649	6.486678	1.098873	-0.000130
 749	7.4426e+01	5.0988	61.402816	0.000770	7.702930	1.304912	-0.000154
 750	7.4525e+01	5.0784	61.297850	0.000527	5.270426	0.892834	-0.000105
 751	7.4625e+01	5.0585	61.172699	0.000628	6.283969	1.064533	-0.000126
 752	7.4725e+01	5.0396	61.035437	0.000689	6.892095	1.167553	-0.000138
 753	7.4824e+01	5.0200	60.894137	0.000709	7.094804	1.201892	-0.000142
 754	7.4924e+01	4.9993	60.793209	0.000507	5.067717	0.858494	-0.000101
 755	7.5023e+01	4.9798	60.647872	0.000730	7.297512	1.236232	-0.000146
 756	7.5123e+01	4.9596	60.494460	0.000770	7.702930	1.304912	-0.000154
 757	7.5222e+01	4.9399	60.361235	0.000669	6.689386	1.133213	-0.000134
 758	7.5322e+01	4.9197	60.219935	0.000709	7.094804	1.201892	-0.000142
 759	7.5421e+01	4.8995	60.070561	0.000750	7.500221	1.270572	-0.000150
 760	7.5520e+01	4.8795	59.913113	0.000791	7.905638	1.339251	-0.000158
 761	7.5620e+01	4.8598	59.820259	0.000466	4.662300	0.789815	-0.000093
 762	7.5719e+01	4.8400	59.650699	0.000851	8.513764	1.442271	-0.000170
 763	7.5819e+01	4.8206	59.525548	0.000628	6.283969	1.064533	-0.000126
 764	7.5918e+01	4.8000	59.372137	0.000770	7.702930	1.304912	-0.000154
 765	7.6018e+01	4.7803	59.259097	0.000568	5.675843	0.961514	-0.000114
 766	7.6118e+01	4.7613	59.113760	0.000730	7.297512	1.236232	-0.000146
 767	7.6217e+01	4.7398	58.956312	0.000791	7.905638	1.339251	-0.000158
 768	7.6317e+01	4.7208	58.847309	0.000547	5.473134	0.927174	-0.000110
 769	7.6416e+01	4.7009	58.693898	0.000770	7.702930	1.304912	-0.000154
 770	7.6516e+01	4.6804	58.544524	0.000750	7.500221	1.270572	-0.000150
 771	7.6615e+01	4.6606	58.459744	0.000426	4.256882	0.721135	-0.000085
 772	7.6715e+01	4.6415	58.294221	0.000831	8.311056	1.407931	-0.000166
 773	7.6814e+01	4.6206	58.177145	0.000588	5.878552	0.995854	-0.000118
 774	7.6913e+01	4.6004	58.019696	0.000791	7.905638	1.339251	-0.000158
 775	7.7013e+01	4.5821	57.894545	0.000628	6.283969	1.064533	-0.000126
 776	7.7112e+01	4.5621	57.733060	0.000811	8.108347	1.373591	-0.000162
 777	7.7212e+01	4.5410	57.615983	0.000588	5.878552	0.995854	-0.000118
 778	7.7311e+01	4.5215	57.474683	0.000709	7.094804	1.201892	-0.000142
 779	7.7411e+01	4.5016	57.317235	0.000791	7.905638	1.339251	-0.000158
 780	7.7510e+01	4.4817	57.208232	0.000547	5.473134	0.927174	-0.000110
 781	7.7610e+01	4.4595	57.030598	0.000892	8.919182	1.510950	-0.000179
 782	7.7710e+01	4.4408	56.905447	0.000628	6.283969	1.064533	-0.000126
 783	7.7809e+01	4.4218	56.727813	0.000892	8.919182	1.510950	-0.000179
 784	7.7909e+01	4.4022	56.614773	0.000568	5.675843	0.961514	-0.000114
 785	7.8008e+01	4.3824	56.465399	0.000750	7.500221	1.270572	-0.000150
 786	7.8108e+01	4.3612	56.328136	0.000689	6.892095	1.167553	-0.000138
 787	7.8207e+01	4.3427	56.202985	0.000628	6.283969	1.064533	-0.000126
 788	7.8306e+01	4.3214	56.009203	0.000973	9.730017	1.648309	-0.000195
 789	7.8406e+01	4.3022	55.892126	0.000588	5.878552	0.995854	-0.000118
 790	7.8505e+01	4.2825	55.746789	0.000730	7.297512	1.236232	-0.000146
 791	7.8605e+01	4.2629	55.613563	0.000669	6.689386	1.133213	-0.000134
 792	7.8704e+01	4.2424	55.468226	0.000730	7.297512	1.236232	-0.000146
 793	7.8804e+01	4.2229	55.306741	0.000811	8.108347	1.373591	-0.000162
 794	7.8903e+01	4.2024	55.209850	0.000487	4.865008	0.824155	-0.000097
 795	7.9003e+01	4.1821	55.020104	0.000953	9.527308	1.613970	-0.000191
 796	7.9103e+01	4.1624	54.911102	0.000547	5.473134	0.927174	-0.000110
 797	7.9202e+01	4.1427	54.781913	0.000649	6.486678	1.098873	-0.000130
 798	7.9302e+01	4.1225	54.624465	0.000791	7.905638	1.339251	-0.000158
 799	7.9401e+01	4.1032	54.434720	0.000953	9.527308	1.613970	-0.000191
 800	7.9501e+01	4.0827	54.269197	0.000831	8.311056	1.407931	-0.000166
 801	7.9600e+01	4.0636	54.144046	0.000628	6.283969	1.064533	-0.000126
 802	7.9700e+01	4.0419	53.982561	0.000811	8.108347	1.373591	-0.000162
 803	7.9799e+01	4.0231	53.837224	0.000730	7.297512	1.236232	-0.000146
 804	7.9898e+01	4.0039	53.691887	0.000730	7.297512	1.236232	-0.000146
 805	7.9998e+01	3.9841	53.534438	0.000791	7.905638	1.339251	-0.000158
 806	8.0097e+01	3.9634	53.405250	0.000649	6.486678	1.098873	-0.000130
 807	8.0197e+01	3.9425	53.243765	0.000811	8.108347	1.373591	-0.000162
 808	8.0296e+01	3.9235	53.094391	0.000750	7.500221	1.270572	-0.000150
 809	8.0396e+01	3.9040	52.949054	0.000730	7.297512	1.236232	-0.000146
 810	8.0496e+01	3.8832	52.759308	0.000953	9.527308	1.613970	-0.000191
 811	8.0595e+01	3.8634	52.622046	0.000689	6.892095	1.167553	-0.000138
 812	8.0695e+01	3.8435	52.460560	0.000811	8.108347	1.373591	-0.000162
 813	8.0794e+01	3.8250	52.307149	0.000770	7.702930	1.304912	-0.000154
 814	8.0894e+01	3.8036	52.137589	0.000851	8.513764	1.442271	-0.000170
 815	8.0993e+01	3.7840	52.020513	0.000588	5.878552	0.995854	-0.000118
 816	8.1093e+01	3.7640	51.830767	0.000953	9.527308	1.613970	-0.000191
 817	8.1192e+01	3.7453	51.701579	0.000649	6.486678	1.098873	-0.000130
 818	8.1291e+01	3.7244	51.532019	0.000851	8.513764	1.442271	-0.000170
 819	8.1391e+01	3.7048	51.394757	0.000689	6.892095	1.167553	-0.000138
 820	8.1490e+01	3.6853	51.233271	0.000811	8.108347	1.373591	-0.000162
 821	8.1590e+01	3.6652	51.079860	0.000770	7.702930	1.304912	-0.000154
 822	8.1689e+01	3.6452	50.926449	0.000770	7.702930	1.304912	-0.000154
 823	8.1789e+01	3.6249	50.777075	0.000750	7.500221	1.270572	-0.000150
 824	8.1888e+01	3.6045	50.591367	0.000932	9.324599	1.579630	-0.000187
 825	8.1988e+01	3.5845	50.490438	0.000507	5.067717	0.858494	-0.000101
 826	8.2088e+01	3.5653	50.280507	0.001054	10.540851	1.785669	-0.000211
 827	8.2187e+01	3.5458	50.139207	0.000709	7.094804	1.201892	-0.000142
 828	8.2287e+01	3.5248	49.977722	0.000811	8.108347	1.373591	-0.000162
 829	8.2386e+01	3.5052	49.856608	0.000608	6.081260	1.030193	-0.000122
 830	8.2486e+01	3.4857	49.658788	0.000993	9.932725	1.682649	-0.000199
 831	8.2585e+01	3.4661	49.529600	0.000649	6.486678	1.098873	-0.000130
 832	8.2684e+01	3.4460	49.372152	0.000791	7.905638	1.339251	-0.000158
 833	8.2784e+01	3.4264	49.190480	0.000912	9.121890	1.545290	-0.000183
 834	8.2883e+01	3.4055	49.065329	0.000628	6.283969	1.064533	-0.000126
 835	8.2983e+01	3.3861	48.887695	0.000892	8.919182	1.510950	-0.000179
 836	8.3082e+01	3.3660	48.730247	0.000791	7.905638	1.339251	-0.000158
 837	8.3182e+01	3.3460	48.588947	0.000709	7.094804	1.201892	-0.000142
 838	8.3281e+01	3.3266	48.407276	0.000912	9.121890	1.545290	-0.000183
 839	8.3381e+01	3.3069	48.225605	0.000912	9.121890	1.545290	-0.000183
 840	8.3481e+01	3.2856	48.084305	0.000709	7.094804	1.201892	-0.000142
 841	8.3580e+01	3.2671	47.930894	0.000770	7.702930	1.304912	-0.000154
 842	8.3680e+01	3.2464	47.757297	0.000872	8.716473	1.476611	-0.000174
 843	8.3779e+01	3.2264	47.583700	0.000872	8.716473	1.476611	-0.000174
 844	8.3879e+01	3.2067	47.450475	0.000669	6.689386	1.133213	-0.000134
 845	8.3978e+01	3.1864	47.313212	0.000689	6.892095	1.167553	-0.000138
 846	8.4078e+01	3.1661	47.107318	0.001034	10.338143	1.751329	-0.000207
 847	8.4177e+01	3.1470	46.949870	0.000791	7.905638	1.339251	-0.000158
 848	8.4276e+01	3.1269	46.816645	0.000669	6.689386	1.133213	-0.000134
 849	8.4376e+01	3.1066	46.614788	0.001014	10.135434	1.716989	-0.000203
 850	8.4475e+01	3.0870	46.465414	0.000750	7.500221	1.270572	-0.000150
 851	8.4575e+01	3.0672	46.340263	0.000628	6.283969	1.064533	-0.000126
 852	8.4674e+01	3.0470	46.134369	0.001034	10.338143	1.751329	-0.000207
 853	8.4774e+01	3.0271	46.025366	0.000547	5.473134	0.927174	-0.000110
 854	8.4874e+01	3.0069	45.843695	0.000912	9.121890	1.545290	-0.000183
 855	8.4973e+01	2.9872	45.657987	0.000932	9.324599	1.579630	-0.000187
 856	8.5073e+01	2.9671	45.532835	0.000628	6.283969	1.064533	-0.000126
 857	8.5172e+01	2.9477	45.343090	0.000953	9.527308	1.613970	-0.000191
 858	8.5272e+01	2.9278	45.185642	0.000791	7.905638	1.339251	-0.000158
 859	8.5371e+01	2.9078	45.040305	0.000730	7.297512	1.236232	-0.000146
 860	8.5471e+01	2.8870	44.858634	0.000912	9.121890	1.545290	-0.000183
 861	8.5570e+01	2.8682	44.672926	0.000932	9.324599	1.579630	-0.000187
 862	8.5669e+01	2.8483	44.523551	0.000750	7.500221	1.270572	-0.000150
 863	8.5769e+01	2.8277	44.329769	0.000973	9.730017	1.648309	-0.000195
 864	8.5868e+01	2.8088	44.208655	0.000608	6.081260	1.030193	-0.000122
 865	8.5968e+01	2.7888	43.982575	0.001135	11.351686	1.923028	-0.000227
 866	8.6067e+01	2.7688	43.857424	0.000628	6.283969	1.064533	-0.000126
 867	8.6167e+01	2.7479	43.691902	0.000831	8.311056	1.407931	-0.000166
 868	8.6266e+01	2.7285	43.510230	0.000912	9.121890	1.545290	-0.000183
 869	8.6366e+01	2.7084	43.377005	0.000669	6.689386	1.133213	-0.000134
 870	8.6466e+01	2.6885	43.183222	0.000973	9.730017	1.648309	-0.000195
 871	8.6565e+01	2.6687	43.025774	0.000791	7.905638	1.339251	-0.000158
 872	8.6665e+01	2.6477	42.827954	0.000993	9.932725	1.682649	-0.000199
 873	8.6764e+01	2.6290	42.710878	0.000588	5.878552	0.995854	-0.000118
 874	8.6864e+01	2.6086	42.509021	0.001014	10.135434	1.716989	-0.000203
 875	8.6963e+01	2.5889	42.335424	0.000872	8.716473	1.476611	-0.000174
 876	8.7063e+01	2.5689	42.169901	0.000831	8.311056	1.407931	-0.000166
 877	8.7162e+01	2.5485	42.056862	0.000568	5.675843	0.961514	-0.000114
 878	8.7261e+01	2.5277	41.838856	0.001095	10.946269	1.854348	-0.000219
 879	8.7361e+01	2.5093	41.673334	0.000831	8.311056	1.407931	-0.000166
 880	8.7460e+01	2.4895	41.519922	0.000770	7.702930	1.304912	-0.000154
 881	8.7560e+01	2.4689	41.366511	0.000770	7.702930	1.304912	-0.000154
 882	8.7659e+01	2.4495	41.192915	0.000872	8.716473	1.476611	-0.000174
 883	8.7759e+01	2.4297	41.027392	0.000831	8.311056	1.407931	-0.000166
 884	8.7859e+01	2.4095	40.849758	0.000892	8.919182	1.510950	-0.000179
 885	8.7958e+01	2.3901	40.668087	0.000912	9.121890	1.545290	-0.000183
 886	8.8058e+01	2.3696	40.506601	0.000811	8.108347	1.373591	-0.000162
 887	8.8157e+01	2.3496	40.353190	0.000770	7.702930	1.304912	-0.000154
 888	8.8257e+01	2.3298	40.199779	0.000770	7.702930	1.304912	-0.000154
 889	8.8356e+01	2.3103	40.018108	0.000912	9.121890	1.545290	-0.000183
 890	8.8456e+01	2.2898	39.836437	0.000912	9.121890	1.545290	-0.000183
 891	8.8555e+01	2.2692	39.626506	0.001054	10.540851	1.785669	-0.000211
 892	8.8654e+01	2.2494	39.533652	0.000466	4.662300	0.789815	-0.000093
 893	8.8754e+01	2.2305	39.303535	0.001155	11.554395	1.957367	-0.000231
 894	8.8853e+01	2.2099	39.142050	0.000811	8.108347	1.373591	-0.000162
 895	8.8953e+01	2.1908	39.016898	0.000628	6.283969	1.064533	-0.000126
 896	8.9052e+01	2.1700	38.815042	0.001014	10.135434	1.716989	-0.000203
 897	8.9152e+01	2.1514	38.665668	0.000750	7.500221	1.270572	-0.000150
 898	8.9251e+01	2.1303	38.455736	0.001054	10.540851	1.785669	-0.000211
 899	8.9351e+01	2.1116	38.346734	0.000547	5.473134	0.927174	-0.000110
 900	8.9451e+01	2.0910	38.152951	0.000973	9.730017	1.648309	-0.000195
 901	8.9550e+01	2.0700	37.979354	0.000872	8.716473	1.476611	-0.000174
 902	8.9650e+01	2.0515	37.753275	0.001135	11.351686	1.923028	-0.000227
 903	8.9749e+01	2.0304	37.632161	0.000608	6.081260	1.030193	-0.000122
 904	8.9849e+01	2.0119	37.422230	0.001054	10.540851	1.785669	-0.000211
 905	8.9948e+01	1.9913	37.289004	0.000669	6.689386	1.133213	-0.000134
 906	9.0047e+01	1.9717	37.123482	0.000831	8.311056	1.407931	-0.000166
 907	9.0147e+01	1.9521	36.941811	0.000912	9.121890	1.545290	-0.000183
 908	9.0246e+01	1.9317	36.760139	0.000912	9.121890	1.545290	-0.000183
 909	9.0346e+01	1.9115	36.610765	0.000750	7.500221	1.270572	-0.000150
 910	9.0445e+01	1.8914	36.429094	0.000912	9.121890	1.545290	-0.000183
 911	9.0545e+01	1.8722	36.239349	0.000953	9.527308	1.613970	-0.000191
 912	9.0644e+01	1.8513	36.081901	0.000791	7.905638	1.339251	-0.000158
 913	9.0744e+01	1.8317	35.871970	0.001054	10.540851	1.785669	-0.000211
 914	9.0844e+01	1.8117	35.710484	0.000811	8.108347	1.373591	-0.000162
 915	9.0943e+01	1.7908	35.528813	0.000912	9.121890	1.545290	-0.000183
 916	9.1043e+01	1.7723	35.379439	0.000750	7.500221	1.270572	-0.000150
 917	9.1142e+01	1.7516	35.169508	0.001054	10.540851	1.785669	-0.000211
 918	9.1242e+01	1.7326	35.024171	0.000730	7.297512	1.236232	-0.000146
 919	9.1341e+01	1.7118	34.850574	0.000872	8.716473	1.476611	-0.000174
 920	9.1441e+01	1.6923	34.660829	0.000953	9.527308	1.613970	-0.000191
 921	9.1540e+01	1.6716	34.487232	0.000872	8.716473	1.476611	-0.000174
 922	9.1639e+01	1.6526	34.297487	0.000953	9.527308	1.613970	-0.000191
 923	9.1739e+01	1.6322	34.123890	0.000872	8.716473	1.476611	-0.000174
 924	9.1838e+01	1.6128	33.974516	0.000750	7.500221	1.270572	-0.000150
 925	9.1938e+01	1.5930	33.776696	0.000993	9.932725	1.682649	-0.000199
 926	9.2037e+01	1.5722	33.619248	0.000791	7.905638	1.339251	-0.000158
 927	9.2137e+01	1.5525	33.421428	0.000993	9.932725	1.682649	-0.000199
 928	9.2237e+01	1.5332	33.251869	0.000851	8.513764	1.442271	-0.000170
 929	9.2336e+01	1.5124	33.086346	0.000831	8.311056	1.407931	-0.000166
 930	9.2436e+01	1.4939	32.892563	0.000973	9.730017	1.648309	-0.000195
 931	9.2535e+01	1.4725	32.682632	0.001054	10.540851	1.785669	-0.000211
 932	9.2635e+01	1.4533	32.541333	0.000709	7.094804	1.201892	-0.000142
 933	9.2734e+01	1.4337	32.395996	0.000730	7.297512	1.236232	-0.000146
 934	9.2834e+01	1.4130	32.145693	0.001257	12.567938	2.129066	-0.000252
 935	9.2933e+01	1.3939	32.008431	0.000689	6.892095	1.167553	-0.000138
 936	9.3032e+01	1.3726	31.806574	0.001014	10.135434	1.716989	-0.000203
 937	9.3132e+01	1.3532	31.641051	0.000831	8.311056	1.407931	-0.000166
 938	9.3231e+01	1.3334	31.451306	0.000953	9.527308	1.613970	-0.000191
 939	9.3331e+01	1.3137	31.265598	0.000932	9.324599	1.579630	-0.000187
 940	9.3430e+01	1.2940	31.075852	0.000953	9.527308	1.613970	-0.000191
 941	9.3530e+01	1.2743	30.910330	0.000831	8.311056	1.407931	-0.000166
 942	9.3629e+01	1.2545	30.744807	0.000831	8.311056	1.407931	-0.000166
 943	9.3729e+01	1.2350	30.555062	0.000953	9.527308	1.613970	-0.000191
 944	9.3829e+01	1.2143	30.365316	0.000953	9.527308	1.613970	-0.000191
 945	9.3928e+01	1.1947	30.159423	0.001034	10.338143	1.751329	-0.000207
 946	9.4028e+01	1.1751	30.006011	0.000770	7.702930	1.304912	-0.000154
 947	9.4127e+01	1.1551	29.836452	0.000851	8.513764	1.442271	-0.000170
 948	9.4227e+01	1.1347	29.638632	0.000993	9.932725	1.682649	-0.000199
 949	9.4326e+01	1.1158	29.501369	0.000689	6.892095	1.167553	-0.000138
 950	9.4425e+01	1.0951	29.307587	0.000973	9.730017	1.648309	-0.000195
 951	9.4525e+01	1.0760	29.117842	0.000953	9.527308	1.613970	-0.000191
 952	9.4624e+01	1.0553	28.924059	0.000973	9.730017	1.648309	-0.000195
 953	9.4724e+01	1.0347	28.754499	0.000851	8.513764	1.442271	-0.000170
 954	9.4823e+01	1.0158	28.524383	0.001155	11.554395	1.957367	-0.000231
 955	9.4923e+01	0.9954	28.358860	0.000831	8.311056	1.407931	-0.000166
 956	9.5022e+01	0.9759	28.181226	0.000892	8.919182	1.510950	-0.000179
 957	9.5122e+01	0.9556	27.991481	0.000953	9.527308	1.613970	-0.000191
 958	9.5222e+01	0.9363	27.809810	0.000912	9.121890	1.545290	-0.000183
 959	9.5321e+01	0.9161	27.632176	0.000892	8.919182	1.510950	-0.000179
 960	9.5421e+01	0.8956	27.454542	0.000892	8.919182	1.510950	-0.000179
 961	9.5520e+01	0.8764	27.284982	0.000851	8.513764	1.442271	-0.000170
 962	9.5620e+01	0.8555	27.099274	0.000932	9.324599	1.579630	-0.000187
 963	9.5719e+01	0.8364	26.909528	0.000953	9.527308	1.613970	-0.000191
 964	9.5819e+01	0.8163	26.719783	0.000953	9.527308	1.613970	-0.000191
 965	9.5918e+01	0.7956	26.489666	0.001155	11.554395	1.957367	-0.000231
 966	9.6017e+01	0.7766	26.356441	0.000669	6.689386	1.133213	-0.000134
 967	9.6117e+01	0.7563	26.142472	0.001074	10.743560	1.820008	-0.000215
 968	9.6216e+01	0.7359	25.932541	0.001054	10.540851	1.785669	-0.000211
 969	9.6316e+01	0.7166	25.775093	0.000791	7.905638	1.339251	-0.000158
 970	9.6415e+01	0.6953	25.593422	0.000912	9.121890	1.545290	-0.000183
 971	9.6515e+01	0.6770	25.423862	0.000851	8.513764	1.442271	-0.000170
 972	9.6615e+01	0.6564	25.185671	0.001196	11.959812	2.026047	-0.000239
 973	9.6714e+01	0.6359	25.024186	0.000811	8.108347	1.373591	-0.000162
 974	9.6814e+01	0.6174	24.814255	0.001054	10.540851	1.785669	-0.000211
 975	9.6913e+01	0.5971	24.656807	0.000791	7.905638	1.339251	-0.000158
 976	9.7013e+01	0.5768	24.446875	0.001054	10.540851	1.785669	-0.000211
 977	9.7112e+01	0.5570	24.240982	0.001034	10.338143	1.751329	-0.000207
 978	9.7212e+01	0.5372	24.075459	0.000831	8.311056	1.407931	-0.000166
 979	9.7311e+01	0.5181	23.841305	0.001176	11.757103	1.991707	-0.000235
 980	9.7410e+01	0.4977	23.651560	0.000953	9.527308	1.613970	-0.000191
 981	9.7510e+01	0.4777	23.494111	0.000791	7.905638	1.339251	-0.000158
 982	9.7609e+01	0.4577	23.320515	0.000872	8.716473	1.476611	-0.000174
 983	9.7709e+01	0.4380	23.134806	0.000932	9.324599	1.579630	-0.000187
 984	9.7808e+01	0.4183	22.924875	0.001054	10.540851	1.785669	-0.000211
 985	9.7908e+01	0.3979	22.710907	0.001074	10.743560	1.820008	-0.000215
 986	9.8007e+01	0.3776	22.541347	0.000851	8.513764	1.442271	-0.000170
 987	9.8107e+01	0.3584	22.315268	0.001135	11.351686	1.923028	-0.000227
 988	9.8207e+01	0.3384	22.169931	0.000730	7.297512	1.236232	-0.000146
 989	9.8306e+01	0.3181	21.943851	0.001135	11.351686	1.923028	-0.000227
 990	9.8406e+01	0.2978	21.770254	0.000872	8.716473	1.476611	-0.000174
 991	9.8505e+01	0.2790	21.588583	0.000912	9.121890	1.545290	-0.000183
 992	9.8605e+01	0.2581	21.366541	0.001115	11.148977	1.888688	-0.000223
 993	9.8704e+01	0.2386	21.188907	0.000892	8.919182	1.510950	-0.000179
 994	9.8803e+01	0.2183	20.987050	0.001014	10.135434	1.716989	-0.000203
 995	9.8903e+01	0.1987	20.752896	0.001176	11.757103	1.991707	-0.000235
 996	9.9002e+01	0.1776	20.623708	0.000649	6.486678	1.098873	-0.000130
 997	9.9102e+01	0.1589	20.433963	0.000953	9.527308	1.613970	-0.000191
 998	9.9201e+01	0.1381	20.199809	0.001176	11.757103	1.991707	-0.000235
 999	9.9301e+01	0.1174	20.030249	0.000851	8.513764	1.442271	-0.000170
1000	9.9400e+01	0.0983	19.852615	0.000892	8.919182	1.510950	-0.000179
1001	9.9500e+01	0.0797	19.642684	0.001054	10.540851	1.785669	-0.000211
1002	9.9600e+01	0.0584	19.461013	0.000912	9.121890	1.545290	-0.000183
1003	9.9699e+01	0.0387	19.251082	0.001054	10.540851	1.785669	-0.000211
1004	9.9799e+01	0.0191	19.057299	0.000973	9.730017	1.648309	-0.000195
1005	9.9898e+01	-0.0005	18.907925	0.000750	7.500221	1.270572	-0.000150
1006	9.9998e+01	-0.0195	18.689920	0.001095	10.946269	1.854348	-0.000219
1007	1.0010e+02	-0.0385	18.512286	0.000892	8.919182	1.510950	-0.000179
1008	1.0020e+02	-0.0597	18.334652	0.000892	8.919182	1.510950	-0.000179
1009	1.0030e+02	-0.0785	18.140869	0.000973	9.730017	1.648309	-0.000195
1010	1.0040e+02	-0.0984	17.930938	0.001054	10.540851	1.785669	-0.000211
1011	1.0050e+02	-0.1188	17.745230	0.000932	9.324599	1.579630	-0.000187
1012	1.0059e+02	-0.1379	17.531262	0.001074	10.743560	1.820008	-0.000215
1013	1.0069e+02	-0.1588	17.349591	0.000912	9.121890	1.545290	-0.000183
1014	1.0079e+02	-0.1790	17.163883	0.000932	9.324599	1.579630	-0.000187
1015	1.0089e+02	-0.1984	16.990286	0.000872	8.716473	1.476611	-0.000174
1016	1.0099e+02	-0.2186	16.764206	0.001135	11.351686	1.923028	-0.000227
1017	1.0109e+02	-0.2393	16.570424	0.000973	9.730017	1.648309	-0.000195
1018	1.0119e+02	-0.2589	16.384715	0.000932	9.324599	1.579630	-0.000187
1019	1.0129e+02	-0.2776	16.199007	0.000932	9.324599	1.579630	-0.000187
1020	1.0139e+02	-0.2986	16.021373	0.000892	8.919182	1.510950	-0.000179
1021	1.0149e+02	-0.3189	15.783182	0.001196	11.959812	2.026047	-0.000239
1022	1.0159e+02	-0.3381	15.609585	0.000872	8.716473	1.476611	-0.000174
1023	1.0169e+02	-0.3580	15.407729	0.001014	10.135434	1.716989	-0.000203
1024	1.0179e+02	-0.3793	15.226057	0.000912	9.121890	1.545290	-0.000183
1025	1.0189e+02	-0.3971	15.020164	0.001034	10.338143	1.751329	-0.000207
1026	1.0199e+02	-0.4175	14.842530	0.000892	8.919182	1.510950	-0.000179
1027	1.0209e+02	-0.4381	14.648747	0.000973	9.730017	1.648309	-0.000195
1028	1.0219e+02	-0.4575	14.446890	0.001014	10.135434	1.716989	-0.000203
1029	1.0229e+02	-0.4779	14.249071	0.000993	9.932725	1.682649	-0.000199
1030	1.0239e+02	-0.4981	14.063362	0.000932	9.324599	1.579630	-0.000187
1031	1.0248e+02	-0.5167	13.833246	0.001155	11.554395	1.957367	-0.000231
1032	1.0258e+02	-0.5373	13.655612	0.000892	8.919182	1.510950	-0.000179
1033	1.0268e+02	-0.5577	13.457792	0.000993	9.932725	1.682649	-0.000199
1034	1.0278e+02	-0.5777	13.223638	0.001176	11.757103	1.991707	-0.000235
1035	1.0288e+02	-0.5968	13.074264	0.000750	7.500221	1.270572	-0.000150
1036	1.0298e+02	-0.6164	12.860296	0.001074	10.743560	1.820008	-0.000215
1037	1.0308e+02	-0.6371	12.662476	0.000993	9.932725	1.682649	-0.000199
1038	1.0318e+02	-0.6570	12.464657	0.000993	9.932725	1.682649	-0.000199
1039	1.0328e+02	-0.6757	12.250688	0.001074	10.743560	1.820008	-0.000215
1040	1.0338e+02	-0.6969	12.097277	0.000770	7.702930	1.304912	-0.000154
1041	1.0348e+02	-0.7171	11.863123	0.001176	11.757103	1.991707	-0.000235
1042	1.0358e+02	-0.7364	11.693564	0.000851	8.513764	1.442271	-0.000170
1043	1.0368e+02	-0.7569	11.499781	0.000973	9.730017	1.648309	-0.000195
1044	1.0378e+02	-0.7767	11.265627	0.001176	11.757103	1.991707	-0.000235
1045	1.0388e+02	-0.7964	11.071845	0.000973	9.730017	1.648309	-0.000195
1046	1.0398e+02	-0.8163	10.910359	0.000811	8.108347	1.373591	-0.000162
1047	1.0408e+02	-0.8372	10.696391	0.001074	10.743560	1.820008	-0.000215
1048	1.0418e+02	-0.8564	10.470312	0.001135	11.351686	1.923028	-0.000227
1049	1.0428e+02	-0.8755	10.320938	0.000750	7.500221	1.270572	-0.000150
1050	1.0438e+02	-0.8954	10.078709	0.001216	12.162521	2.060387	-0.000243
1051	1.0447e+02	-0.9159	9.921261	0.000791	7.905638	1.339251	-0.000158
1052	1.0457e+02	-0.9360	9.759776	0.000811	8.108347	1.373591	-0.000162
1053	1.0467e+02	-0.9555	9.541770	0.001095	10.946269	1.854348	-0.000219
1054	1.0477e+02	-0.9760	9.303579	0.001196	11.959812	2.026047	-0.000239
1055	1.0487e+02	-0.9956	9.150168	0.000770	7.702930	1.304912	-0.000154
1056	1.0497e+02	-1.0145	8.911977	0.001196	11.959812	2.026047	-0.000239
1057	1.0507e+02	-1.0350	8.742417	0.000851	8.513764	1.442271	-0.000170
1058	1.0517e+02	-1.0559	8.560746	0.000912	9.121890	1.545290	-0.000183
1059	1.0527e+02	-1.0757	8.354852	0.001034	10.338143	1.751329	-0.000207
1060	1.0537e+02	-1.0963	8.152996	0.001014	10.135434	1.716989	-0.000203
1061	1.0547e+02	-1.1156	7.955176	0.000993	9.932725	1.682649	-0.000199
1062	1.0557e+02	-1.1353	7.773505	0.000912	9.121890	1.545290	-0.000183
1063	1.0567e+02	-1.1555	7.599908	0.000872	8.716473	1.476611	-0.000174
1064	1.0577e+02	-1.1739	7.394014	0.001034	10.338143	1.751329	-0.000207
1065	1.0587e+02	-1.1951	7.176009	0.001095	10.946269	1.854348	-0.000219
1066	1.0597e+02	-1.2156	6.982226	0.000973	9.730017	1.648309	-0.000195
1067	1.0607e+02	-1.2341	6.796518	0.000932	9.324599	1.579630	-0.000187
1068	1.0617e+02	-1.2549	6.606773	0.000953	9.527308	1.613970	-0.000191
1069	1.0627e+02	-1.2737	6.433176	0.000872	8.716473	1.476611	-0.000174
1070	1.0637e+02	-1.2944	6.243430	0.000953	9.527308	1.613970	-0.000191
1071	1.0647e+02	-1.3139	6.001202	0.001216	12.162521	2.060387	-0.000243
1072	1.0656e+02	-1.3338	5.795308	0.001034	10.338143	1.751329	-0.000207
1073	1.0666e+02	-1.3542	5.621712	0.000872	8.716473	1.476611	-0.000174
1074	1.0676e+02	-1.3740	5.419855	0.001014	10.135434	1.716989	-0.000203
1075	1.0686e+02	-1.3934	5.242221	0.000892	8.919182	1.510950	-0.000179
1076	1.0696e+02	-1.4136	5.052475	0.000953	9.527308	1.613970	-0.000191
1077	1.0706e+02	-1.4333	4.850619	0.001014	10.135434	1.716989	-0.000203
1078	1.0716e+02	-1.4534	4.668947	0.000912	9.121890	1.545290	-0.000183
1079	1.0726e+02	-1.4729	4.442868	0.001135	11.351686	1.923028	-0.000227
1080	1.0736e+02	-1.4928	4.277345	0.000831	8.311056	1.407931	-0.000166
1081	1.0746e+02	-1.5120	4.095674	0.000912	9.121890	1.545290	-0.000183
1082	1.0756e+02	-1.5328	3.853446	0.001216	12.162521	2.060387	-0.000243
1083	1.0766e+02	-1.5534	3.647552	0.001034	10.338143	1.751329	-0.000207
1084	1.0776e+02	-1.5742	3.469918	0.000892	8.919182	1.510950	-0.000179
1085	1.0786e+02	-1.5925	3.300358	0.000851	8.513764	1.442271	-0.000170
1086	1.0796e+02	-1.6130	3.070242	0.001155	11.554395	1.957367	-0.000231
1087	1.0806e+02	-1.6332	2.888571	0.000912	9.121890	1.545290	-0.000183
1088	1.0816e+02	-1.6528	2.702862	0.000932	9.324599	1.579630	-0.000187
1089	1.0826e+02	-1.6724	2.529266	0.000872	8.716473	1.476611	-0.000174
1090	1.0836e+02	-1.6921	2.303186	0.001135	11.351686	1.923028	-0.000227
1091	1.0845e+02	-1.7131	2.105366	0.000993	9.932725	1.682649	-0.000199
1092	1.0855e+02	-1.7336	1.923695	0.000912	9.121890	1.545290	-0.000183
1093	1.0865e+02	-1.7521	1.701653	0.001115	11.148977	1.888688	-0.000223
1094	1.0875e+02	-1.7729	1.548242	0.000770	7.702930	1.304912	-0.000154
1095	1.0885e+02	-1.7916	1.322162	0.001135	11.351686	1.923028	-0.000227
1096	1.0895e+02	-1.8128	1.140491	0.000912	9.121890	1.545290	-0.000183
1097	1.0905e+02	-1.8321	0.934597	0.001034	10.338143	1.751329	-0.000207
1098	1.0915e+02	-1.8522	0.744852	0.000953	9.527308	1.613970	-0.000191
1099	1.0925e+02	-1.8717	0.538958	0.001034	10.338143	1.751329	-0.000207
1100	1.0935e+02	-1.8913	0.353249	0.000932	9.324599	1.579630	-0.000187
1101	1.0945e+02	-1.9121	0.143318	0.001054	10.540851	1.785669	-0.000211
1102	1.0955e+02	-1.9317	-0.042390	0.000932	9.324599	1.579630	-0.000187
1103	1.0965e+02	-1.9518	-0.248284	0.001034	10.338143	1.751329	-0.000207
1104	1.0975e+02	-1.9724	-0.417844	0.000851	8.513764	1.442271	-0.000170
1105	1.0985e+02	-1.9907	-0.619700	0.001014	10.135434	1.716989	-0.000203
1106	1.0995e+02	-2.0114	-0.769074	0.000750	7.500221	1.270572	-0.000150
1107	1.1005e+02	-2.0316	-1.027451	0.001297	12.973355	2.197746	-0.000260
1108	1.1015e+02	-2.0517	-1.221234	0.000973	9.730017	1.648309	-0.000195
1109	1.1025e+02	-2.0710	-1.431165	0.001054	10.540851	1.785669	-0.000211
1110	1.1035e+02	-2.0905	-1.592650	0.000811	8.108347	1.373591	-0.000162
1111	1.1044e+02	-2.1107	-1.790470	0.000993	9.932725	1.682649	-0.000199
1112	1.1054e+02	-2.1303	-1.988289	0.000993	9.932725	1.682649	-0.000199
1113	1.1064e+02	-2.1507	-2.173998	0.000932	9.324599	1.579630	-0.000187
1114	1.1074e+02	-2.1704	-2.392003	0.001095	10.946269	1.854348	-0.000219
1115	1.1084e+02	-2.1911	-2.589823	0.000993	9.932725	1.682649	-0.000199
1116	1.1094e+02	-2.2105	-2.779568	0.000953	9.527308	1.613970	-0.000191
1117	1.1104e+02	-2.2307	-2.932979	0.000770	7.702930	1.304912	-0.000154
1118	1.1114e+02	-2.2513	-3.130799	0.000993	9.932725	1.682649	-0.000199
1119	1.1124e+02	-2.2704	-3.340730	0.001054	10.540851	1.785669	-0.000211
1120	1.1134e+02	-2.2900	-3.514327	0.000872	8.716473	1.476611	-0.000174
1121	1.1144e+02	-2.3099	-3.732332	0.001095	10.946269	1.854348	-0.000219
1122	1.1154e+02	-2.3306	-3.918040	0.000932	9.324599	1.579630	-0.000187
1123	1.1164e+02	-2.3494	-4.063377	0.000730	7.297512	1.236232	-0.000146
1124	1.1174e+02	-2.3704	-4.293494	0.001155	11.554395	1.957367	-0.000231
1125	1.1184e+02	-2.3899	-4.483239	0.000953	9.527308	1.613970	-0.000191
1126	1.1194e+02	-2.4100	-4.640688	0.000791	7.905638	1.339251	-0.000158
1127	1.1204e+02	-2.4300	-4.858693	0.001095	10.946269	1.854348	-0.000219
1128	1.1214e+02	-2.4502	-5.060550	0.001014	10.135434	1.716989	-0.000203
1129	1.1224e+02	-2.4695	-5.234146	0.000872	8.716473	1.476611	-0.000174
1130	1.1234e+02	-2.4896	-5.460226	0.001135	11.351686	1.923028	-0.000227
1131	1.1244e+02	-2.5094	-5.601526	0.000709	7.094804	1.201892	-0.000142
1132	1.1253e+02	-2.5282	-5.827605	0.001135	11.351686	1.923028	-0.000227
1133	1.1263e+02	-2.5491	-6.025425	0.000993	9.932725	1.682649	-0.000199
1134	1.1273e+02	-2.5692	-6.207096	0.000912	9.121890	1.545290	-0.000183
1135	1.1283e+02	-2.5893	-6.400879	0.000973	9.730017	1.648309	-0.000195
1136	1.1293e+02	-2.6078	-6.606773	0.001034	10.338143	1.751329	-0.000207
1137	1.1303e+02	-2.6283	-6.804592	0.000993	9.932725	1.682649	-0.000199
1138	1.1313e+02	-2.6485	-6.994338	0.000953	9.527308	1.613970	-0.000191
1139	1.1323e+02	-2.6681	-7.143712	0.000750	7.500221	1.270572	-0.000150
1140	1.1333e+02	-2.6878	-7.422274	0.001399	13.986899	2.369445	-0.000280
1141	1.1343e+02	-2.7087	-7.583759	0.000811	8.108347	1.373591	-0.000162
1142	1.1353e+02	-2.7282	-7.749282	0.000831	8.311056	1.407931	-0.000166
1143	1.1363e+02	-2.7480	-7.922879	0.000872	8.716473	1.476611	-0.000174
1144	1.1373e+02	-2.7693	-8.173181	0.001257	12.567938	2.129066	-0.000252
1145	1.1383e+02	-2.7879	-8.371001	0.000993	9.932725	1.682649	-0.000199
1146	1.1393e+02	-2.8079	-8.544598	0.000872	8.716473	1.476611	-0.000174
1147	1.1403e+02	-2.8281	-8.710120	0.000831	8.311056	1.407931	-0.000166
1148	1.1413e+02	-2.8479	-8.911977	0.001014	10.135434	1.716989	-0.000203
1149	1.1423e+02	-2.8671	-9.129982	0.001095	10.946269	1.854348	-0.000219
1150	1.1433e+02	-2.8882	-9.299542	0.000851	8.513764	1.442271	-0.000170
1151	1.1442e+02	-2.9071	-9.505436	0.001034	10.338143	1.751329	-0.000207
1152	1.1452e+02	-2.9276	-9.703256	0.000993	9.932725	1.682649	-0.000199
1153	1.1462e+02	-2.9470	-9.876853	0.000872	8.716473	1.476611	-0.000174
1154	1.1472e+02	-2.9681	-10.050449	0.000872	8.716473	1.476611	-0.000174
1155	1.1482e+02	-2.9879	-10.220009	0.000851	8.513764	1.442271	-0.000170
1156	1.1492e+02	-3.0077	-10.458200	0.001196	11.959812	2.026047	-0.000239
1157	1.1502e+02	-3.0272	-10.623723	0.000831	8.311056	1.407931	-0.000166
1158	1.1512e+02	-3.0480	-10.817505	0.000973	9.730017	1.648309	-0.000195
1159	1.1522e+02	-3.0663	-11.035511	0.001095	10.946269	1.854348	-0.000219
1160	1.1532e+02	-3.0870	-11.176810	0.000709	7.094804	1.201892	-0.000142
1161	1.1542e+02	-3.1060	-11.435187	0.001297	12.973355	2.197746	-0.000260
1162	1.1552e+02	-3.1274	-11.584561	0.000750	7.500221	1.270572	-0.000150
1163	1.1562e+02	-3.1474	-11.790455	0.001034	10.338143	1.751329	-0.000207
1164	1.1572e+02	-3.1673	-11.976163	0.000932	9.324599	1.579630	-0.000187
1165	1.1582e+02	-3.1860	-12.157834	0.000912	9.121890	1.545290	-0.000183
1166	1.1592e+02	-3.2062	-12.351617	0.000973	9.730017	1.648309	-0.000195
1167	1.1602e+02	-3.2265	-12.573659	0.001115	11.148977	1.888688	-0.000223
1168	1.1612e+02	-3.2457	-12.714959	0.000709	7.094804	1.201892	-0.000142
1169	1.1622e+02	-3.2668	-12.904704	0.000953	9.527308	1.613970	-0.000191
1170	1.1632e+02	-3.2864	-13.041967	0.000689	6.892095	1.167553	-0.000138
1171	1.1642e+02	-3.3067	-13.259972	0.001095	10.946269	1.854348	-0.000219
1172	1.1651e+02	-3.3261	-13.437606	0.000892	8.919182	1.510950	-0.000179
1173	1.1661e+02	-3.3464	-13.679834	0.001216	12.162521	2.060387	-0.000243
1174	1.1671e+02	-3.3664	-13.853431	0.000872	8.716473	1.476611	-0.000174
1175	1.1681e+02	-3.3853	-14.031065	0.000892	8.919182	1.510950	-0.000179
1176	1.1691e+02	-3.4058	-14.220811	0.000953	9.527308	1.613970	-0.000191
1177	1.1701e+02	-3.4261	-14.422667	0.001014	10.135434	1.716989	-0.000203
1178	1.1711e+02	-3.4457	-14.592227	0.000851	8.513764	1.442271	-0.000170
1179	1.1721e+02	-3.4657	-14.802158	0.001054	10.540851	1.785669	-0.000211
1180	1.1731e+02	-3.4853	-14.939421	0.000689	6.892095	1.167553	-0.000138
1181	1.1741e+02	-3.5058	-15.133203	0.000973	9.730017	1.648309	-0.000195
1182	1.1751e+02	-3.5255	-15.314874	0.000912	9.121890	1.545290	-0.000183
1183	1.1761e+02	-3.5457	-15.484434	0.000851	8.513764	1.442271	-0.000170
1184	1.1771e+02	-3.5648	-15.686291	0.001014	10.135434	1.716989	-0.000203
1185	1.1781e+02	-3.5849	-15.884111	0.000993	9.932725	1.682649	-0.000199
1186	1.1791e+02	-3.6050	-16.037522	0.000770	7.702930	1.304912	-0.000154
1187	1.1801e+02	-3.6252	-16.231304	0.000973	9.730017	1.648309	-0.000195
1188	1.1811e+02	-3.6457	-16.437198	0.001034	10.338143	1.751329	-0.000207
1189	1.1821e+02	-3.6647	-16.614832	0.000892	8.919182	1.510950	-0.000179
1190	1.1831e+02	-3.6852	-16.772280	0.000791	7.905638	1.339251	-0.000158
1191	1.1841e+02	-3.7048	-16.990286	0.001095	10.946269	1.854348	-0.000219
1192	1.1850e+02	-3.7254	-17.151771	0.000811	8.108347	1.373591	-0.000162
1193	1.1860e+02	-3.7444	-17.357665	0.001034	10.338143	1.751329	-0.000207
1194	1.1870e+02	-3.7639	-17.531262	0.000872	8.716473	1.476611	-0.000174
1195	1.1880e+02	-3.7845	-17.692747	0.000811	8.108347	1.373591	-0.000162
1196	1.1890e+02	-3.8040	-17.894604	0.001014	10.135434	1.716989	-0.000203
1197	1.1900e+02	-3.8235	-18.064164	0.000851	8.513764	1.442271	-0.000170
1198	1.1910e+02	-3.8434	-18.257946	0.000973	9.730017	1.648309	-0.000195
1199	1.1920e+02	-3.8628	-18.451729	0.000973	9.730017	1.648309	-0.000195
1200	1.1930e+02	-3.8828	-18.613214	0.000811	8.108347	1.373591	-0.000162
1201	1.1940e+02	-3.9030	-18.782774	0.000851	8.513764	1.442271	-0.000170
1202	1.1950e+02	-3.9233	-18.972519	0.000953	9.527308	1.613970	-0.000191
1203	1.1960e+02	-3.9441	-19.146116	0.000872	8.716473	1.476611	-0.000174
1204	1.1970e+02	-3.9630	-19.327787	0.000912	9.121890	1.545290	-0.000183
1205	1.1980e+02	-3.9833	-19.537718	0.001054	10.540851	1.785669	-0.000211
1206	1.1990e+02	-4.0030	-19.731501	0.000973	9.730017	1.648309	-0.000195
1207	1.2000e+02	-4.0234	-19.884912	0.000770	7.702930	1.304912	-0.000154
1208	1.2010e+02	-4.0432	-20.090806	0.001034	10.338143	1.751329	-0.000207
1209	1.2020e+02	-4.0636	-20.268440	0.000892	8.919182	1.510950	-0.000179
1210	1.2030e+02	-4.0829	-20.446074	0.000892	8.919182	1.510950	-0.000179
1211	1.2039e+02	-4.1019	-20.599485	0.000770	7.702930	1.304912	-0.000154
1212	1.2049e+02	-4.1231	-20.813453	0.001074	10.743560	1.820008	-0.000215
1213	1.2059e+02	-4.1402	-20.978976	0.000831	8.311056	1.407931	-0.000166
1214	1.2069e+02	-4.1628	-21.136424	0.000791	7.905638	1.339251	-0.000158
1215	1.2079e+02	-4.1824	-21.297910	0.000811	8.108347	1.373591	-0.000162
1216	1.2089e+02	-4.2036	-21.503804	0.001034	10.338143	1.751329	-0.000207
1217	1.2099e+02	-4.2223	-21.641066	0.000689	6.892095	1.167553	-0.000138
1218	1.2109e+02	-4.2424	-21.834849	0.000973	9.730017	1.648309	-0.000195
1219	1.2119e+02	-4.2635	-22.000371	0.000831	8.311056	1.407931	-0.000166
1220	1.2129e+02	-4.2824	-22.178005	0.000892	8.919182	1.510950	-0.000179
1221	1.2139e+02	-4.3025	-22.400048	0.001115	11.148977	1.888688	-0.000223
1222	1.2149e+02	-4.3227	-22.521162	0.000608	6.081260	1.030193	-0.000122
1223	1.2159e+02	-4.3425	-22.727056	0.001034	10.338143	1.751329	-0.000207
1224	1.2169e+02	-4.3622	-22.896615	0.000851	8.513764	1.442271	-0.000170
1225	1.2179e+02	-4.3820	-23.098472	0.001014	10.135434	1.716989	-0.000203
1226	1.2189e+02	-4.4017	-23.251883	0.000770	7.702930	1.304912	-0.000154
1227	1.2199e+02	-4.4211	-23.421443	0.000851	8.513764	1.442271	-0.000170
1228	1.2209e+02	-4.4424	-23.586966	0.000831	8.311056	1.407931	-0.000166
1229	1.2219e+02	-4.4616	-23.740377	0.000770	7.702930	1.304912	-0.000154
1230	1.2229e+02	-4.4818	-23.954345	0.001074	10.743560	1.820008	-0.000215
1231	1.2239e+02	-4.5017	-24.131979	0.000892	8.919182	1.510950	-0.000179
1232	1.2248e+02	-4.5217	-24.305576	0.000872	8.716473	1.476611	-0.000174
1233	1.2258e+02	-4.5407	-24.426690	0.000608	6.081260	1.030193	-0.000122
1234	1.2268e+02	-4.5621	-24.604324	0.000892	8.919182	1.510950	-0.000179
1235	1.2278e+02	-4.5816	-24.802143	0.000993	9.932725	1.682649	-0.000199
1236	1.2288e+02	-4.6008	-24.967666	0.000831	8.311056	1.407931	-0.000166
1237	1.2298e+02	-4.6209	-25.161448	0.000973	9.730017	1.648309	-0.000195
1238	1.2308e+02	-4.6414	-25.322934	0.000811	8.108347	1.373591	-0.000162
1239	1.2318e+02	-4.6605	-25.504605	0.000912	9.121890	1.545290	-0.000183
1240	1.2328e+02	-4.6806	-25.678202	0.000872	8.716473	1.476611	-0.000174
1241	1.2338e+02	-4.7003	-25.839687	0.000811	8.108347	1.373591	-0.000162
1242	1.2348e+02	-4.7208	-26.017321	0.000892	8.919182	1.510950	-0.000179
1243	1.2358e+02	-4.7407	-26.178807	0.000811	8.108347	1.373591	-0.000162
1244	1.2368e+02	-4.7614	-26.312032	0.000669	6.689386	1.133213	-0.000134
1245	1.2378e+02	-4.7794	-26.562335	0.001257	12.567938	2.129066	-0.000252
1246	1.2388e+02	-4.8013	-26.687486	0.000628	6.283969	1.064533	-0.000126
1247	1.2398e+02	-4.8199	-26.873194	0.000932	9.324599	1.579630	-0.000187
1248	1.2408e+02	-4.8401	-27.026605	0.000770	7.702930	1.304912	-0.000154
1249	1.2418e+02	-4.8605	-27.240573	0.001074	10.743560	1.820008	-0.000215
1250	1.2428e+02	-4.8808	-27.398022	0.000791	7.905638	1.339251	-0.000158
1251	1.2438e+02	-4.8997	-27.555470	0.000791	7.905638	1.339251	-0.000158
1252	1.2447e+02	-4.9197	-27.720993	0.000831	8.311056	1.407931	-0.000166
1253	1.2457e+02	-4.9405	-27.850181	0.000649	6.486678	1.098873	-0.000130
1254	1.2467e+02	-4.9602	-28.076260	0.001135	11.351686	1.923028	-0.000227
1255	1.2477e+02	-4.9798	-28.286192	0.001054	10.540851	1.785669	-0.000211
1256	1.2487e+02	-5.0002	-28.415380	0.000649	6.486678	1.098873	-0.000130
1257	1.2497e+02	-5.0202	-28.617237	0.001014	10.135434	1.716989	-0.000203
1258	1.2507e+02	-5.0388	-28.762574	0.000730	7.297512	1.236232	-0.000146
1259	1.2517e+02	-5.0594	-28.883688	0.000608	6.081260	1.030193	-0.000122
1260	1.2527e+02	-5.0792	-29.097656	0.001074	10.743560	1.820008	-0.000215
1261	1.2537e+02	-5.0987	-29.259141	0.000811	8.108347	1.373591	-0.000162
1262	1.2547e+02	-5.1189	-29.412552	0.000770	7.702930	1.304912	-0.000154
1263	1.2557e+02	-5.1395	-29.614409	0.001014	10.135434	1.716989	-0.000203
1264	1.2567e+02	-5.1590	-29.747635	0.000669	6.689386	1.133213	-0.000134
1265	1.2577e+02	-5.1789	-29.925269	0.000892	8.919182	1.510950	-0.000179
1266	1.2587e+02	-5.1985	-30.127125	0.001014	10.135434	1.716989	-0.000203
1267	1.2597e+02	-5.2187	-30.268425	0.000709	7.094804	1.201892	-0.000142
1268	1.2607e+02	-5.2389	-30.429911	0.000811	8.108347	1.373591	-0.000162
1269	1.2617e+02	-5.2583	-30.607545	0.000892	8.919182	1.510950	-0.000179
1270	1.2627e+02	-5.2786	-30.781141	0.000872	8.716473	1.476611	-0.000174
1271	1.2636e+02	-5.2992	-30.962813	0.000912	9.121890	1.545290	-0.000183
1272	1.2646e+02	-5.3175	-31.124298	0.000811	8.108347	1.373591	-0.000162
1273	1.2656e+02	-5.3384	-31.310006	0.000932	9.324599	1.579630	-0.000187
1274	1.2666e+02	-5.3581	-31.475529	0.000831	8.311056	1.407931	-0.000166
1275	1.2676e+02	-5.3778	-31.616829	0.000709	7.094804	1.201892	-0.000142
1276	1.2686e+02	-5.3986	-31.790425	0.000872	8.716473	1.476611	-0.000174
1277	1.2696e+02	-5.4181	-31.976134	0.000932	9.324599	1.579630	-0.000187
1278	1.2706e+02	-5.4375	-32.153768	0.000892	8.919182	1.510950	-0.000179
1279	1.2716e+02	-5.4575	-32.291030	0.000689	6.892095	1.167553	-0.000138
1280	1.2726e+02	-5.4773	-32.476738	0.000932	9.324599	1.579630	-0.000187
1281	1.2736e+02	-5.4969	-32.630150	0.000770	7.702930	1.304912	-0.000154
1282	1.2746e+02	-5.5170	-32.795672	0.000831	8.311056	1.407931	-0.000166
1283	1.2756e+02	-5.5385	-32.997529	0.001014	10.135434	1.716989	-0.000203
1284	1.2766e+02	-5.5572	-33.163052	0.000831	8.311056	1.407931	-0.000166
1285	1.2776e+02	-5.5771	-33.312426	0.000750	7.500221	1.270572	-0.000150
1286	1.2786e+02	-5.5978	-33.461800	0.000750	7.500221	1.270572	-0.000150
1287	1.2796e+02	-5.6167	-33.623285	0.000811	8.108347	1.373591	-0.000162
1288	1.2806e+02	-5.6378	-33.796882	0.000872	8.716473	1.476611	-0.000174
1289	1.2816e+02	-5.6564	-33.962404	0.000831	8.311056	1.407931	-0.000166
1290	1.2826e+02	-5.6769	-34.156187	0.000973	9.730017	1.648309	-0.000195
1291	1.2835e+02	-5.6966	-34.293450	0.000689	6.892095	1.167553	-0.000138
1292	1.2845e+02	-5.7173	-34.471083	0.000892	8.919182	1.510950	-0.000179
1293	1.2855e+02	-5.7359	-34.648717	0.000892	8.919182	1.510950	-0.000179
1294	1.2865e+02	-5.7558	-34.814240	0.000831	8.311056	1.407931	-0.000166
1295	1.2875e+02	-5.7767	-34.991874	0.000892	8.919182	1.510950	-0.000179
1296	1.2885e+02	-5.7962	-35.121062	0.000649	6.486678	1.098873	-0.000130
1297	1.2895e+02	-5.8165	-35.326956	0.001034	10.338143	1.751329	-0.000207
1298	1.2905e+02	-5.8368	-35.468256	0.000709	7.094804	1.201892	-0.000142
1299	1.2915e+02	-5.8562	-35.658001	0.000953	9.527308	1.613970	-0.000191
1300	1.2925e+02	-5.8766	-35.819487	0.000811	8.108347	1.373591	-0.000162
1301	1.2935e+02	-5.8963	-36.005195	0.000932	9.324599	1.579630	-0.000187
1302	1.2945e+02	-5.9160	-36.190903	0.000932	9.324599	1.579630	-0.000187
1303	1.2955e+02	-5.9357	-36.364500	0.000872	8.716473	1.476611	-0.000174
1304	1.2965e+02	-5.9561	-36.489651	0.000628	6.283969	1.064533	-0.000126
1305	1.2975e+02	-5.9747	-36.699582	0.001054	10.540851	1.785669	-0.000211
1306	1.2985e+02	-5.9958	-36.848956	0.000750	7.500221	1.270572	-0.000150
1307	1.2995e+02	-6.0162	-37.002368	0.000770	7.702930	1.304912	-0.000154
1308	1.3005e+02	-6.0356	-37.212299	0.001054	10.540851	1.785669	-0.000211
1309	1.3015e+02	-6.0562	-37.365710	0.000770	7.702930	1.304912	-0.000154
1310	1.3025e+02	-6.0756	-37.547381	0.000912	9.121890	1.545290	-0.000183
1311	1.3034e+02	-6.0959	-37.700792	0.000770	7.702930	1.304912	-0.000154
1312	1.3044e+02	-6.1153	-37.882463	0.000912	9.121890	1.545290	-0.000183
1313	1.3054e+02	-6.1349	-38.035874	0.000770	7.702930	1.304912	-0.000154
1314	1.3064e+02	-6.1546	-38.253880	0.001095	10.946269	1.854348	-0.000219
1315	1.3074e+02	-6.1746	-38.366919	0.000568	5.675843	0.961514	-0.000114
1316	1.3084e+02	-6.1951	-38.580888	0.001074	10.743560	1.820008	-0.000215
1317	1.3094e+02	-6.2154	-38.786782	0.001034	10.338143	1.751329	-0.000207
1318	1.3104e+02	-6.2352	-38.940193	0.000770	7.702930	1.304912	-0.000154
1319	1.3114e+02	-6.2552	-39.065344	0.000628	6.283969	1.064533	-0.000126
1320	1.3124e+02	-6.2744	-39.242978	0.000892	8.919182	1.510950	-0.000179
1321	1.3134e+02	-6.2949	-39.444835	0.001014	10.135434	1.716989	-0.000203
1322	1.3144e+02	-6.3144	-39.594209	0.000750	7.500221	1.270572	-0.000150
1323	1.3154e+02	-6.3339	-39.767806	0.000872	8.716473	1.476611	-0.000174
1324	1.3164e+02	-6.3536	-39.981774	0.001074	10.743560	1.820008	-0.000215
1325	1.3174e+02	-6.3736	-40.143259	0.000811	8.108347	1.373591	-0.000162
1326	1.3184e+02	-6.3940	-40.312819	0.000851	8.513764	1.442271	-0.000170
1327	1.3194e+02	-6.4134	-40.510639	0.000993	9.932725	1.682649	-0.000199
1328	1.3204e+02	-6.4345	-40.660013	0.000750	7.500221	1.270572	-0.000150
1329	1.3214e+02	-6.4539	-40.801312	0.000709	7.094804	1.201892	-0.000142
1330	1.3224e+02	-6.4736	-40.995095	0.000973	9.730017	1.648309	-0.000195
1331	1.3234e+02	-6.4944	-41.176766	0.000912	9.121890	1.545290	-0.000183
1332	1.3243e+02	-6.5134	-41.378623	0.001014	10.135434	1.716989	-0.000203
1333	1.3253e+02	-6.5337	-41.515885	0.000689	6.892095	1.167553	-0.000138
1334	1.3263e+02	-6.5529	-41.709668	0.000973	9.730017	1.648309	-0.000195
1335	1.3273e+02	-6.5741	-41.891339	0.000912	9.121890	1.545290	-0.000183
1336	1.3283e+02	-6.5932	-42.056862	0.000831	8.311056	1.407931	-0.000166
1337	1.3293e+02	-6.6124	-42.242570	0.000932	9.324599	1.579630	-0.000187
1338	1.3303e+02	-6.6330	-42.404055	0.000811	8.108347	1.373591	-0.000162
1339	1.3313e+02	-6.6531	-42.589763	0.000932	9.324599	1.579630	-0.000187
1340	1.3323e+02	-6.6732	-42.791620	0.001014	10.135434	1.716989	-0.000203
1341	1.3333e+02	-6.6933	-42.977328	0.000932	9.324599	1.579630	-0.000187
1342	1.3343e+02	-6.7132	-43.114591	0.000689	6.892095	1.167553	-0.000138
1343	1.3353e+02	-6.7330	-43.288188	0.000872	8.716473	1.476611	-0.000174
1344	1.3363e+02	-6.7525	-43.498119	0.001054	10.540851	1.785669	-0.000211
1345	1.3373e+02	-6.7726	-43.651530	0.000770	7.702930	1.304912	-0.000154
1346	1.3383e+02	-6.7924	-43.845313	0.000973	9.730017	1.648309	-0.000195
1347	1.3393e+02	-6.8123	-44.055244	0.001054	10.540851	1.785669	-0.000211
1348	1.3403e+02	-6.8330	-44.208655	0.000770	7.702930	1.304912	-0.000154
1349	1.3413e+02	-6.8525	-44.410512	0.001014	10.135434	1.716989	-0.000203
1350	1.3423e+02	-6.8729	-44.604294	0.000973	9.730017	1.648309	-0.000195
1351	1.3432e+02	-6.8922	-44.753668	0.000750	7.500221	1.270572	-0.000150
1352	1.3442e+02	-6.9130	-44.939376	0.000932	9.324599	1.579630	-0.000187
1353	1.3452e+02	-6.9324	-45.096825	0.000791	7.905638	1.339251	-0.000158
1354	1.3462e+02	-6.9527	-45.278496	0.000912	9.121890	1.545290	-0.000183
1355	1.3472e+02	-6.9711	-45.476316	0.000993	9.932725	1.682649	-0.000199
1356	1.3482e+02	-6.9922	-45.662024	0.000932	9.324599	1.579630	-0.000187
1357	1.3492e+02	-7.0116	-45.835621	0.000872	8.716473	1.476611	-0.000174
1358	1.3502e+02	-7.0313	-46.029403	0.000973	9.730017	1.648309	-0.000195
1359	1.3512e+02	-7.0519	-46.239334	0.001054	10.540851	1.785669	-0.000211
1360	1.3522e+02	-7.0721	-46.396782	0.000791	7.905638	1.339251	-0.000158
1361	1.3532e+02	-7.0918	-46.610751	0.001074	10.743560	1.820008	-0.000215
1362	1.3542e+02	-7.1115	-46.743976	0.000669	6.689386	1.133213	-0.000134
1363	1.3552e+02	-7.1313	-46.953907	0.001054	10.540851	1.785669	-0.000211
1364	1.3562e+02	-7.1519	-47.163838	0.001054	10.540851	1.785669	-0.000211
1365	1.3572e+02	-7.1708	-47.357621	0.000973	9.730017	1.648309	-0.000195
1366	1.3582e+02	-7.1919	-47.563515	0.001034	10.338143	1.751329	-0.000207
1367	1.3592e+02	-7.2117	-47.708852	0.000730	7.297512	1.236232	-0.000146
1368	1.3602e+02	-7.2310	-47.914746	0.001034	10.338143	1.751329	-0.000207
1369	1.3612e+02	-7.2513	-48.108528	0.000973	9.730017	1.648309	-0.000195
1370	1.3622e+02	-7.2708	-48.326533	0.001095	10.946269	1.854348	-0.000219
1371	1.3631e+02	-7.2910	-48.488019	0.000811	8.108347	1.373591	-0.000162
1372	1.3641e+02	-7.3100	-48.677764	0.000953	9.527308	1.613970	-0.000191
1373	1.3651e+02	-7.3311	-48.871547	0.000973	9.730017	1.648309	-0.000195
1374	1.3661e+02	-7.3506	-49.081478	0.001054	10.540851	1.785669	-0.000211
1375	1.3671e+02	-7.3703	-49.267186	0.000932	9.324599	1.579630	-0.000187
1376	1.3681e+02	-7.3907	-49.473080	0.001034	10.338143	1.751329	-0.000207
1377	1.3691e+02	-7.4108	-49.642640	0.000851	8.513764	1.442271	-0.000170
1378	1.3701e+02	-7.4301	-49.844496	0.001014	10.135434	1.716989	-0.000203
1379	1.3711e+02	-7.4496	-50.082687	0.001196	11.959812	2.026047	-0.000239
1380	1.3721e+02	-7.4696	-50.280507	0.000993	9.932725	1.682649	-0.000199
1381	1.3731e+02	-7.4899	-50.490438	0.001054	10.540851	1.785669	-0.000211
1382	1.3741e+02	-7.5095	-50.684221	0.000973	9.730017	1.648309	-0.000195
1383	1.3751e+02	-7.5290	-50.869929	0.000932	9.324599	1.579630	-0.000187
1384	1.3761e+02	-7.5504	-51.039489	0.000851	8.513764	1.442271	-0.000170
1385	1.3771e+02	-7.5696	-51.257494	0.001095	10.946269	1.854348	-0.000219
1386	1.3781e+02	-7.5896	-51.459351	0.001014	10.135434	1.716989	-0.000203
1387	1.3791e+02	-7.6085	-51.600650	0.000709	7.094804	1.201892	-0.000142
1388	1.3801e+02	-7.6276	-51.859027	0.001297	12.973355	2.197746	-0.000260
1389	1.3811e+02	-7.6489	-52.064921	0.001034	10.338143	1.751329	-0.000207
1390	1.3821e+02	-7.6682	-52.270815	0.001034	10.338143	1.751329	-0.000207
1391	1.3831e+02	-7.6886	-52.440375	0.000851	8.513764	1.442271	-0.000170
1392	1.3840e+02	-7.7089	-52.646269	0.001034	10.338143	1.751329	-0.000207
1393	1.3850e+02	-7.7286	-52.848125	0.001014	10.135434	1.716989	-0.000203
1394	1.3860e+02	-7.7485	-53.082279	0.001176	11.757103	1.991707	-0.000235
1395	1.3870e+02	-7.7676	-53.255876	0.000872	8.716473	1.476611	-0.000174
1396	1.3880e+02	-7.7887	-53.498104	0.001216	12.162521	2.060387	-0.000243
1397	1.3890e+02	-7.8075	-53.716110	0.001095	10.946269	1.854348	-0.000219
1398	1.3900e+02	-7.8287	-53.853372	0.000689	6.892095	1.167553	-0.000138
1399	1.3910e+02	-7.8482	-54.095600	0.001216	12.162521	2.060387	-0.000243
1400	1.3920e+02	-7.8673	-54.313606	0.001095	10.946269	1.854348	-0.000219
1401	1.3930e+02	-7.8879	-54.527574	0.001074	10.743560	1.820008	-0.000215
1402	1.3940e+02	-7.9073	-54.745579	0.001095	10.946269	1.854348	-0.000219
1403	1.3950e+02	-7.9277	-54.931287	0.000932	9.324599	1.579630	-0.000187
1404	1.3960e+02	-7.9474	-55.169478	0.001196	11.959812	2.026047	-0.000239
1405	1.3970e+02	-7.9683	-55.335001	0.000831	8.311056	1.407931	-0.000166
1406	1.3980e+02	-7.9871	-55.553006	0.001095	10.946269	1.854348	-0.000219
1407	1.3990e+02	-8.0078	-55.827532	0.001378	13.784190	2.335105	-0.000276
1408	1.4000e+02	-8.0273	-55.997091	0.000851	8.513764	1.442271	-0.000170
1409	1.4010e+02	-8.0466	-56.219134	0.001115	11.148977	1.888688	-0.000223
1410	1.4020e+02	-8.0672	-56.457325	0.001196	11.959812	2.026047	-0.000239
1411	1.4029e+02	-8.0854	-56.695516	0.001196	11.959812	2.026047	-0.000239
1412	1.4039e+02	-8.1068	-56.913521	0.001095	10.946269	1.854348	-0.000219
1413	1.4049e+02	-8.1258	-57.123452	0.001054	10.540851	1.785669	-0.000211
1414	1.4059e+02	-8.1476	-57.333383	0.001054	10.540851	1.785669	-0.000211
1415	1.4069e+02	-8.1680	-57.559463	0.001135	11.351686	1.923028	-0.000227
1416	1.4079e+02	-8.1872	-57.757282	0.000993	9.932725	1.682649	-0.000199
1417	1.4089e+02	-8.2061	-58.003548	0.001237	12.365229	2.094727	-0.000248
1418	1.4099e+02	-8.2269	-58.221553	0.001095	10.946269	1.854348	-0.000219
1419	1.4109e+02	-8.2458	-58.443596	0.001115	11.148977	1.888688	-0.000223
1420	1.4119e+02	-8.2662	-58.681787	0.001196	11.959812	2.026047	-0.000239
1421	1.4129e+02	-8.2861	-58.919978	0.001196	11.959812	2.026047	-0.000239
1422	1.4139e+02	-8.3061	-59.121834	0.001014	10.135434	1.716989	-0.000203
1423	1.4149e+02	-8.3257	-59.331765	0.001054	10.540851	1.785669	-0.000211
1424	1.4159e+02	-8.3456	-59.610328	0.001399	13.986899	2.369445	-0.000280
1425	1.4169e+02	-8.3652	-59.816222	0.001034	10.338143	1.751329	-0.000207
1426	1.4179e+02	-8.3858	-60.098821	0.001419	14.189607	2.403785	-0.000284
1427	1.4189e+02	-8.4056	-60.324901	0.001135	11.351686	1.923028	-0.000227
1428	1.4199e+02	-8.4264	-60.546943	0.001115	11.148977	1.888688	-0.000223
1429	1.4209e+02	-8.4454	-60.789171	0.001216	12.162521	2.060387	-0.000243
1430	1.4219e+02	-8.4656	-61.015251	0.001135	11.351686	1.923028	-0.000227
1431	1.4228e+02	-8.4848	-61.285739	0.001358	13.581481	2.300765	-0.000272
1432	1.4238e+02	-8.5054	-61.515856	0.001155	11.554395	1.957367	-0.000231
1433	1.4248e+02	-8.5251	-61.750010	0.001176	11.757103	1.991707	-0.000235
1434	1.4258e+02	-8.5453	-61.980126	0.001155	11.554395	1.957367	-0.000231
1435	1.4268e+02	-8.5652	-62.153723	0.000872	8.716473	1.476611	-0.000174
1436	1.4278e+02	-8.5844	-62.456508	0.001520	15.203151	2.575483	-0.000304
1437	1.4288e+02	-8.6047	-62.714885	0.001297	12.973355	2.197746	-0.000260
1438	1.4298e+02	-8.6246	-62.949039	0.001176	11.757103	1.991707	-0.000235
1439	1.4308e+02	-8.6456	-63.187230	0.001196	11.959812	2.026047	-0.000239
1440	1.4318e+02	-8.6655	-63.433495	0.001237	12.365229	2.094727	-0.000248
1441	1.4328e+02	-8.6850	-63.675723	0.001216	12.162521	2.060387	-0.000243
1442	1.4338e+02	-8.7050	-63.978509	0.001520	15.203151	2.575483	-0.000304
1443	1.4348e+02	-8.7251	-64.216700	0.001196	11.959812	2.026047	-0.000239
1444	1.4358e+02	-8.7437	-64.471039	0.001277	12.770647	2.163406	-0.000256
1445	1.4368e+02	-8.7642	-64.693082	0.001115	11.148977	1.888688	-0.000223
1446	1.4378e+02	-8.7840	-64.971644	0.001399	13.986899	2.369445	-0.000280
1447	1.4388e+02	-8.8049	-65.209835	0.001196	11.959812	2.026047	-0.000239
1448	1.4398e+02	-8.8242	-65.448026	0.001196	11.959812	2.026047	-0.000239
1449	1.4408e+02	-8.8437	-65.718514	0.001358	13.581481	2.300765	-0.000272
1450	1.4418e+02	-8.8629	-65.984965	0.001338	13.378773	2.266425	-0.000268
1451	1.4428e+02	-8.8842	-66.267565	0.001419	14.189607	2.403785	-0.000284
1452	1.4437e+02	-8.9037	-66.469421	0.001014	10.135434	1.716989	-0.000203
1453	1.4447e+02	-8.9236	-66.739909	0.001358	13.581481	2.300765	-0.000272
1454	1.4457e+02	-8.9437	-67.042695	0.001520	15.203151	2.575483	-0.000304
1455	1.4467e+02	-8.9636	-67.272811	0.001155	11.554395	1.957367	-0.000231
1456	1.4477e+02	-8.9830	-67.535225	0.001318	13.176064	2.232086	-0.000264
1457	1.4487e+02	-9.0030	-67.829936	0.001480	14.797733	2.506804	-0.000296
1458	1.4497e+02	-9.0229	-68.060053	0.001155	11.554395	1.957367	-0.000231
1459	1.4507e+02	-9.0428	-68.314392	0.001277	12.770647	2.163406	-0.000256
1460	1.4517e+02	-9.0630	-68.617178	0.001520	15.203151	2.575483	-0.000304
1461	1.4527e+02	-9.0826	-68.867480	0.001257	12.567938	2.129066	-0.000252
1462	1.4537e+02	-9.1026	-69.154117	0.001439	14.392316	2.438124	-0.000288
1463	1.4547e+02	-9.1226	-69.432679	0.001399	13.986899	2.369445	-0.000280
1464	1.4557e+02	-9.1428	-69.699130	0.001338	13.378773	2.266425	-0.000268
1465	1.4567e+02	-9.1620	-69.969618	0.001358	13.581481	2.300765	-0.000272
1466	1.4577e+02	-9.1821	-70.260292	0.001460	14.595025	2.472464	-0.000292
1467	1.4587e+02	-9.2030	-70.571151	0.001561	15.608568	2.644163	-0.000312
1468	1.4597e+02	-9.2212	-70.837602	0.001338	13.378773	2.266425	-0.000268
1469	1.4607e+02	-9.2415	-71.112127	0.001378	13.784190	2.335105	-0.000276
1470	1.4617e+02	-9.2618	-71.398764	0.001439	14.392316	2.438124	-0.000288
1471	1.4626e+02	-9.2825	-71.673289	0.001378	13.784190	2.335105	-0.000276
1472	1.4636e+02	-9.3018	-71.927629	0.001277	12.770647	2.163406	-0.000256
1473	1.4646e+02	-9.3214	-72.234451	0.001541	15.405859	2.609823	-0.000308
1474	1.4656e+02	-9.3425	-72.561459	0.001642	16.419403	2.781522	-0.000329
1475	1.4666e+02	-9.3614	-72.856170	0.001480	14.797733	2.506804	-0.000296
1476	1.4676e+02	-9.3823	-73.122621	0.001338	13.378773	2.266425	-0.000268
1477	1.4686e+02	-9.4019	-73.425406	0.001520	15.203151	2.575483	-0.000304
1478	1.4696e+02	-9.4215	-73.728191	0.001520	15.203151	2.575483	-0.000304
1479	1.4706e+02	-9.4415	-74.014828	0.001439	14.392316	2.438124	-0.000288
1480	1.4716e+02	-9.4617	-74.293390	0.001399	13.986899	2.369445	-0.000280
1481	1.4726e+02	-9.4806	-74.616361	0.001622	16.216694	2.747182	-0.000325
1482	1.4736e+02	-9.5008	-74.947406	0.001662	16.622112	2.815862	-0.000333
1483	1.4746e+02	-9.5213	-75.250192	0.001520	15.203151	2.575483	-0.000304
1484	1.4756e+02	-9.5416	-75.569125	0.001601	16.013985	2.712843	-0.000321
1485	1.4766e+02	-9.5612	-75.827502	0.001297	12.973355	2.197746	-0.000260
1486	1.4776e+02	-9.5813	-76.202956	0.001885	18.851907	3.193599	-0.000377
1487	1.4786e+02	-9.6008	-76.473444	0.001358	13.581481	2.300765	-0.000272
1488	1.4796e+02	-9.6211	-76.780266	0.001541	15.405859	2.609823	-0.000308
1489	1.4806e+02	-9.6409	-77.070940	0.001460	14.595025	2.472464	-0.000292
1490	1.4816e+02	-9.6603	-77.365651	0.001480	14.797733	2.506804	-0.000296
1491	1.4825e+02	-9.6800	-77.700733	0.001682	16.824820	2.850202	-0.000337
1492	1.4835e+02	-9.7003	-78.068112	0.001845	18.446490	3.124920	-0.000369
1493	1.4845e+02	-9.7197	-78.358786	0.001460	14.595025	2.472464	-0.000292
1494	1.4855e+02	-9.7401	-78.633311	0.001378	13.784190	2.335105	-0.000276
1495	1.4865e+02	-9.7603	-79.004728	0.001865	18.649198	3.159260	-0.000373
1496	1.4875e+02	-9.7798	-79.267142	0.001318	13.176064	2.232086	-0.000264
1497	1.4885e+02	-9.7993	-79.642595	0.001885	18.851907	3.193599	-0.000377
1498	1.4895e+02	-9.8196	-79.945380	0.001520	15.203151	2.575483	-0.000304
1499	1.4905e+02	-9.8396	-80.300648	0.001784	17.838364	3.021901	-0.000357
1500	1.4915e+02	-9.8604	-80.603434	0.001520	15.203151	2.575483	-0.000304
1501	1.4925e+02	-9.8798	-80.966776	0.001824	18.243781	3.090580	-0.000365
1502	1.4935e+02	-9.8996	-81.277635	0.001561	15.608568	2.644163	-0.000312
1503	1.4945e+02	-9.9191	-81.584458	0.001541	15.405859	2.609823	-0.000308
1504	1.4955e+02	-9.9388	-81.972023	0.001946	19.460033	3.296619	-0.000390
1505	1.4965e+02	-9.9594	-82.315179	0.001723	17.230238	2.918881	-0.000345
1506	1.4975e+02	-9.9789	-82.609890	0.001480	14.797733	2.506804	-0.000296
1507	1.4985e+02	-9.9982	-82.997455	0.001946	19.460033	3.296619	-0.000390
1508	1.4995e+02	-9.9799	-83.126643	-0.000649	-6.486678	-1.098873	-0.000130
1509	1.5005e+02	-9.9593	-83.211423	-0.000426	-4.256882	-0.721135	-0.000085
1510	1.5015e+02	-9.9393	-83.271980	-0.000304	-3.040630	-0.515097	-0.000061
1511	1.5025e+02	-9.9194	-83.441540	-0.000851	-8.513764	-1.442271	-0.000170
1512	1.5034e+02	-9.9005	-83.485948	-0.000223	-2.229795	-0.377738	-0.000045
1513	1.5044e+02	-9.8799	-83.562654	-0.000385	-3.851465	-0.652456	-0.000077
1514	1.5054e+02	-9.8593	-83.635323	-0.000365	-3.648756	-0.618116	-0.000073
1515	1.5064e+02	-9.8395	-83.736251	-0.000507	-5.067717	-0.858494	-0.000101
1516	1.5074e+02	-9.8199	-83.764511	-0.000142	-1.418961	-0.240378	-0.000028
1517	1.5084e+02	-9.7986	-83.792771	-0.000142	-1.418961	-0.240378	-0.000028
1518	1.5094e+02	-9.7799	-83.837179	-0.000223	-2.229795	-0.377738	-0.000045
1519	1.5104e+02	-9.7603	-83.861402	-0.000122	-1.216252	-0.206039	-0.000024
1520	1.5114e+02	-9.7407	-83.881588	-0.000101	-1.013543	-0.171699	-0.000020
1521	1.5124e+02	-9.7198	-83.970405	-0.000446	-4.459591	-0.755475	-0.000089
1522	1.5134e+02	-9.7002	-83.998665	-0.000142	-1.418961	-0.240378	-0.000028
1523	1.5144e+02	-9.6808	-83.986553	0.000061	0.608126	0.103019	0.000012
1524	1.5154e+02	-9.6609	-83.966368	0.000101	1.013543	0.171699	0.000020
1525	1.5164e+02	-9.6408	-84.006739	-0.000203	-2.027087	-0.343398	-0.000041
1526	1.5174e+02	-9.6209	-84.039036	-0.000162	-1.621669	-0.274718	-0.000032
1527	1.5184e+02	-9.6002	-84.002702	0.000182	1.824378	0.309058	0.000037
1528	1.5194e+02	-9.5815	-83.950219	0.000264	2.635213	0.446417	0.000053
1529	1.5204e+02	-9.5601	-83.998665	-0.000243	-2.432504	-0.412077	-0.000049
1530	1.5214e+02	-9.5410	-84.022888	-0.000122	-1.216252	-0.206039	-0.000024
1531	1.5224e+02	-9.5211	-83.974442	0.000243	2.432504	0.412077	0.000049
1532	1.5233e+02	-9.5009	-83.994628	-0.000101	-1.013543	-0.171699	-0.000020
1533	1.5243e+02	-9.4814	-83.982516	0.000061	0.608126	0.103019	0.000012
1534	1.5253e+02	-9.4614	-83.954256	0.000142	1.418961	0.240378	0.000028
1535	1.5263e+02	-9.4418	-83.934071	0.000101	1.013543	0.171699	0.000020
1536	1.5273e+02	-9.4208	-83.897736	0.000182	1.824378	0.309058	0.000037
1537	1.5283e+02	-9.4017	-83.877551	0.000101	1.013543	0.171699	0.000020
1538	1.5293e+02	-9.3822	-83.865439	0.000061	0.608126	0.103019	0.000012
1539	1.5303e+02	-9.3620	-83.853328	0.000061	0.608126	0.103019	0.000012
1540	1.5313e+02	-9.3410	-83.829105	0.000122	1.216252	0.206039	0.000024
1541	1.5323e+02	-9.3211	-83.816994	0.000061	0.608126	0.103019	0.000012
1542	1.5333e+02	-9.3014	-83.736251	0.000405	4.054174	0.686796	0.000081
1543	1.5343e+02	-9.2819	-83.728177	0.000041	0.405417	0.068680	0.000008
1544	1.5353e+02	-9.2622	-83.695880	0.000162	1.621669	0.274718	0.000032
1545	1.5363e+02	-9.2426	-83.639360	0.000284	2.837921	0.480757	0.000057
1546	1.5373e+02	-9.2233	-83.594951	0.000223	2.229795	0.377738	0.000045
1547	1.5383e+02	-9.2032	-83.522283	0.000365	3.648756	0.618116	0.000073
1548	1.5393e+02	-9.1818	-83.526320	-0.000020	-0.202709	-0.034340	-0.000004
1549	1.5403e+02	-9.1628	-83.485948	0.000203	2.027087	0.343398	0.000041
1550	1.5413e+02	-9.1425	-83.393094	0.000466	4.662300	0.789815	0.000093
1551	1.5422e+02	-9.1235	-83.332537	0.000304	3.040630	0.515097	0.000061
1552	1.5432e+02	-9.1025	-83.271980	0.000304	3.040630	0.515097	0.000061
1553	1.5442e+02	-9.0816	-83.247757	0.000122	1.216252	0.206039	0.000024
1554	1.5452e+02	-9.0627	-83.211423	0.000182	1.824378	0.309058	0.000037
1555	1.5462e+02	-9.0430	-83.138755	0.000365	3.648756	0.618116	0.000073
1556	1.5472e+02	-9.0233	-83.049938	0.000446	4.459591	0.755475	0.000089
1557	1.5482e+02	-9.0030	-83.021678	0.000142	1.418961	0.240378	0.000028
1558	1.5492e+02	-8.9821	-82.928824	0.000466	4.662300	0.789815	0.000093
1559	1.5502e+02	-8.9643	-82.844044	0.000426	4.256882	0.721135	0.000085
1560	1.5512e+02	-8.9435	-82.795598	0.000243	2.432504	0.412077	0.000049
1561	1.5522e+02	-8.9238	-82.739078	0.000284	2.837921	0.480757	0.000057
1562	1.5532e+02	-8.9047	-82.686596	0.000264	2.635213	0.446417	0.000053
1563	1.5542e+02	-8.8839	-82.617964	0.000345	3.446048	0.583776	0.000069
1564	1.5552e+02	-8.8634	-82.517036	0.000507	5.067717	0.858494	0.000101
1565	1.5562e+02	-8.8429	-82.476665	0.000203	2.027087	0.343398	0.000041
1566	1.5572e+02	-8.8238	-82.412070	0.000324	3.243339	0.549436	0.000065
1567	1.5582e+02	-8.7984	-82.339402	0.000365	3.648756	0.618116	0.000073
1568	1.5592e+02	-8.7842	-82.258659	0.000405	4.054174	0.686796	0.000081
1569	1.5602e+02	-8.7645	-82.181954	0.000385	3.851465	0.652456	0.000077
1570	1.5612e+02	-8.7439	-82.076988	0.000527	5.270426	0.892834	0.000105
1571	1.5622e+02	-8.7251	-82.040654	0.000182	1.824378	0.309058	0.000037
1572	1.5631e+02	-8.7036	-81.943763	0.000487	4.865008	0.824155	0.000097
1573	1.5641e+02	-8.6850	-81.903391	0.000203	2.027087	0.343398	0.000041
1574	1.5651e+02	-8.6646	-81.774203	0.000649	6.486678	1.098873	0.000130
1575	1.5661e+02	-8.6447	-81.754017	0.000101	1.013543	0.171699	0.000020
1576	1.5671e+02	-8.6250	-81.653089	0.000507	5.067717	0.858494	0.000101
1577	1.5681e+02	-8.6046	-81.552160	0.000507	5.067717	0.858494	0.000101
1578	1.5691e+02	-8.5854	-81.463343	0.000446	4.459591	0.755475	0.000089
1579	1.5701e+02	-8.5660	-81.410861	0.000264	2.635213	0.446417	0.000053
1580	1.5711e+02	-8.5444	-81.313969	0.000487	4.865008	0.824155	0.000097
1581	1.5721e+02	-8.5257	-81.221115	0.000466	4.662300	0.789815	0.000093
1582	1.5731e+02	-8.5053	-81.152484	0.000345	3.446048	0.583776	0.000069
1583	1.5741e+02	-8.4850	-81.071741	0.000405	4.054174	0.686796	0.000081
1584	1.5751e+02	-8.4663	-81.003110	0.000345	3.446048	0.583776	0.000069
1585	1.5761e+02	-8.4451	-80.886033	0.000588	5.878552	0.995854	0.000118
1586	1.5771e+02	-8.4258	-80.825476	0.000304	3.040630	0.515097	0.000061
1587	1.5781e+02	-8.4059	-80.712436	0.000568	5.675843	0.961514	0.000114
1588	1.5791e+02	-8.3862	-80.680139	0.000162	1.621669	0.274718	0.000032
1589	1.5801e+02	-8.3650	-80.550951	0.000649	6.486678	1.098873	0.000130
1590	1.5811e+02	-8.3463	-80.490394	0.000304	3.040630	0.515097	0.000061
1591	1.5821e+02	-8.3260	-80.369280	0.000608	6.081260	1.030193	0.000122
1592	1.5830e+02	-8.3063	-80.300648	0.000345	3.446048	0.583776	0.000069
1593	1.5840e+02	-8.2866	-80.223943	0.000385	3.851465	0.652456	0.000077
1594	1.5850e+02	-8.2652	-80.110903	0.000568	5.675843	0.961514	0.000114
1595	1.5860e+02	-8.2466	-80.026123	0.000426	4.256882	0.721135	0.000085
1596	1.5870e+02	-8.2259	-79.945380	0.000405	4.054174	0.686796	0.000081
1597	1.5880e+02	-8.2059	-79.848489	0.000487	4.865008	0.824155	0.000097
1598	1.5890e+02	-8.1871	-79.787932	0.000304	3.040630	0.515097	0.000061
1599	1.5900e+02	-8.1664	-79.695078	0.000466	4.662300	0.789815	0.000093
1600	1.5910e+02	-8.1470	-79.561853	0.000669	6.689386	1.133213	0.000134
1601	1.5920e+02	-8.1262	-79.493221	0.000345	3.446048	0.583776	0.000069
1602	1.5930e+02	-8.1075	-79.396330	0.000487	4.865008	0.824155	0.000097
1603	1.5940e+02	-8.0872	-79.295402	0.000507	5.067717	0.858494	0.000101
1604	1.5950e+02	-8.0672	-79.210622	0.000426	4.256882	0.721135	0.000085
1605	1.5960e+02	-8.0473	-79.105656	0.000527	5.270426	0.892834	0.000105
1606	1.5970e+02	-8.0276	-79.012802	0.000466	4.662300	0.789815	0.000093
1607	1.5980e+02	-8.0078	-78.899762	0.000568	5.675843	0.961514	0.000114
1608	1.5990e+02	-7.9867	-78.810945	0.000446	4.459591	0.755475	0.000089
1609	1.6000e+02	-7.9677	-78.718091	0.000466	4.662300	0.789815	0.000093
1610	1.6010e+02	-7.9477	-78.641386	0.000385	3.851465	0.652456	0.000077
1611	1.6019e+02	-7.9271	-78.524309	0.000588	5.878552	0.995854	0.000118
1612	1.6029e+02	-7.9073	-78.407232	0.000588	5.878552	0.995854	0.000118
1613	1.6039e+02	-7.8882	-78.314378	0.000466	4.662300	0.789815	0.000093
1614	1.6049e+02	-7.8682	-78.213449	0.000507	5.067717	0.858494	0.000101
1615	1.6059e+02	-7.8484	-78.124632	0.000446	4.459591	0.755475	0.000089
1616	1.6069e+02	-7.8271	-77.975258	0.000750	7.500221	1.270572	0.000150
1617	1.6079e+02	-7.8079	-77.938924	0.000182	1.824378	0.309058	0.000037
1618	1.6089e+02	-7.7877	-77.809736	0.000649	6.486678	1.098873	0.000130
1619	1.6099e+02	-7.7676	-77.757253	0.000264	2.635213	0.446417	0.000053
1620	1.6109e+02	-7.7478	-77.624027	0.000669	6.689386	1.133213	0.000134
1621	1.6119e+02	-7.7290	-77.519062	0.000527	5.270426	0.892834	0.000105
1622	1.6129e+02	-7.7090	-77.418133	0.000507	5.067717	0.858494	0.000101
1623	1.6139e+02	-7.6878	-77.321242	0.000487	4.865008	0.824155	0.000097
1624	1.6149e+02	-7.6688	-77.192054	0.000649	6.486678	1.098873	0.000130
1625	1.6159e+02	-7.6488	-77.087088	0.000527	5.270426	0.892834	0.000105
1626	1.6169e+02	-7.6291	-76.994234	0.000466	4.662300	0.789815	0.000093
1627	1.6179e+02	-7.6083	-76.877157	0.000588	5.878552	0.995854	0.000118
1628	1.6189e+02	-7.5889	-76.800452	0.000385	3.851465	0.652456	0.000077
1629	1.6199e+02	-7.5688	-76.711635	0.000446	4.459591	0.755475	0.000089
1630	1.6209e+02	-7.5491	-76.582446	0.000649	6.486678	1.098873	0.000130
1631	1.6219e+02	-7.5290	-76.465369	0.000588	5.878552	0.995854	0.000118
1632	1.6228e+02	-7.5095	-76.392701	0.000365	3.648756	0.618116	0.000073
1633	1.6238e+02	-7.4898	-76.267550	0.000628	6.283969	1.064533	0.000126
1634	1.6248e+02	-7.4690	-76.162584	0.000527	5.270426	0.892834	0.000105
1635	1.6258e+02	-7.4494	-76.061656	0.000507	5.067717	0.858494	0.000101
1636	1.6268e+02	-7.4298	-75.952653	0.000547	5.473134	0.927174	0.000110
1637	1.6278e+02	-7.4097	-75.851725	0.000507	5.067717	0.858494	0.000101
1638	1.6288e+02	-7.3898	-75.750796	0.000507	5.067717	0.858494	0.000101
1639	1.6298e+02	-7.3700	-75.682165	0.000345	3.446048	0.583776	0.000069
1640	1.6308e+02	-7.3499	-75.581237	0.000507	5.067717	0.858494	0.000101
1641	1.6318e+02	-7.3308	-75.443974	0.000689	6.892095	1.167553	0.000138
1642	1.6328e+02	-7.3108	-75.355157	0.000446	4.459591	0.755475	0.000089
1643	1.6338e+02	-7.2899	-75.234043	0.000608	6.081260	1.030193	0.000122
1644	1.6348e+02	-7.2710	-75.116966	0.000588	5.878552	0.995854	0.000118
1645	1.6358e+02	-7.2507	-75.048335	0.000345	3.446048	0.583776	0.000069
1646	1.6368e+02	-7.2309	-74.890887	0.000791	7.905638	1.339251	0.000158
1647	1.6378e+02	-7.2108	-74.802070	0.000446	4.459591	0.755475	0.000089
1648	1.6388e+02	-7.1919	-74.676918	0.000628	6.283969	1.064533	0.000126
1649	1.6398e+02	-7.1713	-74.547730	0.000649	6.486678	1.098873	0.000130
1650	1.6408e+02	-7.1509	-74.466987	0.000405	4.054174	0.686796	0.000081
1651	1.6418e+02	-7.1313	-74.325688	0.000709	7.094804	1.201892	0.000142
1652	1.6427e+02	-7.1115	-74.261093	0.000324	3.243339	0.549436	0.000065
1653	1.6437e+02	-7.0921	-74.139979	0.000608	6.081260	1.030193	0.000122
1654	1.6447e+02	-7.0712	-74.030977	0.000547	5.473134	0.927174	0.000110
1655	1.6457e+02	-7.0520	-73.938122	0.000466	4.662300	0.789815	0.000093
1656	1.6467e+02	-7.0319	-73.845268	0.000466	4.662300	0.789815	0.000093
1657	1.6477e+02	-7.0113	-73.712043	0.000669	6.689386	1.133213	0.000134
1658	1.6487e+02	-6.9922	-73.599003	0.000568	5.675843	0.961514	0.000114
1659	1.6497e+02	-6.9714	-73.469815	0.000649	6.486678	1.098873	0.000130
1660	1.6507e+02	-6.9497	-73.368886	0.000507	5.067717	0.858494	0.000101
1661	1.6517e+02	-6.9308	-73.215475	0.000770	7.702930	1.304912	0.000154
1662	1.6527e+02	-6.9127	-73.150881	0.000324	3.243339	0.549436	0.000065
1663	1.6537e+02	-6.8926	-73.025730	0.000628	6.283969	1.064533	0.000126
1664	1.6547e+02	-6.8721	-72.932876	0.000466	4.662300	0.789815	0.000093
1665	1.6557e+02	-6.8518	-72.831947	0.000507	5.067717	0.858494	0.000101
1666	1.6567e+02	-6.8318	-72.670462	0.000811	8.108347	1.373591	0.000162
1667	1.6577e+02	-6.8121	-72.581645	0.000446	4.459591	0.755475	0.000089
1668	1.6587e+02	-6.7926	-72.452457	0.000649	6.486678	1.098873	0.000130
1669	1.6597e+02	-6.7720	-72.323268	0.000649	6.486678	1.098873	0.000130
1670	1.6607e+02	-6.7526	-72.262711	0.000304	3.040630	0.515097	0.000061
1671	1.6616e+02	-6.7325	-72.109300	0.000770	7.702930	1.304912	0.000154
1672	1.6626e+02	-6.7130	-72.000297	0.000547	5.473134	0.927174	0.000110
1673	1.6636e+02	-6.6927	-71.879183	0.000608	6.081260	1.030193	0.000122
1674	1.6646e+02	-6.6730	-71.745958	0.000669	6.689386	1.133213	0.000134
1675	1.6656e+02	-6.6525	-71.632918	0.000568	5.675843	0.961514	0.000114
1676	1.6666e+02	-6.6336	-71.507767	0.000628	6.283969	1.064533	0.000126
1677	1.6676e+02	-6.6129	-71.439135	0.000345	3.446048	0.583776	0.000069
1678	1.6686e+02	-6.5935	-71.301873	0.000689	6.892095	1.167553	0.000138
1679	1.6696e+02	-6.5738	-71.176722	0.000628	6.283969	1.064533	0.000126
1680	1.6706e+02	-6.5543	-71.043496	0.000669	6.689386	1.133213	0.000134
1681	1.6716e+02	-6.5335	-70.978902	0.000324	3.243339	0.549436	0.000065
1682	1.6726e+02	-6.5137	-70.809342	0.000851	8.513764	1.442271	0.000170
1683	1.6736e+02	-6.4938	-70.708414	0.000507	5.067717	0.858494	0.000101
1684	1.6746e+02	-6.4737	-70.615560	0.000466	4.662300	0.789815	0.000093
1685	1.6756e+02	-6.4539	-70.486371	0.000649	6.486678	1.098873	0.000130
1686	1.6766e+02	-6.4336	-70.393517	0.000466	4.662300	0.789815	0.000093
1687	1.6776e+02	-6.4127	-70.256255	0.000689	6.892095	1.167553	0.000138
1688	1.6786e+02	-6.3945	-70.139178	0.000588	5.878552	0.995854	0.000118
1689	1.6796e+02	-6.3730	-69.969618	0.000851	8.513764	1.442271	0.000170
1690	1.6806e+02	-6.3536	-69.852541	0.000588	5.878552	0.995854	0.000118
1691	1.6816e+02	-6.3345	-69.775836	0.000385	3.851465	0.652456	0.000077
1692	1.6825e+02	-6.3155	-69.630499	0.000730	7.297512	1.236232	0.000146
1693	1.6835e+02	-6.2947	-69.509385	0.000608	6.081260	1.030193	0.000122
1694	1.6845e+02	-6.2753	-69.368085	0.000709	7.094804	1.201892	0.000142
1695	1.6855e+02	-6.2553	-69.287342	0.000405	4.054174	0.686796	0.000081
1696	1.6865e+02	-6.2352	-69.162191	0.000628	6.283969	1.064533	0.000126
1697	1.6875e+02	-6.2149	-69.061263	0.000507	5.067717	0.858494	0.000101
1698	1.6885e+02	-6.1953	-68.895740	0.000831	8.311056	1.407931	0.000166
1699	1.6895e+02	-6.1751	-68.738292	0.000791	7.905638	1.339251	0.000158
1700	1.6905e+02	-6.1548	-68.697920	0.000203	2.027087	0.343398	0.000041
1701	1.6915e+02	-6.1351	-68.572769	0.000628	6.283969	1.064533	0.000126
1702	1.6925e+02	-6.1150	-68.407247	0.000831	8.311056	1.407931	0.000166
1703	1.6935e+02	-6.0960	-68.318430	0.000446	4.459591	0.755475	0.000089
1704	1.6945e+02	-6.0757	-68.201353	0.000588	5.878552	0.995854	0.000118
1705	1.6955e+02	-6.0555	-68.043904	0.000791	7.905638	1.339251	0.000158
1706	1.6965e+02	-6.0358	-67.942976	0.000507	5.067717	0.858494	0.000101
1707	1.6975e+02	-6.0159	-67.805713	0.000689	6.892095	1.167553	0.000138
1708	1.6985e+02	-5.9949	-67.684599	0.000608	6.081260	1.030193	0.000122
1709	1.6995e+02	-5.9752	-67.535225	0.000750	7.500221	1.270572	0.000150
1710	1.7005e+02	-5.9563	-67.430260	0.000527	5.270426	0.892834	0.000105
1711	1.7015e+02	-5.9354	-67.329331	0.000507	5.067717	0.858494	0.000101
1712	1.7024e+02	-5.9164	-67.192069	0.000689	6.892095	1.167553	0.000138
1713	1.7034e+02	-5.8952	-67.050769	0.000709	7.094804	1.201892	0.000142
1714	1.7044e+02	-5.8791	-66.929655	0.000608	6.081260	1.030193	0.000122
1715	1.7054e+02	-5.8557	-66.796429	0.000669	6.689386	1.133213	0.000134
1716	1.7064e+02	-5.8371	-66.671278	0.000628	6.283969	1.064533	0.000126
1717	1.7074e+02	-5.8167	-66.542090	0.000649	6.486678	1.098873	0.000130
1718	1.7084e+02	-5.7965	-66.352344	0.000953	9.527308	1.613970	0.000191
1719	1.7094e+02	-5.7771	-66.255453	0.000487	4.865008	0.824155	0.000097
1720	1.7104e+02	-5.7563	-66.158562	0.000487	4.865008	0.824155	0.000097
1721	1.7114e+02	-5.7358	-66.025336	0.000669	6.689386	1.133213	0.000134
1722	1.7124e+02	-5.7172	-65.875962	0.000750	7.500221	1.270572	0.000150
1723	1.7134e+02	-5.6978	-65.766960	0.000547	5.473134	0.927174	0.000110
1724	1.7144e+02	-5.6772	-65.645846	0.000608	6.081260	1.030193	0.000122
1725	1.7154e+02	-5.6576	-65.488397	0.000791	7.905638	1.339251	0.000158
1726	1.7164e+02	-5.6371	-65.351135	0.000689	6.892095	1.167553	0.000138
1727	1.7174e+02	-5.6180	-65.230021	0.000608	6.081260	1.030193	0.000122
1728	1.7184e+02	-5.5968	-65.084684	0.000730	7.297512	1.236232	0.000146
1729	1.7194e+02	-5.5774	-64.963570	0.000608	6.081260	1.030193	0.000122
1730	1.7204e+02	-5.5574	-64.810159	0.000770	7.702930	1.304912	0.000154
1731	1.7213e+02	-5.5371	-64.689044	0.000608	6.081260	1.030193	0.000122
1732	1.7223e+02	-5.5173	-64.555819	0.000669	6.689386	1.133213	0.000134
1733	1.7233e+02	-5.4977	-64.446816	0.000547	5.473134	0.927174	0.000110
1734	1.7243e+02	-5.4781	-64.313591	0.000669	6.689386	1.133213	0.000134
1735	1.7253e+02	-5.4576	-64.156143	0.000791	7.905638	1.339251	0.000158
1736	1.7263e+02	-5.4382	-64.006769	0.000750	7.500221	1.270572	0.000150
1737	1.7273e+02	-5.4179	-63.897766	0.000547	5.473134	0.927174	0.000110
1738	1.7283e+02	-5.3986	-63.732243	0.000831	8.311056	1.407931	0.000166
1739	1.7293e+02	-5.3784	-63.619204	0.000568	5.675843	0.961514	0.000114
1740	1.7303e+02	-5.3587	-63.510201	0.000547	5.473134	0.927174	0.000110
1741	1.7313e+02	-5.3384	-63.356790	0.000770	7.702930	1.304912	0.000154
1742	1.7323e+02	-5.3182	-63.227601	0.000649	6.486678	1.098873	0.000130
1743	1.7333e+02	-5.2977	-63.045930	0.000912	9.121890	1.545290	0.000183
1744	1.7343e+02	-5.2782	-62.932890	0.000568	5.675843	0.961514	0.000114
1745	1.7353e+02	-5.2576	-62.767368	0.000831	8.311056	1.407931	0.000166
1746	1.7363e+02	-5.2389	-62.670477	0.000487	4.865008	0.824155	0.000097
1747	1.7373e+02	-5.2181	-62.533214	0.000689	6.892095	1.167553	0.000138
1748	1.7383e+02	-5.1997	-62.395951	0.000689	6.892095	1.167553	0.000138
1749	1.7393e+02	-5.1787	-62.286949	0.000547	5.473134	0.927174	0.000110
1750	1.7403e+02	-5.1586	-62.121426	0.000831	8.311056	1.407931	0.000166
1751	1.7413e+02	-5.1389	-61.980126	0.000709	7.094804	1.201892	0.000142
1752	1.7422e+02	-5.1192	-61.830752	0.000750	7.500221	1.270572	0.000150
1753	1.7432e+02	-5.0983	-61.693490	0.000689	6.892095	1.167553	0.000138
1754	1.7442e+02	-5.0797	-61.568339	0.000628	6.283969	1.064533	0.000126
1755	1.7452e+02	-5.0594	-61.427039	0.000709	7.094804	1.201892	0.000142
1756	1.7462e+02	-5.0390	-61.285739	0.000709	7.094804	1.201892	0.000142
1757	1.7472e+02	-5.0192	-61.168662	0.000588	5.878552	0.995854	0.000118
1758	1.7482e+02	-5.0000	-61.019288	0.000750	7.500221	1.270572	0.000150
1759	1.7492e+02	-4.9802	-60.882025	0.000689	6.892095	1.167553	0.000138
1760	1.7502e+02	-4.9588	-60.728614	0.000770	7.702930	1.304912	0.000154
1761	1.7512e+02	-4.9399	-60.571166	0.000791	7.905638	1.339251	0.000158
1762	1.7522e+02	-4.9205	-60.433903	0.000689	6.892095	1.167553	0.000138
1763	1.7532e+02	-4.8999	-60.316826	0.000588	5.878552	0.995854	0.000118
1764	1.7542e+02	-4.8799	-60.163415	0.000770	7.702930	1.304912	0.000154
1765	1.7552e+02	-4.8593	-60.038264	0.000628	6.283969	1.064533	0.000126
1766	1.7562e+02	-4.8401	-59.896964	0.000709	7.094804	1.201892	0.000142
1767	1.7572e+02	-4.8206	-59.751627	0.000730	7.297512	1.236232	0.000146
1768	1.7582e+02	-4.7995	-59.594179	0.000791	7.905638	1.339251	0.000158
1769	1.7592e+02	-4.7798	-59.456917	0.000689	6.892095	1.167553	0.000138
1770	1.7602e+02	-4.7606	-59.323691	0.000669	6.689386	1.133213	0.000134
1771	1.7612e+02	-4.7408	-59.178354	0.000730	7.297512	1.236232	0.000146
1772	1.7621e+02	-4.7213	-59.033017	0.000730	7.297512	1.236232	0.000146
1773	1.7631e+02	-4.7002	-58.875569	0.000791	7.905638	1.339251	0.000158
1774	1.7641e+02	-4.6811	-58.730232	0.000730	7.297512	1.236232	0.000146
1775	1.7651e+02	-4.6609	-58.641415	0.000446	4.459591	0.755475	0.000089
1776	1.7661e+02	-4.6421	-58.471855	0.000851	8.513764	1.442271	0.000170
1777	1.7671e+02	-4.6213	-58.318444	0.000770	7.702930	1.304912	0.000154
1778	1.7681e+02	-4.6010	-58.144847	0.000872	8.716473	1.476611	0.000174
1779	1.7691e+02	-4.5809	-58.027771	0.000588	5.878552	0.995854	0.000118
1780	1.7701e+02	-4.5616	-57.890508	0.000689	6.892095	1.167553	0.000138
1781	1.7711e+02	-4.5421	-57.716911	0.000872	8.716473	1.476611	0.000174
1782	1.7721e+02	-4.5210	-57.615983	0.000507	5.067717	0.858494	0.000101
1783	1.7731e+02	-4.5013	-57.434312	0.000912	9.121890	1.545290	0.000183
1784	1.7741e+02	-4.4814	-57.301086	0.000669	6.689386	1.133213	0.000134
1785	1.7751e+02	-4.4617	-57.127489	0.000872	8.716473	1.476611	0.000174
1786	1.7761e+02	-4.4409	-56.957930	0.000851	8.513764	1.442271	0.000170
1787	1.7771e+02	-4.4218	-56.836815	0.000608	6.081260	1.030193	0.000122
1788	1.7781e+02	-4.4017	-56.711664	0.000628	6.283969	1.064533	0.000126
1789	1.7791e+02	-4.3817	-56.542105	0.000851	8.513764	1.442271	0.000170
1790	1.7801e+02	-4.3616	-56.384656	0.000791	7.905638	1.339251	0.000158
1791	1.7810e+02	-4.3426	-56.255468	0.000649	6.486678	1.098873	0.000130
1792	1.7820e+02	-4.3219	-56.138391	0.000588	5.878552	0.995854	0.000118
1793	1.7830e+02	-4.3019	-55.964794	0.000872	8.716473	1.476611	0.000174
1794	1.7840e+02	-4.2821	-55.803309	0.000811	8.108347	1.373591	0.000162
1795	1.7850e+02	-4.2624	-55.645860	0.000791	7.905638	1.339251	0.000158
1796	1.7860e+02	-4.2419	-55.528784	0.000588	5.878552	0.995854	0.000118
1797	1.7870e+02	-4.2216	-55.351150	0.000892	8.919182	1.510950	0.000179
1798	1.7880e+02	-4.2025	-55.201776	0.000750	7.500221	1.270572	0.000150
1799	1.7890e+02	-4.1820	-55.068550	0.000669	6.689386	1.133213	0.000134
1800	1.7900e+02	-4.1626	-54.878805	0.000953	9.527308	1.613970	0.000191
1801	1.7910e+02	-4.1438	-54.777876	0.000507	5.067717	0.858494	0.000101
1802	1.7920e+02	-4.1237	-54.608317	0.000851	8.513764	1.442271	0.000170
1803	1.7930e+02	-4.1031	-54.446831	0.000811	8.108347	1.373591	0.000162
1804	1.7940e+02	-4.0829	-54.333791	0.000568	5.675843	0.961514	0.000114
1805	1.7950e+02	-4.0623	-54.156157	0.000892	8.919182	1.510950	0.000179
1806	1.7960e+02	-4.0431	-54.022932	0.000669	6.689386	1.133213	0.000134
1807	1.7970e+02	-4.0214	-53.841261	0.000912	9.121890	1.545290	0.000183
1808	1.7980e+02	-4.0030	-53.695924	0.000730	7.297512	1.236232	0.000146
1809	1.7990e+02	-3.9830	-53.562698	0.000669	6.689386	1.133213	0.000134
1810	1.8000e+02	-3.9643	-53.413324	0.000750	7.500221	1.270572	0.000150
1811	1.8009e+02	-3.9436	-53.259913	0.000770	7.702930	1.304912	0.000154
1812	1.8019e+02	-3.9233	-53.098428	0.000811	8.108347	1.373591	0.000162
1813	1.8029e+02	-3.9030	-52.985388	0.000568	5.675843	0.961514	0.000114
1814	1.8039e+02	-3.8834	-52.799680	0.000932	9.324599	1.579630	0.000187
1815	1.8049e+02	-3.8639	-52.678566	0.000608	6.081260	1.030193	0.000122
1816	1.8059e+02	-3.8437	-52.496895	0.000912	9.121890	1.545290	0.000183
1817	1.8069e+02	-3.8231	-52.347521	0.000750	7.500221	1.270572	0.000150
1818	1.8079e+02	-3.8030	-52.194109	0.000770	7.702930	1.304912	0.000154
1819	1.8089e+02	-3.7837	-52.060884	0.000669	6.689386	1.133213	0.000134
1820	1.8099e+02	-3.7643	-51.907473	0.000770	7.702930	1.304912	0.000154
1821	1.8109e+02	-3.7444	-51.762136	0.000730	7.297512	1.236232	0.000146
1822	1.8119e+02	-3.7241	-51.584502	0.000892	8.919182	1.510950	0.000179
1823	1.8129e+02	-3.7047	-51.467425	0.000588	5.878552	0.995854	0.000118
1824	1.8139e+02	-3.6851	-51.293828	0.000872	8.716473	1.476611	0.000174
1825	1.8149e+02	-3.6649	-51.144454	0.000750	7.500221	1.270572	0.000150
1826	1.8159e+02	-3.6443	-51.007191	0.000689	6.892095	1.167553	0.000138
1827	1.8169e+02	-3.6248	-50.841669	0.000831	8.311056	1.407931	0.000166
1828	1.8179e+02	-3.6050	-50.659998	0.000912	9.121890	1.545290	0.000183
1829	1.8189e+02	-3.5854	-50.502550	0.000791	7.905638	1.339251	0.000158
1830	1.8199e+02	-3.5646	-50.357213	0.000730	7.297512	1.236232	0.000146
1831	1.8209e+02	-3.5453	-50.207839	0.000750	7.500221	1.270572	0.000150
1832	1.8218e+02	-3.5255	-50.046353	0.000811	8.108347	1.373591	0.000162
1833	1.8228e+02	-3.5052	-49.832385	0.001074	10.743560	1.820008	0.000215
1834	1.8238e+02	-3.4859	-49.683011	0.000750	7.500221	1.270572	0.000150
1835	1.8248e+02	-3.4647	-49.549785	0.000669	6.689386	1.133213	0.000134
1836	1.8258e+02	-3.4462	-49.388300	0.000811	8.108347	1.373591	0.000162
1837	1.8268e+02	-3.4254	-49.230852	0.000791	7.905638	1.339251	0.000158
1838	1.8278e+02	-3.4048	-49.097626	0.000669	6.689386	1.133213	0.000134
1839	1.8288e+02	-3.3860	-48.915955	0.000912	9.121890	1.545290	0.000183
1840	1.8298e+02	-3.3664	-48.794841	0.000608	6.081260	1.030193	0.000122
1841	1.8308e+02	-3.3463	-48.609133	0.000932	9.324599	1.579630	0.000187
1842	1.8318e+02	-3.3267	-48.423425	0.000932	9.324599	1.579630	0.000187
1843	1.8328e+02	-3.3064	-48.290199	0.000669	6.689386	1.133213	0.000134
1844	1.8338e+02	-3.2862	-48.120639	0.000851	8.513764	1.442271	0.000170
1845	1.8348e+02	-3.2661	-47.930894	0.000953	9.527308	1.613970	0.000191
1846	1.8358e+02	-3.2465	-47.765371	0.000831	8.311056	1.407931	0.000166
1847	1.8368e+02	-3.2257	-47.640220	0.000628	6.283969	1.064533	0.000126
1848	1.8378e+02	-3.2066	-47.466623	0.000872	8.716473	1.476611	0.000174
1849	1.8388e+02	-3.1857	-47.309175	0.000791	7.905638	1.339251	0.000158
1850	1.8398e+02	-3.1670	-47.159801	0.000750	7.500221	1.270572	0.000150
1851	1.8407e+02	-3.1474	-46.986204	0.000872	8.716473	1.476611	0.000174
1852	1.8417e+02	-3.1270	-46.844905	0.000709	7.094804	1.201892	0.000142
1853	1.8427e+02	-3.1075	-46.667271	0.000892	8.919182	1.510950	0.000179
1854	1.8437e+02	-3.0872	-46.469451	0.000993	9.932725	1.682649	0.000199
1855	1.8447e+02	-3.0663	-46.332188	0.000689	6.892095	1.167553	0.000138
1856	1.8457e+02	-3.0472	-46.138406	0.000973	9.730017	1.648309	0.000195
1857	1.8467e+02	-3.0264	-46.013255	0.000628	6.283969	1.064533	0.000126
1858	1.8477e+02	-3.0075	-45.815435	0.000993	9.932725	1.682649	0.000199
1859	1.8487e+02	-2.9877	-45.645875	0.000851	8.513764	1.442271	0.000170
1860	1.8497e+02	-2.9672	-45.456130	0.000953	9.527308	1.613970	0.000191
1861	1.8507e+02	-2.9480	-45.339053	0.000588	5.878552	0.995854	0.000118
1862	1.8517e+02	-2.9279	-45.125085	0.001074	10.743560	1.820008	0.000215
1863	1.8527e+02	-2.9079	-44.995896	0.000649	6.486678	1.098873	0.000130
1864	1.8537e+02	-2.8871	-44.838448	0.000791	7.905638	1.339251	0.000158
1865	1.8547e+02	-2.8680	-44.632554	0.001034	10.338143	1.751329	0.000207
1866	1.8557e+02	-2.8477	-44.479143	0.000770	7.702930	1.304912	0.000154
1867	1.8567e+02	-2.8282	-44.309583	0.000851	8.513764	1.442271	0.000170
1868	1.8577e+02	-2.8085	-44.140024	0.000851	8.513764	1.442271	0.000170
1869	1.8587e+02	-2.7877	-43.998724	0.000709	7.094804	1.201892	0.000142
1870	1.8597e+02	-2.7689	-43.800904	0.000993	9.932725	1.682649	0.000199
1871	1.8606e+02	-2.7490	-43.671716	0.000649	6.486678	1.098873	0.000130
1872	1.8616e+02	-2.7277	-43.461785	0.001054	10.540851	1.785669	0.000211
1873	1.8626e+02	-2.7080	-43.324522	0.000689	6.892095	1.167553	0.000138
1874	1.8636e+02	-2.6880	-43.175148	0.000750	7.500221	1.270572	0.000150
1875	1.8646e+02	-2.6684	-43.001551	0.000872	8.716473	1.476611	0.000174
1876	1.8656e+02	-2.6497	-42.775472	0.001135	11.351686	1.923028	0.000227
1877	1.8666e+02	-2.6288	-42.662432	0.000568	5.675843	0.961514	0.000114
1878	1.8676e+02	-2.6080	-42.456538	0.001034	10.338143	1.751329	0.000207
1879	1.8686e+02	-2.5887	-42.327350	0.000649	6.486678	1.098873	0.000130
1880	1.8696e+02	-2.5700	-42.117419	0.001054	10.540851	1.785669	0.000211
1881	1.8706e+02	-2.5484	-41.972082	0.000730	7.297512	1.236232	0.000146
1882	1.8716e+02	-2.5291	-41.794448	0.000892	8.919182	1.510950	0.000179
1883	1.8726e+02	-2.5104	-41.616814	0.000892	8.919182	1.510950	0.000179
1884	1.8736e+02	-2.4902	-41.439180	0.000892	8.919182	1.510950	0.000179
1885	1.8746e+02	-2.4695	-41.289806	0.000750	7.500221	1.270572	0.000150
1886	1.8756e+02	-2.4496	-41.083912	0.001034	10.338143	1.751329	0.000207
1887	1.8766e+02	-2.4305	-40.922426	0.000811	8.108347	1.373591	0.000162
1888	1.8776e+02	-2.4100	-40.696347	0.001135	11.351686	1.923028	0.000227
1889	1.8786e+02	-2.3901	-40.563121	0.000669	6.689386	1.133213	0.000134
1890	1.8796e+02	-2.3708	-40.413747	0.000750	7.500221	1.270572	0.000150
1891	1.8806e+02	-2.3498	-40.199779	0.001074	10.743560	1.820008	0.000215
1892	1.8815e+02	-2.3299	-40.030219	0.000851	8.513764	1.442271	0.000170
1893	1.8825e+02	-2.3105	-39.856623	0.000872	8.716473	1.476611	0.000174
1894	1.8835e+02	-2.2911	-39.695137	0.000811	8.108347	1.373591	0.000162
1895	1.8845e+02	-2.2706	-39.497317	0.000993	9.932725	1.682649	0.000199
1896	1.8855e+02	-2.2514	-39.339869	0.000791	7.905638	1.339251	0.000158
1897	1.8865e+02	-2.2301	-39.142050	0.000993	9.932725	1.682649	0.000199
1898	1.8875e+02	-2.2108	-38.964416	0.000892	8.919182	1.510950	0.000179
1899	1.8885e+02	-2.1904	-38.802930	0.000811	8.108347	1.373591	0.000162
1900	1.8895e+02	-2.1703	-38.609148	0.000973	9.730017	1.648309	0.000195
1901	1.8905e+02	-2.1510	-38.455736	0.000770	7.702930	1.304912	0.000154
1902	1.8915e+02	-2.1307	-38.265991	0.000953	9.527308	1.613970	0.000191
1903	1.8925e+02	-2.1112	-38.088357	0.000892	8.919182	1.510950	0.000179
1904	1.8935e+02	-2.0914	-37.886500	0.001014	10.135434	1.716989	0.000203
1905	1.8945e+02	-2.0714	-37.684644	0.001014	10.135434	1.716989	0.000203
1906	1.8955e+02	-2.0513	-37.523158	0.000811	8.108347	1.373591	0.000162
1907	1.8965e+02	-2.0318	-37.329376	0.000973	9.730017	1.648309	0.000195
1908	1.8975e+02	-2.0112	-37.135593	0.000973	9.730017	1.648309	0.000195
1909	1.8985e+02	-1.9910	-36.970071	0.000831	8.311056	1.407931	0.000166
1910	1.8995e+02	-1.9717	-36.796474	0.000872	8.716473	1.476611	0.000174
1911	1.9004e+02	-1.9519	-36.618840	0.000892	8.919182	1.510950	0.000179
1912	1.9014e+02	-1.9315	-36.437169	0.000912	9.121890	1.545290	0.000183
1913	1.9024e+02	-1.9112	-36.275683	0.000811	8.108347	1.373591	0.000162
1914	1.9034e+02	-1.8926	-36.085938	0.000953	9.527308	1.613970	0.000191
1915	1.9044e+02	-1.8730	-35.884081	0.001014	10.135434	1.716989	0.000203
1916	1.9054e+02	-1.8513	-35.718558	0.000831	8.311056	1.407931	0.000166
1917	1.9064e+02	-1.8328	-35.540924	0.000892	8.919182	1.510950	0.000179
1918	1.9074e+02	-1.8121	-35.330993	0.001054	10.540851	1.785669	0.000211
1919	1.9084e+02	-1.7915	-35.161434	0.000851	8.513764	1.442271	0.000170
1920	1.9094e+02	-1.7719	-34.951503	0.001054	10.540851	1.785669	0.000211
1921	1.9104e+02	-1.7520	-34.790017	0.000811	8.108347	1.373591	0.000162
1922	1.9114e+02	-1.7335	-34.648717	0.000709	7.094804	1.201892	0.000142
1923	1.9124e+02	-1.7131	-34.390341	0.001297	12.973355	2.197746	0.000260
1924	1.9134e+02	-1.6920	-34.236930	0.000770	7.702930	1.304912	0.000154
1925	1.9144e+02	-1.6716	-34.071407	0.000831	8.311056	1.407931	0.000166
1926	1.9154e+02	-1.6532	-33.885699	0.000932	9.324599	1.579630	0.000187
1927	1.9164e+02	-1.6325	-33.720176	0.000831	8.311056	1.407931	0.000166
1928	1.9174e+02	-1.6129	-33.494097	0.001135	11.351686	1.923028	0.000227
1929	1.9184e+02	-1.5935	-33.316463	0.000892	8.919182	1.510950	0.000179
1930	1.9194e+02	-1.5737	-33.134792	0.000912	9.121890	1.545290	0.000183
1931	1.9203e+02	-1.5532	-32.969269	0.000831	8.311056	1.407931	0.000166
1932	1.9213e+02	-1.5332	-32.755301	0.001074	10.743560	1.820008	0.000215
1933	1.9223e+02	-1.5134	-32.581704	0.000872	8.716473	1.476611	0.000174
1934	1.9233e+02	-1.4934	-32.367736	0.001074	10.743560	1.820008	0.000215
1935	1.9243e+02	-1.4732	-32.214325	0.000770	7.702930	1.304912	0.000154
1936	1.9253e+02	-1.4528	-31.996319	0.001095	10.946269	1.854348	0.000219
1937	1.9263e+02	-1.4342	-31.834834	0.000811	8.108347	1.373591	0.000162
1938	1.9273e+02	-1.4140	-31.645088	0.000953	9.527308	1.613970	0.000191
1939	1.9283e+02	-1.3937	-31.435157	0.001054	10.540851	1.785669	0.000211
1940	1.9293e+02	-1.3737	-31.253486	0.000912	9.121890	1.545290	0.000183
1941	1.9303e+02	-1.3539	-31.067778	0.000932	9.324599	1.579630	0.000187
1942	1.9313e+02	-1.3340	-30.914367	0.000770	7.702930	1.304912	0.000154
1943	1.9323e+02	-1.3140	-30.692324	0.001115	11.148977	1.888688	0.000223
1944	1.9333e+02	-1.2948	-30.498542	0.000973	9.730017	1.648309	0.000195
1945	1.9343e+02	-1.2748	-30.349168	0.000750	7.500221	1.270572	0.000150
1946	1.9353e+02	-1.2547	-30.110977	0.001196	11.959812	2.026047	0.000239
1947	1.9363e+02	-1.2349	-29.965640	0.000730	7.297512	1.236232	0.000146
1948	1.9373e+02	-1.2146	-29.759746	0.001034	10.338143	1.751329	0.000207
1949	1.9383e+02	-1.1951	-29.557889	0.001014	10.135434	1.716989	0.000203
1950	1.9393e+02	-1.1749	-29.380255	0.000892	8.919182	1.510950	0.000179
1951	1.9403e+02	-1.1557	-29.178399	0.001014	10.135434	1.716989	0.000203
1952	1.9412e+02	-1.1349	-29.000765	0.000892	8.919182	1.510950	0.000179
1953	1.9422e+02	-1.1147	-28.819093	0.000912	9.121890	1.545290	0.000183
1954	1.9432e+02	-1.0954	-28.593014	0.001135	11.351686	1.923028	0.000227
1955	1.9442e+02	-1.0750	-28.411343	0.000912	9.121890	1.545290	0.000183
1956	1.9452e+02	-1.0558	-28.201412	0.001054	10.540851	1.785669	0.000211
1957	1.9462e+02	-1.0355	-28.023778	0.000892	8.919182	1.510950	0.000179
1958	1.9472e+02	-1.0157	-27.829995	0.000973	9.730017	1.648309	0.000195
1959	1.9482e+02	-0.9956	-27.648324	0.000912	9.121890	1.545290	0.000183
1960	1.9492e+02	-0.9755	-27.438393	0.001054	10.540851	1.785669	0.000211
1961	1.9502e+02	-0.9557	-27.256722	0.000912	9.121890	1.545290	0.000183
1962	1.9512e+02	-0.9356	-27.030642	0.001135	11.351686	1.923028	0.000227
1963	1.9522e+02	-0.9158	-26.812637	0.001095	10.946269	1.854348	0.000219
1964	1.9532e+02	-0.8954	-26.699597	0.000568	5.675843	0.961514	0.000114
1965	1.9542e+02	-0.8762	-26.489666	0.001054	10.540851	1.785669	0.000211
1966	1.9552e+02	-0.8562	-26.267624	0.001115	11.148977	1.888688	0.000223
1967	1.9562e+02	-0.8360	-26.106138	0.000811	8.108347	1.373591	0.000162
1968	1.9572e+02	-0.8170	-25.876022	0.001155	11.554395	1.957367	0.000231
1969	1.9582e+02	-0.7951	-25.678202	0.000993	9.932725	1.682649	0.000199
1970	1.9592e+02	-0.7771	-25.496531	0.000912	9.121890	1.545290	0.000183
1971	1.9601e+02	-0.7566	-25.331008	0.000831	8.311056	1.407931	0.000166
1972	1.9611e+02	-0.7365	-25.129151	0.001014	10.135434	1.716989	0.000203
1973	1.9621e+02	-0.7156	-24.947480	0.000912	9.121890	1.545290	0.000183
1974	1.9631e+02	-0.6964	-24.745624	0.001014	10.135434	1.716989	0.000203
1975	1.9641e+02	-0.6769	-24.555878	0.000953	9.527308	1.613970	0.000191
1976	1.9651e+02	-0.6570	-24.374207	0.000912	9.121890	1.545290	0.000183
1977	1.9661e+02	-0.6372	-24.164276	0.001054	10.540851	1.785669	0.000211
1978	1.9671e+02	-0.6171	-23.966456	0.000993	9.932725	1.682649	0.000199
1979	1.9681e+02	-0.5972	-23.776711	0.000953	9.527308	1.613970	0.000191
1980	1.9691e+02	-0.5770	-23.607151	0.000851	8.513764	1.442271	0.000170
1981	1.9701e+02	-0.5566	-23.389146	0.001095	10.946269	1.854348	0.000219
1982	1.9711e+02	-0.5378	-23.255920	0.000669	6.689386	1.133213	0.000134
1983	1.9721e+02	-0.5168	-22.969284	0.001439	14.392316	2.438124	0.000288
1984	1.9731e+02	-0.4972	-22.787613	0.000912	9.121890	1.545290	0.000183
1985	1.9741e+02	-0.4777	-22.622090	0.000831	8.311056	1.407931	0.000166
1986	1.9751e+02	-0.4567	-22.440419	0.000912	9.121890	1.545290	0.000183
1987	1.9761e+02	-0.4364	-22.258748	0.000912	9.121890	1.545290	0.000183
1988	1.9771e+02	-0.4177	-22.040743	0.001095	10.946269	1.854348	0.000219
1989	1.9781e+02	-0.3978	-21.863109	0.000892	8.919182	1.510950	0.000179
1990	1.9791e+02	-0.3771	-21.669326	0.000973	9.730017	1.648309	0.000195
1991	1.9800e+02	-0.3584	-21.491692	0.000892	8.919182	1.510950	0.000179
1992	1.9810e+02	-0.3378	-21.289835	0.001014	10.135434	1.716989	0.000203
1993	1.9820e+02	-0.3183	-21.083941	0.001034	10.338143	1.751329	0.000207
1994	1.9830e+02	-0.2979	-20.878047	0.001034	10.338143	1.751329	0.000207
1995	1.9840e+02	-0.2784	-20.696376	0.000912	9.121890	1.545290	0.000183
1996	1.9850e+02	-0.2577	-20.502594	0.000973	9.730017	1.648309	0.000195
1997	1.9860e+02	-0.2391	-20.312848	0.000953	9.527308	1.613970	0.000191
1998	1.9870e+02	-0.2187	-20.086769	0.001135	11.351686	1.923028	0.000227
1999	1.9880e+02	-0.1980	-19.880875	0.001034	10.338143	1.751329	0.000207
2000	1.9890e+02	-0.1788	-19.695167	0.000932	9.324599	1.579630	0.000187
2001	1.9900e+02	-0.1580	-19.521570	0.000872	8.716473	1.476611	0.000174
2002	1.9910e+02	-0.1387	-19.335862	0.000932	9.324599	1.579630	0.000187
2003	1.9920e+02	-0.1189	-19.117856	0.001095	10.946269	1.854348	0.000219
2004	1.9930e+02	-0.0994	-18.928111	0.000953	9.527308	1.613970	0.000191
2005	1.9940e+02	-0.0790	-18.730291	0.000993	9.932725	1.682649	0.000199
2006	1.9950e+02	-0.0588	-18.552657	0.000892	8.919182	1.510950	0.000179
2007	1.9960e+02	-0.0389	-18.318503	0.001176	11.757103	1.991707	0.000235
2008	1.9970e+02	-0.0191	-18.136832	0.000912	9.121890	1.545290	0.000183
2009	1.9980e+02	0.0000	-17.918827	0.000912	9.121890	1.545290	0.000219

Smooth data before PMax, +/-Pr and +/-Vc Calc.

PMax (uC/cm2):	8.58e+01
Pr (uC/cm2):	2.08e+01
-Pr (uC/cm2):	-1.61e+01
PLoss (uC/cm2):	-1.61e+01
-Vc:	-2.12e+00
C (Max-Eff) (nF):	8.59e-01
K (Eff):	1.45e+03
Vert. (+/-Pr) Shift (uC/cm2):	2.33e+00
Offset (uC/cm2):	1.88e+00

A (Loop Area - uC/cm2·Volts):	-3.04e-02



Hysteresis Version: 5.48.1 - Radiant Technologies, Inc., 1999 - 9/12/24

