»»»»»»»»»»»»»»»»»»»»»»»»»»»»»»»»»»»» Hysteresis ««««««««««««««««««««««««««««««««««««
»»»  Executed Version:	5.48.1
»»»  Vision Version:	5.48.4 (R)
»»»  Vision Compiled:	9/18/24
»»»  Driver Version:	5.47.0
»»»  Windows Version:	Windows 8 or 8.1
»»»  Processor Information:	x86 (AMD or Intel) - 32 Processors
»»»  Tester Name:	PMF21124-494 (100V)
»»»  Tester S/N:	PMF21124-494
»»»  Internal Amp Type:	100V RevK 270k
»»»  Internal Amp S/N:	iAB2-596/K     
»»»  Execution Count:	1
»»»»»»»»»»»»»»»»»»»»»»»»»»»»»»»»»»»»»»»»»»««««««««««««««««««««««««««««««««««««««««««

Stored:	7/8/2025 - 16:55:9
Configured:	07/08/25 02:50:47 PM
Executed:	07/08/25 04:54:39 PM

»»»»»»»»»»»»»»»»»»»»»»»»»»»»»»»»»»» Sample Info ««««««««««««««««««««««««««««««««««««
Sample Name:	
Lot Name:	
Wafer Name:	
Die Row/Column:	0/0
Capacitor Number:	0
Sample Area (cm2):	1.00e-04
Sample Thickness (microns):	1.50e-01

Amplifier:	Internal

»»»»»»»»»»»»»»»»»»»»»»»»»»»»»»»»»»» Tester Info «««««««««««««««««««««««««««««««««««
Tester Name:	PMF21124-494 (100V)
Tester Serial Number:	PMF21124-494
Return Signal Amp. Level:	0.19 [Index: 3]

»»»»»»»»»»»»»»»»»»»»»»»»»»»»»»»» Hysteresis Info ««««««««««««««««««««««««««««««««««
Task Name:	Hyst-724
Volts:	10.00
Field:	666.67 (kV/cm)
DCBias:	0.00
DCField:	0.00 (kV/cm)
Hysteresis Period (ms):	2.00e+02
Preset:	Enabled
Preset Delay (ms):	1.00e+03
Profile:	Standard Bipolar

»»»»»»»»»»»»»»»»»»»»»»»»»»»»»»»»»»»»»» Data «««««««««««««««««««««««««««««««««««««««
Points:	2009

Valid Data

Point	Time (ms)	Drive Voltage	Measured Polarization (uC/cm2)	Capacitance (uF)	Normalized Capacitance (uF/cm2)	Dielectric Constant	Instantaneous Current (mA)
   1	0.0000e+00	0.0002	9.658847	0.000709	7.094587	1.201856	0.000142
   2	9.9500e-02	0.0185	9.800147	0.000709	7.094587	1.201856	0.000142
   3	1.9900e-01	0.0391	9.925298	0.000628	6.283777	1.064501	0.000126
   4	2.9850e-01	0.0587	10.034301	0.000547	5.472967	0.927146	0.000110
   5	3.9800e-01	0.0784	10.187712	0.000770	7.702695	1.304872	0.000154
   6	4.9750e-01	0.0988	10.288640	0.000507	5.067562	0.858468	0.000101
   7	5.9700e-01	0.1187	10.421866	0.000669	6.689182	1.133178	0.000134
   8	6.9650e-01	0.1383	10.563166	0.000709	7.094587	1.201856	0.000142
   9	7.9600e-01	0.1586	10.684280	0.000608	6.081075	1.030162	0.000122
  10	8.9550e-01	0.1786	10.781171	0.000486	4.864860	0.824130	0.000097
  11	9.9500e-01	0.1975	10.954768	0.000872	8.716207	1.476565	0.000174
  12	1.0945e+00	0.2180	11.087993	0.000669	6.689182	1.133178	0.000134
  13	1.1940e+00	0.2380	11.184885	0.000486	4.864860	0.824130	0.000097
  14	1.2935e+00	0.2569	11.378667	0.000973	9.729720	1.648259	0.000195
  15	1.3930e+00	0.2789	11.475558	0.000486	4.864860	0.824130	0.000097
  16	1.4925e+00	0.2976	11.596672	0.000608	6.081075	1.030162	0.000122
  17	1.5920e+00	0.3169	11.737972	0.000709	7.094587	1.201856	0.000142
  18	1.6915e+00	0.3388	11.834863	0.000486	4.864860	0.824130	0.000097
  19	1.7910e+00	0.3583	12.008460	0.000872	8.716207	1.476565	0.000174
  20	1.8905e+00	0.3779	12.133611	0.000628	6.283777	1.064501	0.000126
  21	1.9900e+00	0.3972	12.287023	0.000770	7.702695	1.304872	0.000154
  22	2.0895e+00	0.4177	12.400062	0.000568	5.675670	0.961484	0.000114
  23	2.1890e+00	0.4372	12.521176	0.000608	6.081075	1.030162	0.000122
  24	2.2885e+00	0.4574	12.650365	0.000649	6.486480	1.098839	0.000130
  25	2.3880e+00	0.4779	12.787627	0.000689	6.891885	1.167517	0.000138
  26	2.4875e+00	0.4973	12.916816	0.000649	6.486480	1.098839	0.000130
  27	2.5870e+00	0.5166	13.070227	0.000770	7.702695	1.304872	0.000154
  28	2.6865e+00	0.5364	13.191341	0.000608	6.081075	1.030162	0.000122
  29	2.7860e+00	0.5563	13.328604	0.000689	6.891885	1.167517	0.000138
  30	2.8855e+00	0.5775	13.461829	0.000669	6.689182	1.133178	0.000134
  31	2.9850e+00	0.5962	13.591017	0.000649	6.486480	1.098839	0.000130
  32	3.0845e+00	0.6168	13.760577	0.000851	8.513505	1.442227	0.000170
  33	3.1840e+00	0.6358	13.857468	0.000486	4.864860	0.824130	0.000097
  34	3.2835e+00	0.6561	14.031065	0.000872	8.716207	1.476565	0.000174
  35	3.3830e+00	0.6764	14.160254	0.000649	6.486480	1.098839	0.000130
  36	3.4825e+00	0.6963	14.277331	0.000588	5.878372	0.995823	0.000118
  37	3.5820e+00	0.7168	14.406519	0.000649	6.486480	1.098839	0.000130
  38	3.6815e+00	0.7359	14.531670	0.000628	6.283777	1.064501	0.000126
  39	3.7810e+00	0.7559	14.672970	0.000709	7.094587	1.201856	0.000142
  40	3.8805e+00	0.7765	14.802158	0.000649	6.486480	1.098839	0.000130
  41	3.9800e+00	0.7962	14.947495	0.000730	7.297290	1.236194	0.000146
  42	4.0795e+00	0.8167	15.092832	0.000730	7.297290	1.236194	0.000146
  43	4.1790e+00	0.8353	15.193760	0.000507	5.067562	0.858468	0.000101
  44	4.2785e+00	0.8561	15.391580	0.000993	9.932422	1.682598	0.000199
  45	4.3780e+00	0.8759	15.504620	0.000568	5.675670	0.961484	0.000114
  46	4.4775e+00	0.8952	15.653994	0.000750	7.499992	1.270533	0.000150
  47	4.5770e+00	0.9152	15.783182	0.000649	6.486480	1.098839	0.000130
  48	4.6765e+00	0.9361	15.956779	0.000872	8.716207	1.476565	0.000174
  49	4.7760e+00	0.9555	16.098079	0.000709	7.094587	1.201856	0.000142
  50	4.8755e+00	0.9759	16.231304	0.000669	6.689182	1.133178	0.000134
  51	4.9750e+00	0.9947	16.364530	0.000669	6.689182	1.133178	0.000134
  52	5.0745e+00	1.0151	16.501792	0.000689	6.891885	1.167517	0.000138
  53	5.1740e+00	1.0355	16.639055	0.000689	6.891885	1.167517	0.000138
  54	5.2735e+00	1.0550	16.800540	0.000811	8.108100	1.373549	0.000162
  55	5.3730e+00	1.0753	16.901469	0.000507	5.067562	0.858468	0.000101
  56	5.4725e+00	1.0955	17.038731	0.000689	6.891885	1.167517	0.000138
  57	5.5720e+00	1.1147	17.180031	0.000709	7.094587	1.201856	0.000142
  58	5.6715e+00	1.1349	17.325368	0.000730	7.297290	1.236194	0.000146
  59	5.7710e+00	1.1552	17.462631	0.000689	6.891885	1.167517	0.000138
  60	5.8705e+00	1.1752	17.591819	0.000649	6.486480	1.098839	0.000130
  61	5.9700e+00	1.1948	17.749267	0.000791	7.905397	1.339211	0.000158
  62	6.0695e+00	1.2148	17.846159	0.000486	4.864860	0.824130	0.000097
  63	6.1690e+00	1.2344	18.031867	0.000932	9.324315	1.579582	0.000187
  64	6.2685e+00	1.2550	18.152981	0.000608	6.081075	1.030162	0.000122
  65	6.3680e+00	1.2744	18.282169	0.000649	6.486480	1.098839	0.000130
  66	6.4675e+00	1.2936	18.451729	0.000851	8.513505	1.442227	0.000170
  67	6.5670e+00	1.3144	18.576880	0.000628	6.283777	1.064501	0.000126
  68	6.6665e+00	1.3339	18.693957	0.000588	5.878372	0.995823	0.000118
  69	6.7660e+00	1.3537	18.855442	0.000811	8.108100	1.373549	0.000162
  70	6.8655e+00	1.3734	19.012891	0.000791	7.905397	1.339211	0.000158
  71	6.9650e+00	1.3927	19.065374	0.000264	2.635132	0.446404	0.000053
  72	7.0645e+00	1.4130	19.234933	0.000851	8.513505	1.442227	0.000170
  73	7.1640e+00	1.4330	19.392382	0.000791	7.905397	1.339211	0.000158
  74	7.2635e+00	1.4537	19.521570	0.000649	6.486480	1.098839	0.000130
  75	7.3630e+00	1.4735	19.654795	0.000669	6.689182	1.133178	0.000134
  76	7.4625e+00	1.4927	19.804169	0.000750	7.499992	1.270533	0.000150
  77	7.5620e+00	1.5129	19.937395	0.000669	6.689182	1.133178	0.000134
  78	7.6615e+00	1.5326	20.086769	0.000750	7.499992	1.270533	0.000150
  79	7.7610e+00	1.5527	20.232106	0.000730	7.297290	1.236194	0.000146
  80	7.8605e+00	1.5730	20.361294	0.000649	6.486480	1.098839	0.000130
  81	7.9600e+00	1.5923	20.526817	0.000831	8.310802	1.407888	0.000166
  82	8.0595e+00	1.6116	20.656005	0.000649	6.486480	1.098839	0.000130
  83	8.1590e+00	1.6321	20.765008	0.000547	5.472967	0.927146	0.000110
  84	8.2585e+00	1.6514	20.946679	0.000912	9.121612	1.545243	0.000183
  85	8.3580e+00	1.6724	21.079904	0.000669	6.689182	1.133178	0.000134
  86	8.4575e+00	1.6936	21.196981	0.000588	5.878372	0.995823	0.000118
  87	8.5570e+00	1.7126	21.374615	0.000892	8.918910	1.510904	0.000179
  88	8.6565e+00	1.7319	21.455358	0.000405	4.054050	0.686775	0.000081
  89	8.7560e+00	1.7511	21.632992	0.000892	8.918910	1.510904	0.000179
  90	8.8555e+00	1.7725	21.741995	0.000547	5.472967	0.927146	0.000110
  91	8.9550e+00	1.7903	21.887331	0.000730	7.297290	1.236194	0.000146
  92	9.0545e+00	1.8128	22.044780	0.000791	7.905397	1.339211	0.000158
  93	9.1540e+00	1.8319	22.186079	0.000709	7.094587	1.201856	0.000142
  94	9.2535e+00	1.8519	22.311231	0.000628	6.283777	1.064501	0.000126
  95	9.3530e+00	1.8719	22.456568	0.000730	7.297290	1.236194	0.000146
  96	9.4525e+00	1.8921	22.605942	0.000750	7.499992	1.270533	0.000150
  97	9.5520e+00	1.9112	22.718981	0.000568	5.675670	0.961484	0.000114
  98	9.6515e+00	1.9308	22.852207	0.000669	6.689182	1.133178	0.000134
  99	9.7510e+00	1.9515	23.029841	0.000892	8.918910	1.510904	0.000179
 100	9.8505e+00	1.9715	23.150955	0.000608	6.081075	1.030162	0.000122
 101	9.9500e+00	1.9913	23.316477	0.000831	8.310802	1.407888	0.000166
 102	1.0050e+01	2.0116	23.445666	0.000649	6.486480	1.098839	0.000130
 103	1.0149e+01	2.0302	23.586966	0.000709	7.094587	1.201856	0.000142
 104	1.0248e+01	2.0511	23.704042	0.000588	5.878372	0.995823	0.000118
 105	1.0348e+01	2.0710	23.841305	0.000689	6.891885	1.167517	0.000138
 106	1.0447e+01	2.0915	23.998753	0.000791	7.905397	1.339211	0.000158
 107	1.0547e+01	2.1108	24.152165	0.000770	7.702695	1.304872	0.000154
 108	1.0646e+01	2.1302	24.293464	0.000709	7.094587	1.201856	0.000142
 109	1.0746e+01	2.1512	24.394393	0.000507	5.067562	0.858468	0.000101
 110	1.0845e+01	2.1708	24.592212	0.000993	9.932422	1.682598	0.000199
 111	1.0945e+01	2.1911	24.709289	0.000588	5.878372	0.995823	0.000118
 112	1.1044e+01	2.2102	24.870775	0.000811	8.108100	1.373549	0.000162
 113	1.1144e+01	2.2303	24.991889	0.000608	6.081075	1.030162	0.000122
 114	1.1243e+01	2.2500	25.153374	0.000811	8.108100	1.373549	0.000162
 115	1.1343e+01	2.2705	25.282563	0.000649	6.486480	1.098839	0.000130
 116	1.1443e+01	2.2903	25.375417	0.000466	4.662157	0.789791	0.000093
 117	1.1542e+01	2.3100	25.528828	0.000770	7.702695	1.304872	0.000154
 118	1.1642e+01	2.3302	25.678202	0.000750	7.499992	1.270533	0.000150
 119	1.1741e+01	2.3496	25.831613	0.000770	7.702695	1.304872	0.000154
 120	1.1841e+01	2.3695	25.948690	0.000588	5.878372	0.995823	0.000118
 121	1.1940e+01	2.3895	26.110175	0.000811	8.108100	1.373549	0.000162
 122	1.2040e+01	2.4099	26.231289	0.000608	6.081075	1.030162	0.000122
 123	1.2139e+01	2.4297	26.340292	0.000547	5.472967	0.927146	0.000110
 124	1.2239e+01	2.4496	26.505815	0.000831	8.310802	1.407888	0.000166
 125	1.2338e+01	2.4689	26.647114	0.000709	7.094587	1.201856	0.000142
 126	1.2438e+01	2.4899	26.804563	0.000791	7.905397	1.339211	0.000158
 127	1.2537e+01	2.5087	26.897417	0.000466	4.662157	0.789791	0.000093
 128	1.2636e+01	2.5288	27.038717	0.000709	7.094587	1.201856	0.000142
 129	1.2736e+01	2.5494	27.167905	0.000649	6.486480	1.098839	0.000130
 130	1.2835e+01	2.5681	27.333428	0.000831	8.310802	1.407888	0.000166
 131	1.2935e+01	2.5886	27.430319	0.000486	4.864860	0.824130	0.000097
 132	1.3034e+01	2.6088	27.640250	0.001054	10.540529	1.785614	0.000211
 133	1.3134e+01	2.6297	27.737141	0.000486	4.864860	0.824130	0.000097
 134	1.3233e+01	2.6485	27.842107	0.000527	5.270265	0.892807	0.000105
 135	1.3333e+01	2.6691	28.011666	0.000851	8.513505	1.442227	0.000170
 136	1.3432e+01	2.6872	28.161040	0.000750	7.499992	1.270533	0.000150
 137	1.3532e+01	2.7079	28.298303	0.000689	6.891885	1.167517	0.000138
 138	1.3632e+01	2.7283	28.439603	0.000709	7.094587	1.201856	0.000142
 139	1.3731e+01	2.7490	28.564754	0.000628	6.283777	1.064501	0.000126
 140	1.3831e+01	2.7692	28.681831	0.000588	5.878372	0.995823	0.000118
 141	1.3930e+01	2.7885	28.843316	0.000811	8.108100	1.373549	0.000162
 142	1.4030e+01	2.8083	28.932133	0.000446	4.459455	0.755452	0.000089
 143	1.4129e+01	2.8274	29.117842	0.000932	9.324315	1.579582	0.000187
 144	1.4229e+01	2.8476	29.263178	0.000730	7.297290	1.236194	0.000146
 145	1.4328e+01	2.8686	29.404478	0.000709	7.094587	1.201856	0.000142
 146	1.4428e+01	2.8873	29.541741	0.000689	6.891885	1.167517	0.000138
 147	1.4527e+01	2.9073	29.658818	0.000588	5.878372	0.995823	0.000118
 148	1.4627e+01	2.9271	29.832415	0.000872	8.716207	1.476565	0.000174
 149	1.4726e+01	2.9473	29.965640	0.000669	6.689182	1.133178	0.000134
 150	1.4825e+01	2.9675	30.082717	0.000588	5.878372	0.995823	0.000118
 151	1.4925e+01	2.9868	30.211905	0.000649	6.486480	1.098839	0.000130
 152	1.5024e+01	3.0082	30.349168	0.000689	6.891885	1.167517	0.000138
 153	1.5124e+01	3.0274	30.482393	0.000669	6.689182	1.133178	0.000134
 154	1.5223e+01	3.0466	30.672139	0.000953	9.527017	1.613920	0.000191
 155	1.5323e+01	3.0666	30.781141	0.000547	5.472967	0.927146	0.000110
 156	1.5422e+01	3.0872	30.938590	0.000791	7.905397	1.339211	0.000158
 157	1.5522e+01	3.1073	31.079889	0.000709	7.094587	1.201856	0.000142
 158	1.5621e+01	3.1258	31.217152	0.000689	6.891885	1.167517	0.000138
 159	1.5721e+01	3.1475	31.326155	0.000547	5.472967	0.927146	0.000110
 160	1.5820e+01	3.1669	31.467455	0.000709	7.094587	1.201856	0.000142
 161	1.5920e+01	3.1870	31.580494	0.000568	5.675670	0.961484	0.000114
 162	1.6020e+01	3.2058	31.754091	0.000872	8.716207	1.476565	0.000174
 163	1.6119e+01	3.2269	31.871168	0.000588	5.878372	0.995823	0.000118
 164	1.6218e+01	3.2458	32.000356	0.000649	6.486480	1.098839	0.000130
 165	1.6318e+01	3.2653	32.153768	0.000770	7.702695	1.304872	0.000154
 166	1.6418e+01	3.2858	32.246622	0.000466	4.662157	0.789791	0.000093
 167	1.6517e+01	3.3060	32.412144	0.000831	8.310802	1.407888	0.000166
 168	1.6616e+01	3.3253	32.537295	0.000628	6.283777	1.064501	0.000126
 169	1.6716e+01	3.3456	32.678595	0.000709	7.094587	1.201856	0.000142
 170	1.6816e+01	3.3660	32.803746	0.000628	6.283777	1.064501	0.000126
 171	1.6915e+01	3.3854	32.969269	0.000831	8.310802	1.407888	0.000166
 172	1.7015e+01	3.4053	33.110569	0.000709	7.094587	1.201856	0.000142
 173	1.7114e+01	3.4251	33.243794	0.000669	6.689182	1.133178	0.000134
 174	1.7213e+01	3.4449	33.368945	0.000628	6.283777	1.064501	0.000126
 175	1.7313e+01	3.4653	33.506208	0.000689	6.891885	1.167517	0.000138
 176	1.7413e+01	3.4846	33.627322	0.000608	6.081075	1.030162	0.000122
 177	1.7512e+01	3.5055	33.756510	0.000649	6.486480	1.098839	0.000130
 178	1.7611e+01	3.5256	33.853402	0.000486	4.864860	0.824130	0.000097
 179	1.7711e+01	3.5455	34.014887	0.000811	8.108100	1.373549	0.000162
 180	1.7811e+01	3.5651	34.115816	0.000507	5.067562	0.858468	0.000101
 181	1.7910e+01	3.5845	34.301524	0.000932	9.324315	1.579582	0.000187
 182	1.8009e+01	3.6047	34.414564	0.000568	5.675670	0.961484	0.000114
 183	1.8109e+01	3.6253	34.523566	0.000547	5.472967	0.927146	0.000110
 184	1.8209e+01	3.6449	34.668903	0.000730	7.297290	1.236194	0.000146
 185	1.8308e+01	3.6652	34.842500	0.000872	8.716207	1.476565	0.000174
 186	1.8407e+01	3.6845	34.955540	0.000568	5.675670	0.961484	0.000114
 187	1.8507e+01	3.7044	35.052431	0.000486	4.864860	0.824130	0.000097
 188	1.8607e+01	3.7248	35.189694	0.000689	6.891885	1.167517	0.000138
 189	1.8706e+01	3.7434	35.367328	0.000892	8.918910	1.510904	0.000179
 190	1.8805e+01	3.7652	35.496516	0.000649	6.486480	1.098839	0.000130
 191	1.8905e+01	3.7843	35.621667	0.000628	6.283777	1.064501	0.000126
 192	1.9005e+01	3.8032	35.742781	0.000608	6.081075	1.030162	0.000122
 193	1.9104e+01	3.8250	35.863895	0.000608	6.081075	1.030162	0.000122
 194	1.9203e+01	3.8432	36.009232	0.000730	7.297290	1.236194	0.000146
 195	1.9303e+01	3.8634	36.102086	0.000466	4.662157	0.789791	0.000093
 196	1.9402e+01	3.8836	36.243386	0.000709	7.094587	1.201856	0.000142
 197	1.9502e+01	3.9038	36.372574	0.000649	6.486480	1.098839	0.000130
 198	1.9602e+01	3.9231	36.517911	0.000730	7.297290	1.236194	0.000146
 199	1.9701e+01	3.9442	36.639025	0.000608	6.081075	1.030162	0.000122
 200	1.9800e+01	3.9632	36.772251	0.000669	6.689182	1.133178	0.000134
 201	1.9900e+01	3.9835	36.909513	0.000689	6.891885	1.167517	0.000138
 202	2.0000e+01	4.0032	37.034665	0.000628	6.283777	1.064501	0.000126
 203	2.0099e+01	4.0234	37.147704	0.000568	5.675670	0.961484	0.000114
 204	2.0198e+01	4.0417	37.297079	0.000750	7.499992	1.270533	0.000150
 205	2.0298e+01	4.0627	37.434341	0.000689	6.891885	1.167517	0.000138
 206	2.0398e+01	4.0825	37.555455	0.000608	6.081075	1.030162	0.000122
 207	2.0497e+01	4.1029	37.664458	0.000547	5.472967	0.927146	0.000110
 208	2.0596e+01	4.1231	37.805758	0.000709	7.094587	1.201856	0.000142
 209	2.0696e+01	4.1429	37.922835	0.000588	5.878372	0.995823	0.000118
 210	2.0796e+01	4.1629	38.092394	0.000851	8.513505	1.442227	0.000170
 211	2.0895e+01	4.1817	38.213508	0.000608	6.081075	1.030162	0.000122
 212	2.0994e+01	4.2023	38.322511	0.000547	5.472967	0.927146	0.000110
 213	2.1094e+01	4.2225	38.451699	0.000649	6.486480	1.098839	0.000130
 214	2.1194e+01	4.2416	38.584925	0.000669	6.689182	1.133178	0.000134
 215	2.1293e+01	4.2622	38.685853	0.000507	5.067562	0.858468	0.000101
 216	2.1392e+01	4.2825	38.867524	0.000912	9.121612	1.545243	0.000183
 217	2.1492e+01	4.3020	38.996713	0.000649	6.486480	1.098839	0.000130
 218	2.1591e+01	4.3222	39.085530	0.000446	4.459455	0.755452	0.000089
 219	2.1691e+01	4.3419	39.214718	0.000649	6.486480	1.098839	0.000130
 220	2.1791e+01	4.3633	39.372166	0.000791	7.905397	1.339211	0.000158
 221	2.1890e+01	4.3819	39.465020	0.000466	4.662157	0.789791	0.000093
 222	2.1989e+01	4.4012	39.582097	0.000588	5.878372	0.995823	0.000118
 223	2.2089e+01	4.4176	39.731471	0.000750	7.499992	1.270533	0.000150
 224	2.2189e+01	4.4418	39.868734	0.000689	6.891885	1.167517	0.000138
 225	2.2288e+01	4.4605	39.993885	0.000628	6.283777	1.064501	0.000126
 226	2.2387e+01	4.4817	40.123074	0.000649	6.486480	1.098839	0.000130
 227	2.2487e+01	4.5013	40.228039	0.000527	5.270265	0.892807	0.000105
 228	2.2587e+01	4.5217	40.320893	0.000466	4.662157	0.789791	0.000093
 229	2.2686e+01	4.5420	40.462193	0.000709	7.094587	1.201856	0.000142
 230	2.2785e+01	4.5612	40.595418	0.000669	6.689182	1.133178	0.000134
 231	2.2885e+01	4.5812	40.720570	0.000628	6.283777	1.064501	0.000126
 232	2.2985e+01	4.6005	40.853795	0.000669	6.689182	1.133178	0.000134
 233	2.3084e+01	4.6219	40.991058	0.000689	6.891885	1.167517	0.000138
 234	2.3183e+01	4.6415	41.091986	0.000507	5.067562	0.858468	0.000101
 235	2.3283e+01	4.6600	41.200989	0.000547	5.472967	0.927146	0.000110
 236	2.3383e+01	4.6809	41.289806	0.000446	4.459455	0.755452	0.000089
 237	2.3482e+01	4.7009	41.423031	0.000669	6.689182	1.133178	0.000134
 238	2.3581e+01	4.7208	41.576442	0.000770	7.702695	1.304872	0.000154
 239	2.3681e+01	4.7402	41.657185	0.000405	4.054050	0.686775	0.000081
 240	2.3780e+01	4.7601	41.770225	0.000568	5.675670	0.961484	0.000114
 241	2.3880e+01	4.7795	41.899413	0.000649	6.486480	1.098839	0.000130
 242	2.3980e+01	4.8005	42.048787	0.000750	7.499992	1.270533	0.000150
 243	2.4079e+01	4.8194	42.149716	0.000507	5.067562	0.858468	0.000101
 244	2.4178e+01	4.8389	42.274867	0.000628	6.283777	1.064501	0.000126
 245	2.4278e+01	4.8598	42.412129	0.000689	6.891885	1.167517	0.000138
 246	2.4378e+01	4.8798	42.521132	0.000547	5.472967	0.927146	0.000110
 247	2.4477e+01	4.8998	42.646283	0.000628	6.283777	1.064501	0.000126
 248	2.4576e+01	4.9200	42.739137	0.000466	4.662157	0.789791	0.000093
 249	2.4676e+01	4.9392	42.884474	0.000730	7.297290	1.236194	0.000146
 250	2.4776e+01	4.9593	43.009626	0.000628	6.283777	1.064501	0.000126
 251	2.4875e+01	4.9795	43.098443	0.000446	4.459455	0.755452	0.000089
 252	2.4974e+01	4.9989	43.276077	0.000892	8.918910	1.510904	0.000179
 253	2.5074e+01	5.0198	43.385079	0.000547	5.472967	0.927146	0.000110
 254	2.5174e+01	5.0384	43.514268	0.000649	6.486480	1.098839	0.000130
 255	2.5273e+01	5.0583	43.599047	0.000426	4.256752	0.721113	0.000085
 256	2.5372e+01	5.0785	43.712087	0.000568	5.675670	0.961484	0.000114
 257	2.5472e+01	5.0999	43.889721	0.000892	8.918910	1.510904	0.000179
 258	2.5572e+01	5.1180	43.978538	0.000446	4.459455	0.755452	0.000089
 259	2.5671e+01	5.1383	44.067355	0.000446	4.459455	0.755452	0.000089
 260	2.5770e+01	5.1577	44.208655	0.000709	7.094587	1.201856	0.000142
 261	2.5870e+01	5.1781	44.317658	0.000547	5.472967	0.927146	0.000110
 262	2.5970e+01	5.1978	44.450883	0.000669	6.689182	1.133178	0.000134
 263	2.6069e+01	5.2181	44.555849	0.000527	5.270265	0.892807	0.000105
 264	2.6169e+01	5.2380	44.685037	0.000649	6.486480	1.098839	0.000130
 265	2.6268e+01	5.2592	44.781928	0.000486	4.864860	0.824130	0.000097
 266	2.6367e+01	5.2779	44.951488	0.000851	8.513505	1.442227	0.000170
 267	2.6467e+01	5.2978	45.052416	0.000507	5.067562	0.858468	0.000101
 268	2.6567e+01	5.3178	45.177567	0.000628	6.283777	1.064501	0.000126
 269	2.6666e+01	5.3379	45.282533	0.000527	5.270265	0.892807	0.000105
 270	2.6765e+01	5.3576	45.407684	0.000628	6.283777	1.064501	0.000126
 271	2.6865e+01	5.3777	45.553021	0.000730	7.297290	1.236194	0.000146
 272	2.6965e+01	5.3970	45.621652	0.000345	3.445942	0.583758	0.000069
 273	2.7064e+01	5.4169	45.766989	0.000730	7.297290	1.236194	0.000146
 274	2.7163e+01	5.4372	45.888103	0.000608	6.081075	1.030162	0.000122
 275	2.7263e+01	5.4578	45.976920	0.000446	4.459455	0.755452	0.000089
 276	2.7363e+01	5.4772	46.114183	0.000689	6.891885	1.167517	0.000138
 277	2.7462e+01	5.4966	46.203000	0.000446	4.459455	0.755452	0.000089
 278	2.7561e+01	5.5169	46.328151	0.000628	6.283777	1.064501	0.000126
 279	2.7661e+01	5.5370	46.457340	0.000649	6.486480	1.098839	0.000130
 280	2.7761e+01	5.5569	46.598639	0.000709	7.094587	1.201856	0.000142
 281	2.7860e+01	5.5770	46.695531	0.000486	4.864860	0.824130	0.000097
 282	2.7959e+01	5.5968	46.792422	0.000486	4.864860	0.824130	0.000097
 283	2.8059e+01	5.6177	46.937759	0.000730	7.297290	1.236194	0.000146
 284	2.8159e+01	5.6368	47.062910	0.000628	6.283777	1.064501	0.000126
 285	2.8258e+01	5.6568	47.147690	0.000426	4.256752	0.721113	0.000085
 286	2.8358e+01	5.6764	47.280915	0.000669	6.689182	1.133178	0.000134
 287	2.8457e+01	5.6959	47.418178	0.000689	6.891885	1.167517	0.000138
 288	2.8556e+01	5.7159	47.543329	0.000628	6.283777	1.064501	0.000126
 289	2.8656e+01	5.7368	47.640220	0.000486	4.864860	0.824130	0.000097
 290	2.8756e+01	5.7555	47.725000	0.000426	4.256752	0.721113	0.000085
 291	2.8855e+01	5.7766	47.838040	0.000568	5.675670	0.961484	0.000114
 292	2.8954e+01	5.7963	47.955117	0.000588	5.878372	0.995823	0.000118
 293	2.9054e+01	5.8155	48.072194	0.000588	5.878372	0.995823	0.000118
 294	2.9154e+01	5.8352	48.177159	0.000527	5.270265	0.892807	0.000105
 295	2.9253e+01	5.8562	48.318459	0.000709	7.094587	1.201856	0.000142
 296	2.9352e+01	5.8759	48.411313	0.000466	4.662157	0.789791	0.000093
 297	2.9452e+01	5.8950	48.564724	0.000770	7.702695	1.304872	0.000154
 298	2.9552e+01	5.9158	48.645467	0.000405	4.054050	0.686775	0.000081
 299	2.9651e+01	5.9352	48.746395	0.000507	5.067562	0.858468	0.000101
 300	2.9750e+01	5.9557	48.871547	0.000628	6.283777	1.064501	0.000126
 301	2.9850e+01	5.9743	48.996698	0.000628	6.283777	1.064501	0.000126
 302	2.9950e+01	5.9948	49.125886	0.000649	6.486480	1.098839	0.000130
 303	3.0049e+01	6.0154	49.234889	0.000547	5.472967	0.927146	0.000110
 304	3.0148e+01	6.0343	49.323706	0.000446	4.459455	0.755452	0.000089
 305	3.0248e+01	6.0560	49.420597	0.000486	4.864860	0.824130	0.000097
 306	3.0348e+01	6.0748	49.590157	0.000851	8.513505	1.442227	0.000170
 307	3.0447e+01	6.0945	49.691085	0.000507	5.067562	0.858468	0.000101
 308	3.0547e+01	6.1151	49.796051	0.000527	5.270265	0.892807	0.000105
 309	3.0646e+01	6.1346	49.917165	0.000608	6.081075	1.030162	0.000122
 310	3.0745e+01	6.1548	50.014056	0.000486	4.864860	0.824130	0.000097
 311	3.0845e+01	6.1752	50.151319	0.000689	6.891885	1.167517	0.000138
 312	3.0945e+01	6.1947	50.256284	0.000527	5.270265	0.892807	0.000105
 313	3.1044e+01	6.2142	50.381435	0.000628	6.283777	1.064501	0.000126
 314	3.1143e+01	6.2348	50.510624	0.000649	6.486480	1.098839	0.000130
 315	3.1243e+01	6.2531	50.611552	0.000507	5.067562	0.858468	0.000101
 316	3.1343e+01	6.2739	50.740741	0.000649	6.486480	1.098839	0.000130
 317	3.1442e+01	6.2943	50.849743	0.000547	5.472967	0.927146	0.000110
 318	3.1541e+01	6.3135	50.946634	0.000486	4.864860	0.824130	0.000097
 319	3.1641e+01	6.3335	51.047563	0.000507	5.067562	0.858468	0.000101
 320	3.1741e+01	6.3529	51.213085	0.000831	8.310802	1.407888	0.000166
 321	3.1840e+01	6.3733	51.301902	0.000446	4.459455	0.755452	0.000089
 322	3.1939e+01	6.3931	51.431091	0.000649	6.486480	1.098839	0.000130
 323	3.2039e+01	6.4122	51.536056	0.000527	5.270265	0.892807	0.000105
 324	3.2139e+01	6.4324	51.665245	0.000649	6.486480	1.098839	0.000130
 325	3.2238e+01	6.4529	51.758099	0.000466	4.662157	0.789791	0.000093
 326	3.2337e+01	6.4724	51.895361	0.000689	6.891885	1.167517	0.000138
 327	3.2437e+01	6.4933	52.028587	0.000669	6.689182	1.133178	0.000134
 328	3.2536e+01	6.5128	52.129515	0.000507	5.067562	0.858468	0.000101
 329	3.2636e+01	6.5327	52.194109	0.000324	3.243240	0.549420	0.000065
 330	3.2736e+01	6.5520	52.331372	0.000689	6.891885	1.167517	0.000138
 331	3.2835e+01	6.5716	52.420189	0.000446	4.459455	0.755452	0.000089
 332	3.2934e+01	6.5922	52.529192	0.000547	5.472967	0.927146	0.000110
 333	3.3034e+01	6.6122	52.646269	0.000588	5.878372	0.995823	0.000118
 334	3.3133e+01	6.6314	52.795643	0.000750	7.499992	1.270533	0.000150
 335	3.3233e+01	6.6515	52.896571	0.000507	5.067562	0.858468	0.000101
 336	3.3333e+01	6.6725	53.025759	0.000649	6.486480	1.098839	0.000130
 337	3.3432e+01	6.6923	53.106502	0.000405	4.054050	0.686775	0.000081
 338	3.3532e+01	6.7117	53.227616	0.000608	6.081075	1.030162	0.000122
 339	3.3631e+01	6.7323	53.340656	0.000568	5.675670	0.961484	0.000114
 340	3.3730e+01	6.7518	53.417362	0.000385	3.851347	0.652436	0.000077
 341	3.3830e+01	6.7718	53.582884	0.000831	8.310802	1.407888	0.000166
 342	3.3929e+01	6.7920	53.703998	0.000608	6.081075	1.030162	0.000122
 343	3.4029e+01	6.8117	53.800889	0.000486	4.864860	0.824130	0.000097
 344	3.4129e+01	6.8314	53.881632	0.000405	4.054050	0.686775	0.000081
 345	3.4228e+01	6.8513	54.022932	0.000709	7.094587	1.201856	0.000142
 346	3.4328e+01	6.8711	54.119823	0.000486	4.864860	0.824130	0.000097
 347	3.4427e+01	6.8912	54.232863	0.000568	5.675670	0.961484	0.000114
 348	3.4526e+01	6.9106	54.353977	0.000608	6.081075	1.030162	0.000122
 349	3.4626e+01	6.9307	54.434720	0.000405	4.054050	0.686775	0.000081
 350	3.4725e+01	6.9505	54.551797	0.000588	5.878372	0.995823	0.000118
 351	3.4825e+01	6.9707	54.672911	0.000608	6.081075	1.030162	0.000122
 352	3.4925e+01	6.9904	54.794025	0.000608	6.081075	1.030162	0.000122
 353	3.5024e+01	7.0101	54.903027	0.000547	5.472967	0.927146	0.000110
 354	3.5123e+01	7.0306	54.991844	0.000446	4.459455	0.755452	0.000089
 355	3.5223e+01	7.0501	55.133144	0.000709	7.094587	1.201856	0.000142
 356	3.5322e+01	7.0693	55.221961	0.000446	4.459455	0.755452	0.000089
 357	3.5422e+01	7.0910	55.314815	0.000466	4.662157	0.789791	0.000093
 358	3.5522e+01	7.1108	55.415744	0.000507	5.067562	0.858468	0.000101
 359	3.5621e+01	7.1291	55.548969	0.000669	6.689182	1.133178	0.000134
 360	3.5721e+01	7.1500	55.641823	0.000466	4.662157	0.789791	0.000093
 361	3.5820e+01	7.1694	55.758900	0.000588	5.878372	0.995823	0.000118
 362	3.5919e+01	7.1900	55.867903	0.000547	5.472967	0.927146	0.000110
 363	3.6019e+01	7.2098	55.956720	0.000446	4.459455	0.755452	0.000089
 364	3.6118e+01	7.2292	56.073797	0.000588	5.878372	0.995823	0.000118
 365	3.6218e+01	7.2491	56.202985	0.000649	6.486480	1.098839	0.000130
 366	3.6318e+01	7.2705	56.287765	0.000426	4.256752	0.721113	0.000085
 367	3.6417e+01	7.2890	56.412916	0.000628	6.283777	1.064501	0.000126
 368	3.6517e+01	7.3092	56.529993	0.000588	5.878372	0.995823	0.000118
 369	3.6616e+01	7.3299	56.626884	0.000486	4.864860	0.824130	0.000097
 370	3.6715e+01	7.3492	56.731850	0.000527	5.270265	0.892807	0.000105
 371	3.6815e+01	7.3695	56.848927	0.000588	5.878372	0.995823	0.000118
 372	3.6914e+01	7.3888	56.966004	0.000588	5.878372	0.995823	0.000118
 373	3.7014e+01	7.4100	57.079044	0.000568	5.675670	0.961484	0.000114
 374	3.7114e+01	7.4282	57.143638	0.000324	3.243240	0.549420	0.000065
 375	3.7213e+01	7.4479	57.268789	0.000628	6.283777	1.064501	0.000126
 376	3.7313e+01	7.4696	57.389903	0.000608	6.081075	1.030162	0.000122
 377	3.7412e+01	7.4891	57.490831	0.000507	5.067562	0.858468	0.000101
 378	3.7511e+01	7.5086	57.591760	0.000507	5.067562	0.858468	0.000101
 379	3.7611e+01	7.5287	57.708837	0.000588	5.878372	0.995823	0.000118
 380	3.7711e+01	7.5481	57.801691	0.000466	4.662157	0.789791	0.000093
 381	3.7810e+01	7.5691	57.918768	0.000588	5.878372	0.995823	0.000118
 382	3.7910e+01	7.5882	58.023733	0.000527	5.270265	0.892807	0.000105
 383	3.8009e+01	7.6096	58.108513	0.000426	4.256752	0.721113	0.000085
 384	3.8108e+01	7.6277	58.241739	0.000669	6.689182	1.133178	0.000134
 385	3.8208e+01	7.6477	58.370927	0.000649	6.486480	1.098839	0.000130
 386	3.8307e+01	7.6681	58.443596	0.000365	3.648645	0.618097	0.000073
 387	3.8407e+01	7.6881	58.564710	0.000608	6.081075	1.030162	0.000122
 388	3.8507e+01	7.7076	58.710046	0.000730	7.297290	1.236194	0.000146
 389	3.8606e+01	7.7271	58.782715	0.000365	3.648645	0.618097	0.000073
 390	3.8706e+01	7.7471	58.859420	0.000385	3.851347	0.652436	0.000077
 391	3.8805e+01	7.7686	58.976497	0.000588	5.878372	0.995823	0.000118
 392	3.8904e+01	7.7883	59.073389	0.000486	4.864860	0.824130	0.000097
 393	3.9004e+01	7.8086	59.206614	0.000669	6.689182	1.133178	0.000134
 394	3.9103e+01	7.8277	59.299468	0.000466	4.662157	0.789791	0.000093
 395	3.9203e+01	7.8477	59.376174	0.000385	3.851347	0.652436	0.000077
 396	3.9303e+01	7.8669	59.477102	0.000507	5.067562	0.858468	0.000101
 397	3.9402e+01	7.8855	59.598216	0.000608	6.081075	1.030162	0.000122
 398	3.9502e+01	7.9068	59.682996	0.000426	4.256752	0.721113	0.000085
 399	3.9601e+01	7.9273	59.787962	0.000527	5.270265	0.892807	0.000105
 400	3.9700e+01	7.9466	59.913113	0.000628	6.283777	1.064501	0.000126
 401	3.9800e+01	7.9668	60.001930	0.000446	4.459455	0.755452	0.000089
 402	3.9900e+01	7.9871	60.127081	0.000628	6.283777	1.064501	0.000126
 403	3.9999e+01	8.0065	60.228010	0.000507	5.067562	0.858468	0.000101
 404	4.0099e+01	8.0254	60.268381	0.000203	2.027025	0.343387	0.000041
 405	4.0198e+01	8.0470	60.417755	0.000750	7.499992	1.270533	0.000150
 406	4.0297e+01	8.0665	60.498498	0.000405	4.054050	0.686775	0.000081
 407	4.0397e+01	8.0872	60.595389	0.000486	4.864860	0.824130	0.000097
 408	4.0496e+01	8.1058	60.708429	0.000568	5.675670	0.961484	0.000114
 409	4.0596e+01	8.1251	60.813394	0.000527	5.270265	0.892807	0.000105
 410	4.0696e+01	8.1461	60.890100	0.000385	3.851347	0.652436	0.000077
 411	4.0795e+01	8.1654	61.023325	0.000669	6.689182	1.133178	0.000134
 412	4.0895e+01	8.1865	61.124254	0.000507	5.067562	0.858468	0.000101
 413	4.0994e+01	8.2053	61.196922	0.000365	3.648645	0.618097	0.000073
 414	4.1093e+01	8.2253	61.338222	0.000709	7.094587	1.201856	0.000142
 415	4.1193e+01	8.2455	61.418965	0.000405	4.054050	0.686775	0.000081
 416	4.1292e+01	8.2652	61.511819	0.000466	4.662157	0.789791	0.000093
 417	4.1392e+01	8.2854	61.628896	0.000588	5.878372	0.995823	0.000118
 418	4.1492e+01	8.3057	61.721750	0.000466	4.662157	0.789791	0.000093
 419	4.1591e+01	8.3261	61.786344	0.000324	3.243240	0.549420	0.000065
 420	4.1691e+01	8.3456	61.907458	0.000608	6.081075	1.030162	0.000122
 421	4.1790e+01	8.3646	62.040683	0.000669	6.689182	1.133178	0.000134
 422	4.1889e+01	8.3849	62.125463	0.000426	4.256752	0.721113	0.000085
 423	4.1989e+01	8.4053	62.214280	0.000446	4.459455	0.755452	0.000089
 424	4.2089e+01	8.4256	62.339431	0.000628	6.283777	1.064501	0.000126
 425	4.2188e+01	8.4448	62.412100	0.000365	3.648645	0.618097	0.000073
 426	4.2288e+01	8.4647	62.525140	0.000568	5.675670	0.961484	0.000114
 427	4.2387e+01	8.4848	62.626068	0.000507	5.067562	0.858468	0.000101
 428	4.2486e+01	8.5047	62.739108	0.000568	5.675670	0.961484	0.000114
 429	4.2586e+01	8.5242	62.811776	0.000365	3.648645	0.618097	0.000073
 430	4.2685e+01	8.5450	62.920779	0.000547	5.472967	0.927146	0.000110
 431	4.2785e+01	8.5646	63.021707	0.000507	5.067562	0.858468	0.000101
 432	4.2885e+01	8.5840	63.134747	0.000568	5.675670	0.961484	0.000114
 433	4.2984e+01	8.6036	63.231638	0.000486	4.864860	0.824130	0.000097
 434	4.3084e+01	8.6241	63.316418	0.000426	4.256752	0.721113	0.000085
 435	4.3183e+01	8.6434	63.397161	0.000405	4.054050	0.686775	0.000081
 436	4.3282e+01	8.6634	63.510201	0.000568	5.675670	0.961484	0.000114
 437	4.3382e+01	8.6845	63.619204	0.000547	5.472967	0.927146	0.000110
 438	4.3481e+01	8.7028	63.724169	0.000527	5.270265	0.892807	0.000105
 439	4.3581e+01	8.7238	63.821060	0.000486	4.864860	0.824130	0.000097
 440	4.3681e+01	8.7440	63.889692	0.000345	3.445942	0.583758	0.000069
 441	4.3780e+01	8.7638	64.010806	0.000608	6.081075	1.030162	0.000122
 442	4.3880e+01	8.7835	64.107697	0.000486	4.864860	0.824130	0.000097
 443	4.3979e+01	8.8037	64.196514	0.000446	4.459455	0.755452	0.000089
 444	4.4078e+01	8.8233	64.353962	0.000791	7.905397	1.339211	0.000158
 445	4.4178e+01	8.8416	64.442779	0.000446	4.459455	0.755452	0.000089
 446	4.4278e+01	8.8618	64.495262	0.000264	2.635132	0.446404	0.000053
 447	4.4377e+01	8.8819	64.612339	0.000588	5.878372	0.995823	0.000118
 448	4.4477e+01	8.9028	64.721342	0.000547	5.472967	0.927146	0.000110
 449	4.4576e+01	8.9221	64.818233	0.000486	4.864860	0.824130	0.000097
 450	4.4675e+01	8.9417	64.898976	0.000405	4.054050	0.686775	0.000081
 451	4.4775e+01	8.9614	65.032201	0.000669	6.689182	1.133178	0.000134
 452	4.4874e+01	8.9819	65.100832	0.000345	3.445942	0.583758	0.000069
 453	4.4974e+01	9.0027	65.189649	0.000446	4.459455	0.755452	0.000089
 454	4.5074e+01	9.0211	65.298652	0.000547	5.472967	0.927146	0.000110
 455	4.5173e+01	9.0418	65.343060	0.000223	2.229727	0.377726	0.000045
 456	4.5273e+01	9.0613	65.520694	0.000892	8.918910	1.510904	0.000179
 457	4.5372e+01	9.0808	65.573177	0.000264	2.635132	0.446404	0.000053
 458	4.5471e+01	9.1016	65.670068	0.000486	4.864860	0.824130	0.000097
 459	4.5571e+01	9.1217	65.775034	0.000527	5.270265	0.892807	0.000105
 460	4.5670e+01	9.1412	65.896148	0.000608	6.081075	1.030162	0.000122
 461	4.5770e+01	9.1620	65.936519	0.000203	2.027025	0.343387	0.000041
 462	4.5870e+01	9.1810	66.085893	0.000750	7.499992	1.270533	0.000150
 463	4.5969e+01	9.2010	66.174710	0.000446	4.459455	0.755452	0.000089
 464	4.6069e+01	9.2222	66.267565	0.000466	4.662157	0.789791	0.000093
 465	4.6168e+01	9.2407	66.360419	0.000466	4.662157	0.789791	0.000093
 466	4.6267e+01	9.2597	66.445199	0.000426	4.256752	0.721113	0.000085
 467	4.6367e+01	9.2814	66.534016	0.000446	4.459455	0.755452	0.000089
 468	4.6467e+01	9.2994	66.606684	0.000365	3.648645	0.618097	0.000073
 469	4.6566e+01	9.3204	66.727798	0.000608	6.081075	1.030162	0.000122
 470	4.6666e+01	9.3399	66.856986	0.000649	6.486480	1.098839	0.000130
 471	4.6765e+01	9.3604	66.941766	0.000426	4.256752	0.721113	0.000085
 472	4.6864e+01	9.3801	67.018472	0.000385	3.851347	0.652436	0.000077
 473	4.6964e+01	9.3996	67.123437	0.000527	5.270265	0.892807	0.000105
 474	4.7063e+01	9.4202	67.240514	0.000588	5.878372	0.995823	0.000118
 475	4.7163e+01	9.4392	67.345480	0.000527	5.270265	0.892807	0.000105
 476	4.7263e+01	9.4598	67.422185	0.000385	3.851347	0.652436	0.000077
 477	4.7362e+01	9.4801	67.531188	0.000547	5.472967	0.927146	0.000110
 478	4.7462e+01	9.5001	67.672488	0.000709	7.094587	1.201856	0.000142
 479	4.7561e+01	9.5196	67.672488	0.000000	0.000000	0.000000	0.000000
 480	4.7660e+01	9.5393	67.833973	0.000811	8.108100	1.373549	0.000162
 481	4.7760e+01	9.5593	67.902605	0.000345	3.445942	0.583758	0.000069
 482	4.7859e+01	9.5790	68.043904	0.000709	7.094587	1.201856	0.000142
 483	4.7959e+01	9.5984	68.096387	0.000264	2.635132	0.446404	0.000053
 484	4.8059e+01	9.6192	68.181167	0.000426	4.256752	0.721113	0.000085
 485	4.8158e+01	9.6394	68.298244	0.000588	5.878372	0.995823	0.000118
 486	4.8258e+01	9.6600	68.366875	0.000345	3.445942	0.583758	0.000069
 487	4.8357e+01	9.6790	68.475878	0.000547	5.472967	0.927146	0.000110
 488	4.8456e+01	9.6976	68.596992	0.000608	6.081075	1.030162	0.000122
 489	4.8556e+01	9.7179	68.705995	0.000547	5.472967	0.927146	0.000110
 490	4.8656e+01	9.7390	68.810960	0.000527	5.270265	0.892807	0.000105
 491	4.8755e+01	9.7583	68.919963	0.000547	5.472967	0.927146	0.000110
 492	4.8855e+01	9.7782	69.016854	0.000486	4.864860	0.824130	0.000097
 493	4.8954e+01	9.7998	69.085485	0.000345	3.445942	0.583758	0.000069
 494	4.9053e+01	9.8180	69.170265	0.000426	4.256752	0.721113	0.000085
 495	4.9153e+01	9.8383	69.315602	0.000730	7.297290	1.236194	0.000146
 496	4.9252e+01	9.8584	69.400382	0.000426	4.256752	0.721113	0.000085
 497	4.9352e+01	9.8779	69.452865	0.000264	2.635132	0.446404	0.000053
 498	4.9452e+01	9.8984	69.594164	0.000709	7.094587	1.201856	0.000142
 499	4.9551e+01	9.9173	69.687019	0.000466	4.662157	0.789791	0.000093
 500	4.9651e+01	9.9371	69.787947	0.000507	5.067562	0.858468	0.000101
 501	4.9750e+01	9.9574	69.836393	0.000243	2.432430	0.412065	0.000049
 502	4.9849e+01	9.9776	69.949432	0.000568	5.675670	0.961484	0.000114
 503	4.9949e+01	9.9976	70.026138	0.000385	3.851347	0.652436	0.000077
 504	5.0048e+01	9.9775	69.985767	0.000203	2.027025	0.343387	-0.000041
 505	5.0148e+01	9.9585	69.933284	0.000264	2.635132	0.446404	-0.000053
 506	5.0248e+01	9.9370	69.824281	0.000547	5.472967	0.927146	-0.000110
 507	5.0347e+01	9.9177	69.828318	-0.000020	-0.202702	-0.034339	0.000004
 508	5.0447e+01	9.8977	69.747576	0.000405	4.054050	0.686775	-0.000081
 509	5.0546e+01	9.8785	69.699130	0.000243	2.432430	0.412065	-0.000049
 510	5.0645e+01	9.8584	69.618387	0.000405	4.054050	0.686775	-0.000081
 511	5.0745e+01	9.8372	69.525533	0.000466	4.662157	0.789791	-0.000093
 512	5.0844e+01	9.8193	69.473050	0.000264	2.635132	0.446404	-0.000053
 513	5.0944e+01	9.7982	69.388270	0.000426	4.256752	0.721113	-0.000085
 514	5.1044e+01	9.7785	69.355973	0.000162	1.621620	0.274710	-0.000032
 515	5.1143e+01	9.7584	69.263119	0.000466	4.662157	0.789791	-0.000093
 516	5.1242e+01	9.7382	69.190451	0.000365	3.648645	0.618097	-0.000073
 517	5.1342e+01	9.7178	69.129894	0.000304	3.040537	0.515081	-0.000061
 518	5.1441e+01	9.6985	69.053188	0.000385	3.851347	0.652436	-0.000077
 519	5.1541e+01	9.6785	69.000705	0.000264	2.635132	0.446404	-0.000053
 520	5.1641e+01	9.6592	68.919963	0.000405	4.054050	0.686775	-0.000081
 521	5.1740e+01	9.6396	68.831146	0.000446	4.459455	0.755452	-0.000089
 522	5.1840e+01	9.6182	68.802886	0.000142	1.418917	0.240371	-0.000028
 523	5.1939e+01	9.5988	68.726180	0.000385	3.851347	0.652436	-0.000077
 524	5.2038e+01	9.5786	68.625252	0.000507	5.067562	0.858468	-0.000101
 525	5.2138e+01	9.5600	68.576806	0.000243	2.432430	0.412065	-0.000049
 526	5.2237e+01	9.5395	68.455692	0.000608	6.081075	1.030162	-0.000122
 527	5.2337e+01	9.5203	68.447618	0.000041	0.405405	0.068677	-0.000008
 528	5.2437e+01	9.4990	68.334578	0.000568	5.675670	0.961484	-0.000114
 529	5.2536e+01	9.4800	68.274021	0.000304	3.040537	0.515081	-0.000061
 530	5.2636e+01	9.4593	68.128684	0.000730	7.297290	1.236194	-0.000146
 531	5.2735e+01	9.4397	68.108498	0.000101	1.013512	0.171694	-0.000020
 532	5.2834e+01	9.4196	68.031793	0.000385	3.851347	0.652436	-0.000077
 533	5.2934e+01	9.4006	67.963162	0.000345	3.445942	0.583758	-0.000069
 534	5.3033e+01	9.3804	67.878382	0.000426	4.256752	0.721113	-0.000085
 535	5.3133e+01	9.3604	67.825899	0.000264	2.635132	0.446404	-0.000053
 536	5.3233e+01	9.3408	67.741119	0.000426	4.256752	0.721113	-0.000085
 537	5.3332e+01	9.3207	67.648265	0.000466	4.662157	0.789791	-0.000093
 538	5.3431e+01	9.3000	67.555411	0.000466	4.662157	0.789791	-0.000093
 539	5.3531e+01	9.2808	67.490817	0.000324	3.243240	0.549420	-0.000065
 540	5.3630e+01	9.2605	67.393925	0.000486	4.864860	0.824130	-0.000097
 541	5.3730e+01	9.2399	67.353554	0.000203	2.027025	0.343387	-0.000041
 542	5.3830e+01	9.2207	67.297034	0.000284	2.837835	0.480742	-0.000057
 543	5.3929e+01	9.2005	67.224366	0.000365	3.648645	0.618097	-0.000073
 544	5.4029e+01	9.1806	67.131512	0.000466	4.662157	0.789791	-0.000093
 545	5.4128e+01	9.1615	67.062880	0.000345	3.445942	0.583758	-0.000069
 546	5.4227e+01	9.1418	66.994249	0.000345	3.445942	0.583758	-0.000069
 547	5.4327e+01	9.1218	66.913506	0.000405	4.054050	0.686775	-0.000081
 548	5.4426e+01	9.1024	66.840838	0.000365	3.648645	0.618097	-0.000073
 549	5.4526e+01	9.0809	66.735872	0.000527	5.270265	0.892807	-0.000105
 550	5.4626e+01	9.0601	66.659167	0.000385	3.851347	0.652436	-0.000077
 551	5.4725e+01	9.0411	66.618795	0.000203	2.027025	0.343387	-0.000041
 552	5.4825e+01	9.0219	66.525941	0.000466	4.662157	0.789791	-0.000093
 553	5.4924e+01	9.0028	66.465384	0.000304	3.040537	0.515081	-0.000061
 554	5.5023e+01	8.9817	66.372530	0.000466	4.662157	0.789791	-0.000093
 555	5.5123e+01	8.9615	66.243342	0.000649	6.486480	1.098839	-0.000130
 556	5.5222e+01	8.9420	66.231230	0.000061	0.608107	0.103016	-0.000012
 557	5.5322e+01	8.9216	66.158562	0.000365	3.648645	0.618097	-0.000073
 558	5.5422e+01	8.9027	66.013225	0.000730	7.297290	1.236194	-0.000146
 559	5.5521e+01	8.8818	65.976891	0.000182	1.824322	0.309049	-0.000037
 560	5.5620e+01	8.8623	65.884037	0.000466	4.662157	0.789791	-0.000093
 561	5.5720e+01	8.8428	65.811368	0.000365	3.648645	0.618097	-0.000073
 562	5.5819e+01	8.8238	65.702366	0.000547	5.472967	0.927146	-0.000110
 563	5.5919e+01	8.8037	65.674106	0.000142	1.418917	0.240371	-0.000028
 564	5.6019e+01	8.7827	65.589326	0.000426	4.256752	0.721113	-0.000085
 565	5.6118e+01	8.7631	65.468212	0.000608	6.081075	1.030162	-0.000122
 566	5.6218e+01	8.7458	65.415729	0.000264	2.635132	0.446404	-0.000053
 567	5.6317e+01	8.7232	65.310763	0.000527	5.270265	0.892807	-0.000105
 568	5.6416e+01	8.7031	65.274429	0.000182	1.824322	0.309049	-0.000037
 569	5.6516e+01	8.6841	65.149278	0.000628	6.283777	1.064501	-0.000126
 570	5.6615e+01	8.6646	65.064498	0.000426	4.256752	0.721113	-0.000085
 571	5.6715e+01	8.6440	64.975681	0.000446	4.459455	0.755452	-0.000089
 572	5.6815e+01	8.6263	64.919161	0.000284	2.837835	0.480742	-0.000057
 573	5.6914e+01	8.6047	64.794010	0.000628	6.283777	1.064501	-0.000126
 574	5.7014e+01	8.5840	64.725379	0.000345	3.445942	0.583758	-0.000069
 575	5.7113e+01	8.5645	64.616376	0.000547	5.472967	0.927146	-0.000110
 576	5.7212e+01	8.5439	64.547745	0.000345	3.445942	0.583758	-0.000069
 577	5.7312e+01	8.5258	64.438742	0.000547	5.472967	0.927146	-0.000110
 578	5.7411e+01	8.5028	64.422594	0.000081	0.810810	0.137355	-0.000016
 579	5.7511e+01	8.4848	64.313591	0.000547	5.472967	0.927146	-0.000110
 580	5.7611e+01	8.4647	64.236885	0.000385	3.851347	0.652436	-0.000077
 581	5.7710e+01	8.4447	64.131920	0.000527	5.270265	0.892807	-0.000105
 582	5.7809e+01	8.4250	64.055214	0.000385	3.851347	0.652436	-0.000077
 583	5.7909e+01	8.4051	63.978509	0.000385	3.851347	0.652436	-0.000077
 584	5.8008e+01	8.3852	63.877580	0.000507	5.067562	0.858468	-0.000101
 585	5.8108e+01	8.3652	63.808949	0.000345	3.445942	0.583758	-0.000069
 586	5.8208e+01	8.3453	63.687835	0.000608	6.081075	1.030162	-0.000122
 587	5.8307e+01	8.3252	63.639389	0.000243	2.432430	0.412065	-0.000049
 588	5.8407e+01	8.3053	63.570758	0.000345	3.445942	0.583758	-0.000069
 589	5.8506e+01	8.2858	63.473867	0.000486	4.864860	0.824130	-0.000097
 590	5.8605e+01	8.2651	63.417347	0.000284	2.837835	0.480742	-0.000057
 591	5.8705e+01	8.2465	63.276047	0.000709	7.094587	1.201856	-0.000142
 592	5.8804e+01	8.2256	63.223564	0.000264	2.635132	0.446404	-0.000053
 593	5.8904e+01	8.2059	63.118599	0.000527	5.270265	0.892807	-0.000105
 594	5.9004e+01	8.1866	63.045930	0.000365	3.648645	0.618097	-0.000073
 595	5.9103e+01	8.1656	62.940965	0.000527	5.270265	0.892807	-0.000105
 596	5.9203e+01	8.1449	62.892519	0.000243	2.432430	0.412065	-0.000049
 597	5.9302e+01	8.1253	62.783516	0.000547	5.472967	0.927146	-0.000110
 598	5.9401e+01	8.1051	62.686625	0.000486	4.864860	0.824130	-0.000097
 599	5.9501e+01	8.0861	62.634142	0.000264	2.635132	0.446404	-0.000053
 600	5.9600e+01	8.0667	62.553400	0.000405	4.054050	0.686775	-0.000081
 601	5.9700e+01	8.0478	62.448434	0.000527	5.270265	0.892807	-0.000105
 602	5.9800e+01	8.0267	62.371729	0.000385	3.851347	0.652436	-0.000077
 603	5.9899e+01	8.0072	62.262726	0.000547	5.472967	0.927146	-0.000110
 604	5.9998e+01	7.9863	62.210243	0.000264	2.635132	0.446404	-0.000053
 605	6.0098e+01	7.9663	62.149686	0.000304	3.040537	0.515081	-0.000061
 606	6.0197e+01	7.9479	62.012424	0.000689	6.891885	1.167517	-0.000138
 607	6.0297e+01	7.9269	61.935718	0.000385	3.851347	0.652436	-0.000077
 608	6.0397e+01	7.9070	61.879198	0.000284	2.837835	0.480742	-0.000057
 609	6.0496e+01	7.8869	61.790381	0.000446	4.459455	0.755452	-0.000089
 610	6.0596e+01	7.8671	61.669267	0.000608	6.081075	1.030162	-0.000122
 611	6.0695e+01	7.8468	61.612747	0.000284	2.837835	0.480742	-0.000057
 612	6.0794e+01	7.8259	61.491633	0.000608	6.081075	1.030162	-0.000122
 613	6.0894e+01	7.8083	61.427039	0.000324	3.243240	0.549420	-0.000065
 614	6.0993e+01	7.7879	61.358408	0.000345	3.445942	0.583758	-0.000069
 615	6.1093e+01	7.7677	61.225182	0.000669	6.689182	1.133178	-0.000134
 616	6.1193e+01	7.7477	61.160588	0.000324	3.243240	0.549420	-0.000065
 617	6.1292e+01	7.7274	61.079845	0.000405	4.054050	0.686775	-0.000081
 618	6.1392e+01	7.7081	61.015251	0.000324	3.243240	0.549420	-0.000065
 619	6.1491e+01	7.6885	60.894137	0.000608	6.081075	1.030162	-0.000122
 620	6.1590e+01	7.6687	60.781097	0.000568	5.675670	0.961484	-0.000114
 621	6.1690e+01	7.6478	60.708429	0.000365	3.648645	0.618097	-0.000073
 622	6.1789e+01	7.6292	60.639797	0.000345	3.445942	0.583758	-0.000069
 623	6.1889e+01	7.6080	60.542906	0.000486	4.864860	0.824130	-0.000097
 624	6.1989e+01	7.5887	60.441978	0.000507	5.067562	0.858468	-0.000101
 625	6.2088e+01	7.5684	60.341049	0.000507	5.067562	0.858468	-0.000101
 626	6.2188e+01	7.5484	60.260307	0.000405	4.054050	0.686775	-0.000081
 627	6.2287e+01	7.5286	60.191675	0.000345	3.445942	0.583758	-0.000069
 628	6.2386e+01	7.5082	60.074598	0.000588	5.878372	0.995823	-0.000118
 629	6.2486e+01	7.4890	59.985781	0.000446	4.459455	0.755452	-0.000089
 630	6.2586e+01	7.4683	59.917150	0.000345	3.445942	0.583758	-0.000069
 631	6.2685e+01	7.4499	59.816222	0.000507	5.067562	0.858468	-0.000101
 632	6.2785e+01	7.4296	59.723368	0.000466	4.662157	0.789791	-0.000093
 633	6.2884e+01	7.4088	59.662811	0.000304	3.040537	0.515081	-0.000061
 634	6.2983e+01	7.3886	59.525548	0.000689	6.891885	1.167517	-0.000138
 635	6.3083e+01	7.3682	59.489214	0.000182	1.824322	0.309049	-0.000037
 636	6.3182e+01	7.3488	59.372137	0.000588	5.878372	0.995823	-0.000118
 637	6.3282e+01	7.3295	59.315617	0.000284	2.837835	0.480742	-0.000057
 638	6.3382e+01	7.3094	59.202577	0.000568	5.675670	0.961484	-0.000114
 639	6.3481e+01	7.2897	59.125871	0.000385	3.851347	0.652436	-0.000077
 640	6.3581e+01	7.2692	59.004757	0.000608	6.081075	1.030162	-0.000122
 641	6.3680e+01	7.2494	58.936126	0.000345	3.445942	0.583758	-0.000069
 642	6.3779e+01	7.2292	58.839235	0.000486	4.864860	0.824130	-0.000097
 643	6.3879e+01	7.2095	58.770604	0.000345	3.445942	0.583758	-0.000069
 644	6.3978e+01	7.1893	58.661601	0.000547	5.472967	0.927146	-0.000110
 645	6.4078e+01	7.1693	58.568747	0.000466	4.662157	0.789791	-0.000093
 646	6.4177e+01	7.1496	58.463781	0.000527	5.270265	0.892807	-0.000105
 647	6.4277e+01	7.1291	58.362853	0.000507	5.067562	0.858468	-0.000101
 648	6.4376e+01	7.1094	58.306333	0.000284	2.837835	0.480742	-0.000057
 649	6.4476e+01	7.0910	58.245776	0.000304	3.040537	0.515081	-0.000061
 650	6.4576e+01	7.0708	58.112550	0.000669	6.689182	1.133178	-0.000134
 651	6.4675e+01	7.0508	58.039882	0.000365	3.648645	0.618097	-0.000073
 652	6.4775e+01	7.0307	57.967213	0.000365	3.648645	0.618097	-0.000073
 653	6.4874e+01	7.0103	57.854174	0.000568	5.675670	0.961484	-0.000114
 654	6.4974e+01	6.9901	57.777468	0.000385	3.851347	0.652436	-0.000077
 655	6.5073e+01	6.9704	57.704800	0.000365	3.648645	0.618097	-0.000073
 656	6.5172e+01	6.9501	57.583686	0.000608	6.081075	1.030162	-0.000122
 657	6.5272e+01	6.9313	57.490831	0.000466	4.662157	0.789791	-0.000093
 658	6.5371e+01	6.9106	57.442386	0.000243	2.432430	0.412065	-0.000049
 659	6.5471e+01	6.8906	57.309160	0.000669	6.689182	1.133178	-0.000134
 660	6.5570e+01	6.8717	57.272826	0.000182	1.824322	0.309049	-0.000037
 661	6.5670e+01	6.8511	57.188046	0.000426	4.256752	0.721113	-0.000085
 662	6.5769e+01	6.8319	57.083081	0.000527	5.270265	0.892807	-0.000105
 663	6.5869e+01	6.8118	56.970041	0.000568	5.675670	0.961484	-0.000114
 664	6.5969e+01	6.7921	56.901410	0.000345	3.445942	0.583758	-0.000069
 665	6.6068e+01	6.7725	56.800481	0.000507	5.067562	0.858468	-0.000101
 666	6.6168e+01	6.7513	56.719739	0.000405	4.054050	0.686775	-0.000081
 667	6.6267e+01	6.7321	56.602662	0.000588	5.878372	0.995823	-0.000118
 668	6.6367e+01	6.7117	56.509807	0.000466	4.662157	0.789791	-0.000093
 669	6.6466e+01	6.6924	56.437139	0.000365	3.648645	0.618097	-0.000073
 670	6.6566e+01	6.6726	56.356396	0.000405	4.054050	0.686775	-0.000081
 671	6.6665e+01	6.6518	56.215097	0.000709	7.094587	1.201856	-0.000142
 672	6.6764e+01	6.6319	56.126280	0.000446	4.459455	0.755452	-0.000089
 673	6.6864e+01	6.6128	56.045537	0.000405	4.054050	0.686775	-0.000081
 674	6.6963e+01	6.5923	55.952683	0.000466	4.662157	0.789791	-0.000093
 675	6.7063e+01	6.5726	55.888089	0.000324	3.243240	0.549420	-0.000065
 676	6.7162e+01	6.5520	55.787160	0.000507	5.067562	0.858468	-0.000101
 677	6.7262e+01	6.5331	55.682195	0.000527	5.270265	0.892807	-0.000105
 678	6.7362e+01	6.5124	55.573192	0.000547	5.472967	0.927146	-0.000110
 679	6.7461e+01	6.4928	55.488412	0.000426	4.256752	0.721113	-0.000085
 680	6.7561e+01	6.4735	55.383447	0.000527	5.270265	0.892807	-0.000105
 681	6.7660e+01	6.4523	55.306741	0.000385	3.851347	0.652436	-0.000077
 682	6.7760e+01	6.4336	55.234073	0.000365	3.648645	0.618097	-0.000073
 683	6.7859e+01	6.4130	55.137181	0.000486	4.864860	0.824130	-0.000097
 684	6.7959e+01	6.3931	55.032216	0.000527	5.270265	0.892807	-0.000105
 685	6.8058e+01	6.3728	54.931287	0.000507	5.067562	0.858468	-0.000101
 686	6.8157e+01	6.3529	54.866693	0.000324	3.243240	0.549420	-0.000065
 687	6.8257e+01	6.3337	54.725393	0.000709	7.094587	1.201856	-0.000142
 688	6.8356e+01	6.3136	54.660799	0.000324	3.243240	0.549420	-0.000065
 689	6.8456e+01	6.2945	54.580057	0.000405	4.054050	0.686775	-0.000081
 690	6.8555e+01	6.2744	54.483165	0.000486	4.864860	0.824130	-0.000097
 691	6.8655e+01	6.2545	54.370126	0.000568	5.675670	0.961484	-0.000114
 692	6.8754e+01	6.2341	54.285346	0.000426	4.256752	0.721113	-0.000085
 693	6.8854e+01	6.2159	54.184417	0.000507	5.067562	0.858468	-0.000101
 694	6.8954e+01	6.1950	54.091563	0.000466	4.662157	0.789791	-0.000093
 695	6.9053e+01	6.1745	54.035043	0.000284	2.837835	0.480742	-0.000057
 696	6.9153e+01	6.1553	53.917966	0.000588	5.878372	0.995823	-0.000118
 697	6.9252e+01	6.1353	53.817038	0.000507	5.067562	0.858468	-0.000101
 698	6.9352e+01	6.1143	53.695924	0.000608	6.081075	1.030162	-0.000122
 699	6.9451e+01	6.0947	53.615181	0.000405	4.054050	0.686775	-0.000081
 700	6.9550e+01	6.0744	53.514253	0.000507	5.067562	0.858468	-0.000101
 701	6.9650e+01	6.0561	53.425436	0.000446	4.459455	0.755452	-0.000089
 702	6.9749e+01	6.0358	53.296247	0.000649	6.486480	1.098839	-0.000130
 703	6.9849e+01	6.0149	53.235690	0.000304	3.040537	0.515081	-0.000061
 704	6.9948e+01	5.9954	53.126688	0.000547	5.472967	0.927146	-0.000110
 705	7.0048e+01	5.9756	53.049982	0.000385	3.851347	0.652436	-0.000077
 706	7.0147e+01	5.9551	52.936942	0.000568	5.675670	0.961484	-0.000114
 707	7.0247e+01	5.9350	52.860237	0.000385	3.851347	0.652436	-0.000077
 708	7.0347e+01	5.9157	52.779494	0.000405	4.054050	0.686775	-0.000081
 709	7.0446e+01	5.8953	52.642231	0.000689	6.891885	1.167517	-0.000138
 710	7.0546e+01	5.8752	52.573600	0.000345	3.445942	0.583758	-0.000069
 711	7.0645e+01	5.8559	52.456523	0.000588	5.878372	0.995823	-0.000118
 712	7.0745e+01	5.8352	52.351558	0.000527	5.270265	0.892807	-0.000105
 713	7.0844e+01	5.8160	52.258704	0.000466	4.662157	0.789791	-0.000093
 714	7.0944e+01	5.7970	52.153738	0.000527	5.270265	0.892807	-0.000105
 715	7.1043e+01	5.7761	52.077032	0.000385	3.851347	0.652436	-0.000077
 716	7.1142e+01	5.7549	51.988215	0.000446	4.459455	0.755452	-0.000089
 717	7.1242e+01	5.7366	51.883250	0.000527	5.270265	0.892807	-0.000105
 718	7.1341e+01	5.7156	51.782322	0.000507	5.067562	0.858468	-0.000101
 719	7.1441e+01	5.6962	51.677356	0.000527	5.270265	0.892807	-0.000105
 720	7.1540e+01	5.6764	51.592576	0.000426	4.256752	0.721113	-0.000085
 721	7.1640e+01	5.6565	51.479536	0.000568	5.675670	0.961484	-0.000114
 722	7.1740e+01	5.6365	51.390719	0.000446	4.459455	0.755452	-0.000089
 723	7.1839e+01	5.6168	51.301902	0.000446	4.459455	0.755452	-0.000089
 724	7.1939e+01	5.5968	51.188863	0.000568	5.675670	0.961484	-0.000114
 725	7.2038e+01	5.5770	51.124268	0.000324	3.243240	0.549420	-0.000065
 726	7.2138e+01	5.5576	50.970857	0.000770	7.702695	1.304872	-0.000154
 727	7.2237e+01	5.5373	50.906263	0.000324	3.243240	0.549420	-0.000065
 728	7.2337e+01	5.5163	50.813409	0.000466	4.662157	0.789791	-0.000093
 729	7.2436e+01	5.4972	50.688258	0.000628	6.283777	1.064501	-0.000126
 730	7.2535e+01	5.4775	50.583292	0.000527	5.270265	0.892807	-0.000105
 731	7.2635e+01	5.4571	50.474290	0.000547	5.472967	0.927146	-0.000110
 732	7.2734e+01	5.4372	50.373361	0.000507	5.067562	0.858468	-0.000101
 733	7.2834e+01	5.4188	50.284544	0.000446	4.459455	0.755452	-0.000089
 734	7.2933e+01	5.3976	50.191690	0.000466	4.662157	0.789791	-0.000093
 735	7.3033e+01	5.3781	50.062502	0.000649	6.486480	1.098839	-0.000130
 736	7.3132e+01	5.3582	49.961573	0.000507	5.067562	0.858468	-0.000101
 737	7.3232e+01	5.3370	49.856608	0.000527	5.270265	0.892807	-0.000105
 738	7.3332e+01	5.3175	49.747605	0.000547	5.472967	0.927146	-0.000110
 739	7.3431e+01	5.2985	49.638602	0.000547	5.472967	0.927146	-0.000110
 740	7.3531e+01	5.2779	49.549785	0.000446	4.459455	0.755452	-0.000089
 741	7.3630e+01	5.2575	49.460968	0.000446	4.459455	0.755452	-0.000089
 742	7.3730e+01	5.2384	49.327743	0.000669	6.689182	1.133178	-0.000134
 743	7.3829e+01	5.2180	49.238926	0.000446	4.459455	0.755452	-0.000089
 744	7.3928e+01	5.1992	49.142035	0.000486	4.864860	0.824130	-0.000097
 745	7.4028e+01	5.1785	49.000735	0.000709	7.094587	1.201856	-0.000142
 746	7.4127e+01	5.1582	48.911918	0.000446	4.459455	0.755452	-0.000089
 747	7.4227e+01	5.1379	48.810990	0.000507	5.067562	0.858468	-0.000101
 748	7.4326e+01	5.1188	48.738321	0.000365	3.648645	0.618097	-0.000073
 749	7.4426e+01	5.0982	48.637393	0.000507	5.067562	0.858468	-0.000101
 750	7.4525e+01	5.0790	48.451685	0.000932	9.324315	1.579582	-0.000187
 751	7.4625e+01	5.0581	48.403239	0.000243	2.432430	0.412065	-0.000049
 752	7.4725e+01	5.0387	48.326533	0.000385	3.851347	0.652436	-0.000077
 753	7.4824e+01	5.0190	48.213494	0.000568	5.675670	0.961484	-0.000114
 754	7.4924e+01	4.9986	48.080268	0.000669	6.689182	1.133178	-0.000134
 755	7.5023e+01	4.9801	47.975303	0.000527	5.270265	0.892807	-0.000105
 756	7.5123e+01	4.9596	47.862263	0.000568	5.675670	0.961484	-0.000114
 757	7.5222e+01	4.9398	47.769409	0.000466	4.662157	0.789791	-0.000093
 758	7.5322e+01	4.9199	47.668480	0.000507	5.067562	0.858468	-0.000101
 759	7.5421e+01	4.8995	47.583700	0.000426	4.256752	0.721113	-0.000085
 760	7.5520e+01	4.8794	47.450475	0.000669	6.689182	1.133178	-0.000134
 761	7.5620e+01	4.8602	47.349547	0.000507	5.067562	0.858468	-0.000101
 762	7.5719e+01	4.8396	47.232470	0.000588	5.878372	0.995823	-0.000118
 763	7.5819e+01	4.8191	47.147690	0.000426	4.256752	0.721113	-0.000085
 764	7.5918e+01	4.8010	47.046761	0.000507	5.067562	0.858468	-0.000101
 765	7.6018e+01	4.7803	46.941796	0.000527	5.270265	0.892807	-0.000105
 766	7.6118e+01	4.7601	46.836830	0.000527	5.270265	0.892807	-0.000105
 767	7.6217e+01	4.7401	46.727828	0.000547	5.472967	0.927146	-0.000110
 768	7.6317e+01	4.7200	46.618825	0.000547	5.472967	0.927146	-0.000110
 769	7.6416e+01	4.7007	46.542119	0.000385	3.851347	0.652436	-0.000077
 770	7.6516e+01	4.6810	46.396782	0.000730	7.297290	1.236194	-0.000146
 771	7.6615e+01	4.6607	46.271631	0.000628	6.283777	1.064501	-0.000126
 772	7.6715e+01	4.6410	46.182814	0.000446	4.459455	0.755452	-0.000089
 773	7.6814e+01	4.6204	46.061700	0.000608	6.081075	1.030162	-0.000122
 774	7.6913e+01	4.6014	45.960772	0.000507	5.067562	0.858468	-0.000101
 775	7.7013e+01	4.5818	45.880029	0.000405	4.054050	0.686775	-0.000081
 776	7.7112e+01	4.5615	45.734692	0.000730	7.297290	1.236194	-0.000146
 777	7.7212e+01	4.5414	45.645875	0.000446	4.459455	0.755452	-0.000089
 778	7.7311e+01	4.5208	45.516687	0.000649	6.486480	1.098839	-0.000130
 779	7.7411e+01	4.5010	45.431907	0.000426	4.256752	0.721113	-0.000085
 780	7.7510e+01	4.4814	45.343090	0.000446	4.459455	0.755452	-0.000089
 781	7.7610e+01	4.4617	45.234087	0.000547	5.472967	0.927146	-0.000110
 782	7.7710e+01	4.4409	45.112973	0.000608	6.081075	1.030162	-0.000122
 783	7.7809e+01	4.4215	44.979748	0.000669	6.689182	1.133178	-0.000134
 784	7.7909e+01	4.4015	44.882857	0.000486	4.864860	0.824130	-0.000097
 785	7.8008e+01	4.3813	44.777891	0.000527	5.270265	0.892807	-0.000105
 786	7.8108e+01	4.3618	44.676963	0.000507	5.067562	0.858468	-0.000101
 787	7.8207e+01	4.3430	44.563923	0.000568	5.675670	0.961484	-0.000114
 788	7.8306e+01	4.3217	44.467032	0.000486	4.864860	0.824130	-0.000097
 789	7.8406e+01	4.3011	44.329769	0.000689	6.891885	1.167517	-0.000138
 790	7.8505e+01	4.2827	44.216729	0.000568	5.675670	0.961484	-0.000114
 791	7.8605e+01	4.2625	44.140024	0.000385	3.851347	0.652436	-0.000077
 792	7.8704e+01	4.2420	43.982575	0.000791	7.905397	1.339211	-0.000158
 793	7.8804e+01	4.2226	43.926055	0.000284	2.837835	0.480742	-0.000057
 794	7.8903e+01	4.2026	43.796867	0.000649	6.486480	1.098839	-0.000130
 795	7.9003e+01	4.1823	43.732273	0.000324	3.243240	0.549420	-0.000065
 796	7.9103e+01	4.1626	43.582899	0.000750	7.499992	1.270533	-0.000150
 797	7.9202e+01	4.1430	43.465822	0.000588	5.878372	0.995823	-0.000118
 798	7.9302e+01	4.1229	43.348745	0.000588	5.878372	0.995823	-0.000118
 799	7.9401e+01	4.1026	43.251854	0.000486	4.864860	0.824130	-0.000097
 800	7.9501e+01	4.0829	43.138814	0.000568	5.675670	0.961484	-0.000114
 801	7.9600e+01	4.0626	43.013663	0.000628	6.283777	1.064501	-0.000126
 802	7.9700e+01	4.0433	42.916771	0.000486	4.864860	0.824130	-0.000097
 803	7.9799e+01	4.0240	42.803732	0.000568	5.675670	0.961484	-0.000114
 804	7.9898e+01	4.0034	42.674543	0.000649	6.486480	1.098839	-0.000130
 805	7.9998e+01	3.9834	42.557466	0.000588	5.878372	0.995823	-0.000118
 806	8.0097e+01	3.9624	42.460575	0.000486	4.864860	0.824130	-0.000097
 807	8.0197e+01	3.9429	42.375795	0.000426	4.256752	0.721113	-0.000085
 808	8.0296e+01	3.9233	42.218347	0.000791	7.905397	1.339211	-0.000158
 809	8.0396e+01	3.9044	42.133567	0.000426	4.256752	0.721113	-0.000085
 810	8.0496e+01	3.8827	42.000342	0.000669	6.689182	1.133178	-0.000134
 811	8.0595e+01	3.8634	41.919599	0.000405	4.054050	0.686775	-0.000081
 812	8.0695e+01	3.8429	41.786373	0.000669	6.689182	1.133178	-0.000134
 813	8.0794e+01	3.8246	41.725816	0.000304	3.040537	0.515081	-0.000061
 814	8.0894e+01	3.8033	41.552220	0.000872	8.716207	1.476565	-0.000174
 815	8.0993e+01	3.7826	41.455328	0.000486	4.864860	0.824130	-0.000097
 816	8.1093e+01	3.7638	41.342289	0.000568	5.675670	0.961484	-0.000114
 817	8.1192e+01	3.7452	41.213100	0.000649	6.486480	1.098839	-0.000130
 818	8.1291e+01	3.7249	41.120246	0.000466	4.662157	0.789791	-0.000093
 819	8.1391e+01	3.7048	41.047578	0.000365	3.648645	0.618097	-0.000073
 820	8.1490e+01	3.6844	40.914352	0.000669	6.689182	1.133178	-0.000134
 821	8.1590e+01	3.6654	40.817461	0.000486	4.864860	0.824130	-0.000097
 822	8.1689e+01	3.6446	40.712495	0.000527	5.270265	0.892807	-0.000105
 823	8.1789e+01	3.6245	40.587344	0.000628	6.283777	1.064501	-0.000126
 824	8.1888e+01	3.6053	40.478341	0.000547	5.472967	0.927146	-0.000110
 825	8.1988e+01	3.5848	40.365302	0.000568	5.675670	0.961484	-0.000114
 826	8.2088e+01	3.5652	40.264373	0.000507	5.067562	0.858468	-0.000101
 827	8.2187e+01	3.5450	40.163445	0.000507	5.067562	0.858468	-0.000101
 828	8.2287e+01	3.5252	40.038294	0.000628	6.283777	1.064501	-0.000126
 829	8.2386e+01	3.5055	39.937365	0.000507	5.067562	0.858468	-0.000101
 830	8.2486e+01	3.4857	39.824325	0.000568	5.675670	0.961484	-0.000114
 831	8.2585e+01	3.4655	39.711286	0.000568	5.675670	0.961484	-0.000114
 832	8.2684e+01	3.4457	39.574023	0.000689	6.891885	1.167517	-0.000138
 833	8.2784e+01	3.4273	39.436760	0.000689	6.891885	1.167517	-0.000138
 834	8.2883e+01	3.4057	39.335832	0.000507	5.067562	0.858468	-0.000101
 835	8.2983e+01	3.3855	39.218755	0.000588	5.878372	0.995823	-0.000118
 836	8.3082e+01	3.3659	39.133975	0.000426	4.256752	0.721113	-0.000085
 837	8.3182e+01	3.3461	39.016898	0.000588	5.878372	0.995823	-0.000118
 838	8.3281e+01	3.3268	38.867524	0.000750	7.499992	1.270533	-0.000150
 839	8.3381e+01	3.3062	38.794856	0.000365	3.648645	0.618097	-0.000073
 840	8.3481e+01	3.2861	38.677779	0.000588	5.878372	0.995823	-0.000118
 841	8.3580e+01	3.2665	38.552628	0.000628	6.283777	1.064501	-0.000126
 842	8.3680e+01	3.2456	38.451699	0.000507	5.067562	0.858468	-0.000101
 843	8.3779e+01	3.2262	38.330585	0.000608	6.081075	1.030162	-0.000122
 844	8.3879e+01	3.2065	38.229657	0.000507	5.067562	0.858468	-0.000101
 845	8.3978e+01	3.1862	38.120654	0.000547	5.472967	0.927146	-0.000110
 846	8.4078e+01	3.1658	37.999540	0.000608	6.081075	1.030162	-0.000122
 847	8.4177e+01	3.1469	37.854203	0.000730	7.297290	1.236194	-0.000146
 848	8.4276e+01	3.1268	37.745201	0.000547	5.472967	0.927146	-0.000110
 849	8.4376e+01	3.1063	37.591789	0.000770	7.702695	1.304872	-0.000154
 850	8.4475e+01	3.0866	37.490861	0.000507	5.067562	0.858468	-0.000101
 851	8.4575e+01	3.0671	37.398007	0.000466	4.662157	0.789791	-0.000093
 852	8.4674e+01	3.0468	37.289004	0.000547	5.472967	0.927146	-0.000110
 853	8.4774e+01	3.0276	37.180002	0.000547	5.472967	0.927146	-0.000110
 854	8.4874e+01	3.0077	37.050813	0.000649	6.486480	1.098839	-0.000130
 855	8.4973e+01	2.9867	36.941811	0.000547	5.472967	0.927146	-0.000110
 856	8.5073e+01	2.9677	36.788399	0.000770	7.702695	1.304872	-0.000154
 857	8.5172e+01	2.9464	36.703620	0.000426	4.256752	0.721113	-0.000085
 858	8.5272e+01	2.9276	36.586543	0.000588	5.878372	0.995823	-0.000118
 859	8.5371e+01	2.9085	36.441206	0.000730	7.297290	1.236194	-0.000146
 860	8.5471e+01	2.8878	36.324129	0.000588	5.878372	0.995823	-0.000118
 861	8.5570e+01	2.8677	36.227238	0.000486	4.864860	0.824130	-0.000097
 862	8.5669e+01	2.8474	36.106123	0.000608	6.081075	1.030162	-0.000122
 863	8.5769e+01	2.8284	36.009232	0.000486	4.864860	0.824130	-0.000097
 864	8.5868e+01	2.8083	35.855821	0.000770	7.702695	1.304872	-0.000154
 865	8.5968e+01	2.7888	35.730670	0.000628	6.283777	1.064501	-0.000126
 866	8.6067e+01	2.7679	35.613593	0.000588	5.878372	0.995823	-0.000118
 867	8.6167e+01	2.7479	35.512665	0.000507	5.067562	0.858468	-0.000101
 868	8.6266e+01	2.7281	35.387513	0.000628	6.283777	1.064501	-0.000126
 869	8.6366e+01	2.7087	35.294659	0.000466	4.662157	0.789791	-0.000093
 870	8.6466e+01	2.6888	35.149322	0.000730	7.297290	1.236194	-0.000146
 871	8.6565e+01	2.6688	35.044357	0.000527	5.270265	0.892807	-0.000105
 872	8.6665e+01	2.6483	34.878834	0.000831	8.310802	1.407888	-0.000166
 873	8.6764e+01	2.6281	34.781943	0.000486	4.864860	0.824130	-0.000097
 874	8.6864e+01	2.6083	34.676977	0.000527	5.270265	0.892807	-0.000105
 875	8.6963e+01	2.5890	34.543752	0.000669	6.689182	1.133178	-0.000134
 876	8.7063e+01	2.5686	34.438786	0.000527	5.270265	0.892807	-0.000105
 877	8.7162e+01	2.5489	34.313635	0.000628	6.283777	1.064501	-0.000126
 878	8.7261e+01	2.5295	34.200595	0.000568	5.675670	0.961484	-0.000114
 879	8.7361e+01	2.5095	34.111778	0.000446	4.459455	0.755452	-0.000089
 880	8.7460e+01	2.4895	33.926070	0.000932	9.324315	1.579582	-0.000187
 881	8.7560e+01	2.4689	33.837253	0.000446	4.459455	0.755452	-0.000089
 882	8.7659e+01	2.4487	33.744399	0.000466	4.662157	0.789791	-0.000093
 883	8.7759e+01	2.4299	33.619248	0.000628	6.283777	1.064501	-0.000126
 884	8.7859e+01	2.4090	33.473911	0.000730	7.297290	1.236194	-0.000146
 885	8.7958e+01	2.3899	33.356834	0.000588	5.878372	0.995823	-0.000118
 886	8.8058e+01	2.3692	33.227646	0.000649	6.486480	1.098839	-0.000130
 887	8.8157e+01	2.3497	33.102494	0.000628	6.283777	1.064501	-0.000126
 888	8.8257e+01	2.3306	32.993492	0.000547	5.472967	0.927146	-0.000110
 889	8.8356e+01	2.3099	32.856229	0.000689	6.891885	1.167517	-0.000138
 890	8.8456e+01	2.2898	32.723004	0.000669	6.689182	1.133178	-0.000134
 891	8.8555e+01	2.2707	32.634187	0.000446	4.459455	0.755452	-0.000089
 892	8.8654e+01	2.2494	32.496924	0.000689	6.891885	1.167517	-0.000138
 893	8.8754e+01	2.2301	32.387921	0.000547	5.472967	0.927146	-0.000110
 894	8.8853e+01	2.2109	32.262770	0.000628	6.283777	1.064501	-0.000126
 895	8.8953e+01	2.1908	32.101285	0.000811	8.108100	1.373549	-0.000162
 896	8.9052e+01	2.1704	32.016505	0.000426	4.256752	0.721113	-0.000085
 897	8.9152e+01	2.1507	31.863094	0.000770	7.702695	1.304872	-0.000154
 898	8.9251e+01	2.1294	31.746017	0.000588	5.878372	0.995823	-0.000118
 899	8.9351e+01	2.1110	31.637014	0.000547	5.472967	0.927146	-0.000110
 900	8.9451e+01	2.0901	31.479566	0.000791	7.905397	1.339211	-0.000158
 901	8.9550e+01	2.0715	31.358452	0.000608	6.081075	1.030162	-0.000122
 902	8.9650e+01	2.0508	31.245412	0.000568	5.675670	0.961484	-0.000114
 903	8.9749e+01	2.0313	31.132372	0.000568	5.675670	0.961484	-0.000114
 904	8.9849e+01	2.0107	31.007221	0.000628	6.283777	1.064501	-0.000126
 905	8.9948e+01	1.9901	30.833624	0.000872	8.716207	1.476565	-0.000174
 906	9.0047e+01	1.9706	30.732696	0.000507	5.067562	0.858468	-0.000101
 907	9.0147e+01	1.9509	30.599470	0.000669	6.689182	1.133178	-0.000134
 908	9.0246e+01	1.9315	30.454133	0.000730	7.297290	1.236194	-0.000146
 909	9.0346e+01	1.9128	30.308797	0.000730	7.297290	1.236194	-0.000146
 910	9.0445e+01	1.8912	30.203831	0.000527	5.270265	0.892807	-0.000105
 911	9.0545e+01	1.8725	30.090791	0.000568	5.675670	0.961484	-0.000114
 912	9.0644e+01	1.8514	29.973714	0.000588	5.878372	0.995823	-0.000118
 913	9.0744e+01	1.8319	29.820303	0.000770	7.702695	1.304872	-0.000154
 914	9.0844e+01	1.8119	29.699189	0.000608	6.081075	1.030162	-0.000122
 915	9.0943e+01	1.7916	29.602298	0.000486	4.864860	0.824130	-0.000097
 916	9.1043e+01	1.7729	29.481184	0.000608	6.081075	1.030162	-0.000122
 917	9.1142e+01	1.7515	29.315661	0.000831	8.310802	1.407888	-0.000166
 918	9.1242e+01	1.7312	29.170324	0.000730	7.297290	1.236194	-0.000146
 919	9.1341e+01	1.7125	29.057284	0.000568	5.675670	0.961484	-0.000114
 920	9.1441e+01	1.6916	28.936170	0.000608	6.081075	1.030162	-0.000122
 921	9.1540e+01	1.6735	28.790834	0.000730	7.297290	1.236194	-0.000146
 922	9.1639e+01	1.6525	28.669719	0.000608	6.081075	1.030162	-0.000122
 923	9.1739e+01	1.6324	28.528420	0.000709	7.094587	1.201856	-0.000142
 924	9.1838e+01	1.6131	28.411343	0.000588	5.878372	0.995823	-0.000118
 925	9.1938e+01	1.5922	28.306377	0.000527	5.270265	0.892807	-0.000105
 926	9.2037e+01	1.5736	28.185263	0.000608	6.081075	1.030162	-0.000122
 927	9.2137e+01	1.5531	28.035889	0.000750	7.499992	1.270533	-0.000150
 928	9.2237e+01	1.5331	27.898627	0.000689	6.891885	1.167517	-0.000138
 929	9.2336e+01	1.5140	27.773475	0.000628	6.283777	1.064501	-0.000126
 930	9.2436e+01	1.4924	27.632176	0.000709	7.094587	1.201856	-0.000142
 931	9.2535e+01	1.4732	27.519136	0.000568	5.675670	0.961484	-0.000114
 932	9.2635e+01	1.4524	27.406096	0.000568	5.675670	0.961484	-0.000114
 933	9.2734e+01	1.4334	27.280945	0.000628	6.283777	1.064501	-0.000126
 934	9.2834e+01	1.4134	27.115422	0.000831	8.310802	1.407888	-0.000166
 935	9.2933e+01	1.3935	26.978160	0.000689	6.891885	1.167517	-0.000138
 936	9.3032e+01	1.3740	26.844934	0.000669	6.689182	1.133178	-0.000134
 937	9.3132e+01	1.3544	26.772266	0.000365	3.648645	0.618097	-0.000073
 938	9.3231e+01	1.3333	26.655189	0.000588	5.878372	0.995823	-0.000118
 939	9.3331e+01	1.3127	26.481592	0.000872	8.716207	1.476565	-0.000174
 940	9.3430e+01	1.2942	26.364515	0.000588	5.878372	0.995823	-0.000118
 941	9.3530e+01	1.2740	26.223215	0.000709	7.094587	1.201856	-0.000142
 942	9.3629e+01	1.2551	26.089990	0.000669	6.689182	1.133178	-0.000134
 943	9.3729e+01	1.2339	25.976950	0.000568	5.675670	0.961484	-0.000114
 944	9.3829e+01	1.2139	25.827576	0.000750	7.499992	1.270533	-0.000150
 945	9.3928e+01	1.1941	25.702425	0.000628	6.283777	1.064501	-0.000126
 946	9.4028e+01	1.1743	25.573236	0.000649	6.486480	1.098839	-0.000130
 947	9.4127e+01	1.1552	25.427899	0.000730	7.297290	1.236194	-0.000146
 948	9.4227e+01	1.1342	25.294674	0.000669	6.689182	1.133178	-0.000134
 949	9.4326e+01	1.1149	25.193746	0.000507	5.067562	0.858468	-0.000101
 950	9.4425e+01	1.0944	25.080706	0.000568	5.675670	0.961484	-0.000114
 951	9.4525e+01	1.0746	24.923257	0.000791	7.905397	1.339211	-0.000158
 952	9.4624e+01	1.0549	24.790032	0.000669	6.689182	1.133178	-0.000134
 953	9.4724e+01	1.0357	24.668918	0.000608	6.081075	1.030162	-0.000122
 954	9.4823e+01	1.0154	24.499358	0.000851	8.513505	1.442227	-0.000170
 955	9.4923e+01	0.9957	24.398430	0.000507	5.067562	0.858468	-0.000101
 956	9.5022e+01	0.9751	24.265204	0.000669	6.689182	1.133178	-0.000134
 957	9.5122e+01	0.9561	24.131979	0.000669	6.689182	1.133178	-0.000134
 958	9.5222e+01	0.9357	23.994716	0.000689	6.891885	1.167517	-0.000138
 959	9.5321e+01	0.9155	23.845342	0.000750	7.499992	1.270533	-0.000150
 960	9.5421e+01	0.8960	23.700005	0.000730	7.297290	1.236194	-0.000146
 961	9.5520e+01	0.8762	23.591003	0.000547	5.472967	0.927146	-0.000110
 962	9.5620e+01	0.8564	23.433554	0.000791	7.905397	1.339211	-0.000158
 963	9.5719e+01	0.8358	23.308403	0.000628	6.283777	1.064501	-0.000126
 964	9.5819e+01	0.8159	23.207475	0.000507	5.067562	0.858468	-0.000101
 965	9.5918e+01	0.7959	23.070212	0.000689	6.891885	1.167517	-0.000138
 966	9.6017e+01	0.7763	22.924875	0.000730	7.297290	1.236194	-0.000146
 967	9.6117e+01	0.7557	22.795687	0.000649	6.486480	1.098839	-0.000130
 968	9.6216e+01	0.7366	22.646313	0.000750	7.499992	1.270533	-0.000150
 969	9.6316e+01	0.7166	22.505013	0.000709	7.094587	1.201856	-0.000142
 970	9.6415e+01	0.6963	22.375825	0.000649	6.486480	1.098839	-0.000130
 971	9.6515e+01	0.6769	22.218377	0.000791	7.905397	1.339211	-0.000158
 972	9.6615e+01	0.6564	22.097262	0.000608	6.081075	1.030162	-0.000122
 973	9.6714e+01	0.6375	21.943851	0.000770	7.702695	1.304872	-0.000154
 974	9.6814e+01	0.6161	21.818700	0.000628	6.283777	1.064501	-0.000126
 975	9.6913e+01	0.5972	21.709697	0.000547	5.472967	0.927146	-0.000110
 976	9.7013e+01	0.5772	21.576472	0.000669	6.689182	1.133178	-0.000134
 977	9.7112e+01	0.5575	21.423061	0.000770	7.702695	1.304872	-0.000154
 978	9.7212e+01	0.5376	21.297910	0.000628	6.283777	1.064501	-0.000126
 979	9.7311e+01	0.5177	21.184870	0.000568	5.675670	0.961484	-0.000114
 980	9.7410e+01	0.4969	21.019347	0.000831	8.310802	1.407888	-0.000166
 981	9.7510e+01	0.4776	20.910345	0.000547	5.472967	0.927146	-0.000110
 982	9.7609e+01	0.4571	20.777119	0.000669	6.689182	1.133178	-0.000134
 983	9.7709e+01	0.4379	20.627745	0.000750	7.499992	1.270533	-0.000150
 984	9.7808e+01	0.4176	20.538928	0.000446	4.459455	0.755452	-0.000089
 985	9.7908e+01	0.3977	20.365331	0.000872	8.716207	1.476565	-0.000174
 986	9.8007e+01	0.3781	20.248254	0.000588	5.878372	0.995823	-0.000118
 987	9.8107e+01	0.3574	20.082732	0.000831	8.310802	1.407888	-0.000166
 988	9.8207e+01	0.3376	19.981803	0.000507	5.067562	0.858468	-0.000101
 989	9.8306e+01	0.3179	19.844541	0.000689	6.891885	1.167517	-0.000138
 990	9.8406e+01	0.2976	19.683055	0.000811	8.108100	1.373549	-0.000162
 991	9.8505e+01	0.2781	19.586164	0.000486	4.864860	0.824130	-0.000097
 992	9.8605e+01	0.2583	19.436790	0.000750	7.499992	1.270533	-0.000150
 993	9.8704e+01	0.2390	19.315676	0.000608	6.081075	1.030162	-0.000122
 994	9.8803e+01	0.2188	19.170339	0.000730	7.297290	1.236194	-0.000146
 995	9.8903e+01	0.1981	19.073448	0.000486	4.864860	0.824130	-0.000097
 996	9.9002e+01	0.1791	18.895814	0.000892	8.918910	1.510904	-0.000179
 997	9.9102e+01	0.1585	18.770663	0.000628	6.283777	1.064501	-0.000126
 998	9.9201e+01	0.1383	18.597066	0.000872	8.716207	1.476565	-0.000174
 999	9.9301e+01	0.1188	18.484026	0.000568	5.675670	0.961484	-0.000114
1000	9.9400e+01	0.0988	18.370986	0.000568	5.675670	0.961484	-0.000114
1001	9.9500e+01	0.0788	18.253909	0.000588	5.878372	0.995823	-0.000118
1002	9.9600e+01	0.0585	18.124721	0.000649	6.486480	1.098839	-0.000130
1003	9.9699e+01	0.0392	17.959198	0.000831	8.310802	1.407888	-0.000166
1004	9.9799e+01	0.0189	17.830010	0.000649	6.486480	1.098839	-0.000130
1005	9.9898e+01	-0.0011	17.688710	0.000709	7.094587	1.201856	-0.000142
1006	9.9998e+01	-0.0198	17.547410	0.000709	7.094587	1.201856	-0.000142
1007	1.0010e+02	-0.0385	17.430334	0.000588	5.878372	0.995823	-0.000118
1008	1.0020e+02	-0.0590	17.305182	0.000628	6.283777	1.064501	-0.000126
1009	1.0030e+02	-0.0785	17.131586	0.000872	8.716207	1.476565	-0.000174
1010	1.0040e+02	-0.0987	17.030657	0.000507	5.067562	0.858468	-0.000101
1011	1.0050e+02	-0.1189	16.857060	0.000872	8.716207	1.476565	-0.000174
1012	1.0059e+02	-0.1395	16.731909	0.000628	6.283777	1.064501	-0.000126
1013	1.0069e+02	-0.1584	16.562349	0.000851	8.513505	1.442227	-0.000170
1014	1.0079e+02	-0.1780	16.473532	0.000446	4.459455	0.755452	-0.000089
1015	1.0089e+02	-0.1989	16.352418	0.000608	6.081075	1.030162	-0.000122
1016	1.0099e+02	-0.2190	16.146524	0.001034	10.337827	1.751275	-0.000207
1017	1.0109e+02	-0.2379	16.041559	0.000527	5.270265	0.892807	-0.000105
1018	1.0119e+02	-0.2579	15.912371	0.000649	6.486480	1.098839	-0.000130
1019	1.0129e+02	-0.2776	15.811442	0.000507	5.067562	0.858468	-0.000101
1020	1.0139e+02	-0.2979	15.641882	0.000851	8.513505	1.442227	-0.000170
1021	1.0149e+02	-0.3178	15.492508	0.000750	7.499992	1.270533	-0.000150
1022	1.0159e+02	-0.3376	15.351209	0.000709	7.094587	1.201856	-0.000142
1023	1.0169e+02	-0.3571	15.258355	0.000466	4.662157	0.789791	-0.000093
1024	1.0179e+02	-0.3781	15.121092	0.000689	6.891885	1.167517	-0.000138
1025	1.0189e+02	-0.3978	14.927309	0.000973	9.729720	1.648259	-0.000195
1026	1.0199e+02	-0.4176	14.826381	0.000507	5.067562	0.858468	-0.000101
1027	1.0209e+02	-0.4372	14.664896	0.000811	8.108100	1.373549	-0.000162
1028	1.0219e+02	-0.4578	14.563967	0.000507	5.067562	0.858468	-0.000101
1029	1.0229e+02	-0.4789	14.394407	0.000851	8.513505	1.442227	-0.000170
1030	1.0239e+02	-0.4973	14.281368	0.000568	5.675670	0.961484	-0.000114
1031	1.0248e+02	-0.5168	14.152179	0.000649	6.486480	1.098839	-0.000130
1032	1.0258e+02	-0.5373	13.982620	0.000851	8.513505	1.442227	-0.000170
1033	1.0268e+02	-0.5572	13.849394	0.000669	6.689182	1.133178	-0.000134
1034	1.0278e+02	-0.5770	13.695983	0.000770	7.702695	1.304872	-0.000154
1035	1.0288e+02	-0.5967	13.570832	0.000628	6.283777	1.064501	-0.000126
1036	1.0298e+02	-0.6166	13.437606	0.000669	6.689182	1.133178	-0.000134
1037	1.0308e+02	-0.6369	13.288232	0.000750	7.499992	1.270533	-0.000150
1038	1.0318e+02	-0.6563	13.118673	0.000851	8.513505	1.442227	-0.000170
1039	1.0328e+02	-0.6761	12.985447	0.000669	6.689182	1.133178	-0.000134
1040	1.0338e+02	-0.6966	12.876444	0.000547	5.472967	0.927146	-0.000110
1041	1.0348e+02	-0.7164	12.731108	0.000730	7.297290	1.236194	-0.000146
1042	1.0358e+02	-0.7357	12.589808	0.000709	7.094587	1.201856	-0.000142
1043	1.0368e+02	-0.7572	12.456582	0.000669	6.689182	1.133178	-0.000134
1044	1.0378e+02	-0.7762	12.311245	0.000730	7.297290	1.236194	-0.000146
1045	1.0388e+02	-0.7956	12.153797	0.000791	7.905397	1.339211	-0.000158
1046	1.0398e+02	-0.8160	12.020572	0.000669	6.689182	1.133178	-0.000134
1047	1.0408e+02	-0.8366	11.895420	0.000628	6.283777	1.064501	-0.000126
1048	1.0418e+02	-0.8569	11.737972	0.000791	7.905397	1.339211	-0.000158
1049	1.0428e+02	-0.8761	11.580524	0.000791	7.905397	1.339211	-0.000158
1050	1.0438e+02	-0.8955	11.495744	0.000426	4.256752	0.721113	-0.000085
1051	1.0447e+02	-0.9164	11.358481	0.000689	6.891885	1.167517	-0.000138
1052	1.0457e+02	-0.9357	11.192959	0.000831	8.310802	1.407888	-0.000166
1053	1.0467e+02	-0.9560	11.059733	0.000669	6.689182	1.133178	-0.000134
1054	1.0477e+02	-0.9749	10.938619	0.000608	6.081075	1.030162	-0.000122
1055	1.0487e+02	-0.9957	10.805394	0.000669	6.689182	1.133178	-0.000134
1056	1.0497e+02	-1.0149	10.664094	0.000709	7.094587	1.201856	-0.000142
1057	1.0507e+02	-1.0350	10.534906	0.000649	6.486480	1.098839	-0.000130
1058	1.0517e+02	-1.0558	10.361309	0.000872	8.716207	1.476565	-0.000174
1059	1.0527e+02	-1.0759	10.220009	0.000709	7.094587	1.201856	-0.000142
1060	1.0537e+02	-1.0955	10.070635	0.000750	7.499992	1.270533	-0.000150
1061	1.0547e+02	-1.1145	9.913187	0.000791	7.905397	1.339211	-0.000158
1062	1.0557e+02	-1.1355	9.836481	0.000385	3.851347	0.652436	-0.000077
1063	1.0567e+02	-1.1549	9.674996	0.000811	8.108100	1.373549	-0.000162
1064	1.0577e+02	-1.1742	9.501399	0.000872	8.716207	1.476565	-0.000174
1065	1.0587e+02	-1.1951	9.368173	0.000669	6.689182	1.133178	-0.000134
1066	1.0597e+02	-1.2149	9.210725	0.000791	7.905397	1.339211	-0.000158
1067	1.0607e+02	-1.2347	9.109797	0.000507	5.067562	0.858468	-0.000101
1068	1.0617e+02	-1.2549	8.948311	0.000811	8.108100	1.373549	-0.000162
1069	1.0627e+02	-1.2737	8.790863	0.000791	7.905397	1.339211	-0.000158
1070	1.0637e+02	-1.2939	8.677823	0.000568	5.675670	0.961484	-0.000114
1071	1.0647e+02	-1.3147	8.524412	0.000770	7.702695	1.304872	-0.000154
1072	1.0656e+02	-1.3338	8.387149	0.000689	6.891885	1.167517	-0.000138
1073	1.0666e+02	-1.3535	8.221627	0.000831	8.310802	1.407888	-0.000166
1074	1.0676e+02	-1.3735	8.076290	0.000730	7.297290	1.236194	-0.000146
1075	1.0686e+02	-1.3934	7.955176	0.000608	6.081075	1.030162	-0.000122
1076	1.0696e+02	-1.4139	7.825988	0.000649	6.486480	1.098839	-0.000130
1077	1.0706e+02	-1.4337	7.632205	0.000973	9.729720	1.648259	-0.000195
1078	1.0716e+02	-1.4558	7.490905	0.000709	7.094587	1.201856	-0.000142
1079	1.0726e+02	-1.4736	7.325383	0.000831	8.310802	1.407888	-0.000166
1080	1.0736e+02	-1.4930	7.224454	0.000507	5.067562	0.858468	-0.000101
1081	1.0746e+02	-1.5133	7.091229	0.000669	6.689182	1.133178	-0.000134
1082	1.0756e+02	-1.5335	6.913595	0.000892	8.918910	1.510904	-0.000179
1083	1.0766e+02	-1.5537	6.764221	0.000750	7.499992	1.270533	-0.000150
1084	1.0776e+02	-1.5732	6.635033	0.000649	6.486480	1.098839	-0.000130
1085	1.0786e+02	-1.5921	6.513919	0.000608	6.081075	1.030162	-0.000122
1086	1.0796e+02	-1.6129	6.356470	0.000791	7.905397	1.339211	-0.000158
1087	1.0806e+02	-1.6330	6.215170	0.000709	7.094587	1.201856	-0.000142
1088	1.0816e+02	-1.6528	6.041574	0.000872	8.716207	1.476565	-0.000174
1089	1.0826e+02	-1.6721	5.936608	0.000527	5.270265	0.892807	-0.000105
1090	1.0836e+02	-1.6925	5.787234	0.000750	7.499992	1.270533	-0.000150
1091	1.0845e+02	-1.7123	5.670157	0.000588	5.878372	0.995823	-0.000118
1092	1.0855e+02	-1.7324	5.516746	0.000770	7.702695	1.304872	-0.000154
1093	1.0865e+02	-1.7520	5.379483	0.000689	6.891885	1.167517	-0.000138
1094	1.0875e+02	-1.7725	5.238184	0.000709	7.094587	1.201856	-0.000142
1095	1.0885e+02	-1.7919	5.056513	0.000912	9.121612	1.545243	-0.000183
1096	1.0895e+02	-1.8124	4.931361	0.000628	6.283777	1.064501	-0.000126
1097	1.0905e+02	-1.8319	4.794099	0.000689	6.891885	1.167517	-0.000138
1098	1.0915e+02	-1.8522	4.632613	0.000811	8.108100	1.373549	-0.000162
1099	1.0925e+02	-1.8716	4.491314	0.000709	7.094587	1.201856	-0.000142
1100	1.0935e+02	-1.8919	4.313680	0.000892	8.918910	1.510904	-0.000179
1101	1.0945e+02	-1.9125	4.204677	0.000547	5.472967	0.927146	-0.000110
1102	1.0955e+02	-1.9317	4.067414	0.000689	6.891885	1.167517	-0.000138
1103	1.0965e+02	-1.9517	3.926115	0.000709	7.094587	1.201856	-0.000142
1104	1.0975e+02	-1.9718	3.792889	0.000669	6.689182	1.133178	-0.000134
1105	1.0985e+02	-1.9911	3.675812	0.000588	5.878372	0.995823	-0.000118
1106	1.0995e+02	-2.0117	3.502215	0.000872	8.716207	1.476565	-0.000174
1107	1.1005e+02	-2.0309	3.373027	0.000649	6.486480	1.098839	-0.000130
1108	1.1015e+02	-2.0514	3.247876	0.000628	6.283777	1.064501	-0.000126
1109	1.1025e+02	-2.0705	3.110613	0.000689	6.891885	1.167517	-0.000138
1110	1.1035e+02	-2.0908	2.961239	0.000750	7.499992	1.270533	-0.000150
1111	1.1044e+02	-2.1121	2.819939	0.000709	7.094587	1.201856	-0.000142
1112	1.1054e+02	-2.1306	2.658454	0.000811	8.108100	1.373549	-0.000162
1113	1.1064e+02	-2.1508	2.573674	0.000426	4.256752	0.721113	-0.000085
1114	1.1074e+02	-2.1715	2.375854	0.000993	9.932422	1.682598	-0.000199
1115	1.1084e+02	-2.1909	2.226480	0.000750	7.499992	1.270533	-0.000150
1116	1.1094e+02	-2.2113	2.129589	0.000486	4.864860	0.824130	-0.000097
1117	1.1104e+02	-2.2304	1.964067	0.000831	8.310802	1.407888	-0.000166
1118	1.1114e+02	-2.2510	1.798544	0.000831	8.310802	1.407888	-0.000166
1119	1.1124e+02	-2.2707	1.673393	0.000628	6.283777	1.064501	-0.000126
1120	1.1134e+02	-2.2900	1.515944	0.000791	7.905397	1.339211	-0.000158
1121	1.1144e+02	-2.3100	1.382719	0.000669	6.689182	1.133178	-0.000134
1122	1.1154e+02	-2.3305	1.285828	0.000486	4.864860	0.824130	-0.000097
1123	1.1164e+02	-2.3510	1.100119	0.000932	9.324315	1.579582	-0.000187
1124	1.1174e+02	-2.3701	0.918448	0.000912	9.121612	1.545243	-0.000183
1125	1.1184e+02	-2.3901	0.793297	0.000628	6.283777	1.064501	-0.000126
1126	1.1194e+02	-2.4099	0.688332	0.000527	5.270265	0.892807	-0.000105
1127	1.1204e+02	-2.4306	0.526846	0.000811	8.108100	1.373549	-0.000162
1128	1.1214e+02	-2.4503	0.341138	0.000932	9.324315	1.579582	-0.000187
1129	1.1224e+02	-2.4693	0.252321	0.000446	4.459455	0.755452	-0.000089
1130	1.1234e+02	-2.4902	0.098910	0.000770	7.702695	1.304872	-0.000154
1131	1.1244e+02	-2.5092	-0.042390	0.000709	7.094587	1.201856	-0.000142
1132	1.1253e+02	-2.5295	-0.175615	0.000669	6.689182	1.133178	-0.000134
1133	1.1263e+02	-2.5488	-0.329027	0.000770	7.702695	1.304872	-0.000154
1134	1.1273e+02	-2.5691	-0.462252	0.000669	6.689182	1.133178	-0.000134
1135	1.1283e+02	-2.5888	-0.631812	0.000851	8.513505	1.442227	-0.000170
1136	1.1293e+02	-2.6083	-0.765037	0.000669	6.689182	1.133178	-0.000134
1137	1.1303e+02	-2.6292	-0.894226	0.000649	6.486480	1.098839	-0.000130
1138	1.1313e+02	-2.6483	-1.051674	0.000791	7.905397	1.339211	-0.000158
1139	1.1323e+02	-2.6682	-1.184899	0.000669	6.689182	1.133178	-0.000134
1140	1.1333e+02	-2.6883	-1.346385	0.000811	8.108100	1.373549	-0.000162
1141	1.1343e+02	-2.7084	-1.467499	0.000608	6.081075	1.030162	-0.000122
1142	1.1353e+02	-2.7289	-1.624947	0.000791	7.905397	1.339211	-0.000158
1143	1.1363e+02	-2.7486	-1.709727	0.000426	4.256752	0.721113	-0.000085
1144	1.1373e+02	-2.7686	-1.891398	0.000912	9.121612	1.545243	-0.000183
1145	1.1383e+02	-2.7884	-2.016549	0.000628	6.283777	1.064501	-0.000126
1146	1.1393e+02	-2.8076	-2.194183	0.000892	8.918910	1.510904	-0.000179
1147	1.1403e+02	-2.8279	-2.274926	0.000405	4.054050	0.686775	-0.000081
1148	1.1413e+02	-2.8477	-2.408151	0.000669	6.689182	1.133178	-0.000134
1149	1.1423e+02	-2.8680	-2.581748	0.000872	8.716207	1.476565	-0.000174
1150	1.1433e+02	-2.8869	-2.710937	0.000649	6.486480	1.098839	-0.000130
1151	1.1442e+02	-2.9074	-2.864348	0.000770	7.702695	1.304872	-0.000154
1152	1.1452e+02	-2.9279	-3.017759	0.000770	7.702695	1.304872	-0.000154
1153	1.1462e+02	-2.9471	-3.122724	0.000527	5.270265	0.892807	-0.000105
1154	1.1472e+02	-2.9674	-3.251913	0.000649	6.486480	1.098839	-0.000130
1155	1.1482e+02	-2.9872	-3.405324	0.000770	7.702695	1.304872	-0.000154
1156	1.1492e+02	-3.0087	-3.566809	0.000811	8.108100	1.373549	-0.000162
1157	1.1502e+02	-3.0270	-3.700035	0.000669	6.689182	1.133178	-0.000134
1158	1.1512e+02	-3.0473	-3.809038	0.000547	5.472967	0.927146	-0.000110
1159	1.1522e+02	-3.0669	-3.978597	0.000851	8.513505	1.442227	-0.000170
1160	1.1532e+02	-3.0871	-4.111823	0.000669	6.689182	1.133178	-0.000134
1161	1.1542e+02	-3.1071	-4.200640	0.000446	4.459455	0.755452	-0.000089
1162	1.1552e+02	-3.1269	-4.370199	0.000851	8.513505	1.442227	-0.000170
1163	1.1562e+02	-3.1474	-4.503425	0.000669	6.689182	1.133178	-0.000134
1164	1.1572e+02	-3.1667	-4.624539	0.000608	6.081075	1.030162	-0.000122
1165	1.1582e+02	-3.1860	-4.773913	0.000750	7.499992	1.270533	-0.000150
1166	1.1592e+02	-3.2066	-4.919250	0.000730	7.297290	1.236194	-0.000146
1167	1.1602e+02	-3.2264	-5.064587	0.000730	7.297290	1.236194	-0.000146
1168	1.1612e+02	-3.2474	-5.189738	0.000628	6.283777	1.064501	-0.000126
1169	1.1622e+02	-3.2666	-5.331038	0.000709	7.094587	1.201856	-0.000142
1170	1.1632e+02	-3.2858	-5.496560	0.000831	8.310802	1.407888	-0.000166
1171	1.1642e+02	-3.3060	-5.609600	0.000568	5.675670	0.961484	-0.000114
1172	1.1651e+02	-3.3258	-5.726677	0.000588	5.878372	0.995823	-0.000118
1173	1.1661e+02	-3.3461	-5.920460	0.000973	9.729720	1.648259	-0.000195
1174	1.1671e+02	-3.3657	-6.005239	0.000426	4.256752	0.721113	-0.000085
1175	1.1681e+02	-3.3858	-6.170762	0.000831	8.310802	1.407888	-0.000166
1176	1.1691e+02	-3.4056	-6.247468	0.000385	3.851347	0.652436	-0.000077
1177	1.1701e+02	-3.4256	-6.417027	0.000851	8.513505	1.442227	-0.000170
1178	1.1711e+02	-3.4458	-6.606773	0.000953	9.527017	1.613920	-0.000191
1179	1.1721e+02	-3.4659	-6.719812	0.000568	5.675670	0.961484	-0.000114
1180	1.1731e+02	-3.4853	-6.844964	0.000628	6.283777	1.064501	-0.000126
1181	1.1741e+02	-3.5046	-6.978189	0.000669	6.689182	1.133178	-0.000134
1182	1.1751e+02	-3.5255	-7.107377	0.000649	6.486480	1.098839	-0.000130
1183	1.1761e+02	-3.5461	-7.216380	0.000547	5.472967	0.927146	-0.000110
1184	1.1771e+02	-3.5651	-7.369791	0.000770	7.702695	1.304872	-0.000154
1185	1.1781e+02	-3.5846	-7.527240	0.000791	7.905397	1.339211	-0.000158
1186	1.1791e+02	-3.6041	-7.704874	0.000892	8.918910	1.510904	-0.000179
1187	1.1801e+02	-3.6249	-7.813876	0.000547	5.472967	0.927146	-0.000110
1188	1.1811e+02	-3.6447	-7.930953	0.000588	5.878372	0.995823	-0.000118
1189	1.1821e+02	-3.6649	-8.116661	0.000932	9.324315	1.579582	-0.000187
1190	1.1831e+02	-3.6846	-8.233738	0.000588	5.878372	0.995823	-0.000118
1191	1.1841e+02	-3.7042	-8.399261	0.000831	8.310802	1.407888	-0.000166
1192	1.1850e+02	-3.7248	-8.524412	0.000628	6.283777	1.064501	-0.000126
1193	1.1860e+02	-3.7454	-8.645526	0.000608	6.081075	1.030162	-0.000122
1194	1.1870e+02	-3.7650	-8.790863	0.000730	7.297290	1.236194	-0.000146
1195	1.1880e+02	-3.7848	-8.924089	0.000669	6.689182	1.133178	-0.000134
1196	1.1890e+02	-3.8043	-9.057314	0.000669	6.689182	1.133178	-0.000134
1197	1.1900e+02	-3.8243	-9.194577	0.000689	6.891885	1.167517	-0.000138
1198	1.1910e+02	-3.8437	-9.335876	0.000709	7.094587	1.201856	-0.000142
1199	1.1920e+02	-3.8634	-9.485250	0.000750	7.499992	1.270533	-0.000150
1200	1.1930e+02	-3.8830	-9.610402	0.000628	6.283777	1.064501	-0.000126
1201	1.1940e+02	-3.9040	-9.719404	0.000547	5.472967	0.927146	-0.000110
1202	1.1950e+02	-3.9241	-9.864741	0.000730	7.297290	1.236194	-0.000146
1203	1.1960e+02	-3.9432	-9.989892	0.000628	6.283777	1.064501	-0.000126
1204	1.1970e+02	-3.9630	-10.187712	0.000993	9.932422	1.682598	-0.000199
1205	1.1980e+02	-3.9830	-10.312863	0.000628	6.283777	1.064501	-0.000126
1206	1.1990e+02	-4.0028	-10.425903	0.000568	5.675670	0.961484	-0.000114
1207	1.2000e+02	-4.0230	-10.579314	0.000770	7.702695	1.304872	-0.000154
1208	1.2010e+02	-4.0436	-10.704465	0.000628	6.283777	1.064501	-0.000126
1209	1.2020e+02	-4.0637	-10.837691	0.000669	6.689182	1.133178	-0.000134
1210	1.2030e+02	-4.0827	-10.962842	0.000628	6.283777	1.064501	-0.000126
1211	1.2039e+02	-4.1032	-11.079919	0.000588	5.878372	0.995823	-0.000118
1212	1.2049e+02	-4.1228	-11.273702	0.000973	9.729720	1.648259	-0.000195
1213	1.2059e+02	-4.1427	-11.366556	0.000466	4.662157	0.789791	-0.000093
1214	1.2069e+02	-4.1627	-11.499781	0.000669	6.689182	1.133178	-0.000134
1215	1.2079e+02	-4.1827	-11.665304	0.000831	8.310802	1.407888	-0.000166
1216	1.2089e+02	-4.2027	-11.786418	0.000608	6.081075	1.030162	-0.000122
1217	1.2099e+02	-4.2221	-11.915606	0.000649	6.486480	1.098839	-0.000130
1218	1.2109e+02	-4.2422	-12.044794	0.000649	6.486480	1.098839	-0.000130
1219	1.2119e+02	-4.2628	-12.194168	0.000750	7.499992	1.270533	-0.000150
1220	1.2129e+02	-4.2831	-12.303171	0.000547	5.472967	0.927146	-0.000110
1221	1.2139e+02	-4.3028	-12.448508	0.000730	7.297290	1.236194	-0.000146
1222	1.2149e+02	-4.3219	-12.597882	0.000750	7.499992	1.270533	-0.000150
1223	1.2159e+02	-4.3420	-12.714959	0.000588	5.878372	0.995823	-0.000118
1224	1.2169e+02	-4.3623	-12.860296	0.000730	7.297290	1.236194	-0.000146
1225	1.2179e+02	-4.3827	-13.009670	0.000750	7.499992	1.270533	-0.000150
1226	1.2189e+02	-4.4012	-13.126747	0.000588	5.878372	0.995823	-0.000118
1227	1.2199e+02	-4.4220	-13.255935	0.000649	6.486480	1.098839	-0.000130
1228	1.2209e+02	-4.4412	-13.381086	0.000628	6.283777	1.064501	-0.000126
1229	1.2219e+02	-4.4609	-13.542572	0.000811	8.108100	1.373549	-0.000162
1230	1.2229e+02	-4.4817	-13.643500	0.000507	5.067562	0.858468	-0.000101
1231	1.2239e+02	-4.5015	-13.809023	0.000831	8.310802	1.407888	-0.000166
1232	1.2248e+02	-4.5216	-13.918025	0.000547	5.472967	0.927146	-0.000110
1233	1.2258e+02	-4.5421	-14.095659	0.000892	8.918910	1.510904	-0.000179
1234	1.2268e+02	-4.5617	-14.232922	0.000689	6.891885	1.167517	-0.000138
1235	1.2278e+02	-4.5805	-14.341925	0.000547	5.472967	0.927146	-0.000110
1236	1.2288e+02	-4.6005	-14.499373	0.000791	7.905397	1.339211	-0.000158
1237	1.2298e+02	-4.6204	-14.608376	0.000547	5.472967	0.927146	-0.000110
1238	1.2308e+02	-4.6402	-14.786010	0.000892	8.918910	1.510904	-0.000179
1239	1.2318e+02	-4.6619	-14.931347	0.000730	7.297290	1.236194	-0.000146
1240	1.2328e+02	-4.6815	-15.040349	0.000547	5.472967	0.927146	-0.000110
1241	1.2338e+02	-4.7000	-15.193760	0.000770	7.702695	1.304872	-0.000154
1242	1.2348e+02	-4.7214	-15.310837	0.000588	5.878372	0.995823	-0.000118
1243	1.2358e+02	-4.7412	-15.452137	0.000709	7.094587	1.201856	-0.000142
1244	1.2368e+02	-4.7611	-15.597474	0.000730	7.297290	1.236194	-0.000146
1245	1.2378e+02	-4.7803	-15.726662	0.000649	6.486480	1.098839	-0.000130
1246	1.2388e+02	-4.8001	-15.871999	0.000730	7.297290	1.236194	-0.000146
1247	1.2398e+02	-4.8201	-15.981002	0.000547	5.472967	0.927146	-0.000110
1248	1.2408e+02	-4.8403	-16.150562	0.000851	8.513505	1.442227	-0.000170
1249	1.2418e+02	-4.8602	-16.271676	0.000608	6.081075	1.030162	-0.000122
1250	1.2428e+02	-4.8795	-16.408938	0.000689	6.891885	1.167517	-0.000138
1251	1.2438e+02	-4.9002	-16.521978	0.000568	5.675670	0.961484	-0.000114
1252	1.2447e+02	-4.9202	-16.731909	0.001054	10.540529	1.785614	-0.000211
1253	1.2457e+02	-4.9405	-16.824763	0.000466	4.662157	0.789791	-0.000093
1254	1.2467e+02	-4.9603	-16.970100	0.000730	7.297290	1.236194	-0.000146
1255	1.2477e+02	-4.9791	-17.095251	0.000628	6.283777	1.064501	-0.000126
1256	1.2487e+02	-4.9998	-17.220402	0.000628	6.283777	1.064501	-0.000126
1257	1.2497e+02	-5.0199	-17.329405	0.000547	5.472967	0.927146	-0.000110
1258	1.2507e+02	-5.0389	-17.535299	0.001034	10.337827	1.751275	-0.000207
1259	1.2517e+02	-5.0589	-17.624116	0.000446	4.459455	0.755452	-0.000089
1260	1.2527e+02	-5.0797	-17.737156	0.000568	5.675670	0.961484	-0.000114
1261	1.2537e+02	-5.0992	-17.898641	0.000811	8.108100	1.373549	-0.000162
1262	1.2547e+02	-5.1193	-18.023793	0.000628	6.283777	1.064501	-0.000126
1263	1.2557e+02	-5.1389	-18.148944	0.000628	6.283777	1.064501	-0.000126
1264	1.2567e+02	-5.1593	-18.314466	0.000831	8.310802	1.407888	-0.000166
1265	1.2577e+02	-5.1790	-18.431543	0.000588	5.878372	0.995823	-0.000118
1266	1.2587e+02	-5.1990	-18.584954	0.000770	7.702695	1.304872	-0.000154
1267	1.2597e+02	-5.2188	-18.685883	0.000507	5.067562	0.858468	-0.000101
1268	1.2607e+02	-5.2388	-18.871591	0.000932	9.324315	1.579582	-0.000187
1269	1.2617e+02	-5.2579	-18.996742	0.000628	6.283777	1.064501	-0.000126
1270	1.2627e+02	-5.2769	-19.097671	0.000507	5.067562	0.858468	-0.000101
1271	1.2636e+02	-5.2991	-19.226859	0.000649	6.486480	1.098839	-0.000130
1272	1.2646e+02	-5.3181	-19.347973	0.000608	6.081075	1.030162	-0.000122
1273	1.2656e+02	-5.3381	-19.521570	0.000872	8.716207	1.476565	-0.000174
1274	1.2666e+02	-5.3574	-19.658832	0.000689	6.891885	1.167517	-0.000138
1275	1.2676e+02	-5.3780	-19.739575	0.000405	4.054050	0.686775	-0.000081
1276	1.2686e+02	-5.3983	-19.901061	0.000811	8.108100	1.373549	-0.000162
1277	1.2696e+02	-5.4183	-20.038323	0.000689	6.891885	1.167517	-0.000138
1278	1.2706e+02	-5.4390	-20.187697	0.000750	7.499992	1.270533	-0.000150
1279	1.2716e+02	-5.4577	-20.345146	0.000791	7.905397	1.339211	-0.000158
1280	1.2726e+02	-5.4785	-20.446074	0.000507	5.067562	0.858468	-0.000101
1281	1.2736e+02	-5.4967	-20.579299	0.000669	6.689182	1.133178	-0.000134
1282	1.2746e+02	-5.5171	-20.688302	0.000547	5.472967	0.927146	-0.000110
1283	1.2756e+02	-5.5377	-20.821528	0.000669	6.689182	1.133178	-0.000134
1284	1.2766e+02	-5.5573	-20.970902	0.000750	7.499992	1.270533	-0.000150
1285	1.2776e+02	-5.5772	-21.140461	0.000851	8.513505	1.442227	-0.000170
1286	1.2786e+02	-5.5968	-21.221204	0.000405	4.054050	0.686775	-0.000081
1287	1.2796e+02	-5.6180	-21.386727	0.000831	8.310802	1.407888	-0.000166
1288	1.2806e+02	-5.6374	-21.499766	0.000568	5.675670	0.961484	-0.000114
1289	1.2816e+02	-5.6572	-21.624918	0.000628	6.283777	1.064501	-0.000126
1290	1.2826e+02	-5.6764	-21.786403	0.000811	8.108100	1.373549	-0.000162
1291	1.2835e+02	-5.6963	-21.915591	0.000649	6.486480	1.098839	-0.000130
1292	1.2845e+02	-5.7178	-22.048817	0.000669	6.689182	1.133178	-0.000134
1293	1.2855e+02	-5.7364	-22.202228	0.000770	7.702695	1.304872	-0.000154
1294	1.2865e+02	-5.7570	-22.307194	0.000527	5.270265	0.892807	-0.000105
1295	1.2875e+02	-5.7762	-22.448493	0.000709	7.094587	1.201856	-0.000142
1296	1.2885e+02	-5.7964	-22.533273	0.000426	4.256752	0.721113	-0.000085
1297	1.2895e+02	-5.8171	-22.731093	0.000993	9.932422	1.682598	-0.000199
1298	1.2905e+02	-5.8366	-22.856244	0.000628	6.283777	1.064501	-0.000126
1299	1.2915e+02	-5.8563	-22.961210	0.000527	5.270265	0.892807	-0.000105
1300	1.2925e+02	-5.8771	-23.078286	0.000588	5.878372	0.995823	-0.000118
1301	1.2935e+02	-5.8959	-23.239772	0.000811	8.108100	1.373549	-0.000162
1302	1.2945e+02	-5.9158	-23.352812	0.000568	5.675670	0.961484	-0.000114
1303	1.2955e+02	-5.9355	-23.526409	0.000872	8.716207	1.476565	-0.000174
1304	1.2965e+02	-5.9561	-23.647523	0.000608	6.081075	1.030162	-0.000122
1305	1.2975e+02	-5.9756	-23.784785	0.000689	6.891885	1.167517	-0.000138
1306	1.2985e+02	-5.9962	-23.938196	0.000770	7.702695	1.304872	-0.000154
1307	1.2995e+02	-6.0155	-24.051236	0.000568	5.675670	0.961484	-0.000114
1308	1.3005e+02	-6.0360	-24.204647	0.000770	7.702695	1.304872	-0.000154
1309	1.3015e+02	-6.0561	-24.354021	0.000750	7.499992	1.270533	-0.000150
1310	1.3025e+02	-6.0754	-24.458987	0.000527	5.270265	0.892807	-0.000105
1311	1.3034e+02	-6.0957	-24.592212	0.000669	6.689182	1.133178	-0.000134
1312	1.3044e+02	-6.1137	-24.741586	0.000750	7.499992	1.270533	-0.000150
1313	1.3054e+02	-6.1343	-24.874812	0.000669	6.689182	1.133178	-0.000134
1314	1.3064e+02	-6.1559	-25.012074	0.000689	6.891885	1.167517	-0.000138
1315	1.3074e+02	-6.1746	-25.108966	0.000486	4.864860	0.824130	-0.000097
1316	1.3084e+02	-6.1958	-25.266414	0.000791	7.905397	1.339211	-0.000158
1317	1.3094e+02	-6.2154	-25.403677	0.000689	6.891885	1.167517	-0.000138
1318	1.3104e+02	-6.2355	-25.524791	0.000608	6.081075	1.030162	-0.000122
1319	1.3114e+02	-6.2547	-25.637831	0.000568	5.675670	0.961484	-0.000114
1320	1.3124e+02	-6.2743	-25.815464	0.000892	8.918910	1.510904	-0.000179
1321	1.3134e+02	-6.2949	-25.932541	0.000588	5.878372	0.995823	-0.000118
1322	1.3144e+02	-6.3147	-26.041544	0.000547	5.472967	0.927146	-0.000110
1323	1.3154e+02	-6.3345	-26.170732	0.000649	6.486480	1.098839	-0.000130
1324	1.3164e+02	-6.3538	-26.352404	0.000912	9.121612	1.545243	-0.000183
1325	1.3174e+02	-6.3737	-26.473518	0.000608	6.081075	1.030162	-0.000122
1326	1.3184e+02	-6.3937	-26.606743	0.000669	6.689182	1.133178	-0.000134
1327	1.3194e+02	-6.4140	-26.768229	0.000811	8.108100	1.373549	-0.000162
1328	1.3204e+02	-6.4339	-26.909528	0.000709	7.094587	1.201856	-0.000142
1329	1.3214e+02	-6.4537	-27.030642	0.000608	6.081075	1.030162	-0.000122
1330	1.3224e+02	-6.4745	-27.163868	0.000669	6.689182	1.133178	-0.000134
1331	1.3234e+02	-6.4940	-27.317279	0.000770	7.702695	1.304872	-0.000154
1332	1.3243e+02	-6.5146	-27.414170	0.000486	4.864860	0.824130	-0.000097
1333	1.3253e+02	-6.5338	-27.583730	0.000851	8.513505	1.442227	-0.000170
1334	1.3263e+02	-6.5536	-27.737141	0.000770	7.702695	1.304872	-0.000154
1335	1.3273e+02	-6.5734	-27.874404	0.000689	6.891885	1.167517	-0.000138
1336	1.3283e+02	-6.5939	-27.991481	0.000588	5.878372	0.995823	-0.000118
1337	1.3293e+02	-6.6125	-28.144892	0.000770	7.702695	1.304872	-0.000154
1338	1.3303e+02	-6.6337	-28.282154	0.000689	6.891885	1.167517	-0.000138
1339	1.3313e+02	-6.6522	-28.423454	0.000709	7.094587	1.201856	-0.000142
1340	1.3323e+02	-6.6730	-28.560717	0.000689	6.891885	1.167517	-0.000138
1341	1.3333e+02	-6.6928	-28.722202	0.000811	8.108100	1.373549	-0.000162
1342	1.3343e+02	-6.7134	-28.855428	0.000669	6.689182	1.133178	-0.000134
1343	1.3353e+02	-6.7325	-29.012876	0.000791	7.905397	1.339211	-0.000158
1344	1.3363e+02	-6.7525	-29.150139	0.000689	6.891885	1.167517	-0.000138
1345	1.3373e+02	-6.7722	-29.311624	0.000811	8.108100	1.373549	-0.000162
1346	1.3383e+02	-6.7924	-29.469072	0.000791	7.905397	1.339211	-0.000158
1347	1.3393e+02	-6.8127	-29.578075	0.000547	5.472967	0.927146	-0.000110
1348	1.3403e+02	-6.8321	-29.751672	0.000872	8.716207	1.476565	-0.000174
1349	1.3413e+02	-6.8526	-29.876823	0.000628	6.283777	1.064501	-0.000126
1350	1.3423e+02	-6.8713	-30.026197	0.000750	7.499992	1.270533	-0.000150
1351	1.3432e+02	-6.8921	-30.183645	0.000791	7.905397	1.339211	-0.000158
1352	1.3442e+02	-6.9119	-30.345131	0.000811	8.108100	1.373549	-0.000162
1353	1.3452e+02	-6.9328	-30.482393	0.000689	6.891885	1.167517	-0.000138
1354	1.3462e+02	-6.9528	-30.639842	0.000791	7.905397	1.339211	-0.000158
1355	1.3472e+02	-6.9717	-30.773067	0.000669	6.689182	1.133178	-0.000134
1356	1.3482e+02	-6.9910	-30.942627	0.000851	8.513505	1.442227	-0.000170
1357	1.3492e+02	-7.0113	-31.083927	0.000709	7.094587	1.201856	-0.000142
1358	1.3502e+02	-7.0319	-31.277709	0.000973	9.729720	1.648259	-0.000195
1359	1.3512e+02	-7.0509	-31.406897	0.000649	6.486480	1.098839	-0.000130
1360	1.3522e+02	-7.0718	-31.572420	0.000831	8.310802	1.407888	-0.000166
1361	1.3532e+02	-7.0915	-31.721794	0.000750	7.499992	1.270533	-0.000150
1362	1.3542e+02	-7.1114	-31.867131	0.000730	7.297290	1.236194	-0.000146
1363	1.3552e+02	-7.1313	-32.020542	0.000770	7.702695	1.304872	-0.000154
1364	1.3562e+02	-7.1518	-32.177990	0.000791	7.905397	1.339211	-0.000158
1365	1.3572e+02	-7.1707	-32.339476	0.000811	8.108100	1.373549	-0.000162
1366	1.3582e+02	-7.1904	-32.541333	0.001014	10.135124	1.716937	-0.000203
1367	1.3592e+02	-7.2110	-32.710892	0.000851	8.513505	1.442227	-0.000170
1368	1.3602e+02	-7.2302	-32.844118	0.000669	6.689182	1.133178	-0.000134
1369	1.3612e+02	-7.2513	-33.021752	0.000892	8.918910	1.510904	-0.000179
1370	1.3622e+02	-7.2711	-33.175163	0.000770	7.702695	1.304872	-0.000154
1371	1.3631e+02	-7.2902	-33.356834	0.000912	9.121612	1.545243	-0.000183
1372	1.3641e+02	-7.3106	-33.494097	0.000689	6.891885	1.167517	-0.000138
1373	1.3651e+02	-7.3314	-33.655582	0.000811	8.108100	1.373549	-0.000162
1374	1.3661e+02	-7.3505	-33.865513	0.001054	10.540529	1.785614	-0.000211
1375	1.3671e+02	-7.3709	-34.022961	0.000791	7.905397	1.339211	-0.000158
1376	1.3681e+02	-7.3907	-34.148113	0.000628	6.283777	1.064501	-0.000126
1377	1.3691e+02	-7.4107	-34.345932	0.000993	9.932422	1.682598	-0.000199
1378	1.3701e+02	-7.4306	-34.511455	0.000831	8.310802	1.407888	-0.000166
1379	1.3711e+02	-7.4499	-34.616420	0.000527	5.270265	0.892807	-0.000105
1380	1.3721e+02	-7.4701	-34.838463	0.001115	11.148637	1.888630	-0.000223
1381	1.3731e+02	-7.4901	-34.995911	0.000791	7.905397	1.339211	-0.000158
1382	1.3741e+02	-7.5101	-35.213916	0.001095	10.945934	1.854291	-0.000219
1383	1.3751e+02	-7.5298	-35.387513	0.000872	8.716207	1.476565	-0.000174
1384	1.3761e+02	-7.5491	-35.573222	0.000932	9.324315	1.579582	-0.000187
1385	1.3771e+02	-7.5687	-35.706447	0.000669	6.689182	1.133178	-0.000134
1386	1.3781e+02	-7.5893	-35.896192	0.000953	9.527017	1.613920	-0.000191
1387	1.3791e+02	-7.6091	-36.061715	0.000831	8.310802	1.407888	-0.000166
1388	1.3801e+02	-7.6292	-36.247423	0.000932	9.324315	1.579582	-0.000187
1389	1.3811e+02	-7.6488	-36.384686	0.000689	6.891885	1.167517	-0.000138
1390	1.3821e+02	-7.6695	-36.614803	0.001155	11.554042	1.957308	-0.000231
1391	1.3831e+02	-7.6876	-36.772251	0.000791	7.905397	1.339211	-0.000158
1392	1.3840e+02	-7.7084	-36.957959	0.000932	9.324315	1.579582	-0.000187
1393	1.3850e+02	-7.7286	-37.147704	0.000953	9.527017	1.613920	-0.000191
1394	1.3860e+02	-7.7487	-37.301116	0.000770	7.702695	1.304872	-0.000154
1395	1.3870e+02	-7.7682	-37.515084	0.001074	10.743232	1.819953	-0.000215
1396	1.3880e+02	-7.7876	-37.688681	0.000872	8.716207	1.476565	-0.000174
1397	1.3890e+02	-7.8082	-37.906686	0.001095	10.945934	1.854291	-0.000219
1398	1.3900e+02	-7.8274	-38.092394	0.000932	9.324315	1.579582	-0.000187
1399	1.3910e+02	-7.8479	-38.282140	0.000953	9.527017	1.613920	-0.000191
1400	1.3920e+02	-7.8683	-38.512256	0.001155	11.554042	1.957308	-0.000231
1401	1.3930e+02	-7.8877	-38.693927	0.000912	9.121612	1.545243	-0.000183
1402	1.3940e+02	-7.9070	-38.871561	0.000892	8.918910	1.510904	-0.000179
1403	1.3950e+02	-7.9279	-39.061307	0.000953	9.527017	1.613920	-0.000191
1404	1.3960e+02	-7.9477	-39.263164	0.001014	10.135124	1.716937	-0.000203
1405	1.3970e+02	-7.9674	-39.477132	0.001074	10.743232	1.819953	-0.000215
1406	1.3980e+02	-7.9871	-39.658803	0.000912	9.121612	1.545243	-0.000183
1407	1.3990e+02	-8.0081	-39.884883	0.001135	11.351339	1.922969	-0.000227
1408	1.4000e+02	-8.0268	-40.102888	0.001095	10.945934	1.854291	-0.000219
1409	1.4010e+02	-8.0467	-40.292633	0.000953	9.527017	1.613920	-0.000191
1410	1.4020e+02	-8.0673	-40.530824	0.001196	11.959447	2.025985	-0.000239
1411	1.4029e+02	-8.0871	-40.700384	0.000851	8.513505	1.442227	-0.000170
1412	1.4039e+02	-8.1076	-40.934538	0.001176	11.756744	1.991646	-0.000235
1413	1.4049e+02	-8.1259	-41.152543	0.001095	10.945934	1.854291	-0.000219
1414	1.4059e+02	-8.1470	-41.370548	0.001095	10.945934	1.854291	-0.000219
1415	1.4069e+02	-8.1674	-41.552220	0.000912	9.121612	1.545243	-0.000183
1416	1.4079e+02	-8.1866	-41.774262	0.001115	11.148637	1.888630	-0.000223
1417	1.4089e+02	-8.2063	-42.032639	0.001297	12.972959	2.197679	-0.000260
1418	1.4099e+02	-8.2265	-42.210273	0.000892	8.918910	1.510904	-0.000179
1419	1.4109e+02	-8.2466	-42.395981	0.000932	9.324315	1.579582	-0.000187
1420	1.4119e+02	-8.2664	-42.630135	0.001176	11.756744	1.991646	-0.000235
1421	1.4129e+02	-8.2869	-42.860252	0.001155	11.554042	1.957308	-0.000231
1422	1.4139e+02	-8.3054	-43.110554	0.001257	12.567554	2.129001	-0.000252
1423	1.4149e+02	-8.3257	-43.324522	0.001074	10.743232	1.819953	-0.000215
1424	1.4159e+02	-8.3458	-43.526379	0.001014	10.135124	1.716937	-0.000203
1425	1.4169e+02	-8.3664	-43.760533	0.001176	11.756744	1.991646	-0.000235
1426	1.4179e+02	-8.3849	-44.006798	0.001236	12.364852	2.094663	-0.000248
1427	1.4189e+02	-8.4053	-44.196543	0.000953	9.527017	1.613920	-0.000191
1428	1.4199e+02	-8.4253	-44.446846	0.001257	12.567554	2.129001	-0.000252
1429	1.4209e+02	-8.4457	-44.693111	0.001236	12.364852	2.094663	-0.000248
1430	1.4219e+02	-8.4648	-44.878819	0.000932	9.324315	1.579582	-0.000187
1431	1.4228e+02	-8.4862	-45.104899	0.001135	11.351339	1.922969	-0.000227
1432	1.4238e+02	-8.5056	-45.383461	0.001399	13.986472	2.369372	-0.000280
1433	1.4248e+02	-8.5251	-45.565133	0.000912	9.121612	1.545243	-0.000183
1434	1.4258e+02	-8.5454	-45.811398	0.001236	12.364852	2.094663	-0.000248
1435	1.4268e+02	-8.5648	-46.049589	0.001196	11.959447	2.025985	-0.000239
1436	1.4278e+02	-8.5852	-46.299891	0.001257	12.567554	2.129001	-0.000252
1437	1.4288e+02	-8.6049	-46.546156	0.001236	12.364852	2.094663	-0.000248
1438	1.4298e+02	-8.6253	-46.776273	0.001155	11.554042	1.957308	-0.000231
1439	1.4308e+02	-8.6453	-47.058873	0.001419	14.189174	2.403711	-0.000284
1440	1.4318e+02	-8.6649	-47.284952	0.001135	11.351339	1.922969	-0.000227
1441	1.4328e+02	-8.6844	-47.519106	0.001176	11.756744	1.991646	-0.000235
1442	1.4338e+02	-8.7041	-47.757297	0.001196	11.959447	2.025985	-0.000239
1443	1.4348e+02	-8.7241	-48.007600	0.001257	12.567554	2.129001	-0.000252
1444	1.4358e+02	-8.7446	-48.221568	0.001074	10.743232	1.819953	-0.000215
1445	1.4368e+02	-8.7641	-48.524353	0.001520	15.202687	2.575405	-0.000304
1446	1.4378e+02	-8.7836	-48.786767	0.001318	13.175662	2.232018	-0.000264
1447	1.4388e+02	-8.8036	-49.033032	0.001236	12.364852	2.094663	-0.000248
1448	1.4398e+02	-8.8240	-49.242963	0.001054	10.540529	1.785614	-0.000211
1449	1.4408e+02	-8.8435	-49.529600	0.001439	14.391877	2.438050	-0.000288
1450	1.4418e+02	-8.8643	-49.796051	0.001338	13.378364	2.266356	-0.000268
1451	1.4428e+02	-8.8837	-50.034242	0.001196	11.959447	2.025985	-0.000239
1452	1.4437e+02	-8.9030	-50.320878	0.001439	14.391877	2.438050	-0.000288
1453	1.4447e+02	-8.9230	-50.559069	0.001196	11.959447	2.025985	-0.000239
1454	1.4457e+02	-8.9433	-50.837632	0.001399	13.986472	2.369372	-0.000280
1455	1.4467e+02	-8.9637	-51.091971	0.001277	12.770257	2.163340	-0.000256
1456	1.4477e+02	-8.9824	-51.370534	0.001399	13.986472	2.369372	-0.000280
1457	1.4487e+02	-9.0038	-51.653133	0.001419	14.189174	2.403711	-0.000284
1458	1.4497e+02	-9.0230	-51.907473	0.001277	12.770257	2.163340	-0.000256
1459	1.4507e+02	-9.0427	-52.181998	0.001378	13.783769	2.335034	-0.000276
1460	1.4517e+02	-9.0636	-52.452486	0.001358	13.581067	2.300695	-0.000272
1461	1.4527e+02	-9.0833	-52.735086	0.001419	14.189174	2.403711	-0.000284
1462	1.4537e+02	-9.1028	-53.033834	0.001500	14.999984	2.541066	-0.000300
1463	1.4547e+02	-9.1232	-53.300285	0.001338	13.378364	2.266356	-0.000268
1464	1.4557e+02	-9.1432	-53.554624	0.001277	12.770257	2.163340	-0.000256
1465	1.4567e+02	-9.1623	-53.881632	0.001642	16.418902	2.781437	-0.000329
1466	1.4577e+02	-9.1818	-54.164232	0.001419	14.189174	2.403711	-0.000284
1467	1.4587e+02	-9.2019	-54.442794	0.001399	13.986472	2.369372	-0.000280
1468	1.4597e+02	-9.2207	-54.697134	0.001277	12.770257	2.163340	-0.000256
1469	1.4607e+02	-9.2419	-55.044327	0.001743	17.432414	2.953131	-0.000349
1470	1.4617e+02	-9.2615	-55.330964	0.001439	14.391877	2.438050	-0.000288
1471	1.4626e+02	-9.2825	-55.637786	0.001541	15.405389	2.609744	-0.000308
1472	1.4636e+02	-9.3015	-55.904237	0.001338	13.378364	2.266356	-0.000268
1473	1.4646e+02	-9.3213	-56.215097	0.001561	15.608092	2.644082	-0.000312
1474	1.4656e+02	-9.3434	-56.493659	0.001399	13.986472	2.369372	-0.000280
1475	1.4666e+02	-9.3616	-56.824704	0.001662	16.621604	2.815776	-0.000333
1476	1.4676e+02	-9.3826	-57.163823	0.001703	17.027009	2.884453	-0.000341
1477	1.4686e+02	-9.4009	-57.406052	0.001216	12.162149	2.060324	-0.000243
1478	1.4696e+02	-9.4221	-57.688651	0.001419	14.189174	2.403711	-0.000284
1479	1.4706e+02	-9.4418	-58.011622	0.001622	16.216199	2.747099	-0.000325
1480	1.4716e+02	-9.4605	-58.362853	0.001764	17.635117	2.987470	-0.000353
1481	1.4726e+02	-9.4806	-58.629304	0.001338	13.378364	2.266356	-0.000268
1482	1.4736e+02	-9.5014	-58.948237	0.001601	16.013497	2.712760	-0.000321
1483	1.4746e+02	-9.5218	-59.267171	0.001601	16.013497	2.712760	-0.000321
1484	1.4756e+02	-9.5412	-59.569956	0.001520	15.202687	2.575405	-0.000304
1485	1.4766e+02	-9.5610	-59.901002	0.001662	16.621604	2.815776	-0.000333
1486	1.4776e+02	-9.5816	-60.203787	0.001520	15.202687	2.575405	-0.000304
1487	1.4786e+02	-9.6004	-60.550980	0.001743	17.432414	2.953131	-0.000349
1488	1.4796e+02	-9.6201	-60.861840	0.001561	15.608092	2.644082	-0.000312
1489	1.4806e+02	-9.6401	-61.180774	0.001601	16.013497	2.712760	-0.000321
1490	1.4816e+02	-9.6636	-61.479522	0.001500	14.999984	2.541066	-0.000300
1491	1.4825e+02	-9.6809	-61.826715	0.001743	17.432414	2.953131	-0.000349
1492	1.4835e+02	-9.7003	-62.161798	0.001682	16.824307	2.850115	-0.000337
1493	1.4845e+02	-9.7211	-62.460546	0.001500	14.999984	2.541066	-0.000300
1494	1.4855e+02	-9.7401	-62.823888	0.001824	18.243224	3.090486	-0.000365
1495	1.4865e+02	-9.7610	-63.175119	0.001764	17.635117	2.987470	-0.000353
1496	1.4875e+02	-9.7800	-63.534424	0.001804	18.040522	3.056147	-0.000361
1497	1.4885e+02	-9.7998	-63.849320	0.001581	15.810794	2.678421	-0.000316
1498	1.4895e+02	-9.8195	-64.184403	0.001682	16.824307	2.850115	-0.000337
1499	1.4905e+02	-9.8387	-64.523522	0.001703	17.027009	2.884453	-0.000341
1500	1.4915e+02	-9.8597	-64.858604	0.001682	16.824307	2.850115	-0.000337
1501	1.4925e+02	-9.8801	-65.193686	0.001682	16.824307	2.850115	-0.000337
1502	1.4935e+02	-9.8994	-65.565103	0.001865	18.648629	3.159163	-0.000373
1503	1.4945e+02	-9.9179	-65.892111	0.001642	16.418902	2.781437	-0.000329
1504	1.4955e+02	-9.9387	-66.279676	0.001946	19.459439	3.296518	-0.000390
1505	1.4965e+02	-9.9593	-66.643018	0.001824	18.243224	3.090486	-0.000365
1506	1.4975e+02	-9.9794	-67.006360	0.001824	18.243224	3.090486	-0.000365
1507	1.4985e+02	-9.9992	-67.341443	0.001682	16.824307	2.850115	-0.000337
1508	1.4995e+02	-9.9792	-67.587708	-0.001236	-12.364852	-2.094663	-0.000248
1509	1.5005e+02	-9.9585	-67.769379	-0.000912	-9.121612	-1.545243	-0.000183
1510	1.5015e+02	-9.9390	-67.951050	-0.000912	-9.121612	-1.545243	-0.000183
1511	1.5025e+02	-9.9190	-68.096387	-0.000730	-7.297290	-1.236194	-0.000146
1512	1.5034e+02	-9.8996	-68.241724	-0.000730	-7.297290	-1.236194	-0.000146
1513	1.5044e+02	-9.8798	-68.415321	-0.000872	-8.716207	-1.476565	-0.000174
1514	1.5054e+02	-9.8598	-68.532398	-0.000588	-5.878372	-0.995823	-0.000118
1515	1.5064e+02	-9.8392	-68.633326	-0.000507	-5.067562	-0.858468	-0.000101
1516	1.5074e+02	-9.8196	-68.750403	-0.000588	-5.878372	-0.995823	-0.000118
1517	1.5084e+02	-9.7993	-68.883629	-0.000669	-6.689182	-1.133178	-0.000134
1518	1.5094e+02	-9.7800	-68.964371	-0.000405	-4.054050	-0.686775	-0.000081
1519	1.5104e+02	-9.7602	-69.053188	-0.000446	-4.459455	-0.755452	-0.000089
1520	1.5114e+02	-9.7400	-69.117782	-0.000324	-3.243240	-0.549420	-0.000065
1521	1.5124e+02	-9.7197	-69.230822	-0.000568	-5.675670	-0.961484	-0.000114
1522	1.5134e+02	-9.6997	-69.303491	-0.000365	-3.648645	-0.618097	-0.000073
1523	1.5144e+02	-9.6808	-69.380196	-0.000385	-3.851347	-0.652436	-0.000077
1524	1.5154e+02	-9.6602	-69.456902	-0.000385	-3.851347	-0.652436	-0.000077
1525	1.5164e+02	-9.6397	-69.485162	-0.000142	-1.418917	-0.240371	-0.000028
1526	1.5174e+02	-9.6211	-69.517459	-0.000162	-1.621620	-0.274710	-0.000032
1527	1.5184e+02	-9.6008	-69.614350	-0.000486	-4.864860	-0.824130	-0.000097
1528	1.5194e+02	-9.5807	-69.695093	-0.000405	-4.054050	-0.686775	-0.000081
1529	1.5204e+02	-9.5601	-69.707204	-0.000061	-0.608107	-0.103016	-0.000012
1530	1.5214e+02	-9.5406	-69.707204	0.000000	0.000000	0.000000	0.000000
1531	1.5224e+02	-9.5215	-69.791984	-0.000426	-4.256752	-0.721113	-0.000085
1532	1.5233e+02	-9.5009	-69.840430	-0.000243	-2.432430	-0.412065	-0.000049
1533	1.5243e+02	-9.4812	-69.872727	-0.000162	-1.621620	-0.274710	-0.000032
1534	1.5253e+02	-9.4609	-69.872727	0.000000	0.000000	0.000000	0.000000
1535	1.5263e+02	-9.4414	-69.888875	-0.000081	-0.810810	-0.137355	-0.000016
1536	1.5273e+02	-9.4214	-69.913098	-0.000122	-1.216215	-0.206032	-0.000024
1537	1.5283e+02	-9.4014	-69.945395	-0.000162	-1.621620	-0.274710	-0.000032
1538	1.5293e+02	-9.3823	-69.977692	-0.000162	-1.621620	-0.274710	-0.000032
1539	1.5303e+02	-9.3615	-69.977692	0.000000	0.000000	0.000000	0.000000
1540	1.5313e+02	-9.3428	-70.005952	-0.000142	-1.418917	-0.240371	-0.000028
1541	1.5323e+02	-9.3217	-70.001915	0.000020	0.202702	0.034339	0.000004
1542	1.5333e+02	-9.3027	-70.026138	-0.000122	-1.216215	-0.206032	-0.000024
1543	1.5343e+02	-9.2821	-70.014027	0.000061	0.608107	0.103016	0.000012
1544	1.5353e+02	-9.2622	-69.985767	0.000142	1.418917	0.240371	0.000028
1545	1.5363e+02	-9.2426	-69.969618	0.000081	0.810810	0.137355	0.000016
1546	1.5373e+02	-9.2223	-69.981729	-0.000061	-0.608107	-0.103016	-0.000012
1547	1.5383e+02	-9.2030	-69.981729	0.000000	0.000000	0.000000	0.000000
1548	1.5393e+02	-9.1821	-70.022101	-0.000203	-2.027025	-0.343387	-0.000041
1549	1.5403e+02	-9.1621	-69.981729	0.000203	2.027025	0.343387	0.000041
1550	1.5413e+02	-9.1445	-69.969618	0.000061	0.608107	0.103016	0.000012
1551	1.5422e+02	-9.1225	-69.957507	0.000061	0.608107	0.103016	0.000012
1552	1.5432e+02	-9.1025	-69.925210	0.000162	1.621620	0.274710	0.000032
1553	1.5442e+02	-9.0835	-69.953470	-0.000142	-1.418917	-0.240371	-0.000028
1554	1.5452e+02	-9.0622	-69.856578	0.000486	4.864860	0.824130	0.000097
1555	1.5462e+02	-9.0433	-69.872727	-0.000081	-0.810810	-0.137355	-0.000016
1556	1.5472e+02	-9.0231	-69.864653	0.000041	0.405405	0.068677	0.000008
1557	1.5482e+02	-9.0038	-69.804095	0.000304	3.040537	0.515081	0.000061
1558	1.5492e+02	-8.9832	-69.832355	-0.000142	-1.418917	-0.240371	-0.000028
1559	1.5502e+02	-8.9632	-69.779873	0.000264	2.635132	0.446404	0.000053
1560	1.5512e+02	-8.9426	-69.751613	0.000142	1.418917	0.240371	0.000028
1561	1.5522e+02	-8.9236	-69.719316	0.000162	1.621620	0.274710	0.000032
1562	1.5532e+02	-8.9034	-69.691056	0.000142	1.418917	0.240371	0.000028
1563	1.5542e+02	-8.8838	-69.699130	-0.000041	-0.405405	-0.068677	-0.000008
1564	1.5552e+02	-8.8640	-69.662796	0.000182	1.824322	0.309049	0.000037
1565	1.5562e+02	-8.8431	-69.634536	0.000142	1.418917	0.240371	0.000028
1566	1.5572e+02	-8.8231	-69.614350	0.000101	1.013512	0.171694	0.000020
1567	1.5582e+02	-8.8033	-69.553793	0.000304	3.040537	0.515081	0.000061
1568	1.5592e+02	-8.7845	-69.517459	0.000182	1.824322	0.309049	0.000037
1569	1.5602e+02	-8.7642	-69.497273	0.000101	1.013512	0.171694	0.000020
1570	1.5612e+02	-8.7446	-69.452865	0.000223	2.229727	0.377726	0.000045
1571	1.5622e+02	-8.7251	-69.416530	0.000182	1.824322	0.309049	0.000037
1572	1.5631e+02	-8.7042	-69.364048	0.000264	2.635132	0.446404	0.000053
1573	1.5641e+02	-8.6844	-69.295416	0.000345	3.445942	0.583758	0.000069
1574	1.5651e+02	-8.6646	-69.315602	-0.000101	-1.013512	-0.171694	-0.000020
1575	1.5661e+02	-8.6452	-69.255045	0.000304	3.040537	0.515081	0.000061
1576	1.5671e+02	-8.6251	-69.242934	0.000061	0.608107	0.103016	0.000012
1577	1.5681e+02	-8.6039	-69.174302	0.000345	3.445942	0.583758	0.000069
1578	1.5691e+02	-8.5844	-69.113745	0.000304	3.040537	0.515081	0.000061
1579	1.5701e+02	-8.5664	-69.093560	0.000101	1.013512	0.171694	0.000020
1580	1.5711e+02	-8.5449	-69.053188	0.000203	2.027025	0.343387	0.000041
1581	1.5721e+02	-8.5258	-69.004743	0.000243	2.432430	0.412065	0.000049
1582	1.5731e+02	-8.5046	-68.940148	0.000324	3.243240	0.549420	0.000065
1583	1.5741e+02	-8.4843	-68.924000	0.000081	0.810810	0.137355	0.000016
1584	1.5751e+02	-8.4639	-68.847294	0.000385	3.851347	0.652436	0.000077
1585	1.5761e+02	-8.4451	-68.782700	0.000324	3.243240	0.549420	0.000065
1586	1.5771e+02	-8.4248	-68.786737	-0.000020	-0.202702	-0.034339	-0.000004
1587	1.5781e+02	-8.4063	-68.693883	0.000466	4.662157	0.789791	0.000093
1588	1.5791e+02	-8.3861	-68.677735	0.000081	0.810810	0.137355	0.000016
1589	1.5801e+02	-8.3652	-68.584880	0.000466	4.662157	0.789791	0.000093
1590	1.5811e+02	-8.3454	-68.540472	0.000223	2.229727	0.377726	0.000045
1591	1.5821e+02	-8.3258	-68.524323	0.000081	0.810810	0.137355	0.000016
1592	1.5830e+02	-8.3061	-68.427432	0.000486	4.864860	0.824130	0.000097
1593	1.5840e+02	-8.2858	-68.346689	0.000405	4.054050	0.686775	0.000081
1594	1.5850e+02	-8.2663	-68.302281	0.000223	2.229727	0.377726	0.000045
1595	1.5860e+02	-8.2455	-68.278058	0.000122	1.216215	0.206032	0.000024
1596	1.5870e+02	-8.2266	-68.201353	0.000385	3.851347	0.652436	0.000077
1597	1.5880e+02	-8.2067	-68.124647	0.000385	3.851347	0.652436	0.000077
1598	1.5890e+02	-8.1863	-68.104461	0.000101	1.013512	0.171694	0.000020
1599	1.5900e+02	-8.1676	-68.007570	0.000486	4.864860	0.824130	0.000097
1600	1.5910e+02	-8.1467	-67.979310	0.000142	1.418917	0.240371	0.000028
1601	1.5920e+02	-8.1256	-67.951050	0.000142	1.418917	0.240371	0.000028
1602	1.5930e+02	-8.1075	-67.833973	0.000588	5.878372	0.995823	0.000118
1603	1.5940e+02	-8.0872	-67.777453	0.000284	2.837835	0.480742	0.000057
1604	1.5950e+02	-8.0664	-67.712859	0.000324	3.243240	0.549420	0.000065
1605	1.5960e+02	-8.0475	-67.680562	0.000162	1.621620	0.274710	0.000032
1606	1.5970e+02	-8.0270	-67.615968	0.000324	3.243240	0.549420	0.000065
1607	1.5980e+02	-8.0075	-67.506965	0.000547	5.472967	0.927146	0.000110
1608	1.5990e+02	-7.9874	-67.418148	0.000446	4.459455	0.755452	0.000089
1609	1.6000e+02	-7.9675	-67.393925	0.000122	1.216215	0.206032	0.000024
1610	1.6010e+02	-7.9488	-67.365665	0.000142	1.418917	0.240371	0.000028
1611	1.6019e+02	-7.9272	-67.288960	0.000385	3.851347	0.652436	0.000077
1612	1.6029e+02	-7.9080	-67.228403	0.000304	3.040537	0.515081	0.000061
1613	1.6039e+02	-7.8876	-67.155734	0.000365	3.648645	0.618097	0.000073
1614	1.6049e+02	-7.8682	-67.143623	0.000061	0.608107	0.103016	0.000012
1615	1.6059e+02	-7.8482	-67.018472	0.000628	6.283777	1.064501	0.000126
1616	1.6069e+02	-7.8275	-66.909469	0.000547	5.472967	0.927146	0.000110
1617	1.6079e+02	-7.8079	-66.873135	0.000182	1.824322	0.309049	0.000037
1618	1.6089e+02	-7.7881	-66.836801	0.000182	1.824322	0.309049	0.000037
1619	1.6099e+02	-7.7687	-66.735872	0.000507	5.067562	0.858468	0.000101
1620	1.6109e+02	-7.7490	-66.643018	0.000466	4.662157	0.789791	0.000093
1621	1.6119e+02	-7.7283	-66.586498	0.000284	2.837835	0.480742	0.000057
1622	1.6129e+02	-7.7087	-66.542090	0.000223	2.229727	0.377726	0.000045
1623	1.6139e+02	-7.6886	-66.416939	0.000628	6.283777	1.064501	0.000126
1624	1.6149e+02	-7.6682	-66.360419	0.000284	2.837835	0.480742	0.000057
1625	1.6159e+02	-7.6484	-66.283713	0.000385	3.851347	0.652436	0.000077
1626	1.6169e+02	-7.6292	-66.251416	0.000162	1.621620	0.274710	0.000032
1627	1.6179e+02	-7.6088	-66.166636	0.000426	4.256752	0.721113	0.000085
1628	1.6189e+02	-7.5895	-66.089931	0.000385	3.851347	0.652436	0.000077
1629	1.6199e+02	-7.5691	-66.005151	0.000426	4.256752	0.721113	0.000085
1630	1.6209e+02	-7.5491	-65.984965	0.000101	1.013512	0.171694	0.000020
1631	1.6219e+02	-7.5302	-65.851740	0.000669	6.689182	1.133178	0.000134
1632	1.6228e+02	-7.5102	-65.807331	0.000223	2.229727	0.377726	0.000045
1633	1.6238e+02	-7.4897	-65.770997	0.000182	1.824322	0.309049	0.000037
1634	1.6248e+02	-7.4696	-65.678143	0.000466	4.662157	0.789791	0.000093
1635	1.6258e+02	-7.4500	-65.544917	0.000669	6.689182	1.133178	0.000134
1636	1.6268e+02	-7.4301	-65.512620	0.000162	1.621620	0.274710	0.000032
1637	1.6278e+02	-7.4107	-65.431877	0.000405	4.054050	0.686775	0.000081
1638	1.6288e+02	-7.3902	-65.363246	0.000345	3.445942	0.583758	0.000069
1639	1.6298e+02	-7.3699	-65.302689	0.000304	3.040537	0.515081	0.000061
1640	1.6308e+02	-7.3508	-65.185612	0.000588	5.878372	0.995823	0.000118
1641	1.6318e+02	-7.3308	-65.129092	0.000284	2.837835	0.480742	0.000057
1642	1.6328e+02	-7.3110	-65.056424	0.000365	3.648645	0.618097	0.000073
1643	1.6338e+02	-7.2906	-64.991830	0.000324	3.243240	0.549420	0.000065
1644	1.6348e+02	-7.2706	-64.935310	0.000284	2.837835	0.480742	0.000057
1645	1.6358e+02	-7.2510	-64.866678	0.000345	3.445942	0.583758	0.000069
1646	1.6368e+02	-7.2298	-64.761713	0.000527	5.270265	0.892807	0.000105
1647	1.6378e+02	-7.2111	-64.648673	0.000568	5.675670	0.961484	0.000114
1648	1.6388e+02	-7.1919	-64.620413	0.000142	1.418917	0.240371	0.000028
1649	1.6398e+02	-7.1713	-64.551782	0.000345	3.445942	0.583758	0.000069
1650	1.6408e+02	-7.1513	-64.458928	0.000466	4.662157	0.789791	0.000093
1651	1.6418e+02	-7.1323	-64.366074	0.000466	4.662157	0.789791	0.000093
1652	1.6427e+02	-7.1112	-64.269182	0.000486	4.864860	0.824130	0.000097
1653	1.6437e+02	-7.0919	-64.192477	0.000385	3.851347	0.652436	0.000077
1654	1.6447e+02	-7.0706	-64.115771	0.000385	3.851347	0.652436	0.000077
1655	1.6457e+02	-7.0518	-64.002731	0.000568	5.675670	0.961484	0.000114
1656	1.6467e+02	-7.0317	-63.921989	0.000405	4.054050	0.686775	0.000081
1657	1.6477e+02	-7.0117	-63.845283	0.000385	3.851347	0.652436	0.000077
1658	1.6487e+02	-6.9913	-63.780689	0.000324	3.243240	0.549420	0.000065
1659	1.6497e+02	-6.9717	-63.671686	0.000547	5.472967	0.927146	0.000110
1660	1.6507e+02	-6.9527	-63.590944	0.000405	4.054050	0.686775	0.000081
1661	1.6517e+02	-6.9320	-63.506164	0.000426	4.256752	0.721113	0.000085
1662	1.6527e+02	-6.9130	-63.453681	0.000264	2.635132	0.446404	0.000053
1663	1.6537e+02	-6.8929	-63.324493	0.000649	6.486480	1.098839	0.000130
1664	1.6547e+02	-6.8723	-63.292196	0.000162	1.621620	0.274710	0.000032
1665	1.6557e+02	-6.8527	-63.175119	0.000588	5.878372	0.995823	0.000118
1666	1.6567e+02	-6.8329	-63.070153	0.000527	5.270265	0.892807	0.000105
1667	1.6577e+02	-6.8127	-63.001522	0.000345	3.445942	0.583758	0.000069
1668	1.6587e+02	-6.7917	-62.920779	0.000405	4.054050	0.686775	0.000081
1669	1.6597e+02	-6.7720	-62.807739	0.000568	5.675670	0.961484	0.000114
1670	1.6607e+02	-6.7524	-62.763331	0.000223	2.229727	0.377726	0.000045
1671	1.6616e+02	-6.7325	-62.662402	0.000507	5.067562	0.858468	0.000101
1672	1.6626e+02	-6.7131	-62.601845	0.000304	3.040537	0.515081	0.000061
1673	1.6636e+02	-6.6931	-62.492843	0.000547	5.472967	0.927146	0.000110
1674	1.6646e+02	-6.6734	-62.456508	0.000182	1.824322	0.309049	0.000037
1675	1.6656e+02	-6.6530	-62.343469	0.000568	5.675670	0.961484	0.000114
1676	1.6666e+02	-6.6324	-62.254652	0.000446	4.459455	0.755452	0.000089
1677	1.6676e+02	-6.6127	-62.169872	0.000426	4.256752	0.721113	0.000085
1678	1.6686e+02	-6.5936	-62.068943	0.000507	5.067562	0.858468	0.000101
1679	1.6696e+02	-6.5737	-62.000312	0.000345	3.445942	0.583758	0.000069
1680	1.6706e+02	-6.5540	-61.879198	0.000608	6.081075	1.030162	0.000122
1681	1.6716e+02	-6.5332	-61.838827	0.000203	2.027025	0.343387	0.000041
1682	1.6726e+02	-6.5134	-61.709638	0.000649	6.486480	1.098839	0.000130
1683	1.6736e+02	-6.4931	-61.568339	0.000709	7.094587	1.201856	0.000142
1684	1.6746e+02	-6.4751	-61.552190	0.000081	0.810810	0.137355	0.000016
1685	1.6756e+02	-6.4543	-61.463373	0.000446	4.459455	0.755452	0.000089
1686	1.6766e+02	-6.4350	-61.378593	0.000426	4.256752	0.721113	0.000085
1687	1.6776e+02	-6.4139	-61.281702	0.000486	4.864860	0.824130	0.000097
1688	1.6786e+02	-6.3943	-61.217108	0.000324	3.243240	0.549420	0.000065
1689	1.6796e+02	-6.3728	-61.091957	0.000628	6.283777	1.064501	0.000126
1690	1.6806e+02	-6.3546	-60.999102	0.000466	4.662157	0.789791	0.000093
1691	1.6816e+02	-6.3335	-60.902211	0.000486	4.864860	0.824130	0.000097
1692	1.6825e+02	-6.3142	-60.829543	0.000365	3.648645	0.618097	0.000073
1693	1.6835e+02	-6.2938	-60.744763	0.000426	4.256752	0.721113	0.000085
1694	1.6845e+02	-6.2741	-60.627686	0.000588	5.878372	0.995823	0.000118
1695	1.6855e+02	-6.2556	-60.583277	0.000223	2.229727	0.377726	0.000045
1696	1.6865e+02	-6.2344	-60.478312	0.000527	5.270265	0.892807	0.000105
1697	1.6875e+02	-6.2143	-60.385458	0.000466	4.662157	0.789791	0.000093
1698	1.6885e+02	-6.1959	-60.276455	0.000547	5.472967	0.927146	0.000110
1699	1.6895e+02	-6.1745	-60.195712	0.000405	4.054050	0.686775	0.000081
1700	1.6905e+02	-6.1556	-60.123044	0.000365	3.648645	0.618097	0.000073
1701	1.6915e+02	-6.1343	-60.026153	0.000486	4.864860	0.824130	0.000097
1702	1.6925e+02	-6.1154	-59.905039	0.000608	6.081075	1.030162	0.000122
1703	1.6935e+02	-6.0962	-59.824296	0.000405	4.054050	0.686775	0.000081
1704	1.6945e+02	-6.0759	-59.747590	0.000385	3.851347	0.652436	0.000077
1705	1.6955e+02	-6.0555	-59.634551	0.000568	5.675670	0.961484	0.000114
1706	1.6965e+02	-6.0358	-59.541696	0.000466	4.662157	0.789791	0.000093
1707	1.6975e+02	-6.0156	-59.497288	0.000223	2.229727	0.377726	0.000045
1708	1.6985e+02	-5.9964	-59.384248	0.000568	5.675670	0.961484	0.000114
1709	1.6995e+02	-5.9750	-59.299468	0.000426	4.256752	0.721113	0.000085
1710	1.7005e+02	-5.9563	-59.222763	0.000385	3.851347	0.652436	0.000077
1711	1.7015e+02	-5.9357	-59.073389	0.000750	7.499992	1.270533	0.000150
1712	1.7024e+02	-5.9154	-58.976497	0.000486	4.864860	0.824130	0.000097
1713	1.7034e+02	-5.8960	-58.919978	0.000284	2.837835	0.480742	0.000057
1714	1.7044e+02	-5.8766	-58.823086	0.000486	4.864860	0.824130	0.000097
1715	1.7054e+02	-5.8565	-58.681787	0.000709	7.094587	1.201856	0.000142
1716	1.7064e+02	-5.8360	-58.609118	0.000365	3.648645	0.618097	0.000073
1717	1.7074e+02	-5.8163	-58.504153	0.000527	5.270265	0.892807	0.000105
1718	1.7084e+02	-5.7961	-58.423410	0.000405	4.054050	0.686775	0.000081
1719	1.7094e+02	-5.7767	-58.350741	0.000365	3.648645	0.618097	0.000073
1720	1.7104e+02	-5.7538	-58.257887	0.000466	4.662157	0.789791	0.000093
1721	1.7114e+02	-5.7365	-58.156959	0.000507	5.067562	0.858468	0.000101
1722	1.7124e+02	-5.7169	-58.064105	0.000466	4.662157	0.789791	0.000093
1723	1.7134e+02	-5.6973	-57.926842	0.000689	6.891885	1.167517	0.000138
1724	1.7144e+02	-5.6772	-57.838025	0.000446	4.459455	0.755452	0.000089
1725	1.7154e+02	-5.6577	-57.745171	0.000466	4.662157	0.789791	0.000093
1726	1.7164e+02	-5.6377	-57.672503	0.000365	3.648645	0.618097	0.000073
1727	1.7174e+02	-5.6178	-57.567537	0.000527	5.270265	0.892807	0.000105
1728	1.7184e+02	-5.5963	-57.446423	0.000608	6.081075	1.030162	0.000122
1729	1.7194e+02	-5.5774	-57.329346	0.000588	5.878372	0.995823	0.000118
1730	1.7204e+02	-5.5574	-57.284938	0.000223	2.229727	0.377726	0.000045
1731	1.7213e+02	-5.5374	-57.188046	0.000486	4.864860	0.824130	0.000097
1732	1.7223e+02	-5.5172	-57.083081	0.000527	5.270265	0.892807	0.000105
1733	1.7233e+02	-5.4965	-56.986190	0.000486	4.864860	0.824130	0.000097
1734	1.7243e+02	-5.4778	-56.901410	0.000426	4.256752	0.721113	0.000085
1735	1.7253e+02	-5.4578	-56.788370	0.000568	5.675670	0.961484	0.000114
1736	1.7263e+02	-5.4382	-56.735887	0.000264	2.635132	0.446404	0.000053
1737	1.7273e+02	-5.4184	-56.602662	0.000669	6.689182	1.133178	0.000134
1738	1.7283e+02	-5.3976	-56.493659	0.000547	5.472967	0.927146	0.000110
1739	1.7293e+02	-5.3778	-56.433102	0.000304	3.040537	0.515081	0.000061
1740	1.7303e+02	-5.3575	-56.324099	0.000547	5.472967	0.927146	0.000110
1741	1.7313e+02	-5.3391	-56.247394	0.000385	3.851347	0.652436	0.000077
1742	1.7323e+02	-5.3194	-56.134354	0.000568	5.675670	0.961484	0.000114
1743	1.7333e+02	-5.2988	-56.057648	0.000385	3.851347	0.652436	0.000077
1744	1.7343e+02	-5.2787	-55.924423	0.000669	6.689182	1.133178	0.000134
1745	1.7353e+02	-5.2579	-55.851754	0.000365	3.648645	0.618097	0.000073
1746	1.7363e+02	-5.2388	-55.734677	0.000588	5.878372	0.995823	0.000118
1747	1.7373e+02	-5.2178	-55.637786	0.000486	4.864860	0.824130	0.000097
1748	1.7383e+02	-5.1978	-55.605489	0.000162	1.621620	0.274710	0.000032
1749	1.7393e+02	-5.1788	-55.444004	0.000811	8.108100	1.373549	0.000162
1750	1.7403e+02	-5.1578	-55.322890	0.000608	6.081075	1.030162	0.000122
1751	1.7413e+02	-5.1388	-55.274444	0.000243	2.432430	0.412065	0.000049
1752	1.7422e+02	-5.1184	-55.173516	0.000507	5.067562	0.858468	0.000101
1753	1.7432e+02	-5.0995	-55.056439	0.000588	5.878372	0.995823	0.000118
1754	1.7442e+02	-5.0784	-54.983770	0.000365	3.648645	0.618097	0.000073
1755	1.7452e+02	-5.0592	-54.898990	0.000426	4.256752	0.721113	0.000085
1756	1.7462e+02	-5.0386	-54.733468	0.000831	8.310802	1.407888	0.000166
1757	1.7472e+02	-5.0206	-54.656762	0.000385	3.851347	0.652436	0.000077
1758	1.7482e+02	-4.9999	-54.555834	0.000507	5.067562	0.858468	0.000101
1759	1.7492e+02	-4.9797	-54.462980	0.000466	4.662157	0.789791	0.000093
1760	1.7502e+02	-4.9594	-54.333791	0.000649	6.486480	1.098839	0.000130
1761	1.7512e+02	-4.9404	-54.265160	0.000345	3.445942	0.583758	0.000069
1762	1.7522e+02	-4.9194	-54.148083	0.000588	5.878372	0.995823	0.000118
1763	1.7532e+02	-4.9005	-54.063303	0.000426	4.256752	0.721113	0.000085
1764	1.7542e+02	-4.8801	-53.942189	0.000608	6.081075	1.030162	0.000122
1765	1.7552e+02	-4.8611	-53.833186	0.000547	5.472967	0.927146	0.000110
1766	1.7562e+02	-4.8396	-53.752444	0.000405	4.054050	0.686775	0.000081
1767	1.7572e+02	-4.8212	-53.643441	0.000547	5.472967	0.927146	0.000110
1768	1.7582e+02	-4.8004	-53.473881	0.000851	8.513505	1.442227	0.000170
1769	1.7592e+02	-4.7789	-53.425436	0.000243	2.432430	0.412065	0.000049
1770	1.7602e+02	-4.7595	-53.304322	0.000608	6.081075	1.030162	0.000122
1771	1.7612e+02	-4.7400	-53.211468	0.000466	4.662157	0.789791	0.000093
1772	1.7621e+02	-4.7208	-53.122651	0.000446	4.459455	0.755452	0.000089
1773	1.7631e+02	-4.7003	-52.997499	0.000628	6.283777	1.064501	0.000126
1774	1.7641e+02	-4.6814	-52.880422	0.000588	5.878372	0.995823	0.000118
1775	1.7651e+02	-4.6613	-52.811791	0.000345	3.445942	0.583758	0.000069
1776	1.7661e+02	-4.6411	-52.698751	0.000568	5.675670	0.961484	0.000114
1777	1.7671e+02	-4.6208	-52.618009	0.000405	4.054050	0.686775	0.000081
1778	1.7681e+02	-4.6017	-52.504969	0.000568	5.675670	0.961484	0.000114
1779	1.7691e+02	-4.5804	-52.404040	0.000507	5.067562	0.858468	0.000101
1780	1.7701e+02	-4.5612	-52.282926	0.000608	6.081075	1.030162	0.000122
1781	1.7711e+02	-4.5418	-52.157775	0.000628	6.283777	1.064501	0.000126
1782	1.7721e+02	-4.5216	-52.068958	0.000446	4.459455	0.755452	0.000089
1783	1.7731e+02	-4.5015	-51.984178	0.000426	4.256752	0.721113	0.000085
1784	1.7741e+02	-4.4820	-51.838841	0.000730	7.297290	1.236194	0.000146
1785	1.7751e+02	-4.4611	-51.713690	0.000628	6.283777	1.064501	0.000126
1786	1.7761e+02	-4.4420	-51.665245	0.000243	2.432430	0.412065	0.000049
1787	1.7771e+02	-4.4219	-51.536056	0.000649	6.486480	1.098839	0.000130
1788	1.7781e+02	-4.4014	-51.402831	0.000669	6.689182	1.133178	0.000134
1789	1.7791e+02	-4.3822	-51.309977	0.000466	4.662157	0.789791	0.000093
1790	1.7801e+02	-4.3620	-51.196937	0.000568	5.675670	0.961484	0.000114
1791	1.7810e+02	-4.3436	-51.104083	0.000466	4.662157	0.789791	0.000093
1792	1.7820e+02	-4.3221	-51.031414	0.000365	3.648645	0.618097	0.000073
1793	1.7830e+02	-4.3021	-50.886077	0.000730	7.297290	1.236194	0.000146
1794	1.7840e+02	-4.2824	-50.773038	0.000568	5.675670	0.961484	0.000114
1795	1.7850e+02	-4.2623	-50.668072	0.000527	5.270265	0.892807	0.000105
1796	1.7860e+02	-4.2436	-50.563107	0.000527	5.270265	0.892807	0.000105
1797	1.7870e+02	-4.2223	-50.462178	0.000507	5.067562	0.858468	0.000101
1798	1.7880e+02	-4.2024	-50.328953	0.000669	6.689182	1.133178	0.000134
1799	1.7890e+02	-4.1826	-50.223987	0.000527	5.270265	0.892807	0.000105
1800	1.7900e+02	-4.1631	-50.163430	0.000304	3.040537	0.515081	0.000061
1801	1.7910e+02	-4.1426	-50.010019	0.000770	7.702695	1.304872	0.000154
1802	1.7920e+02	-4.1228	-49.909091	0.000507	5.067562	0.858468	0.000101
1803	1.7930e+02	-4.1030	-49.812199	0.000486	4.864860	0.824130	0.000097
1804	1.7940e+02	-4.0836	-49.678974	0.000669	6.689182	1.133178	0.000134
1805	1.7950e+02	-4.0635	-49.590157	0.000446	4.459455	0.755452	0.000089
1806	1.7960e+02	-4.0436	-49.456931	0.000669	6.689182	1.133178	0.000134
1807	1.7970e+02	-4.0237	-49.364077	0.000466	4.662157	0.789791	0.000093
1808	1.7980e+02	-4.0038	-49.263149	0.000507	5.067562	0.858468	0.000101
1809	1.7990e+02	-3.9832	-49.121849	0.000709	7.094587	1.201856	0.000142
1810	1.8000e+02	-3.9629	-48.992661	0.000649	6.486480	1.098839	0.000130
1811	1.8009e+02	-3.9428	-48.915955	0.000385	3.851347	0.652436	0.000077
1812	1.8019e+02	-3.9236	-48.839250	0.000385	3.851347	0.652436	0.000077
1813	1.8029e+02	-3.9032	-48.677764	0.000811	8.108100	1.373549	0.000162
1814	1.8039e+02	-3.8838	-48.572799	0.000527	5.270265	0.892807	0.000105
1815	1.8049e+02	-3.8641	-48.471870	0.000507	5.067562	0.858468	0.000101
1816	1.8059e+02	-3.8438	-48.370942	0.000507	5.067562	0.858468	0.000101
1817	1.8069e+02	-3.8237	-48.225605	0.000730	7.297290	1.236194	0.000146
1818	1.8079e+02	-3.8039	-48.132751	0.000466	4.662157	0.789791	0.000093
1819	1.8089e+02	-3.7848	-48.007600	0.000628	6.283777	1.064501	0.000126
1820	1.8099e+02	-3.7651	-47.882448	0.000628	6.283777	1.064501	0.000126
1821	1.8109e+02	-3.7451	-47.769409	0.000568	5.675670	0.961484	0.000114
1822	1.8119e+02	-3.7244	-47.656369	0.000568	5.675670	0.961484	0.000114
1823	1.8129e+02	-3.7053	-47.531218	0.000628	6.283777	1.064501	0.000126
1824	1.8139e+02	-3.6852	-47.422215	0.000547	5.472967	0.927146	0.000110
1825	1.8149e+02	-3.6646	-47.297064	0.000628	6.283777	1.064501	0.000126
1826	1.8159e+02	-3.6450	-47.208247	0.000446	4.459455	0.755452	0.000089
1827	1.8169e+02	-3.6252	-47.066947	0.000709	7.094587	1.201856	0.000142
1828	1.8179e+02	-3.6047	-46.966019	0.000507	5.067562	0.858468	0.000101
1829	1.8189e+02	-3.5849	-46.816645	0.000750	7.499992	1.270533	0.000150
1830	1.8199e+02	-3.5649	-46.743976	0.000365	3.648645	0.618097	0.000073
1831	1.8209e+02	-3.5452	-46.582491	0.000811	8.108100	1.373549	0.000162
1832	1.8218e+02	-3.5252	-46.469451	0.000568	5.675670	0.961484	0.000114
1833	1.8228e+02	-3.5054	-46.360448	0.000547	5.472967	0.927146	0.000110
1834	1.8238e+02	-3.4852	-46.239334	0.000608	6.081075	1.030162	0.000122
1835	1.8248e+02	-3.4651	-46.126294	0.000568	5.675670	0.961484	0.000114
1836	1.8258e+02	-3.4460	-46.005180	0.000608	6.081075	1.030162	0.000122
1837	1.8268e+02	-3.4254	-45.900215	0.000527	5.270265	0.892807	0.000105
1838	1.8278e+02	-3.4064	-45.766989	0.000669	6.689182	1.133178	0.000134
1839	1.8288e+02	-3.3864	-45.645875	0.000608	6.081075	1.030162	0.000122
1840	1.8298e+02	-3.3662	-45.500538	0.000730	7.297290	1.236194	0.000146
1841	1.8308e+02	-3.3453	-45.431907	0.000345	3.445942	0.583758	0.000069
1842	1.8318e+02	-3.3265	-45.286570	0.000730	7.297290	1.236194	0.000146
1843	1.8328e+02	-3.3064	-45.149308	0.000689	6.891885	1.167517	0.000138
1844	1.8338e+02	-3.2867	-45.040305	0.000547	5.472967	0.927146	0.000110
1845	1.8348e+02	-3.2655	-44.899005	0.000709	7.094587	1.201856	0.000142
1846	1.8358e+02	-3.2471	-44.798077	0.000507	5.067562	0.858468	0.000101
1847	1.8368e+02	-3.2259	-44.668888	0.000649	6.486480	1.098839	0.000130
1848	1.8378e+02	-3.2071	-44.580071	0.000446	4.459455	0.755452	0.000089
1849	1.8388e+02	-3.1863	-44.434735	0.000730	7.297290	1.236194	0.000146
1850	1.8398e+02	-3.1660	-44.313620	0.000608	6.081075	1.030162	0.000122
1851	1.8407e+02	-3.1477	-44.212692	0.000507	5.067562	0.858468	0.000101
1852	1.8417e+02	-3.1268	-44.099652	0.000568	5.675670	0.961484	0.000114
1853	1.8427e+02	-3.1078	-43.958352	0.000709	7.094587	1.201856	0.000142
1854	1.8437e+02	-3.0875	-43.841276	0.000588	5.878372	0.995823	0.000118
1855	1.8447e+02	-3.0681	-43.752459	0.000446	4.459455	0.755452	0.000089
1856	1.8457e+02	-3.0473	-43.607122	0.000730	7.297290	1.236194	0.000146
1857	1.8467e+02	-3.0275	-43.469859	0.000689	6.891885	1.167517	0.000138
1858	1.8477e+02	-3.0068	-43.328559	0.000709	7.094587	1.201856	0.000142
1859	1.8487e+02	-2.9870	-43.195334	0.000669	6.689182	1.133178	0.000134
1860	1.8497e+02	-2.9671	-43.126703	0.000345	3.445942	0.583758	0.000069
1861	1.8507e+02	-2.9477	-42.985403	0.000709	7.094587	1.201856	0.000142
1862	1.8517e+02	-2.9274	-42.864289	0.000608	6.081075	1.030162	0.000122
1863	1.8527e+02	-2.9076	-42.722989	0.000709	7.094587	1.201856	0.000142
1864	1.8537e+02	-2.8880	-42.573615	0.000750	7.499992	1.270533	0.000150
1865	1.8547e+02	-2.8671	-42.460575	0.000568	5.675670	0.961484	0.000114
1866	1.8557e+02	-2.8474	-42.387907	0.000365	3.648645	0.618097	0.000073
1867	1.8567e+02	-2.8279	-42.230458	0.000791	7.905397	1.339211	0.000158
1868	1.8577e+02	-2.8088	-42.117419	0.000568	5.675670	0.961484	0.000114
1869	1.8587e+02	-2.7884	-41.976119	0.000709	7.094587	1.201856	0.000142
1870	1.8597e+02	-2.7686	-41.895376	0.000405	4.054050	0.686775	0.000081
1871	1.8606e+02	-2.7481	-41.754076	0.000709	7.094587	1.201856	0.000142
1872	1.8616e+02	-2.7286	-41.608739	0.000730	7.297290	1.236194	0.000146
1873	1.8626e+02	-2.7087	-41.503774	0.000527	5.270265	0.892807	0.000105
1874	1.8636e+02	-2.6887	-41.370548	0.000669	6.689182	1.133178	0.000134
1875	1.8646e+02	-2.6687	-41.289806	0.000405	4.054050	0.686775	0.000081
1876	1.8656e+02	-2.6487	-41.116209	0.000872	8.716207	1.476565	0.000174
1877	1.8666e+02	-2.6275	-40.991058	0.000628	6.283777	1.064501	0.000126
1878	1.8676e+02	-2.6088	-40.813424	0.000892	8.918910	1.510904	0.000179
1879	1.8686e+02	-2.5879	-40.704421	0.000547	5.472967	0.927146	0.000110
1880	1.8696e+02	-2.5695	-40.579270	0.000628	6.283777	1.064501	0.000126
1881	1.8706e+02	-2.5484	-40.462193	0.000588	5.878372	0.995823	0.000118
1882	1.8716e+02	-2.5287	-40.357227	0.000527	5.270265	0.892807	0.000105
1883	1.8726e+02	-2.5093	-40.195742	0.000811	8.108100	1.373549	0.000162
1884	1.8736e+02	-2.4899	-40.114999	0.000405	4.054050	0.686775	0.000081
1885	1.8746e+02	-2.4696	-39.965625	0.000750	7.499992	1.270533	0.000150
1886	1.8756e+02	-2.4490	-39.848548	0.000588	5.878372	0.995823	0.000118
1887	1.8766e+02	-2.4300	-39.739546	0.000547	5.472967	0.927146	0.000110
1888	1.8776e+02	-2.4112	-39.569986	0.000851	8.513505	1.442227	0.000170
1889	1.8786e+02	-2.3901	-39.473095	0.000486	4.864860	0.824130	0.000097
1890	1.8796e+02	-2.3691	-39.343906	0.000649	6.486480	1.098839	0.000130
1891	1.8806e+02	-2.3502	-39.206644	0.000689	6.891885	1.167517	0.000138
1892	1.8815e+02	-2.3302	-39.057270	0.000750	7.499992	1.270533	0.000150
1893	1.8825e+02	-2.3106	-38.920007	0.000689	6.891885	1.167517	0.000138
1894	1.8835e+02	-2.2899	-38.831190	0.000446	4.459455	0.755452	0.000089
1895	1.8845e+02	-2.2702	-38.681816	0.000750	7.499992	1.270533	0.000150
1896	1.8855e+02	-2.2505	-38.536479	0.000730	7.297290	1.236194	0.000146
1897	1.8865e+02	-2.2301	-38.403254	0.000669	6.689182	1.133178	0.000134
1898	1.8875e+02	-2.2117	-38.278103	0.000628	6.283777	1.064501	0.000126
1899	1.8885e+02	-2.1924	-38.148914	0.000649	6.486480	1.098839	0.000130
1900	1.8895e+02	-2.1708	-38.035874	0.000568	5.675670	0.961484	0.000114
1901	1.8905e+02	-2.1509	-37.930909	0.000527	5.270265	0.892807	0.000105
1902	1.8915e+02	-2.1313	-37.769423	0.000811	8.108100	1.373549	0.000162
1903	1.8925e+02	-2.1116	-37.620049	0.000750	7.499992	1.270533	0.000150
1904	1.8935e+02	-2.0911	-37.523158	0.000486	4.864860	0.824130	0.000097
1905	1.8945e+02	-2.0704	-37.381858	0.000709	7.094587	1.201856	0.000142
1906	1.8955e+02	-2.0507	-37.264781	0.000588	5.878372	0.995823	0.000118
1907	1.8965e+02	-2.0312	-37.119445	0.000730	7.297290	1.236194	0.000146
1908	1.8975e+02	-2.0113	-37.006405	0.000568	5.675670	0.961484	0.000114
1909	1.8985e+02	-1.9913	-36.857031	0.000750	7.499992	1.270533	0.000150
1910	1.8995e+02	-1.9705	-36.735917	0.000608	6.081075	1.030162	0.000122
1911	1.9004e+02	-1.9512	-36.574431	0.000811	8.108100	1.373549	0.000162
1912	1.9014e+02	-1.9313	-36.473503	0.000507	5.067562	0.858468	0.000101
1913	1.9024e+02	-1.9122	-36.328166	0.000730	7.297290	1.236194	0.000146
1914	1.9034e+02	-1.8922	-36.223200	0.000527	5.270265	0.892807	0.000105
1915	1.9044e+02	-1.8721	-36.098049	0.000628	6.283777	1.064501	0.000126
1916	1.9054e+02	-1.8518	-35.948675	0.000750	7.499992	1.270533	0.000150
1917	1.9064e+02	-1.8322	-35.819487	0.000649	6.486480	1.098839	0.000130
1918	1.9074e+02	-1.8121	-35.682224	0.000689	6.891885	1.167517	0.000138
1919	1.9084e+02	-1.7918	-35.532850	0.000750	7.499992	1.270533	0.000150
1920	1.9094e+02	-1.7731	-35.452107	0.000405	4.054050	0.686775	0.000081
1921	1.9104e+02	-1.7516	-35.318882	0.000669	6.689182	1.133178	0.000134
1922	1.9114e+02	-1.7326	-35.141248	0.000892	8.918910	1.510904	0.000179
1923	1.9124e+02	-1.7126	-35.044357	0.000486	4.864860	0.824130	0.000097
1924	1.9134e+02	-1.6933	-34.907094	0.000689	6.891885	1.167517	0.000138
1925	1.9144e+02	-1.6727	-34.781943	0.000628	6.283777	1.064501	0.000126
1926	1.9154e+02	-1.6528	-34.612383	0.000851	8.513505	1.442227	0.000170
1927	1.9164e+02	-1.6330	-34.475121	0.000689	6.891885	1.167517	0.000138
1928	1.9174e+02	-1.6126	-34.390341	0.000426	4.256752	0.721113	0.000085
1929	1.9184e+02	-1.5929	-34.208670	0.000912	9.121612	1.545243	0.000183
1930	1.9194e+02	-1.5732	-34.119853	0.000446	4.459455	0.755452	0.000089
1931	1.9203e+02	-1.5526	-33.970479	0.000750	7.499992	1.270533	0.000150
1932	1.9213e+02	-1.5331	-33.845327	0.000628	6.283777	1.064501	0.000126
1933	1.9223e+02	-1.5125	-33.683842	0.000811	8.108100	1.373549	0.000162
1934	1.9233e+02	-1.4938	-33.558691	0.000628	6.283777	1.064501	0.000126
1935	1.9243e+02	-1.4728	-33.397205	0.000811	8.108100	1.373549	0.000162
1936	1.9253e+02	-1.4543	-33.235720	0.000811	8.108100	1.373549	0.000162
1937	1.9263e+02	-1.4330	-33.138829	0.000486	4.864860	0.824130	0.000097
1938	1.9273e+02	-1.4137	-33.001566	0.000689	6.891885	1.167517	0.000138
1939	1.9283e+02	-1.3931	-32.860266	0.000709	7.094587	1.201856	0.000142
1940	1.9293e+02	-1.3739	-32.739152	0.000608	6.081075	1.030162	0.000122
1941	1.9303e+02	-1.3544	-32.609964	0.000649	6.486480	1.098839	0.000130
1942	1.9313e+02	-1.3339	-32.484813	0.000628	6.283777	1.064501	0.000126
1943	1.9323e+02	-1.3146	-32.303142	0.000912	9.121612	1.545243	0.000183
1944	1.9333e+02	-1.2935	-32.165879	0.000689	6.891885	1.167517	0.000138
1945	1.9343e+02	-1.2738	-32.056876	0.000547	5.472967	0.927146	0.000110
1946	1.9353e+02	-1.2551	-31.907502	0.000750	7.499992	1.270533	0.000150
1947	1.9363e+02	-1.2341	-31.770240	0.000689	6.891885	1.167517	0.000138
1948	1.9373e+02	-1.2156	-31.608754	0.000811	8.108100	1.373549	0.000162
1949	1.9383e+02	-1.1945	-31.499752	0.000547	5.472967	0.927146	0.000110
1950	1.9393e+02	-1.1749	-31.358452	0.000709	7.094587	1.201856	0.000142
1951	1.9403e+02	-1.1548	-31.213115	0.000730	7.297290	1.236194	0.000146
1952	1.9412e+02	-1.1350	-31.055667	0.000791	7.905397	1.339211	0.000158
1953	1.9422e+02	-1.1142	-30.950701	0.000527	5.270265	0.892807	0.000105
1954	1.9432e+02	-1.0954	-30.801327	0.000750	7.499992	1.270533	0.000150
1955	1.9442e+02	-1.0753	-30.680213	0.000608	6.081075	1.030162	0.000122
1956	1.9452e+02	-1.0559	-30.542950	0.000689	6.891885	1.167517	0.000138
1957	1.9462e+02	-1.0350	-30.345131	0.000993	9.932422	1.682598	0.000199
1958	1.9472e+02	-1.0147	-30.256314	0.000446	4.459455	0.755452	0.000089
1959	1.9482e+02	-0.9946	-30.106940	0.000750	7.499992	1.270533	0.000150
1960	1.9492e+02	-0.9761	-29.949491	0.000791	7.905397	1.339211	0.000158
1961	1.9502e+02	-0.9555	-29.800117	0.000750	7.499992	1.270533	0.000150
1962	1.9512e+02	-0.9355	-29.707263	0.000466	4.662157	0.789791	0.000093
1963	1.9522e+02	-0.9167	-29.606335	0.000507	5.067562	0.858468	0.000101
1964	1.9532e+02	-0.8959	-29.400441	0.001034	10.337827	1.751275	0.000207
1965	1.9542e+02	-0.8754	-29.283364	0.000588	5.878372	0.995823	0.000118
1966	1.9552e+02	-0.8565	-29.129953	0.000770	7.702695	1.304872	0.000154
1967	1.9562e+02	-0.8365	-29.000765	0.000649	6.486480	1.098839	0.000130
1968	1.9572e+02	-0.8157	-28.851391	0.000750	7.499992	1.270533	0.000150
1969	1.9582e+02	-0.7954	-28.697979	0.000770	7.702695	1.304872	0.000154
1970	1.9592e+02	-0.7767	-28.540531	0.000791	7.905397	1.339211	0.000158
1971	1.9601e+02	-0.7568	-28.463826	0.000385	3.851347	0.652436	0.000077
1972	1.9611e+02	-0.7370	-28.233709	0.001155	11.554042	1.957308	0.000231
1973	1.9621e+02	-0.7172	-28.152966	0.000405	4.054050	0.686775	0.000081
1974	1.9631e+02	-0.6972	-27.995518	0.000791	7.905397	1.339211	0.000158
1975	1.9641e+02	-0.6771	-27.874404	0.000608	6.081075	1.030162	0.000122
1976	1.9651e+02	-0.6565	-27.729067	0.000730	7.297290	1.236194	0.000146
1977	1.9661e+02	-0.6364	-27.583730	0.000730	7.297290	1.236194	0.000146
1978	1.9671e+02	-0.6165	-27.474727	0.000547	5.472967	0.927146	0.000110
1979	1.9681e+02	-0.5968	-27.341502	0.000669	6.689182	1.133178	0.000134
1980	1.9691e+02	-0.5778	-27.175979	0.000831	8.310802	1.407888	0.000166
1981	1.9701e+02	-0.5571	-27.002382	0.000872	8.716207	1.476565	0.000174
1982	1.9711e+02	-0.5374	-26.909528	0.000466	4.662157	0.789791	0.000093
1983	1.9721e+02	-0.5167	-26.739969	0.000851	8.513505	1.442227	0.000170
1984	1.9731e+02	-0.4975	-26.578483	0.000811	8.108100	1.373549	0.000162
1985	1.9741e+02	-0.4771	-26.453332	0.000628	6.283777	1.064501	0.000126
1986	1.9751e+02	-0.4578	-26.279735	0.000872	8.716207	1.476565	0.000174
1987	1.9761e+02	-0.4378	-26.174770	0.000527	5.270265	0.892807	0.000105
1988	1.9771e+02	-0.4171	-26.005210	0.000851	8.513505	1.442227	0.000170
1989	1.9781e+02	-0.3982	-25.851799	0.000770	7.702695	1.304872	0.000154
1990	1.9791e+02	-0.3783	-25.726647	0.000628	6.283777	1.064501	0.000126
1991	1.9800e+02	-0.3583	-25.605533	0.000608	6.081075	1.030162	0.000122
1992	1.9810e+02	-0.3379	-25.419825	0.000932	9.324315	1.579582	0.000187
1993	1.9820e+02	-0.3178	-25.310823	0.000547	5.472967	0.927146	0.000110
1994	1.9830e+02	-0.2986	-25.169523	0.000709	7.094587	1.201856	0.000142
1995	1.9840e+02	-0.2778	-24.999963	0.000851	8.513505	1.442227	0.000170
1996	1.9850e+02	-0.2586	-24.842515	0.000791	7.905397	1.339211	0.000158
1997	1.9860e+02	-0.2386	-24.709289	0.000669	6.689182	1.133178	0.000134
1998	1.9870e+02	-0.2182	-24.551841	0.000791	7.905397	1.339211	0.000158
1999	1.9880e+02	-0.1980	-24.410541	0.000709	7.094587	1.201856	0.000142
2000	1.9890e+02	-0.1781	-24.269241	0.000709	7.094587	1.201856	0.000142
2001	1.9900e+02	-0.1583	-24.079496	0.000953	9.527017	1.613920	0.000191
2002	1.9910e+02	-0.1385	-23.942233	0.000689	6.891885	1.167517	0.000138
2003	1.9920e+02	-0.1189	-23.800934	0.000709	7.094587	1.201856	0.000142
2004	1.9930e+02	-0.0985	-23.663671	0.000689	6.891885	1.167517	0.000138
2005	1.9940e+02	-0.0787	-23.522371	0.000709	7.094587	1.201856	0.000142
2006	1.9950e+02	-0.0589	-23.360886	0.000811	8.108100	1.373549	0.000162
2007	1.9960e+02	-0.0385	-23.251883	0.000547	5.472967	0.927146	0.000110
2008	1.9970e+02	-0.0201	-23.078286	0.000872	8.716207	1.476565	0.000174
2009	1.9980e+02	-0.0011	-22.949098	0.000872	8.716207	1.476565	0.000130

Smooth data before PMax, +/-Pr and +/-Vc Calc.

PMax (uC/cm2):	6.04e+01
Pr (uC/cm2):	8.04e+00
-Pr (uC/cm2):	-3.26e+01
PLoss (uC/cm2):	-3.27e+01
-Vc:	-1.16e+00
C (Max-Eff) (nF):	6.04e-01
K (Eff):	1.02e+03
Vert. (+/-Pr) Shift (uC/cm2):	-1.23e+01
Offset (uC/cm2):	-9.65e+00

A (Loop Area - uC/cm2·Volts):	-1.05e-01



Hysteresis Version: 5.48.1 - Radiant Technologies, Inc., 1999 - 9/12/24

