»»»»»»»»»»»»»»»»»»»»»»»»»»»»»»»»»»»» Hysteresis ««««««««««««««««««««««««««««««««««««
»»»  Executed Version:	5.48.1
»»»  Vision Version:	5.48.4 (R)
»»»  Vision Compiled:	9/18/24
»»»  Driver Version:	5.47.0
»»»  Windows Version:	Windows 8 or 8.1
»»»  Processor Information:	x86 (AMD or Intel) - 32 Processors
»»»  Tester Name:	PMF21124-494 (100V)
»»»  Tester S/N:	PMF21124-494
»»»  Internal Amp Type:	100V RevK 270k
»»»  Internal Amp S/N:	iAB2-596/K     
»»»  Execution Count:	1
»»»»»»»»»»»»»»»»»»»»»»»»»»»»»»»»»»»»»»»»»»««««««««««««««««««««««««««««««««««««««««««

Stored:	7/8/2025 - 16:27:29
Configured:	07/08/25 02:50:47 PM
Executed:	07/08/25 04:26:57 PM

»»»»»»»»»»»»»»»»»»»»»»»»»»»»»»»»»»» Sample Info ««««««««««««««««««««««««««««««««««««
Sample Name:	
Lot Name:	
Wafer Name:	
Die Row/Column:	0/0
Capacitor Number:	0
Sample Area (cm2):	1.00e-04
Sample Thickness (microns):	1.50e-01

Amplifier:	Internal

»»»»»»»»»»»»»»»»»»»»»»»»»»»»»»»»»»» Tester Info «««««««««««««««««««««««««««««««««««
Tester Name:	PMF21124-494 (100V)
Tester Serial Number:	PMF21124-494
Return Signal Amp. Level:	0.19 [Index: 3]

»»»»»»»»»»»»»»»»»»»»»»»»»»»»»»»» Hysteresis Info ««««««««««««««««««««««««««««««««««
Task Name:	Hyst-724
Volts:	10.00
Field:	666.67 (kV/cm)
DCBias:	0.00
DCField:	0.00 (kV/cm)
Hysteresis Period (ms):	2.00e+02
Preset:	Enabled
Preset Delay (ms):	1.00e+03
Profile:	Standard Bipolar

»»»»»»»»»»»»»»»»»»»»»»»»»»»»»»»»»»»»»» Data «««««««««««««««««««««««««««««««««««««««
Points:	2009

Valid Data

Point	Time (ms)	Drive Voltage	Measured Polarization (uC/cm2)	Capacitance (uF)	Normalized Capacitance (uF/cm2)	Dielectric Constant	Instantaneous Current (mA)
   1	0.0000e+00	-0.0008	16.146524	0.000486	4.864767	0.824114	0.000097
   2	9.9500e-02	0.0197	16.243416	0.000486	4.864767	0.824114	0.000097
   3	1.9900e-01	0.0390	16.320121	0.000385	3.851274	0.652423	0.000077
   4	2.9850e-01	0.0584	16.477570	0.000791	7.905246	1.339185	0.000158
   5	3.9800e-01	0.0782	16.606758	0.000649	6.486356	1.098818	0.000130
   6	4.9750e-01	0.0993	16.699612	0.000466	4.662068	0.789776	0.000093
   7	5.9700e-01	0.1192	16.792466	0.000466	4.662068	0.789776	0.000093
   8	6.9650e-01	0.1384	16.929729	0.000689	6.891753	1.167495	0.000138
   9	7.9600e-01	0.1587	17.066991	0.000689	6.891753	1.167495	0.000138
  10	8.9550e-01	0.1781	17.151771	0.000426	4.256671	0.721100	0.000085
  11	9.9500e-01	0.1985	17.289034	0.000689	6.891753	1.167495	0.000138
  12	1.0945e+00	0.2181	17.398036	0.000547	5.472863	0.927128	0.000110
  13	1.1940e+00	0.2389	17.470705	0.000365	3.648575	0.618085	0.000073
  14	1.2935e+00	0.2579	17.595856	0.000628	6.283657	1.064480	0.000126
  15	1.3930e+00	0.2769	17.733119	0.000689	6.891753	1.167495	0.000138
  16	1.4925e+00	0.2986	17.842121	0.000547	5.472863	0.927128	0.000110
  17	1.5920e+00	0.3184	17.934976	0.000466	4.662068	0.789776	0.000093
  18	1.6915e+00	0.3384	18.088387	0.000770	7.702548	1.304847	0.000154
  19	1.7910e+00	0.3577	18.213538	0.000628	6.283657	1.064480	0.000126
  20	1.8905e+00	0.3780	18.334652	0.000608	6.080959	1.030142	0.000122
  21	1.9900e+00	0.3980	18.455766	0.000608	6.080959	1.030142	0.000122
  22	2.0895e+00	0.4174	18.548620	0.000466	4.662068	0.789776	0.000093
  23	2.1890e+00	0.4380	18.617251	0.000345	3.445877	0.583747	0.000069
  24	2.2885e+00	0.4578	18.786811	0.000851	8.513342	1.442199	0.000170
  25	2.3880e+00	0.4776	18.903888	0.000588	5.878260	0.995804	0.000118
  26	2.4875e+00	0.4964	19.012891	0.000547	5.472863	0.927128	0.000110
  27	2.5870e+00	0.5183	19.174376	0.000811	8.107945	1.373523	0.000162
  28	2.6865e+00	0.5370	19.271267	0.000486	4.864767	0.824114	0.000097
  29	2.7860e+00	0.5577	19.364122	0.000466	4.662068	0.789776	0.000093
  30	2.8855e+00	0.5771	19.513496	0.000750	7.499849	1.270509	0.000150
  31	2.9850e+00	0.5965	19.602313	0.000446	4.459370	0.755438	0.000089
  32	3.0845e+00	0.6168	19.759761	0.000791	7.905246	1.339185	0.000158
  33	3.1840e+00	0.6371	19.860689	0.000507	5.067466	0.858452	0.000101
  34	3.2835e+00	0.6568	19.973729	0.000568	5.675561	0.961466	0.000114
  35	3.3830e+00	0.6766	20.102917	0.000649	6.486356	1.098818	0.000130
  36	3.4825e+00	0.6963	20.191734	0.000446	4.459370	0.755438	0.000089
  37	3.5820e+00	0.7167	20.345146	0.000770	7.702548	1.304847	0.000154
  38	3.6815e+00	0.7358	20.478371	0.000669	6.689055	1.133157	0.000134
  39	3.7810e+00	0.7560	20.579299	0.000507	5.067466	0.858452	0.000101
  40	3.8805e+00	0.7758	20.684265	0.000527	5.270164	0.892790	0.000105
  41	3.9800e+00	0.7963	20.793268	0.000547	5.472863	0.927128	0.000110
  42	4.0795e+00	0.8157	20.934567	0.000709	7.094452	1.201833	0.000142
  43	4.1790e+00	0.8360	21.063756	0.000649	6.486356	1.098818	0.000130
  44	4.2785e+00	0.8559	21.188907	0.000628	6.283657	1.064480	0.000126
  45	4.3780e+00	0.8759	21.297910	0.000547	5.472863	0.927128	0.000110
  46	4.4775e+00	0.8950	21.431135	0.000669	6.689055	1.133157	0.000134
  47	4.5770e+00	0.9155	21.515915	0.000426	4.256671	0.721100	0.000085
  48	4.6765e+00	0.9355	21.637029	0.000608	6.080959	1.030142	0.000122
  49	4.7760e+00	0.9555	21.778329	0.000709	7.094452	1.201833	0.000142
  50	4.8755e+00	0.9762	21.919628	0.000709	7.094452	1.201833	0.000142
  51	4.9750e+00	0.9951	22.016520	0.000486	4.864767	0.824114	0.000097
  52	5.0745e+00	1.0162	22.161857	0.000730	7.297150	1.236171	0.000146
  53	5.1740e+00	1.0349	22.258748	0.000486	4.864767	0.824114	0.000097
  54	5.2735e+00	1.0555	22.432345	0.000872	8.716041	1.476537	0.000174
  55	5.3730e+00	1.0759	22.529236	0.000486	4.864767	0.824114	0.000097
  56	5.4725e+00	1.1012	22.630164	0.000507	5.067466	0.858452	0.000101
  57	5.5720e+00	1.1147	22.759353	0.000649	6.486356	1.098818	0.000130
  58	5.6715e+00	1.1352	22.856244	0.000486	4.864767	0.824114	0.000097
  59	5.7710e+00	1.1551	22.993507	0.000689	6.891753	1.167495	0.000138
  60	5.8705e+00	1.1749	23.082324	0.000446	4.459370	0.755438	0.000089
  61	5.9700e+00	1.1949	23.215549	0.000669	6.689055	1.133157	0.000134
  62	6.0695e+00	1.2146	23.332626	0.000588	5.878260	0.995804	0.000118
  63	6.1690e+00	1.2350	23.477963	0.000730	7.297150	1.236171	0.000146
  64	6.2685e+00	1.2542	23.603114	0.000628	6.283657	1.064480	0.000126
  65	6.3680e+00	1.2744	23.768637	0.000831	8.310644	1.407861	0.000166
  66	6.4675e+00	1.2941	23.817082	0.000243	2.432383	0.412057	0.000049
  67	6.5670e+00	1.3142	23.982605	0.000831	8.310644	1.407861	0.000166
  68	6.6665e+00	1.3342	24.103719	0.000608	6.080959	1.030142	0.000122
  69	6.7660e+00	1.3544	24.236944	0.000669	6.689055	1.133157	0.000134
  70	6.8655e+00	1.3729	24.309613	0.000365	3.648575	0.618085	0.000073
  71	6.9650e+00	1.3930	24.398430	0.000446	4.459370	0.755438	0.000089
  72	7.0645e+00	1.4137	24.559915	0.000811	8.107945	1.373523	0.000162
  73	7.1640e+00	1.4336	24.676992	0.000588	5.878260	0.995804	0.000118
  74	7.2635e+00	1.4534	24.802143	0.000628	6.283657	1.064480	0.000126
  75	7.3630e+00	1.4740	24.931332	0.000649	6.486356	1.098818	0.000130
  76	7.4625e+00	1.4931	25.040334	0.000547	5.472863	0.927128	0.000110
  77	7.5620e+00	1.5139	25.177597	0.000689	6.891753	1.167495	0.000138
  78	7.6615e+00	1.5331	25.282563	0.000527	5.270164	0.892790	0.000105
  79	7.7610e+00	1.5528	25.395602	0.000568	5.675561	0.961466	0.000114
  80	7.8605e+00	1.5727	25.544976	0.000750	7.499849	1.270509	0.000150
  81	7.9600e+00	1.5923	25.653979	0.000547	5.472863	0.927128	0.000110
  82	8.0595e+00	1.6125	25.750870	0.000486	4.864767	0.824114	0.000097
  83	8.1590e+00	1.6327	25.876022	0.000628	6.283657	1.064480	0.000126
  84	8.2585e+00	1.6527	25.968876	0.000466	4.662068	0.789776	0.000093
  85	8.3580e+00	1.6724	26.146510	0.000892	8.918739	1.510875	0.000179
  86	8.4575e+00	1.6918	26.279735	0.000669	6.689055	1.133157	0.000134
  87	8.5570e+00	1.7129	26.392775	0.000568	5.675561	0.961466	0.000114
  88	8.6565e+00	1.7326	26.497740	0.000527	5.270164	0.892790	0.000105
  89	8.7560e+00	1.7523	26.622892	0.000628	6.283657	1.064480	0.000126
  90	8.8555e+00	1.7718	26.748043	0.000628	6.283657	1.064480	0.000126
  91	8.9550e+00	1.7912	26.881268	0.000669	6.689055	1.133157	0.000134
  92	9.0545e+00	1.8124	26.994308	0.000568	5.675561	0.961466	0.000114
  93	9.1540e+00	1.8319	27.111385	0.000588	5.878260	0.995804	0.000118
  94	9.2535e+00	1.8520	27.224425	0.000568	5.675561	0.961466	0.000114
  95	9.3530e+00	1.8716	27.349576	0.000628	6.283657	1.064480	0.000126
  96	9.4525e+00	1.8913	27.470690	0.000608	6.080959	1.030142	0.000122
  97	9.5520e+00	1.9118	27.591804	0.000608	6.080959	1.030142	0.000122
  98	9.6515e+00	1.9308	27.704844	0.000568	5.675561	0.961466	0.000114
  99	9.7510e+00	1.9521	27.870367	0.000831	8.310644	1.407861	0.000166
 100	9.8505e+00	1.9715	27.983406	0.000568	5.675561	0.961466	0.000114
 101	9.9500e+00	1.9916	28.116632	0.000669	6.689055	1.133157	0.000134
 102	1.0050e+01	2.0112	28.233709	0.000588	5.878260	0.995804	0.000118
 103	1.0149e+01	2.0307	28.358860	0.000628	6.283657	1.064480	0.000126
 104	1.0248e+01	2.0510	28.463826	0.000527	5.270164	0.892790	0.000105
 105	1.0348e+01	2.0710	28.609162	0.000730	7.297150	1.236171	0.000146
 106	1.0447e+01	2.0905	28.750462	0.000709	7.094452	1.201833	0.000142
 107	1.0547e+01	2.1114	28.855428	0.000527	5.270164	0.892790	0.000105
 108	1.0646e+01	2.1305	28.956356	0.000507	5.067466	0.858452	0.000101
 109	1.0746e+01	2.1496	29.089582	0.000669	6.689055	1.133157	0.000134
 110	1.0845e+01	2.1710	29.186473	0.000486	4.864767	0.824114	0.000097
 111	1.0945e+01	2.1908	29.347958	0.000811	8.107945	1.373523	0.000162
 112	1.1044e+01	2.2104	29.456961	0.000547	5.472863	0.927128	0.000110
 113	1.1144e+01	2.2301	29.590186	0.000669	6.689055	1.133157	0.000134
 114	1.1243e+01	2.2514	29.743598	0.000770	7.702548	1.304847	0.000154
 115	1.1343e+01	2.2701	29.824340	0.000405	4.053972	0.686762	0.000081
 116	1.1443e+01	2.2900	29.941417	0.000588	5.878260	0.995804	0.000118
 117	1.1542e+01	2.3101	30.078680	0.000689	6.891753	1.167495	0.000138
 118	1.1642e+01	2.3300	30.199794	0.000608	6.080959	1.030142	0.000122
 119	1.1741e+01	2.3498	30.296685	0.000486	4.864767	0.824114	0.000097
 120	1.1841e+01	2.3695	30.429911	0.000669	6.689055	1.133157	0.000134
 121	1.1940e+01	2.3901	30.551025	0.000608	6.080959	1.030142	0.000122
 122	1.2040e+01	2.4097	30.696362	0.000730	7.297150	1.236171	0.000146
 123	1.2139e+01	2.4290	30.781141	0.000426	4.256671	0.721100	0.000085
 124	1.2239e+01	2.4491	30.958775	0.000892	8.918739	1.510875	0.000179
 125	1.2338e+01	2.4693	31.059704	0.000507	5.067466	0.858452	0.000101
 126	1.2438e+01	2.4892	31.192929	0.000669	6.689055	1.133157	0.000134
 127	1.2537e+01	2.5090	31.293858	0.000507	5.067466	0.858452	0.000101
 128	1.2636e+01	2.5286	31.406897	0.000568	5.675561	0.961466	0.000114
 129	1.2736e+01	2.5491	31.564346	0.000791	7.905246	1.339185	0.000158
 130	1.2835e+01	2.5687	31.681423	0.000588	5.878260	0.995804	0.000118
 131	1.2935e+01	2.5882	31.806574	0.000628	6.283657	1.064480	0.000126
 132	1.3034e+01	2.6090	31.935762	0.000649	6.486356	1.098818	0.000130
 133	1.3134e+01	2.6287	32.024579	0.000446	4.459370	0.755438	0.000089
 134	1.3233e+01	2.6490	32.161842	0.000689	6.891753	1.167495	0.000138
 135	1.3333e+01	2.6690	32.291030	0.000649	6.486356	1.098818	0.000130
 136	1.3432e+01	2.6882	32.408107	0.000588	5.878260	0.995804	0.000118
 137	1.3532e+01	2.7080	32.541333	0.000669	6.689055	1.133157	0.000134
 138	1.3632e+01	2.7282	32.658410	0.000588	5.878260	0.995804	0.000118
 139	1.3731e+01	2.7483	32.775486	0.000588	5.878260	0.995804	0.000118
 140	1.3831e+01	2.7673	32.888526	0.000568	5.675561	0.961466	0.000114
 141	1.3930e+01	2.7876	33.029826	0.000709	7.094452	1.201833	0.000142
 142	1.4030e+01	2.8083	33.191311	0.000811	8.107945	1.373523	0.000162
 143	1.4129e+01	2.8283	33.280128	0.000446	4.459370	0.755438	0.000089
 144	1.4229e+01	2.8479	33.461800	0.000912	9.121438	1.545213	0.000183
 145	1.4328e+01	2.8683	33.538505	0.000385	3.851274	0.652423	0.000077
 146	1.4428e+01	2.8876	33.663656	0.000628	6.283657	1.064480	0.000126
 147	1.4527e+01	2.9079	33.756510	0.000466	4.662068	0.789776	0.000093
 148	1.4627e+01	2.9274	33.922033	0.000831	8.310644	1.407861	0.000166
 149	1.4726e+01	2.9470	34.063333	0.000709	7.094452	1.201833	0.000142
 150	1.4825e+01	2.9675	34.152150	0.000446	4.459370	0.755438	0.000089
 151	1.4925e+01	2.9868	34.293450	0.000709	7.094452	1.201833	0.000142
 152	1.5024e+01	3.0072	34.422638	0.000649	6.486356	1.098818	0.000130
 153	1.5124e+01	3.0264	34.563938	0.000709	7.094452	1.201833	0.000142
 154	1.5223e+01	3.0466	34.685052	0.000608	6.080959	1.030142	0.000122
 155	1.5323e+01	3.0679	34.806166	0.000608	6.080959	1.030142	0.000122
 156	1.5422e+01	3.0869	34.903057	0.000486	4.864767	0.824114	0.000097
 157	1.5522e+01	3.1076	35.060505	0.000791	7.905246	1.339185	0.000158
 158	1.5621e+01	3.1265	35.165471	0.000527	5.270164	0.892790	0.000105
 159	1.5721e+01	3.1464	35.306771	0.000709	7.094452	1.201833	0.000142
 160	1.5820e+01	3.1667	35.423848	0.000588	5.878260	0.995804	0.000118
 161	1.5920e+01	3.1876	35.524776	0.000507	5.067466	0.858452	0.000101
 162	1.6020e+01	3.2056	35.674150	0.000750	7.499849	1.270509	0.000150
 163	1.6119e+01	3.2264	35.815450	0.000709	7.094452	1.201833	0.000142
 164	1.6218e+01	3.2461	35.964824	0.000750	7.499849	1.270509	0.000150
 165	1.6318e+01	3.2668	36.061715	0.000486	4.864767	0.824114	0.000097
 166	1.6418e+01	3.2861	36.211089	0.000750	7.499849	1.270509	0.000150
 167	1.6517e+01	3.3060	36.316055	0.000527	5.270164	0.892790	0.000105
 168	1.6616e+01	3.3257	36.445243	0.000649	6.486356	1.098818	0.000130
 169	1.6716e+01	3.3456	36.538097	0.000466	4.662068	0.789776	0.000093
 170	1.6816e+01	3.3658	36.703620	0.000831	8.310644	1.407861	0.000166
 171	1.6915e+01	3.3862	36.816659	0.000568	5.675561	0.961466	0.000114
 172	1.7015e+01	3.4058	36.982182	0.000831	8.310644	1.407861	0.000166
 173	1.7114e+01	3.4264	37.058888	0.000385	3.851274	0.652423	0.000077
 174	1.7213e+01	3.4461	37.184039	0.000628	6.283657	1.064480	0.000126
 175	1.7313e+01	3.4651	37.313227	0.000649	6.486356	1.098818	0.000130
 176	1.7413e+01	3.4853	37.422230	0.000547	5.472863	0.927128	0.000110
 177	1.7512e+01	3.5064	37.559492	0.000689	6.891753	1.167495	0.000138
 178	1.7611e+01	3.5249	37.652346	0.000466	4.662068	0.789776	0.000093
 179	1.7711e+01	3.5456	37.817869	0.000831	8.310644	1.407861	0.000166
 180	1.7811e+01	3.5651	37.934946	0.000588	5.878260	0.995804	0.000118
 181	1.7910e+01	3.5848	38.031837	0.000486	4.864767	0.824114	0.000097
 182	1.8009e+01	3.6059	38.165063	0.000669	6.689055	1.133157	0.000134
 183	1.8109e+01	3.6248	38.290214	0.000628	6.283657	1.064480	0.000126
 184	1.8209e+01	3.6454	38.395179	0.000527	5.270164	0.892790	0.000105
 185	1.8308e+01	3.6656	38.536479	0.000709	7.094452	1.201833	0.000142
 186	1.8407e+01	3.6845	38.673742	0.000689	6.891753	1.167495	0.000138
 187	1.8507e+01	3.7051	38.738336	0.000324	3.243178	0.549409	0.000065
 188	1.8607e+01	3.7251	38.891747	0.000770	7.702548	1.304847	0.000154
 189	1.8706e+01	3.7454	38.992676	0.000507	5.067466	0.858452	0.000101
 190	1.8805e+01	3.7652	39.142050	0.000750	7.499849	1.270509	0.000150
 191	1.8905e+01	3.7840	39.242978	0.000507	5.067466	0.858452	0.000101
 192	1.9005e+01	3.8041	39.343906	0.000507	5.067466	0.858452	0.000101
 193	1.9104e+01	3.8238	39.521540	0.000892	8.918739	1.510875	0.000179
 194	1.9203e+01	3.8439	39.586134	0.000324	3.243178	0.549409	0.000065
 195	1.9303e+01	3.8632	39.691100	0.000527	5.270164	0.892790	0.000105
 196	1.9402e+01	3.8842	39.880845	0.000953	9.526835	1.613890	0.000191
 197	1.9502e+01	3.9040	40.001959	0.000608	6.080959	1.030142	0.000122
 198	1.9602e+01	3.9231	40.119036	0.000588	5.878260	0.995804	0.000118
 199	1.9701e+01	3.9440	40.240150	0.000608	6.080959	1.030142	0.000122
 200	1.9800e+01	3.9642	40.349153	0.000547	5.472863	0.927128	0.000110
 201	1.9900e+01	3.9833	40.462193	0.000568	5.675561	0.961466	0.000114
 202	2.0000e+01	4.0031	40.555047	0.000466	4.662068	0.789776	0.000093
 203	2.0099e+01	4.0232	40.712495	0.000791	7.905246	1.339185	0.000158
 204	2.0198e+01	4.0433	40.817461	0.000527	5.270164	0.892790	0.000105
 205	2.0298e+01	4.0633	40.942612	0.000628	6.283657	1.064480	0.000126
 206	2.0398e+01	4.0827	41.043540	0.000507	5.067466	0.858452	0.000101
 207	2.0497e+01	4.1033	41.180803	0.000689	6.891753	1.167495	0.000138
 208	2.0596e+01	4.1219	41.281731	0.000507	5.067466	0.858452	0.000101
 209	2.0696e+01	4.1429	41.414957	0.000669	6.689055	1.133157	0.000134
 210	2.0796e+01	4.1633	41.552220	0.000689	6.891753	1.167495	0.000138
 211	2.0895e+01	4.1824	41.636999	0.000426	4.256671	0.721100	0.000085
 212	2.0994e+01	4.2028	41.790411	0.000770	7.702548	1.304847	0.000154
 213	2.1094e+01	4.2229	41.887302	0.000486	4.864767	0.824114	0.000097
 214	2.1194e+01	4.2426	42.024564	0.000689	6.891753	1.167495	0.000138
 215	2.1293e+01	4.2622	42.129530	0.000527	5.270164	0.892790	0.000105
 216	2.1392e+01	4.2815	42.258718	0.000649	6.486356	1.098818	0.000130
 217	2.1492e+01	4.3024	42.359647	0.000507	5.067466	0.858452	0.000101
 218	2.1591e+01	4.3219	42.464612	0.000527	5.270164	0.892790	0.000105
 219	2.1691e+01	4.3421	42.581689	0.000588	5.878260	0.995804	0.000118
 220	2.1791e+01	4.3629	42.714915	0.000669	6.689055	1.133157	0.000134
 221	2.1890e+01	4.3826	42.815843	0.000507	5.067466	0.858452	0.000101
 222	2.1989e+01	4.4012	42.965217	0.000750	7.499849	1.270509	0.000150
 223	2.2089e+01	4.4221	43.074220	0.000547	5.472863	0.927128	0.000110
 224	2.2189e+01	4.4413	43.159000	0.000426	4.256671	0.721100	0.000085
 225	2.2288e+01	4.4610	43.280114	0.000608	6.080959	1.030142	0.000122
 226	2.2387e+01	4.4811	43.397191	0.000588	5.878260	0.995804	0.000118
 227	2.2487e+01	4.5016	43.498119	0.000507	5.067466	0.858452	0.000101
 228	2.2587e+01	4.5210	43.631344	0.000669	6.689055	1.133157	0.000134
 229	2.2686e+01	4.5412	43.720161	0.000446	4.459370	0.755438	0.000089
 230	2.2785e+01	4.5617	43.865498	0.000730	7.297150	1.236171	0.000146
 231	2.2885e+01	4.5811	43.938167	0.000365	3.648575	0.618085	0.000073
 232	2.2985e+01	4.6003	44.095615	0.000791	7.905246	1.339185	0.000158
 233	2.3084e+01	4.6212	44.176358	0.000405	4.053972	0.686762	0.000081
 234	2.3183e+01	4.6405	44.321695	0.000730	7.297150	1.236171	0.000146
 235	2.3283e+01	4.6609	44.426660	0.000527	5.270164	0.892790	0.000105
 236	2.3383e+01	4.6796	44.515477	0.000446	4.459370	0.755438	0.000089
 237	2.3482e+01	4.6999	44.652740	0.000689	6.891753	1.167495	0.000138
 238	2.3581e+01	4.7213	44.785965	0.000669	6.689055	1.133157	0.000134
 239	2.3681e+01	4.7392	44.874782	0.000446	4.459370	0.755438	0.000089
 240	2.3780e+01	4.7603	44.955525	0.000405	4.053972	0.686762	0.000081
 241	2.3880e+01	4.7796	45.080676	0.000628	6.283657	1.064480	0.000126
 242	2.3980e+01	4.8002	45.185642	0.000527	5.270164	0.892790	0.000105
 243	2.4079e+01	4.8200	45.330979	0.000730	7.297150	1.236171	0.000146
 244	2.4178e+01	4.8400	45.387499	0.000284	2.837781	0.480733	0.000057
 245	2.4278e+01	4.8597	45.553021	0.000831	8.310644	1.407861	0.000166
 246	2.4378e+01	4.8804	45.649912	0.000486	4.864767	0.824114	0.000097
 247	2.4477e+01	4.9001	45.746804	0.000486	4.864767	0.824114	0.000097
 248	2.4576e+01	4.9198	45.835621	0.000446	4.459370	0.755438	0.000089
 249	2.4676e+01	4.9401	45.940586	0.000527	5.270164	0.892790	0.000105
 250	2.4776e+01	4.9593	46.073812	0.000669	6.689055	1.133157	0.000134
 251	2.4875e+01	4.9802	46.178777	0.000527	5.270164	0.892790	0.000105
 252	2.4974e+01	4.9997	46.287780	0.000547	5.472863	0.927128	0.000110
 253	2.5074e+01	5.0201	46.412931	0.000628	6.283657	1.064480	0.000126
 254	2.5174e+01	5.0405	46.493674	0.000405	4.053972	0.686762	0.000081
 255	2.5273e+01	5.0591	46.639011	0.000730	7.297150	1.236171	0.000146
 256	2.5372e+01	5.0790	46.711679	0.000365	3.648575	0.618085	0.000073
 257	2.5472e+01	5.0999	46.808570	0.000486	4.864767	0.824114	0.000097
 258	2.5572e+01	5.1183	46.945833	0.000689	6.891753	1.167495	0.000138
 259	2.5671e+01	5.1389	47.062910	0.000588	5.878260	0.995804	0.000118
 260	2.5770e+01	5.1588	47.184024	0.000608	6.080959	1.030142	0.000122
 261	2.5870e+01	5.1795	47.252655	0.000345	3.445877	0.583747	0.000069
 262	2.5970e+01	5.1979	47.377806	0.000628	6.283657	1.064480	0.000126
 263	2.6069e+01	5.2178	47.515069	0.000689	6.891753	1.167495	0.000138
 264	2.6169e+01	5.2383	47.587738	0.000365	3.648575	0.618085	0.000073
 265	2.6268e+01	5.2586	47.725000	0.000689	6.891753	1.167495	0.000138
 266	2.6367e+01	5.2778	47.834003	0.000547	5.472863	0.927128	0.000110
 267	2.6467e+01	5.2981	47.930894	0.000486	4.864767	0.824114	0.000097
 268	2.6567e+01	5.3175	48.015674	0.000426	4.256671	0.721100	0.000085
 269	2.6666e+01	5.3382	48.128714	0.000568	5.675561	0.961466	0.000114
 270	2.6765e+01	5.3576	48.257902	0.000649	6.486356	1.098818	0.000130
 271	2.6865e+01	5.3776	48.350756	0.000466	4.662068	0.789776	0.000093
 272	2.6965e+01	5.3979	48.447647	0.000486	4.864767	0.824114	0.000097
 273	2.7064e+01	5.4175	48.552613	0.000527	5.270164	0.892790	0.000105
 274	2.7163e+01	5.4369	48.689876	0.000689	6.891753	1.167495	0.000138
 275	2.7263e+01	5.4571	48.794841	0.000527	5.270164	0.892790	0.000105
 276	2.7363e+01	5.4769	48.891732	0.000486	4.864767	0.824114	0.000097
 277	2.7462e+01	5.4977	49.016884	0.000628	6.283657	1.064480	0.000126
 278	2.7561e+01	5.5169	49.142035	0.000628	6.283657	1.064480	0.000126
 279	2.7661e+01	5.5376	49.247000	0.000527	5.270164	0.892790	0.000105
 280	2.7761e+01	5.5576	49.315632	0.000345	3.445877	0.583747	0.000069
 281	2.7860e+01	5.5779	49.412523	0.000486	4.864767	0.824114	0.000097
 282	2.7959e+01	5.5968	49.533637	0.000608	6.080959	1.030142	0.000122
 283	2.8059e+01	5.6167	49.634565	0.000507	5.067466	0.858452	0.000101
 284	2.8159e+01	5.6368	49.759717	0.000628	6.283657	1.064480	0.000126
 285	2.8258e+01	5.6570	49.860645	0.000507	5.067466	0.858452	0.000101
 286	2.8358e+01	5.6756	49.989833	0.000649	6.486356	1.098818	0.000130
 287	2.8457e+01	5.6963	50.042316	0.000264	2.635082	0.446395	0.000053
 288	2.8556e+01	5.7169	50.183616	0.000709	7.094452	1.201833	0.000142
 289	2.8656e+01	5.7372	50.252247	0.000345	3.445877	0.583747	0.000069
 290	2.8756e+01	5.7558	50.389510	0.000689	6.891753	1.167495	0.000138
 291	2.8855e+01	5.7761	50.514661	0.000628	6.283657	1.064480	0.000126
 292	2.8954e+01	5.7960	50.619626	0.000527	5.270164	0.892790	0.000105
 293	2.9054e+01	5.8163	50.708443	0.000446	4.459370	0.755438	0.000089
 294	2.9154e+01	5.8361	50.805335	0.000486	4.864767	0.824114	0.000097
 295	2.9253e+01	5.8559	50.894152	0.000446	4.459370	0.755438	0.000089
 296	2.9352e+01	5.8764	51.031414	0.000689	6.891753	1.167495	0.000138
 297	2.9452e+01	5.8958	51.152528	0.000608	6.080959	1.030142	0.000122
 298	2.9552e+01	5.9158	51.261531	0.000547	5.472863	0.927128	0.000110
 299	2.9651e+01	5.9359	51.342274	0.000405	4.053972	0.686762	0.000081
 300	2.9750e+01	5.9547	51.427054	0.000426	4.256671	0.721100	0.000085
 301	2.9850e+01	5.9756	51.552205	0.000628	6.283657	1.064480	0.000126
 302	2.9950e+01	5.9948	51.677356	0.000628	6.283657	1.064480	0.000126
 303	3.0049e+01	6.0149	51.802507	0.000628	6.283657	1.064480	0.000126
 304	3.0148e+01	6.0349	51.863064	0.000304	3.040479	0.515071	0.000061
 305	3.0248e+01	6.0554	52.000327	0.000689	6.891753	1.167495	0.000138
 306	3.0348e+01	6.0748	52.093181	0.000466	4.662068	0.789776	0.000093
 307	3.0447e+01	6.0955	52.181998	0.000446	4.459370	0.755438	0.000089
 308	3.0547e+01	6.1150	52.307149	0.000628	6.283657	1.064480	0.000126
 309	3.0646e+01	6.1352	52.412115	0.000527	5.270164	0.892790	0.000105
 310	3.0745e+01	6.1550	52.513043	0.000507	5.067466	0.858452	0.000101
 311	3.0845e+01	6.1744	52.609934	0.000486	4.864767	0.824114	0.000097
 312	3.0945e+01	6.1946	52.731048	0.000608	6.080959	1.030142	0.000122
 313	3.1044e+01	6.2149	52.819865	0.000446	4.459370	0.755438	0.000089
 314	3.1143e+01	6.2354	52.932905	0.000568	5.675561	0.961466	0.000114
 315	3.1243e+01	6.2539	53.017685	0.000426	4.256671	0.721100	0.000085
 316	3.1343e+01	6.2742	53.146873	0.000649	6.486356	1.098818	0.000130
 317	3.1442e+01	6.2945	53.255876	0.000547	5.472863	0.927128	0.000110
 318	3.1541e+01	6.3134	53.320470	0.000324	3.243178	0.549409	0.000065
 319	3.1641e+01	6.3332	53.469844	0.000750	7.499849	1.270509	0.000150
 320	3.1741e+01	6.3528	53.558661	0.000446	4.459370	0.755438	0.000089
 321	3.1840e+01	6.3738	53.627293	0.000345	3.445877	0.583747	0.000069
 322	3.1939e+01	6.3929	53.792815	0.000831	8.310644	1.407861	0.000166
 323	3.2039e+01	6.4124	53.889706	0.000486	4.864767	0.824114	0.000097
 324	3.2139e+01	6.4327	53.978523	0.000446	4.459370	0.755438	0.000089
 325	3.2238e+01	6.4531	54.107712	0.000649	6.486356	1.098818	0.000130
 326	3.2337e+01	6.4735	54.220752	0.000568	5.675561	0.961466	0.000114
 327	3.2437e+01	6.4922	54.333791	0.000568	5.675561	0.961466	0.000114
 328	3.2536e+01	6.5127	54.414534	0.000405	4.053972	0.686762	0.000081
 329	3.2636e+01	6.5324	54.519500	0.000527	5.270164	0.892790	0.000105
 330	3.2736e+01	6.5533	54.600242	0.000405	4.053972	0.686762	0.000081
 331	3.2835e+01	6.5728	54.709245	0.000547	5.472863	0.927128	0.000110
 332	3.2934e+01	6.5919	54.822285	0.000568	5.675561	0.961466	0.000114
 333	3.3034e+01	6.6122	54.931287	0.000547	5.472863	0.927128	0.000110
 334	3.3133e+01	6.6323	55.072587	0.000709	7.094452	1.201833	0.000142
 335	3.3233e+01	6.6530	55.157367	0.000426	4.256671	0.721100	0.000085
 336	3.3333e+01	6.6722	55.290593	0.000669	6.689055	1.133157	0.000134
 337	3.3432e+01	6.6929	55.371335	0.000405	4.053972	0.686762	0.000081
 338	3.3532e+01	6.7123	55.500524	0.000649	6.486356	1.098818	0.000130
 339	3.3631e+01	6.7319	55.536858	0.000182	1.824288	0.309043	0.000037
 340	3.3730e+01	6.7505	55.657972	0.000608	6.080959	1.030142	0.000122
 341	3.3830e+01	6.7725	55.754863	0.000486	4.864767	0.824114	0.000097
 342	3.3929e+01	6.7921	55.896163	0.000709	7.094452	1.201833	0.000142
 343	3.4029e+01	6.8118	55.993054	0.000486	4.864767	0.824114	0.000097
 344	3.4129e+01	6.8322	56.093983	0.000507	5.067466	0.858452	0.000101
 345	3.4228e+01	6.8520	56.219134	0.000628	6.283657	1.064480	0.000126
 346	3.4328e+01	6.8713	56.283728	0.000324	3.243178	0.549409	0.000065
 347	3.4427e+01	6.8920	56.420991	0.000689	6.891753	1.167495	0.000138
 348	3.4526e+01	6.9109	56.477510	0.000284	2.837781	0.480733	0.000057
 349	3.4626e+01	6.9317	56.614773	0.000689	6.891753	1.167495	0.000138
 350	3.4725e+01	6.9510	56.679367	0.000324	3.243178	0.549409	0.000065
 351	3.4825e+01	6.9708	56.768184	0.000446	4.459370	0.755438	0.000089
 352	3.4925e+01	6.9909	56.901410	0.000669	6.689055	1.133157	0.000134
 353	3.5024e+01	7.0104	57.038672	0.000689	6.891753	1.167495	0.000138
 354	3.5123e+01	7.0302	57.083081	0.000223	2.229685	0.377719	0.000045
 355	3.5223e+01	7.0510	57.123452	0.000203	2.026986	0.343381	0.000041
 356	3.5322e+01	7.0708	57.305123	0.000912	9.121438	1.545213	0.000183
 357	3.5422e+01	7.0905	57.385866	0.000405	4.053972	0.686762	0.000081
 358	3.5522e+01	7.1107	57.498906	0.000568	5.675561	0.961466	0.000114
 359	3.5621e+01	7.1301	57.611946	0.000568	5.675561	0.961466	0.000114
 360	3.5721e+01	7.1505	57.684614	0.000365	3.648575	0.618085	0.000073
 361	3.5820e+01	7.1709	57.793617	0.000547	5.472863	0.927128	0.000110
 362	3.5919e+01	7.1905	57.882434	0.000446	4.459370	0.755438	0.000089
 363	3.6019e+01	7.2096	58.015659	0.000669	6.689055	1.133157	0.000134
 364	3.6118e+01	7.2300	58.173107	0.000791	7.905246	1.339185	0.000158
 365	3.6218e+01	7.2500	58.193293	0.000101	1.013493	0.171690	0.000020
 366	3.6318e+01	7.2701	58.310370	0.000588	5.878260	0.995804	0.000118
 367	3.6417e+01	7.2894	58.443596	0.000669	6.689055	1.133157	0.000134
 368	3.6517e+01	7.3096	58.512227	0.000345	3.445877	0.583747	0.000069
 369	3.6616e+01	7.3295	58.633341	0.000608	6.080959	1.030142	0.000122
 370	3.6715e+01	7.3489	58.734269	0.000507	5.067466	0.858452	0.000101
 371	3.6815e+01	7.3696	58.798863	0.000324	3.243178	0.549409	0.000065
 372	3.6914e+01	7.3895	58.879606	0.000405	4.053972	0.686762	0.000081
 373	3.7014e+01	7.4090	59.012832	0.000669	6.689055	1.133157	0.000134
 374	3.7114e+01	7.4300	59.081463	0.000345	3.445877	0.583747	0.000069
 375	3.7213e+01	7.4492	59.226800	0.000730	7.297150	1.236171	0.000146
 376	3.7313e+01	7.4683	59.331765	0.000527	5.270164	0.892790	0.000105
 377	3.7412e+01	7.4883	59.416545	0.000426	4.256671	0.721100	0.000085
 378	3.7511e+01	7.5084	59.513436	0.000486	4.864767	0.824114	0.000097
 379	3.7611e+01	7.5291	59.594179	0.000405	4.053972	0.686762	0.000081
 380	3.7711e+01	7.5481	59.703182	0.000547	5.472863	0.927128	0.000110
 381	3.7810e+01	7.5686	59.787962	0.000426	4.256671	0.721100	0.000085
 382	3.7910e+01	7.5891	59.913113	0.000628	6.283657	1.064480	0.000126
 383	3.8009e+01	7.6081	60.005967	0.000466	4.662068	0.789776	0.000093
 384	3.8108e+01	7.6278	60.094784	0.000446	4.459370	0.755438	0.000089
 385	3.8208e+01	7.6487	60.175527	0.000405	4.053972	0.686762	0.000081
 386	3.8307e+01	7.6682	60.276455	0.000507	5.067466	0.858452	0.000101
 387	3.8407e+01	7.6877	60.393532	0.000588	5.878260	0.995804	0.000118
 388	3.8507e+01	7.7079	60.478312	0.000426	4.256671	0.721100	0.000085
 389	3.8606e+01	7.7280	60.587315	0.000547	5.472863	0.927128	0.000110
 390	3.8706e+01	7.7477	60.684206	0.000486	4.864767	0.824114	0.000097
 391	3.8805e+01	7.7673	60.696317	0.000061	0.608096	0.103014	0.000012
 392	3.8904e+01	7.7882	60.853766	0.000791	7.905246	1.339185	0.000158
 393	3.9004e+01	7.8080	60.946620	0.000466	4.662068	0.789776	0.000093
 394	3.9103e+01	7.8271	61.007177	0.000304	3.040479	0.515071	0.000061
 395	3.9203e+01	7.8474	61.071771	0.000324	3.243178	0.549409	0.000065
 396	3.9303e+01	7.8669	61.204996	0.000669	6.689055	1.133157	0.000134
 397	3.9402e+01	7.8864	61.305925	0.000507	5.067466	0.858452	0.000101
 398	3.9502e+01	7.9065	61.386667	0.000405	4.053972	0.686762	0.000081
 399	3.9601e+01	7.9276	61.511819	0.000628	6.283657	1.064480	0.000126
 400	3.9700e+01	7.9462	61.616784	0.000527	5.270164	0.892790	0.000105
 401	3.9800e+01	7.9671	61.677341	0.000304	3.040479	0.515071	0.000061
 402	3.9900e+01	7.9865	61.766158	0.000446	4.459370	0.755438	0.000089
 403	3.9999e+01	8.0078	61.875161	0.000547	5.472863	0.927128	0.000110
 404	4.0099e+01	8.0264	61.947829	0.000365	3.648575	0.618085	0.000073
 405	4.0198e+01	8.0460	62.040683	0.000466	4.662068	0.789776	0.000093
 406	4.0297e+01	8.0659	62.153723	0.000568	5.675561	0.961466	0.000114
 407	4.0397e+01	8.0859	62.250615	0.000486	4.864767	0.824114	0.000097
 408	4.0496e+01	8.1066	62.367691	0.000588	5.878260	0.995804	0.000118
 409	4.0596e+01	8.1261	62.436323	0.000345	3.445877	0.583747	0.000069
 410	4.0696e+01	8.1465	62.545325	0.000547	5.472863	0.927128	0.000110
 411	4.0795e+01	8.1661	62.630105	0.000426	4.256671	0.721100	0.000085
 412	4.0895e+01	8.1850	62.706811	0.000385	3.851274	0.652423	0.000077
 413	4.0994e+01	8.2062	62.795628	0.000446	4.459370	0.755438	0.000089
 414	4.1093e+01	8.2261	62.880408	0.000426	4.256671	0.721100	0.000085
 415	4.1193e+01	8.2456	62.977299	0.000486	4.864767	0.824114	0.000097
 416	4.1292e+01	8.2648	63.070153	0.000466	4.662068	0.789776	0.000093
 417	4.1392e+01	8.2856	63.163007	0.000466	4.662068	0.789776	0.000093
 418	4.1492e+01	8.3060	63.239713	0.000385	3.851274	0.652423	0.000077
 419	4.1591e+01	8.3255	63.340641	0.000507	5.067466	0.858452	0.000101
 420	4.1691e+01	8.3458	63.405235	0.000324	3.243178	0.549409	0.000065
 421	4.1790e+01	8.3648	63.522312	0.000588	5.878260	0.995804	0.000118
 422	4.1889e+01	8.3849	63.615166	0.000466	4.662068	0.789776	0.000093
 423	4.1989e+01	8.4048	63.695909	0.000405	4.053972	0.686762	0.000081
 424	4.2089e+01	8.4250	63.764540	0.000345	3.445877	0.583747	0.000069
 425	4.2188e+01	8.4448	63.885654	0.000608	6.080959	1.030142	0.000122
 426	4.2288e+01	8.4649	63.954286	0.000345	3.445877	0.583747	0.000069
 427	4.2387e+01	8.4843	64.079437	0.000628	6.283657	1.064480	0.000126
 428	4.2486e+01	8.5038	64.131920	0.000264	2.635082	0.446395	0.000053
 429	4.2586e+01	8.5233	64.261108	0.000649	6.486356	1.098818	0.000130
 430	4.2685e+01	8.5439	64.337814	0.000385	3.851274	0.652423	0.000077
 431	4.2785e+01	8.5645	64.382222	0.000223	2.229685	0.377719	0.000045
 432	4.2885e+01	8.5840	64.515448	0.000669	6.689055	1.133157	0.000134
 433	4.2984e+01	8.6040	64.580042	0.000324	3.243178	0.549409	0.000065
 434	4.3084e+01	8.6240	64.656747	0.000385	3.851274	0.652423	0.000077
 435	4.3183e+01	8.6443	64.785936	0.000649	6.486356	1.098818	0.000130
 436	4.3282e+01	8.6641	64.907050	0.000608	6.080959	1.030142	0.000122
 437	4.3382e+01	8.6844	64.943384	0.000182	1.824288	0.309043	0.000037
 438	4.3481e+01	8.7045	65.044312	0.000507	5.067466	0.858452	0.000101
 439	4.3581e+01	8.7241	65.145241	0.000507	5.067466	0.858452	0.000101
 440	4.3681e+01	8.7427	65.213872	0.000345	3.445877	0.583747	0.000069
 441	4.3780e+01	8.7646	65.339023	0.000628	6.283657	1.064480	0.000126
 442	4.3880e+01	8.7830	65.419766	0.000405	4.053972	0.686762	0.000081
 443	4.3979e+01	8.8037	65.524732	0.000527	5.270164	0.892790	0.000105
 444	4.4078e+01	8.8221	65.593363	0.000345	3.445877	0.583747	0.000069
 445	4.4178e+01	8.8428	65.678143	0.000426	4.256671	0.721100	0.000085
 446	4.4278e+01	8.8623	65.791183	0.000568	5.675561	0.961466	0.000114
 447	4.4377e+01	8.8831	65.827517	0.000182	1.824288	0.309043	0.000037
 448	4.4477e+01	8.9032	65.960742	0.000669	6.689055	1.133157	0.000134
 449	4.4576e+01	8.9227	66.025336	0.000324	3.243178	0.549409	0.000065
 450	4.4675e+01	8.9418	66.118191	0.000466	4.662068	0.789776	0.000093
 451	4.4775e+01	8.9611	66.219119	0.000507	5.067466	0.858452	0.000101
 452	4.4874e+01	8.9825	66.307936	0.000446	4.459370	0.755438	0.000089
 453	4.4974e+01	9.0018	66.376567	0.000345	3.445877	0.583747	0.000069
 454	4.5074e+01	9.0219	66.457310	0.000405	4.053972	0.686762	0.000081
 455	4.5173e+01	9.0427	66.574387	0.000588	5.878260	0.995804	0.000118
 456	4.5273e+01	9.0620	66.630907	0.000284	2.837781	0.480733	0.000057
 457	4.5372e+01	9.0813	66.719724	0.000446	4.459370	0.755438	0.000089
 458	4.5471e+01	9.1007	66.780281	0.000304	3.040479	0.515071	0.000061
 459	4.5571e+01	9.1213	66.881209	0.000507	5.067466	0.858452	0.000101
 460	4.5670e+01	9.1406	66.986175	0.000527	5.270164	0.892790	0.000105
 461	4.5770e+01	9.1611	67.066917	0.000405	4.053972	0.686762	0.000081
 462	4.5870e+01	9.1810	67.131512	0.000324	3.243178	0.549409	0.000065
 463	4.5969e+01	9.2017	67.264737	0.000669	6.689055	1.133157	0.000134
 464	4.6069e+01	9.2213	67.329331	0.000324	3.243178	0.549409	0.000065
 465	4.6168e+01	9.2410	67.410074	0.000405	4.053972	0.686762	0.000081
 466	4.6267e+01	9.2606	67.519077	0.000547	5.472863	0.927128	0.000110
 467	4.6367e+01	9.2809	67.636154	0.000588	5.878260	0.995804	0.000118
 468	4.6467e+01	9.3011	67.708822	0.000365	3.648575	0.618085	0.000073
 469	4.6566e+01	9.3204	67.813788	0.000527	5.270164	0.892790	0.000105
 470	4.6666e+01	9.3408	67.846085	0.000162	1.621589	0.274705	0.000032
 471	4.6765e+01	9.3604	67.942976	0.000486	4.864767	0.824114	0.000097
 472	4.6864e+01	9.3810	68.035830	0.000466	4.662068	0.789776	0.000093
 473	4.6964e+01	9.3995	68.165018	0.000649	6.486356	1.098818	0.000130
 474	4.7063e+01	9.4189	68.257872	0.000466	4.662068	0.789776	0.000093
 475	4.7163e+01	9.4401	68.358801	0.000507	5.067466	0.858452	0.000101
 476	4.7263e+01	9.4598	68.427432	0.000345	3.445877	0.583747	0.000069
 477	4.7362e+01	9.4802	68.500101	0.000365	3.648575	0.618085	0.000073
 478	4.7462e+01	9.4992	68.588918	0.000446	4.459370	0.755438	0.000089
 479	4.7561e+01	9.5203	68.685809	0.000486	4.864767	0.824114	0.000097
 480	4.7660e+01	9.5405	68.754440	0.000345	3.445877	0.583747	0.000069
 481	4.7760e+01	9.5588	68.819034	0.000324	3.243178	0.549409	0.000065
 482	4.7859e+01	9.5802	68.956297	0.000689	6.891753	1.167495	0.000138
 483	4.7959e+01	9.5996	69.033003	0.000385	3.851274	0.652423	0.000077
 484	4.8059e+01	9.6196	69.101634	0.000345	3.445877	0.583747	0.000069
 485	4.8158e+01	9.6389	69.206599	0.000527	5.270164	0.892790	0.000105
 486	4.8258e+01	9.6588	69.307528	0.000507	5.067466	0.858452	0.000101
 487	4.8357e+01	9.6780	69.376159	0.000345	3.445877	0.583747	0.000069
 488	4.8456e+01	9.6987	69.473050	0.000486	4.864767	0.824114	0.000097
 489	4.8556e+01	9.7192	69.590127	0.000588	5.878260	0.995804	0.000118
 490	4.8656e+01	9.7390	69.638573	0.000243	2.432383	0.412057	0.000049
 491	4.8755e+01	9.7595	69.747576	0.000547	5.472863	0.927128	0.000110
 492	4.8855e+01	9.7782	69.860615	0.000568	5.675561	0.961466	0.000114
 493	4.8954e+01	9.7991	69.929247	0.000345	3.445877	0.583747	0.000069
 494	4.9053e+01	9.8188	70.026138	0.000486	4.864767	0.824114	0.000097
 495	4.9153e+01	9.8376	70.102844	0.000385	3.851274	0.652423	0.000077
 496	4.9252e+01	9.8573	70.171475	0.000345	3.445877	0.583747	0.000069
 497	4.9352e+01	9.8779	70.252218	0.000405	4.053972	0.686762	0.000081
 498	4.9452e+01	9.8978	70.393517	0.000709	7.094452	1.201833	0.000142
 499	4.9551e+01	9.9188	70.458111	0.000324	3.243178	0.549409	0.000065
 500	4.9651e+01	9.9392	70.546928	0.000446	4.459370	0.755438	0.000089
 501	4.9750e+01	9.9574	70.672080	0.000628	6.283657	1.064480	0.000126
 502	4.9849e+01	9.9772	70.756860	0.000426	4.256671	0.721100	0.000085
 503	4.9949e+01	9.9973	70.829528	0.000365	3.648575	0.618085	0.000073
 504	5.0048e+01	9.9781	70.748785	0.000405	4.053972	0.686762	-0.000081
 505	5.0148e+01	9.9587	70.696302	0.000264	2.635082	0.446395	-0.000053
 506	5.0248e+01	9.9380	70.659968	0.000182	1.824288	0.309043	-0.000037
 507	5.0347e+01	9.9172	70.627671	0.000162	1.621589	0.274705	-0.000032
 508	5.0447e+01	9.8975	70.538854	0.000446	4.459370	0.755438	-0.000089
 509	5.0546e+01	9.8781	70.490409	0.000243	2.432383	0.412057	-0.000049
 510	5.0645e+01	9.8572	70.409666	0.000405	4.053972	0.686762	-0.000081
 511	5.0745e+01	9.8374	70.341035	0.000345	3.445877	0.583747	-0.000069
 512	5.0844e+01	9.8187	70.260292	0.000405	4.053972	0.686762	-0.000081
 513	5.0944e+01	9.7987	70.203772	0.000284	2.837781	0.480733	-0.000057
 514	5.1044e+01	9.7776	70.131103	0.000365	3.648575	0.618085	-0.000073
 515	5.1143e+01	9.7595	70.070546	0.000304	3.040479	0.515071	-0.000061
 516	5.1242e+01	9.7388	70.001915	0.000345	3.445877	0.583747	-0.000069
 517	5.1342e+01	9.7192	69.969618	0.000162	1.621589	0.274705	-0.000032
 518	5.1441e+01	9.6991	69.848504	0.000608	6.080959	1.030142	-0.000122
 519	5.1541e+01	9.6790	69.783910	0.000324	3.243178	0.549409	-0.000065
 520	5.1641e+01	9.6591	69.775836	0.000041	0.405397	0.068676	-0.000008
 521	5.1740e+01	9.6391	69.678944	0.000486	4.864767	0.824114	-0.000097
 522	5.1840e+01	9.6181	69.561867	0.000588	5.878260	0.995804	-0.000118
 523	5.1939e+01	9.5996	69.537645	0.000122	1.216192	0.206028	-0.000024
 524	5.2038e+01	9.5804	69.456902	0.000405	4.053972	0.686762	-0.000081
 525	5.2138e+01	9.5596	69.404419	0.000264	2.635082	0.446395	-0.000053
 526	5.2237e+01	9.5403	69.323676	0.000405	4.053972	0.686762	-0.000081
 527	5.2337e+01	9.5197	69.242934	0.000405	4.053972	0.686762	-0.000081
 528	5.2437e+01	9.4990	69.170265	0.000365	3.648575	0.618085	-0.000073
 529	5.2536e+01	9.4795	69.121820	0.000243	2.432383	0.412057	-0.000049
 530	5.2636e+01	9.4602	69.065300	0.000284	2.837781	0.480733	-0.000057
 531	5.2735e+01	9.4400	69.000705	0.000324	3.243178	0.549409	-0.000065
 532	5.2834e+01	9.4196	68.936111	0.000324	3.243178	0.549409	-0.000065
 533	5.2934e+01	9.4003	68.839220	0.000486	4.864767	0.824114	-0.000097
 534	5.3033e+01	9.3800	68.754440	0.000426	4.256671	0.721100	-0.000085
 535	5.3133e+01	9.3604	68.705995	0.000243	2.432383	0.412057	-0.000049
 536	5.3233e+01	9.3408	68.633326	0.000365	3.648575	0.618085	-0.000073
 537	5.3332e+01	9.3201	68.580843	0.000264	2.635082	0.446395	-0.000053
 538	5.3431e+01	9.3006	68.496063	0.000426	4.256671	0.721100	-0.000085
 539	5.3531e+01	9.2810	68.387061	0.000547	5.472863	0.927128	-0.000110
 540	5.3630e+01	9.2612	68.330541	0.000284	2.837781	0.480733	-0.000057
 541	5.3730e+01	9.2416	68.278058	0.000264	2.635082	0.446395	-0.000053
 542	5.3830e+01	9.2214	68.225575	0.000264	2.635082	0.446395	-0.000053
 543	5.3929e+01	9.2004	68.124647	0.000507	5.067466	0.858452	-0.000101
 544	5.4029e+01	9.1806	68.088313	0.000182	1.824288	0.309043	-0.000037
 545	5.4128e+01	9.1615	67.983347	0.000527	5.270164	0.892790	-0.000105
 546	5.4227e+01	9.1425	67.894530	0.000446	4.459370	0.755438	-0.000089
 547	5.4327e+01	9.1212	67.813788	0.000405	4.053972	0.686762	-0.000081
 548	5.4426e+01	9.1016	67.777453	0.000182	1.824288	0.309043	-0.000037
 549	5.4526e+01	9.0810	67.676525	0.000507	5.067466	0.858452	-0.000101
 550	5.4626e+01	9.0615	67.620005	0.000284	2.837781	0.480733	-0.000057
 551	5.4725e+01	9.0412	67.539262	0.000405	4.053972	0.686762	-0.000081
 552	5.4825e+01	9.0214	67.486780	0.000264	2.635082	0.446395	-0.000053
 553	5.4924e+01	9.0018	67.377777	0.000547	5.472863	0.927128	-0.000110
 554	5.5023e+01	8.9812	67.333368	0.000223	2.229685	0.377719	-0.000045
 555	5.5123e+01	8.9615	67.244551	0.000446	4.459370	0.755438	-0.000089
 556	5.5222e+01	8.9417	67.159772	0.000426	4.256671	0.721100	-0.000085
 557	5.5322e+01	8.9217	67.062880	0.000486	4.864767	0.824114	-0.000097
 558	5.5422e+01	8.9019	67.014435	0.000243	2.432383	0.412057	-0.000049
 559	5.5521e+01	8.8818	66.913506	0.000507	5.067466	0.858452	-0.000101
 560	5.5620e+01	8.8624	66.861024	0.000264	2.635082	0.446395	-0.000053
 561	5.5720e+01	8.8428	66.776244	0.000426	4.256671	0.721100	-0.000085
 562	5.5819e+01	8.8233	66.675315	0.000507	5.067466	0.858452	-0.000101
 563	5.5919e+01	8.8047	66.594573	0.000405	4.053972	0.686762	-0.000081
 564	5.6019e+01	8.7833	66.550164	0.000223	2.229685	0.377719	-0.000045
 565	5.6118e+01	8.7646	66.445199	0.000527	5.270164	0.892790	-0.000105
 566	5.6218e+01	8.7437	66.404827	0.000203	2.026986	0.343381	-0.000041
 567	5.6317e+01	8.7234	66.303899	0.000507	5.067466	0.858452	-0.000101
 568	5.6416e+01	8.7045	66.223156	0.000405	4.053972	0.686762	-0.000081
 569	5.6516e+01	8.6835	66.138376	0.000426	4.256671	0.721100	-0.000085
 570	5.6615e+01	8.6640	66.085893	0.000264	2.635082	0.446395	-0.000053
 571	5.6715e+01	8.6442	66.029374	0.000284	2.837781	0.480733	-0.000057
 572	5.6815e+01	8.6243	65.912297	0.000588	5.878260	0.995804	-0.000118
 573	5.6914e+01	8.6037	65.803294	0.000547	5.472863	0.927128	-0.000110
 574	5.7014e+01	8.5852	65.730626	0.000365	3.648575	0.618085	-0.000073
 575	5.7113e+01	8.5648	65.641809	0.000446	4.459370	0.755438	-0.000089
 576	5.7212e+01	8.5441	65.569140	0.000365	3.648575	0.618085	-0.000073
 577	5.7312e+01	8.5249	65.532806	0.000182	1.824288	0.309043	-0.000037
 578	5.7411e+01	8.5041	65.403618	0.000649	6.486356	1.098818	-0.000130
 579	5.7511e+01	8.4848	65.343060	0.000304	3.040479	0.515071	-0.000061
 580	5.7611e+01	8.4652	65.286541	0.000284	2.837781	0.480733	-0.000057
 581	5.7710e+01	8.4443	65.193686	0.000466	4.662068	0.789776	-0.000093
 582	5.7809e+01	8.4266	65.084684	0.000547	5.472863	0.927128	-0.000110
 583	5.7909e+01	8.4055	65.036238	0.000243	2.432383	0.412057	-0.000049
 584	5.8008e+01	8.3856	64.923198	0.000568	5.675561	0.961466	-0.000114
 585	5.8108e+01	8.3656	64.858604	0.000324	3.243178	0.549409	-0.000065
 586	5.8208e+01	8.3458	64.753639	0.000527	5.270164	0.892790	-0.000105
 587	5.8307e+01	8.3253	64.672896	0.000405	4.053972	0.686762	-0.000081
 588	5.8407e+01	8.3057	64.604265	0.000345	3.445877	0.583747	-0.000069
 589	5.8506e+01	8.2859	64.491225	0.000568	5.675561	0.961466	-0.000114
 590	5.8605e+01	8.2647	64.442779	0.000243	2.432383	0.412057	-0.000049
 591	5.8705e+01	8.2462	64.386259	0.000284	2.837781	0.480733	-0.000057
 592	5.8804e+01	8.2253	64.265145	0.000608	6.080959	1.030142	-0.000122
 593	5.8904e+01	8.2058	64.196514	0.000345	3.445877	0.583747	-0.000069
 594	5.9004e+01	8.1861	64.119808	0.000385	3.851274	0.652423	-0.000077
 595	5.9103e+01	8.1666	64.018880	0.000507	5.067466	0.858452	-0.000101
 596	5.9203e+01	8.1461	63.954286	0.000324	3.243178	0.549409	-0.000065
 597	5.9302e+01	8.1257	63.833172	0.000608	6.080959	1.030142	-0.000122
 598	5.9401e+01	8.1071	63.804912	0.000142	1.418890	0.240367	-0.000028
 599	5.9501e+01	8.0860	63.703983	0.000507	5.067466	0.858452	-0.000101
 600	5.9600e+01	8.0656	63.619204	0.000426	4.256671	0.721100	-0.000085
 601	5.9700e+01	8.0462	63.522312	0.000486	4.864767	0.824114	-0.000097
 602	5.9800e+01	8.0262	63.465792	0.000284	2.837781	0.480733	-0.000057
 603	5.9899e+01	8.0067	63.372938	0.000466	4.662068	0.789776	-0.000093
 604	5.9998e+01	7.9867	63.300270	0.000365	3.648575	0.618085	-0.000073
 605	6.0098e+01	7.9676	63.191267	0.000547	5.472863	0.927128	-0.000110
 606	6.0197e+01	7.9471	63.126673	0.000324	3.243178	0.549409	-0.000065
 607	6.0297e+01	7.9267	63.033819	0.000466	4.662068	0.789776	-0.000093
 608	6.0397e+01	7.9075	62.961150	0.000365	3.648575	0.618085	-0.000073
 609	6.0496e+01	7.8877	62.892519	0.000345	3.445877	0.583747	-0.000069
 610	6.0596e+01	7.8667	62.775442	0.000588	5.878260	0.995804	-0.000118
 611	6.0695e+01	7.8471	62.706811	0.000345	3.445877	0.583747	-0.000069
 612	6.0794e+01	7.8277	62.617994	0.000446	4.459370	0.755438	-0.000089
 613	6.0894e+01	7.8078	62.541288	0.000385	3.851274	0.652423	-0.000077
 614	6.0993e+01	7.7882	62.456508	0.000426	4.256671	0.721100	-0.000085
 615	6.1093e+01	7.7673	62.363654	0.000466	4.662068	0.789776	-0.000093
 616	6.1193e+01	7.7474	62.258689	0.000527	5.270164	0.892790	-0.000105
 617	6.1292e+01	7.7283	62.206206	0.000264	2.635082	0.446395	-0.000053
 618	6.1392e+01	7.7087	62.133538	0.000365	3.648575	0.618085	-0.000073
 619	6.1491e+01	7.6876	62.016461	0.000588	5.878260	0.995804	-0.000118
 620	6.1590e+01	7.6685	61.935718	0.000405	4.053972	0.686762	-0.000081
 621	6.1690e+01	7.6485	61.850938	0.000426	4.256671	0.721100	-0.000085
 622	6.1789e+01	7.6296	61.741935	0.000547	5.472863	0.927128	-0.000110
 623	6.1889e+01	7.6081	61.669267	0.000365	3.648575	0.618085	-0.000073
 624	6.1989e+01	7.5875	61.612747	0.000284	2.837781	0.480733	-0.000057
 625	6.2088e+01	7.5684	61.536041	0.000385	3.851274	0.652423	-0.000077
 626	6.2188e+01	7.5474	61.443187	0.000466	4.662068	0.789776	-0.000093
 627	6.2287e+01	7.5288	61.334185	0.000547	5.472863	0.927128	-0.000110
 628	6.2386e+01	7.5091	61.269591	0.000324	3.243178	0.549409	-0.000065
 629	6.2486e+01	7.4896	61.172699	0.000486	4.864767	0.824114	-0.000097
 630	6.2586e+01	7.4687	61.091957	0.000405	4.053972	0.686762	-0.000081
 631	6.2685e+01	7.4488	60.995065	0.000486	4.864767	0.824114	-0.000097
 632	6.2785e+01	7.4291	60.922397	0.000365	3.648575	0.618085	-0.000073
 633	6.2884e+01	7.4097	60.825506	0.000486	4.864767	0.824114	-0.000097
 634	6.2983e+01	7.3895	60.732651	0.000466	4.662068	0.789776	-0.000093
 635	6.3083e+01	7.3699	60.676132	0.000284	2.837781	0.480733	-0.000057
 636	6.3182e+01	7.3502	60.571166	0.000527	5.270164	0.892790	-0.000105
 637	6.3282e+01	7.3291	60.470238	0.000507	5.067466	0.858452	-0.000101
 638	6.3382e+01	7.3096	60.393532	0.000385	3.851274	0.652423	-0.000077
 639	6.3481e+01	7.2897	60.320864	0.000365	3.648575	0.618085	-0.000073
 640	6.3581e+01	7.2701	60.223972	0.000486	4.864767	0.824114	-0.000097
 641	6.3680e+01	7.2510	60.159378	0.000324	3.243178	0.549409	-0.000065
 642	6.3779e+01	7.2292	60.114970	0.000223	2.229685	0.377719	-0.000045
 643	6.3879e+01	7.2093	60.001930	0.000568	5.675561	0.961466	-0.000114
 644	6.3978e+01	7.1893	59.917150	0.000426	4.256671	0.721100	-0.000085
 645	6.4078e+01	7.1704	59.767776	0.000750	7.499849	1.270509	-0.000150
 646	6.4177e+01	7.1493	59.707219	0.000304	3.040479	0.515071	-0.000061
 647	6.4277e+01	7.1301	59.650699	0.000284	2.837781	0.480733	-0.000057
 648	6.4376e+01	7.1104	59.545734	0.000527	5.270164	0.892790	-0.000105
 649	6.4476e+01	7.0910	59.473065	0.000365	3.648575	0.618085	-0.000073
 650	6.4576e+01	7.0704	59.384248	0.000446	4.459370	0.755438	-0.000089
 651	6.4675e+01	7.0513	59.295431	0.000446	4.459370	0.755438	-0.000089
 652	6.4775e+01	7.0300	59.238911	0.000284	2.837781	0.480733	-0.000057
 653	6.4874e+01	7.0113	59.121834	0.000588	5.878260	0.995804	-0.000118
 654	6.4974e+01	6.9900	59.045129	0.000385	3.851274	0.652423	-0.000077
 655	6.5073e+01	6.9706	58.964386	0.000405	4.053972	0.686762	-0.000081
 656	6.5172e+01	6.9498	58.867495	0.000486	4.864767	0.824114	-0.000097
 657	6.5272e+01	6.9308	58.766566	0.000507	5.067466	0.858452	-0.000101
 658	6.5371e+01	6.9109	58.697935	0.000345	3.445877	0.583747	-0.000069
 659	6.5471e+01	6.8913	58.641415	0.000284	2.837781	0.480733	-0.000057
 660	6.5570e+01	6.8722	58.544524	0.000486	4.864767	0.824114	-0.000097
 661	6.5670e+01	6.8511	58.403224	0.000709	7.094452	1.201833	-0.000142
 662	6.5769e+01	6.8317	58.354779	0.000243	2.432383	0.412057	-0.000049
 663	6.5869e+01	6.8119	58.265962	0.000446	4.459370	0.755438	-0.000089
 664	6.5969e+01	6.7913	58.173107	0.000466	4.662068	0.789776	-0.000093
 665	6.6068e+01	6.7721	58.080253	0.000466	4.662068	0.789776	-0.000093
 666	6.6168e+01	6.7514	58.051993	0.000142	1.418890	0.240367	-0.000028
 667	6.6267e+01	6.7321	57.934916	0.000588	5.878260	0.995804	-0.000118
 668	6.6367e+01	6.7123	57.866285	0.000345	3.445877	0.583747	-0.000069
 669	6.6466e+01	6.6914	57.777468	0.000446	4.459370	0.755438	-0.000089
 670	6.6566e+01	6.6724	57.688651	0.000446	4.459370	0.755438	-0.000089
 671	6.6665e+01	6.6518	57.640205	0.000243	2.432383	0.412057	-0.000049
 672	6.6764e+01	6.6329	57.515054	0.000628	6.283657	1.064480	-0.000126
 673	6.6864e+01	6.6119	57.422200	0.000466	4.662068	0.789776	-0.000093
 674	6.6963e+01	6.5926	57.349532	0.000365	3.648575	0.618085	-0.000073
 675	6.7063e+01	6.5731	57.256678	0.000466	4.662068	0.789776	-0.000093
 676	6.7162e+01	6.5527	57.139601	0.000588	5.878260	0.995804	-0.000118
 677	6.7262e+01	6.5328	57.070969	0.000345	3.445877	0.583747	-0.000069
 678	6.7362e+01	6.5134	56.966004	0.000527	5.270164	0.892790	-0.000105
 679	6.7461e+01	6.4922	56.865075	0.000507	5.067466	0.858452	-0.000101
 680	6.7561e+01	6.4736	56.824704	0.000203	2.026986	0.343381	-0.000041
 681	6.7660e+01	6.4524	56.711664	0.000568	5.675561	0.961466	-0.000114
 682	6.7760e+01	6.4330	56.630922	0.000405	4.053972	0.686762	-0.000081
 683	6.7859e+01	6.4121	56.509807	0.000608	6.080959	1.030142	-0.000122
 684	6.7959e+01	6.3931	56.465399	0.000223	2.229685	0.377719	-0.000045
 685	6.8058e+01	6.3726	56.392731	0.000365	3.648575	0.618085	-0.000073
 686	6.8157e+01	6.3530	56.263542	0.000649	6.486356	1.098818	-0.000130
 687	6.8257e+01	6.3332	56.154540	0.000547	5.472863	0.927128	-0.000110
 688	6.8356e+01	6.3129	56.114168	0.000203	2.026986	0.343381	-0.000041
 689	6.8456e+01	6.2943	56.005166	0.000547	5.472863	0.927128	-0.000110
 690	6.8555e+01	6.2749	55.916349	0.000446	4.459370	0.755438	-0.000089
 691	6.8655e+01	6.2542	55.835606	0.000405	4.053972	0.686762	-0.000081
 692	6.8754e+01	6.2347	55.758900	0.000385	3.851274	0.652423	-0.000077
 693	6.8854e+01	6.2148	55.621638	0.000689	6.891753	1.167495	-0.000138
 694	6.8954e+01	6.1957	55.536858	0.000426	4.256671	0.721100	-0.000085
 695	6.9053e+01	6.1742	55.468226	0.000345	3.445877	0.583747	-0.000069
 696	6.9153e+01	6.1549	55.379409	0.000446	4.459370	0.755438	-0.000089
 697	6.9252e+01	6.1347	55.258295	0.000608	6.080959	1.030142	-0.000122
 698	6.9352e+01	6.1141	55.189664	0.000345	3.445877	0.583747	-0.000069
 699	6.9451e+01	6.0950	55.108921	0.000405	4.053972	0.686762	-0.000081
 700	6.9550e+01	6.0743	55.003956	0.000527	5.270164	0.892790	-0.000105
 701	6.9650e+01	6.0551	54.911102	0.000466	4.662068	0.789776	-0.000093
 702	6.9749e+01	6.0336	54.850545	0.000304	3.040479	0.515071	-0.000061
 703	6.9849e+01	6.0152	54.721356	0.000649	6.486356	1.098818	-0.000130
 704	6.9948e+01	5.9954	54.640614	0.000405	4.053972	0.686762	-0.000081
 705	7.0048e+01	5.9750	54.596205	0.000223	2.229685	0.377719	-0.000045
 706	7.0147e+01	5.9544	54.511425	0.000426	4.256671	0.721100	-0.000085
 707	7.0247e+01	5.9356	54.390311	0.000608	6.080959	1.030142	-0.000122
 708	7.0347e+01	5.9151	54.281309	0.000547	5.472863	0.927128	-0.000110
 709	7.0446e+01	5.8959	54.176343	0.000527	5.270164	0.892790	-0.000105
 710	7.0546e+01	5.8752	54.087526	0.000446	4.459370	0.755438	-0.000089
 711	7.0645e+01	5.8566	54.031006	0.000284	2.837781	0.480733	-0.000057
 712	7.0745e+01	5.8364	53.934115	0.000486	4.864767	0.824114	-0.000097
 713	7.0844e+01	5.8155	53.837224	0.000486	4.864767	0.824114	-0.000097
 714	7.0944e+01	5.7959	53.748407	0.000446	4.459370	0.755438	-0.000089
 715	7.1043e+01	5.7765	53.623255	0.000628	6.283657	1.064480	-0.000126
 716	7.1142e+01	5.7548	53.550587	0.000365	3.648575	0.618085	-0.000073
 717	7.1242e+01	5.7374	53.494067	0.000284	2.837781	0.480733	-0.000057
 718	7.1341e+01	5.7172	53.389102	0.000527	5.270164	0.892790	-0.000105
 719	7.1441e+01	5.6969	53.255876	0.000669	6.689055	1.133157	-0.000134
 720	7.1540e+01	5.6762	53.150911	0.000527	5.270164	0.892790	-0.000105
 721	7.1640e+01	5.6566	53.074205	0.000385	3.851274	0.652423	-0.000077
 722	7.1740e+01	5.6365	52.965202	0.000547	5.472863	0.927128	-0.000110
 723	7.1839e+01	5.6165	52.880422	0.000426	4.256671	0.721100	-0.000085
 724	7.1939e+01	5.5968	52.827940	0.000264	2.635082	0.446395	-0.000053
 725	7.2038e+01	5.5770	52.690677	0.000689	6.891753	1.167495	-0.000138
 726	7.2138e+01	5.5572	52.585712	0.000527	5.270164	0.892790	-0.000105
 727	7.2237e+01	5.5371	52.509006	0.000385	3.851274	0.652423	-0.000077
 728	7.2337e+01	5.5172	52.408078	0.000507	5.067466	0.858452	-0.000101
 729	7.2436e+01	5.4967	52.295038	0.000568	5.675561	0.961466	-0.000114
 730	7.2535e+01	5.4772	52.214295	0.000405	4.053972	0.686762	-0.000081
 731	7.2635e+01	5.4571	52.093181	0.000608	6.080959	1.030142	-0.000122
 732	7.2734e+01	5.4378	52.040698	0.000264	2.635082	0.446395	-0.000053
 733	7.2834e+01	5.4168	51.919584	0.000608	6.080959	1.030142	-0.000122
 734	7.2933e+01	5.3973	51.818656	0.000507	5.067466	0.858452	-0.000101
 735	7.3033e+01	5.3775	51.697542	0.000608	6.080959	1.030142	-0.000122
 736	7.3132e+01	5.3576	51.600650	0.000486	4.864767	0.824114	-0.000097
 737	7.3232e+01	5.3385	51.523945	0.000385	3.851274	0.652423	-0.000077
 738	7.3332e+01	5.3175	51.414942	0.000547	5.472863	0.927128	-0.000110
 739	7.3431e+01	5.2979	51.338237	0.000385	3.851274	0.652423	-0.000077
 740	7.3531e+01	5.2769	51.209048	0.000649	6.486356	1.098818	-0.000130
 741	7.3630e+01	5.2589	51.108120	0.000507	5.067466	0.858452	-0.000101
 742	7.3730e+01	5.2381	51.035451	0.000365	3.648575	0.618085	-0.000073
 743	7.3829e+01	5.2179	50.930486	0.000527	5.270164	0.892790	-0.000105
 744	7.3928e+01	5.1983	50.813409	0.000588	5.878260	0.995804	-0.000118
 745	7.4028e+01	5.1787	50.700369	0.000568	5.675561	0.961466	-0.000114
 746	7.4127e+01	5.1577	50.587329	0.000568	5.675561	0.961466	-0.000114
 747	7.4227e+01	5.1392	50.514661	0.000365	3.648575	0.618085	-0.000073
 748	7.4326e+01	5.1187	50.389510	0.000628	6.283657	1.064480	-0.000126
 749	7.4426e+01	5.0991	50.296656	0.000466	4.662068	0.789776	-0.000093
 750	7.4525e+01	5.0785	50.215913	0.000405	4.053972	0.686762	-0.000081
 751	7.4625e+01	5.0585	50.078650	0.000689	6.891753	1.167495	-0.000138
 752	7.4725e+01	5.0399	49.981759	0.000486	4.864767	0.824114	-0.000097
 753	7.4824e+01	5.0204	49.905053	0.000385	3.851274	0.652423	-0.000077
 754	7.4924e+01	4.9998	49.812199	0.000466	4.662068	0.789776	-0.000093
 755	7.5023e+01	4.9789	49.670900	0.000709	7.094452	1.201833	-0.000142
 756	7.5123e+01	4.9599	49.569971	0.000507	5.067466	0.858452	-0.000101
 757	7.5222e+01	4.9398	49.485191	0.000426	4.256671	0.721100	-0.000085
 758	7.5322e+01	4.9198	49.392337	0.000466	4.662068	0.789776	-0.000093
 759	7.5421e+01	4.8998	49.287372	0.000527	5.270164	0.892790	-0.000105
 760	7.5520e+01	4.8797	49.178369	0.000547	5.472863	0.927128	-0.000110
 761	7.5620e+01	4.8607	49.053218	0.000628	6.283657	1.064480	-0.000126
 762	7.5719e+01	4.8400	48.976512	0.000385	3.851274	0.652423	-0.000077
 763	7.5819e+01	4.8206	48.835212	0.000709	7.094452	1.201833	-0.000142
 764	7.5918e+01	4.8008	48.766581	0.000345	3.445877	0.583747	-0.000069
 765	7.6018e+01	4.7809	48.657578	0.000547	5.472863	0.927128	-0.000110
 766	7.6118e+01	4.7602	48.564724	0.000466	4.662068	0.789776	-0.000093
 767	7.6217e+01	4.7402	48.463796	0.000507	5.067466	0.858452	-0.000101
 768	7.6317e+01	4.7198	48.366905	0.000486	4.864767	0.824114	-0.000097
 769	7.6416e+01	4.7014	48.274051	0.000466	4.662068	0.789776	-0.000093
 770	7.6516e+01	4.6804	48.173122	0.000507	5.067466	0.858452	-0.000101
 771	7.6615e+01	4.6606	48.023748	0.000750	7.499849	1.270509	-0.000150
 772	7.6715e+01	4.6409	47.979340	0.000223	2.229685	0.377719	-0.000045
 773	7.6814e+01	4.6214	47.870337	0.000547	5.472863	0.927128	-0.000110
 774	7.6913e+01	4.6018	47.725000	0.000730	7.297150	1.236171	-0.000146
 775	7.7013e+01	4.5809	47.607923	0.000588	5.878260	0.995804	-0.000118
 776	7.7112e+01	4.5605	47.535255	0.000365	3.648575	0.618085	-0.000073
 777	7.7212e+01	4.5423	47.426252	0.000547	5.472863	0.927128	-0.000110
 778	7.7311e+01	4.5210	47.293027	0.000669	6.689055	1.133157	-0.000134
 779	7.7411e+01	4.5010	47.232470	0.000304	3.040479	0.515071	-0.000061
 780	7.7510e+01	4.4808	47.127504	0.000527	5.270164	0.892790	-0.000105
 781	7.7610e+01	4.4619	47.010427	0.000588	5.878260	0.995804	-0.000118
 782	7.7710e+01	4.4421	46.905462	0.000527	5.270164	0.892790	-0.000105
 783	7.7809e+01	4.4215	46.800496	0.000527	5.270164	0.892790	-0.000105
 784	7.7909e+01	4.4014	46.711679	0.000446	4.459370	0.755438	-0.000089
 785	7.8008e+01	4.3829	46.598639	0.000568	5.675561	0.961466	-0.000114
 786	7.8108e+01	4.3624	46.469451	0.000649	6.486356	1.098818	-0.000130
 787	7.8207e+01	4.3426	46.352374	0.000588	5.878260	0.995804	-0.000118
 788	7.8306e+01	4.3213	46.259520	0.000466	4.662068	0.789776	-0.000093
 789	7.8406e+01	4.3024	46.186851	0.000365	3.648575	0.618085	-0.000073
 790	7.8505e+01	4.2826	46.081886	0.000527	5.270164	0.892790	-0.000105
 791	7.8605e+01	4.2632	45.960772	0.000608	6.080959	1.030142	-0.000122
 792	7.8704e+01	4.2422	45.871955	0.000446	4.459370	0.755438	-0.000089
 793	7.8804e+01	4.2223	45.714507	0.000791	7.905246	1.339185	-0.000158
 794	7.8903e+01	4.2023	45.662024	0.000264	2.635082	0.446395	-0.000053
 795	7.9003e+01	4.1825	45.504575	0.000791	7.905246	1.339185	-0.000158
 796	7.9103e+01	4.1630	45.383461	0.000608	6.080959	1.030142	-0.000122
 797	7.9202e+01	4.1430	45.298682	0.000426	4.256671	0.721100	-0.000085
 798	7.9302e+01	4.1227	45.185642	0.000568	5.675561	0.961466	-0.000114
 799	7.9401e+01	4.1029	45.092788	0.000466	4.662068	0.789776	-0.000093
 800	7.9501e+01	4.0826	44.971674	0.000608	6.080959	1.030142	-0.000122
 801	7.9600e+01	4.0630	44.878819	0.000466	4.662068	0.789776	-0.000093
 802	7.9700e+01	4.0430	44.777891	0.000507	5.067466	0.858452	-0.000101
 803	7.9799e+01	4.0229	44.676963	0.000507	5.067466	0.858452	-0.000101
 804	7.9898e+01	4.0038	44.563923	0.000568	5.675561	0.961466	-0.000114
 805	7.9998e+01	3.9825	44.499329	0.000324	3.243178	0.549409	-0.000065
 806	8.0097e+01	3.9639	44.382252	0.000588	5.878260	0.995804	-0.000118
 807	8.0197e+01	3.9433	44.277286	0.000527	5.270164	0.892790	-0.000105
 808	8.0296e+01	3.9236	44.140024	0.000689	6.891753	1.167495	-0.000138
 809	8.0396e+01	3.9048	44.055244	0.000426	4.256671	0.721100	-0.000085
 810	8.0496e+01	3.8833	43.942204	0.000568	5.675561	0.961466	-0.000114
 811	8.0595e+01	3.8634	43.845313	0.000486	4.864767	0.824114	-0.000097
 812	8.0695e+01	3.8437	43.744384	0.000507	5.067466	0.858452	-0.000101
 813	8.0794e+01	3.8235	43.599047	0.000730	7.297150	1.236171	-0.000146
 814	8.0894e+01	3.8036	43.498119	0.000507	5.067466	0.858452	-0.000101
 815	8.0993e+01	3.7844	43.372968	0.000628	6.283657	1.064480	-0.000126
 816	8.1093e+01	3.7644	43.263965	0.000547	5.472863	0.927128	-0.000110
 817	8.1192e+01	3.7450	43.146888	0.000588	5.878260	0.995804	-0.000118
 818	8.1291e+01	3.7244	43.098443	0.000243	2.432383	0.412057	-0.000049
 819	8.1391e+01	3.7041	42.961180	0.000689	6.891753	1.167495	-0.000138
 820	8.1490e+01	3.6851	42.864289	0.000486	4.864767	0.824114	-0.000097
 821	8.1590e+01	3.6656	42.767397	0.000486	4.864767	0.824114	-0.000097
 822	8.1689e+01	3.6443	42.658395	0.000547	5.472863	0.927128	-0.000110
 823	8.1789e+01	3.6245	42.561504	0.000486	4.864767	0.824114	-0.000097
 824	8.1888e+01	3.6049	42.456538	0.000527	5.270164	0.892790	-0.000105
 825	8.1988e+01	3.5842	42.303127	0.000770	7.702548	1.304847	-0.000154
 826	8.2088e+01	3.5645	42.222384	0.000405	4.053972	0.686762	-0.000081
 827	8.2187e+01	3.5456	42.129530	0.000466	4.662068	0.789776	-0.000093
 828	8.2287e+01	3.5265	42.016490	0.000568	5.675561	0.961466	-0.000114
 829	8.2386e+01	3.5061	41.907488	0.000547	5.472863	0.927128	-0.000110
 830	8.2486e+01	3.4853	41.798485	0.000547	5.472863	0.927128	-0.000110
 831	8.2585e+01	3.4658	41.673334	0.000628	6.283657	1.064480	-0.000126
 832	8.2684e+01	3.4459	41.596628	0.000385	3.851274	0.652423	-0.000077
 833	8.2784e+01	3.4262	41.483588	0.000568	5.675561	0.961466	-0.000114
 834	8.2883e+01	3.4057	41.374586	0.000547	5.472863	0.927128	-0.000110
 835	8.2983e+01	3.3865	41.249434	0.000628	6.283657	1.064480	-0.000126
 836	8.3082e+01	3.3658	41.152543	0.000486	4.864767	0.824114	-0.000097
 837	8.3182e+01	3.3470	41.039503	0.000568	5.675561	0.961466	-0.000114
 838	8.3281e+01	3.3257	40.974909	0.000324	3.243178	0.549409	-0.000065
 839	8.3381e+01	3.3064	40.829572	0.000730	7.297150	1.236171	-0.000146
 840	8.3481e+01	3.2863	40.748830	0.000405	4.053972	0.686762	-0.000081
 841	8.3580e+01	3.2671	40.623678	0.000628	6.283657	1.064480	-0.000126
 842	8.3680e+01	3.2459	40.486416	0.000689	6.891753	1.167495	-0.000138
 843	8.3779e+01	3.2265	40.381450	0.000527	5.270164	0.892790	-0.000105
 844	8.3879e+01	3.2063	40.276485	0.000527	5.270164	0.892790	-0.000105
 845	8.3978e+01	3.1869	40.183631	0.000466	4.662068	0.789776	-0.000093
 846	8.4078e+01	3.1660	40.078665	0.000527	5.270164	0.892790	-0.000105
 847	8.4177e+01	3.1468	39.969662	0.000547	5.472863	0.927128	-0.000110
 848	8.4276e+01	3.1273	39.824325	0.000730	7.297150	1.236171	-0.000146
 849	8.4376e+01	3.1075	39.711286	0.000568	5.675561	0.961466	-0.000114
 850	8.4475e+01	3.0865	39.630543	0.000405	4.053972	0.686762	-0.000081
 851	8.4575e+01	3.0667	39.485206	0.000730	7.297150	1.236171	-0.000146
 852	8.4674e+01	3.0468	39.388315	0.000486	4.864767	0.824114	-0.000097
 853	8.4774e+01	3.0271	39.283349	0.000527	5.270164	0.892790	-0.000105
 854	8.4874e+01	3.0080	39.150124	0.000669	6.689055	1.133157	-0.000134
 855	8.4973e+01	2.9871	39.065344	0.000426	4.256671	0.721100	-0.000085
 856	8.5073e+01	2.9682	38.932118	0.000669	6.689055	1.133157	-0.000134
 857	8.5172e+01	2.9475	38.835227	0.000486	4.864767	0.824114	-0.000097
 858	8.5272e+01	2.9270	38.706039	0.000649	6.486356	1.098818	-0.000130
 859	8.5371e+01	2.9078	38.588962	0.000588	5.878260	0.995804	-0.000118
 860	8.5471e+01	2.8873	38.496108	0.000466	4.662068	0.789776	-0.000093
 861	8.5570e+01	2.8671	38.391142	0.000527	5.270164	0.892790	-0.000105
 862	8.5669e+01	2.8475	38.257917	0.000669	6.689055	1.133157	-0.000134
 863	8.5769e+01	2.8275	38.152951	0.000527	5.270164	0.892790	-0.000105
 864	8.5868e+01	2.8090	38.035874	0.000588	5.878260	0.995804	-0.000118
 865	8.5968e+01	2.7877	37.926872	0.000547	5.472863	0.927128	-0.000110
 866	8.6067e+01	2.7682	37.825943	0.000507	5.067466	0.858452	-0.000101
 867	8.6167e+01	2.7480	37.741163	0.000426	4.256671	0.721100	-0.000085
 868	8.6266e+01	2.7290	37.624087	0.000588	5.878260	0.995804	-0.000118
 869	8.6366e+01	2.7076	37.466638	0.000791	7.905246	1.339185	-0.000158
 870	8.6466e+01	2.6873	37.369747	0.000486	4.864767	0.824114	-0.000097
 871	8.6565e+01	2.6688	37.244596	0.000628	6.283657	1.064480	-0.000126
 872	8.6665e+01	2.6490	37.159816	0.000426	4.256671	0.721100	-0.000085
 873	8.6764e+01	2.6291	36.998330	0.000811	8.107945	1.373523	-0.000162
 874	8.6864e+01	2.6083	36.881254	0.000588	5.878260	0.995804	-0.000118
 875	8.6963e+01	2.5889	36.808585	0.000365	3.648575	0.618085	-0.000073
 876	8.7063e+01	2.5688	36.671322	0.000689	6.891753	1.167495	-0.000138
 877	8.7162e+01	2.5491	36.570394	0.000507	5.067466	0.858452	-0.000101
 878	8.7261e+01	2.5294	36.433131	0.000689	6.891753	1.167495	-0.000138
 879	8.7361e+01	2.5089	36.344314	0.000446	4.459370	0.755438	-0.000089
 880	8.7460e+01	2.4890	36.267609	0.000385	3.851274	0.652423	-0.000077
 881	8.7560e+01	2.4704	36.077864	0.000953	9.526835	1.613890	-0.000191
 882	8.7659e+01	2.4498	36.005195	0.000365	3.648575	0.618085	-0.000073
 883	8.7759e+01	2.4305	35.884081	0.000608	6.080959	1.030142	-0.000122
 884	8.7859e+01	2.4097	35.738744	0.000730	7.297150	1.236171	-0.000146
 885	8.7958e+01	2.3898	35.637816	0.000507	5.067466	0.858452	-0.000101
 886	8.8058e+01	2.3705	35.548999	0.000446	4.459370	0.755438	-0.000089
 887	8.8157e+01	2.3500	35.439996	0.000547	5.472863	0.927128	-0.000110
 888	8.8257e+01	2.3302	35.282548	0.000791	7.905246	1.339185	-0.000158
 889	8.8356e+01	2.3103	35.181619	0.000507	5.067466	0.858452	-0.000101
 890	8.8456e+01	2.2905	35.024171	0.000791	7.905246	1.339185	-0.000158
 891	8.8555e+01	2.2697	34.911131	0.000568	5.675561	0.961466	-0.000114
 892	8.8654e+01	2.2507	34.810203	0.000507	5.067466	0.858452	-0.000101
 893	8.8754e+01	2.2292	34.705237	0.000527	5.270164	0.892790	-0.000105
 894	8.8853e+01	2.2100	34.547789	0.000791	7.905246	1.339185	-0.000158
 895	8.8953e+01	2.1906	34.454935	0.000466	4.662068	0.789776	-0.000093
 896	8.9052e+01	2.1705	34.341895	0.000568	5.675561	0.961466	-0.000114
 897	8.9152e+01	2.1512	34.196558	0.000730	7.297150	1.236171	-0.000146
 898	8.9251e+01	2.1307	34.083518	0.000568	5.675561	0.961466	-0.000114
 899	8.9351e+01	2.1108	34.006813	0.000385	3.851274	0.652423	-0.000077
 900	8.9451e+01	2.0907	33.821105	0.000932	9.324137	1.579552	-0.000187
 901	8.9550e+01	2.0715	33.732288	0.000446	4.459370	0.755438	-0.000089
 902	8.9650e+01	2.0512	33.623285	0.000547	5.472863	0.927128	-0.000110
 903	8.9749e+01	2.0306	33.441614	0.000912	9.121438	1.545213	-0.000183
 904	8.9849e+01	2.0113	33.389131	0.000264	2.635082	0.446395	-0.000053
 905	8.9948e+01	1.9918	33.247831	0.000709	7.094452	1.201833	-0.000142
 906	9.0047e+01	1.9713	33.114606	0.000669	6.689055	1.133157	-0.000134
 907	9.0147e+01	1.9519	33.021752	0.000466	4.662068	0.789776	-0.000093
 908	9.0246e+01	1.9312	32.836044	0.000932	9.324137	1.579552	-0.000187
 909	9.0346e+01	1.9112	32.755301	0.000405	4.053972	0.686762	-0.000081
 910	9.0445e+01	1.8912	32.618038	0.000689	6.891753	1.167495	-0.000138
 911	9.0545e+01	1.8721	32.513073	0.000527	5.270164	0.892790	-0.000105
 912	9.0644e+01	1.8510	32.395996	0.000588	5.878260	0.995804	-0.000118
 913	9.0744e+01	1.8325	32.246622	0.000750	7.499849	1.270509	-0.000150
 914	9.0844e+01	1.8114	32.157805	0.000446	4.459370	0.755438	-0.000089
 915	9.0943e+01	1.7924	32.036691	0.000608	6.080959	1.030142	-0.000122
 916	9.1043e+01	1.7723	31.879242	0.000791	7.905246	1.339185	-0.000158
 917	9.1142e+01	1.7525	31.774277	0.000527	5.270164	0.892790	-0.000105
 918	9.1242e+01	1.7316	31.653163	0.000608	6.080959	1.030142	-0.000122
 919	9.1341e+01	1.7116	31.499752	0.000770	7.702548	1.304847	-0.000154
 920	9.1441e+01	1.6925	31.378638	0.000608	6.080959	1.030142	-0.000122
 921	9.1540e+01	1.6734	31.253486	0.000628	6.283657	1.064480	-0.000126
 922	9.1639e+01	1.6519	31.132372	0.000608	6.080959	1.030142	-0.000122
 923	9.1739e+01	1.6324	31.011258	0.000608	6.080959	1.030142	-0.000122
 924	9.1838e+01	1.6123	30.914367	0.000486	4.864767	0.824114	-0.000097
 925	9.1938e+01	1.5924	30.696362	0.001095	10.945726	1.854256	-0.000219
 926	9.2037e+01	1.5736	30.583322	0.000568	5.675561	0.961466	-0.000114
 927	9.2137e+01	1.5525	30.498542	0.000426	4.256671	0.721100	-0.000085
 928	9.2237e+01	1.5336	30.385502	0.000568	5.675561	0.961466	-0.000114
 929	9.2336e+01	1.5137	30.276499	0.000547	5.472863	0.927128	-0.000110
 930	9.2436e+01	1.4931	30.094828	0.000912	9.121438	1.545213	-0.000183
 931	9.2535e+01	1.4721	30.022160	0.000365	3.648575	0.618085	-0.000073
 932	9.2635e+01	1.4534	29.892972	0.000649	6.486356	1.098818	-0.000130
 933	9.2734e+01	1.4336	29.743598	0.000750	7.499849	1.270509	-0.000150
 934	9.2834e+01	1.4136	29.638632	0.000527	5.270164	0.892790	-0.000105
 935	9.2933e+01	1.3934	29.509444	0.000649	6.486356	1.098818	-0.000130
 936	9.3032e+01	1.3721	29.339884	0.000851	8.513342	1.442199	-0.000170
 937	9.3132e+01	1.3538	29.259141	0.000405	4.053972	0.686762	-0.000081
 938	9.3231e+01	1.3337	29.113804	0.000730	7.297150	1.236171	-0.000146
 939	9.3331e+01	1.3126	29.004802	0.000547	5.472863	0.927128	-0.000110
 940	9.3430e+01	1.2939	28.867539	0.000689	6.891753	1.167495	-0.000138
 941	9.3530e+01	1.2737	28.734314	0.000669	6.689055	1.133157	-0.000134
 942	9.3629e+01	1.2540	28.653571	0.000405	4.053972	0.686762	-0.000081
 943	9.3729e+01	1.2345	28.524383	0.000649	6.486356	1.098818	-0.000130
 944	9.3829e+01	1.2149	28.379046	0.000730	7.297150	1.236171	-0.000146
 945	9.3928e+01	1.1951	28.274080	0.000527	5.270164	0.892790	-0.000105
 946	9.4028e+01	1.1747	28.112595	0.000811	8.107945	1.373523	-0.000162
 947	9.4127e+01	1.1552	28.015703	0.000486	4.864767	0.824114	-0.000097
 948	9.4227e+01	1.1346	27.894589	0.000608	6.080959	1.030142	-0.000122
 949	9.4326e+01	1.1148	27.777512	0.000588	5.878260	0.995804	-0.000118
 950	9.4425e+01	1.0954	27.611990	0.000831	8.310644	1.407861	-0.000166
 951	9.4525e+01	1.0748	27.498950	0.000568	5.675561	0.961466	-0.000114
 952	9.4624e+01	1.0563	27.365725	0.000669	6.689055	1.133157	-0.000134
 953	9.4724e+01	1.0352	27.232499	0.000669	6.689055	1.133157	-0.000134
 954	9.4823e+01	1.0152	27.111385	0.000608	6.080959	1.030142	-0.000122
 955	9.4923e+01	0.9954	27.006420	0.000527	5.270164	0.892790	-0.000105
 956	9.5022e+01	0.9759	26.848971	0.000791	7.905246	1.339185	-0.000158
 957	9.5122e+01	0.9564	26.731894	0.000588	5.878260	0.995804	-0.000118
 958	9.5222e+01	0.9351	26.570409	0.000811	8.107945	1.373523	-0.000162
 959	9.5321e+01	0.9158	26.485629	0.000426	4.256671	0.721100	-0.000085
 960	9.5421e+01	0.8953	26.328181	0.000791	7.905246	1.339185	-0.000158
 961	9.5520e+01	0.8769	26.194955	0.000669	6.689055	1.133157	-0.000134
 962	9.5620e+01	0.8561	26.073841	0.000608	6.080959	1.030142	-0.000122
 963	9.5719e+01	0.8366	25.956764	0.000588	5.878260	0.995804	-0.000118
 964	9.5819e+01	0.8159	25.831613	0.000628	6.283657	1.064480	-0.000126
 965	9.5918e+01	0.7961	25.702425	0.000649	6.486356	1.098818	-0.000130
 966	9.6017e+01	0.7774	25.581311	0.000608	6.080959	1.030142	-0.000122
 967	9.6117e+01	0.7555	25.427899	0.000770	7.702548	1.304847	-0.000154
 968	9.6216e+01	0.7371	25.314860	0.000568	5.675561	0.961466	-0.000114
 969	9.6316e+01	0.7160	25.177597	0.000689	6.891753	1.167495	-0.000138
 970	9.6415e+01	0.6961	25.076669	0.000507	5.067466	0.858452	-0.000101
 971	9.6515e+01	0.6774	24.935369	0.000709	7.094452	1.201833	-0.000142
 972	9.6615e+01	0.6566	24.781958	0.000770	7.702548	1.304847	-0.000154
 973	9.6714e+01	0.6363	24.681029	0.000507	5.067466	0.858452	-0.000101
 974	9.6814e+01	0.6165	24.567990	0.000568	5.675561	0.961466	-0.000114
 975	9.6913e+01	0.5969	24.398430	0.000851	8.513342	1.442199	-0.000170
 976	9.7013e+01	0.5767	24.269241	0.000649	6.486356	1.098818	-0.000130
 977	9.7112e+01	0.5576	24.140053	0.000649	6.486356	1.098818	-0.000130
 978	9.7212e+01	0.5371	24.051236	0.000446	4.459370	0.755438	-0.000089
 979	9.7311e+01	0.5166	23.905899	0.000730	7.297150	1.236171	-0.000146
 980	9.7410e+01	0.4969	23.768637	0.000689	6.891753	1.167495	-0.000138
 981	9.7510e+01	0.4772	23.667708	0.000507	5.067466	0.858452	-0.000101
 982	9.7609e+01	0.4575	23.510260	0.000791	7.905246	1.339185	-0.000158
 983	9.7709e+01	0.4382	23.393183	0.000588	5.878260	0.995804	-0.000118
 984	9.7808e+01	0.4176	23.276106	0.000588	5.878260	0.995804	-0.000118
 985	9.7908e+01	0.3986	23.134806	0.000709	7.094452	1.201833	-0.000142
 986	9.8007e+01	0.3776	22.985432	0.000750	7.499849	1.270509	-0.000150
 987	9.8107e+01	0.3579	22.852207	0.000669	6.689055	1.133157	-0.000134
 988	9.8207e+01	0.3385	22.755316	0.000486	4.864767	0.824114	-0.000097
 989	9.8306e+01	0.3184	22.609979	0.000730	7.297150	1.236171	-0.000146
 990	9.8406e+01	0.2982	22.496939	0.000568	5.675561	0.961466	-0.000114
 991	9.8505e+01	0.2779	22.351602	0.000730	7.297150	1.236171	-0.000146
 992	9.8605e+01	0.2581	22.242599	0.000547	5.472863	0.927128	-0.000110
 993	9.8704e+01	0.2393	22.141671	0.000507	5.067466	0.858452	-0.000101
 994	9.8803e+01	0.2185	21.992297	0.000750	7.499849	1.270509	-0.000150
 995	9.8903e+01	0.1984	21.855034	0.000689	6.891753	1.167495	-0.000138
 996	9.9002e+01	0.1786	21.709697	0.000730	7.297150	1.236171	-0.000146
 997	9.9102e+01	0.1585	21.649140	0.000304	3.040479	0.515071	-0.000061
 998	9.9201e+01	0.1392	21.463432	0.000932	9.324137	1.579552	-0.000187
 999	9.9301e+01	0.1197	21.350392	0.000568	5.675561	0.961466	-0.000114
1000	9.9400e+01	0.0990	21.229278	0.000608	6.080959	1.030142	-0.000122
1001	9.9500e+01	0.0786	21.120276	0.000547	5.472863	0.927128	-0.000110
1002	9.9600e+01	0.0588	20.970902	0.000750	7.499849	1.270509	-0.000150
1003	9.9699e+01	0.0388	20.829602	0.000709	7.094452	1.201833	-0.000142
1004	9.9799e+01	0.0194	20.760971	0.000345	3.445877	0.583747	-0.000069
1005	9.9898e+01	-0.0010	20.631782	0.000649	6.486356	1.098818	-0.000130
1006	9.9998e+01	-0.0190	20.486445	0.000730	7.297150	1.236171	-0.000146
1007	1.0010e+02	-0.0391	20.361294	0.000628	6.283657	1.064480	-0.000126
1008	1.0020e+02	-0.0585	20.224031	0.000689	6.891753	1.167495	-0.000138
1009	1.0030e+02	-0.0787	20.066583	0.000791	7.905246	1.339185	-0.000158
1010	1.0040e+02	-0.0988	19.949506	0.000588	5.878260	0.995804	-0.000118
1011	1.0050e+02	-0.1189	19.840504	0.000547	5.472863	0.927128	-0.000110
1012	1.0059e+02	-0.1389	19.703241	0.000689	6.891753	1.167495	-0.000138
1013	1.0069e+02	-0.1583	19.586164	0.000588	5.878260	0.995804	-0.000118
1014	1.0079e+02	-0.1789	19.424679	0.000811	8.107945	1.373523	-0.000162
1015	1.0089e+02	-0.1987	19.323750	0.000507	5.067466	0.858452	-0.000101
1016	1.0099e+02	-0.2176	19.158228	0.000831	8.310644	1.407861	-0.000166
1017	1.0109e+02	-0.2380	19.061336	0.000486	4.864767	0.824114	-0.000097
1018	1.0119e+02	-0.2573	18.903888	0.000791	7.905246	1.339185	-0.000158
1019	1.0129e+02	-0.2776	18.794885	0.000547	5.472863	0.927128	-0.000110
1020	1.0139e+02	-0.2975	18.669734	0.000628	6.283657	1.064480	-0.000126
1021	1.0149e+02	-0.3181	18.504212	0.000831	8.310644	1.407861	-0.000166
1022	1.0159e+02	-0.3389	18.362912	0.000709	7.094452	1.201833	-0.000142
1023	1.0169e+02	-0.3574	18.249872	0.000568	5.675561	0.961466	-0.000114
1024	1.0179e+02	-0.3782	18.116647	0.000669	6.689055	1.133157	-0.000134
1025	1.0189e+02	-0.3976	17.971310	0.000730	7.297150	1.236171	-0.000146
1026	1.0199e+02	-0.4168	17.866344	0.000527	5.270164	0.892790	-0.000105
1027	1.0209e+02	-0.4375	17.777527	0.000446	4.459370	0.755438	-0.000089
1028	1.0219e+02	-0.4581	17.624116	0.000770	7.702548	1.304847	-0.000154
1029	1.0229e+02	-0.4771	17.458593	0.000831	8.310644	1.407861	-0.000166
1030	1.0239e+02	-0.4961	17.341517	0.000588	5.878260	0.995804	-0.000118
1031	1.0248e+02	-0.5174	17.188105	0.000770	7.702548	1.304847	-0.000154
1032	1.0258e+02	-0.5381	17.058917	0.000649	6.486356	1.098818	-0.000130
1033	1.0268e+02	-0.5561	16.974137	0.000426	4.256671	0.721100	-0.000085
1034	1.0278e+02	-0.5775	16.792466	0.000912	9.121438	1.545213	-0.000183
1035	1.0288e+02	-0.5961	16.703649	0.000446	4.459370	0.755438	-0.000089
1036	1.0298e+02	-0.6169	16.574461	0.000649	6.486356	1.098818	-0.000130
1037	1.0308e+02	-0.6366	16.449310	0.000628	6.283657	1.064480	-0.000126
1038	1.0318e+02	-0.6564	16.291861	0.000791	7.905246	1.339185	-0.000158
1039	1.0328e+02	-0.6776	16.194970	0.000486	4.864767	0.824114	-0.000097
1040	1.0338e+02	-0.6966	16.045596	0.000750	7.499849	1.270509	-0.000150
1041	1.0348e+02	-0.7159	15.900259	0.000730	7.297150	1.236171	-0.000146
1042	1.0358e+02	-0.7369	15.750885	0.000750	7.499849	1.270509	-0.000150
1043	1.0368e+02	-0.7568	15.605548	0.000730	7.297150	1.236171	-0.000146
1044	1.0378e+02	-0.7758	15.484434	0.000608	6.080959	1.030142	-0.000122
1045	1.0388e+02	-0.7969	15.395617	0.000446	4.459370	0.755438	-0.000089
1046	1.0398e+02	-0.8163	15.266429	0.000649	6.486356	1.098818	-0.000130
1047	1.0408e+02	-0.8357	15.068609	0.000993	9.932233	1.682566	-0.000199
1048	1.0418e+02	-0.8558	14.963644	0.000527	5.270164	0.892790	-0.000105
1049	1.0428e+02	-0.8767	14.862715	0.000507	5.067466	0.858452	-0.000101
1050	1.0438e+02	-0.8951	14.689118	0.000872	8.716041	1.476537	-0.000174
1051	1.0447e+02	-0.9154	14.576079	0.000568	5.675561	0.961466	-0.000114
1052	1.0457e+02	-0.9364	14.418630	0.000791	7.905246	1.339185	-0.000158
1053	1.0467e+02	-0.9554	14.321739	0.000486	4.864767	0.824114	-0.000097
1054	1.0477e+02	-0.9764	14.168328	0.000770	7.702548	1.304847	-0.000154
1055	1.0487e+02	-0.9956	14.027028	0.000709	7.094452	1.201833	-0.000142
1056	1.0497e+02	-1.0163	13.885728	0.000709	7.094452	1.201833	-0.000142
1057	1.0507e+02	-1.0348	13.817097	0.000345	3.445877	0.583747	-0.000069
1058	1.0517e+02	-1.0558	13.635426	0.000912	9.121438	1.545213	-0.000183
1059	1.0527e+02	-1.0757	13.522386	0.000568	5.675561	0.961466	-0.000114
1060	1.0537e+02	-1.0954	13.405309	0.000588	5.878260	0.995804	-0.000118
1061	1.0547e+02	-1.1153	13.219601	0.000932	9.324137	1.579552	-0.000187
1062	1.0557e+02	-1.1344	13.102524	0.000588	5.878260	0.995804	-0.000118
1063	1.0567e+02	-1.1559	12.961224	0.000709	7.094452	1.201833	-0.000142
1064	1.0577e+02	-1.1749	12.832036	0.000649	6.486356	1.098818	-0.000130
1065	1.0587e+02	-1.1945	12.642291	0.000953	9.526835	1.613890	-0.000191
1066	1.0597e+02	-1.2147	12.569622	0.000365	3.648575	0.618085	-0.000073
1067	1.0607e+02	-1.2344	12.424285	0.000730	7.297150	1.236171	-0.000146
1068	1.0617e+02	-1.2546	12.250688	0.000872	8.716041	1.476537	-0.000174
1069	1.0627e+02	-1.2753	12.149760	0.000507	5.067466	0.858452	-0.000101
1070	1.0637e+02	-1.2952	12.020572	0.000649	6.486356	1.098818	-0.000130
1071	1.0647e+02	-1.3144	11.899458	0.000608	6.080959	1.030142	-0.000122
1072	1.0656e+02	-1.3338	11.733935	0.000831	8.310644	1.407861	-0.000166
1073	1.0666e+02	-1.3531	11.596672	0.000689	6.891753	1.167495	-0.000138
1074	1.0676e+02	-1.3739	11.507855	0.000446	4.459370	0.755438	-0.000089
1075	1.0686e+02	-1.3934	11.334259	0.000872	8.716041	1.476537	-0.000174
1076	1.0696e+02	-1.4130	11.188922	0.000730	7.297150	1.236171	-0.000146
1077	1.0706e+02	-1.4340	11.051659	0.000689	6.891753	1.167495	-0.000138
1078	1.0716e+02	-1.4526	10.922471	0.000649	6.486356	1.098818	-0.000130
1079	1.0726e+02	-1.4718	10.785208	0.000689	6.891753	1.167495	-0.000138
1080	1.0736e+02	-1.4935	10.660057	0.000628	6.283657	1.064480	-0.000126
1081	1.0746e+02	-1.5137	10.514720	0.000730	7.297150	1.236171	-0.000146
1082	1.0756e+02	-1.5334	10.365346	0.000750	7.499849	1.270509	-0.000150
1083	1.0766e+02	-1.5528	10.240195	0.000628	6.283657	1.064480	-0.000126
1084	1.0776e+02	-1.5727	10.111006	0.000649	6.486356	1.098818	-0.000130
1085	1.0786e+02	-1.5927	9.989892	0.000608	6.080959	1.030142	-0.000122
1086	1.0796e+02	-1.6135	9.808221	0.000912	9.121438	1.545213	-0.000183
1087	1.0806e+02	-1.6331	9.687107	0.000608	6.080959	1.030142	-0.000122
1088	1.0816e+02	-1.6522	9.533696	0.000770	7.702548	1.304847	-0.000154
1089	1.0826e+02	-1.6719	9.368173	0.000831	8.310644	1.407861	-0.000166
1090	1.0836e+02	-1.6931	9.259171	0.000547	5.472863	0.927128	-0.000110
1091	1.0845e+02	-1.7126	9.117871	0.000709	7.094452	1.201833	-0.000142
1092	1.0855e+02	-1.7326	8.988683	0.000649	6.486356	1.098818	-0.000130
1093	1.0865e+02	-1.7530	8.871606	0.000588	5.878260	0.995804	-0.000118
1094	1.0875e+02	-1.7728	8.714157	0.000791	7.905246	1.339185	-0.000158
1095	1.0885e+02	-1.7917	8.589006	0.000628	6.283657	1.064480	-0.000126
1096	1.0895e+02	-1.8124	8.443669	0.000730	7.297150	1.236171	-0.000146
1097	1.0905e+02	-1.8323	8.282184	0.000811	8.107945	1.373523	-0.000162
1098	1.0915e+02	-1.8521	8.173181	0.000547	5.472863	0.927128	-0.000110
1099	1.0925e+02	-1.8718	8.023807	0.000750	7.499849	1.270509	-0.000150
1100	1.0935e+02	-1.8922	7.882508	0.000709	7.094452	1.201833	-0.000142
1101	1.0945e+02	-1.9122	7.745245	0.000689	6.891753	1.167495	-0.000138
1102	1.0955e+02	-1.9316	7.648354	0.000486	4.864767	0.824114	-0.000097
1103	1.0965e+02	-1.9518	7.470720	0.000892	8.918739	1.510875	-0.000179
1104	1.0975e+02	-1.9714	7.341531	0.000649	6.486356	1.098818	-0.000130
1105	1.0985e+02	-1.9922	7.236566	0.000527	5.270164	0.892790	-0.000105
1106	1.0995e+02	-2.0111	7.083155	0.000770	7.702548	1.304847	-0.000154
1107	1.1005e+02	-2.0309	6.982226	0.000507	5.067466	0.858452	-0.000101
1108	1.1015e+02	-2.0517	6.780369	0.001013	10.134931	1.716904	-0.000203
1109	1.1025e+02	-2.0708	6.671367	0.000547	5.472863	0.927128	-0.000110
1110	1.1035e+02	-2.0918	6.550253	0.000608	6.080959	1.030142	-0.000122
1111	1.1044e+02	-2.1114	6.404916	0.000730	7.297150	1.236171	-0.000146
1112	1.1054e+02	-2.1305	6.291876	0.000568	5.675561	0.961466	-0.000114
1113	1.1064e+02	-2.1506	6.122316	0.000851	8.513342	1.442199	-0.000170
1114	1.1074e+02	-2.1707	6.005239	0.000588	5.878260	0.995804	-0.000118
1115	1.1084e+02	-2.1911	5.863940	0.000709	7.094452	1.201833	-0.000142
1116	1.1094e+02	-2.2108	5.754937	0.000547	5.472863	0.927128	-0.000110
1117	1.1104e+02	-2.2298	5.561154	0.000973	9.729534	1.648228	-0.000195
1118	1.1114e+02	-2.2514	5.452152	0.000547	5.472863	0.927128	-0.000110
1119	1.1124e+02	-2.2706	5.322963	0.000649	6.486356	1.098818	-0.000130
1120	1.1134e+02	-2.2903	5.185701	0.000689	6.891753	1.167495	-0.000138
1121	1.1144e+02	-2.3096	5.080735	0.000527	5.270164	0.892790	-0.000105
1122	1.1154e+02	-2.3298	4.862730	0.001095	10.945726	1.854256	-0.000219
1123	1.1164e+02	-2.3496	4.794099	0.000345	3.445877	0.583747	-0.000069
1124	1.1174e+02	-2.3697	4.672985	0.000608	6.080959	1.030142	-0.000122
1125	1.1184e+02	-2.3890	4.531685	0.000709	7.094452	1.201833	-0.000142
1126	1.1194e+02	-2.4104	4.362125	0.000851	8.513342	1.442199	-0.000170
1127	1.1204e+02	-2.4296	4.249085	0.000568	5.675561	0.961466	-0.000114
1128	1.1214e+02	-2.4504	4.111823	0.000689	6.891753	1.167495	-0.000138
1129	1.1224e+02	-2.4698	3.970523	0.000709	7.094452	1.201833	-0.000142
1130	1.1234e+02	-2.4906	3.833260	0.000689	6.891753	1.167495	-0.000138
1131	1.1244e+02	-2.5096	3.720221	0.000568	5.675561	0.961466	-0.000114
1132	1.1253e+02	-2.5293	3.582958	0.000689	6.891753	1.167495	-0.000138
1133	1.1263e+02	-2.5497	3.433584	0.000750	7.499849	1.270509	-0.000150
1134	1.1273e+02	-2.5690	3.292284	0.000709	7.094452	1.201833	-0.000142
1135	1.1283e+02	-2.5890	3.179244	0.000568	5.675561	0.961466	-0.000114
1136	1.1293e+02	-2.6087	3.017759	0.000811	8.107945	1.373523	-0.000162
1137	1.1303e+02	-2.6294	2.892608	0.000628	6.283657	1.064480	-0.000126
1138	1.1313e+02	-2.6489	2.799754	0.000466	4.662068	0.789776	-0.000093
1139	1.1323e+02	-2.6686	2.614045	0.000932	9.324137	1.579552	-0.000187
1140	1.1333e+02	-2.6897	2.501006	0.000568	5.675561	0.961466	-0.000114
1141	1.1343e+02	-2.7078	2.359706	0.000709	7.094452	1.201833	-0.000142
1142	1.1353e+02	-2.7286	2.250703	0.000547	5.472863	0.927128	-0.000110
1143	1.1363e+02	-2.7479	2.117478	0.000669	6.689055	1.133157	-0.000134
1144	1.1373e+02	-2.7685	1.955992	0.000811	8.107945	1.373523	-0.000162
1145	1.1383e+02	-2.7881	1.859101	0.000486	4.864767	0.824114	-0.000097
1146	1.1393e+02	-2.8082	1.742024	0.000588	5.878260	0.995804	-0.000118
1147	1.1403e+02	-2.8284	1.576502	0.000831	8.310644	1.407861	-0.000166
1148	1.1413e+02	-2.8482	1.427127	0.000750	7.499849	1.270509	-0.000150
1149	1.1423e+02	-2.8682	1.301976	0.000628	6.283657	1.064480	-0.000126
1150	1.1433e+02	-2.8872	1.164714	0.000689	6.891753	1.167495	-0.000138
1151	1.1442e+02	-2.9071	1.051674	0.000568	5.675561	0.961466	-0.000114
1152	1.1452e+02	-2.9280	0.886151	0.000831	8.310644	1.407861	-0.000166
1153	1.1462e+02	-2.9475	0.789260	0.000486	4.864767	0.824114	-0.000097
1154	1.1472e+02	-2.9678	0.668146	0.000608	6.080959	1.030142	-0.000122
1155	1.1482e+02	-2.9874	0.502623	0.000831	8.310644	1.407861	-0.000166
1156	1.1492e+02	-3.0071	0.401695	0.000507	5.067466	0.858452	-0.000101
1157	1.1502e+02	-3.0270	0.272507	0.000649	6.486356	1.098818	-0.000130
1158	1.1512e+02	-3.0473	0.135244	0.000689	6.891753	1.167495	-0.000138
1159	1.1522e+02	-3.0673	0.006056	0.000649	6.486356	1.098818	-0.000130
1160	1.1532e+02	-3.0874	-0.098910	0.000527	5.270164	0.892790	-0.000105
1161	1.1542e+02	-3.1067	-0.272507	0.000872	8.716041	1.476537	-0.000174
1162	1.1552e+02	-3.1262	-0.405732	0.000669	6.689055	1.133157	-0.000134
1163	1.1562e+02	-3.1469	-0.486475	0.000405	4.053972	0.686762	-0.000081
1164	1.1572e+02	-3.1675	-0.651997	0.000831	8.310644	1.407861	-0.000166
1165	1.1582e+02	-3.1865	-0.724666	0.000365	3.648575	0.618085	-0.000073
1166	1.1592e+02	-3.2063	-0.865966	0.000709	7.094452	1.201833	-0.000142
1167	1.1602e+02	-3.2261	-1.019377	0.000770	7.702548	1.304847	-0.000154
1168	1.1612e+02	-3.2469	-1.144528	0.000628	6.283657	1.064480	-0.000126
1169	1.1622e+02	-3.2660	-1.241419	0.000486	4.864767	0.824114	-0.000097
1170	1.1632e+02	-3.2867	-1.378682	0.000689	6.891753	1.167495	-0.000138
1171	1.1642e+02	-3.3067	-1.491722	0.000568	5.675561	0.961466	-0.000114
1172	1.1651e+02	-3.3269	-1.637059	0.000730	7.297150	1.236171	-0.000146
1173	1.1661e+02	-3.3463	-1.737987	0.000507	5.067466	0.858452	-0.000101
1174	1.1671e+02	-3.3669	-1.887361	0.000750	7.499849	1.270509	-0.000150
1175	1.1681e+02	-3.3862	-1.984252	0.000486	4.864767	0.824114	-0.000097
1176	1.1691e+02	-3.4052	-2.149775	0.000831	8.310644	1.407861	-0.000166
1177	1.1701e+02	-3.4253	-2.262815	0.000568	5.675561	0.961466	-0.000114
1178	1.1711e+02	-3.4458	-2.412189	0.000750	7.499849	1.270509	-0.000150
1179	1.1721e+02	-3.4657	-2.561563	0.000750	7.499849	1.270509	-0.000150
1180	1.1731e+02	-3.4856	-2.650380	0.000446	4.459370	0.755438	-0.000089
1181	1.1741e+02	-3.5054	-2.791679	0.000709	7.094452	1.201833	-0.000142
1182	1.1751e+02	-3.5265	-2.932979	0.000709	7.094452	1.201833	-0.000142
1183	1.1761e+02	-3.5457	-3.037945	0.000527	5.270164	0.892790	-0.000105
1184	1.1771e+02	-3.5657	-3.155022	0.000588	5.878260	0.995804	-0.000118
1185	1.1781e+02	-3.5846	-3.288247	0.000669	6.689055	1.133157	-0.000134
1186	1.1791e+02	-3.6049	-3.413398	0.000628	6.283657	1.064480	-0.000126
1187	1.1801e+02	-3.6256	-3.562772	0.000750	7.499849	1.270509	-0.000150
1188	1.1811e+02	-3.6449	-3.691961	0.000649	6.486356	1.098818	-0.000130
1189	1.1821e+02	-3.6644	-3.817112	0.000628	6.283657	1.064480	-0.000126
1190	1.1831e+02	-3.6841	-3.942263	0.000628	6.283657	1.064480	-0.000126
1191	1.1841e+02	-3.7048	-4.063377	0.000608	6.080959	1.030142	-0.000122
1192	1.1850e+02	-3.7248	-4.180454	0.000588	5.878260	0.995804	-0.000118
1193	1.1860e+02	-3.7453	-4.317717	0.000689	6.891753	1.167495	-0.000138
1194	1.1870e+02	-3.7645	-4.446905	0.000649	6.486356	1.098818	-0.000130
1195	1.1880e+02	-3.7846	-4.572056	0.000628	6.283657	1.064480	-0.000126
1196	1.1890e+02	-3.8027	-4.693170	0.000608	6.080959	1.030142	-0.000122
1197	1.1900e+02	-3.8235	-4.838507	0.000730	7.297150	1.236171	-0.000146
1198	1.1910e+02	-3.8435	-4.927324	0.000446	4.459370	0.755438	-0.000089
1199	1.1920e+02	-3.8643	-5.060550	0.000669	6.689055	1.133157	-0.000134
1200	1.1930e+02	-3.8841	-5.197812	0.000689	6.891753	1.167495	-0.000138
1201	1.1940e+02	-3.9040	-5.318926	0.000608	6.080959	1.030142	-0.000122
1202	1.1950e+02	-3.9236	-5.452152	0.000669	6.689055	1.133157	-0.000134
1203	1.1960e+02	-3.9436	-5.557117	0.000527	5.270164	0.892790	-0.000105
1204	1.1970e+02	-3.9646	-5.678231	0.000608	6.080959	1.030142	-0.000122
1205	1.1980e+02	-3.9836	-5.831643	0.000770	7.702548	1.304847	-0.000154
1206	1.1990e+02	-4.0033	-5.936608	0.000527	5.270164	0.892790	-0.000105
1207	1.2000e+02	-4.0230	-6.094056	0.000791	7.905246	1.339185	-0.000158
1208	1.2010e+02	-4.0430	-6.182873	0.000446	4.459370	0.755438	-0.000089
1209	1.2020e+02	-4.0622	-6.308025	0.000628	6.283657	1.064480	-0.000126
1210	1.2030e+02	-4.0833	-6.429139	0.000608	6.080959	1.030142	-0.000122
1211	1.2039e+02	-4.1039	-6.570438	0.000709	7.094452	1.201833	-0.000142
1212	1.2049e+02	-4.1226	-6.699627	0.000649	6.486356	1.098818	-0.000130
1213	1.2059e+02	-4.1427	-6.804592	0.000527	5.270164	0.892790	-0.000105
1214	1.2069e+02	-4.1628	-6.921669	0.000588	5.878260	0.995804	-0.000118
1215	1.2079e+02	-4.1827	-7.071043	0.000750	7.499849	1.270509	-0.000150
1216	1.2089e+02	-4.2027	-7.212343	0.000709	7.094452	1.201833	-0.000142
1217	1.2099e+02	-4.2213	-7.285011	0.000365	3.648575	0.618085	-0.000073
1218	1.2109e+02	-4.2422	-7.418237	0.000669	6.689055	1.133157	-0.000134
1219	1.2119e+02	-4.2628	-7.595871	0.000892	8.918739	1.510875	-0.000179
1220	1.2129e+02	-4.2825	-7.668539	0.000365	3.648575	0.618085	-0.000073
1221	1.2139e+02	-4.3023	-7.805802	0.000689	6.891753	1.167495	-0.000138
1222	1.2149e+02	-4.3221	-7.918842	0.000568	5.675561	0.961466	-0.000114
1223	1.2159e+02	-4.3417	-8.048030	0.000649	6.486356	1.098818	-0.000130
1224	1.2169e+02	-4.3616	-8.201441	0.000770	7.702548	1.304847	-0.000154
1225	1.2179e+02	-4.3825	-8.330630	0.000649	6.486356	1.098818	-0.000130
1226	1.2189e+02	-4.4014	-8.419447	0.000446	4.459370	0.755438	-0.000089
1227	1.2199e+02	-4.4217	-8.584969	0.000831	8.310644	1.407861	-0.000166
1228	1.2209e+02	-4.4417	-8.710120	0.000628	6.283657	1.064480	-0.000126
1229	1.2219e+02	-4.4611	-8.851420	0.000709	7.094452	1.201833	-0.000142
1230	1.2229e+02	-4.4814	-8.976571	0.000628	6.283657	1.064480	-0.000126
1231	1.2239e+02	-4.5009	-9.085574	0.000547	5.472863	0.927128	-0.000110
1232	1.2248e+02	-4.5218	-9.194577	0.000547	5.472863	0.927128	-0.000110
1233	1.2258e+02	-4.5421	-9.311654	0.000588	5.878260	0.995804	-0.000118
1234	1.2268e+02	-4.5613	-9.485250	0.000872	8.716041	1.476537	-0.000174
1235	1.2278e+02	-4.5816	-9.578105	0.000466	4.662068	0.789776	-0.000093
1236	1.2288e+02	-4.6005	-9.707293	0.000649	6.486356	1.098818	-0.000130
1237	1.2298e+02	-4.6204	-9.852630	0.000730	7.297150	1.236171	-0.000146
1238	1.2308e+02	-4.6412	-9.981818	0.000649	6.486356	1.098818	-0.000130
1239	1.2318e+02	-4.6619	-10.106969	0.000628	6.283657	1.064480	-0.000126
1240	1.2328e+02	-4.6808	-10.260380	0.000770	7.702548	1.304847	-0.000154
1241	1.2338e+02	-4.7005	-10.385532	0.000628	6.283657	1.064480	-0.000126
1242	1.2348e+02	-4.7205	-10.502609	0.000588	5.878260	0.995804	-0.000118
1243	1.2358e+02	-4.7410	-10.627760	0.000628	6.283657	1.064480	-0.000126
1244	1.2368e+02	-4.7606	-10.760985	0.000669	6.689055	1.133157	-0.000134
1245	1.2378e+02	-4.7807	-10.869988	0.000547	5.472863	0.927128	-0.000110
1246	1.2388e+02	-4.8007	-11.027436	0.000791	7.905246	1.339185	-0.000158
1247	1.2398e+02	-4.8204	-11.152587	0.000628	6.283657	1.064480	-0.000126
1248	1.2408e+02	-4.8409	-11.293887	0.000709	7.094452	1.201833	-0.000142
1249	1.2418e+02	-4.8595	-11.415001	0.000608	6.080959	1.030142	-0.000122
1250	1.2428e+02	-4.8798	-11.524004	0.000547	5.472863	0.927128	-0.000110
1251	1.2438e+02	-4.8993	-11.701638	0.000892	8.918739	1.510875	-0.000179
1252	1.2447e+02	-4.9201	-11.786418	0.000426	4.256671	0.721100	-0.000085
1253	1.2457e+02	-4.9411	-11.931755	0.000730	7.297150	1.236171	-0.000146
1254	1.2467e+02	-4.9604	-12.056906	0.000628	6.283657	1.064480	-0.000126
1255	1.2477e+02	-4.9801	-12.186094	0.000649	6.486356	1.098818	-0.000130
1256	1.2487e+02	-4.9995	-12.331431	0.000730	7.297150	1.236171	-0.000146
1257	1.2497e+02	-5.0194	-12.521176	0.000953	9.526835	1.613890	-0.000191
1258	1.2507e+02	-5.0396	-12.605956	0.000426	4.256671	0.721100	-0.000085
1259	1.2517e+02	-5.0587	-12.739182	0.000669	6.689055	1.133157	-0.000134
1260	1.2527e+02	-5.0786	-12.876444	0.000689	6.891753	1.167495	-0.000138
1261	1.2537e+02	-5.0984	-13.025818	0.000750	7.499849	1.270509	-0.000150
1262	1.2547e+02	-5.1195	-13.126747	0.000507	5.067466	0.858452	-0.000101
1263	1.2557e+02	-5.1392	-13.276121	0.000750	7.499849	1.270509	-0.000150
1264	1.2567e+02	-5.1593	-13.348789	0.000365	3.648575	0.618085	-0.000073
1265	1.2577e+02	-5.1785	-13.558720	0.001054	10.540328	1.785580	-0.000211
1266	1.2587e+02	-5.1986	-13.651574	0.000466	4.662068	0.789776	-0.000093
1267	1.2597e+02	-5.2185	-13.796911	0.000730	7.297150	1.236171	-0.000146
1268	1.2607e+02	-5.2390	-13.913988	0.000588	5.878260	0.995804	-0.000118
1269	1.2617e+02	-5.2585	-14.047214	0.000669	6.689055	1.133157	-0.000134
1270	1.2627e+02	-5.2782	-14.172365	0.000628	6.283657	1.064480	-0.000126
1271	1.2636e+02	-5.2983	-14.354036	0.000912	9.121438	1.545213	-0.000183
1272	1.2646e+02	-5.3185	-14.454965	0.000507	5.067466	0.858452	-0.000101
1273	1.2656e+02	-5.3384	-14.584153	0.000649	6.486356	1.098818	-0.000130
1274	1.2666e+02	-5.3580	-14.745638	0.000811	8.107945	1.373523	-0.000162
1275	1.2676e+02	-5.3771	-14.882901	0.000689	6.891753	1.167495	-0.000138
1276	1.2686e+02	-5.3990	-14.983829	0.000507	5.067466	0.858452	-0.000101
1277	1.2696e+02	-5.4178	-15.149352	0.000831	8.310644	1.407861	-0.000166
1278	1.2706e+02	-5.4382	-15.310837	0.000811	8.107945	1.373523	-0.000162
1279	1.2716e+02	-5.4572	-15.427914	0.000588	5.878260	0.995804	-0.000118
1280	1.2726e+02	-5.4768	-15.557103	0.000649	6.486356	1.098818	-0.000130
1281	1.2736e+02	-5.4980	-15.670142	0.000568	5.675561	0.961466	-0.000114
1282	1.2746e+02	-5.5180	-15.823554	0.000770	7.702548	1.304847	-0.000154
1283	1.2756e+02	-5.5375	-15.952742	0.000649	6.486356	1.098818	-0.000130
1284	1.2766e+02	-5.5566	-16.090004	0.000689	6.891753	1.167495	-0.000138
1285	1.2776e+02	-5.5769	-16.239379	0.000750	7.499849	1.270509	-0.000150
1286	1.2786e+02	-5.5971	-16.417012	0.000892	8.918739	1.510875	-0.000179
1287	1.2796e+02	-5.6181	-16.521978	0.000527	5.270164	0.892790	-0.000105
1288	1.2806e+02	-5.6366	-16.691538	0.000851	8.513342	1.442199	-0.000170
1289	1.2816e+02	-5.6570	-16.788429	0.000486	4.864767	0.824114	-0.000097
1290	1.2826e+02	-5.6776	-16.949914	0.000811	8.107945	1.373523	-0.000162
1291	1.2835e+02	-5.6971	-17.062954	0.000568	5.675561	0.961466	-0.000114
1292	1.2845e+02	-5.7167	-17.216365	0.000770	7.702548	1.304847	-0.000154
1293	1.2855e+02	-5.7361	-17.406111	0.000953	9.526835	1.613890	-0.000191
1294	1.2865e+02	-5.7564	-17.482816	0.000385	3.851274	0.652423	-0.000077
1295	1.2875e+02	-5.7770	-17.636227	0.000770	7.702548	1.304847	-0.000154
1296	1.2885e+02	-5.7967	-17.773490	0.000689	6.891753	1.167495	-0.000138
1297	1.2895e+02	-5.8163	-17.894604	0.000608	6.080959	1.030142	-0.000122
1298	1.2905e+02	-5.8371	-18.084350	0.000953	9.526835	1.613890	-0.000191
1299	1.2915e+02	-5.8566	-18.213538	0.000649	6.486356	1.098818	-0.000130
1300	1.2925e+02	-5.8768	-18.346763	0.000669	6.689055	1.133157	-0.000134
1301	1.2935e+02	-5.8946	-18.528434	0.000912	9.121438	1.545213	-0.000183
1302	1.2945e+02	-5.9164	-18.649549	0.000608	6.080959	1.030142	-0.000122
1303	1.2955e+02	-5.9370	-18.782774	0.000669	6.689055	1.133157	-0.000134
1304	1.2965e+02	-5.9560	-18.940222	0.000791	7.905246	1.339185	-0.000158
1305	1.2975e+02	-5.9763	-19.097671	0.000791	7.905246	1.339185	-0.000158
1306	1.2985e+02	-5.9961	-19.214748	0.000588	5.878260	0.995804	-0.000118
1307	1.2995e+02	-6.0150	-19.352010	0.000689	6.891753	1.167495	-0.000138
1308	1.3005e+02	-6.0352	-19.513496	0.000811	8.107945	1.373523	-0.000162
1309	1.3015e+02	-6.0551	-19.654795	0.000709	7.094452	1.201833	-0.000142
1310	1.3025e+02	-6.0760	-19.792058	0.000689	6.891753	1.167495	-0.000138
1311	1.3034e+02	-6.0959	-19.961618	0.000851	8.513342	1.442199	-0.000170
1312	1.3044e+02	-6.1153	-20.086769	0.000628	6.283657	1.064480	-0.000126
1313	1.3054e+02	-6.1346	-20.268440	0.000912	9.121438	1.545213	-0.000183
1314	1.3064e+02	-6.1560	-20.397628	0.000649	6.486356	1.098818	-0.000130
1315	1.3074e+02	-6.1755	-20.559114	0.000811	8.107945	1.373523	-0.000162
1316	1.3084e+02	-6.1954	-20.676191	0.000588	5.878260	0.995804	-0.000118
1317	1.3094e+02	-6.2154	-20.813453	0.000689	6.891753	1.167495	-0.000138
1318	1.3104e+02	-6.2354	-20.991087	0.000892	8.918739	1.510875	-0.000179
1319	1.3114e+02	-6.2544	-21.116238	0.000628	6.283657	1.064480	-0.000126
1320	1.3124e+02	-6.2747	-21.273687	0.000791	7.905246	1.339185	-0.000158
1321	1.3134e+02	-6.2956	-21.451321	0.000892	8.918739	1.510875	-0.000179
1322	1.3144e+02	-6.3142	-21.576472	0.000628	6.283657	1.064480	-0.000126
1323	1.3154e+02	-6.3350	-21.746032	0.000851	8.513342	1.442199	-0.000170
1324	1.3164e+02	-6.3540	-21.895406	0.000750	7.499849	1.270509	-0.000150
1325	1.3174e+02	-6.3739	-21.980186	0.000426	4.256671	0.721100	-0.000085
1326	1.3184e+02	-6.3946	-22.173968	0.000973	9.729534	1.648228	-0.000195
1327	1.3194e+02	-6.4137	-22.355639	0.000912	9.121438	1.545213	-0.000183
1328	1.3204e+02	-6.4340	-22.460605	0.000527	5.270164	0.892790	-0.000105
1329	1.3214e+02	-6.4536	-22.626127	0.000831	8.310644	1.407861	-0.000166
1330	1.3224e+02	-6.4753	-22.763390	0.000689	6.891753	1.167495	-0.000138
1331	1.3234e+02	-6.4938	-22.945061	0.000912	9.121438	1.545213	-0.000183
1332	1.3243e+02	-6.5129	-23.122695	0.000892	8.918739	1.510875	-0.000179
1333	1.3253e+02	-6.5329	-23.272069	0.000750	7.499849	1.270509	-0.000150
1334	1.3263e+02	-6.5541	-23.457777	0.000932	9.324137	1.579552	-0.000187
1335	1.3273e+02	-6.5732	-23.566780	0.000547	5.472863	0.927128	-0.000110
1336	1.3283e+02	-6.5936	-23.720191	0.000770	7.702548	1.304847	-0.000154
1337	1.3293e+02	-6.6129	-23.841305	0.000608	6.080959	1.030142	-0.000122
1338	1.3303e+02	-6.6334	-24.031050	0.000953	9.526835	1.613890	-0.000191
1339	1.3313e+02	-6.6525	-24.168313	0.000689	6.891753	1.167495	-0.000138
1340	1.3323e+02	-6.6732	-24.358058	0.000953	9.526835	1.613890	-0.000191
1341	1.3333e+02	-6.6934	-24.535692	0.000892	8.918739	1.510875	-0.000179
1342	1.3343e+02	-6.7130	-24.709289	0.000872	8.716041	1.476537	-0.000174
1343	1.3353e+02	-6.7322	-24.798106	0.000446	4.459370	0.755438	-0.000089
1344	1.3363e+02	-6.7532	-25.040334	0.001216	12.161917	2.060285	-0.000243
1345	1.3373e+02	-6.7729	-25.161448	0.000608	6.080959	1.030142	-0.000122
1346	1.3383e+02	-6.7932	-25.298711	0.000689	6.891753	1.167495	-0.000138
1347	1.3393e+02	-6.8127	-25.480382	0.000912	9.121438	1.545213	-0.000183
1348	1.3403e+02	-6.8330	-25.641868	0.000811	8.107945	1.373523	-0.000162
1349	1.3413e+02	-6.8534	-25.835650	0.000973	9.729534	1.648228	-0.000195
1350	1.3423e+02	-6.8721	-25.968876	0.000669	6.689055	1.133157	-0.000134
1351	1.3432e+02	-6.8925	-26.166695	0.000993	9.932233	1.682566	-0.000199
1352	1.3442e+02	-6.9112	-26.340292	0.000872	8.716041	1.476537	-0.000174
1353	1.3452e+02	-6.9321	-26.497740	0.000791	7.905246	1.339185	-0.000158
1354	1.3462e+02	-6.9514	-26.635003	0.000689	6.891753	1.167495	-0.000138
1355	1.3472e+02	-6.9711	-26.812637	0.000892	8.918739	1.510875	-0.000179
1356	1.3482e+02	-6.9913	-26.990271	0.000892	8.918739	1.510875	-0.000179
1357	1.3492e+02	-7.0113	-27.200202	0.001054	10.540328	1.785580	-0.000211
1358	1.3502e+02	-7.0316	-27.313242	0.000568	5.675561	0.961466	-0.000114
1359	1.3512e+02	-7.0518	-27.531247	0.001095	10.945726	1.854256	-0.000219
1360	1.3522e+02	-7.0712	-27.725030	0.000973	9.729534	1.648228	-0.000195
1361	1.3532e+02	-7.0911	-27.894589	0.000851	8.513342	1.442199	-0.000170
1362	1.3542e+02	-7.1117	-28.039926	0.000730	7.297150	1.236171	-0.000146
1363	1.3552e+02	-7.1310	-28.249857	0.001054	10.540328	1.785580	-0.000211
1364	1.3562e+02	-7.1514	-28.427491	0.000892	8.918739	1.510875	-0.000179
1365	1.3572e+02	-7.1709	-28.564754	0.000689	6.891753	1.167495	-0.000138
1366	1.3582e+02	-7.1912	-28.778722	0.001074	10.743027	1.819918	-0.000215
1367	1.3592e+02	-7.2114	-28.956356	0.000892	8.918739	1.510875	-0.000179
1368	1.3602e+02	-7.2309	-29.109767	0.000770	7.702548	1.304847	-0.000154
1369	1.3612e+02	-7.2514	-29.291438	0.000912	9.121438	1.545213	-0.000183
1370	1.3622e+02	-7.2700	-29.501369	0.001054	10.540328	1.785580	-0.000211
1371	1.3631e+02	-7.2900	-29.658818	0.000791	7.905246	1.339185	-0.000158
1372	1.3641e+02	-7.3111	-29.856637	0.000993	9.932233	1.682566	-0.000199
1373	1.3651e+02	-7.3306	-30.018123	0.000811	8.107945	1.373523	-0.000162
1374	1.3661e+02	-7.3508	-30.228054	0.001054	10.540328	1.785580	-0.000211
1375	1.3671e+02	-7.3709	-30.413762	0.000932	9.324137	1.579552	-0.000187
1376	1.3681e+02	-7.3903	-30.599470	0.000932	9.324137	1.579552	-0.000187
1377	1.3691e+02	-7.4106	-30.793253	0.000973	9.729534	1.648228	-0.000195
1378	1.3701e+02	-7.4307	-30.982998	0.000953	9.526835	1.613890	-0.000191
1379	1.3711e+02	-7.4500	-31.168706	0.000932	9.324137	1.579552	-0.000187
1380	1.3721e+02	-7.4698	-31.362489	0.000973	9.729534	1.648228	-0.000195
1381	1.3731e+02	-7.4911	-31.528012	0.000831	8.310644	1.407861	-0.000166
1382	1.3741e+02	-7.5101	-31.746017	0.001095	10.945726	1.854256	-0.000219
1383	1.3751e+02	-7.5301	-31.919614	0.000872	8.716041	1.476537	-0.000174
1384	1.3761e+02	-7.5494	-32.149730	0.001155	11.553822	1.957270	-0.000231
1385	1.3771e+02	-7.5687	-32.315253	0.000831	8.310644	1.407861	-0.000166
1386	1.3781e+02	-7.5891	-32.517110	0.001013	10.134931	1.716904	-0.000203
1387	1.3791e+02	-7.6089	-32.743189	0.001135	11.351123	1.922932	-0.000227
1388	1.3801e+02	-7.6294	-32.904675	0.000811	8.107945	1.373523	-0.000162
1389	1.3811e+02	-7.6486	-33.138829	0.001176	11.756520	1.991608	-0.000235
1390	1.3821e+02	-7.6690	-33.308388	0.000851	8.513342	1.442199	-0.000170
1391	1.3831e+02	-7.6883	-33.550617	0.001216	12.161917	2.060285	-0.000243
1392	1.3840e+02	-7.7084	-33.716139	0.000831	8.310644	1.407861	-0.000166
1393	1.3850e+02	-7.7282	-33.926070	0.001054	10.540328	1.785580	-0.000211
1394	1.3860e+02	-7.7478	-34.119853	0.000973	9.729534	1.648228	-0.000195
1395	1.3870e+02	-7.7682	-34.382267	0.001318	13.175410	2.231975	-0.000264
1396	1.3880e+02	-7.7885	-34.584123	0.001013	10.134931	1.716904	-0.000203
1397	1.3890e+02	-7.8079	-34.794054	0.001054	10.540328	1.785580	-0.000211
1398	1.3900e+02	-7.8271	-34.999948	0.001034	10.337630	1.751242	-0.000207
1399	1.3910e+02	-7.8476	-35.173545	0.000872	8.716041	1.476537	-0.000174
1400	1.3920e+02	-7.8692	-35.407699	0.001176	11.756520	1.991608	-0.000235
1401	1.3930e+02	-7.8873	-35.633779	0.001135	11.351123	1.922932	-0.000227
1402	1.3940e+02	-7.9074	-35.855821	0.001115	11.148424	1.888594	-0.000223
1403	1.3950e+02	-7.9272	-36.065752	0.001054	10.540328	1.785580	-0.000211
1404	1.3960e+02	-7.9482	-36.279720	0.001074	10.743027	1.819918	-0.000215
1405	1.3970e+02	-7.9671	-36.489651	0.001054	10.540328	1.785580	-0.000211
1406	1.3980e+02	-7.9877	-36.723805	0.001176	11.756520	1.991608	-0.000235
1407	1.3990e+02	-8.0073	-36.925662	0.001013	10.134931	1.716904	-0.000203
1408	1.4000e+02	-8.0270	-37.127519	0.001013	10.134931	1.716904	-0.000203
1409	1.4010e+02	-8.0464	-37.365710	0.001196	11.959219	2.025947	-0.000239
1410	1.4020e+02	-8.0669	-37.644272	0.001399	13.986205	2.369327	-0.000280
1411	1.4029e+02	-8.0875	-37.825943	0.000912	9.121438	1.545213	-0.000183
1412	1.4039e+02	-8.1070	-38.088357	0.001318	13.175410	2.231975	-0.000264
1413	1.4049e+02	-8.1258	-38.302325	0.001074	10.743027	1.819918	-0.000215
1414	1.4059e+02	-8.1461	-38.548591	0.001236	12.364616	2.094623	-0.000248
1415	1.4069e+02	-8.1664	-38.762559	0.001074	10.743027	1.819918	-0.000215
1416	1.4079e+02	-8.1866	-39.016898	0.001277	12.770013	2.163299	-0.000256
1417	1.4089e+02	-8.2062	-39.247015	0.001155	11.553822	1.957270	-0.000231
1418	1.4099e+02	-8.2272	-39.513466	0.001338	13.378109	2.266313	-0.000268
1419	1.4109e+02	-8.2477	-39.723397	0.001054	10.540328	1.785580	-0.000211
1420	1.4119e+02	-8.2661	-39.997922	0.001378	13.783506	2.334989	-0.000276
1421	1.4129e+02	-8.2865	-40.224002	0.001135	11.351123	1.922932	-0.000227
1422	1.4139e+02	-8.3064	-40.450082	0.001135	11.351123	1.922932	-0.000227
1423	1.4149e+02	-8.3257	-40.708458	0.001297	12.972712	2.197637	-0.000260
1424	1.4159e+02	-8.3453	-40.934538	0.001135	11.351123	1.922932	-0.000227
1425	1.4169e+02	-8.3647	-41.192915	0.001297	12.972712	2.197637	-0.000260
1426	1.4179e+02	-8.3859	-41.467440	0.001378	13.783506	2.334989	-0.000276
1427	1.4189e+02	-8.4059	-41.709668	0.001216	12.161917	2.060285	-0.000243
1428	1.4199e+02	-8.4259	-41.935747	0.001135	11.351123	1.922932	-0.000227
1429	1.4209e+02	-8.4450	-42.242570	0.001541	15.405095	2.609694	-0.000308
1430	1.4219e+02	-8.4655	-42.444427	0.001013	10.134931	1.716904	-0.000203
1431	1.4228e+02	-8.4850	-42.731063	0.001439	14.391602	2.438003	-0.000288
1432	1.4238e+02	-8.5049	-42.949069	0.001095	10.945726	1.854256	-0.000219
1433	1.4248e+02	-8.5259	-43.195334	0.001236	12.364616	2.094623	-0.000248
1434	1.4258e+02	-8.5449	-43.441599	0.001236	12.364616	2.094623	-0.000248
1435	1.4268e+02	-8.5648	-43.736310	0.001480	14.796999	2.506680	-0.000296
1436	1.4278e+02	-8.5854	-43.970464	0.001176	11.756520	1.991608	-0.000235
1437	1.4288e+02	-8.6050	-44.261138	0.001459	14.594301	2.472341	-0.000292
1438	1.4298e+02	-8.6252	-44.527589	0.001338	13.378109	2.266313	-0.000268
1439	1.4308e+02	-8.6446	-44.798077	0.001358	13.580808	2.300651	-0.000272
1440	1.4318e+02	-8.6657	-45.028193	0.001155	11.553822	1.957270	-0.000231
1441	1.4328e+02	-8.6842	-45.330979	0.001520	15.202397	2.575356	-0.000304
1442	1.4338e+02	-8.7045	-45.585318	0.001277	12.770013	2.163299	-0.000256
1443	1.4348e+02	-8.7251	-45.843695	0.001297	12.972712	2.197637	-0.000260
1444	1.4358e+02	-8.7441	-46.134369	0.001459	14.594301	2.472341	-0.000292
1445	1.4368e+02	-8.7642	-46.384671	0.001257	12.567315	2.128961	-0.000252
1446	1.4378e+02	-8.7848	-46.663233	0.001399	13.986205	2.369327	-0.000280
1447	1.4388e+02	-8.8042	-46.937759	0.001378	13.783506	2.334989	-0.000276
1448	1.4398e+02	-8.8237	-47.208247	0.001358	13.580808	2.300651	-0.000272
1449	1.4408e+02	-8.8438	-47.523143	0.001581	15.810493	2.678370	-0.000316
1450	1.4418e+02	-8.8640	-47.789594	0.001338	13.378109	2.266313	-0.000268
1451	1.4428e+02	-8.8834	-48.052008	0.001318	13.175410	2.231975	-0.000264
1452	1.4437e+02	-8.9032	-48.374979	0.001622	16.215890	2.747046	-0.000325
1453	1.4447e+02	-8.9229	-48.657578	0.001419	14.188904	2.403665	-0.000284
1454	1.4457e+02	-8.9438	-48.956327	0.001500	14.999698	2.541018	-0.000300
1455	1.4467e+02	-8.9630	-49.238926	0.001419	14.188904	2.403665	-0.000284
1456	1.4477e+02	-8.9832	-49.521526	0.001419	14.188904	2.403665	-0.000284
1457	1.4487e+02	-9.0034	-49.800088	0.001399	13.986205	2.369327	-0.000280
1458	1.4497e+02	-9.0229	-50.119022	0.001601	16.013191	2.712708	-0.000321
1459	1.4507e+02	-9.0425	-50.393547	0.001378	13.783506	2.334989	-0.000276
1460	1.4517e+02	-9.0648	-50.700369	0.001541	15.405095	2.609694	-0.000308
1461	1.4527e+02	-9.0826	-50.974894	0.001378	13.783506	2.334989	-0.000276
1462	1.4537e+02	-9.1019	-51.322088	0.001743	17.432082	2.953075	-0.000349
1463	1.4547e+02	-9.1234	-51.628910	0.001541	15.405095	2.609694	-0.000308
1464	1.4557e+02	-9.1440	-51.947844	0.001601	16.013191	2.712708	-0.000321
1465	1.4567e+02	-9.1626	-52.266778	0.001601	16.013191	2.712708	-0.000321
1466	1.4577e+02	-9.1823	-52.549377	0.001419	14.188904	2.403665	-0.000284
1467	1.4587e+02	-9.2036	-52.884460	0.001682	16.823986	2.850060	-0.000337
1468	1.4597e+02	-9.2227	-53.183208	0.001500	14.999698	2.541018	-0.000300
1469	1.4607e+02	-9.2421	-53.473881	0.001459	14.594301	2.472341	-0.000292
1470	1.4617e+02	-9.2613	-53.808964	0.001682	16.823986	2.850060	-0.000337
1471	1.4626e+02	-9.2831	-54.131935	0.001622	16.215890	2.747046	-0.000325
1472	1.4636e+02	-9.3015	-54.499314	0.001845	18.445575	3.124765	-0.000369
1473	1.4646e+02	-9.3211	-54.781913	0.001419	14.188904	2.403665	-0.000284
1474	1.4656e+02	-9.3425	-55.112959	0.001662	16.621287	2.815722	-0.000333
1475	1.4666e+02	-9.3610	-55.452078	0.001703	17.026684	2.884398	-0.000341
1476	1.4676e+02	-9.3823	-55.791197	0.001703	17.026684	2.884398	-0.000341
1477	1.4686e+02	-9.4016	-56.093983	0.001520	15.202397	2.575356	-0.000304
1478	1.4696e+02	-9.4223	-56.420991	0.001642	16.418588	2.781384	-0.000329
1479	1.4706e+02	-9.4414	-56.735887	0.001581	15.810493	2.678370	-0.000316
1480	1.4716e+02	-9.4617	-57.127489	0.001966	19.661766	3.330793	-0.000394
1481	1.4726e+02	-9.4814	-57.434312	0.001541	15.405095	2.609694	-0.000308
1482	1.4736e+02	-9.5007	-57.785542	0.001763	17.634780	2.987413	-0.000353
1483	1.4746e+02	-9.5216	-58.116588	0.001662	16.621287	2.815722	-0.000333
1484	1.4756e+02	-9.5410	-58.500115	0.001926	19.256369	3.262117	-0.000385
1485	1.4766e+02	-9.5609	-58.815012	0.001581	15.810493	2.678370	-0.000316
1486	1.4776e+02	-9.5807	-59.146057	0.001662	16.621287	2.815722	-0.000333
1487	1.4786e+02	-9.5999	-59.549771	0.002027	20.269862	3.433808	-0.000406
1488	1.4796e+02	-9.6214	-59.844482	0.001480	14.796999	2.506680	-0.000296
1489	1.4806e+02	-9.6406	-60.252232	0.002047	20.472561	3.468146	-0.000410
1490	1.4816e+02	-9.6617	-60.603463	0.001763	17.634780	2.987413	-0.000353
1491	1.4825e+02	-9.6811	-60.946620	0.001723	17.229383	2.918736	-0.000345
1492	1.4835e+02	-9.7003	-61.309962	0.001824	18.242876	3.090427	-0.000365
1493	1.4845e+02	-9.7202	-61.677341	0.001845	18.445575	3.124765	-0.000369
1494	1.4855e+02	-9.7407	-62.032609	0.001784	17.837479	3.021751	-0.000357
1495	1.4865e+02	-9.7603	-62.379803	0.001743	17.432082	2.953075	-0.000349
1496	1.4875e+02	-9.7810	-62.787554	0.002047	20.472561	3.468146	-0.000410
1497	1.4885e+02	-9.8004	-63.171081	0.001926	19.256369	3.262117	-0.000385
1498	1.4895e+02	-9.8196	-63.514238	0.001723	17.229383	2.918736	-0.000345
1499	1.4905e+02	-9.8398	-63.877580	0.001824	18.242876	3.090427	-0.000365
1500	1.4915e+02	-9.8592	-64.317628	0.002209	22.094150	3.742850	-0.000442
1501	1.4925e+02	-9.8792	-64.644636	0.001642	16.418588	2.781384	-0.000329
1502	1.4935e+02	-9.8997	-65.052387	0.002047	20.472561	3.468146	-0.000410
1503	1.4945e+02	-9.9197	-65.480323	0.002149	21.486054	3.639836	-0.000430
1504	1.4955e+02	-9.9385	-65.863851	0.001926	19.256369	3.262117	-0.000385
1505	1.4965e+02	-9.9591	-66.239305	0.001885	18.850972	3.193441	-0.000377
1506	1.4975e+02	-9.9791	-66.614758	0.001885	18.850972	3.193441	-0.000377
1507	1.4985e+02	-9.9991	-67.046732	0.002169	21.688753	3.674174	-0.000434
1508	1.4995e+02	-9.9794	-67.268774	-0.001115	-11.148424	-1.888594	-0.000223
1509	1.5005e+02	-9.9597	-67.511002	-0.001216	-12.161917	-2.060285	-0.000243
1510	1.5015e+02	-9.9393	-67.676525	-0.000831	-8.310644	-1.407861	-0.000166
1511	1.5025e+02	-9.9187	-67.894530	-0.001095	-10.945726	-1.854256	-0.000219
1512	1.5034e+02	-9.8999	-68.088313	-0.000973	-9.729534	-1.648228	-0.000195
1513	1.5044e+02	-9.8801	-68.257872	-0.000851	-8.513342	-1.442199	-0.000170
1514	1.5054e+02	-9.8599	-68.395135	-0.000689	-6.891753	-1.167495	-0.000138
1515	1.5064e+02	-9.8395	-68.560658	-0.000831	-8.310644	-1.407861	-0.000166
1516	1.5074e+02	-9.8201	-68.693883	-0.000669	-6.689055	-1.133157	-0.000134
1517	1.5084e+02	-9.8001	-68.806923	-0.000568	-5.675561	-0.961466	-0.000114
1518	1.5094e+02	-9.7800	-68.940148	-0.000669	-6.689055	-1.133157	-0.000134
1519	1.5104e+02	-9.7591	-69.137968	-0.000993	-9.932233	-1.682566	-0.000199
1520	1.5114e+02	-9.7409	-69.186414	-0.000243	-2.432383	-0.412057	-0.000049
1521	1.5124e+02	-9.7207	-69.351936	-0.000831	-8.310644	-1.407861	-0.000166
1522	1.5134e+02	-9.7009	-69.444790	-0.000466	-4.662068	-0.789776	-0.000093
1523	1.5144e+02	-9.6798	-69.549756	-0.000527	-5.270164	-0.892790	-0.000105
1524	1.5154e+02	-9.6606	-69.622424	-0.000365	-3.648575	-0.618085	-0.000073
1525	1.5164e+02	-9.6410	-69.767761	-0.000730	-7.297150	-1.236171	-0.000146
1526	1.5174e+02	-9.6207	-69.828318	-0.000304	-3.040479	-0.515071	-0.000061
1527	1.5184e+02	-9.6004	-69.913098	-0.000426	-4.256671	-0.721100	-0.000085
1528	1.5194e+02	-9.5807	-69.981729	-0.000345	-3.445877	-0.583747	-0.000069
1529	1.5204e+02	-9.5612	-70.062472	-0.000405	-4.053972	-0.686762	-0.000081
1530	1.5214e+02	-9.5406	-70.143215	-0.000405	-4.053972	-0.686762	-0.000081
1531	1.5224e+02	-9.5200	-70.191661	-0.000243	-2.432383	-0.412057	-0.000049
1532	1.5233e+02	-9.5009	-70.288552	-0.000486	-4.864767	-0.824114	-0.000097
1533	1.5243e+02	-9.4815	-70.316812	-0.000142	-1.418890	-0.240367	-0.000028
1534	1.5253e+02	-9.4611	-70.361220	-0.000223	-2.229685	-0.377719	-0.000045
1535	1.5263e+02	-9.4414	-70.413703	-0.000264	-2.635082	-0.446395	-0.000053
1536	1.5273e+02	-9.4218	-70.466186	-0.000264	-2.635082	-0.446395	-0.000053
1537	1.5283e+02	-9.4019	-70.486371	-0.000101	-1.013493	-0.171690	-0.000020
1538	1.5293e+02	-9.3823	-70.526743	-0.000203	-2.026986	-0.343381	-0.000041
1539	1.5303e+02	-9.3613	-70.575188	-0.000243	-2.432383	-0.412057	-0.000049
1540	1.5313e+02	-9.3410	-70.615560	-0.000203	-2.026986	-0.343381	-0.000041
1541	1.5323e+02	-9.3211	-70.651894	-0.000182	-1.824288	-0.309043	-0.000037
1542	1.5333e+02	-9.3018	-70.688228	-0.000182	-1.824288	-0.309043	-0.000037
1543	1.5343e+02	-9.2828	-70.668043	0.000101	1.013493	0.171690	0.000020
1544	1.5353e+02	-9.2624	-70.756860	-0.000446	-4.459370	-0.755438	-0.000089
1545	1.5363e+02	-9.2418	-70.744748	0.000061	0.608096	0.103014	0.000012
1546	1.5373e+02	-9.2231	-70.744748	0.000000	0.000000	0.000000	0.000000
1547	1.5383e+02	-9.2021	-70.756860	-0.000061	-0.608096	-0.103014	-0.000012
1548	1.5393e+02	-9.1824	-70.797231	-0.000203	-2.026986	-0.343381	-0.000041
1549	1.5403e+02	-9.1617	-70.777045	0.000101	1.013493	0.171690	0.000020
1550	1.5413e+02	-9.1434	-70.813379	-0.000182	-1.824288	-0.309043	-0.000037
1551	1.5422e+02	-9.1237	-70.801268	0.000061	0.608096	0.103014	0.000012
1552	1.5432e+02	-9.1020	-70.825491	-0.000122	-1.216192	-0.206028	-0.000024
1553	1.5442e+02	-9.0829	-70.809342	0.000081	0.810794	0.137352	0.000016
1554	1.5452e+02	-9.0634	-70.789157	0.000101	1.013493	0.171690	0.000020
1555	1.5462e+02	-9.0427	-70.829528	-0.000203	-2.026986	-0.343381	-0.000041
1556	1.5472e+02	-9.0231	-70.805305	0.000122	1.216192	0.206028	0.000024
1557	1.5482e+02	-9.0038	-70.817417	-0.000061	-0.608096	-0.103014	-0.000012
1558	1.5492e+02	-8.9828	-70.797231	0.000101	1.013493	0.171690	0.000020
1559	1.5502e+02	-8.9633	-70.789157	0.000041	0.405397	0.068676	0.000008
1560	1.5512e+02	-8.9444	-70.817417	-0.000142	-1.418890	-0.240367	-0.000028
1561	1.5522e+02	-8.9227	-70.801268	0.000081	0.810794	0.137352	0.000016
1562	1.5532e+02	-8.9038	-70.781082	0.000101	1.013493	0.171690	0.000020
1563	1.5542e+02	-8.8824	-70.785119	-0.000020	-0.202699	-0.034338	-0.000004
1564	1.5552e+02	-8.8634	-70.760897	0.000122	1.216192	0.206028	0.000024
1565	1.5562e+02	-8.8449	-70.744748	0.000081	0.810794	0.137352	0.000016
1566	1.5572e+02	-8.8243	-70.736674	0.000041	0.405397	0.068676	0.000008
1567	1.5582e+02	-8.8045	-70.712451	0.000122	1.216192	0.206028	0.000024
1568	1.5592e+02	-8.7852	-70.672080	0.000203	2.026986	0.343381	0.000041
1569	1.5602e+02	-8.7633	-70.700340	-0.000142	-1.418890	-0.240367	-0.000028
1570	1.5612e+02	-8.7444	-70.627671	0.000365	3.648575	0.618085	0.000073
1571	1.5622e+02	-8.7251	-70.607485	0.000101	1.013493	0.171690	0.000020
1572	1.5631e+02	-8.7050	-70.546928	0.000304	3.040479	0.515071	0.000061
1573	1.5641e+02	-8.6850	-70.563077	-0.000081	-0.810794	-0.137352	-0.000016
1574	1.5651e+02	-8.6645	-70.546928	0.000081	0.810794	0.137352	0.000016
1575	1.5661e+02	-8.6444	-70.490409	0.000284	2.837781	0.480733	0.000057
1576	1.5671e+02	-8.6252	-70.474260	0.000081	0.810794	0.137352	0.000016
1577	1.5681e+02	-8.6044	-70.474260	0.000000	0.000000	0.000000	0.000000
1578	1.5691e+02	-8.5841	-70.421777	0.000264	2.635082	0.446395	0.000053
1579	1.5701e+02	-8.5648	-70.389480	0.000162	1.621589	0.274705	0.000032
1580	1.5711e+02	-8.5452	-70.341035	0.000243	2.432383	0.412057	0.000049
1581	1.5721e+02	-8.5249	-70.332960	0.000041	0.405397	0.068676	0.000008
1582	1.5731e+02	-8.5045	-70.341035	-0.000041	-0.405397	-0.068676	-0.000008
1583	1.5741e+02	-8.4858	-70.272403	0.000345	3.445877	0.583747	0.000069
1584	1.5751e+02	-8.4657	-70.256255	0.000081	0.810794	0.137352	0.000016
1585	1.5761e+02	-8.4457	-70.219920	0.000182	1.824288	0.309043	0.000037
1586	1.5771e+02	-8.4256	-70.147252	0.000365	3.648575	0.618085	0.000073
1587	1.5781e+02	-8.4055	-70.135141	0.000061	0.608096	0.103014	0.000012
1588	1.5791e+02	-8.3858	-70.110918	0.000122	1.216192	0.206028	0.000024
1589	1.5801e+02	-8.3664	-70.074584	0.000182	1.824288	0.309043	0.000037
1590	1.5811e+02	-8.3458	-69.981729	0.000466	4.662068	0.789776	0.000093
1591	1.5821e+02	-8.3263	-69.933284	0.000243	2.432383	0.412057	0.000049
1592	1.5830e+02	-8.3070	-69.933284	0.000000	0.000000	0.000000	0.000000
1593	1.5840e+02	-8.2858	-69.844467	0.000446	4.459370	0.755438	0.000089
1594	1.5850e+02	-8.2662	-69.844467	0.000000	0.000000	0.000000	0.000000
1595	1.5860e+02	-8.2468	-69.791984	0.000264	2.635082	0.446395	0.000053
1596	1.5870e+02	-8.2260	-69.775836	0.000081	0.810794	0.137352	0.000016
1597	1.5880e+02	-8.2069	-69.695093	0.000405	4.053972	0.686762	0.000081
1598	1.5890e+02	-8.1870	-69.658759	0.000182	1.824288	0.309043	0.000037
1599	1.5900e+02	-8.1662	-69.582053	0.000385	3.851274	0.652423	0.000077
1600	1.5910e+02	-8.1459	-69.573979	0.000041	0.405397	0.068676	0.000008
1601	1.5920e+02	-8.1259	-69.497273	0.000385	3.851274	0.652423	0.000077
1602	1.5930e+02	-8.1060	-69.440753	0.000284	2.837781	0.480733	0.000057
1603	1.5940e+02	-8.0865	-69.368085	0.000365	3.648575	0.618085	0.000073
1604	1.5950e+02	-8.0661	-69.315602	0.000264	2.635082	0.446395	0.000053
1605	1.5960e+02	-8.0479	-69.279268	0.000182	1.824288	0.309043	0.000037
1606	1.5970e+02	-8.0281	-69.214674	0.000324	3.243178	0.549409	0.000065
1607	1.5980e+02	-8.0075	-69.133931	0.000405	4.053972	0.686762	0.000081
1608	1.5990e+02	-7.9875	-69.093560	0.000203	2.026986	0.343381	0.000041
1609	1.6000e+02	-7.9669	-69.053188	0.000203	2.026986	0.343381	0.000041
1610	1.6010e+02	-7.9473	-68.964371	0.000446	4.459370	0.755438	0.000089
1611	1.6019e+02	-7.9279	-68.932074	0.000162	1.621589	0.274705	0.000032
1612	1.6029e+02	-7.9077	-68.887666	0.000223	2.229685	0.377719	0.000045
1613	1.6039e+02	-7.8873	-68.835183	0.000264	2.635082	0.446395	0.000053
1614	1.6049e+02	-7.8680	-68.774626	0.000304	3.040479	0.515071	0.000061
1615	1.6059e+02	-7.8465	-68.689846	0.000426	4.256671	0.721100	0.000085
1616	1.6069e+02	-7.8288	-68.637363	0.000264	2.635082	0.446395	0.000053
1617	1.6079e+02	-7.8082	-68.568732	0.000345	3.445877	0.583747	0.000069
1618	1.6089e+02	-7.7873	-68.536435	0.000162	1.621589	0.274705	0.000032
1619	1.6099e+02	-7.7682	-68.427432	0.000547	5.472863	0.927128	0.000110
1620	1.6109e+02	-7.7489	-68.403209	0.000122	1.216192	0.206028	0.000024
1621	1.6119e+02	-7.7283	-68.346689	0.000284	2.837781	0.480733	0.000057
1622	1.6129e+02	-7.7084	-68.290170	0.000284	2.837781	0.480733	0.000057
1623	1.6139e+02	-7.6885	-68.253835	0.000182	1.824288	0.309043	0.000037
1624	1.6149e+02	-7.6689	-68.136758	0.000588	5.878260	0.995804	0.000118
1625	1.6159e+02	-7.6489	-68.080239	0.000284	2.837781	0.480733	0.000057
1626	1.6169e+02	-7.6297	-68.003533	0.000385	3.851274	0.652423	0.000077
1627	1.6179e+02	-7.6085	-67.971236	0.000162	1.621589	0.274705	0.000032
1628	1.6189e+02	-7.5864	-67.922790	0.000243	2.432383	0.412057	0.000049
1629	1.6199e+02	-7.5702	-67.825899	0.000486	4.864767	0.824114	0.000097
1630	1.6209e+02	-7.5497	-67.777453	0.000243	2.432383	0.412057	0.000049
1631	1.6219e+02	-7.5291	-67.733045	0.000223	2.229685	0.377719	0.000045
1632	1.6228e+02	-7.5095	-67.656339	0.000385	3.851274	0.652423	0.000077
1633	1.6238e+02	-7.4899	-67.599819	0.000284	2.837781	0.480733	0.000057
1634	1.6248e+02	-7.4698	-67.519077	0.000405	4.053972	0.686762	0.000081
1635	1.6258e+02	-7.4509	-67.426223	0.000466	4.662068	0.789776	0.000093
1636	1.6268e+02	-7.4306	-67.385851	0.000203	2.026986	0.343381	0.000041
1637	1.6278e+02	-7.4106	-67.292997	0.000466	4.662068	0.789776	0.000093
1638	1.6288e+02	-7.3898	-67.228403	0.000324	3.243178	0.549409	0.000065
1639	1.6298e+02	-7.3705	-67.200143	0.000142	1.418890	0.240367	0.000028
1640	1.6308e+02	-7.3499	-67.050769	0.000750	7.499849	1.270509	0.000150
1641	1.6318e+02	-7.3303	-67.014435	0.000182	1.824288	0.309043	0.000037
1642	1.6328e+02	-7.3105	-66.933692	0.000405	4.053972	0.686762	0.000081
1643	1.6338e+02	-7.2900	-66.865061	0.000345	3.445877	0.583747	0.000069
1644	1.6348e+02	-7.2701	-66.840838	0.000122	1.216192	0.206028	0.000024
1645	1.6358e+02	-7.2510	-66.663204	0.000892	8.918739	1.510875	0.000179
1646	1.6368e+02	-7.2305	-66.679352	-0.000081	-0.810794	-0.137352	-0.000016
1647	1.6378e+02	-7.2105	-66.594573	0.000426	4.256671	0.721100	0.000085
1648	1.6388e+02	-7.1915	-66.493644	0.000507	5.067466	0.858452	0.000101
1649	1.6398e+02	-7.1699	-66.437124	0.000284	2.837781	0.480733	0.000057
1650	1.6408e+02	-7.1518	-66.364456	0.000365	3.648575	0.618085	0.000073
1651	1.6418e+02	-7.1310	-66.267565	0.000486	4.864767	0.824114	0.000097
1652	1.6427e+02	-7.1109	-66.182785	0.000426	4.256671	0.721100	0.000085
1653	1.6437e+02	-7.0918	-66.146450	0.000182	1.824288	0.309043	0.000037
1654	1.6447e+02	-7.0715	-66.053596	0.000466	4.662068	0.789776	0.000093
1655	1.6457e+02	-7.0517	-65.956705	0.000486	4.864767	0.824114	0.000097
1656	1.6467e+02	-7.0323	-65.892111	0.000324	3.243178	0.549409	0.000065
1657	1.6477e+02	-7.0107	-65.859814	0.000162	1.621589	0.274705	0.000032
1658	1.6487e+02	-6.9920	-65.758885	0.000507	5.067466	0.858452	0.000101
1659	1.6497e+02	-6.9726	-65.657957	0.000507	5.067466	0.858452	0.000101
1660	1.6507e+02	-6.9518	-65.593363	0.000324	3.243178	0.549409	0.000065
1661	1.6517e+02	-6.9331	-65.552992	0.000203	2.026986	0.343381	0.000041
1662	1.6527e+02	-6.9131	-65.443989	0.000547	5.472863	0.927128	0.000110
1663	1.6537e+02	-6.8916	-65.330949	0.000568	5.675561	0.961466	0.000114
1664	1.6547e+02	-6.8723	-65.225984	0.000527	5.270164	0.892790	0.000105
1665	1.6557e+02	-6.8520	-65.201761	0.000122	1.216192	0.206028	0.000024
1666	1.6567e+02	-6.8329	-65.092758	0.000547	5.472863	0.927128	0.000110
1667	1.6577e+02	-6.8132	-64.999904	0.000466	4.662068	0.789776	0.000093
1668	1.6587e+02	-6.7929	-64.935310	0.000324	3.243178	0.549409	0.000065
1669	1.6597e+02	-6.7729	-64.886864	0.000243	2.432383	0.412057	0.000049
1670	1.6607e+02	-6.7529	-64.806121	0.000405	4.053972	0.686762	0.000081
1671	1.6616e+02	-6.7325	-64.685007	0.000608	6.080959	1.030142	0.000122
1672	1.6626e+02	-6.7123	-64.600228	0.000426	4.256671	0.721100	0.000085
1673	1.6636e+02	-6.6928	-64.539670	0.000304	3.040479	0.515071	0.000061
1674	1.6646e+02	-6.6734	-64.434705	0.000527	5.270164	0.892790	0.000105
1675	1.6656e+02	-6.6531	-64.341851	0.000466	4.662068	0.789776	0.000093
1676	1.6666e+02	-6.6342	-64.244960	0.000486	4.864767	0.824114	0.000097
1677	1.6676e+02	-6.6128	-64.180365	0.000324	3.243178	0.549409	0.000065
1678	1.6686e+02	-6.5923	-64.095586	0.000426	4.256671	0.721100	0.000085
1679	1.6696e+02	-6.5739	-64.022917	0.000365	3.648575	0.618085	0.000073
1680	1.6706e+02	-6.5529	-63.893729	0.000649	6.486356	1.098818	0.000130
1681	1.6716e+02	-6.5329	-63.833172	0.000304	3.040479	0.515071	0.000061
1682	1.6726e+02	-6.5129	-63.768578	0.000324	3.243178	0.549409	0.000065
1683	1.6736e+02	-6.4932	-63.683798	0.000426	4.256671	0.721100	0.000085
1684	1.6746e+02	-6.4742	-63.586906	0.000486	4.864767	0.824114	0.000097
1685	1.6756e+02	-6.4532	-63.510201	0.000385	3.851274	0.652423	0.000077
1686	1.6766e+02	-6.4340	-63.389087	0.000608	6.080959	1.030142	0.000122
1687	1.6776e+02	-6.4133	-63.381013	0.000041	0.405397	0.068676	0.000008
1688	1.6786e+02	-6.3937	-63.219527	0.000811	8.107945	1.373523	0.000162
1689	1.6796e+02	-6.3736	-63.175119	0.000223	2.229685	0.377719	0.000045
1690	1.6806e+02	-6.3544	-63.058042	0.000588	5.878260	0.995804	0.000118
1691	1.6816e+02	-6.3347	-62.989410	0.000345	3.445877	0.583747	0.000069
1692	1.6825e+02	-6.3145	-62.896556	0.000466	4.662068	0.789776	0.000093
1693	1.6835e+02	-6.2955	-62.807739	0.000446	4.459370	0.755438	0.000089
1694	1.6845e+02	-6.2744	-62.710848	0.000486	4.864767	0.824114	0.000097
1695	1.6855e+02	-6.2549	-62.670477	0.000203	2.026986	0.343381	0.000041
1696	1.6865e+02	-6.2354	-62.557437	0.000568	5.675561	0.961466	0.000114
1697	1.6875e+02	-6.2145	-62.496880	0.000304	3.040479	0.515071	0.000061
1698	1.6885e+02	-6.1943	-62.379803	0.000588	5.878260	0.995804	0.000118
1699	1.6895e+02	-6.1751	-62.278874	0.000507	5.067466	0.858452	0.000101
1700	1.6905e+02	-6.1549	-62.181983	0.000486	4.864767	0.824114	0.000097
1701	1.6915e+02	-6.1345	-62.121426	0.000304	3.040479	0.515071	0.000061
1702	1.6925e+02	-6.1150	-62.052795	0.000345	3.445877	0.583747	0.000069
1703	1.6935e+02	-6.0952	-61.972052	0.000405	4.053972	0.686762	0.000081
1704	1.6945e+02	-6.0764	-61.806530	0.000831	8.310644	1.407861	0.000166
1705	1.6955e+02	-6.0551	-61.782307	0.000122	1.216192	0.206028	0.000024
1706	1.6965e+02	-6.0356	-61.681378	0.000507	5.067466	0.858452	0.000101
1707	1.6975e+02	-6.0164	-61.592561	0.000446	4.459370	0.755438	0.000089
1708	1.6985e+02	-5.9950	-61.491633	0.000507	5.067466	0.858452	0.000101
1709	1.6995e+02	-5.9760	-61.402816	0.000446	4.459370	0.755438	0.000089
1710	1.7005e+02	-5.9560	-61.334185	0.000345	3.445877	0.583747	0.000069
1711	1.7015e+02	-5.9360	-61.200959	0.000669	6.689055	1.133157	0.000134
1712	1.7024e+02	-5.9155	-61.144439	0.000284	2.837781	0.480733	0.000057
1713	1.7034e+02	-5.8954	-61.023325	0.000608	6.080959	1.030142	0.000122
1714	1.7044e+02	-5.8762	-60.942583	0.000405	4.053972	0.686762	0.000081
1715	1.7054e+02	-5.8570	-60.817431	0.000628	6.283657	1.064480	0.000126
1716	1.7064e+02	-5.8362	-60.752837	0.000324	3.243178	0.549409	0.000065
1717	1.7074e+02	-5.8163	-60.643834	0.000547	5.472863	0.927128	0.000110
1718	1.7084e+02	-5.7968	-60.542906	0.000507	5.067466	0.858452	0.000101
1719	1.7094e+02	-5.7764	-60.470238	0.000365	3.648575	0.618085	0.000073
1720	1.7104e+02	-5.7563	-60.353161	0.000588	5.878260	0.995804	0.000118
1721	1.7114e+02	-5.7368	-60.280492	0.000365	3.648575	0.618085	0.000073
1722	1.7124e+02	-5.7175	-60.215898	0.000324	3.243178	0.549409	0.000065
1723	1.7134e+02	-5.6972	-60.123044	0.000466	4.662068	0.789776	0.000093
1724	1.7144e+02	-5.6772	-60.014041	0.000547	5.472863	0.927128	0.000110
1725	1.7154e+02	-5.6564	-59.933299	0.000405	4.053972	0.686762	0.000081
1726	1.7164e+02	-5.6372	-59.848519	0.000426	4.256671	0.721100	0.000085
1727	1.7174e+02	-5.6186	-59.739516	0.000547	5.472863	0.927128	0.000110
1728	1.7184e+02	-5.5967	-59.642625	0.000486	4.864767	0.824114	0.000097
1729	1.7194e+02	-5.5776	-59.590142	0.000264	2.635082	0.446395	0.000053
1730	1.7204e+02	-5.5576	-59.436731	0.000770	7.702548	1.304847	0.000154
1731	1.7213e+02	-5.5379	-59.416545	0.000101	1.013493	0.171690	0.000020
1732	1.7223e+02	-5.5174	-59.251023	0.000831	8.310644	1.407861	0.000166
1733	1.7233e+02	-5.4973	-59.210651	0.000203	2.026986	0.343381	0.000041
1734	1.7243e+02	-5.4780	-59.158169	0.000264	2.635082	0.446395	0.000053
1735	1.7253e+02	-5.4574	-59.028980	0.000649	6.486356	1.098818	0.000130
1736	1.7263e+02	-5.4390	-58.899792	0.000649	6.486356	1.098818	0.000130
1737	1.7273e+02	-5.4179	-58.815012	0.000426	4.256671	0.721100	0.000085
1738	1.7283e+02	-5.3989	-58.701972	0.000568	5.675561	0.961466	0.000114
1739	1.7293e+02	-5.3780	-58.617192	0.000426	4.256671	0.721100	0.000085
1740	1.7303e+02	-5.3584	-58.520301	0.000486	4.864767	0.824114	0.000097
1741	1.7313e+02	-5.3383	-58.451670	0.000345	3.445877	0.583747	0.000069
1742	1.7323e+02	-5.3188	-58.334593	0.000588	5.878260	0.995804	0.000118
1743	1.7333e+02	-5.2984	-58.237702	0.000486	4.864767	0.824114	0.000097
1744	1.7343e+02	-5.2788	-58.193293	0.000223	2.229685	0.377719	0.000045
1745	1.7353e+02	-5.2586	-58.084290	0.000547	5.472863	0.927128	0.000110
1746	1.7363e+02	-5.2380	-57.995473	0.000446	4.459370	0.755438	0.000089
1747	1.7373e+02	-5.2184	-57.890508	0.000527	5.270164	0.892790	0.000105
1748	1.7383e+02	-5.1994	-57.813802	0.000385	3.851274	0.652423	0.000077
1749	1.7393e+02	-5.1794	-57.704800	0.000547	5.472863	0.927128	0.000110
1750	1.7403e+02	-5.1585	-57.648280	0.000284	2.837781	0.480733	0.000057
1751	1.7413e+02	-5.1389	-57.523129	0.000628	6.283657	1.064480	0.000126
1752	1.7422e+02	-5.1192	-57.426237	0.000486	4.864767	0.824114	0.000097
1753	1.7432e+02	-5.0987	-57.349532	0.000385	3.851274	0.652423	0.000077
1754	1.7442e+02	-5.0789	-57.236492	0.000568	5.675561	0.961466	0.000114
1755	1.7452e+02	-5.0584	-57.155749	0.000405	4.053972	0.686762	0.000081
1756	1.7462e+02	-5.0392	-57.030598	0.000628	6.283657	1.064480	0.000126
1757	1.7472e+02	-5.0195	-56.925632	0.000527	5.270164	0.892790	0.000105
1758	1.7482e+02	-5.0003	-56.857001	0.000345	3.445877	0.583747	0.000069
1759	1.7492e+02	-4.9805	-56.792407	0.000324	3.243178	0.549409	0.000065
1760	1.7502e+02	-4.9603	-56.663219	0.000649	6.486356	1.098818	0.000130
1761	1.7512e+02	-4.9411	-56.598624	0.000324	3.243178	0.549409	0.000065
1762	1.7522e+02	-4.9200	-56.493659	0.000527	5.270164	0.892790	0.000105
1763	1.7532e+02	-4.9002	-56.380619	0.000568	5.675561	0.961466	0.000114
1764	1.7542e+02	-4.8807	-56.295839	0.000426	4.256671	0.721100	0.000085
1765	1.7552e+02	-4.8599	-56.182799	0.000568	5.675561	0.961466	0.000114
1766	1.7562e+02	-4.8399	-56.098020	0.000426	4.256671	0.721100	0.000085
1767	1.7572e+02	-4.8206	-56.005166	0.000466	4.662068	0.789776	0.000093
1768	1.7582e+02	-4.8019	-55.859829	0.000730	7.297150	1.236171	0.000146
1769	1.7592e+02	-4.7805	-55.799272	0.000304	3.040479	0.515071	0.000061
1770	1.7602e+02	-4.7614	-55.690269	0.000547	5.472863	0.927128	0.000110
1771	1.7612e+02	-4.7409	-55.613563	0.000385	3.851274	0.652423	0.000077
1772	1.7621e+02	-4.7214	-55.476301	0.000689	6.891753	1.167495	0.000138
1773	1.7631e+02	-4.7009	-55.403632	0.000365	3.648575	0.618085	0.000073
1774	1.7641e+02	-4.6812	-55.290593	0.000568	5.675561	0.961466	0.000114
1775	1.7651e+02	-4.6603	-55.161404	0.000649	6.486356	1.098818	0.000130
1776	1.7661e+02	-4.6414	-55.104884	0.000284	2.837781	0.480733	0.000057
1777	1.7671e+02	-4.6213	-55.024142	0.000405	4.053972	0.686762	0.000081
1778	1.7681e+02	-4.6013	-54.919176	0.000527	5.270164	0.892790	0.000105
1779	1.7691e+02	-4.5822	-54.777876	0.000709	7.094452	1.201833	0.000142
1780	1.7701e+02	-4.5617	-54.701171	0.000385	3.851274	0.652423	0.000077
1781	1.7711e+02	-4.5421	-54.596205	0.000527	5.270164	0.892790	0.000105
1782	1.7721e+02	-4.5212	-54.475091	0.000608	6.080959	1.030142	0.000122
1783	1.7731e+02	-4.5013	-54.414534	0.000304	3.040479	0.515071	0.000061
1784	1.7741e+02	-4.4806	-54.281309	0.000669	6.689055	1.133157	0.000134
1785	1.7751e+02	-4.4617	-54.180380	0.000507	5.067466	0.858452	0.000101
1786	1.7761e+02	-4.4408	-54.103675	0.000385	3.851274	0.652423	0.000077
1787	1.7771e+02	-4.4218	-53.974486	0.000649	6.486356	1.098818	0.000130
1788	1.7781e+02	-4.4026	-53.865484	0.000547	5.472863	0.927128	0.000110
1789	1.7791e+02	-4.3820	-53.772629	0.000466	4.662068	0.789776	0.000093
1790	1.7801e+02	-4.3621	-53.679775	0.000466	4.662068	0.789776	0.000093
1791	1.7810e+02	-4.3425	-53.582884	0.000486	4.864767	0.824114	0.000097
1792	1.7820e+02	-4.3231	-53.441584	0.000709	7.094452	1.201833	0.000142
1793	1.7830e+02	-4.3015	-53.364879	0.000385	3.851274	0.652423	0.000077
1794	1.7840e+02	-4.2828	-53.259913	0.000527	5.270164	0.892790	0.000105
1795	1.7850e+02	-4.2626	-53.203393	0.000284	2.837781	0.480733	0.000057
1796	1.7860e+02	-4.2428	-53.045945	0.000791	7.905246	1.339185	0.000158
1797	1.7870e+02	-4.2220	-52.892534	0.000770	7.702548	1.304847	0.000154
1798	1.7880e+02	-4.2026	-52.860237	0.000162	1.621589	0.274705	0.000032
1799	1.7890e+02	-4.1823	-52.727011	0.000669	6.689055	1.133157	0.000134
1800	1.7900e+02	-4.1626	-52.638194	0.000446	4.459370	0.755438	0.000089
1801	1.7910e+02	-4.1422	-52.513043	0.000628	6.283657	1.064480	0.000126
1802	1.7920e+02	-4.1229	-52.436338	0.000385	3.851274	0.652423	0.000077
1803	1.7930e+02	-4.1031	-52.339446	0.000486	4.864767	0.824114	0.000097
1804	1.7940e+02	-4.0829	-52.226406	0.000568	5.675561	0.961466	0.000114
1805	1.7950e+02	-4.0631	-52.117404	0.000547	5.472863	0.927128	0.000110
1806	1.7960e+02	-4.0427	-51.984178	0.000669	6.689055	1.133157	0.000134
1807	1.7970e+02	-4.0228	-51.927658	0.000284	2.837781	0.480733	0.000057
1808	1.7980e+02	-4.0041	-51.786359	0.000709	7.094452	1.201833	0.000142
1809	1.7990e+02	-3.9842	-51.685430	0.000507	5.067466	0.858452	0.000101
1810	1.8000e+02	-3.9636	-51.560279	0.000628	6.283657	1.064480	0.000126
1811	1.8009e+02	-3.9434	-51.459351	0.000507	5.067466	0.858452	0.000101
1812	1.8019e+02	-3.9243	-51.378608	0.000405	4.053972	0.686762	0.000081
1813	1.8029e+02	-3.9047	-51.241345	0.000689	6.891753	1.167495	0.000138
1814	1.8039e+02	-3.8837	-51.152528	0.000446	4.459370	0.755438	0.000089
1815	1.8049e+02	-3.8632	-51.079860	0.000365	3.648575	0.618085	0.000073
1816	1.8059e+02	-3.8434	-50.910300	0.000851	8.513342	1.442199	0.000170
1817	1.8069e+02	-3.8249	-50.793223	0.000588	5.878260	0.995804	0.000118
1818	1.8079e+02	-3.8039	-50.708443	0.000426	4.256671	0.721100	0.000085
1819	1.8089e+02	-3.7833	-50.591367	0.000588	5.878260	0.995804	0.000118
1820	1.8099e+02	-3.7645	-50.506587	0.000426	4.256671	0.721100	0.000085
1821	1.8109e+02	-3.7439	-50.377398	0.000649	6.486356	1.098818	0.000130
1822	1.8119e+02	-3.7244	-50.268396	0.000547	5.472863	0.927128	0.000110
1823	1.8129e+02	-3.7053	-50.167467	0.000507	5.067466	0.858452	0.000101
1824	1.8139e+02	-3.6859	-50.014056	0.000770	7.702548	1.304847	0.000154
1825	1.8149e+02	-3.6642	-49.925239	0.000446	4.459370	0.755438	0.000089
1826	1.8159e+02	-3.6450	-49.868719	0.000284	2.837781	0.480733	0.000057
1827	1.8169e+02	-3.6258	-49.699160	0.000851	8.513342	1.442199	0.000170
1828	1.8179e+02	-3.6055	-49.569971	0.000649	6.486356	1.098818	0.000130
1829	1.8189e+02	-3.5843	-49.465006	0.000527	5.270164	0.892790	0.000105
1830	1.8199e+02	-3.5652	-49.368114	0.000486	4.864767	0.824114	0.000097
1831	1.8209e+02	-3.5458	-49.315632	0.000264	2.635082	0.446395	0.000053
1832	1.8218e+02	-3.5262	-49.142035	0.000872	8.716041	1.476537	0.000174
1833	1.8228e+02	-3.5049	-49.037069	0.000527	5.270164	0.892790	0.000105
1834	1.8238e+02	-3.4854	-48.952289	0.000426	4.256671	0.721100	0.000085
1835	1.8248e+02	-3.4657	-48.794841	0.000791	7.905246	1.339185	0.000158
1836	1.8258e+02	-3.4457	-48.657578	0.000689	6.891753	1.167495	0.000138
1837	1.8268e+02	-3.4264	-48.556650	0.000507	5.067466	0.858452	0.000101
1838	1.8278e+02	-3.4053	-48.467833	0.000446	4.459370	0.755438	0.000089
1839	1.8288e+02	-3.3859	-48.334608	0.000669	6.689055	1.133157	0.000134
1840	1.8298e+02	-3.3655	-48.221568	0.000568	5.675561	0.961466	0.000114
1841	1.8308e+02	-3.3468	-48.108528	0.000568	5.675561	0.961466	0.000114
1842	1.8318e+02	-3.3264	-47.983377	0.000628	6.283657	1.064480	0.000126
1843	1.8328e+02	-3.3061	-47.874374	0.000547	5.472863	0.927128	0.000110
1844	1.8338e+02	-3.2857	-47.741149	0.000669	6.689055	1.133157	0.000134
1845	1.8348e+02	-3.2665	-47.656369	0.000426	4.256671	0.721100	0.000085
1846	1.8358e+02	-3.2465	-47.527180	0.000649	6.486356	1.098818	0.000130
1847	1.8368e+02	-3.2274	-47.393955	0.000669	6.689055	1.133157	0.000134
1848	1.8378e+02	-3.2066	-47.280915	0.000568	5.675561	0.961466	0.000114
1849	1.8388e+02	-3.1863	-47.184024	0.000486	4.864767	0.824114	0.000097
1850	1.8398e+02	-3.1665	-47.022539	0.000811	8.107945	1.373523	0.000162
1851	1.8407e+02	-3.1479	-46.897387	0.000628	6.283657	1.064480	0.000126
1852	1.8417e+02	-3.1271	-46.828756	0.000345	3.445877	0.583747	0.000069
1853	1.8427e+02	-3.1070	-46.707642	0.000608	6.080959	1.030142	0.000122
1854	1.8437e+02	-3.0876	-46.622862	0.000426	4.256671	0.721100	0.000085
1855	1.8447e+02	-3.0679	-46.489637	0.000669	6.689055	1.133157	0.000134
1856	1.8457e+02	-3.0473	-46.344300	0.000730	7.297150	1.236171	0.000146
1857	1.8467e+02	-3.0267	-46.219148	0.000628	6.283657	1.064480	0.000126
1858	1.8477e+02	-3.0067	-46.126294	0.000466	4.662068	0.789776	0.000093
1859	1.8487e+02	-2.9875	-46.025366	0.000507	5.067466	0.858452	0.000101
1860	1.8497e+02	-2.9680	-45.900215	0.000628	6.283657	1.064480	0.000126
1861	1.8507e+02	-2.9472	-45.779101	0.000608	6.080959	1.030142	0.000122
1862	1.8517e+02	-2.9277	-45.694321	0.000426	4.256671	0.721100	0.000085
1863	1.8527e+02	-2.9074	-45.544947	0.000750	7.499849	1.270509	0.000150
1864	1.8537e+02	-2.8876	-45.419796	0.000628	6.283657	1.064480	0.000126
1865	1.8547e+02	-2.8673	-45.330979	0.000446	4.459370	0.755438	0.000089
1866	1.8557e+02	-2.8482	-45.181605	0.000750	7.499849	1.270509	0.000150
1867	1.8567e+02	-2.8275	-45.092788	0.000446	4.459370	0.755438	0.000089
1868	1.8577e+02	-2.8088	-44.991859	0.000507	5.067466	0.858452	0.000101
1869	1.8587e+02	-2.7880	-44.846522	0.000730	7.297150	1.236171	0.000146
1870	1.8597e+02	-2.7692	-44.733483	0.000568	5.675561	0.961466	0.000114
1871	1.8606e+02	-2.7477	-44.616406	0.000588	5.878260	0.995804	0.000118
1872	1.8616e+02	-2.7284	-44.467032	0.000750	7.499849	1.270509	0.000150
1873	1.8626e+02	-2.7081	-44.353992	0.000568	5.675561	0.961466	0.000114
1874	1.8636e+02	-2.6886	-44.273249	0.000405	4.053972	0.686762	0.000081
1875	1.8646e+02	-2.6688	-44.091578	0.000912	9.121438	1.545213	0.000183
1876	1.8656e+02	-2.6492	-43.994687	0.000486	4.864767	0.824114	0.000097
1877	1.8666e+02	-2.6289	-43.865498	0.000649	6.486356	1.098818	0.000130
1878	1.8676e+02	-2.6086	-43.760533	0.000527	5.270164	0.892790	0.000105
1879	1.8686e+02	-2.5886	-43.655567	0.000527	5.270164	0.892790	0.000105
1880	1.8696e+02	-2.5691	-43.522342	0.000669	6.689055	1.133157	0.000134
1881	1.8706e+02	-2.5481	-43.425451	0.000486	4.864767	0.824114	0.000097
1882	1.8716e+02	-2.5292	-43.288188	0.000689	6.891753	1.167495	0.000138
1883	1.8726e+02	-2.5097	-43.150925	0.000689	6.891753	1.167495	0.000138
1884	1.8736e+02	-2.4908	-43.078257	0.000365	3.648575	0.618085	0.000073
1885	1.8746e+02	-2.4696	-42.936957	0.000709	7.094452	1.201833	0.000142
1886	1.8756e+02	-2.4498	-42.787583	0.000750	7.499849	1.270509	0.000150
1887	1.8766e+02	-2.4298	-42.678580	0.000547	5.472863	0.927128	0.000110
1888	1.8776e+02	-2.4099	-42.573615	0.000527	5.270164	0.892790	0.000105
1889	1.8786e+02	-2.3901	-42.452501	0.000608	6.080959	1.030142	0.000122
1890	1.8796e+02	-2.3700	-42.315238	0.000689	6.891753	1.167495	0.000138
1891	1.8806e+02	-2.3503	-42.177976	0.000689	6.891753	1.167495	0.000138
1892	1.8815e+02	-2.3308	-42.068973	0.000547	5.472863	0.927128	0.000110
1893	1.8825e+02	-2.3099	-41.984193	0.000426	4.256671	0.721100	0.000085
1894	1.8835e+02	-2.2908	-41.822708	0.000811	8.107945	1.373523	0.000162
1895	1.8845e+02	-2.2705	-41.685445	0.000689	6.891753	1.167495	0.000138
1896	1.8855e+02	-2.2511	-41.580480	0.000527	5.270164	0.892790	0.000105
1897	1.8865e+02	-2.2299	-41.467440	0.000568	5.675561	0.961466	0.000114
1898	1.8875e+02	-2.2109	-41.350363	0.000588	5.878260	0.995804	0.000118
1899	1.8885e+02	-2.1914	-41.245397	0.000527	5.270164	0.892790	0.000105
1900	1.8895e+02	-2.1707	-41.100060	0.000730	7.297150	1.236171	0.000146
1901	1.8905e+02	-2.1514	-41.007206	0.000466	4.662068	0.789776	0.000093
1902	1.8915e+02	-2.1318	-40.886092	0.000608	6.080959	1.030142	0.000122
1903	1.8925e+02	-2.1115	-40.740755	0.000730	7.297150	1.236171	0.000146
1904	1.8935e+02	-2.0906	-40.672124	0.000345	3.445877	0.583747	0.000069
1905	1.8945e+02	-2.0707	-40.530824	0.000709	7.094452	1.201833	0.000142
1906	1.8955e+02	-2.0507	-40.397599	0.000669	6.689055	1.133157	0.000134
1907	1.8965e+02	-2.0309	-40.300708	0.000486	4.864767	0.824114	0.000097
1908	1.8975e+02	-2.0108	-40.143259	0.000791	7.905246	1.339185	0.000158
1909	1.8985e+02	-1.9914	-40.034257	0.000547	5.472863	0.927128	0.000110
1910	1.8995e+02	-1.9714	-39.937365	0.000486	4.864767	0.824114	0.000097
1911	1.9004e+02	-1.9518	-39.787991	0.000750	7.499849	1.270509	0.000150
1912	1.9014e+02	-1.9317	-39.642654	0.000730	7.297150	1.236171	0.000146
1913	1.9024e+02	-1.9116	-39.565949	0.000385	3.851274	0.652423	0.000077
1914	1.9034e+02	-1.8919	-39.452909	0.000568	5.675561	0.961466	0.000114
1915	1.9044e+02	-1.8721	-39.275275	0.000892	8.918739	1.510875	0.000179
1916	1.9054e+02	-1.8526	-39.186458	0.000446	4.459370	0.755438	0.000089
1917	1.9064e+02	-1.8322	-39.085530	0.000507	5.067466	0.858452	0.000101
1918	1.9074e+02	-1.8124	-38.936156	0.000750	7.499849	1.270509	0.000150
1919	1.9084e+02	-1.7918	-38.823116	0.000568	5.675561	0.961466	0.000114
1920	1.9094e+02	-1.7723	-38.710076	0.000568	5.675561	0.961466	0.000114
1921	1.9104e+02	-1.7525	-38.580888	0.000649	6.486356	1.098818	0.000130
1922	1.9114e+02	-1.7328	-38.475922	0.000527	5.270164	0.892790	0.000105
1923	1.9124e+02	-1.7133	-38.326548	0.000750	7.499849	1.270509	0.000150
1924	1.9134e+02	-1.6931	-38.237731	0.000446	4.459370	0.755438	0.000089
1925	1.9144e+02	-1.6727	-38.104506	0.000669	6.689055	1.133157	0.000134
1926	1.9154e+02	-1.6521	-37.955132	0.000750	7.499849	1.270509	0.000150
1927	1.9164e+02	-1.6322	-37.866315	0.000446	4.459370	0.755438	0.000089
1928	1.9174e+02	-1.6130	-37.805758	0.000304	3.040479	0.515071	0.000061
1929	1.9184e+02	-1.5935	-37.620049	0.000932	9.324137	1.579552	0.000187
1930	1.9194e+02	-1.5735	-37.498935	0.000608	6.080959	1.030142	0.000122
1931	1.9203e+02	-1.5538	-37.393970	0.000527	5.270164	0.892790	0.000105
1932	1.9213e+02	-1.5327	-37.256707	0.000689	6.891753	1.167495	0.000138
1933	1.9223e+02	-1.5132	-37.119445	0.000689	6.891753	1.167495	0.000138
1934	1.9233e+02	-1.4930	-36.998330	0.000608	6.080959	1.030142	0.000122
1935	1.9243e+02	-1.4739	-36.857031	0.000709	7.094452	1.201833	0.000142
1936	1.9253e+02	-1.4537	-36.780325	0.000385	3.851274	0.652423	0.000077
1937	1.9263e+02	-1.4336	-36.610765	0.000851	8.513342	1.442199	0.000170
1938	1.9273e+02	-1.4130	-36.509837	0.000507	5.067466	0.858452	0.000101
1939	1.9283e+02	-1.3934	-36.380649	0.000649	6.486356	1.098818	0.000130
1940	1.9293e+02	-1.3725	-36.279720	0.000507	5.067466	0.858452	0.000101
1941	1.9303e+02	-1.3544	-36.098049	0.000912	9.121438	1.545213	0.000183
1942	1.9313e+02	-1.3350	-36.001158	0.000486	4.864767	0.824114	0.000097
1943	1.9323e+02	-1.3135	-35.884081	0.000588	5.878260	0.995804	0.000118
1944	1.9333e+02	-1.2952	-35.746818	0.000689	6.891753	1.167495	0.000138
1945	1.9343e+02	-1.2744	-35.637816	0.000547	5.472863	0.927128	0.000110
1946	1.9353e+02	-1.2550	-35.500553	0.000689	6.891753	1.167495	0.000138
1947	1.9363e+02	-1.2350	-35.379439	0.000608	6.080959	1.030142	0.000122
1948	1.9373e+02	-1.2155	-35.278511	0.000507	5.067466	0.858452	0.000101
1949	1.9383e+02	-1.1948	-35.141248	0.000689	6.891753	1.167495	0.000138
1950	1.9393e+02	-1.1752	-35.036283	0.000527	5.270164	0.892790	0.000105
1951	1.9403e+02	-1.1554	-34.874797	0.000811	8.107945	1.373523	0.000162
1952	1.9412e+02	-1.1360	-34.733497	0.000709	7.094452	1.201833	0.000142
1953	1.9422e+02	-1.1143	-34.664866	0.000345	3.445877	0.583747	0.000069
1954	1.9432e+02	-1.0954	-34.491269	0.000872	8.716041	1.476537	0.000174
1955	1.9442e+02	-1.0754	-34.414564	0.000385	3.851274	0.652423	0.000077
1956	1.9452e+02	-1.0557	-34.245004	0.000851	8.513342	1.442199	0.000170
1957	1.9462e+02	-1.0345	-34.160224	0.000426	4.256671	0.721100	0.000085
1958	1.9472e+02	-1.0156	-34.018924	0.000709	7.094452	1.201833	0.000142
1959	1.9482e+02	-0.9952	-33.889736	0.000649	6.486356	1.098818	0.000130
1960	1.9492e+02	-0.9760	-33.732288	0.000791	7.905246	1.339185	0.000158
1961	1.9502e+02	-0.9557	-33.627322	0.000527	5.270164	0.892790	0.000105
1962	1.9512e+02	-0.9350	-33.498134	0.000649	6.486356	1.098818	0.000130
1963	1.9522e+02	-0.9155	-33.385094	0.000568	5.675561	0.961466	0.000114
1964	1.9532e+02	-0.8955	-33.251869	0.000669	6.689055	1.133157	0.000134
1965	1.9542e+02	-0.8752	-33.122680	0.000649	6.486356	1.098818	0.000130
1966	1.9552e+02	-0.8550	-32.973306	0.000750	7.499849	1.270509	0.000150
1967	1.9562e+02	-0.8359	-32.872378	0.000507	5.067466	0.858452	0.000101
1968	1.9572e+02	-0.8164	-32.731078	0.000709	7.094452	1.201833	0.000142
1969	1.9582e+02	-0.7968	-32.609964	0.000608	6.080959	1.030142	0.000122
1970	1.9592e+02	-0.7763	-32.492887	0.000588	5.878260	0.995804	0.000118
1971	1.9601e+02	-0.7563	-32.347550	0.000730	7.297150	1.236171	0.000146
1972	1.9611e+02	-0.7359	-32.202213	0.000730	7.297150	1.236171	0.000146
1973	1.9621e+02	-0.7169	-32.097248	0.000527	5.270164	0.892790	0.000105
1974	1.9631e+02	-0.6971	-31.968059	0.000649	6.486356	1.098818	0.000130
1975	1.9641e+02	-0.6760	-31.887317	0.000405	4.053972	0.686762	0.000081
1976	1.9651e+02	-0.6567	-31.717757	0.000851	8.513342	1.442199	0.000170
1977	1.9661e+02	-0.6366	-31.584531	0.000669	6.689055	1.133157	0.000134
1978	1.9671e+02	-0.6166	-31.455343	0.000649	6.486356	1.098818	0.000130
1979	1.9681e+02	-0.5962	-31.326155	0.000649	6.486356	1.098818	0.000130
1980	1.9691e+02	-0.5776	-31.192929	0.000669	6.689055	1.133157	0.000134
1981	1.9701e+02	-0.5575	-31.071815	0.000608	6.080959	1.030142	0.000122
1982	1.9711e+02	-0.5365	-30.938590	0.000669	6.689055	1.133157	0.000134
1983	1.9721e+02	-0.5176	-30.789216	0.000750	7.499849	1.270509	0.000150
1984	1.9731e+02	-0.4980	-30.655990	0.000669	6.689055	1.133157	0.000134
1985	1.9741e+02	-0.4768	-30.530839	0.000628	6.283657	1.064480	0.000126
1986	1.9751e+02	-0.4578	-30.409725	0.000608	6.080959	1.030142	0.000122
1987	1.9761e+02	-0.4376	-30.280537	0.000649	6.486356	1.098818	0.000130
1988	1.9771e+02	-0.4181	-30.106940	0.000872	8.716041	1.476537	0.000174
1989	1.9781e+02	-0.3969	-30.050420	0.000284	2.837781	0.480733	0.000057
1990	1.9791e+02	-0.3786	-29.888934	0.000811	8.107945	1.373523	0.000162
1991	1.9800e+02	-0.3571	-29.719375	0.000851	8.513342	1.442199	0.000170
1992	1.9810e+02	-0.3381	-29.638632	0.000405	4.053972	0.686762	0.000081
1993	1.9820e+02	-0.3176	-29.456961	0.000912	9.121438	1.545213	0.000183
1994	1.9830e+02	-0.2975	-29.323735	0.000669	6.689055	1.133157	0.000134
1995	1.9840e+02	-0.2782	-29.226844	0.000486	4.864767	0.824114	0.000097
1996	1.9850e+02	-0.2583	-29.101693	0.000628	6.283657	1.064480	0.000126
1997	1.9860e+02	-0.2393	-28.968467	0.000669	6.689055	1.133157	0.000134
1998	1.9870e+02	-0.2187	-28.827168	0.000709	7.094452	1.201833	0.000142
1999	1.9880e+02	-0.1987	-28.689905	0.000689	6.891753	1.167495	0.000138
2000	1.9890e+02	-0.1783	-28.528420	0.000811	8.107945	1.373523	0.000162
2001	1.9900e+02	-0.1583	-28.387120	0.000709	7.094452	1.201833	0.000142
2002	1.9910e+02	-0.1383	-28.278117	0.000547	5.472863	0.927128	0.000110
2003	1.9920e+02	-0.1188	-28.140855	0.000689	6.891753	1.167495	0.000138
2004	1.9930e+02	-0.0994	-27.991481	0.000750	7.499849	1.270509	0.000150
2005	1.9940e+02	-0.0797	-27.902664	0.000446	4.459370	0.755438	0.000089
2006	1.9950e+02	-0.0595	-27.761364	0.000709	7.094452	1.201833	0.000142
2007	1.9960e+02	-0.0385	-27.624101	0.000689	6.891753	1.167495	0.000138
2008	1.9970e+02	-0.0192	-27.454542	0.000851	8.513342	1.442199	0.000170
2009	1.9980e+02	-0.0002	-27.357650	0.000851	8.513342	1.442199	0.000097

Smooth data before PMax, +/-Pr and +/-Vc Calc.

PMax (uC/cm2):	5.47e+01
Pr (uC/cm2):	4.53e+00
-Pr (uC/cm2):	-4.35e+01
PLoss (uC/cm2):	-4.36e+01
-Vc:	-6.89e-01
C (Max-Eff) (nF):	5.47e-01
K (Eff):	9.27e+02
Vert. (+/-Pr) Shift (uC/cm2):	-1.95e+01
Offset (uC/cm2):	-1.61e+01

A (Loop Area - uC/cm2·Volts):	-1.58e-01



Hysteresis Version: 5.48.1 - Radiant Technologies, Inc., 1999 - 9/12/24

