»»»»»»»»»»»»»»»»»»»»»»»»»»»»»»»»»»»» Hysteresis ««««««««««««««««««««««««««««««««««««
»»»  Executed Version:	5.48.1
»»»  Vision Version:	5.48.4 (R)
»»»  Vision Compiled:	9/18/24
»»»  Driver Version:	5.47.0
»»»  Windows Version:	Windows 8 or 8.1
»»»  Processor Information:	x86 (AMD or Intel) - 32 Processors
»»»  Tester Name:	PMF21124-494 (100V)
»»»  Tester S/N:	PMF21124-494
»»»  Internal Amp Type:	100V RevK 270k
»»»  Internal Amp S/N:	iAB2-596/K     
»»»  Execution Count:	1
»»»»»»»»»»»»»»»»»»»»»»»»»»»»»»»»»»»»»»»»»»««««««««««««««««««««««««««««««««««««««««««

Stored:	7/8/2025 - 16:30:35
Configured:	07/08/25 02:50:47 PM
Executed:	07/08/25 04:30:05 PM

»»»»»»»»»»»»»»»»»»»»»»»»»»»»»»»»»»» Sample Info ««««««««««««««««««««««««««««««««««««
Sample Name:	
Lot Name:	
Wafer Name:	
Die Row/Column:	0/0
Capacitor Number:	0
Sample Area (cm2):	1.00e-04
Sample Thickness (microns):	1.50e-01

Amplifier:	Internal

»»»»»»»»»»»»»»»»»»»»»»»»»»»»»»»»»»» Tester Info «««««««««««««««««««««««««««««««««««
Tester Name:	PMF21124-494 (100V)
Tester Serial Number:	PMF21124-494
Return Signal Amp. Level:	0.19 [Index: 3]

»»»»»»»»»»»»»»»»»»»»»»»»»»»»»»»» Hysteresis Info ««««««««««««««««««««««««««««««««««
Task Name:	Hyst-724
Volts:	10.00
Field:	666.67 (kV/cm)
DCBias:	0.00
DCField:	0.00 (kV/cm)
Hysteresis Period (ms):	2.00e+02
Preset:	Enabled
Preset Delay (ms):	1.00e+03
Profile:	Standard Bipolar

»»»»»»»»»»»»»»»»»»»»»»»»»»»»»»»»»»»»»» Data «««««««««««««««««««««««««««««««««««««««
Points:	2009

Valid Data

Point	Time (ms)	Drive Voltage	Measured Polarization (uC/cm2)	Capacitance (uF)	Normalized Capacitance (uF/cm2)	Dielectric Constant	Instantaneous Current (mA)
   1	0.0000e+00	-0.0008	8.635433	0.000912	9.120620	1.545075	0.000183
   2	9.9500e-02	0.0192	8.817104	0.000912	9.120620	1.545075	0.000183
   3	1.9900e-01	0.0388	8.926107	0.000547	5.472372	0.927045	0.000110
   4	2.9850e-01	0.0590	9.087593	0.000811	8.107218	1.373400	0.000162
   5	3.9800e-01	0.0793	9.212744	0.000628	6.283094	1.064385	0.000126
   6	4.9750e-01	0.0988	9.337895	0.000628	6.283094	1.064385	0.000126
   7	5.9700e-01	0.1172	9.519566	0.000912	9.120620	1.545075	0.000183
   8	6.9650e-01	0.1389	9.652792	0.000669	6.688455	1.133055	0.000134
   9	7.9600e-01	0.1594	9.765831	0.000568	5.675053	0.961380	0.000114
  10	8.9550e-01	0.1780	9.907131	0.000709	7.093816	1.201725	0.000142
  11	9.9500e-01	0.1985	10.096876	0.000953	9.525981	1.613745	0.000191
  12	1.0945e+00	0.2187	10.197805	0.000507	5.067011	0.858375	0.000101
  13	1.1940e+00	0.2394	10.399662	0.001013	10.134023	1.716750	0.000203
  14	1.2935e+00	0.2591	10.536924	0.000689	6.891135	1.167390	0.000138
  15	1.3930e+00	0.2784	10.658038	0.000608	6.080414	1.030050	0.000122
  16	1.4925e+00	0.2985	10.823561	0.000831	8.309898	1.407735	0.000166
  17	1.5920e+00	0.3188	10.956786	0.000669	6.688455	1.133055	0.000134
  18	1.6915e+00	0.3382	11.110198	0.000770	7.701857	1.304730	0.000154
  19	1.7910e+00	0.3571	11.283794	0.000872	8.715259	1.476405	0.000174
  20	1.8905e+00	0.3780	11.408946	0.000628	6.283094	1.064385	0.000126
  21	1.9900e+00	0.3980	11.574468	0.000831	8.309898	1.407735	0.000166
  22	2.0895e+00	0.4169	11.731916	0.000790	7.904538	1.339065	0.000158
  23	2.1890e+00	0.4377	11.905513	0.000872	8.715259	1.476405	0.000174
  24	2.2885e+00	0.4578	12.010479	0.000527	5.269692	0.892710	0.000105
  25	2.3880e+00	0.4776	12.151779	0.000709	7.093816	1.201725	0.000142
  26	2.4875e+00	0.4975	12.305190	0.000770	7.701857	1.304730	0.000154
  27	2.5870e+00	0.5173	12.474749	0.000851	8.512579	1.442070	0.000170
  28	2.6865e+00	0.5370	12.628161	0.000770	7.701857	1.304730	0.000154
  29	2.7860e+00	0.5579	12.757349	0.000649	6.485774	1.098720	0.000130
  30	2.8855e+00	0.5774	12.951131	0.000973	9.728662	1.648080	0.000195
  31	2.9850e+00	0.5977	13.084357	0.000669	6.688455	1.133055	0.000134
  32	3.0845e+00	0.6178	13.213545	0.000649	6.485774	1.098720	0.000130
  33	3.1840e+00	0.6384	13.383105	0.000851	8.512579	1.442070	0.000170
  34	3.2835e+00	0.6564	13.520368	0.000689	6.891135	1.167390	0.000138
  35	3.3830e+00	0.6762	13.706076	0.000932	9.323301	1.579410	0.000187
  36	3.4825e+00	0.6970	13.839301	0.000669	6.688455	1.133055	0.000134
  37	3.5820e+00	0.7173	13.984638	0.000730	7.296496	1.236060	0.000146
  38	3.6815e+00	0.7367	14.093641	0.000547	5.472372	0.927045	0.000110
  39	3.7810e+00	0.7562	14.255126	0.000811	8.107218	1.373400	0.000162
  40	3.8805e+00	0.7761	14.444872	0.000953	9.525981	1.613745	0.000191
  41	3.9800e+00	0.7967	14.561949	0.000588	5.877733	0.995715	0.000118
  42	4.0795e+00	0.8159	14.735545	0.000872	8.715259	1.476405	0.000174
  43	4.1790e+00	0.8361	14.872808	0.000689	6.891135	1.167390	0.000138
  44	4.2785e+00	0.8563	15.066591	0.000973	9.728662	1.648080	0.000195
  45	4.3780e+00	0.8768	15.224039	0.000790	7.904538	1.339065	0.000158
  46	4.4775e+00	0.8958	15.349190	0.000628	6.283094	1.064385	0.000126
  47	4.5770e+00	0.9155	15.490490	0.000709	7.093816	1.201725	0.000142
  48	4.6765e+00	0.9355	15.668124	0.000892	8.917940	1.510740	0.000179
  49	4.7760e+00	0.9563	15.845758	0.000892	8.917940	1.510740	0.000179
  50	4.8755e+00	0.9760	15.983020	0.000689	6.891135	1.167390	0.000138
  51	4.9750e+00	0.9960	16.116246	0.000669	6.688455	1.133055	0.000134
  52	5.0745e+00	1.0159	16.285806	0.000851	8.512579	1.442070	0.000170
  53	5.1740e+00	1.0354	16.455365	0.000851	8.512579	1.442070	0.000170
  54	5.2735e+00	1.0559	16.616851	0.000811	8.107218	1.373400	0.000162
  55	5.3730e+00	1.0753	16.782373	0.000831	8.309898	1.407735	0.000166
  56	5.4725e+00	1.0958	16.943859	0.000811	8.107218	1.373400	0.000162
  57	5.5720e+00	1.1158	17.064973	0.000608	6.080414	1.030050	0.000122
  58	5.6715e+00	1.1358	17.242607	0.000892	8.917940	1.510740	0.000179
  59	5.7710e+00	1.1557	17.375832	0.000669	6.688455	1.133055	0.000134
  60	5.8705e+00	1.1742	17.545392	0.000851	8.512579	1.442070	0.000170
  61	5.9700e+00	1.1945	17.662469	0.000588	5.877733	0.995715	0.000118
  62	6.0695e+00	1.2154	17.860289	0.000993	9.931342	1.682415	0.000199
  63	6.1690e+00	1.2336	17.965254	0.000527	5.269692	0.892710	0.000105
  64	6.2685e+00	1.2553	18.179222	0.001074	10.742064	1.819755	0.000215
  65	6.3680e+00	1.2740	18.332633	0.000770	7.701857	1.304730	0.000154
  66	6.4675e+00	1.2945	18.490082	0.000790	7.904538	1.339065	0.000158
  67	6.5670e+00	1.3132	18.639456	0.000750	7.499177	1.270395	0.000150
  68	6.6665e+00	1.3342	18.788830	0.000750	7.499177	1.270395	0.000150
  69	6.7660e+00	1.3542	18.974538	0.000932	9.323301	1.579410	0.000187
  70	6.8655e+00	1.3734	19.148135	0.000872	8.715259	1.476405	0.000174
  71	6.9650e+00	1.3931	19.236952	0.000446	4.458970	0.755370	0.000089
  72	7.0645e+00	1.4133	19.410549	0.000872	8.715259	1.476405	0.000174
  73	7.1640e+00	1.4337	19.584145	0.000872	8.715259	1.476405	0.000174
  74	7.2635e+00	1.4528	19.757742	0.000872	8.715259	1.476405	0.000174
  75	7.3630e+00	1.4728	19.911153	0.000770	7.701857	1.304730	0.000154
  76	7.4625e+00	1.4931	20.076676	0.000831	8.309898	1.407735	0.000166
  77	7.5620e+00	1.5131	20.189716	0.000568	5.675053	0.961380	0.000114
  78	7.6615e+00	1.5331	20.395610	0.001034	10.336703	1.751085	0.000207
  79	7.7610e+00	1.5530	20.524798	0.000649	6.485774	1.098720	0.000130
  80	7.8605e+00	1.5728	20.714543	0.000953	9.525981	1.613745	0.000191
  81	7.9600e+00	1.5932	20.896215	0.000912	9.120620	1.545075	0.000183
  82	8.0595e+00	1.6122	21.001180	0.000527	5.269692	0.892710	0.000105
  83	8.1590e+00	1.6330	21.130368	0.000649	6.485774	1.098720	0.000130
  84	8.2585e+00	1.6525	21.316077	0.000932	9.323301	1.579410	0.000187
  85	8.3580e+00	1.6727	21.517933	0.001013	10.134023	1.716750	0.000203
  86	8.4575e+00	1.6929	21.618862	0.000507	5.067011	0.858375	0.000101
  87	8.5570e+00	1.7128	21.756124	0.000689	6.891135	1.167390	0.000138
  88	8.6565e+00	1.7323	21.974130	0.001094	10.944744	1.854090	0.000219
  89	8.7560e+00	1.7521	22.095244	0.000608	6.080414	1.030050	0.000122
  90	8.8555e+00	1.7725	22.244618	0.000750	7.499177	1.270395	0.000150
  91	8.9550e+00	1.7920	22.418215	0.000872	8.715259	1.476405	0.000174
  92	9.0545e+00	1.8122	22.563552	0.000730	7.296496	1.236060	0.000146
  93	9.1540e+00	1.8321	22.708889	0.000730	7.296496	1.236060	0.000146
  94	9.2535e+00	1.8518	22.898634	0.000953	9.525981	1.613745	0.000191
  95	9.3530e+00	1.8726	23.048008	0.000750	7.499177	1.270395	0.000150
  96	9.4525e+00	1.8916	23.213530	0.000831	8.309898	1.407735	0.000166
  97	9.5520e+00	1.9113	23.366942	0.000770	7.701857	1.304730	0.000154
  98	9.6515e+00	1.9311	23.540538	0.000872	8.715259	1.476405	0.000174
  99	9.7510e+00	1.9508	23.673764	0.000669	6.688455	1.133055	0.000134
 100	9.8505e+00	1.9714	23.835249	0.000811	8.107218	1.373400	0.000162
 101	9.9500e+00	1.9910	23.992698	0.000790	7.904538	1.339065	0.000158
 102	1.0050e+01	2.0113	24.142072	0.000750	7.499177	1.270395	0.000150
 103	1.0149e+01	2.0318	24.295483	0.000770	7.701857	1.304730	0.000154
 104	1.0248e+01	2.0523	24.477154	0.000912	9.120620	1.545075	0.000183
 105	1.0348e+01	2.0715	24.638639	0.000811	8.107218	1.373400	0.000162
 106	1.0447e+01	2.0902	24.759753	0.000608	6.080414	1.030050	0.000122
 107	1.0547e+01	2.1105	24.961610	0.001013	10.134023	1.716750	0.000203
 108	1.0646e+01	2.1310	25.086761	0.000628	6.283094	1.064385	0.000126
 109	1.0746e+01	2.1513	25.236135	0.000750	7.499177	1.270395	0.000150
 110	1.0845e+01	2.1705	25.401658	0.000831	8.309898	1.407735	0.000166
 111	1.0945e+01	2.1909	25.571218	0.000851	8.512579	1.442070	0.000170
 112	1.1044e+01	2.2097	25.700406	0.000649	6.485774	1.098720	0.000130
 113	1.1144e+01	2.2301	25.837669	0.000689	6.891135	1.167390	0.000138
 114	1.1243e+01	2.2504	26.023377	0.000932	9.323301	1.579410	0.000187
 115	1.1343e+01	2.2697	26.184862	0.000811	8.107218	1.373400	0.000162
 116	1.1443e+01	2.2898	26.366534	0.000912	9.120620	1.545075	0.000183
 117	1.1542e+01	2.3107	26.483610	0.000588	5.877733	0.995715	0.000118
 118	1.1642e+01	2.3299	26.677393	0.000973	9.728662	1.648080	0.000195
 119	1.1741e+01	2.3508	26.810618	0.000669	6.688455	1.133055	0.000134
 120	1.1841e+01	2.3696	26.980178	0.000851	8.512579	1.442070	0.000170
 121	1.1940e+01	2.3906	27.133589	0.000770	7.701857	1.304730	0.000154
 122	1.2040e+01	2.4094	27.282963	0.000750	7.499177	1.270395	0.000150
 123	1.2139e+01	2.4306	27.432337	0.000750	7.499177	1.270395	0.000150
 124	1.2239e+01	2.4497	27.626120	0.000973	9.728662	1.648080	0.000195
 125	1.2338e+01	2.4703	27.771457	0.000730	7.296496	1.236060	0.000146
 126	1.2438e+01	2.4903	27.920831	0.000750	7.499177	1.270395	0.000150
 127	1.2537e+01	2.5091	28.058093	0.000689	6.891135	1.167390	0.000138
 128	1.2636e+01	2.5292	28.239764	0.000912	9.120620	1.545075	0.000183
 129	1.2736e+01	2.5493	28.389139	0.000750	7.499177	1.270395	0.000150
 130	1.2835e+01	2.5680	28.526401	0.000689	6.891135	1.167390	0.000138
 131	1.2935e+01	2.5891	28.663664	0.000689	6.891135	1.167390	0.000138
 132	1.3034e+01	2.6091	28.780741	0.000588	5.877733	0.995715	0.000118
 133	1.3134e+01	2.6293	28.994709	0.001074	10.742064	1.819755	0.000215
 134	1.3233e+01	2.6485	29.144083	0.000750	7.499177	1.270395	0.000150
 135	1.3333e+01	2.6690	29.289420	0.000730	7.296496	1.236060	0.000146
 136	1.3432e+01	2.6885	29.446868	0.000790	7.904538	1.339065	0.000158
 137	1.3532e+01	2.7077	29.612391	0.000831	8.309898	1.407735	0.000166
 138	1.3632e+01	2.7285	29.753690	0.000709	7.093816	1.201725	0.000142
 139	1.3731e+01	2.7485	29.907102	0.000770	7.701857	1.304730	0.000154
 140	1.3831e+01	2.7691	30.048401	0.000709	7.093816	1.201725	0.000142
 141	1.3930e+01	2.7882	30.193738	0.000730	7.296496	1.236060	0.000146
 142	1.4030e+01	2.8078	30.351186	0.000790	7.904538	1.339065	0.000158
 143	1.4129e+01	2.8280	30.496523	0.000730	7.296496	1.236060	0.000146
 144	1.4229e+01	2.8482	30.645897	0.000750	7.499177	1.270395	0.000150
 145	1.4328e+01	2.8684	30.799309	0.000770	7.701857	1.304730	0.000154
 146	1.4428e+01	2.8870	30.964831	0.000831	8.309898	1.407735	0.000166
 147	1.4527e+01	2.9075	31.089982	0.000628	6.283094	1.064385	0.000126
 148	1.4627e+01	2.9278	31.255505	0.000831	8.309898	1.407735	0.000166
 149	1.4726e+01	2.9481	31.453325	0.000993	9.931342	1.682415	0.000199
 150	1.4825e+01	2.9668	31.554253	0.000507	5.067011	0.858375	0.000101
 151	1.4925e+01	2.9881	31.723813	0.000851	8.512579	1.442070	0.000170
 152	1.5024e+01	3.0079	31.861075	0.000689	6.891135	1.167390	0.000138
 153	1.5124e+01	3.0279	32.026598	0.000831	8.309898	1.407735	0.000166
 154	1.5223e+01	3.0470	32.151749	0.000628	6.283094	1.064385	0.000126
 155	1.5323e+01	3.0682	32.313234	0.000811	8.107218	1.373400	0.000162
 156	1.5422e+01	3.0872	32.466646	0.000770	7.701857	1.304730	0.000154
 157	1.5522e+01	3.1068	32.632168	0.000831	8.309898	1.407735	0.000166
 158	1.5621e+01	3.1266	32.781542	0.000750	7.499177	1.270395	0.000150
 159	1.5721e+01	3.1466	32.938990	0.000790	7.904538	1.339065	0.000158
 160	1.5820e+01	3.1670	33.076253	0.000689	6.891135	1.167390	0.000138
 161	1.5920e+01	3.1879	33.237739	0.000811	8.107218	1.373400	0.000162
 162	1.6020e+01	3.2059	33.403261	0.000831	8.309898	1.407735	0.000166
 163	1.6119e+01	3.2266	33.552635	0.000750	7.499177	1.270395	0.000150
 164	1.6218e+01	3.2472	33.641452	0.000446	4.458970	0.755370	0.000089
 165	1.6318e+01	3.2655	33.823123	0.000912	9.120620	1.545075	0.000183
 166	1.6418e+01	3.2848	34.016906	0.000973	9.728662	1.648080	0.000195
 167	1.6517e+01	3.3060	34.109760	0.000466	4.661650	0.789705	0.000093
 168	1.6616e+01	3.3263	34.267208	0.000790	7.904538	1.339065	0.000158
 169	1.6716e+01	3.3465	34.477139	0.001054	10.539383	1.785420	0.000211
 170	1.6816e+01	3.3654	34.557882	0.000405	4.053609	0.686700	0.000081
 171	1.6915e+01	3.3869	34.723404	0.000831	8.309898	1.407735	0.000166
 172	1.7015e+01	3.4051	34.884890	0.000811	8.107218	1.373400	0.000162
 173	1.7114e+01	3.4260	35.034264	0.000750	7.499177	1.270395	0.000150
 174	1.7213e+01	3.4457	35.151341	0.000588	5.877733	0.995715	0.000118
 175	1.7313e+01	3.4661	35.345123	0.000973	9.728662	1.648080	0.000195
 176	1.7413e+01	3.4853	35.482386	0.000689	6.891135	1.167390	0.000138
 177	1.7512e+01	3.5056	35.599463	0.000588	5.877733	0.995715	0.000118
 178	1.7611e+01	3.5256	35.813431	0.001074	10.742064	1.819755	0.000215
 179	1.7711e+01	3.5457	35.894174	0.000405	4.053609	0.686700	0.000081
 180	1.7811e+01	3.5654	36.100068	0.001034	10.336703	1.751085	0.000207
 181	1.7910e+01	3.5854	36.213108	0.000568	5.675053	0.961380	0.000114
 182	1.8009e+01	3.6047	36.378630	0.000831	8.309898	1.407735	0.000166
 183	1.8109e+01	3.6240	36.503781	0.000628	6.283094	1.064385	0.000126
 184	1.8209e+01	3.6448	36.677378	0.000872	8.715259	1.476405	0.000174
 185	1.8308e+01	3.6653	36.786381	0.000547	5.472372	0.927045	0.000110
 186	1.8407e+01	3.6848	36.919606	0.000669	6.688455	1.133055	0.000134
 187	1.8507e+01	3.7051	37.093203	0.000872	8.715259	1.476405	0.000174
 188	1.8607e+01	3.7257	37.234503	0.000709	7.093816	1.201725	0.000142
 189	1.8706e+01	3.7448	37.371766	0.000689	6.891135	1.167390	0.000138
 190	1.8805e+01	3.7640	37.525177	0.000770	7.701857	1.304730	0.000154
 191	1.8905e+01	3.7845	37.678588	0.000770	7.701857	1.304730	0.000154
 192	1.9005e+01	3.8038	37.823925	0.000730	7.296496	1.236060	0.000146
 193	1.9104e+01	3.8238	37.989447	0.000831	8.309898	1.407735	0.000166
 194	1.9203e+01	3.8440	38.110561	0.000608	6.080414	1.030050	0.000122
 195	1.9303e+01	3.8636	38.259935	0.000750	7.499177	1.270395	0.000150
 196	1.9402e+01	3.8834	38.401235	0.000709	7.093816	1.201725	0.000142
 197	1.9502e+01	3.9039	38.554646	0.000770	7.701857	1.304730	0.000154
 198	1.9602e+01	3.9238	38.736317	0.000912	9.120620	1.545075	0.000183
 199	1.9701e+01	3.9441	38.877617	0.000709	7.093816	1.201725	0.000142
 200	1.9800e+01	3.9634	38.966434	0.000446	4.458970	0.755370	0.000089
 201	1.9900e+01	3.9838	39.140031	0.000872	8.715259	1.476405	0.000174
 202	2.0000e+01	4.0023	39.305554	0.000831	8.309898	1.407735	0.000166
 203	2.0099e+01	4.0231	39.406482	0.000507	5.067011	0.858375	0.000101
 204	2.0198e+01	4.0434	39.531633	0.000628	6.283094	1.064385	0.000126
 205	2.0298e+01	4.0630	39.701193	0.000851	8.512579	1.442070	0.000170
 206	2.0398e+01	4.0839	39.850567	0.000750	7.499177	1.270395	0.000150
 207	2.0497e+01	4.1035	39.979755	0.000649	6.485774	1.098720	0.000130
 208	2.0596e+01	4.1232	40.149315	0.000851	8.512579	1.442070	0.000170
 209	2.0696e+01	4.1430	40.274466	0.000628	6.283094	1.064385	0.000126
 210	2.0796e+01	4.1624	40.444026	0.000851	8.512579	1.442070	0.000170
 211	2.0895e+01	4.1822	40.565140	0.000608	6.080414	1.030050	0.000122
 212	2.0994e+01	4.2027	40.718551	0.000770	7.701857	1.304730	0.000154
 213	2.1094e+01	4.2219	40.835628	0.000588	5.877733	0.995715	0.000118
 214	2.1194e+01	4.2432	40.976928	0.000709	7.093816	1.201725	0.000142
 215	2.1293e+01	4.2625	41.130339	0.000770	7.701857	1.304730	0.000154
 216	2.1392e+01	4.2825	41.279713	0.000750	7.499177	1.270395	0.000150
 217	2.1492e+01	4.3023	41.437161	0.000790	7.904538	1.339065	0.000158
 218	2.1591e+01	4.3224	41.550201	0.000568	5.675053	0.961380	0.000114
 219	2.1691e+01	4.3425	41.703612	0.000770	7.701857	1.304730	0.000154
 220	2.1791e+01	4.3624	41.844912	0.000709	7.093816	1.201725	0.000142
 221	2.1890e+01	4.3816	42.002360	0.000790	7.904538	1.339065	0.000158
 222	2.1989e+01	4.4012	42.123474	0.000608	6.080414	1.030050	0.000122
 223	2.2089e+01	4.4217	42.301108	0.000892	8.917940	1.510740	0.000179
 224	2.2189e+01	4.4421	42.398000	0.000486	4.864331	0.824040	0.000097
 225	2.2288e+01	4.4617	42.559485	0.000811	8.107218	1.373400	0.000162
 226	2.2387e+01	4.4820	42.708859	0.000750	7.499177	1.270395	0.000150
 227	2.2487e+01	4.5016	42.862270	0.000770	7.701857	1.304730	0.000154
 228	2.2587e+01	4.5201	42.979347	0.000588	5.877733	0.995715	0.000118
 229	2.2686e+01	4.5409	43.116610	0.000689	6.891135	1.167390	0.000138
 230	2.2785e+01	4.5615	43.274058	0.000790	7.904538	1.339065	0.000158
 231	2.2885e+01	4.5817	43.423432	0.000750	7.499177	1.270395	0.000150
 232	2.2985e+01	4.6012	43.540509	0.000588	5.877733	0.995715	0.000118
 233	2.3084e+01	4.6209	43.718143	0.000892	8.917940	1.510740	0.000179
 234	2.3183e+01	4.6410	43.859443	0.000709	7.093816	1.201725	0.000142
 235	2.3283e+01	4.6613	43.976520	0.000588	5.877733	0.995715	0.000118
 236	2.3383e+01	4.6807	44.109745	0.000669	6.688455	1.133055	0.000134
 237	2.3482e+01	4.7010	44.226822	0.000588	5.877733	0.995715	0.000118
 238	2.3581e+01	4.7196	44.380233	0.000770	7.701857	1.304730	0.000154
 239	2.3681e+01	4.7408	44.545756	0.000831	8.309898	1.407735	0.000166
 240	2.3780e+01	4.7608	44.703204	0.000790	7.904538	1.339065	0.000158
 241	2.3880e+01	4.7814	44.804132	0.000507	5.067011	0.858375	0.000101
 242	2.3980e+01	4.7998	44.929284	0.000628	6.283094	1.064385	0.000126
 243	2.4079e+01	4.8212	45.078658	0.000750	7.499177	1.270395	0.000150
 244	2.4178e+01	4.8405	45.203809	0.000628	6.283094	1.064385	0.000126
 245	2.4278e+01	4.8598	45.349146	0.000730	7.296496	1.236060	0.000146
 246	2.4378e+01	4.8798	45.490445	0.000709	7.093816	1.201725	0.000142
 247	2.4477e+01	4.9001	45.599448	0.000547	5.472372	0.927045	0.000110
 248	2.4576e+01	4.9198	45.756896	0.000790	7.904538	1.339065	0.000158
 249	2.4676e+01	4.9400	45.922419	0.000831	8.309898	1.407735	0.000166
 250	2.4776e+01	4.9606	46.011236	0.000446	4.458970	0.755370	0.000089
 251	2.4875e+01	4.9795	46.152536	0.000709	7.093816	1.201725	0.000142
 252	2.4974e+01	4.9995	46.342281	0.000953	9.525981	1.613745	0.000191
 253	2.5074e+01	5.0199	46.455321	0.000568	5.675053	0.961380	0.000114
 254	2.5174e+01	5.0397	46.584509	0.000649	6.485774	1.098720	0.000130
 255	2.5273e+01	5.0588	46.725809	0.000709	7.093816	1.201725	0.000142
 256	2.5372e+01	5.0783	46.863072	0.000689	6.891135	1.167390	0.000138
 257	2.5472e+01	5.0993	46.996297	0.000669	6.688455	1.133055	0.000134
 258	2.5572e+01	5.1186	47.117411	0.000608	6.080414	1.030050	0.000122
 259	2.5671e+01	5.1391	47.254674	0.000689	6.891135	1.167390	0.000138
 260	2.5770e+01	5.1589	47.379825	0.000628	6.283094	1.064385	0.000126
 261	2.5870e+01	5.1786	47.549385	0.000851	8.512579	1.442070	0.000170
 262	2.5970e+01	5.1989	47.654350	0.000527	5.269692	0.892710	0.000105
 263	2.6069e+01	5.2175	47.856207	0.001013	10.134023	1.716750	0.000203
 264	2.6169e+01	5.2389	47.932913	0.000385	3.850929	0.652365	0.000077
 265	2.6268e+01	5.2586	48.045952	0.000568	5.675053	0.961380	0.000114
 266	2.6367e+01	5.2776	48.199364	0.000770	7.701857	1.304730	0.000154
 267	2.6467e+01	5.2979	48.348738	0.000750	7.499177	1.270395	0.000150
 268	2.6567e+01	5.3190	48.461777	0.000568	5.675053	0.961380	0.000114
 269	2.6666e+01	5.3374	48.586929	0.000628	6.283094	1.064385	0.000126
 270	2.6765e+01	5.3579	48.748414	0.000811	8.107218	1.373400	0.000162
 271	2.6865e+01	5.3785	48.861454	0.000568	5.675053	0.961380	0.000114
 272	2.6965e+01	5.3976	49.031014	0.000851	8.512579	1.442070	0.000170
 273	2.7064e+01	5.4180	49.131942	0.000507	5.067011	0.858375	0.000101
 274	2.7163e+01	5.4372	49.269205	0.000689	6.891135	1.167390	0.000138
 275	2.7263e+01	5.4572	49.394356	0.000628	6.283094	1.064385	0.000126
 276	2.7363e+01	5.4780	49.519507	0.000628	6.283094	1.064385	0.000126
 277	2.7462e+01	5.4977	49.668881	0.000750	7.499177	1.270395	0.000150
 278	2.7561e+01	5.5174	49.785958	0.000588	5.877733	0.995715	0.000118
 279	2.7661e+01	5.5372	49.947443	0.000811	8.107218	1.373400	0.000162
 280	2.7761e+01	5.5566	50.028186	0.000405	4.053609	0.686700	0.000081
 281	2.7860e+01	5.5778	50.197746	0.000851	8.512579	1.442070	0.000170
 282	2.7959e+01	5.5962	50.355194	0.000790	7.904538	1.339065	0.000158
 283	2.8059e+01	5.6171	50.423825	0.000345	3.445568	0.583695	0.000069
 284	2.8159e+01	5.6377	50.645868	0.001115	11.147425	1.888425	0.000223
 285	2.8258e+01	5.6573	50.694313	0.000243	2.432165	0.412020	0.000049
 286	2.8358e+01	5.6768	50.880022	0.000932	9.323301	1.579410	0.000187
 287	2.8457e+01	5.6966	50.980950	0.000507	5.067011	0.858375	0.000101
 288	2.8556e+01	5.7156	51.134361	0.000770	7.701857	1.304730	0.000154
 289	2.8656e+01	5.7363	51.251438	0.000588	5.877733	0.995715	0.000118
 290	2.8756e+01	5.7561	51.364478	0.000568	5.675053	0.961380	0.000114
 291	2.8855e+01	5.7760	51.534038	0.000851	8.512579	1.442070	0.000170
 292	2.8954e+01	5.7961	51.663226	0.000649	6.485774	1.098720	0.000130
 293	2.9054e+01	5.8161	51.768192	0.000527	5.269692	0.892710	0.000105
 294	2.9154e+01	5.8361	51.901417	0.000669	6.688455	1.133055	0.000134
 295	2.9253e+01	5.8562	51.994271	0.000466	4.661650	0.789705	0.000093
 296	2.9352e+01	5.8765	52.147682	0.000770	7.701857	1.304730	0.000154
 297	2.9452e+01	5.8961	52.293019	0.000730	7.296496	1.236060	0.000146
 298	2.9552e+01	5.9167	52.410096	0.000588	5.877733	0.995715	0.000118
 299	2.9651e+01	5.9356	52.559470	0.000750	7.499177	1.270395	0.000150
 300	2.9750e+01	5.9554	52.660399	0.000507	5.067011	0.858375	0.000101
 301	2.9850e+01	5.9754	52.813810	0.000770	7.701857	1.304730	0.000154
 302	2.9950e+01	5.9950	52.906664	0.000466	4.661650	0.789705	0.000093
 303	3.0049e+01	6.0143	53.007592	0.000507	5.067011	0.858375	0.000101
 304	3.0148e+01	6.0348	53.185226	0.000892	8.917940	1.510740	0.000179
 305	3.0248e+01	6.0571	53.294229	0.000547	5.472372	0.927045	0.000110
 306	3.0348e+01	6.0749	53.415343	0.000608	6.080414	1.030050	0.000122
 307	3.0447e+01	6.0950	53.552606	0.000689	6.891135	1.167390	0.000138
 308	3.0547e+01	6.1149	53.653534	0.000507	5.067011	0.858375	0.000101
 309	3.0646e+01	6.1358	53.835205	0.000912	9.120620	1.545075	0.000183
 310	3.0745e+01	6.1558	53.891725	0.000284	2.837526	0.480690	0.000057
 311	3.0845e+01	6.1744	54.028988	0.000689	6.891135	1.167390	0.000138
 312	3.0945e+01	6.1941	54.186436	0.000790	7.904538	1.339065	0.000158
 313	3.1044e+01	6.2145	54.311587	0.000628	6.283094	1.064385	0.000126
 314	3.1143e+01	6.2336	54.436738	0.000628	6.283094	1.064385	0.000126
 315	3.1243e+01	6.2554	54.517481	0.000405	4.053609	0.686700	0.000081
 316	3.1343e+01	6.2734	54.678966	0.000811	8.107218	1.373400	0.000162
 317	3.1442e+01	6.2942	54.816229	0.000689	6.891135	1.167390	0.000138
 318	3.1541e+01	6.3137	54.953492	0.000689	6.891135	1.167390	0.000138
 319	3.1641e+01	6.3331	55.038272	0.000426	4.256289	0.721035	0.000085
 320	3.1741e+01	6.3537	55.171497	0.000669	6.688455	1.133055	0.000134
 321	3.1840e+01	6.3741	55.252240	0.000405	4.053609	0.686700	0.000081
 322	3.1939e+01	6.3934	55.405651	0.000770	7.701857	1.304730	0.000154
 323	3.2039e+01	6.4121	55.538876	0.000669	6.688455	1.133055	0.000134
 324	3.2139e+01	6.4330	55.664028	0.000628	6.283094	1.064385	0.000126
 325	3.2238e+01	6.4529	55.833587	0.000851	8.512579	1.442070	0.000170
 326	3.2337e+01	6.4724	55.922404	0.000446	4.458970	0.755370	0.000089
 327	3.2437e+01	6.4919	56.067741	0.000730	7.296496	1.236060	0.000146
 328	3.2536e+01	6.5128	56.128298	0.000304	3.040207	0.515025	0.000061
 329	3.2636e+01	6.5334	56.281709	0.000770	7.701857	1.304730	0.000154
 330	3.2736e+01	6.5529	56.427046	0.000730	7.296496	1.236060	0.000146
 331	3.2835e+01	6.5723	56.548160	0.000608	6.080414	1.030050	0.000122
 332	3.2934e+01	6.5931	56.665237	0.000588	5.877733	0.995715	0.000118
 333	3.3034e+01	6.6120	56.826723	0.000811	8.107218	1.373400	0.000162
 334	3.3133e+01	6.6326	56.907465	0.000405	4.053609	0.686700	0.000081
 335	3.3233e+01	6.6512	57.008394	0.000507	5.067011	0.858375	0.000101
 336	3.3333e+01	6.6724	57.153731	0.000730	7.296496	1.236060	0.000146
 337	3.3432e+01	6.6924	57.315216	0.000811	8.107218	1.373400	0.000162
 338	3.3532e+01	6.7126	57.375773	0.000304	3.040207	0.515025	0.000061
 339	3.3631e+01	6.7327	57.484776	0.000547	5.472372	0.927045	0.000110
 340	3.3730e+01	6.7522	57.646261	0.000811	8.107218	1.373400	0.000162
 341	3.3830e+01	6.7722	57.767375	0.000608	6.080414	1.030050	0.000122
 342	3.3929e+01	6.7913	57.868304	0.000507	5.067011	0.858375	0.000101
 343	3.4029e+01	6.8125	58.017678	0.000750	7.499177	1.270395	0.000150
 344	3.4129e+01	6.8316	58.138792	0.000608	6.080414	1.030050	0.000122
 345	3.4228e+01	6.8517	58.263943	0.000628	6.283094	1.064385	0.000126
 346	3.4328e+01	6.8716	58.368909	0.000527	5.269692	0.892710	0.000105
 347	3.4427e+01	6.8913	58.494060	0.000628	6.283094	1.064385	0.000126
 348	3.4526e+01	6.9113	58.599025	0.000527	5.269692	0.892710	0.000105
 349	3.4626e+01	6.9318	58.712065	0.000568	5.675053	0.961380	0.000114
 350	3.4725e+01	6.9505	58.837216	0.000628	6.283094	1.064385	0.000126
 351	3.4825e+01	6.9717	58.994665	0.000790	7.904538	1.339065	0.000158
 352	3.4925e+01	6.9909	59.083482	0.000446	4.458970	0.755370	0.000089
 353	3.5024e+01	7.0113	59.249004	0.000831	8.309898	1.407735	0.000166
 354	3.5123e+01	7.0305	59.345895	0.000486	4.864331	0.824040	0.000097
 355	3.5223e+01	7.0510	59.442787	0.000486	4.864331	0.824040	0.000097
 356	3.5322e+01	7.0710	59.592161	0.000750	7.499177	1.270395	0.000150
 357	3.5422e+01	7.0900	59.697126	0.000527	5.269692	0.892710	0.000105
 358	3.5522e+01	7.1098	59.785943	0.000446	4.458970	0.755370	0.000089
 359	3.5621e+01	7.1297	59.939354	0.000770	7.701857	1.304730	0.000154
 360	3.5721e+01	7.1499	60.068543	0.000649	6.485774	1.098720	0.000130
 361	3.5820e+01	7.1700	60.169471	0.000507	5.067011	0.858375	0.000101
 362	3.5919e+01	7.1905	60.286548	0.000588	5.877733	0.995715	0.000118
 363	3.6019e+01	7.2108	60.363254	0.000385	3.850929	0.652365	0.000077
 364	3.6118e+01	7.2303	60.504553	0.000709	7.093816	1.201725	0.000142
 365	3.6218e+01	7.2499	60.649890	0.000730	7.296496	1.236060	0.000146
 366	3.6318e+01	7.2701	60.775041	0.000628	6.283094	1.064385	0.000126
 367	3.6417e+01	7.2894	60.900193	0.000628	6.283094	1.064385	0.000126
 368	3.6517e+01	7.3096	61.029381	0.000649	6.485774	1.098720	0.000130
 369	3.6616e+01	7.3300	61.126272	0.000486	4.864331	0.824040	0.000097
 370	3.6715e+01	7.3501	61.263535	0.000689	6.891135	1.167390	0.000138
 371	3.6815e+01	7.3684	61.307943	0.000223	2.229485	0.377685	0.000045
 372	3.6914e+01	7.3893	61.445206	0.000689	6.891135	1.167390	0.000138
 373	3.7014e+01	7.4090	61.602654	0.000790	7.904538	1.339065	0.000158
 374	3.7114e+01	7.4295	61.707620	0.000527	5.269692	0.892710	0.000105
 375	3.7213e+01	7.4480	61.788362	0.000405	4.053609	0.686700	0.000081
 376	3.7313e+01	7.4685	61.921588	0.000669	6.688455	1.133055	0.000134
 377	3.7412e+01	7.4889	62.038665	0.000588	5.877733	0.995715	0.000118
 378	3.7511e+01	7.5092	62.192076	0.000770	7.701857	1.304730	0.000154
 379	3.7611e+01	7.5294	62.268782	0.000385	3.850929	0.652365	0.000077
 380	3.7711e+01	7.5488	62.381821	0.000568	5.675053	0.961380	0.000114
 381	3.7810e+01	7.5703	62.523121	0.000709	7.093816	1.201725	0.000142
 382	3.7910e+01	7.5884	62.640198	0.000588	5.877733	0.995715	0.000118
 383	3.8009e+01	7.6087	62.745164	0.000527	5.269692	0.892710	0.000105
 384	3.8108e+01	7.6289	62.842055	0.000486	4.864331	0.824040	0.000097
 385	3.8208e+01	7.6486	62.983355	0.000709	7.093816	1.201725	0.000142
 386	3.8307e+01	7.6691	63.084283	0.000507	5.067011	0.858375	0.000101
 387	3.8407e+01	7.6885	63.225583	0.000709	7.093816	1.201725	0.000142
 388	3.8507e+01	7.7090	63.314400	0.000446	4.458970	0.755370	0.000089
 389	3.8606e+01	7.7274	63.471848	0.000790	7.904538	1.339065	0.000158
 390	3.8706e+01	7.7459	63.564702	0.000466	4.661650	0.789705	0.000093
 391	3.8805e+01	7.7668	63.714076	0.000750	7.499177	1.270395	0.000150
 392	3.8904e+01	7.7871	63.778670	0.000324	3.242887	0.549360	0.000065
 393	3.9004e+01	7.8088	63.924007	0.000730	7.296496	1.236060	0.000146
 394	3.9103e+01	7.8275	64.000713	0.000385	3.850929	0.652365	0.000077
 395	3.9203e+01	7.8468	64.154124	0.000770	7.701857	1.304730	0.000154
 396	3.9303e+01	7.8669	64.230830	0.000385	3.850929	0.652365	0.000077
 397	3.9402e+01	7.8874	64.412501	0.000912	9.120620	1.545075	0.000183
 398	3.9502e+01	7.9060	64.485169	0.000365	3.648248	0.618030	0.000073
 399	3.9601e+01	7.9275	64.638580	0.000770	7.701857	1.304730	0.000154
 400	3.9700e+01	7.9475	64.711249	0.000365	3.648248	0.618030	0.000073
 401	3.9800e+01	7.9679	64.844474	0.000669	6.688455	1.133055	0.000134
 402	3.9900e+01	7.9871	64.957514	0.000568	5.675053	0.961380	0.000114
 403	3.9999e+01	8.0070	65.058442	0.000507	5.067011	0.858375	0.000101
 404	4.0099e+01	8.0262	65.147259	0.000446	4.458970	0.755370	0.000089
 405	4.0198e+01	8.0462	65.276448	0.000649	6.485774	1.098720	0.000130
 406	4.0297e+01	8.0664	65.409673	0.000669	6.688455	1.133055	0.000134
 407	4.0397e+01	8.0860	65.518676	0.000547	5.472372	0.927045	0.000110
 408	4.0496e+01	8.1060	65.635753	0.000588	5.877733	0.995715	0.000118
 409	4.0596e+01	8.1271	65.748793	0.000568	5.675053	0.961380	0.000114
 410	4.0696e+01	8.1458	65.845684	0.000486	4.864331	0.824040	0.000097
 411	4.0795e+01	8.1659	65.970835	0.000628	6.283094	1.064385	0.000126
 412	4.0895e+01	8.1863	66.055615	0.000426	4.256289	0.721035	0.000085
 413	4.0994e+01	8.2063	66.200952	0.000730	7.296496	1.236060	0.000146
 414	4.1093e+01	8.2257	66.330140	0.000649	6.485774	1.098720	0.000130
 415	4.1193e+01	8.2471	66.427031	0.000486	4.864331	0.824040	0.000097
 416	4.1292e+01	8.2649	66.564294	0.000689	6.891135	1.167390	0.000138
 417	4.1392e+01	8.2861	66.653111	0.000446	4.458970	0.755370	0.000089
 418	4.1492e+01	8.3047	66.774225	0.000608	6.080414	1.030050	0.000122
 419	4.1591e+01	8.3245	66.887265	0.000568	5.675053	0.961380	0.000114
 420	4.1691e+01	8.3485	66.972045	0.000426	4.256289	0.721035	0.000085
 421	4.1790e+01	8.3654	67.121419	0.000750	7.499177	1.270395	0.000150
 422	4.1889e+01	8.3862	67.206199	0.000426	4.256289	0.721035	0.000085
 423	4.1989e+01	8.4051	67.319238	0.000568	5.675053	0.961380	0.000114
 424	4.2089e+01	8.4254	67.452464	0.000669	6.688455	1.133055	0.000134
 425	4.2188e+01	8.4452	67.565504	0.000568	5.675053	0.961380	0.000114
 426	4.2288e+01	8.4647	67.662395	0.000486	4.864331	0.824040	0.000097
 427	4.2387e+01	8.4850	67.755249	0.000466	4.661650	0.789705	0.000093
 428	4.2486e+01	8.5042	67.860215	0.000527	5.269692	0.892710	0.000105
 429	4.2586e+01	8.5247	67.981329	0.000608	6.080414	1.030050	0.000122
 430	4.2685e+01	8.5449	68.090331	0.000547	5.472372	0.927045	0.000110
 431	4.2785e+01	8.5647	68.235668	0.000730	7.296496	1.236060	0.000146
 432	4.2885e+01	8.5840	68.288151	0.000263	2.634846	0.446355	0.000053
 433	4.2984e+01	8.6045	68.441562	0.000770	7.701857	1.304730	0.000154
 434	4.3084e+01	8.6237	68.562676	0.000608	6.080414	1.030050	0.000122
 435	4.3183e+01	8.6447	68.651493	0.000446	4.458970	0.755370	0.000089
 436	4.3282e+01	8.6646	68.784719	0.000669	6.688455	1.133055	0.000134
 437	4.3382e+01	8.6857	68.881610	0.000486	4.864331	0.824040	0.000097
 438	4.3481e+01	8.7042	69.002724	0.000608	6.080414	1.030050	0.000122
 439	4.3581e+01	8.7238	69.099615	0.000486	4.864331	0.824040	0.000097
 440	4.3681e+01	8.7436	69.204581	0.000527	5.269692	0.892710	0.000105
 441	4.3780e+01	8.7637	69.321658	0.000588	5.877733	0.995715	0.000118
 442	4.3880e+01	8.7830	69.414512	0.000466	4.661650	0.789705	0.000093
 443	4.3979e+01	8.8033	69.539663	0.000628	6.283094	1.064385	0.000126
 444	4.4078e+01	8.8232	69.632517	0.000466	4.661650	0.789705	0.000093
 445	4.4178e+01	8.8428	69.721334	0.000446	4.458970	0.755370	0.000089
 446	4.4278e+01	8.8628	69.866671	0.000730	7.296496	1.236060	0.000146
 447	4.4377e+01	8.8818	69.947414	0.000405	4.053609	0.686700	0.000081
 448	4.4477e+01	8.9022	70.096788	0.000750	7.499177	1.270395	0.000150
 449	4.4576e+01	8.9231	70.181568	0.000426	4.256289	0.721035	0.000085
 450	4.4675e+01	8.9414	70.282496	0.000507	5.067011	0.858375	0.000101
 451	4.4775e+01	8.9624	70.407647	0.000628	6.283094	1.064385	0.000126
 452	4.4874e+01	8.9822	70.480316	0.000365	3.648248	0.618030	0.000073
 453	4.4974e+01	9.0023	70.585281	0.000527	5.269692	0.892710	0.000105
 454	4.5074e+01	9.0216	70.674098	0.000446	4.458970	0.755370	0.000089
 455	4.5173e+01	9.0419	70.851732	0.000892	8.917940	1.510740	0.000179
 456	4.5273e+01	9.0619	70.952661	0.000507	5.067011	0.858375	0.000101
 457	4.5372e+01	9.0820	71.057626	0.000527	5.269692	0.892710	0.000105
 458	4.5471e+01	9.1022	71.126257	0.000345	3.445568	0.583695	0.000069
 459	4.5571e+01	9.1222	71.271594	0.000730	7.296496	1.236060	0.000146
 460	4.5670e+01	9.1416	71.360411	0.000446	4.458970	0.755370	0.000089
 461	4.5770e+01	9.1615	71.489600	0.000649	6.485774	1.098720	0.000130
 462	4.5870e+01	9.1806	71.590528	0.000507	5.067011	0.858375	0.000101
 463	4.5969e+01	9.2005	71.691456	0.000507	5.067011	0.858375	0.000101
 464	4.6069e+01	9.2212	71.792385	0.000507	5.067011	0.858375	0.000101
 465	4.6168e+01	9.2416	71.917536	0.000628	6.283094	1.064385	0.000126
 466	4.6267e+01	9.2603	72.034613	0.000588	5.877733	0.995715	0.000118
 467	4.6367e+01	9.2822	72.119393	0.000426	4.256289	0.721035	0.000085
 468	4.6467e+01	9.3007	72.200136	0.000405	4.053609	0.686700	0.000081
 469	4.6566e+01	9.3204	72.377770	0.000892	8.917940	1.510740	0.000179
 470	4.6666e+01	9.3414	72.462549	0.000426	4.256289	0.721035	0.000085
 471	4.6765e+01	9.3604	72.547329	0.000426	4.256289	0.721035	0.000085
 472	4.6864e+01	9.3805	72.656332	0.000547	5.472372	0.927045	0.000110
 473	4.6964e+01	9.4004	72.761297	0.000527	5.269692	0.892710	0.000105
 474	4.7063e+01	9.4205	72.906634	0.000730	7.296496	1.236060	0.000146
 475	4.7163e+01	9.4404	72.987377	0.000405	4.053609	0.686700	0.000081
 476	4.7263e+01	9.4604	73.080231	0.000466	4.661650	0.789705	0.000093
 477	4.7362e+01	9.4806	73.185197	0.000527	5.269692	0.892710	0.000105
 478	4.7462e+01	9.4995	73.261902	0.000385	3.850929	0.652365	0.000077
 479	4.7561e+01	9.5191	73.370905	0.000547	5.472372	0.927045	0.000110
 480	4.7660e+01	9.5382	73.471833	0.000507	5.067011	0.858375	0.000101
 481	4.7760e+01	9.5594	73.588910	0.000588	5.877733	0.995715	0.000118
 482	4.7859e+01	9.5792	73.689839	0.000507	5.067011	0.858375	0.000101
 483	4.7959e+01	9.5996	73.802878	0.000568	5.675053	0.961380	0.000114
 484	4.8059e+01	9.6192	73.923992	0.000608	6.080414	1.030050	0.000122
 485	4.8158e+01	9.6393	74.041069	0.000588	5.877733	0.995715	0.000118
 486	4.8258e+01	9.6594	74.113738	0.000365	3.648248	0.618030	0.000073
 487	4.8357e+01	9.6794	74.263112	0.000750	7.499177	1.270395	0.000150
 488	4.8456e+01	9.6993	74.295409	0.000162	1.621444	0.274680	0.000032
 489	4.8556e+01	9.7194	74.420560	0.000628	6.283094	1.064385	0.000126
 490	4.8656e+01	9.7388	74.545711	0.000628	6.283094	1.064385	0.000126
 491	4.8755e+01	9.7591	74.646640	0.000507	5.067011	0.858375	0.000101
 492	4.8855e+01	9.7781	74.743531	0.000486	4.864331	0.824040	0.000097
 493	4.8954e+01	9.7988	74.852534	0.000547	5.472372	0.927045	0.000110
 494	4.9053e+01	9.8187	74.957499	0.000527	5.269692	0.892710	0.000105
 495	4.9153e+01	9.8383	75.078613	0.000608	6.080414	1.030050	0.000122
 496	4.9252e+01	9.8590	75.179542	0.000507	5.067011	0.858375	0.000101
 497	4.9352e+01	9.8783	75.256247	0.000385	3.850929	0.652365	0.000077
 498	4.9452e+01	9.8985	75.389473	0.000669	6.688455	1.133055	0.000134
 499	4.9551e+01	9.9177	75.486364	0.000486	4.864331	0.824040	0.000097
 500	4.9651e+01	9.9380	75.583255	0.000486	4.864331	0.824040	0.000097
 501	4.9750e+01	9.9585	75.688221	0.000527	5.269692	0.892710	0.000105
 502	4.9849e+01	9.9785	75.760889	0.000365	3.648248	0.618030	0.000073
 503	4.9949e+01	9.9987	75.898152	0.000689	6.891135	1.167390	0.000138
 504	5.0048e+01	9.9786	75.829521	0.000345	3.445568	0.583695	-0.000069
 505	5.0148e+01	9.9581	75.744741	0.000426	4.256289	0.721035	-0.000085
 506	5.0248e+01	9.9384	75.680147	0.000324	3.242887	0.549360	-0.000065
 507	5.0347e+01	9.9175	75.603441	0.000385	3.850929	0.652365	-0.000077
 508	5.0447e+01	9.8975	75.514624	0.000446	4.458970	0.755370	-0.000089
 509	5.0546e+01	9.8785	75.450030	0.000324	3.242887	0.549360	-0.000065
 510	5.0645e+01	9.8584	75.320841	0.000649	6.485774	1.098720	-0.000130
 511	5.0745e+01	9.8389	75.292582	0.000142	1.418763	0.240345	-0.000028
 512	5.0844e+01	9.8174	75.203765	0.000446	4.458970	0.755370	-0.000089
 513	5.0944e+01	9.7990	75.102836	0.000507	5.067011	0.858375	-0.000101
 514	5.1044e+01	9.7790	75.058428	0.000223	2.229485	0.377685	-0.000045
 515	5.1143e+01	9.7598	74.945388	0.000568	5.675053	0.961380	-0.000114
 516	5.1242e+01	9.7399	74.892905	0.000263	2.634846	0.446355	-0.000053
 517	5.1342e+01	9.7188	74.779865	0.000568	5.675053	0.961380	-0.000114
 518	5.1441e+01	9.6985	74.711234	0.000345	3.445568	0.583695	-0.000069
 519	5.1541e+01	9.6785	74.594157	0.000588	5.877733	0.995715	-0.000118
 520	5.1641e+01	9.6589	74.537637	0.000284	2.837526	0.480690	-0.000057
 521	5.1740e+01	9.6387	74.404412	0.000669	6.688455	1.133055	-0.000134
 522	5.1840e+01	9.6198	74.376152	0.000142	1.418763	0.240345	-0.000028
 523	5.1939e+01	9.5988	74.283298	0.000466	4.661650	0.789705	-0.000093
 524	5.2038e+01	9.5791	74.170258	0.000568	5.675053	0.961380	-0.000114
 525	5.2138e+01	9.5595	74.121812	0.000243	2.432165	0.412020	-0.000049
 526	5.2237e+01	9.5389	73.996661	0.000628	6.283094	1.064385	-0.000126
 527	5.2337e+01	9.5203	73.923992	0.000365	3.648248	0.618030	-0.000073
 528	5.2437e+01	9.4998	73.839213	0.000426	4.256289	0.721035	-0.000085
 529	5.2536e+01	9.4803	73.770581	0.000345	3.445568	0.583695	-0.000069
 530	5.2636e+01	9.4606	73.653504	0.000588	5.877733	0.995715	-0.000118
 531	5.2735e+01	9.4401	73.560650	0.000466	4.661650	0.789705	-0.000093
 532	5.2834e+01	9.4198	73.500093	0.000304	3.040207	0.515025	-0.000061
 533	5.2934e+01	9.3997	73.407239	0.000466	4.661650	0.789705	-0.000093
 534	5.3033e+01	9.3799	73.322459	0.000426	4.256289	0.721035	-0.000085
 535	5.3133e+01	9.3604	73.249791	0.000365	3.648248	0.618030	-0.000073
 536	5.3233e+01	9.3411	73.116565	0.000669	6.688455	1.133055	-0.000134
 537	5.3332e+01	9.3208	73.023711	0.000466	4.661650	0.789705	-0.000093
 538	5.3431e+01	9.3011	72.926820	0.000486	4.864331	0.824040	-0.000097
 539	5.3531e+01	9.2810	72.870300	0.000284	2.837526	0.480690	-0.000057
 540	5.3630e+01	9.2603	72.765335	0.000527	5.269692	0.892710	-0.000105
 541	5.3730e+01	9.2407	72.680555	0.000426	4.256289	0.721035	-0.000085
 542	5.3830e+01	9.2205	72.567515	0.000568	5.675053	0.961380	-0.000114
 543	5.3929e+01	9.2017	72.498884	0.000345	3.445568	0.583695	-0.000069
 544	5.4029e+01	9.1806	72.434289	0.000324	3.242887	0.549360	-0.000065
 545	5.4128e+01	9.1610	72.309138	0.000628	6.283094	1.064385	-0.000126
 546	5.4227e+01	9.1412	72.216284	0.000466	4.661650	0.789705	-0.000093
 547	5.4327e+01	9.1211	72.135541	0.000405	4.053609	0.686700	-0.000081
 548	5.4426e+01	9.1022	72.046724	0.000446	4.458970	0.755370	-0.000089
 549	5.4526e+01	9.0812	71.945796	0.000507	5.067011	0.858375	-0.000101
 550	5.4626e+01	9.0626	71.856979	0.000446	4.458970	0.755370	-0.000089
 551	5.4725e+01	9.0424	71.760088	0.000486	4.864331	0.824040	-0.000097
 552	5.4825e+01	9.0213	71.687419	0.000365	3.648248	0.618030	-0.000073
 553	5.4924e+01	9.0032	71.586491	0.000507	5.067011	0.858375	-0.000101
 554	5.5023e+01	8.9825	71.501711	0.000426	4.256289	0.721035	-0.000085
 555	5.5123e+01	8.9616	71.408857	0.000466	4.661650	0.789705	-0.000093
 556	5.5222e+01	8.9408	71.311966	0.000486	4.864331	0.824040	-0.000097
 557	5.5322e+01	8.9225	71.207000	0.000527	5.269692	0.892710	-0.000105
 558	5.5422e+01	8.9025	71.142406	0.000324	3.242887	0.549360	-0.000065
 559	5.5521e+01	8.8833	71.049552	0.000466	4.661650	0.789705	-0.000093
 560	5.5620e+01	8.8629	70.972846	0.000385	3.850929	0.652365	-0.000077
 561	5.5720e+01	8.8433	70.867881	0.000527	5.269692	0.892710	-0.000105
 562	5.5819e+01	8.8232	70.783101	0.000426	4.256289	0.721035	-0.000085
 563	5.5919e+01	8.8038	70.653913	0.000649	6.485774	1.098720	-0.000130
 564	5.6019e+01	8.7834	70.601430	0.000263	2.634846	0.446355	-0.000053
 565	5.6118e+01	8.7647	70.472241	0.000649	6.485774	1.098720	-0.000130
 566	5.6218e+01	8.7437	70.423796	0.000243	2.432165	0.412020	-0.000049
 567	5.6317e+01	8.7231	70.290570	0.000669	6.688455	1.133055	-0.000134
 568	5.6416e+01	8.7030	70.213865	0.000385	3.850929	0.652365	-0.000077
 569	5.6516e+01	8.6834	70.116973	0.000486	4.864331	0.824040	-0.000097
 570	5.6615e+01	8.6636	70.052379	0.000324	3.242887	0.549360	-0.000065
 571	5.6715e+01	8.6443	69.935302	0.000588	5.877733	0.995715	-0.000118
 572	5.6815e+01	8.6246	69.826300	0.000547	5.472372	0.927045	-0.000110
 573	5.6914e+01	8.6057	69.721334	0.000527	5.269692	0.892710	-0.000105
 574	5.7014e+01	8.5850	69.644629	0.000385	3.850929	0.652365	-0.000077
 575	5.7113e+01	8.5658	69.527552	0.000588	5.877733	0.995715	-0.000118
 576	5.7212e+01	8.5442	69.491217	0.000182	1.824124	0.309015	-0.000037
 577	5.7312e+01	8.5254	69.378178	0.000568	5.675053	0.961380	-0.000114
 578	5.7411e+01	8.5034	69.261101	0.000588	5.877733	0.995715	-0.000118
 579	5.7511e+01	8.4843	69.172284	0.000446	4.458970	0.755370	-0.000089
 580	5.7611e+01	8.4644	69.087504	0.000426	4.256289	0.721035	-0.000085
 581	5.7710e+01	8.4453	68.946204	0.000709	7.093816	1.201725	-0.000142
 582	5.7809e+01	8.4247	68.881610	0.000324	3.242887	0.549360	-0.000065
 583	5.7909e+01	8.4058	68.792793	0.000446	4.458970	0.755370	-0.000089
 584	5.8008e+01	8.3852	68.708013	0.000426	4.256289	0.721035	-0.000085
 585	5.8108e+01	8.3652	68.558639	0.000750	7.499177	1.270395	-0.000150
 586	5.8208e+01	8.3457	68.477896	0.000405	4.053609	0.686700	-0.000081
 587	5.8307e+01	8.3248	68.389079	0.000446	4.458970	0.755370	-0.000089
 588	5.8407e+01	8.3057	68.304300	0.000426	4.256289	0.721035	-0.000085
 589	5.8506e+01	8.2861	68.227594	0.000385	3.850929	0.652365	-0.000077
 590	5.8605e+01	8.2653	68.082257	0.000730	7.296496	1.236060	-0.000146
 591	5.8705e+01	8.2459	68.025737	0.000284	2.837526	0.480690	-0.000057
 592	5.8804e+01	8.2253	67.928846	0.000486	4.864331	0.824040	-0.000097
 593	5.8904e+01	8.2065	67.811769	0.000588	5.877733	0.995715	-0.000118
 594	5.9004e+01	8.1857	67.694692	0.000588	5.877733	0.995715	-0.000118
 595	5.9103e+01	8.1664	67.601838	0.000466	4.661650	0.789705	-0.000093
 596	5.9203e+01	8.1464	67.537244	0.000324	3.242887	0.549360	-0.000065
 597	5.9302e+01	8.1264	67.452464	0.000426	4.256289	0.721035	-0.000085
 598	5.9401e+01	8.1055	67.335387	0.000588	5.877733	0.995715	-0.000118
 599	5.9501e+01	8.0870	67.206199	0.000649	6.485774	1.098720	-0.000130
 600	5.9600e+01	8.0662	67.121419	0.000426	4.256289	0.721035	-0.000085
 601	5.9700e+01	8.0469	67.008379	0.000568	5.675053	0.961380	-0.000114
 602	5.9800e+01	8.0270	66.923599	0.000426	4.256289	0.721035	-0.000085
 603	5.9899e+01	8.0064	66.846894	0.000385	3.850929	0.652365	-0.000077
 604	5.9998e+01	7.9870	66.721742	0.000628	6.283094	1.064385	-0.000126
 605	6.0098e+01	7.9674	66.624851	0.000486	4.864331	0.824040	-0.000097
 606	6.0197e+01	7.9474	66.552183	0.000365	3.648248	0.618030	-0.000073
 607	6.0297e+01	7.9272	66.439143	0.000568	5.675053	0.961380	-0.000114
 608	6.0397e+01	7.9063	66.350326	0.000446	4.458970	0.755370	-0.000089
 609	6.0496e+01	7.8875	66.192878	0.000790	7.904538	1.339065	-0.000158
 610	6.0596e+01	7.8674	66.112135	0.000405	4.053609	0.686700	-0.000081
 611	6.0695e+01	7.8480	66.003132	0.000547	5.472372	0.927045	-0.000110
 612	6.0794e+01	7.8273	65.950649	0.000263	2.634846	0.446355	-0.000053
 613	6.0894e+01	7.8068	65.849721	0.000507	5.067011	0.858375	-0.000101
 614	6.0993e+01	7.7877	65.724570	0.000628	6.283094	1.064385	-0.000126
 615	6.1093e+01	7.7669	65.639790	0.000426	4.256289	0.721035	-0.000085
 616	6.1193e+01	7.7480	65.546936	0.000466	4.661650	0.789705	-0.000093
 617	6.1292e+01	7.7273	65.441970	0.000527	5.269692	0.892710	-0.000105
 618	6.1392e+01	7.7090	65.308745	0.000669	6.688455	1.133055	-0.000134
 619	6.1491e+01	7.6878	65.203779	0.000527	5.269692	0.892710	-0.000105
 620	6.1590e+01	7.6689	65.110925	0.000466	4.661650	0.789705	-0.000093
 621	6.1690e+01	7.6479	65.046331	0.000324	3.242887	0.549360	-0.000065
 622	6.1789e+01	7.6275	64.917143	0.000649	6.485774	1.098720	-0.000130
 623	6.1889e+01	7.6075	64.848511	0.000345	3.445568	0.583695	-0.000069
 624	6.1989e+01	7.5884	64.723360	0.000628	6.283094	1.064385	-0.000126
 625	6.2088e+01	7.5684	64.650692	0.000365	3.648248	0.618030	-0.000073
 626	6.2188e+01	7.5482	64.553800	0.000486	4.864331	0.824040	-0.000097
 627	6.2287e+01	7.5283	64.432686	0.000608	6.080414	1.030050	-0.000122
 628	6.2386e+01	7.5088	64.303498	0.000649	6.485774	1.098720	-0.000130
 629	6.2486e+01	7.4883	64.214681	0.000446	4.458970	0.755370	-0.000089
 630	6.2586e+01	7.4686	64.093567	0.000608	6.080414	1.030050	-0.000122
 631	6.2685e+01	7.4490	63.980527	0.000568	5.675053	0.961380	-0.000114
 632	6.2785e+01	7.4291	63.907859	0.000365	3.648248	0.618030	-0.000073
 633	6.2884e+01	7.4096	63.794819	0.000568	5.675053	0.961380	-0.000114
 634	6.2983e+01	7.3895	63.685816	0.000547	5.472372	0.927045	-0.000110
 635	6.3083e+01	7.3692	63.592962	0.000466	4.661650	0.789705	-0.000093
 636	6.3182e+01	7.3501	63.496071	0.000486	4.864331	0.824040	-0.000097
 637	6.3282e+01	7.3302	63.387068	0.000547	5.472372	0.927045	-0.000110
 638	6.3382e+01	7.3095	63.286140	0.000507	5.067011	0.858375	-0.000101
 639	6.3481e+01	7.2903	63.189249	0.000486	4.864331	0.824040	-0.000097
 640	6.3581e+01	7.2705	63.124654	0.000324	3.242887	0.549360	-0.000065
 641	6.3680e+01	7.2511	62.975280	0.000750	7.499177	1.270395	-0.000150
 642	6.3779e+01	7.2298	62.821869	0.000770	7.701857	1.304730	-0.000154
 643	6.3879e+01	7.2099	62.761312	0.000304	3.040207	0.515025	-0.000061
 644	6.3978e+01	7.1914	62.656347	0.000527	5.269692	0.892710	-0.000105
 645	6.4078e+01	7.1709	62.543307	0.000568	5.675053	0.961380	-0.000114
 646	6.4177e+01	7.1502	62.414119	0.000649	6.485774	1.098720	-0.000130
 647	6.4277e+01	7.1299	62.337413	0.000385	3.850929	0.652365	-0.000077
 648	6.4376e+01	7.1108	62.240522	0.000486	4.864331	0.824040	-0.000097
 649	6.4476e+01	7.0898	62.143630	0.000486	4.864331	0.824040	-0.000097
 650	6.4576e+01	7.0697	62.038665	0.000527	5.269692	0.892710	-0.000105
 651	6.4675e+01	7.0508	61.889291	0.000750	7.499177	1.270395	-0.000150
 652	6.4775e+01	7.0304	61.796437	0.000466	4.661650	0.789705	-0.000093
 653	6.4874e+01	7.0104	61.691471	0.000527	5.269692	0.892710	-0.000105
 654	6.4974e+01	6.9909	61.562283	0.000649	6.485774	1.098720	-0.000130
 655	6.5073e+01	6.9711	61.501726	0.000304	3.040207	0.515025	-0.000061
 656	6.5172e+01	6.9497	61.364463	0.000689	6.891135	1.167390	-0.000138
 657	6.5272e+01	6.9307	61.283721	0.000405	4.053609	0.686700	-0.000081
 658	6.5371e+01	6.9103	61.162606	0.000608	6.080414	1.030050	-0.000122
 659	6.5471e+01	6.8914	61.053604	0.000547	5.472372	0.927045	-0.000110
 660	6.5570e+01	6.8716	60.940564	0.000568	5.675053	0.961380	-0.000114
 661	6.5670e+01	6.8514	60.811376	0.000649	6.485774	1.098720	-0.000130
 662	6.5769e+01	6.8320	60.726596	0.000426	4.256289	0.721035	-0.000085
 663	6.5869e+01	6.8107	60.625667	0.000507	5.067011	0.858375	-0.000101
 664	6.5969e+01	6.7920	60.500516	0.000628	6.283094	1.064385	-0.000126
 665	6.6068e+01	6.7725	60.379402	0.000608	6.080414	1.030050	-0.000122
 666	6.6168e+01	6.7513	60.290585	0.000446	4.458970	0.755370	-0.000089
 667	6.6267e+01	6.7316	60.161397	0.000649	6.485774	1.098720	-0.000130
 668	6.6367e+01	6.7126	60.068543	0.000466	4.661650	0.789705	-0.000093
 669	6.6466e+01	6.6918	59.975689	0.000466	4.661650	0.789705	-0.000093
 670	6.6566e+01	6.6714	59.846500	0.000649	6.485774	1.098720	-0.000130
 671	6.6665e+01	6.6520	59.733460	0.000568	5.675053	0.961380	-0.000114
 672	6.6764e+01	6.6319	59.612346	0.000608	6.080414	1.030050	-0.000122
 673	6.6864e+01	6.6122	59.559864	0.000263	2.634846	0.446355	-0.000053
 674	6.6963e+01	6.5929	59.475084	0.000426	4.256289	0.721035	-0.000085
 675	6.7063e+01	6.5728	59.301487	0.000872	8.715259	1.476405	-0.000174
 676	6.7162e+01	6.5520	59.228818	0.000365	3.648248	0.618030	-0.000073
 677	6.7262e+01	6.5330	59.067333	0.000811	8.107218	1.373400	-0.000162
 678	6.7362e+01	6.5116	58.974479	0.000466	4.661650	0.789705	-0.000093
 679	6.7461e+01	6.4935	58.857402	0.000588	5.877733	0.995715	-0.000118
 680	6.7561e+01	6.4732	58.780696	0.000385	3.850929	0.652365	-0.000077
 681	6.7660e+01	6.4535	58.655545	0.000628	6.283094	1.064385	-0.000126
 682	6.7760e+01	6.4330	58.546542	0.000547	5.472372	0.927045	-0.000110
 683	6.7859e+01	6.4126	58.405243	0.000709	7.093816	1.201725	-0.000142
 684	6.7959e+01	6.3934	58.320463	0.000426	4.256289	0.721035	-0.000085
 685	6.8058e+01	6.3732	58.223572	0.000486	4.864331	0.824040	-0.000097
 686	6.8157e+01	6.3528	58.094383	0.000649	6.485774	1.098720	-0.000130
 687	6.8257e+01	6.3339	58.001529	0.000466	4.661650	0.789705	-0.000093
 688	6.8356e+01	6.3136	57.880415	0.000608	6.080414	1.030050	-0.000122
 689	6.8456e+01	6.2933	57.771412	0.000547	5.472372	0.927045	-0.000110
 690	6.8555e+01	6.2743	57.642224	0.000649	6.485774	1.098720	-0.000130
 691	6.8655e+01	6.2543	57.513036	0.000649	6.485774	1.098720	-0.000130
 692	6.8754e+01	6.2342	57.420182	0.000466	4.661650	0.789705	-0.000093
 693	6.8854e+01	6.2147	57.335402	0.000426	4.256289	0.721035	-0.000085
 694	6.8954e+01	6.1930	57.250622	0.000426	4.256289	0.721035	-0.000085
 695	6.9053e+01	6.1741	57.085099	0.000831	8.309898	1.407735	-0.000166
 696	6.9153e+01	6.1543	56.976097	0.000547	5.472372	0.927045	-0.000110
 697	6.9252e+01	6.1347	56.879205	0.000486	4.864331	0.824040	-0.000097
 698	6.9352e+01	6.1149	56.782314	0.000486	4.864331	0.824040	-0.000097
 699	6.9451e+01	6.0958	56.661200	0.000608	6.080414	1.030050	-0.000122
 700	6.9550e+01	6.0748	56.540086	0.000608	6.080414	1.030050	-0.000122
 701	6.9650e+01	6.0558	56.427046	0.000568	5.675053	0.961380	-0.000114
 702	6.9749e+01	6.0342	56.314006	0.000568	5.675053	0.961380	-0.000114
 703	6.9849e+01	6.0162	56.196929	0.000588	5.877733	0.995715	-0.000118
 704	6.9948e+01	5.9951	56.063704	0.000669	6.688455	1.133055	-0.000134
 705	7.0048e+01	5.9766	55.962776	0.000507	5.067011	0.858375	-0.000101
 706	7.0147e+01	5.9561	55.845699	0.000588	5.877733	0.995715	-0.000118
 707	7.0247e+01	5.9351	55.716510	0.000649	6.485774	1.098720	-0.000130
 708	7.0347e+01	5.9156	55.611545	0.000527	5.269692	0.892710	-0.000105
 709	7.0446e+01	5.8961	55.486394	0.000628	6.283094	1.064385	-0.000126
 710	7.0546e+01	5.8756	55.361242	0.000628	6.283094	1.064385	-0.000126
 711	7.0645e+01	5.8567	55.268388	0.000466	4.661650	0.789705	-0.000093
 712	7.0745e+01	5.8364	55.143237	0.000628	6.283094	1.064385	-0.000126
 713	7.0844e+01	5.8163	55.014049	0.000649	6.485774	1.098720	-0.000130
 714	7.0944e+01	5.7958	54.896972	0.000588	5.877733	0.995715	-0.000118
 715	7.1043e+01	5.7764	54.828340	0.000345	3.445568	0.583695	-0.000069
 716	7.1142e+01	5.7558	54.719338	0.000547	5.472372	0.927045	-0.000110
 717	7.1242e+01	5.7362	54.553815	0.000831	8.309898	1.407735	-0.000166
 718	7.1341e+01	5.7168	54.456924	0.000486	4.864331	0.824040	-0.000097
 719	7.1441e+01	5.6957	54.343884	0.000568	5.675053	0.961380	-0.000114
 720	7.1540e+01	5.6763	54.218733	0.000628	6.283094	1.064385	-0.000126
 721	7.1640e+01	5.6573	54.109730	0.000547	5.472372	0.927045	-0.000110
 722	7.1740e+01	5.6371	53.972468	0.000689	6.891135	1.167390	-0.000138
 723	7.1839e+01	5.6173	53.899799	0.000365	3.648248	0.618030	-0.000073
 724	7.1939e+01	5.5968	53.770611	0.000649	6.485774	1.098720	-0.000130
 725	7.2038e+01	5.5766	53.685831	0.000426	4.256289	0.721035	-0.000085
 726	7.2138e+01	5.5572	53.540494	0.000730	7.296496	1.236060	-0.000146
 727	7.2237e+01	5.5375	53.439566	0.000507	5.067011	0.858375	-0.000101
 728	7.2337e+01	5.5170	53.265969	0.000872	8.715259	1.476405	-0.000174
 729	7.2436e+01	5.4983	53.189263	0.000385	3.850929	0.652365	-0.000077
 730	7.2535e+01	5.4781	53.084298	0.000527	5.269692	0.892710	-0.000105
 731	7.2635e+01	5.4570	52.951072	0.000669	6.688455	1.133055	-0.000134
 732	7.2734e+01	5.4374	52.838033	0.000568	5.675053	0.961380	-0.000114
 733	7.2834e+01	5.4180	52.708844	0.000649	6.485774	1.098720	-0.000130
 734	7.2933e+01	5.3977	52.559470	0.000750	7.499177	1.270395	-0.000150
 735	7.3033e+01	5.3777	52.506987	0.000263	2.634846	0.446355	-0.000053
 736	7.3132e+01	5.3577	52.345502	0.000811	8.107218	1.373400	-0.000162
 737	7.3232e+01	5.3384	52.224388	0.000608	6.080414	1.030050	-0.000122
 738	7.3332e+01	5.3168	52.107311	0.000588	5.877733	0.995715	-0.000118
 739	7.3431e+01	5.2981	52.002345	0.000527	5.269692	0.892710	-0.000105
 740	7.3531e+01	5.2773	51.897380	0.000527	5.269692	0.892710	-0.000105
 741	7.3630e+01	5.2581	51.748006	0.000750	7.499177	1.270395	-0.000150
 742	7.3730e+01	5.2380	51.647077	0.000507	5.067011	0.858375	-0.000101
 743	7.3829e+01	5.2178	51.513852	0.000669	6.688455	1.133055	-0.000134
 744	7.3928e+01	5.1992	51.400812	0.000568	5.675053	0.961380	-0.000114
 745	7.4028e+01	5.1787	51.279698	0.000608	6.080414	1.030050	-0.000122
 746	7.4127e+01	5.1588	51.194918	0.000426	4.256289	0.721035	-0.000085
 747	7.4227e+01	5.1382	51.029396	0.000831	8.309898	1.407735	-0.000166
 748	7.4326e+01	5.1192	50.920393	0.000547	5.472372	0.927045	-0.000110
 749	7.4426e+01	5.0986	50.803316	0.000588	5.877733	0.995715	-0.000118
 750	7.4525e+01	5.0792	50.662016	0.000709	7.093816	1.201725	-0.000142
 751	7.4625e+01	5.0594	50.573199	0.000446	4.458970	0.755370	-0.000089
 752	7.4725e+01	5.0394	50.423825	0.000750	7.499177	1.270395	-0.000150
 753	7.4824e+01	5.0198	50.310786	0.000568	5.675053	0.961380	-0.000114
 754	7.4924e+01	4.9998	50.169486	0.000709	7.093816	1.201725	-0.000142
 755	7.5023e+01	4.9798	50.108929	0.000304	3.040207	0.515025	-0.000061
 756	7.5123e+01	4.9599	49.963592	0.000730	7.296496	1.236060	-0.000146
 757	7.5222e+01	4.9393	49.822292	0.000709	7.093816	1.201725	-0.000142
 758	7.5322e+01	4.9200	49.697141	0.000628	6.283094	1.064385	-0.000126
 759	7.5421e+01	4.9004	49.600250	0.000486	4.864331	0.824040	-0.000097
 760	7.5520e+01	4.8800	49.462987	0.000689	6.891135	1.167390	-0.000138
 761	7.5620e+01	4.8602	49.325724	0.000689	6.891135	1.167390	-0.000138
 762	7.5719e+01	4.8402	49.212685	0.000568	5.675053	0.961380	-0.000114
 763	7.5819e+01	4.8198	49.119831	0.000466	4.661650	0.789705	-0.000093
 764	7.5918e+01	4.8003	48.974494	0.000730	7.296496	1.236060	-0.000146
 765	7.6018e+01	4.7805	48.853380	0.000608	6.080414	1.030050	-0.000122
 766	7.6118e+01	4.7614	48.695931	0.000790	7.904538	1.339065	-0.000158
 767	7.6217e+01	4.7410	48.586929	0.000547	5.472372	0.927045	-0.000110
 768	7.6317e+01	4.7210	48.449666	0.000689	6.891135	1.167390	-0.000138
 769	7.6416e+01	4.7005	48.320478	0.000649	6.485774	1.098720	-0.000130
 770	7.6516e+01	4.6801	48.207438	0.000568	5.675053	0.961380	-0.000114
 771	7.6615e+01	4.6601	48.074212	0.000669	6.688455	1.133055	-0.000134
 772	7.6715e+01	4.6404	47.977321	0.000486	4.864331	0.824040	-0.000097
 773	7.6814e+01	4.6213	47.819873	0.000790	7.904538	1.339065	-0.000158
 774	7.6913e+01	4.6014	47.714907	0.000527	5.269692	0.892710	-0.000105
 775	7.7013e+01	4.5817	47.609942	0.000527	5.269692	0.892710	-0.000105
 776	7.7112e+01	4.5617	47.468642	0.000709	7.093816	1.201725	-0.000142
 777	7.7212e+01	4.5420	47.323305	0.000730	7.296496	1.236060	-0.000146
 778	7.7311e+01	4.5211	47.218340	0.000527	5.269692	0.892710	-0.000105
 779	7.7411e+01	4.5013	47.093188	0.000628	6.283094	1.064385	-0.000126
 780	7.7510e+01	4.4817	46.947851	0.000730	7.296496	1.236060	-0.000146
 781	7.7610e+01	4.4614	46.842886	0.000527	5.269692	0.892710	-0.000105
 782	7.7710e+01	4.4416	46.657178	0.000932	9.323301	1.579410	-0.000187
 783	7.7809e+01	4.4212	46.584509	0.000365	3.648248	0.618030	-0.000073
 784	7.7909e+01	4.4021	46.487618	0.000486	4.864331	0.824040	-0.000097
 785	7.8008e+01	4.3826	46.301910	0.000932	9.323301	1.579410	-0.000187
 786	7.8108e+01	4.3623	46.156573	0.000730	7.296496	1.236060	-0.000146
 787	7.8207e+01	4.3426	46.071793	0.000426	4.256289	0.721035	-0.000085
 788	7.8306e+01	4.3230	45.978939	0.000466	4.661650	0.789705	-0.000093
 789	7.8406e+01	4.3021	45.833602	0.000730	7.296496	1.236060	-0.000146
 790	7.8505e+01	4.2815	45.712488	0.000608	6.080414	1.030050	-0.000122
 791	7.8605e+01	4.2622	45.579262	0.000669	6.688455	1.133055	-0.000134
 792	7.8704e+01	4.2416	45.429888	0.000750	7.499177	1.270395	-0.000150
 793	7.8804e+01	4.2220	45.320886	0.000547	5.472372	0.927045	-0.000110
 794	7.8903e+01	4.2029	45.179586	0.000709	7.093816	1.201725	-0.000142
 795	7.9003e+01	4.1825	45.078658	0.000507	5.067011	0.858375	-0.000101
 796	7.9103e+01	4.1628	44.917172	0.000811	8.107218	1.373400	-0.000162
 797	7.9202e+01	4.1427	44.767798	0.000750	7.499177	1.270395	-0.000150
 798	7.9302e+01	4.1228	44.650721	0.000588	5.877733	0.995715	-0.000118
 799	7.9401e+01	4.1025	44.513459	0.000689	6.891135	1.167390	-0.000138
 800	7.9501e+01	4.0833	44.400419	0.000568	5.675053	0.961380	-0.000114
 801	7.9600e+01	4.0633	44.267193	0.000669	6.688455	1.133055	-0.000134
 802	7.9700e+01	4.0429	44.133968	0.000669	6.688455	1.133055	-0.000134
 803	7.9799e+01	4.0237	44.016891	0.000588	5.877733	0.995715	-0.000118
 804	7.9898e+01	4.0040	43.875591	0.000709	7.093816	1.201725	-0.000142
 805	7.9998e+01	3.9831	43.730254	0.000730	7.296496	1.236060	-0.000146
 806	8.0097e+01	3.9635	43.609140	0.000608	6.080414	1.030050	-0.000122
 807	8.0197e+01	3.9439	43.488026	0.000608	6.080414	1.030050	-0.000122
 808	8.0296e+01	3.9236	43.370949	0.000588	5.877733	0.995715	-0.000118
 809	8.0396e+01	3.9040	43.233687	0.000689	6.891135	1.167390	-0.000138
 810	8.0496e+01	3.8834	43.064127	0.000851	8.512579	1.442070	-0.000170
 811	8.0595e+01	3.8638	42.963199	0.000507	5.067011	0.858375	-0.000101
 812	8.0695e+01	3.8438	42.829973	0.000669	6.688455	1.133055	-0.000134
 813	8.0794e+01	3.8241	42.676562	0.000770	7.701857	1.304730	-0.000154
 814	8.0894e+01	3.8033	42.539299	0.000689	6.891135	1.167390	-0.000138
 815	8.0993e+01	3.7846	42.438371	0.000507	5.067011	0.858375	-0.000101
 816	8.1093e+01	3.7653	42.260737	0.000892	8.917940	1.510740	-0.000179
 817	8.1192e+01	3.7447	42.175957	0.000426	4.256289	0.721035	-0.000085
 818	8.1291e+01	3.7249	41.970063	0.001034	10.336703	1.751085	-0.000207
 819	8.1391e+01	3.7038	41.873172	0.000486	4.864331	0.824040	-0.000097
 820	8.1490e+01	3.6854	41.739946	0.000669	6.688455	1.133055	-0.000134
 821	8.1590e+01	3.6656	41.602684	0.000689	6.891135	1.167390	-0.000138
 822	8.1689e+01	3.6447	41.489644	0.000568	5.675053	0.961380	-0.000114
 823	8.1789e+01	3.6253	41.320084	0.000851	8.512579	1.442070	-0.000170
 824	8.1888e+01	3.6045	41.227230	0.000466	4.661650	0.789705	-0.000093
 825	8.1988e+01	3.5857	41.073819	0.000770	7.701857	1.304730	-0.000154
 826	8.2088e+01	3.5655	40.956742	0.000588	5.877733	0.995715	-0.000118
 827	8.2187e+01	3.5458	40.795257	0.000811	8.107218	1.373400	-0.000162
 828	8.2287e+01	3.5258	40.670105	0.000628	6.283094	1.064385	-0.000126
 829	8.2386e+01	3.5059	40.516694	0.000770	7.701857	1.304730	-0.000154
 830	8.2486e+01	3.4852	40.391543	0.000628	6.283094	1.064385	-0.000126
 831	8.2585e+01	3.4657	40.234095	0.000790	7.904538	1.339065	-0.000158
 832	8.2684e+01	3.4465	40.125092	0.000547	5.472372	0.927045	-0.000110
 833	8.2784e+01	3.4265	39.987829	0.000689	6.891135	1.167390	-0.000138
 834	8.2883e+01	3.4065	39.830381	0.000790	7.904538	1.339065	-0.000158
 835	8.2983e+01	3.3867	39.713304	0.000588	5.877733	0.995715	-0.000118
 836	8.3082e+01	3.3661	39.572005	0.000709	7.093816	1.201725	-0.000142
 837	8.3182e+01	3.3469	39.418593	0.000770	7.701857	1.304730	-0.000154
 838	8.3281e+01	3.3263	39.289405	0.000649	6.485774	1.098720	-0.000130
 839	8.3381e+01	3.3065	39.192514	0.000486	4.864331	0.824040	-0.000097
 840	8.3481e+01	3.2867	39.063325	0.000649	6.485774	1.098720	-0.000130
 841	8.3580e+01	3.2660	38.889729	0.000872	8.715259	1.476405	-0.000174
 842	8.3680e+01	3.2467	38.760540	0.000649	6.485774	1.098720	-0.000130
 843	8.3779e+01	3.2266	38.578869	0.000912	9.120620	1.545075	-0.000183
 844	8.3879e+01	3.2068	38.441606	0.000689	6.891135	1.167390	-0.000138
 845	8.3978e+01	3.1863	38.332604	0.000547	5.472372	0.927045	-0.000110
 846	8.4078e+01	3.1664	38.195341	0.000689	6.891135	1.167390	-0.000138
 847	8.4177e+01	3.1472	38.050004	0.000730	7.296496	1.236060	-0.000146
 848	8.4276e+01	3.1262	37.900630	0.000750	7.499177	1.270395	-0.000150
 849	8.4376e+01	3.1059	37.755293	0.000730	7.296496	1.236060	-0.000146
 850	8.4475e+01	3.0874	37.626105	0.000649	6.485774	1.098720	-0.000130
 851	8.4575e+01	3.0679	37.480768	0.000730	7.296496	1.236060	-0.000146
 852	8.4674e+01	3.0474	37.339468	0.000709	7.093816	1.201725	-0.000142
 853	8.4774e+01	3.0268	37.206243	0.000669	6.688455	1.133055	-0.000134
 854	8.4874e+01	3.0074	37.068980	0.000689	6.891135	1.167390	-0.000138
 855	8.4973e+01	2.9873	36.907495	0.000811	8.107218	1.373400	-0.000162
 856	8.5073e+01	2.9670	36.806567	0.000507	5.067011	0.858375	-0.000101
 857	8.5172e+01	2.9487	36.637007	0.000851	8.512579	1.442070	-0.000170
 858	8.5272e+01	2.9277	36.507818	0.000649	6.485774	1.098720	-0.000130
 859	8.5371e+01	2.9078	36.314036	0.000973	9.728662	1.648080	-0.000195
 860	8.5471e+01	2.8881	36.176773	0.000689	6.891135	1.167390	-0.000138
 861	8.5570e+01	2.8683	36.096031	0.000405	4.053609	0.686700	-0.000081
 862	8.5669e+01	2.8474	35.954731	0.000709	7.093816	1.201725	-0.000142
 863	8.5769e+01	2.8280	35.809394	0.000730	7.296496	1.236060	-0.000146
 864	8.5868e+01	2.8081	35.643871	0.000831	8.309898	1.407735	-0.000166
 865	8.5968e+01	2.7886	35.514683	0.000649	6.485774	1.098720	-0.000130
 866	8.6067e+01	2.7682	35.393569	0.000608	6.080414	1.030050	-0.000122
 867	8.6167e+01	2.7482	35.268418	0.000628	6.283094	1.064385	-0.000126
 868	8.6266e+01	2.7277	35.123081	0.000730	7.296496	1.236060	-0.000146
 869	8.6366e+01	2.7088	34.953521	0.000851	8.512579	1.442070	-0.000170
 870	8.6466e+01	2.6879	34.804147	0.000750	7.499177	1.270395	-0.000150
 871	8.6565e+01	2.6687	34.642662	0.000811	8.107218	1.373400	-0.000162
 872	8.6665e+01	2.6487	34.497325	0.000730	7.296496	1.236060	-0.000146
 873	8.6764e+01	2.6294	34.335839	0.000811	8.107218	1.373400	-0.000162
 874	8.6864e+01	2.6093	34.259134	0.000385	3.850929	0.652365	-0.000077
 875	8.6963e+01	2.5893	34.061314	0.000993	9.931342	1.682415	-0.000199
 876	8.7063e+01	2.5695	33.924052	0.000689	6.891135	1.167390	-0.000138
 877	8.7162e+01	2.5490	33.778715	0.000730	7.296496	1.236060	-0.000146
 878	8.7261e+01	2.5296	33.649526	0.000649	6.485774	1.098720	-0.000130
 879	8.7361e+01	2.5079	33.492078	0.000790	7.904538	1.339065	-0.000158
 880	8.7460e+01	2.4895	33.346741	0.000730	7.296496	1.236060	-0.000146
 881	8.7560e+01	2.4707	33.221590	0.000628	6.283094	1.064385	-0.000126
 882	8.7659e+01	2.4493	33.052030	0.000851	8.512579	1.442070	-0.000170
 883	8.7759e+01	2.4300	32.898619	0.000770	7.701857	1.304730	-0.000154
 884	8.7859e+01	2.4096	32.821914	0.000385	3.850929	0.652365	-0.000077
 885	8.7958e+01	2.3895	32.636205	0.000932	9.323301	1.579410	-0.000187
 886	8.8058e+01	2.3698	32.470683	0.000831	8.309898	1.407735	-0.000166
 887	8.8157e+01	2.3498	32.365717	0.000527	5.269692	0.892710	-0.000105
 888	8.8257e+01	2.3299	32.228455	0.000689	6.891135	1.167390	-0.000138
 889	8.8356e+01	2.3097	32.038709	0.000953	9.525981	1.613745	-0.000191
 890	8.8456e+01	2.2907	31.865112	0.000872	8.715259	1.476405	-0.000174
 891	8.8555e+01	2.2697	31.731887	0.000669	6.688455	1.133055	-0.000134
 892	8.8654e+01	2.2509	31.602699	0.000649	6.485774	1.098720	-0.000130
 893	8.8754e+01	2.2301	31.465436	0.000689	6.891135	1.167390	-0.000138
 894	8.8853e+01	2.2104	31.372582	0.000466	4.661650	0.789705	-0.000093
 895	8.8953e+01	2.1908	31.203022	0.000851	8.512579	1.442070	-0.000170
 896	8.9052e+01	2.1706	31.033462	0.000851	8.512579	1.442070	-0.000170
 897	8.9152e+01	2.1510	30.892163	0.000709	7.093816	1.201725	-0.000142
 898	8.9251e+01	2.1310	30.730677	0.000811	8.107218	1.373400	-0.000162
 899	8.9351e+01	2.1103	30.597452	0.000669	6.688455	1.133055	-0.000134
 900	8.9451e+01	2.0906	30.431929	0.000831	8.309898	1.407735	-0.000166
 901	8.9550e+01	2.0714	30.266407	0.000831	8.309898	1.407735	-0.000166
 902	8.9650e+01	2.0517	30.153367	0.000568	5.675053	0.961380	-0.000114
 903	8.9749e+01	2.0312	29.979770	0.000872	8.715259	1.476405	-0.000174
 904	8.9849e+01	2.0107	29.866730	0.000568	5.675053	0.961380	-0.000114
 905	8.9948e+01	1.9912	29.685059	0.000912	9.120620	1.545075	-0.000183
 906	9.0047e+01	1.9723	29.535685	0.000750	7.499177	1.270395	-0.000150
 907	9.0147e+01	1.9521	29.414571	0.000608	6.080414	1.030050	-0.000122
 908	9.0246e+01	1.9318	29.249048	0.000831	8.309898	1.407735	-0.000166
 909	9.0346e+01	1.9117	29.119860	0.000649	6.485774	1.098720	-0.000130
 910	9.0445e+01	1.8916	28.954338	0.000831	8.309898	1.407735	-0.000166
 911	9.0545e+01	1.8729	28.817075	0.000689	6.891135	1.167390	-0.000138
 912	9.0644e+01	1.8522	28.643478	0.000872	8.715259	1.476405	-0.000174
 913	9.0744e+01	1.8322	28.526401	0.000588	5.877733	0.995715	-0.000118
 914	9.0844e+01	1.8127	28.352804	0.000872	8.715259	1.476405	-0.000174
 915	9.0943e+01	1.7919	28.195356	0.000790	7.904538	1.339065	-0.000158
 916	9.1043e+01	1.7720	28.070205	0.000628	6.283094	1.064385	-0.000126
 917	9.1142e+01	1.7525	27.896608	0.000872	8.715259	1.476405	-0.000174
 918	9.1242e+01	1.7320	27.751271	0.000730	7.296496	1.236060	-0.000146
 919	9.1341e+01	1.7121	27.601897	0.000750	7.499177	1.270395	-0.000150
 920	9.1441e+01	1.6929	27.436374	0.000831	8.309898	1.407735	-0.000166
 921	9.1540e+01	1.6721	27.287000	0.000750	7.499177	1.270395	-0.000150
 922	9.1639e+01	1.6529	27.145701	0.000709	7.093816	1.201725	-0.000142
 923	9.1739e+01	1.6327	27.004401	0.000709	7.093816	1.201725	-0.000142
 924	9.1838e+01	1.6128	26.806581	0.000993	9.931342	1.682415	-0.000199
 925	9.1938e+01	1.5936	26.681430	0.000628	6.283094	1.064385	-0.000126
 926	9.2037e+01	1.5729	26.532056	0.000750	7.499177	1.270395	-0.000150
 927	9.2137e+01	1.5524	26.423053	0.000547	5.472372	0.927045	-0.000110
 928	9.2237e+01	1.5332	26.253494	0.000851	8.512579	1.442070	-0.000170
 929	9.2336e+01	1.5133	26.096045	0.000790	7.904538	1.339065	-0.000158
 930	9.2436e+01	1.4928	25.934560	0.000811	8.107218	1.373400	-0.000162
 931	9.2535e+01	1.4735	25.736740	0.000993	9.931342	1.682415	-0.000199
 932	9.2635e+01	1.4536	25.615626	0.000608	6.080414	1.030050	-0.000122
 933	9.2734e+01	1.4343	25.466252	0.000750	7.499177	1.270395	-0.000150
 934	9.2834e+01	1.4133	25.333027	0.000669	6.688455	1.133055	-0.000134
 935	9.2933e+01	1.3934	25.155393	0.000892	8.917940	1.510740	-0.000179
 936	9.3032e+01	1.3733	25.022167	0.000669	6.688455	1.133055	-0.000134
 937	9.3132e+01	1.3531	24.864719	0.000790	7.904538	1.339065	-0.000158
 938	9.3231e+01	1.3334	24.687085	0.000892	8.917940	1.510740	-0.000179
 939	9.3331e+01	1.3136	24.549822	0.000689	6.891135	1.167390	-0.000138
 940	9.3430e+01	1.2937	24.384300	0.000831	8.309898	1.407735	-0.000166
 941	9.3530e+01	1.2744	24.243000	0.000709	7.093816	1.201725	-0.000142
 942	9.3629e+01	1.2547	24.117849	0.000628	6.283094	1.064385	-0.000126
 943	9.3729e+01	1.2350	23.940215	0.000892	8.917940	1.510740	-0.000179
 944	9.3829e+01	1.2148	23.798915	0.000709	7.093816	1.201725	-0.000142
 945	9.3928e+01	1.1944	23.601096	0.000993	9.931342	1.682415	-0.000199
 946	9.4028e+01	1.1739	23.451722	0.000750	7.499177	1.270395	-0.000150
 947	9.4127e+01	1.1552	23.306385	0.000730	7.296496	1.236060	-0.000146
 948	9.4227e+01	1.1347	23.152973	0.000770	7.701857	1.304730	-0.000154
 949	9.4326e+01	1.1147	22.975339	0.000892	8.917940	1.510740	-0.000179
 950	9.4425e+01	1.0957	22.838077	0.000689	6.891135	1.167390	-0.000138
 951	9.4525e+01	1.0759	22.668517	0.000851	8.512579	1.442070	-0.000170
 952	9.4624e+01	1.0558	22.543366	0.000628	6.283094	1.064385	-0.000126
 953	9.4724e+01	1.0364	22.381881	0.000811	8.107218	1.373400	-0.000162
 954	9.4823e+01	1.0156	22.224432	0.000790	7.904538	1.339065	-0.000158
 955	9.4923e+01	0.9954	22.054873	0.000851	8.512579	1.442070	-0.000170
 956	9.5022e+01	0.9756	21.897424	0.000790	7.904538	1.339065	-0.000158
 957	9.5122e+01	0.9559	21.756124	0.000709	7.093816	1.201725	-0.000142
 958	9.5222e+01	0.9352	21.622899	0.000669	6.688455	1.133055	-0.000134
 959	9.5321e+01	0.9160	21.433154	0.000953	9.525981	1.613745	-0.000191
 960	9.5421e+01	0.8961	21.267631	0.000831	8.309898	1.407735	-0.000166
 961	9.5520e+01	0.8772	21.094034	0.000872	8.715259	1.476405	-0.000174
 962	9.5620e+01	0.8566	20.960809	0.000669	6.688455	1.133055	-0.000134
 963	9.5719e+01	0.8364	20.823546	0.000689	6.891135	1.167390	-0.000138
 964	9.5819e+01	0.8152	20.641875	0.000912	9.120620	1.545075	-0.000183
 965	9.5918e+01	0.7961	20.484427	0.000790	7.904538	1.339065	-0.000158
 966	9.6017e+01	0.7772	20.335053	0.000750	7.499177	1.270395	-0.000150
 967	9.6117e+01	0.7560	20.197790	0.000689	6.891135	1.167390	-0.000138
 968	9.6216e+01	0.7366	20.020156	0.000892	8.917940	1.510740	-0.000179
 969	9.6316e+01	0.7166	19.870782	0.000750	7.499177	1.270395	-0.000150
 970	9.6415e+01	0.6963	19.701222	0.000851	8.512579	1.442070	-0.000170
 971	9.6515e+01	0.6773	19.531663	0.000851	8.512579	1.442070	-0.000170
 972	9.6615e+01	0.6565	19.370177	0.000811	8.107218	1.373400	-0.000162
 973	9.6714e+01	0.6364	19.269249	0.000507	5.067011	0.858375	-0.000101
 974	9.6814e+01	0.6171	19.055281	0.001074	10.742064	1.819755	-0.000215
 975	9.6913e+01	0.5969	18.885721	0.000851	8.512579	1.442070	-0.000170
 976	9.7013e+01	0.5766	18.700013	0.000932	9.323301	1.579410	-0.000187
 977	9.7112e+01	0.5576	18.570824	0.000649	6.485774	1.098720	-0.000130
 978	9.7212e+01	0.5374	18.445673	0.000628	6.283094	1.064385	-0.000126
 979	9.7311e+01	0.5176	18.227668	0.001094	10.944744	1.854090	-0.000219
 980	9.7410e+01	0.4972	18.114628	0.000568	5.675053	0.961380	-0.000114
 981	9.7510e+01	0.4780	17.924883	0.000953	9.525981	1.613745	-0.000191
 982	9.7609e+01	0.4576	17.799731	0.000628	6.283094	1.064385	-0.000126
 983	9.7709e+01	0.4369	17.581726	0.001094	10.944744	1.854090	-0.000219
 984	9.7808e+01	0.4182	17.440426	0.000709	7.093816	1.201725	-0.000142
 985	9.7908e+01	0.3970	17.278941	0.000811	8.107218	1.373400	-0.000162
 986	9.8007e+01	0.3785	17.121493	0.000790	7.904538	1.339065	-0.000158
 987	9.8107e+01	0.3575	16.935784	0.000932	9.323301	1.579410	-0.000187
 988	9.8207e+01	0.3372	16.794485	0.000709	7.093816	1.201725	-0.000142
 989	9.8306e+01	0.3181	16.632999	0.000811	8.107218	1.373400	-0.000162
 990	9.8406e+01	0.2981	16.439217	0.000973	9.728662	1.648080	-0.000195
 991	9.8505e+01	0.2787	16.310028	0.000649	6.485774	1.098720	-0.000130
 992	9.8605e+01	0.2582	16.188914	0.000608	6.080414	1.030050	-0.000122
 993	9.8704e+01	0.2392	15.995132	0.000973	9.728662	1.648080	-0.000195
 994	9.8803e+01	0.2174	15.841721	0.000770	7.701857	1.304730	-0.000154
 995	9.8903e+01	0.1989	15.684272	0.000790	7.904538	1.339065	-0.000158
 996	9.9002e+01	0.1778	15.486453	0.000993	9.931342	1.682415	-0.000199
 997	9.9102e+01	0.1587	15.349190	0.000689	6.891135	1.167390	-0.000138
 998	9.9201e+01	0.1392	15.147333	0.001013	10.134023	1.716750	-0.000203
 999	9.9301e+01	0.1181	15.014108	0.000669	6.688455	1.133055	-0.000134
1000	9.9400e+01	0.0989	14.852622	0.000811	8.107218	1.373400	-0.000162
1001	9.9500e+01	0.0807	14.691137	0.000811	8.107218	1.373400	-0.000162
1002	9.9600e+01	0.0584	14.497354	0.000973	9.728662	1.648080	-0.000195
1003	9.9699e+01	0.0391	14.364129	0.000669	6.688455	1.133055	-0.000134
1004	9.9799e+01	0.0195	14.214755	0.000750	7.499177	1.270395	-0.000150
1005	9.9898e+01	-0.0009	14.057307	0.000790	7.904538	1.339065	-0.000158
1006	9.9998e+01	-0.0186	13.887747	0.000851	8.512579	1.442070	-0.000170
1007	1.0010e+02	-0.0388	13.706076	0.000912	9.120620	1.545075	-0.000183
1008	1.0020e+02	-0.0586	13.556702	0.000750	7.499177	1.270395	-0.000150
1009	1.0030e+02	-0.0787	13.395216	0.000811	8.107218	1.373400	-0.000162
1010	1.0040e+02	-0.0982	13.249879	0.000730	7.296496	1.236060	-0.000146
1011	1.0050e+02	-0.1177	13.100505	0.000750	7.499177	1.270395	-0.000150
1012	1.0059e+02	-0.1380	12.862314	0.001196	11.958147	2.025765	-0.000239
1013	1.0069e+02	-0.1577	12.725052	0.000689	6.891135	1.167390	-0.000138
1014	1.0079e+02	-0.1779	12.559529	0.000831	8.309898	1.407735	-0.000166
1015	1.0089e+02	-0.1984	12.394007	0.000831	8.309898	1.407735	-0.000166
1016	1.0099e+02	-0.2168	12.252707	0.000709	7.093816	1.201725	-0.000142
1017	1.0109e+02	-0.2374	12.099296	0.000770	7.701857	1.304730	-0.000154
1018	1.0119e+02	-0.2572	11.897439	0.001013	10.134023	1.716750	-0.000203
1019	1.0129e+02	-0.2778	11.756139	0.000709	7.093816	1.201725	-0.000142
1020	1.0139e+02	-0.2978	11.622914	0.000669	6.688455	1.133055	-0.000134
1021	1.0149e+02	-0.3186	11.433168	0.000953	9.525981	1.613745	-0.000191
1022	1.0159e+02	-0.3380	11.239386	0.000973	9.728662	1.648080	-0.000195
1023	1.0169e+02	-0.3577	11.102123	0.000689	6.891135	1.167390	-0.000138
1024	1.0179e+02	-0.3782	10.956786	0.000730	7.296496	1.236060	-0.000146
1025	1.0189e+02	-0.3982	10.746855	0.001054	10.539383	1.785420	-0.000211
1026	1.0199e+02	-0.4171	10.601518	0.000730	7.296496	1.236060	-0.000146
1027	1.0209e+02	-0.4374	10.419847	0.000912	9.120620	1.545075	-0.000183
1028	1.0219e+02	-0.4568	10.274510	0.000730	7.296496	1.236060	-0.000146
1029	1.0229e+02	-0.4775	10.125136	0.000750	7.499177	1.270395	-0.000150
1030	1.0239e+02	-0.4977	9.935391	0.000953	9.525981	1.613745	-0.000191
1031	1.0248e+02	-0.5177	9.794091	0.000709	7.093816	1.201725	-0.000142
1032	1.0258e+02	-0.5376	9.616457	0.000892	8.917940	1.510740	-0.000179
1033	1.0268e+02	-0.5569	9.459009	0.000790	7.904538	1.339065	-0.000158
1034	1.0278e+02	-0.5769	9.277338	0.000912	9.120620	1.545075	-0.000183
1035	1.0288e+02	-0.5975	9.140075	0.000689	6.891135	1.167390	-0.000138
1036	1.0298e+02	-0.6169	8.930144	0.001054	10.539383	1.785420	-0.000211
1037	1.0308e+02	-0.6358	8.792882	0.000689	6.891135	1.167390	-0.000138
1038	1.0318e+02	-0.6563	8.635433	0.000790	7.904538	1.339065	-0.000158
1039	1.0328e+02	-0.6768	8.441651	0.000973	9.728662	1.648080	-0.000195
1040	1.0338e+02	-0.6960	8.272091	0.000851	8.512579	1.442070	-0.000170
1041	1.0348e+02	-0.7166	8.106569	0.000831	8.309898	1.407735	-0.000166
1042	1.0358e+02	-0.7368	7.953157	0.000770	7.701857	1.304730	-0.000154
1043	1.0368e+02	-0.7561	7.803783	0.000750	7.499177	1.270395	-0.000150
1044	1.0378e+02	-0.7761	7.589815	0.001074	10.742064	1.819755	-0.000215
1045	1.0388e+02	-0.7952	7.420255	0.000851	8.512579	1.442070	-0.000170
1046	1.0398e+02	-0.8168	7.266844	0.000770	7.701857	1.304730	-0.000154
1047	1.0408e+02	-0.8361	7.117470	0.000750	7.499177	1.270395	-0.000150
1048	1.0418e+02	-0.8554	6.903502	0.001074	10.742064	1.819755	-0.000215
1049	1.0428e+02	-0.8763	6.758165	0.000730	7.296496	1.236060	-0.000146
1050	1.0438e+02	-0.8957	6.608791	0.000750	7.499177	1.270395	-0.000150
1051	1.0447e+02	-0.9159	6.479603	0.000649	6.485774	1.098720	-0.000130
1052	1.0457e+02	-0.9351	6.273709	0.001034	10.336703	1.751085	-0.000207
1053	1.0467e+02	-0.9552	6.128372	0.000730	7.296496	1.236060	-0.000146
1054	1.0477e+02	-0.9750	5.958812	0.000851	8.512579	1.442070	-0.000170
1055	1.0487e+02	-0.9958	5.765030	0.000973	9.728662	1.648080	-0.000195
1056	1.0497e+02	-1.0156	5.615656	0.000750	7.499177	1.270395	-0.000150
1057	1.0507e+02	-1.0345	5.433985	0.000912	9.120620	1.545075	-0.000183
1058	1.0517e+02	-1.0558	5.316908	0.000588	5.877733	0.995715	-0.000118
1059	1.0527e+02	-1.0747	5.139274	0.000892	8.917940	1.510740	-0.000179
1060	1.0537e+02	-1.0941	4.961640	0.000892	8.917940	1.510740	-0.000179
1061	1.0547e+02	-1.1143	4.800154	0.000811	8.107218	1.373400	-0.000162
1062	1.0557e+02	-1.1346	4.634632	0.000831	8.309898	1.407735	-0.000166
1063	1.0567e+02	-1.1555	4.420664	0.001074	10.742064	1.819755	-0.000215
1064	1.0577e+02	-1.1752	4.303587	0.000588	5.877733	0.995715	-0.000118
1065	1.0587e+02	-1.1945	4.125953	0.000892	8.917940	1.510740	-0.000179
1066	1.0597e+02	-1.2151	3.968504	0.000790	7.904538	1.339065	-0.000158
1067	1.0607e+02	-1.2337	3.778759	0.000953	9.525981	1.613745	-0.000191
1068	1.0617e+02	-1.2547	3.653608	0.000628	6.283094	1.064385	-0.000126
1069	1.0627e+02	-1.2746	3.451751	0.001013	10.134023	1.716750	-0.000203
1070	1.0637e+02	-1.2936	3.338711	0.000568	5.675053	0.961380	-0.000114
1071	1.0647e+02	-1.3136	3.124743	0.001074	10.742064	1.819755	-0.000215
1072	1.0656e+02	-1.3335	2.983443	0.000709	7.093816	1.201725	-0.000142
1073	1.0666e+02	-1.3510	2.842144	0.000709	7.093816	1.201725	-0.000142
1074	1.0676e+02	-1.3730	2.636250	0.001034	10.336703	1.751085	-0.000207
1075	1.0686e+02	-1.3931	2.454579	0.000912	9.120620	1.545075	-0.000183
1076	1.0696e+02	-1.4131	2.313279	0.000709	7.093816	1.201725	-0.000142
1077	1.0706e+02	-1.4334	2.171979	0.000709	7.093816	1.201725	-0.000142
1078	1.0716e+02	-1.4536	1.998382	0.000872	8.715259	1.476405	-0.000174
1079	1.0726e+02	-1.4732	1.832860	0.000831	8.309898	1.407735	-0.000166
1080	1.0736e+02	-1.4934	1.594669	0.001196	11.958147	2.025765	-0.000239
1081	1.0746e+02	-1.5135	1.473555	0.000608	6.080414	1.030050	-0.000122
1082	1.0756e+02	-1.5330	1.279772	0.000973	9.728662	1.648080	-0.000195
1083	1.0766e+02	-1.5527	1.150584	0.000649	6.485774	1.098720	-0.000130
1084	1.0776e+02	-1.5729	0.997173	0.000770	7.701857	1.304730	-0.000154
1085	1.0786e+02	-1.5929	0.811464	0.000932	9.323301	1.579410	-0.000187
1086	1.0796e+02	-1.6125	0.649979	0.000811	8.107218	1.373400	-0.000162
1087	1.0806e+02	-1.6331	0.480419	0.000851	8.512579	1.442070	-0.000170
1088	1.0816e+02	-1.6528	0.314897	0.000831	8.309898	1.407735	-0.000166
1089	1.0826e+02	-1.6724	0.141300	0.000872	8.715259	1.476405	-0.000174
1090	1.0836e+02	-1.6924	-0.020186	0.000811	8.107218	1.373400	-0.000162
1091	1.0845e+02	-1.7130	-0.185708	0.000831	8.309898	1.407735	-0.000166
1092	1.0855e+02	-1.7325	-0.335082	0.000750	7.499177	1.270395	-0.000150
1093	1.0865e+02	-1.7526	-0.524828	0.000953	9.525981	1.613745	-0.000191
1094	1.0875e+02	-1.7717	-0.666127	0.000709	7.093816	1.201725	-0.000142
1095	1.0885e+02	-1.7917	-0.859910	0.000973	9.728662	1.648080	-0.000195
1096	1.0895e+02	-1.8129	-1.009284	0.000750	7.499177	1.270395	-0.000150
1097	1.0905e+02	-1.8324	-1.186918	0.000892	8.917940	1.510740	-0.000179
1098	1.0915e+02	-1.8517	-1.336292	0.000750	7.499177	1.270395	-0.000150
1099	1.0925e+02	-1.8723	-1.489703	0.000770	7.701857	1.304730	-0.000154
1100	1.0935e+02	-1.8918	-1.683486	0.000973	9.728662	1.648080	-0.000195
1101	1.0945e+02	-1.9115	-1.853045	0.000851	8.512579	1.442070	-0.000170
1102	1.0955e+02	-1.9316	-2.006456	0.000770	7.701857	1.304730	-0.000154
1103	1.0965e+02	-1.9516	-2.200239	0.000973	9.728662	1.648080	-0.000195
1104	1.0975e+02	-1.9716	-2.361724	0.000811	8.107218	1.373400	-0.000162
1105	1.0985e+02	-1.9907	-2.515136	0.000770	7.701857	1.304730	-0.000154
1106	1.0995e+02	-2.0112	-2.704881	0.000953	9.525981	1.613745	-0.000191
1107	1.1005e+02	-2.0306	-2.809846	0.000527	5.269692	0.892710	-0.000105
1108	1.1015e+02	-2.0514	-3.011703	0.001013	10.134023	1.716750	-0.000203
1109	1.1025e+02	-2.0708	-3.157040	0.000730	7.296496	1.236060	-0.000146
1110	1.1035e+02	-2.0895	-3.330637	0.000872	8.715259	1.476405	-0.000174
1111	1.1044e+02	-2.1108	-3.500197	0.000851	8.512579	1.442070	-0.000170
1112	1.1054e+02	-2.1313	-3.657645	0.000790	7.904538	1.339065	-0.000158
1113	1.1064e+02	-2.1507	-3.835279	0.000892	8.917940	1.510740	-0.000179
1114	1.1074e+02	-2.1707	-3.988690	0.000770	7.701857	1.304730	-0.000154
1115	1.1084e+02	-2.1913	-4.174398	0.000932	9.323301	1.579410	-0.000187
1116	1.1094e+02	-2.2101	-4.307624	0.000669	6.688455	1.133055	-0.000134
1117	1.1104e+02	-2.2301	-4.461035	0.000770	7.701857	1.304730	-0.000154
1118	1.1114e+02	-2.2506	-4.658855	0.000993	9.931342	1.682415	-0.000199
1119	1.1124e+02	-2.2708	-4.784006	0.000628	6.283094	1.064385	-0.000126
1120	1.1134e+02	-2.2914	-4.969714	0.000932	9.323301	1.579410	-0.000187
1121	1.1144e+02	-2.3108	-5.119088	0.000750	7.499177	1.270395	-0.000150
1122	1.1154e+02	-2.3302	-5.312871	0.000973	9.728662	1.648080	-0.000195
1123	1.1164e+02	-2.3511	-5.466282	0.000770	7.701857	1.304730	-0.000154
1124	1.1174e+02	-2.3703	-5.623730	0.000790	7.904538	1.339065	-0.000158
1125	1.1184e+02	-2.3899	-5.805401	0.000912	9.120620	1.545075	-0.000183
1126	1.1194e+02	-2.4100	-5.962849	0.000790	7.904538	1.339065	-0.000158
1127	1.1204e+02	-2.4298	-6.140483	0.000892	8.917940	1.510740	-0.000179
1128	1.1214e+02	-2.4495	-6.297932	0.000790	7.904538	1.339065	-0.000158
1129	1.1224e+02	-2.4693	-6.455380	0.000790	7.904538	1.339065	-0.000158
1130	1.1234e+02	-2.4898	-6.604754	0.000750	7.499177	1.270395	-0.000150
1131	1.1244e+02	-2.5095	-6.794499	0.000953	9.525981	1.613745	-0.000191
1132	1.1253e+02	-2.5287	-6.927725	0.000669	6.688455	1.133055	-0.000134
1133	1.1263e+02	-2.5486	-7.077099	0.000750	7.499177	1.270395	-0.000150
1134	1.1273e+02	-2.5699	-7.254733	0.000892	8.917940	1.510740	-0.000179
1135	1.1283e+02	-2.5885	-7.396033	0.000709	7.093816	1.201725	-0.000142
1136	1.1293e+02	-2.6080	-7.589815	0.000973	9.728662	1.648080	-0.000195
1137	1.1303e+02	-2.6288	-7.747263	0.000790	7.904538	1.339065	-0.000158
1138	1.1313e+02	-2.6483	-7.908749	0.000811	8.107218	1.373400	-0.000162
1139	1.1323e+02	-2.6678	-8.062160	0.000770	7.701857	1.304730	-0.000154
1140	1.1333e+02	-2.6879	-8.255943	0.000973	9.728662	1.648080	-0.000195
1141	1.1343e+02	-2.7075	-8.405317	0.000750	7.499177	1.270395	-0.000150
1142	1.1353e+02	-2.7286	-8.554691	0.000750	7.499177	1.270395	-0.000150
1143	1.1363e+02	-2.7477	-8.712139	0.000790	7.904538	1.339065	-0.000158
1144	1.1373e+02	-2.7686	-8.865550	0.000770	7.701857	1.304730	-0.000154
1145	1.1383e+02	-2.7885	-9.059333	0.000973	9.728662	1.648080	-0.000195
1146	1.1393e+02	-2.8082	-9.216781	0.000790	7.904538	1.339065	-0.000158
1147	1.1403e+02	-2.8288	-9.378266	0.000811	8.107218	1.373400	-0.000162
1148	1.1413e+02	-2.8484	-9.539752	0.000811	8.107218	1.373400	-0.000162
1149	1.1423e+02	-2.8679	-9.737571	0.000993	9.931342	1.682415	-0.000199
1150	1.1433e+02	-2.8871	-9.842537	0.000527	5.269692	0.892710	-0.000105
1151	1.1442e+02	-2.9066	-9.999985	0.000790	7.904538	1.339065	-0.000158
1152	1.1452e+02	-2.9276	-10.169545	0.000851	8.512579	1.442070	-0.000170
1153	1.1462e+02	-2.9473	-10.347179	0.000892	8.917940	1.510740	-0.000179
1154	1.1472e+02	-2.9681	-10.524813	0.000892	8.917940	1.510740	-0.000179
1155	1.1482e+02	-2.9880	-10.666113	0.000709	7.093816	1.201725	-0.000142
1156	1.1492e+02	-3.0080	-10.839709	0.000872	8.715259	1.476405	-0.000174
1157	1.1502e+02	-3.0261	-11.017343	0.000892	8.917940	1.510740	-0.000179
1158	1.1512e+02	-3.0472	-11.154606	0.000689	6.891135	1.167390	-0.000138
1159	1.1522e+02	-3.0667	-11.303980	0.000750	7.499177	1.270395	-0.000150
1160	1.1532e+02	-3.0865	-11.465465	0.000811	8.107218	1.373400	-0.000162
1161	1.1542e+02	-3.1069	-11.643099	0.000892	8.917940	1.510740	-0.000179
1162	1.1552e+02	-3.1271	-11.840919	0.000993	9.931342	1.682415	-0.000199
1163	1.1562e+02	-3.1462	-11.970107	0.000649	6.485774	1.098720	-0.000130
1164	1.1572e+02	-3.1665	-12.111407	0.000709	7.093816	1.201725	-0.000142
1165	1.1582e+02	-3.1863	-12.268856	0.000790	7.904538	1.339065	-0.000158
1166	1.1592e+02	-3.2059	-12.434378	0.000831	8.309898	1.407735	-0.000166
1167	1.1602e+02	-3.2258	-12.607975	0.000872	8.715259	1.476405	-0.000174
1168	1.1612e+02	-3.2466	-12.765423	0.000790	7.904538	1.339065	-0.000158
1169	1.1622e+02	-3.2667	-12.910760	0.000730	7.296496	1.236060	-0.000146
1170	1.1632e+02	-3.2854	-13.043986	0.000669	6.688455	1.133055	-0.000134
1171	1.1642e+02	-3.3055	-13.233731	0.000953	9.525981	1.613745	-0.000191
1172	1.1651e+02	-3.3263	-13.354845	0.000608	6.080414	1.030050	-0.000122
1173	1.1661e+02	-3.3459	-13.528442	0.000872	8.715259	1.476405	-0.000174
1174	1.1671e+02	-3.3656	-13.693964	0.000831	8.309898	1.407735	-0.000166
1175	1.1681e+02	-3.3862	-13.859487	0.000831	8.309898	1.407735	-0.000166
1176	1.1691e+02	-3.4063	-14.012898	0.000770	7.701857	1.304730	-0.000154
1177	1.1701e+02	-3.4258	-14.182458	0.000851	8.512579	1.442070	-0.000170
1178	1.1711e+02	-3.4462	-14.339906	0.000790	7.904538	1.339065	-0.000158
1179	1.1721e+02	-3.4653	-14.473132	0.000669	6.688455	1.133055	-0.000134
1180	1.1731e+02	-3.4860	-14.638654	0.000831	8.309898	1.407735	-0.000166
1181	1.1741e+02	-3.5057	-14.788028	0.000750	7.499177	1.270395	-0.000150
1182	1.1751e+02	-3.5254	-14.933365	0.000730	7.296496	1.236060	-0.000146
1183	1.1761e+02	-3.5429	-15.094851	0.000811	8.107218	1.373400	-0.000162
1184	1.1771e+02	-3.5658	-15.260373	0.000831	8.309898	1.407735	-0.000166
1185	1.1781e+02	-3.5846	-15.425896	0.000831	8.309898	1.407735	-0.000166
1186	1.1791e+02	-3.6057	-15.595455	0.000851	8.512579	1.442070	-0.000170
1187	1.1801e+02	-3.6249	-15.732718	0.000689	6.891135	1.167390	-0.000138
1188	1.1811e+02	-3.6444	-15.861906	0.000649	6.485774	1.098720	-0.000130
1189	1.1821e+02	-3.6654	-16.059726	0.000993	9.931342	1.682415	-0.000199
1190	1.1831e+02	-3.6856	-16.188914	0.000649	6.485774	1.098720	-0.000130
1191	1.1841e+02	-3.7048	-16.362511	0.000872	8.715259	1.476405	-0.000174
1192	1.1850e+02	-3.7238	-16.503811	0.000709	7.093816	1.201725	-0.000142
1193	1.1860e+02	-3.7452	-16.669333	0.000831	8.309898	1.407735	-0.000166
1194	1.1870e+02	-3.7646	-16.810633	0.000709	7.093816	1.201725	-0.000142
1195	1.1880e+02	-3.7831	-16.960007	0.000750	7.499177	1.270395	-0.000150
1196	1.1890e+02	-3.8037	-17.093233	0.000669	6.688455	1.133055	-0.000134
1197	1.1900e+02	-3.8241	-17.262792	0.000851	8.512579	1.442070	-0.000170
1198	1.1910e+02	-3.8445	-17.440426	0.000892	8.917940	1.510740	-0.000179
1199	1.1920e+02	-3.8644	-17.549429	0.000547	5.472372	0.927045	-0.000110
1200	1.1930e+02	-3.8844	-17.751286	0.001013	10.134023	1.716750	-0.000203
1201	1.1940e+02	-3.9036	-17.900660	0.000750	7.499177	1.270395	-0.000150
1202	1.1950e+02	-3.9231	-18.045997	0.000730	7.296496	1.236060	-0.000146
1203	1.1960e+02	-3.9430	-18.171148	0.000628	6.283094	1.064385	-0.000126
1204	1.1970e+02	-3.9633	-18.344745	0.000872	8.715259	1.476405	-0.000174
1205	1.1980e+02	-3.9830	-18.506230	0.000811	8.107218	1.373400	-0.000162
1206	1.1990e+02	-4.0027	-18.655604	0.000750	7.499177	1.270395	-0.000150
1207	1.2000e+02	-4.0227	-18.788830	0.000669	6.688455	1.133055	-0.000134
1208	1.2010e+02	-4.0434	-18.958389	0.000851	8.512579	1.442070	-0.000170
1209	1.2020e+02	-4.0623	-19.103726	0.000730	7.296496	1.236060	-0.000146
1210	1.2030e+02	-4.0826	-19.277323	0.000872	8.715259	1.476405	-0.000174
1211	1.2039e+02	-4.1022	-19.406511	0.000649	6.485774	1.098720	-0.000130
1212	1.2049e+02	-4.1228	-19.580108	0.000872	8.715259	1.476405	-0.000174
1213	1.2059e+02	-4.1428	-19.713334	0.000669	6.688455	1.133055	-0.000134
1214	1.2069e+02	-4.1629	-19.882894	0.000851	8.512579	1.442070	-0.000170
1215	1.2079e+02	-4.1821	-20.056490	0.000872	8.715259	1.476405	-0.000174
1216	1.2089e+02	-4.2030	-20.181642	0.000628	6.283094	1.064385	-0.000126
1217	1.2099e+02	-4.2218	-20.322941	0.000709	7.093816	1.201725	-0.000142
1218	1.2109e+02	-4.2420	-20.464241	0.000709	7.093816	1.201725	-0.000142
1219	1.2119e+02	-4.2627	-20.617652	0.000770	7.701857	1.304730	-0.000154
1220	1.2129e+02	-4.2825	-20.795286	0.000892	8.917940	1.510740	-0.000179
1221	1.2139e+02	-4.3020	-20.956772	0.000811	8.107218	1.373400	-0.000162
1222	1.2149e+02	-4.3219	-21.061737	0.000527	5.269692	0.892710	-0.000105
1223	1.2159e+02	-4.3427	-21.215148	0.000770	7.701857	1.304730	-0.000154
1224	1.2169e+02	-4.3625	-21.392782	0.000892	8.917940	1.510740	-0.000179
1225	1.2179e+02	-4.3820	-21.521971	0.000649	6.485774	1.098720	-0.000130
1226	1.2189e+02	-4.4022	-21.626936	0.000527	5.269692	0.892710	-0.000105
1227	1.2199e+02	-4.4223	-21.792459	0.000831	8.309898	1.407735	-0.000166
1228	1.2209e+02	-4.4409	-21.945870	0.000770	7.701857	1.304730	-0.000154
1229	1.2219e+02	-4.4614	-22.135615	0.000953	9.525981	1.613745	-0.000191
1230	1.2229e+02	-4.4804	-22.280952	0.000730	7.296496	1.236060	-0.000146
1231	1.2239e+02	-4.5021	-22.385918	0.000527	5.269692	0.892710	-0.000105
1232	1.2248e+02	-4.5213	-22.575663	0.000953	9.525981	1.613745	-0.000191
1233	1.2258e+02	-4.5412	-22.712926	0.000689	6.891135	1.167390	-0.000138
1234	1.2268e+02	-4.5607	-22.862300	0.000750	7.499177	1.270395	-0.000150
1235	1.2278e+02	-4.5815	-22.983414	0.000608	6.080414	1.030050	-0.000122
1236	1.2288e+02	-4.6021	-23.152973	0.000851	8.512579	1.442070	-0.000170
1237	1.2298e+02	-4.6208	-23.282162	0.000649	6.485774	1.098720	-0.000130
1238	1.2308e+02	-4.6399	-23.451722	0.000851	8.512579	1.442070	-0.000170
1239	1.2318e+02	-4.6603	-23.593021	0.000709	7.093816	1.201725	-0.000142
1240	1.2328e+02	-4.6805	-23.758544	0.000831	8.309898	1.407735	-0.000166
1241	1.2338e+02	-4.6997	-23.831212	0.000365	3.648248	0.618030	-0.000073
1242	1.2348e+02	-4.7209	-24.053255	0.001115	11.147425	1.888425	-0.000223
1243	1.2358e+02	-4.7401	-24.170332	0.000588	5.877733	0.995715	-0.000118
1244	1.2368e+02	-4.7604	-24.275297	0.000527	5.269692	0.892710	-0.000105
1245	1.2378e+02	-4.7800	-24.440820	0.000831	8.309898	1.407735	-0.000166
1246	1.2388e+02	-4.8006	-24.614417	0.000872	8.715259	1.476405	-0.000174
1247	1.2398e+02	-4.8209	-24.767828	0.000770	7.701857	1.304730	-0.000154
1248	1.2408e+02	-4.8400	-24.901053	0.000669	6.688455	1.133055	-0.000134
1249	1.2418e+02	-4.8601	-25.034279	0.000669	6.688455	1.133055	-0.000134
1250	1.2428e+02	-4.8804	-25.199801	0.000831	8.309898	1.407735	-0.000166
1251	1.2438e+02	-4.8991	-25.357250	0.000790	7.904538	1.339065	-0.000158
1252	1.2447e+02	-4.9199	-25.478364	0.000608	6.080414	1.030050	-0.000122
1253	1.2457e+02	-4.9393	-25.635812	0.000790	7.904538	1.339065	-0.000158
1254	1.2467e+02	-4.9605	-25.736740	0.000507	5.067011	0.858375	-0.000101
1255	1.2477e+02	-4.9796	-25.942634	0.001034	10.336703	1.751085	-0.000207
1256	1.2487e+02	-4.9994	-26.071823	0.000649	6.485774	1.098720	-0.000130
1257	1.2497e+02	-5.0195	-26.209085	0.000689	6.891135	1.167390	-0.000138
1258	1.2507e+02	-5.0389	-26.378645	0.000851	8.512579	1.442070	-0.000170
1259	1.2517e+02	-5.0583	-26.519945	0.000709	7.093816	1.201725	-0.000142
1260	1.2527e+02	-5.0781	-26.632984	0.000568	5.675053	0.961380	-0.000114
1261	1.2537e+02	-5.1001	-26.802544	0.000851	8.512579	1.442070	-0.000170
1262	1.2547e+02	-5.1186	-26.931733	0.000649	6.485774	1.098720	-0.000130
1263	1.2557e+02	-5.1389	-27.097255	0.000831	8.309898	1.407735	-0.000166
1264	1.2567e+02	-5.1576	-27.186072	0.000446	4.458970	0.755370	-0.000089
1265	1.2577e+02	-5.1782	-27.363706	0.000892	8.917940	1.510740	-0.000179
1266	1.2587e+02	-5.1977	-27.513080	0.000750	7.499177	1.270395	-0.000150
1267	1.2597e+02	-5.2180	-27.650343	0.000689	6.891135	1.167390	-0.000138
1268	1.2607e+02	-5.2393	-27.827977	0.000892	8.917940	1.510740	-0.000179
1269	1.2617e+02	-5.2585	-27.953128	0.000628	6.283094	1.064385	-0.000126
1270	1.2627e+02	-5.2788	-28.078279	0.000628	6.283094	1.064385	-0.000126
1271	1.2636e+02	-5.2984	-28.255913	0.000892	8.917940	1.510740	-0.000179
1272	1.2646e+02	-5.3172	-28.381064	0.000628	6.283094	1.064385	-0.000126
1273	1.2656e+02	-5.3378	-28.522364	0.000709	7.093816	1.201725	-0.000142
1274	1.2666e+02	-5.3578	-28.663664	0.000709	7.093816	1.201725	-0.000142
1275	1.2676e+02	-5.3778	-28.817075	0.000770	7.701857	1.304730	-0.000154
1276	1.2686e+02	-5.3972	-28.954338	0.000689	6.891135	1.167390	-0.000138
1277	1.2696e+02	-5.4169	-29.119860	0.000831	8.309898	1.407735	-0.000166
1278	1.2706e+02	-5.4381	-29.200603	0.000405	4.053609	0.686700	-0.000081
1279	1.2716e+02	-5.4576	-29.402460	0.001013	10.134023	1.716750	-0.000203
1280	1.2726e+02	-5.4779	-29.527611	0.000628	6.283094	1.064385	-0.000126
1281	1.2736e+02	-5.4970	-29.701208	0.000872	8.715259	1.476405	-0.000174
1282	1.2746e+02	-5.5174	-29.814247	0.000568	5.675053	0.961380	-0.000114
1283	1.2756e+02	-5.5376	-29.995919	0.000912	9.120620	1.545075	-0.000183
1284	1.2766e+02	-5.5563	-30.121070	0.000628	6.283094	1.064385	-0.000126
1285	1.2776e+02	-5.5772	-30.270444	0.000750	7.499177	1.270395	-0.000150
1286	1.2786e+02	-5.5969	-30.391558	0.000608	6.080414	1.030050	-0.000122
1287	1.2796e+02	-5.6177	-30.577266	0.000932	9.323301	1.579410	-0.000187
1288	1.2806e+02	-5.6363	-30.702417	0.000628	6.283094	1.064385	-0.000126
1289	1.2816e+02	-5.6564	-30.831606	0.000649	6.485774	1.098720	-0.000130
1290	1.2826e+02	-5.6776	-30.989054	0.000790	7.904538	1.339065	-0.000158
1291	1.2835e+02	-5.6969	-31.146502	0.000790	7.904538	1.339065	-0.000158
1292	1.2845e+02	-5.7174	-31.291839	0.000730	7.296496	1.236060	-0.000146
1293	1.2855e+02	-5.7368	-31.412953	0.000608	6.080414	1.030050	-0.000122
1294	1.2865e+02	-5.7564	-31.574439	0.000811	8.107218	1.373400	-0.000162
1295	1.2875e+02	-5.7764	-31.752073	0.000892	8.917940	1.510740	-0.000179
1296	1.2885e+02	-5.7971	-31.857038	0.000527	5.269692	0.892710	-0.000105
1297	1.2895e+02	-5.8161	-31.986226	0.000649	6.485774	1.098720	-0.000130
1298	1.2905e+02	-5.8361	-32.163860	0.000892	8.917940	1.510740	-0.000179
1299	1.2915e+02	-5.8566	-32.317272	0.000770	7.701857	1.304730	-0.000154
1300	1.2925e+02	-5.8766	-32.478757	0.000811	8.107218	1.373400	-0.000162
1301	1.2935e+02	-5.8955	-32.607945	0.000649	6.485774	1.098720	-0.000130
1302	1.2945e+02	-5.9157	-32.745208	0.000689	6.891135	1.167390	-0.000138
1303	1.2955e+02	-5.9363	-32.918805	0.000872	8.715259	1.476405	-0.000174
1304	1.2965e+02	-5.9558	-33.047993	0.000649	6.485774	1.098720	-0.000130
1305	1.2975e+02	-5.9749	-33.225627	0.000892	8.917940	1.510740	-0.000179
1306	1.2985e+02	-5.9958	-33.366927	0.000709	7.093816	1.201725	-0.000142
1307	1.2995e+02	-6.0146	-33.512264	0.000730	7.296496	1.236060	-0.000146
1308	1.3005e+02	-6.0355	-33.645489	0.000669	6.688455	1.133055	-0.000134
1309	1.3015e+02	-6.0553	-33.815049	0.000851	8.512579	1.442070	-0.000170
1310	1.3025e+02	-6.0751	-33.940200	0.000628	6.283094	1.064385	-0.000126
1311	1.3034e+02	-6.0948	-34.138020	0.000993	9.931342	1.682415	-0.000199
1312	1.3044e+02	-6.1151	-34.242985	0.000527	5.269692	0.892710	-0.000105
1313	1.3054e+02	-6.1348	-34.404471	0.000811	8.107218	1.373400	-0.000162
1314	1.3064e+02	-6.1555	-34.586142	0.000912	9.120620	1.545075	-0.000183
1315	1.3074e+02	-6.1749	-34.703219	0.000588	5.877733	0.995715	-0.000118
1316	1.3084e+02	-6.1955	-34.884890	0.000912	9.120620	1.545075	-0.000183
1317	1.3094e+02	-6.2155	-35.010041	0.000628	6.283094	1.064385	-0.000126
1318	1.3104e+02	-6.2355	-35.191712	0.000912	9.120620	1.545075	-0.000183
1319	1.3114e+02	-6.2537	-35.349161	0.000790	7.904538	1.339065	-0.000158
1320	1.3124e+02	-6.2739	-35.470275	0.000608	6.080414	1.030050	-0.000122
1321	1.3134e+02	-6.2945	-35.651946	0.000912	9.120620	1.545075	-0.000183
1322	1.3144e+02	-6.3147	-35.785171	0.000669	6.688455	1.133055	-0.000134
1323	1.3154e+02	-6.3342	-35.942619	0.000790	7.904538	1.339065	-0.000158
1324	1.3164e+02	-6.3541	-36.091993	0.000750	7.499177	1.270395	-0.000150
1325	1.3174e+02	-6.3745	-36.241368	0.000750	7.499177	1.270395	-0.000150
1326	1.3184e+02	-6.3940	-36.394779	0.000770	7.701857	1.304730	-0.000154
1327	1.3194e+02	-6.4133	-36.536078	0.000709	7.093816	1.201725	-0.000142
1328	1.3204e+02	-6.4343	-36.713712	0.000892	8.917940	1.510740	-0.000179
1329	1.3214e+02	-6.4527	-36.834826	0.000608	6.080414	1.030050	-0.000122
1330	1.3224e+02	-6.4734	-37.032646	0.000993	9.931342	1.682415	-0.000199
1331	1.3234e+02	-6.4937	-37.141649	0.000547	5.472372	0.927045	-0.000110
1332	1.3243e+02	-6.5140	-37.315246	0.000872	8.715259	1.476405	-0.000174
1333	1.3253e+02	-6.5341	-37.476731	0.000811	8.107218	1.373400	-0.000162
1334	1.3263e+02	-6.5524	-37.626105	0.000750	7.499177	1.270395	-0.000150
1335	1.3273e+02	-6.5744	-37.763368	0.000689	6.891135	1.167390	-0.000138
1336	1.3283e+02	-6.5927	-37.949076	0.000932	9.323301	1.579410	-0.000187
1337	1.3293e+02	-6.6129	-38.118636	0.000851	8.512579	1.442070	-0.000170
1338	1.3303e+02	-6.6327	-38.263973	0.000730	7.296496	1.236060	-0.000146
1339	1.3313e+02	-6.6519	-38.425458	0.000811	8.107218	1.373400	-0.000162
1340	1.3323e+02	-6.6733	-38.578869	0.000770	7.701857	1.304730	-0.000154
1341	1.3333e+02	-6.6927	-38.699983	0.000608	6.080414	1.030050	-0.000122
1342	1.3343e+02	-6.7134	-38.885691	0.000932	9.323301	1.579410	-0.000187
1343	1.3353e+02	-6.7331	-39.059288	0.000872	8.715259	1.476405	-0.000174
1344	1.3363e+02	-6.7527	-39.249034	0.000953	9.525981	1.613745	-0.000191
1345	1.3373e+02	-6.7723	-39.374185	0.000628	6.283094	1.064385	-0.000126
1346	1.3383e+02	-6.7934	-39.543745	0.000851	8.512579	1.442070	-0.000170
1347	1.3393e+02	-6.8127	-39.713304	0.000851	8.512579	1.442070	-0.000170
1348	1.3403e+02	-6.8326	-39.866715	0.000770	7.701857	1.304730	-0.000154
1349	1.3413e+02	-6.8527	-40.028201	0.000811	8.107218	1.373400	-0.000162
1350	1.3423e+02	-6.8723	-40.217946	0.000953	9.525981	1.613745	-0.000191
1351	1.3432e+02	-6.8929	-40.335023	0.000588	5.877733	0.995715	-0.000118
1352	1.3442e+02	-6.9125	-40.516694	0.000912	9.120620	1.545075	-0.000183
1353	1.3452e+02	-6.9325	-40.690291	0.000872	8.715259	1.476405	-0.000174
1354	1.3462e+02	-6.9519	-40.811405	0.000608	6.080414	1.030050	-0.000122
1355	1.3472e+02	-6.9711	-41.029411	0.001094	10.944744	1.854090	-0.000219
1356	1.3482e+02	-6.9917	-41.138413	0.000547	5.472372	0.927045	-0.000110
1357	1.3492e+02	-7.0114	-41.348344	0.001054	10.539383	1.785420	-0.000211
1358	1.3502e+02	-7.0314	-41.465421	0.000588	5.877733	0.995715	-0.000118
1359	1.3512e+02	-7.0505	-41.667278	0.001013	10.134023	1.716750	-0.000203
1360	1.3522e+02	-7.0706	-41.816652	0.000750	7.499177	1.270395	-0.000150
1361	1.3532e+02	-7.0914	-41.990249	0.000872	8.715259	1.476405	-0.000174
1362	1.3542e+02	-7.1124	-42.175957	0.000932	9.323301	1.579410	-0.000187
1363	1.3552e+02	-7.1304	-42.341480	0.000831	8.309898	1.407735	-0.000166
1364	1.3562e+02	-7.1510	-42.450482	0.000547	5.472372	0.927045	-0.000110
1365	1.3572e+02	-7.1706	-42.672525	0.001115	11.147425	1.888425	-0.000223
1366	1.3582e+02	-7.1905	-42.842084	0.000851	8.512579	1.442070	-0.000170
1367	1.3592e+02	-7.2113	-43.027793	0.000932	9.323301	1.579410	-0.000187
1368	1.3602e+02	-7.2310	-43.177167	0.000750	7.499177	1.270395	-0.000150
1369	1.3612e+02	-7.2493	-43.338652	0.000811	8.107218	1.373400	-0.000162
1370	1.3622e+02	-7.2705	-43.516286	0.000892	8.917940	1.510740	-0.000179
1371	1.3631e+02	-7.2911	-43.677772	0.000811	8.107218	1.373400	-0.000162
1372	1.3641e+02	-7.3102	-43.819071	0.000709	7.093816	1.201725	-0.000142
1373	1.3651e+02	-7.3306	-43.996705	0.000892	8.917940	1.510740	-0.000179
1374	1.3661e+02	-7.3503	-44.210673	0.001074	10.742064	1.819755	-0.000215
1375	1.3671e+02	-7.3706	-44.327750	0.000588	5.877733	0.995715	-0.000118
1376	1.3681e+02	-7.3899	-44.565941	0.001196	11.958147	2.025765	-0.000239
1377	1.3691e+02	-7.4098	-44.751650	0.000932	9.323301	1.579410	-0.000187
1378	1.3701e+02	-7.4305	-44.941395	0.000953	9.525981	1.613745	-0.000191
1379	1.3711e+02	-7.4503	-45.070583	0.000649	6.485774	1.098720	-0.000130
1380	1.3721e+02	-7.4702	-45.292626	0.001115	11.147425	1.888425	-0.000223
1381	1.3731e+02	-7.4897	-45.409703	0.000588	5.877733	0.995715	-0.000118
1382	1.3741e+02	-7.5095	-45.587337	0.000892	8.917940	1.510740	-0.000179
1383	1.3751e+02	-7.5296	-45.769008	0.000912	9.120620	1.545075	-0.000183
1384	1.3761e+02	-7.5497	-45.974902	0.001034	10.336703	1.751085	-0.000207
1385	1.3771e+02	-7.5693	-46.156573	0.000912	9.120620	1.545075	-0.000183
1386	1.3781e+02	-7.5890	-46.293836	0.000689	6.891135	1.167390	-0.000138
1387	1.3791e+02	-7.6086	-46.511841	0.001094	10.944744	1.854090	-0.000219
1388	1.3801e+02	-7.6289	-46.653141	0.000709	7.093816	1.201725	-0.000142
1389	1.3811e+02	-7.6486	-46.846923	0.000973	9.728662	1.648080	-0.000195
1390	1.3821e+02	-7.6672	-47.056854	0.001054	10.539383	1.785420	-0.000211
1391	1.3831e+02	-7.6888	-47.222377	0.000831	8.309898	1.407735	-0.000166
1392	1.3840e+02	-7.7086	-47.391936	0.000851	8.512579	1.442070	-0.000170
1393	1.3850e+02	-7.7283	-47.577645	0.000932	9.323301	1.579410	-0.000187
1394	1.3860e+02	-7.7480	-47.771427	0.000973	9.728662	1.648080	-0.000195
1395	1.3870e+02	-7.7684	-47.973284	0.001013	10.134023	1.716750	-0.000203
1396	1.3880e+02	-7.7885	-48.118621	0.000730	7.296496	1.236060	-0.000146
1397	1.3890e+02	-7.8085	-48.324515	0.001034	10.336703	1.751085	-0.000207
1398	1.3900e+02	-7.8279	-48.481963	0.000790	7.904538	1.339065	-0.000158
1399	1.3910e+02	-7.8484	-48.708043	0.001135	11.350105	1.922760	-0.000227
1400	1.3920e+02	-7.8674	-48.873565	0.000831	8.309898	1.407735	-0.000166
1401	1.3930e+02	-7.8876	-49.063311	0.000953	9.525981	1.613745	-0.000191
1402	1.3940e+02	-7.9073	-49.257093	0.000973	9.728662	1.648080	-0.000195
1403	1.3950e+02	-7.9279	-49.467024	0.001054	10.539383	1.785420	-0.000211
1404	1.3960e+02	-7.9477	-49.672918	0.001034	10.336703	1.751085	-0.000207
1405	1.3970e+02	-7.9675	-49.822292	0.000750	7.499177	1.270395	-0.000150
1406	1.3980e+02	-7.9868	-49.995889	0.000872	8.715259	1.476405	-0.000174
1407	1.3990e+02	-8.0073	-50.185634	0.000953	9.525981	1.613745	-0.000191
1408	1.4000e+02	-8.0264	-50.427863	0.001216	12.160827	2.060100	-0.000243
1409	1.4010e+02	-8.0467	-50.585311	0.000790	7.904538	1.339065	-0.000158
1410	1.4020e+02	-8.0670	-50.811390	0.001135	11.350105	1.922760	-0.000227
1411	1.4029e+02	-8.0879	-51.013247	0.001013	10.134023	1.716750	-0.000203
1412	1.4039e+02	-8.1070	-51.194918	0.000912	9.120620	1.545075	-0.000183
1413	1.4049e+02	-8.1262	-51.396775	0.001013	10.134023	1.716750	-0.000203
1414	1.4059e+02	-8.1468	-51.566335	0.000851	8.512579	1.442070	-0.000170
1415	1.4069e+02	-8.1665	-51.792414	0.001135	11.350105	1.922760	-0.000227
1416	1.4079e+02	-8.1863	-51.974085	0.000912	9.120620	1.545075	-0.000183
1417	1.4089e+02	-8.2059	-52.216314	0.001216	12.160827	2.060100	-0.000243
1418	1.4099e+02	-8.2266	-52.385873	0.000851	8.512579	1.442070	-0.000170
1419	1.4109e+02	-8.2467	-52.571582	0.000932	9.323301	1.579410	-0.000187
1420	1.4119e+02	-8.2654	-52.769401	0.000993	9.931342	1.682415	-0.000199
1421	1.4129e+02	-8.2856	-52.987407	0.001094	10.944744	1.854090	-0.000219
1422	1.4139e+02	-8.3063	-53.209449	0.001115	11.147425	1.888425	-0.000223
1423	1.4149e+02	-8.3255	-53.383046	0.000872	8.715259	1.476405	-0.000174
1424	1.4159e+02	-8.3452	-53.576828	0.000973	9.728662	1.648080	-0.000195
1425	1.4169e+02	-8.3658	-53.839242	0.001317	13.174229	2.231775	-0.000264
1426	1.4179e+02	-8.3858	-54.028988	0.000953	9.525981	1.613745	-0.000191
1427	1.4189e+02	-8.4061	-54.222770	0.000973	9.728662	1.648080	-0.000195
1428	1.4199e+02	-8.4267	-54.440775	0.001094	10.944744	1.854090	-0.000219
1429	1.4209e+02	-8.4462	-54.642632	0.001013	10.134023	1.716750	-0.000203
1430	1.4219e+02	-8.4654	-54.844489	0.001013	10.134023	1.716750	-0.000203
1431	1.4228e+02	-8.4850	-55.038272	0.000973	9.728662	1.648080	-0.000195
1432	1.4238e+02	-8.5059	-55.268388	0.001155	11.552786	1.957095	-0.000231
1433	1.4248e+02	-8.5254	-55.506579	0.001196	11.958147	2.025765	-0.000239
1434	1.4258e+02	-8.5446	-55.704399	0.000993	9.931342	1.682415	-0.000199
1435	1.4268e+02	-8.5658	-55.950664	0.001236	12.363507	2.094435	-0.000248
1436	1.4278e+02	-8.5857	-56.100038	0.000750	7.499177	1.270395	-0.000150
1437	1.4288e+02	-8.6049	-56.390712	0.001459	14.592992	2.472120	-0.000292
1438	1.4298e+02	-8.6251	-56.580457	0.000953	9.525981	1.613745	-0.000191
1439	1.4308e+02	-8.6444	-56.810574	0.001155	11.552786	1.957095	-0.000231
1440	1.4318e+02	-8.6646	-56.992245	0.000912	9.120620	1.545075	-0.000183
1441	1.4328e+02	-8.6844	-57.214288	0.001115	11.147425	1.888425	-0.000223
1442	1.4338e+02	-8.7042	-57.496887	0.001419	14.187632	2.403450	-0.000284
1443	1.4348e+02	-8.7251	-57.686633	0.000953	9.525981	1.613745	-0.000191
1444	1.4358e+02	-8.7447	-57.912712	0.001135	11.350105	1.922760	-0.000227
1445	1.4368e+02	-8.7643	-58.134755	0.001115	11.147425	1.888425	-0.000223
1446	1.4378e+02	-8.7837	-58.368909	0.001176	11.755466	1.991430	-0.000235
1447	1.4388e+02	-8.8040	-58.594988	0.001135	11.350105	1.922760	-0.000227
1448	1.4398e+02	-8.8244	-58.833179	0.001196	11.958147	2.025765	-0.000239
1449	1.4408e+02	-8.8434	-59.047147	0.001074	10.742064	1.819755	-0.000215
1450	1.4418e+02	-8.8629	-59.305524	0.001297	12.971549	2.197440	-0.000260
1451	1.4428e+02	-8.8837	-59.527566	0.001115	11.147425	1.888425	-0.000223
1452	1.4437e+02	-8.9042	-59.761720	0.001176	11.755466	1.991430	-0.000235
1453	1.4447e+02	-8.9230	-60.007986	0.001236	12.363507	2.094435	-0.000248
1454	1.4457e+02	-8.9427	-60.246177	0.001196	11.958147	2.025765	-0.000239
1455	1.4467e+02	-8.9630	-60.472256	0.001135	11.350105	1.922760	-0.000227
1456	1.4477e+02	-8.9835	-60.698336	0.001135	11.350105	1.922760	-0.000227
1457	1.4487e+02	-9.0030	-60.924415	0.001135	11.350105	1.922760	-0.000227
1458	1.4497e+02	-9.0225	-61.162606	0.001196	11.958147	2.025765	-0.000239
1459	1.4507e+02	-9.0427	-61.412909	0.001257	12.566188	2.128770	-0.000252
1460	1.4517e+02	-9.0628	-61.659174	0.001236	12.363507	2.094435	-0.000248
1461	1.4527e+02	-9.0829	-61.921588	0.001317	13.174229	2.231775	-0.000264
1462	1.4537e+02	-9.1025	-62.095185	0.000872	8.715259	1.476405	-0.000174
1463	1.4547e+02	-9.1222	-62.406044	0.001561	15.606395	2.643795	-0.000312
1464	1.4557e+02	-9.1420	-62.632124	0.001135	11.350105	1.922760	-0.000227
1465	1.4567e+02	-9.1621	-62.862241	0.001155	11.552786	1.957095	-0.000231
1466	1.4577e+02	-9.1817	-63.108506	0.001236	12.363507	2.094435	-0.000248
1467	1.4587e+02	-9.2029	-63.415328	0.001540	15.403714	2.609460	-0.000308
1468	1.4597e+02	-9.2223	-63.637371	0.001115	11.147425	1.888425	-0.000223
1469	1.4607e+02	-9.2421	-63.891710	0.001277	12.768868	2.163105	-0.000256
1470	1.4617e+02	-9.2618	-64.166235	0.001378	13.782271	2.334780	-0.000276
1471	1.4626e+02	-9.2818	-64.424612	0.001297	12.971549	2.197440	-0.000260
1472	1.4636e+02	-9.3021	-64.662803	0.001196	11.958147	2.025765	-0.000239
1473	1.4646e+02	-9.3219	-64.925217	0.001317	13.174229	2.231775	-0.000264
1474	1.4656e+02	-9.3429	-65.232039	0.001540	15.403714	2.609460	-0.000308
1475	1.4666e+02	-9.3616	-65.437933	0.001034	10.336703	1.751085	-0.000207
1476	1.4676e+02	-9.3826	-65.712458	0.001378	13.782271	2.334780	-0.000276
1477	1.4686e+02	-9.4017	-65.970835	0.001297	12.971549	2.197440	-0.000260
1478	1.4696e+02	-9.4217	-66.217100	0.001236	12.363507	2.094435	-0.000248
1479	1.4706e+02	-9.4411	-66.511811	0.001480	14.795673	2.506455	-0.000296
1480	1.4716e+02	-9.4606	-66.794411	0.001419	14.187632	2.403450	-0.000284
1481	1.4726e+02	-9.4806	-67.093159	0.001500	14.998353	2.540790	-0.000300
1482	1.4736e+02	-9.5018	-67.351536	0.001297	12.971549	2.197440	-0.000260
1483	1.4746e+02	-9.5210	-67.642209	0.001459	14.592992	2.472120	-0.000292
1484	1.4756e+02	-9.5414	-67.928846	0.001439	14.390312	2.437785	-0.000288
1485	1.4766e+02	-9.5602	-68.142814	0.001074	10.742064	1.819755	-0.000215
1486	1.4776e+02	-9.5805	-68.461748	0.001601	16.011756	2.712465	-0.000321
1487	1.4786e+02	-9.6001	-68.740310	0.001398	13.984951	2.369115	-0.000280
1488	1.4796e+02	-9.6209	-68.970427	0.001155	11.552786	1.957095	-0.000231
1489	1.4806e+02	-9.6400	-69.273212	0.001520	15.201034	2.575125	-0.000304
1490	1.4816e+02	-9.6606	-69.620406	0.001743	17.430519	2.952810	-0.000349
1491	1.4825e+02	-9.6799	-69.862634	0.001216	12.160827	2.060100	-0.000243
1492	1.4835e+02	-9.7009	-70.181568	0.001601	16.011756	2.712465	-0.000321
1493	1.4845e+02	-9.7211	-70.443981	0.001317	13.174229	2.231775	-0.000264
1494	1.4855e+02	-9.7397	-70.706395	0.001317	13.174229	2.231775	-0.000264
1495	1.4865e+02	-9.7602	-71.053589	0.001743	17.430519	2.952810	-0.000349
1496	1.4875e+02	-9.7798	-71.340226	0.001439	14.390312	2.437785	-0.000288
1497	1.4885e+02	-9.7986	-71.643011	0.001520	15.201034	2.575125	-0.000304
1498	1.4895e+02	-9.8192	-71.897350	0.001277	12.768868	2.163105	-0.000256
1499	1.4905e+02	-9.8389	-72.240507	0.001723	17.227838	2.918475	-0.000345
1500	1.4915e+02	-9.8595	-72.547329	0.001540	15.403714	2.609460	-0.000308
1501	1.4925e+02	-9.8795	-72.825892	0.001398	13.984951	2.369115	-0.000280
1502	1.4935e+02	-9.8997	-73.104454	0.001398	13.984951	2.369115	-0.000280
1503	1.4945e+02	-9.9195	-73.427425	0.001621	16.214436	2.746800	-0.000325
1504	1.4955e+02	-9.9384	-73.726173	0.001500	14.998353	2.540790	-0.000300
1505	1.4965e+02	-9.9604	-74.041069	0.001581	15.809075	2.678130	-0.000316
1506	1.4975e+02	-9.9799	-74.331743	0.001459	14.592992	2.472120	-0.000292
1507	1.4985e+02	-9.9995	-74.650677	0.001601	16.011756	2.712465	-0.000321
1508	1.4995e+02	-9.9802	-74.767754	-0.000588	-5.877733	-0.995715	-0.000118
1509	1.5005e+02	-9.9591	-74.929239	-0.000811	-8.107218	-1.373400	-0.000162
1510	1.5015e+02	-9.9395	-75.026131	-0.000486	-4.864331	-0.824040	-0.000097
1511	1.5025e+02	-9.9194	-75.123022	-0.000486	-4.864331	-0.824040	-0.000097
1512	1.5034e+02	-9.9009	-75.215876	-0.000466	-4.661650	-0.789705	-0.000093
1513	1.5044e+02	-9.8798	-75.268359	-0.000263	-2.634846	-0.446355	-0.000053
1514	1.5054e+02	-9.8590	-75.353139	-0.000426	-4.256289	-0.721035	-0.000085
1515	1.5064e+02	-9.8389	-75.417733	-0.000324	-3.242887	-0.549360	-0.000065
1516	1.5074e+02	-9.8193	-75.454067	-0.000182	-1.824124	-0.309015	-0.000037
1517	1.5084e+02	-9.8003	-75.567107	-0.000568	-5.675053	-0.961380	-0.000114
1518	1.5094e+02	-9.7794	-75.579218	-0.000061	-0.608041	-0.103005	-0.000012
1519	1.5104e+02	-9.7609	-75.591330	-0.000061	-0.608041	-0.103005	-0.000012
1520	1.5114e+02	-9.7400	-75.672072	-0.000405	-4.053609	-0.686700	-0.000081
1521	1.5124e+02	-9.7198	-75.740704	-0.000345	-3.445568	-0.583695	-0.000069
1522	1.5134e+02	-9.6999	-75.720518	0.000101	1.013402	0.171675	0.000020
1523	1.5144e+02	-9.6805	-75.764926	-0.000223	-2.229485	-0.377685	-0.000045
1524	1.5154e+02	-9.6602	-75.809335	-0.000223	-2.229485	-0.377685	-0.000045
1525	1.5164e+02	-9.6404	-75.793186	0.000081	0.810722	0.137340	0.000016
1526	1.5174e+02	-9.6211	-75.865855	-0.000365	-3.648248	-0.618030	-0.000073
1527	1.5184e+02	-9.5999	-75.829521	0.000182	1.824124	0.309015	0.000037
1528	1.5194e+02	-9.5809	-75.882003	-0.000263	-2.634846	-0.446355	-0.000053
1529	1.5204e+02	-9.5599	-75.898152	-0.000081	-0.810722	-0.137340	-0.000016
1530	1.5214e+02	-9.5402	-75.882003	0.000081	0.810722	0.137340	0.000016
1531	1.5224e+02	-9.5218	-75.869892	0.000061	0.608041	0.103005	0.000012
1532	1.5233e+02	-9.5020	-75.894115	-0.000122	-1.216083	-0.206010	-0.000024
1533	1.5243e+02	-9.4810	-75.853743	0.000203	2.026805	0.343350	0.000041
1534	1.5253e+02	-9.4611	-75.845669	0.000041	0.405361	0.068670	0.000008
1535	1.5263e+02	-9.4411	-75.845669	0.000000	0.000000	0.000000	0.000000
1536	1.5273e+02	-9.4207	-75.841632	0.000020	0.202680	0.034335	0.000004
1537	1.5283e+02	-9.4022	-75.853743	-0.000061	-0.608041	-0.103005	-0.000012
1538	1.5293e+02	-9.3819	-75.849706	0.000020	0.202680	0.034335	0.000004
1539	1.5303e+02	-9.3618	-75.789149	0.000304	3.040207	0.515025	0.000061
1540	1.5313e+02	-9.3410	-75.793186	-0.000020	-0.202680	-0.034335	-0.000004
1541	1.5323e+02	-9.3222	-75.789149	0.000020	0.202680	0.034335	0.000004
1542	1.5333e+02	-9.3012	-75.752815	0.000182	1.824124	0.309015	0.000037
1543	1.5343e+02	-9.2827	-75.752815	0.000000	0.000000	0.000000	0.000000
1544	1.5353e+02	-9.2622	-75.748778	0.000020	0.202680	0.034335	0.000004
1545	1.5363e+02	-9.2427	-75.676109	0.000365	3.648248	0.618030	0.000073
1546	1.5373e+02	-9.2231	-75.696295	-0.000101	-1.013402	-0.171675	-0.000020
1547	1.5383e+02	-9.2029	-75.627664	0.000345	3.445568	0.583695	0.000069
1548	1.5393e+02	-9.1820	-75.563070	0.000324	3.242887	0.549360	0.000065
1549	1.5403e+02	-9.1621	-75.563070	0.000000	0.000000	0.000000	0.000000
1550	1.5413e+02	-9.1434	-75.534810	0.000142	1.418763	0.240345	0.000028
1551	1.5422e+02	-9.1222	-75.470215	0.000324	3.242887	0.549360	0.000065
1552	1.5432e+02	-9.1016	-75.486364	-0.000081	-0.810722	-0.137340	-0.000016
1553	1.5442e+02	-9.0817	-75.417733	0.000345	3.445568	0.583695	0.000069
1554	1.5452e+02	-9.0620	-75.353139	0.000324	3.242887	0.549360	0.000065
1555	1.5462e+02	-9.0427	-75.328916	0.000122	1.216083	0.206010	0.000024
1556	1.5472e+02	-9.0229	-75.300656	0.000142	1.418763	0.240345	0.000028
1557	1.5482e+02	-9.0034	-75.292582	0.000041	0.405361	0.068670	0.000008
1558	1.5492e+02	-8.9819	-75.187616	0.000527	5.269692	0.892710	0.000105
1559	1.5502e+02	-8.9629	-75.171467	0.000081	0.810722	0.137340	0.000016
1560	1.5512e+02	-8.9429	-75.123022	0.000243	2.432165	0.412020	0.000049
1561	1.5522e+02	-8.9233	-75.066502	0.000284	2.837526	0.480690	0.000057
1562	1.5532e+02	-8.9030	-74.977685	0.000446	4.458970	0.755370	0.000089
1563	1.5542e+02	-8.8828	-74.937314	0.000203	2.026805	0.343350	0.000041
1564	1.5552e+02	-8.8635	-74.929239	0.000041	0.405361	0.068670	0.000008
1565	1.5562e+02	-8.8438	-74.844459	0.000426	4.256289	0.721035	0.000085
1566	1.5572e+02	-8.8229	-74.796014	0.000243	2.432165	0.412020	0.000049
1567	1.5582e+02	-8.8042	-74.691048	0.000527	5.269692	0.892710	0.000105
1568	1.5592e+02	-8.7836	-74.695085	-0.000020	-0.202680	-0.034335	-0.000004
1569	1.5602e+02	-8.7643	-74.606268	0.000446	4.458970	0.755370	0.000089
1570	1.5612e+02	-8.7451	-74.537637	0.000345	3.445568	0.583695	0.000069
1571	1.5622e+02	-8.7251	-74.493229	0.000223	2.229485	0.377685	0.000045
1572	1.5631e+02	-8.7039	-74.464969	0.000142	1.418763	0.240345	0.000028
1573	1.5641e+02	-8.6839	-74.388263	0.000385	3.850929	0.652365	0.000077
1574	1.5651e+02	-8.6635	-74.315595	0.000365	3.648248	0.618030	0.000073
1575	1.5661e+02	-8.6447	-74.267149	0.000243	2.432165	0.412020	0.000049
1576	1.5671e+02	-8.6252	-74.170258	0.000486	4.864331	0.824040	0.000097
1577	1.5681e+02	-8.6050	-74.133924	0.000182	1.824124	0.309015	0.000037
1578	1.5691e+02	-8.5852	-74.089515	0.000223	2.229485	0.377685	0.000045
1579	1.5701e+02	-8.5652	-73.996661	0.000466	4.661650	0.789705	0.000093
1580	1.5711e+02	-8.5449	-73.903807	0.000466	4.661650	0.789705	0.000093
1581	1.5721e+02	-8.5260	-73.847287	0.000284	2.837526	0.480690	0.000057
1582	1.5731e+02	-8.5048	-73.798841	0.000243	2.432165	0.412020	0.000049
1583	1.5741e+02	-8.4859	-73.766544	0.000162	1.621444	0.274680	0.000032
1584	1.5751e+02	-8.4653	-73.645430	0.000608	6.080414	1.030050	0.000122
1585	1.5761e+02	-8.4458	-73.584873	0.000304	3.040207	0.515025	0.000061
1586	1.5771e+02	-8.4258	-73.496056	0.000446	4.458970	0.755370	0.000089
1587	1.5781e+02	-8.4048	-73.475870	0.000101	1.013402	0.171675	0.000020
1588	1.5791e+02	-8.3850	-73.407239	0.000345	3.445568	0.583695	0.000069
1589	1.5801e+02	-8.3650	-73.269977	0.000689	6.891135	1.167390	0.000138
1590	1.5811e+02	-8.3453	-73.253828	0.000081	0.810722	0.137340	0.000016
1591	1.5821e+02	-8.3257	-73.177122	0.000385	3.850929	0.652365	0.000077
1592	1.5830e+02	-8.3057	-73.112528	0.000324	3.242887	0.549360	0.000065
1593	1.5840e+02	-8.2867	-73.031786	0.000405	4.053609	0.686700	0.000081
1594	1.5850e+02	-8.2668	-72.959117	0.000365	3.648248	0.618030	0.000073
1595	1.5860e+02	-8.2468	-72.898560	0.000304	3.040207	0.515025	0.000061
1596	1.5870e+02	-8.2266	-72.785520	0.000568	5.675053	0.961380	0.000114
1597	1.5880e+02	-8.2056	-72.708815	0.000385	3.850929	0.652365	0.000077
1598	1.5890e+02	-8.1869	-72.628072	0.000405	4.053609	0.686700	0.000081
1599	1.5900e+02	-8.1680	-72.579626	0.000243	2.432165	0.412020	0.000049
1600	1.5910e+02	-8.1463	-72.474661	0.000527	5.269692	0.892710	0.000105
1601	1.5920e+02	-8.1262	-72.397955	0.000385	3.850929	0.652365	0.000077
1602	1.5930e+02	-8.1065	-72.321250	0.000385	3.850929	0.652365	0.000077
1603	1.5940e+02	-8.0867	-72.260693	0.000304	3.040207	0.515025	0.000061
1604	1.5950e+02	-8.0667	-72.171876	0.000446	4.458970	0.755370	0.000089
1605	1.5960e+02	-8.0479	-72.099207	0.000365	3.648248	0.618030	0.000073
1606	1.5970e+02	-8.0267	-72.042687	0.000284	2.837526	0.480690	0.000057
1607	1.5980e+02	-8.0069	-71.925610	0.000588	5.877733	0.995715	0.000118
1608	1.5990e+02	-7.9860	-71.848905	0.000385	3.850929	0.652365	0.000077
1609	1.6000e+02	-7.9665	-71.768162	0.000405	4.053609	0.686700	0.000081
1610	1.6010e+02	-7.9480	-71.743939	0.000122	1.216083	0.206010	0.000024
1611	1.6019e+02	-7.9270	-71.610714	0.000669	6.688455	1.133055	0.000134
1612	1.6029e+02	-7.9073	-71.546120	0.000324	3.242887	0.549360	0.000065
1613	1.6039e+02	-7.8877	-71.477488	0.000345	3.445568	0.583695	0.000069
1614	1.6049e+02	-7.8677	-71.372523	0.000527	5.269692	0.892710	0.000105
1615	1.6059e+02	-7.8476	-71.283706	0.000446	4.458970	0.755370	0.000089
1616	1.6069e+02	-7.8276	-71.174703	0.000547	5.472372	0.927045	0.000110
1617	1.6079e+02	-7.8081	-71.089923	0.000426	4.256289	0.721035	0.000085
1618	1.6089e+02	-7.7881	-71.045515	0.000223	2.229485	0.377685	0.000045
1619	1.6099e+02	-7.7678	-70.924401	0.000608	6.080414	1.030050	0.000122
1620	1.6109e+02	-7.7485	-70.819435	0.000527	5.269692	0.892710	0.000105
1621	1.6119e+02	-7.7292	-70.775027	0.000223	2.229485	0.377685	0.000045
1622	1.6129e+02	-7.7081	-70.686210	0.000446	4.458970	0.755370	0.000089
1623	1.6139e+02	-7.6873	-70.593356	0.000466	4.661650	0.789705	0.000093
1624	1.6149e+02	-7.6683	-70.500501	0.000466	4.661650	0.789705	0.000093
1625	1.6159e+02	-7.6479	-70.403610	0.000486	4.864331	0.824040	0.000097
1626	1.6169e+02	-7.6291	-70.322867	0.000405	4.053609	0.686700	0.000081
1627	1.6179e+02	-7.6091	-70.209828	0.000568	5.675053	0.961380	0.000114
1628	1.6189e+02	-7.5894	-70.129085	0.000405	4.053609	0.686700	0.000081
1629	1.6199e+02	-7.5690	-70.016045	0.000568	5.675053	0.961380	0.000114
1630	1.6209e+02	-7.5494	-69.983748	0.000162	1.621444	0.274680	0.000032
1631	1.6219e+02	-7.5296	-69.834374	0.000750	7.499177	1.270395	0.000150
1632	1.6228e+02	-7.5089	-69.785928	0.000243	2.432165	0.412020	0.000049
1633	1.6238e+02	-7.4905	-69.680963	0.000527	5.269692	0.892710	0.000105
1634	1.6248e+02	-7.4696	-69.612332	0.000345	3.445568	0.583695	0.000069
1635	1.6258e+02	-7.4506	-69.487180	0.000628	6.283094	1.064385	0.000126
1636	1.6268e+02	-7.4303	-69.434698	0.000263	2.634846	0.446355	0.000053
1637	1.6278e+02	-7.4109	-69.341843	0.000466	4.661650	0.789705	0.000093
1638	1.6288e+02	-7.3895	-69.248989	0.000466	4.661650	0.789705	0.000093
1639	1.6298e+02	-7.3701	-69.144024	0.000527	5.269692	0.892710	0.000105
1640	1.6308e+02	-7.3510	-69.075392	0.000345	3.445568	0.583695	0.000069
1641	1.6318e+02	-7.3306	-68.946204	0.000649	6.485774	1.098720	0.000130
1642	1.6328e+02	-7.3106	-68.865461	0.000405	4.053609	0.686700	0.000081
1643	1.6338e+02	-7.2911	-68.808942	0.000284	2.837526	0.480690	0.000057
1644	1.6348e+02	-7.2705	-68.716087	0.000466	4.661650	0.789705	0.000093
1645	1.6358e+02	-7.2505	-68.603048	0.000568	5.675053	0.961380	0.000114
1646	1.6368e+02	-7.2305	-68.494045	0.000547	5.472372	0.927045	0.000110
1647	1.6378e+02	-7.2104	-68.393117	0.000507	5.067011	0.858375	0.000101
1648	1.6388e+02	-7.1909	-68.312374	0.000405	4.053609	0.686700	0.000081
1649	1.6398e+02	-7.1700	-68.179148	0.000669	6.688455	1.133055	0.000134
1650	1.6408e+02	-7.1515	-68.171074	0.000041	0.405361	0.068670	0.000008
1651	1.6418e+02	-7.1309	-68.025737	0.000730	7.296496	1.236060	0.000146
1652	1.6427e+02	-7.1118	-67.973254	0.000263	2.634846	0.446355	0.000053
1653	1.6437e+02	-7.0911	-67.904623	0.000345	3.445568	0.583695	0.000069
1654	1.6447e+02	-7.0715	-67.726989	0.000892	8.917940	1.510740	0.000179
1655	1.6457e+02	-7.0522	-67.642209	0.000426	4.256289	0.721035	0.000085
1656	1.6467e+02	-7.0309	-67.557429	0.000426	4.256289	0.721035	0.000085
1657	1.6477e+02	-7.0116	-67.448427	0.000547	5.472372	0.927045	0.000110
1658	1.6487e+02	-6.9913	-67.367684	0.000405	4.053609	0.686700	0.000081
1659	1.6497e+02	-6.9708	-67.254644	0.000568	5.675053	0.961380	0.000114
1660	1.6507e+02	-6.9511	-67.161790	0.000466	4.661650	0.789705	0.000093
1661	1.6517e+02	-6.9321	-67.036639	0.000628	6.283094	1.064385	0.000126
1662	1.6527e+02	-6.9119	-66.951859	0.000426	4.256289	0.721035	0.000085
1663	1.6537e+02	-6.8915	-66.834782	0.000588	5.877733	0.995715	0.000118
1664	1.6547e+02	-6.8723	-66.794411	0.000203	2.026805	0.343350	0.000041
1665	1.6557e+02	-6.8530	-66.681371	0.000568	5.675053	0.961380	0.000114
1666	1.6567e+02	-6.8317	-66.604665	0.000385	3.850929	0.652365	0.000077
1667	1.6577e+02	-6.8118	-66.463366	0.000709	7.093816	1.201725	0.000142
1668	1.6587e+02	-6.7915	-66.362437	0.000507	5.067011	0.858375	0.000101
1669	1.6597e+02	-6.7732	-66.285732	0.000385	3.850929	0.652365	0.000077
1670	1.6607e+02	-6.7529	-66.192878	0.000466	4.661650	0.789705	0.000093
1671	1.6616e+02	-6.7329	-66.071763	0.000608	6.080414	1.030050	0.000122
1672	1.6626e+02	-6.7126	-65.995058	0.000385	3.850929	0.652365	0.000077
1673	1.6636e+02	-6.6919	-65.857795	0.000689	6.891135	1.167390	0.000138
1674	1.6646e+02	-6.6734	-65.760904	0.000486	4.864331	0.824040	0.000097
1675	1.6656e+02	-6.6533	-65.688236	0.000365	3.648248	0.618030	0.000073
1676	1.6666e+02	-6.6335	-65.530787	0.000790	7.904538	1.339065	0.000158
1677	1.6676e+02	-6.6129	-65.437933	0.000466	4.661650	0.789705	0.000093
1678	1.6686e+02	-6.5936	-65.361228	0.000385	3.850929	0.652365	0.000077
1679	1.6696e+02	-6.5742	-65.244151	0.000588	5.877733	0.995715	0.000118
1680	1.6706e+02	-6.5532	-65.139185	0.000527	5.269692	0.892710	0.000105
1681	1.6716e+02	-6.5338	-65.026145	0.000568	5.675053	0.961380	0.000114
1682	1.6726e+02	-6.5136	-64.981737	0.000223	2.229485	0.377685	0.000045
1683	1.6736e+02	-6.4941	-64.884846	0.000486	4.864331	0.824040	0.000097
1684	1.6746e+02	-6.4738	-64.767769	0.000588	5.877733	0.995715	0.000118
1685	1.6756e+02	-6.4536	-64.634543	0.000669	6.688455	1.133055	0.000134
1686	1.6766e+02	-6.4333	-64.513429	0.000608	6.080414	1.030050	0.000122
1687	1.6776e+02	-6.4145	-64.432686	0.000405	4.053609	0.686700	0.000081
1688	1.6786e+02	-6.3943	-64.331758	0.000507	5.067011	0.858375	0.000101
1689	1.6796e+02	-6.3736	-64.222755	0.000547	5.472372	0.927045	0.000110
1690	1.6806e+02	-6.3541	-64.146050	0.000385	3.850929	0.652365	0.000077
1691	1.6816e+02	-6.3347	-63.996676	0.000750	7.499177	1.270395	0.000150
1692	1.6825e+02	-6.3150	-63.940156	0.000284	2.837526	0.480690	0.000057
1693	1.6835e+02	-6.2946	-63.802893	0.000689	6.891135	1.167390	0.000138
1694	1.6845e+02	-6.2744	-63.710039	0.000466	4.661650	0.789705	0.000093
1695	1.6855e+02	-6.2549	-63.592962	0.000588	5.877733	0.995715	0.000118
1696	1.6865e+02	-6.2354	-63.439551	0.000770	7.701857	1.304730	0.000154
1697	1.6875e+02	-6.2144	-63.383031	0.000284	2.837526	0.480690	0.000057
1698	1.6885e+02	-6.1958	-63.278066	0.000527	5.269692	0.892710	0.000105
1699	1.6895e+02	-6.1758	-63.221546	0.000284	2.837526	0.480690	0.000057
1700	1.6905e+02	-6.1557	-63.051986	0.000851	8.512579	1.442070	0.000170
1701	1.6915e+02	-6.1346	-62.922798	0.000649	6.485774	1.098720	0.000130
1702	1.6925e+02	-6.1156	-62.833981	0.000446	4.458970	0.755370	0.000089
1703	1.6935e+02	-6.0956	-62.749201	0.000426	4.256289	0.721035	0.000085
1704	1.6945e+02	-6.0762	-62.624050	0.000628	6.283094	1.064385	0.000126
1705	1.6955e+02	-6.0547	-62.519084	0.000527	5.269692	0.892710	0.000105
1706	1.6965e+02	-6.0344	-62.389896	0.000649	6.485774	1.098720	0.000130
1707	1.6975e+02	-6.0151	-62.313190	0.000385	3.850929	0.652365	0.000077
1708	1.6985e+02	-5.9949	-62.208225	0.000527	5.269692	0.892710	0.000105
1709	1.6995e+02	-5.9756	-62.083073	0.000628	6.283094	1.064385	0.000126
1710	1.7005e+02	-5.9549	-61.970034	0.000568	5.675053	0.961380	0.000114
1711	1.7015e+02	-5.9354	-61.800474	0.000851	8.512579	1.442070	0.000170
1712	1.7024e+02	-5.9167	-61.747991	0.000263	2.634846	0.446355	0.000053
1713	1.7034e+02	-5.8964	-61.651100	0.000486	4.864331	0.824040	0.000097
1714	1.7044e+02	-5.8760	-61.493652	0.000790	7.904538	1.339065	0.000158
1715	1.7054e+02	-5.8556	-61.449243	0.000223	2.229485	0.377685	0.000045
1716	1.7064e+02	-5.8368	-61.303906	0.000730	7.296496	1.236060	0.000146
1717	1.7074e+02	-5.8153	-61.219126	0.000426	4.256289	0.721035	0.000085
1718	1.7084e+02	-5.7967	-61.061678	0.000790	7.904538	1.339065	0.000158
1719	1.7094e+02	-5.7774	-60.976898	0.000426	4.256289	0.721035	0.000085
1720	1.7104e+02	-5.7567	-60.908267	0.000345	3.445568	0.583695	0.000069
1721	1.7114e+02	-5.7359	-60.726596	0.000912	9.120620	1.545075	0.000183
1722	1.7124e+02	-5.7156	-60.653927	0.000365	3.648248	0.618030	0.000073
1723	1.7134e+02	-5.6967	-60.536850	0.000588	5.877733	0.995715	0.000118
1724	1.7144e+02	-5.6766	-60.415736	0.000608	6.080414	1.030050	0.000122
1725	1.7154e+02	-5.6567	-60.282511	0.000669	6.688455	1.133055	0.000134
1726	1.7164e+02	-5.6371	-60.213880	0.000345	3.445568	0.583695	0.000069
1727	1.7174e+02	-5.6168	-60.076617	0.000689	6.891135	1.167390	0.000138
1728	1.7184e+02	-5.5969	-59.971651	0.000527	5.269692	0.892710	0.000105
1729	1.7194e+02	-5.5763	-59.858612	0.000568	5.675053	0.961380	0.000114
1730	1.7204e+02	-5.5569	-59.721349	0.000689	6.891135	1.167390	0.000138
1731	1.7213e+02	-5.5373	-59.628495	0.000466	4.661650	0.789705	0.000093
1732	1.7223e+02	-5.5162	-59.523529	0.000527	5.269692	0.892710	0.000105
1733	1.7233e+02	-5.4980	-59.374155	0.000750	7.499177	1.270395	0.000150
1734	1.7243e+02	-5.4776	-59.232856	0.000709	7.093816	1.201725	0.000142
1735	1.7253e+02	-5.4572	-59.140001	0.000466	4.661650	0.789705	0.000093
1736	1.7263e+02	-5.4379	-59.022924	0.000588	5.877733	0.995715	0.000118
1737	1.7273e+02	-5.4169	-58.905848	0.000588	5.877733	0.995715	0.000118
1738	1.7283e+02	-5.3970	-58.768585	0.000689	6.891135	1.167390	0.000138
1739	1.7293e+02	-5.3777	-58.639397	0.000649	6.485774	1.098720	0.000130
1740	1.7303e+02	-5.3574	-58.542505	0.000486	4.864331	0.824040	0.000097
1741	1.7313e+02	-5.3381	-58.453688	0.000446	4.458970	0.755370	0.000089
1742	1.7323e+02	-5.3187	-58.288166	0.000831	8.309898	1.407735	0.000166
1743	1.7333e+02	-5.2981	-58.203386	0.000426	4.256289	0.721035	0.000085
1744	1.7343e+02	-5.2791	-58.070160	0.000669	6.688455	1.133055	0.000134
1745	1.7353e+02	-5.2589	-57.936935	0.000669	6.688455	1.133055	0.000134
1746	1.7363e+02	-5.2381	-57.840044	0.000486	4.864331	0.824040	0.000097
1747	1.7373e+02	-5.2187	-57.714893	0.000628	6.283094	1.064385	0.000126
1748	1.7383e+02	-5.1982	-57.581667	0.000669	6.688455	1.133055	0.000134
1749	1.7393e+02	-5.1785	-57.504961	0.000385	3.850929	0.652365	0.000077
1750	1.7403e+02	-5.1595	-57.359625	0.000730	7.296496	1.236060	0.000146
1751	1.7413e+02	-5.1392	-57.242548	0.000588	5.877733	0.995715	0.000118
1752	1.7422e+02	-5.1187	-57.109322	0.000669	6.688455	1.133055	0.000134
1753	1.7432e+02	-5.0995	-57.008394	0.000507	5.067011	0.858375	0.000101
1754	1.7442e+02	-5.0790	-56.907465	0.000507	5.067011	0.858375	0.000101
1755	1.7452e+02	-5.0577	-56.770203	0.000689	6.891135	1.167390	0.000138
1756	1.7462e+02	-5.0387	-56.636977	0.000669	6.688455	1.133055	0.000134
1757	1.7472e+02	-5.0204	-56.523937	0.000568	5.675053	0.961380	0.000114
1758	1.7482e+02	-4.9994	-56.386675	0.000689	6.891135	1.167390	0.000138
1759	1.7492e+02	-4.9803	-56.285746	0.000507	5.067011	0.858375	0.000101
1760	1.7502e+02	-4.9594	-56.172707	0.000568	5.675053	0.961380	0.000114
1761	1.7512e+02	-4.9403	-56.043518	0.000649	6.485774	1.098720	0.000130
1762	1.7522e+02	-4.9203	-55.926441	0.000588	5.877733	0.995715	0.000118
1763	1.7532e+02	-4.9005	-55.744770	0.000912	9.120620	1.545075	0.000183
1764	1.7542e+02	-4.8801	-55.659990	0.000426	4.256289	0.721035	0.000085
1765	1.7552e+02	-4.8601	-55.534839	0.000628	6.283094	1.064385	0.000126
1766	1.7562e+02	-4.8404	-55.413725	0.000608	6.080414	1.030050	0.000122
1767	1.7572e+02	-4.8199	-55.304722	0.000547	5.472372	0.927045	0.000110
1768	1.7582e+02	-4.8007	-55.183608	0.000608	6.080414	1.030050	0.000122
1769	1.7592e+02	-4.7810	-55.046346	0.000689	6.891135	1.167390	0.000138
1770	1.7602e+02	-4.7606	-54.913120	0.000669	6.688455	1.133055	0.000134
1771	1.7612e+02	-4.7400	-54.800081	0.000568	5.675053	0.961380	0.000114
1772	1.7621e+02	-4.7215	-54.666855	0.000669	6.688455	1.133055	0.000134
1773	1.7631e+02	-4.7000	-54.574001	0.000466	4.661650	0.789705	0.000093
1774	1.7641e+02	-4.6810	-54.448850	0.000628	6.283094	1.064385	0.000126
1775	1.7651e+02	-4.6605	-54.331773	0.000588	5.877733	0.995715	0.000118
1776	1.7661e+02	-4.6410	-54.206622	0.000628	6.283094	1.064385	0.000126
1777	1.7671e+02	-4.6207	-54.057248	0.000750	7.499177	1.270395	0.000150
1778	1.7681e+02	-4.6009	-53.948245	0.000547	5.472372	0.927045	0.000110
1779	1.7691e+02	-4.5810	-53.802908	0.000730	7.296496	1.236060	0.000146
1780	1.7701e+02	-4.5611	-53.665645	0.000689	6.891135	1.167390	0.000138
1781	1.7711e+02	-4.5409	-53.580866	0.000426	4.256289	0.721035	0.000085
1782	1.7721e+02	-4.5215	-53.399194	0.000912	9.120620	1.545075	0.000183
1783	1.7731e+02	-4.5010	-53.290192	0.000547	5.472372	0.927045	0.000110
1784	1.7741e+02	-4.4810	-53.197338	0.000466	4.661650	0.789705	0.000093
1785	1.7751e+02	-4.4614	-53.019704	0.000892	8.917940	1.510740	0.000179
1786	1.7761e+02	-4.4411	-52.918775	0.000507	5.067011	0.858375	0.000101
1787	1.7771e+02	-4.4207	-52.809773	0.000547	5.472372	0.927045	0.000110
1788	1.7781e+02	-4.4022	-52.664436	0.000730	7.296496	1.236060	0.000146
1789	1.7791e+02	-4.3811	-52.531210	0.000669	6.688455	1.133055	0.000134
1790	1.7801e+02	-4.3617	-52.430282	0.000507	5.067011	0.858375	0.000101
1791	1.7810e+02	-4.3420	-52.276871	0.000770	7.701857	1.304730	0.000154
1792	1.7820e+02	-4.3210	-52.143645	0.000669	6.688455	1.133055	0.000134
1793	1.7830e+02	-4.3014	-52.010420	0.000669	6.688455	1.133055	0.000134
1794	1.7840e+02	-4.2824	-51.905454	0.000527	5.269692	0.892710	0.000105
1795	1.7850e+02	-4.2622	-51.715709	0.000953	9.525981	1.613745	0.000191
1796	1.7860e+02	-4.2426	-51.594595	0.000608	6.080414	1.030050	0.000122
1797	1.7870e+02	-4.2220	-51.525963	0.000345	3.445568	0.583695	0.000069
1798	1.7880e+02	-4.2033	-51.356404	0.000851	8.512579	1.442070	0.000170
1799	1.7890e+02	-4.1821	-51.211067	0.000730	7.296496	1.236060	0.000146
1800	1.7900e+02	-4.1622	-51.110138	0.000507	5.067011	0.858375	0.000101
1801	1.7910e+02	-4.1431	-50.960764	0.000750	7.499177	1.270395	0.000150
1802	1.7920e+02	-4.1223	-50.831576	0.000649	6.485774	1.098720	0.000130
1803	1.7930e+02	-4.1036	-50.734685	0.000486	4.864331	0.824040	0.000097
1804	1.7940e+02	-4.0823	-50.569162	0.000831	8.309898	1.407735	0.000166
1805	1.7950e+02	-4.0628	-50.448048	0.000608	6.080414	1.030050	0.000122
1806	1.7960e+02	-4.0431	-50.286563	0.000811	8.107218	1.373400	0.000162
1807	1.7970e+02	-4.0231	-50.161412	0.000628	6.283094	1.064385	0.000126
1808	1.7980e+02	-4.0028	-50.068557	0.000466	4.661650	0.789705	0.000093
1809	1.7990e+02	-3.9836	-49.927258	0.000709	7.093816	1.201725	0.000142
1810	1.8000e+02	-3.9624	-49.798069	0.000649	6.485774	1.098720	0.000130
1811	1.8009e+02	-3.9432	-49.636584	0.000811	8.107218	1.373400	0.000162
1812	1.8019e+02	-3.9239	-49.519507	0.000588	5.877733	0.995715	0.000118
1813	1.8029e+02	-3.9043	-49.402430	0.000588	5.877733	0.995715	0.000118
1814	1.8039e+02	-3.8831	-49.236907	0.000831	8.309898	1.407735	0.000166
1815	1.8049e+02	-3.8650	-49.103682	0.000669	6.688455	1.133055	0.000134
1816	1.8059e+02	-3.8440	-48.994679	0.000547	5.472372	0.927045	0.000110
1817	1.8069e+02	-3.8234	-48.877602	0.000588	5.877733	0.995715	0.000118
1818	1.8079e+02	-3.8037	-48.724191	0.000770	7.701857	1.304730	0.000154
1819	1.8089e+02	-3.7839	-48.623263	0.000507	5.067011	0.858375	0.000101
1820	1.8099e+02	-3.7643	-48.486000	0.000689	6.891135	1.167390	0.000138
1821	1.8109e+02	-3.7448	-48.320478	0.000831	8.309898	1.407735	0.000166
1822	1.8119e+02	-3.7241	-48.167066	0.000770	7.701857	1.304730	0.000154
1823	1.8129e+02	-3.7038	-48.078250	0.000446	4.458970	0.755370	0.000089
1824	1.8139e+02	-3.6853	-47.928875	0.000750	7.499177	1.270395	0.000150
1825	1.8149e+02	-3.6652	-47.803724	0.000628	6.283094	1.064385	0.000126
1826	1.8159e+02	-3.6447	-47.650313	0.000770	7.701857	1.304730	0.000154
1827	1.8169e+02	-3.6240	-47.533236	0.000588	5.877733	0.995715	0.000118
1828	1.8179e+02	-3.6058	-47.355602	0.000892	8.917940	1.510740	0.000179
1829	1.8189e+02	-3.5851	-47.222377	0.000669	6.688455	1.133055	0.000134
1830	1.8199e+02	-3.5649	-47.121448	0.000507	5.067011	0.858375	0.000101
1831	1.8209e+02	-3.5461	-46.959963	0.000811	8.107218	1.373400	0.000162
1832	1.8218e+02	-3.5249	-46.810589	0.000750	7.499177	1.270395	0.000150
1833	1.8228e+02	-3.5049	-46.689475	0.000608	6.080414	1.030050	0.000122
1834	1.8238e+02	-3.4853	-46.532027	0.000790	7.904538	1.339065	0.000158
1835	1.8248e+02	-3.4647	-46.398801	0.000669	6.688455	1.133055	0.000134
1836	1.8258e+02	-3.4459	-46.229241	0.000851	8.512579	1.442070	0.000170
1837	1.8268e+02	-3.4261	-46.124276	0.000527	5.269692	0.892710	0.000105
1838	1.8278e+02	-3.4058	-46.015273	0.000547	5.472372	0.927045	0.000110
1839	1.8288e+02	-3.3864	-45.861862	0.000770	7.701857	1.304730	0.000154
1840	1.8298e+02	-3.3655	-45.704414	0.000790	7.904538	1.339065	0.000158
1841	1.8308e+02	-3.3456	-45.563114	0.000709	7.093816	1.201725	0.000142
1842	1.8318e+02	-3.3258	-45.401629	0.000811	8.107218	1.373400	0.000162
1843	1.8328e+02	-3.3055	-45.288589	0.000568	5.675053	0.961380	0.000114
1844	1.8338e+02	-3.2861	-45.167475	0.000608	6.080414	1.030050	0.000122
1845	1.8348e+02	-3.2664	-45.022138	0.000730	7.296496	1.236060	0.000146
1846	1.8358e+02	-3.2462	-44.880838	0.000709	7.093816	1.201725	0.000142
1847	1.8368e+02	-3.2259	-44.735501	0.000730	7.296496	1.236060	0.000146
1848	1.8378e+02	-3.2074	-44.590164	0.000730	7.296496	1.236060	0.000146
1849	1.8388e+02	-3.1859	-44.436753	0.000770	7.701857	1.304730	0.000154
1850	1.8398e+02	-3.1664	-44.335825	0.000507	5.067011	0.858375	0.000101
1851	1.8407e+02	-3.1470	-44.162228	0.000872	8.715259	1.476405	0.000174
1852	1.8417e+02	-3.1264	-44.045151	0.000588	5.877733	0.995715	0.000118
1853	1.8427e+02	-3.1063	-43.891740	0.000770	7.701857	1.304730	0.000154
1854	1.8437e+02	-3.0869	-43.762551	0.000649	6.485774	1.098720	0.000130
1855	1.8447e+02	-3.0666	-43.641437	0.000608	6.080414	1.030050	0.000122
1856	1.8457e+02	-3.0466	-43.483989	0.000790	7.904538	1.339065	0.000158
1857	1.8467e+02	-3.0270	-43.330578	0.000770	7.701857	1.304730	0.000154
1858	1.8477e+02	-3.0069	-43.161018	0.000851	8.512579	1.442070	0.000170
1859	1.8487e+02	-2.9870	-43.031830	0.000649	6.485774	1.098720	0.000130
1860	1.8497e+02	-2.9675	-42.906679	0.000628	6.283094	1.064385	0.000126
1861	1.8507e+02	-2.9472	-42.749230	0.000790	7.904538	1.339065	0.000158
1862	1.8517e+02	-2.9272	-42.611968	0.000689	6.891135	1.167390	0.000138
1863	1.8527e+02	-2.9073	-42.462594	0.000750	7.499177	1.270395	0.000150
1864	1.8537e+02	-2.8877	-42.297071	0.000831	8.309898	1.407735	0.000166
1865	1.8547e+02	-2.8677	-42.163846	0.000669	6.688455	1.133055	0.000134
1866	1.8557e+02	-2.8479	-42.038694	0.000628	6.283094	1.064385	0.000126
1867	1.8567e+02	-2.8282	-41.820689	0.001094	10.944744	1.854090	0.000219
1868	1.8577e+02	-2.8075	-41.683426	0.000689	6.891135	1.167390	0.000138
1869	1.8587e+02	-2.7886	-41.582498	0.000507	5.067011	0.858375	0.000101
1870	1.8597e+02	-2.7682	-41.461384	0.000608	6.080414	1.030050	0.000122
1871	1.8606e+02	-2.7478	-41.267602	0.000973	9.728662	1.648080	0.000195
1872	1.8616e+02	-2.7283	-41.134376	0.000669	6.688455	1.133055	0.000134
1873	1.8626e+02	-2.7082	-40.976928	0.000790	7.904538	1.339065	0.000158
1874	1.8636e+02	-2.6883	-40.855814	0.000608	6.080414	1.030050	0.000122
1875	1.8646e+02	-2.6689	-40.666068	0.000953	9.525981	1.613745	0.000191
1876	1.8656e+02	-2.6487	-40.585326	0.000405	4.053609	0.686700	0.000081
1877	1.8666e+02	-2.6287	-40.399617	0.000932	9.323301	1.579410	0.000187
1878	1.8676e+02	-2.6084	-40.262355	0.000689	6.891135	1.167390	0.000138
1879	1.8686e+02	-2.5893	-40.112981	0.000750	7.499177	1.270395	0.000150
1880	1.8696e+02	-2.5694	-39.963607	0.000750	7.499177	1.270395	0.000150
1881	1.8706e+02	-2.5490	-39.854604	0.000547	5.472372	0.927045	0.000110
1882	1.8716e+02	-2.5285	-39.693119	0.000811	8.107218	1.373400	0.000162
1883	1.8726e+02	-2.5101	-39.523559	0.000851	8.512579	1.442070	0.000170
1884	1.8736e+02	-2.4902	-39.382259	0.000709	7.093816	1.201725	0.000142
1885	1.8746e+02	-2.4693	-39.204625	0.000892	8.917940	1.510740	0.000179
1886	1.8756e+02	-2.4500	-39.083511	0.000608	6.080414	1.030050	0.000122
1887	1.8766e+02	-2.4294	-38.930100	0.000770	7.701857	1.304730	0.000154
1888	1.8776e+02	-2.4101	-38.792837	0.000689	6.891135	1.167390	0.000138
1889	1.8786e+02	-2.3906	-38.639426	0.000770	7.701857	1.304730	0.000154
1890	1.8796e+02	-2.3696	-38.481978	0.000790	7.904538	1.339065	0.000158
1891	1.8806e+02	-2.3496	-38.336641	0.000730	7.296496	1.236060	0.000146
1892	1.8815e+02	-2.3295	-38.183230	0.000770	7.701857	1.304730	0.000154
1893	1.8825e+02	-2.3094	-38.045967	0.000689	6.891135	1.167390	0.000138
1894	1.8835e+02	-2.2892	-37.908705	0.000689	6.891135	1.167390	0.000138
1895	1.8845e+02	-2.2695	-37.743182	0.000831	8.309898	1.407735	0.000166
1896	1.8855e+02	-2.2508	-37.581697	0.000811	8.107218	1.373400	0.000162
1897	1.8865e+02	-2.2305	-37.420211	0.000811	8.107218	1.373400	0.000162
1898	1.8875e+02	-2.2105	-37.299097	0.000608	6.080414	1.030050	0.000122
1899	1.8885e+02	-2.1907	-37.125500	0.000872	8.715259	1.476405	0.000174
1900	1.8895e+02	-2.1716	-36.951903	0.000872	8.715259	1.476405	0.000174
1901	1.8905e+02	-2.1508	-36.842901	0.000547	5.472372	0.927045	0.000110
1902	1.8915e+02	-2.1307	-36.657193	0.000932	9.323301	1.579410	0.000187
1903	1.8925e+02	-2.1115	-36.515893	0.000709	7.093816	1.201725	0.000142
1904	1.8935e+02	-2.0901	-36.374593	0.000709	7.093816	1.201725	0.000142
1905	1.8945e+02	-2.0712	-36.176773	0.000993	9.931342	1.682415	0.000199
1906	1.8955e+02	-2.0519	-36.059696	0.000588	5.877733	0.995715	0.000118
1907	1.8965e+02	-2.0311	-35.878025	0.000912	9.120620	1.545075	0.000183
1908	1.8975e+02	-2.0109	-35.708466	0.000851	8.512579	1.442070	0.000170
1909	1.8985e+02	-1.9914	-35.567166	0.000709	7.093816	1.201725	0.000142
1910	1.8995e+02	-1.9716	-35.381458	0.000932	9.323301	1.579410	0.000187
1911	1.9004e+02	-1.9513	-35.304752	0.000385	3.850929	0.652365	0.000077
1912	1.9014e+02	-1.9314	-35.115007	0.000953	9.525981	1.613745	0.000191
1913	1.9024e+02	-1.9112	-34.949484	0.000831	8.309898	1.407735	0.000166
1914	1.9034e+02	-1.8912	-34.800110	0.000750	7.499177	1.270395	0.000150
1915	1.9044e+02	-1.8726	-34.670922	0.000649	6.485774	1.098720	0.000130
1916	1.9054e+02	-1.8515	-34.465028	0.001034	10.336703	1.751085	0.000207
1917	1.9064e+02	-1.8318	-34.335839	0.000649	6.485774	1.098720	0.000130
1918	1.9074e+02	-1.8120	-34.198577	0.000689	6.891135	1.167390	0.000138
1919	1.9084e+02	-1.7925	-34.053240	0.000730	7.296496	1.236060	0.000146
1920	1.9094e+02	-1.7719	-33.875606	0.000892	8.917940	1.510740	0.000179
1921	1.9104e+02	-1.7519	-33.722195	0.000770	7.701857	1.304730	0.000154
1922	1.9114e+02	-1.7326	-33.584932	0.000689	6.891135	1.167390	0.000138
1923	1.9124e+02	-1.7125	-33.403261	0.000912	9.120620	1.545075	0.000183
1924	1.9134e+02	-1.6919	-33.249850	0.000770	7.701857	1.304730	0.000154
1925	1.9144e+02	-1.6723	-33.088365	0.000811	8.107218	1.373400	0.000162
1926	1.9154e+02	-1.6529	-32.934953	0.000770	7.701857	1.304730	0.000154
1927	1.9164e+02	-1.6324	-32.805765	0.000649	6.485774	1.098720	0.000130
1928	1.9174e+02	-1.6129	-32.607945	0.000993	9.931342	1.682415	0.000199
1929	1.9184e+02	-1.5927	-32.478757	0.000649	6.485774	1.098720	0.000130
1930	1.9194e+02	-1.5727	-32.297086	0.000912	9.120620	1.545075	0.000183
1931	1.9203e+02	-1.5526	-32.143675	0.000770	7.701857	1.304730	0.000154
1932	1.9213e+02	-1.5332	-31.962004	0.000912	9.120620	1.545075	0.000183
1933	1.9223e+02	-1.5128	-31.804555	0.000790	7.904538	1.339065	0.000158
1934	1.9233e+02	-1.4928	-31.651144	0.000770	7.701857	1.304730	0.000154
1935	1.9243e+02	-1.4727	-31.493696	0.000790	7.904538	1.339065	0.000158
1936	1.9253e+02	-1.4531	-31.356433	0.000689	6.891135	1.167390	0.000138
1937	1.9263e+02	-1.4336	-31.243393	0.000568	5.675053	0.961380	0.000114
1938	1.9273e+02	-1.4128	-31.009240	0.001176	11.755466	1.991430	0.000235
1939	1.9283e+02	-1.3934	-30.892163	0.000588	5.877733	0.995715	0.000118
1940	1.9293e+02	-1.3745	-30.706454	0.000932	9.323301	1.579410	0.000187
1941	1.9303e+02	-1.3535	-30.565155	0.000709	7.093816	1.201725	0.000142
1942	1.9313e+02	-1.3335	-30.423855	0.000709	7.093816	1.201725	0.000142
1943	1.9323e+02	-1.3132	-30.242184	0.000912	9.120620	1.545075	0.000183
1944	1.9333e+02	-1.2933	-30.080698	0.000811	8.107218	1.373400	0.000162
1945	1.9343e+02	-1.2734	-29.915176	0.000831	8.309898	1.407735	0.000166
1946	1.9353e+02	-1.2547	-29.757728	0.000790	7.904538	1.339065	0.000158
1947	1.9363e+02	-1.2345	-29.604316	0.000770	7.701857	1.304730	0.000154
1948	1.9373e+02	-1.2144	-29.463017	0.000709	7.093816	1.201725	0.000142
1949	1.9383e+02	-1.1950	-29.313643	0.000750	7.499177	1.270395	0.000150
1950	1.9393e+02	-1.1740	-29.136009	0.000892	8.917940	1.510740	0.000179
1951	1.9403e+02	-1.1553	-28.970486	0.000831	8.309898	1.407735	0.000166
1952	1.9412e+02	-1.1353	-28.813038	0.000790	7.904538	1.339065	0.000158
1953	1.9422e+02	-1.1147	-28.639441	0.000872	8.715259	1.476405	0.000174
1954	1.9432e+02	-1.0944	-28.469881	0.000851	8.512579	1.442070	0.000170
1955	1.9442e+02	-1.0742	-28.352804	0.000588	5.877733	0.995715	0.000118
1956	1.9452e+02	-1.0552	-28.175170	0.000892	8.917940	1.510740	0.000179
1957	1.9462e+02	-1.0352	-27.993499	0.000912	9.120620	1.545075	0.000183
1958	1.9472e+02	-1.0149	-27.856237	0.000689	6.891135	1.167390	0.000138
1959	1.9482e+02	-0.9956	-27.678603	0.000892	8.917940	1.510740	0.000179
1960	1.9492e+02	-0.9764	-27.525191	0.000770	7.701857	1.304730	0.000154
1961	1.9502e+02	-0.9552	-27.327372	0.000993	9.931342	1.682415	0.000199
1962	1.9512e+02	-0.9361	-27.198183	0.000649	6.485774	1.098720	0.000130
1963	1.9522e+02	-0.9158	-27.056884	0.000709	7.093816	1.201725	0.000142
1964	1.9532e+02	-0.8961	-26.879250	0.000892	8.917940	1.510740	0.000179
1965	1.9542e+02	-0.8756	-26.709690	0.000851	8.512579	1.442070	0.000170
1966	1.9552e+02	-0.8556	-26.568390	0.000709	7.093816	1.201725	0.000142
1967	1.9562e+02	-0.8351	-26.358459	0.001054	10.539383	1.785420	0.000211
1968	1.9572e+02	-0.8163	-26.213122	0.000730	7.296496	1.236060	0.000146
1969	1.9582e+02	-0.7964	-26.051637	0.000811	8.107218	1.373400	0.000162
1970	1.9592e+02	-0.7758	-25.926486	0.000628	6.283094	1.064385	0.000126
1971	1.9601e+02	-0.7560	-25.732703	0.000973	9.728662	1.648080	0.000195
1972	1.9611e+02	-0.7359	-25.530846	0.001013	10.134023	1.716750	0.000203
1973	1.9621e+02	-0.7164	-25.365324	0.000831	8.309898	1.407735	0.000166
1974	1.9631e+02	-0.6969	-25.228061	0.000689	6.891135	1.167390	0.000138
1975	1.9641e+02	-0.6765	-25.058502	0.000851	8.512579	1.442070	0.000170
1976	1.9651e+02	-0.6570	-24.884905	0.000872	8.715259	1.476405	0.000174
1977	1.9661e+02	-0.6365	-24.699196	0.000932	9.323301	1.579410	0.000187
1978	1.9671e+02	-0.6160	-24.570008	0.000649	6.485774	1.098720	0.000130
1979	1.9681e+02	-0.5965	-24.469080	0.000507	5.067011	0.858375	0.000101
1980	1.9691e+02	-0.5766	-24.238963	0.001155	11.552786	1.957095	0.000231
1981	1.9701e+02	-0.5563	-24.097663	0.000709	7.093816	1.201725	0.000142
1982	1.9711e+02	-0.5374	-23.940215	0.000790	7.904538	1.339065	0.000158
1983	1.9721e+02	-0.5170	-23.782767	0.000790	7.904538	1.339065	0.000158
1984	1.9731e+02	-0.4973	-23.601096	0.000912	9.120620	1.545075	0.000183
1985	1.9741e+02	-0.4771	-23.443647	0.000790	7.904538	1.339065	0.000158
1986	1.9751e+02	-0.4572	-23.314459	0.000649	6.485774	1.098720	0.000130
1987	1.9761e+02	-0.4373	-23.112602	0.001013	10.134023	1.716750	0.000203
1988	1.9771e+02	-0.4171	-22.967265	0.000730	7.296496	1.236060	0.000146
1989	1.9781e+02	-0.3979	-22.809817	0.000790	7.904538	1.339065	0.000158
1990	1.9791e+02	-0.3773	-22.644294	0.000831	8.309898	1.407735	0.000166
1991	1.9800e+02	-0.3576	-22.462623	0.000912	9.120620	1.545075	0.000183
1992	1.9810e+02	-0.3385	-22.321323	0.000709	7.093816	1.201725	0.000142
1993	1.9820e+02	-0.3182	-22.151764	0.000851	8.512579	1.442070	0.000170
1994	1.9830e+02	-0.2980	-21.978167	0.000872	8.715259	1.476405	0.000174
1995	1.9840e+02	-0.2778	-21.808607	0.000851	8.512579	1.442070	0.000170
1996	1.9850e+02	-0.2580	-21.687493	0.000608	6.080414	1.030050	0.000122
1997	1.9860e+02	-0.2386	-21.481599	0.001034	10.336703	1.751085	0.000207
1998	1.9870e+02	-0.2177	-21.303965	0.000892	8.917940	1.510740	0.000179
1999	1.9880e+02	-0.1984	-21.174777	0.000649	6.485774	1.098720	0.000130
2000	1.9890e+02	-0.1794	-21.009254	0.000831	8.309898	1.407735	0.000166
2001	1.9900e+02	-0.1588	-20.835658	0.000872	8.715259	1.476405	0.000174
2002	1.9910e+02	-0.1385	-20.658024	0.000892	8.917940	1.510740	0.000179
2003	1.9920e+02	-0.1192	-20.460204	0.000993	9.931342	1.682415	0.000199
2004	1.9930e+02	-0.0989	-20.339090	0.000608	6.080414	1.030050	0.000122
2005	1.9940e+02	-0.0778	-20.193753	0.000730	7.296496	1.236060	0.000146
2006	1.9950e+02	-0.0589	-19.983822	0.001054	10.539383	1.785420	0.000211
2007	1.9960e+02	-0.0391	-19.846559	0.000689	6.891135	1.167390	0.000138
2008	1.9970e+02	-0.0196	-19.664888	0.000912	9.120620	1.545075	0.000183
2009	1.9980e+02	-0.0004	-19.527626	0.000912	9.120620	1.545075	0.000138

Smooth data before PMax, +/-Pr and +/-Vc Calc.

PMax (uC/cm2):	6.72e+01
Pr (uC/cm2):	5.42e+00
-Pr (uC/cm2):	-2.82e+01
PLoss (uC/cm2):	-2.83e+01
-Vc:	-6.54e-01
C (Max-Eff) (nF):	6.72e-01
K (Eff):	1.14e+03
Vert. (+/-Pr) Shift (uC/cm2):	-1.14e+01
Offset (uC/cm2):	-8.64e+00

A (Loop Area - uC/cm2·Volts):	-4.70e-02



Hysteresis Version: 5.48.1 - Radiant Technologies, Inc., 1999 - 9/12/24

