»»»»»»»»»»»»»»»»»»»»»»»»»»»»»»»»»»»» Hysteresis ««««««««««««««««««««««««««««««««««««
»»»  Executed Version:	5.48.1
»»»  Vision Version:	5.48.4 (R)
»»»  Vision Compiled:	9/18/24
»»»  Driver Version:	5.47.0
»»»  Windows Version:	Windows 8 or 8.1
»»»  Processor Information:	x86 (AMD or Intel) - 32 Processors
»»»  Tester Name:	PMF21124-494 (100V)
»»»  Tester S/N:	PMF21124-494
»»»  Internal Amp Type:	100V RevK 270k
»»»  Internal Amp S/N:	iAB2-596/K     
»»»  Execution Count:	1
»»»»»»»»»»»»»»»»»»»»»»»»»»»»»»»»»»»»»»»»»»««««««««««««««««««««««««««««««««««««««««««

Stored:	7/8/2025 - 16:58:26
Configured:	07/08/25 02:50:47 PM
Executed:	07/08/25 04:57:56 PM

»»»»»»»»»»»»»»»»»»»»»»»»»»»»»»»»»»» Sample Info ««««««««««««««««««««««««««««««««««««
Sample Name:	
Lot Name:	
Wafer Name:	
Die Row/Column:	0/0
Capacitor Number:	0
Sample Area (cm2):	1.00e-04
Sample Thickness (microns):	1.50e-01

Amplifier:	Internal

»»»»»»»»»»»»»»»»»»»»»»»»»»»»»»»»»»» Tester Info «««««««««««««««««««««««««««««««««««
Tester Name:	PMF21124-494 (100V)
Tester Serial Number:	PMF21124-494
Return Signal Amp. Level:	0.19 [Index: 3]

»»»»»»»»»»»»»»»»»»»»»»»»»»»»»»»» Hysteresis Info ««««««««««««««««««««««««««««««««««
Task Name:	Hyst-724
Volts:	10.00
Field:	666.67 (kV/cm)
DCBias:	0.00
DCField:	0.00 (kV/cm)
Hysteresis Period (ms):	2.00e+02
Preset:	Enabled
Preset Delay (ms):	1.00e+03
Profile:	Standard Bipolar

»»»»»»»»»»»»»»»»»»»»»»»»»»»»»»»»»»»»»» Data «««««««««««««««««««««««««««««««««««««««
Points:	2009

Valid Data

Point	Time (ms)	Drive Voltage	Measured Polarization (uC/cm2)	Capacitance (uF)	Normalized Capacitance (uF/cm2)	Dielectric Constant	Instantaneous Current (mA)
   1	0.0000e+00	0.0002	10.934582	0.000608	6.081307	1.030201	0.000122
   2	9.9500e-02	0.0188	11.055696	0.000608	6.081307	1.030201	0.000122
   3	1.9900e-01	0.0392	11.265627	0.001054	10.540932	1.785682	0.000211
   4	2.9850e-01	0.0584	11.378667	0.000568	5.675886	0.961521	0.000114
   5	3.9800e-01	0.0785	11.552264	0.000872	8.716540	1.476622	0.000174
   6	4.9750e-01	0.0985	11.685489	0.000669	6.689437	1.133221	0.000134
   7	5.9700e-01	0.1190	11.814678	0.000649	6.486727	1.098881	0.000130
   8	6.9650e-01	0.1385	11.996349	0.000912	9.121960	1.545302	0.000183
   9	7.9600e-01	0.1590	12.145723	0.000750	7.500278	1.270582	0.000150
  10	8.9550e-01	0.1785	12.266837	0.000608	6.081307	1.030201	0.000122
  11	9.9500e-01	0.1988	12.440434	0.000872	8.716540	1.476622	0.000174
  12	1.0945e+00	0.2180	12.597882	0.000791	7.905699	1.339262	0.000158
  13	1.1940e+00	0.2394	12.694773	0.000487	4.865045	0.824161	0.000097
  14	1.2935e+00	0.2579	12.852222	0.000791	7.905699	1.339262	0.000158
  15	1.3930e+00	0.2784	12.981410	0.000649	6.486727	1.098881	0.000130
  16	1.4925e+00	0.2984	13.179230	0.000993	9.932801	1.682662	0.000199
  17	1.5920e+00	0.3183	13.316492	0.000689	6.892148	1.167561	0.000138
  18	1.6915e+00	0.3384	13.457792	0.000709	7.094858	1.201901	0.000142
  19	1.7910e+00	0.3577	13.586980	0.000649	6.486727	1.098881	0.000130
  20	1.8905e+00	0.3773	13.752503	0.000831	8.311119	1.407942	0.000166
  21	1.9900e+00	0.3979	13.897840	0.000730	7.297568	1.236241	0.000146
  22	2.0895e+00	0.4173	14.067399	0.000851	8.513829	1.442282	0.000170
  23	2.1890e+00	0.4373	14.216774	0.000750	7.500278	1.270582	0.000150
  24	2.2885e+00	0.4572	14.345962	0.000649	6.486727	1.098881	0.000130
  25	2.3880e+00	0.4779	14.503410	0.000791	7.905699	1.339262	0.000158
  26	2.4875e+00	0.4971	14.660858	0.000791	7.905699	1.339262	0.000158
  27	2.5870e+00	0.5174	14.830418	0.000851	8.513829	1.442282	0.000170
  28	2.6865e+00	0.5370	14.983829	0.000770	7.702989	1.304922	0.000154
  29	2.7860e+00	0.5570	15.145315	0.000811	8.108409	1.373602	0.000162
  30	2.8855e+00	0.5766	15.262392	0.000588	5.878596	0.995861	0.000118
  31	2.9850e+00	0.5972	15.423877	0.000811	8.108409	1.373602	0.000162
  32	3.0845e+00	0.6173	15.577288	0.000770	7.702989	1.304922	0.000154
  33	3.1840e+00	0.6371	15.714551	0.000689	6.892148	1.167561	0.000138
  34	3.2835e+00	0.6564	15.876036	0.000811	8.108409	1.373602	0.000162
  35	3.3830e+00	0.6766	16.025410	0.000750	7.500278	1.270582	0.000150
  36	3.4825e+00	0.6966	16.199007	0.000872	8.716540	1.476622	0.000174
  37	3.5820e+00	0.7168	16.320121	0.000608	6.081307	1.030201	0.000122
  38	3.6815e+00	0.7355	16.477570	0.000791	7.905699	1.339262	0.000158
  39	3.7810e+00	0.7562	16.651166	0.000872	8.716540	1.476622	0.000174
  40	3.8805e+00	0.7763	16.792466	0.000709	7.094858	1.201901	0.000142
  41	3.9800e+00	0.7960	16.933766	0.000709	7.094858	1.201901	0.000142
  42	4.0795e+00	0.8163	17.107363	0.000872	8.716540	1.476622	0.000174
  43	4.1790e+00	0.8362	17.276922	0.000851	8.513829	1.442282	0.000170
  44	4.2785e+00	0.8568	17.410148	0.000669	6.689437	1.133221	0.000134
  45	4.3780e+00	0.8761	17.559522	0.000750	7.500278	1.270582	0.000150
  46	4.4775e+00	0.8963	17.700822	0.000709	7.094858	1.201901	0.000142
  47	4.5770e+00	0.9163	17.902678	0.001014	10.135511	1.717002	0.000203
  48	4.6765e+00	0.9355	18.084350	0.000912	9.121960	1.545302	0.000183
  49	4.7760e+00	0.9552	18.193352	0.000547	5.473176	0.927181	0.000110
  50	4.8755e+00	0.9751	18.366949	0.000872	8.716540	1.476622	0.000174
  51	4.9750e+00	0.9963	18.488063	0.000608	6.081307	1.030201	0.000122
  52	5.0745e+00	1.0152	18.677808	0.000953	9.527381	1.613982	0.000191
  53	5.1740e+00	1.0352	18.782774	0.000527	5.270466	0.892841	0.000105
  54	5.2735e+00	1.0556	18.968482	0.000932	9.324670	1.579642	0.000187
  55	5.3730e+00	1.0747	19.121893	0.000770	7.702989	1.304922	0.000154
  56	5.4725e+00	1.0946	19.251082	0.000649	6.486727	1.098881	0.000130
  57	5.5720e+00	1.1150	19.444864	0.000973	9.730091	1.648322	0.000195
  58	5.6715e+00	1.1343	19.590201	0.000730	7.297568	1.236241	0.000146
  59	5.7710e+00	1.1552	19.703241	0.000568	5.675886	0.961521	0.000114
  60	5.8705e+00	1.1756	19.925283	0.001115	11.149062	1.888702	0.000223
  61	5.9700e+00	1.1948	20.086769	0.000811	8.108409	1.373602	0.000162
  62	6.0695e+00	1.2144	20.248254	0.000811	8.108409	1.373602	0.000162
  63	6.1690e+00	1.2347	20.389554	0.000709	7.094858	1.201901	0.000142
  64	6.2685e+00	1.2542	20.530854	0.000709	7.094858	1.201901	0.000142
  65	6.3680e+00	1.2741	20.732711	0.001014	10.135511	1.717002	0.000203
  66	6.4675e+00	1.2936	20.874010	0.000709	7.094858	1.201901	0.000142
  67	6.5670e+00	1.3136	20.999162	0.000628	6.284017	1.064541	0.000126
  68	6.6665e+00	1.3331	21.180833	0.000912	9.121960	1.545302	0.000183
  69	6.7660e+00	1.3531	21.346355	0.000831	8.311119	1.407942	0.000166
  70	6.8655e+00	1.3733	21.479581	0.000669	6.689437	1.133221	0.000134
  71	6.9650e+00	1.3936	21.685475	0.001034	10.338221	1.751342	0.000207
  72	7.0645e+00	1.4132	21.867146	0.000912	9.121960	1.545302	0.000183
  73	7.1640e+00	1.4340	22.000371	0.000669	6.689437	1.133221	0.000134
  74	7.2635e+00	1.4528	22.117448	0.000588	5.878596	0.995861	0.000118
  75	7.3630e+00	1.4727	22.299119	0.000912	9.121960	1.545302	0.000183
  76	7.4625e+00	1.4931	22.452530	0.000770	7.702989	1.304922	0.000154
  77	7.5620e+00	1.5139	22.614016	0.000811	8.108409	1.373602	0.000162
  78	7.6615e+00	1.5323	22.783576	0.000851	8.513829	1.442282	0.000170
  79	7.7610e+00	1.5528	22.932950	0.000750	7.500278	1.270582	0.000150
  80	7.8605e+00	1.5731	23.098472	0.000831	8.311119	1.407942	0.000166
  81	7.9600e+00	1.5929	23.247846	0.000750	7.500278	1.270582	0.000150
  82	8.0595e+00	1.6125	23.368960	0.000608	6.081307	1.030201	0.000122
  83	8.1590e+00	1.6324	23.558706	0.000953	9.527381	1.613982	0.000191
  84	8.2585e+00	1.6528	23.716154	0.000791	7.905699	1.339262	0.000158
  85	8.3580e+00	1.6729	23.865528	0.000750	7.500278	1.270582	0.000150
  86	8.4575e+00	1.6924	24.014902	0.000750	7.500278	1.270582	0.000150
  87	8.5570e+00	1.7122	24.160239	0.000730	7.297568	1.236241	0.000146
  88	8.6565e+00	1.7334	24.362096	0.001014	10.135511	1.717002	0.000203
  89	8.7560e+00	1.7525	24.487247	0.000628	6.284017	1.064541	0.000126
  90	8.8555e+00	1.7717	24.620472	0.000669	6.689437	1.133221	0.000134
  91	8.9550e+00	1.7919	24.781958	0.000811	8.108409	1.373602	0.000162
  92	9.0545e+00	1.8122	24.939406	0.000791	7.905699	1.339262	0.000158
  93	9.1540e+00	1.8309	25.100891	0.000811	8.108409	1.373602	0.000162
  94	9.2535e+00	1.8484	25.294674	0.000973	9.730091	1.648322	0.000195
  95	9.3530e+00	1.8712	25.395602	0.000507	5.067756	0.858501	0.000101
  96	9.4525e+00	1.8913	25.565162	0.000851	8.513829	1.442282	0.000170
  97	9.5520e+00	1.9114	25.746833	0.000912	9.121960	1.545302	0.000183
  98	9.6515e+00	1.9315	25.876022	0.000649	6.486727	1.098881	0.000130
  99	9.7510e+00	1.9515	26.041544	0.000831	8.311119	1.407942	0.000166
 100	9.8505e+00	1.9707	26.162658	0.000608	6.081307	1.030201	0.000122
 101	9.9500e+00	1.9907	26.352404	0.000953	9.527381	1.613982	0.000191
 102	1.0050e+01	2.0100	26.485629	0.000669	6.689437	1.133221	0.000134
 103	1.0149e+01	2.0318	26.626929	0.000709	7.094858	1.201901	0.000142
 104	1.0248e+01	2.0510	26.768229	0.000709	7.094858	1.201901	0.000142
 105	1.0348e+01	2.0712	26.974122	0.001034	10.338221	1.751342	0.000207
 106	1.0447e+01	2.0916	27.083125	0.000547	5.473176	0.927181	0.000110
 107	1.0547e+01	2.1110	27.289019	0.001034	10.338221	1.751342	0.000207
 108	1.0646e+01	2.1304	27.450504	0.000811	8.108409	1.373602	0.000162
 109	1.0746e+01	2.1503	27.595841	0.000730	7.297568	1.236241	0.000146
 110	1.0845e+01	2.1698	27.729067	0.000669	6.689437	1.133221	0.000134
 111	1.0945e+01	2.1895	27.902664	0.000872	8.716540	1.476622	0.000174
 112	1.1044e+01	2.2105	28.043963	0.000709	7.094858	1.201901	0.000142
 113	1.1144e+01	2.2307	28.205449	0.000811	8.108409	1.373602	0.000162
 114	1.1243e+01	2.2500	28.322526	0.000588	5.878596	0.995861	0.000118
 115	1.1343e+01	2.2700	28.524383	0.001014	10.135511	1.717002	0.000203
 116	1.1443e+01	2.2897	28.685868	0.000811	8.108409	1.373602	0.000162
 117	1.1542e+01	2.3106	28.827168	0.000709	7.094858	1.201901	0.000142
 118	1.1642e+01	2.3290	28.964430	0.000689	6.892148	1.167561	0.000138
 119	1.1741e+01	2.3496	29.178399	0.001074	10.743642	1.820022	0.000215
 120	1.1841e+01	2.3698	29.287401	0.000547	5.473176	0.927181	0.000110
 121	1.1940e+01	2.3907	29.428701	0.000709	7.094858	1.201901	0.000142
 122	1.2040e+01	2.4099	29.570001	0.000709	7.094858	1.201901	0.000142
 123	1.2139e+01	2.4306	29.812229	0.001216	12.162613	2.060402	0.000243
 124	1.2239e+01	2.4496	29.905083	0.000466	4.662335	0.789821	0.000093
 125	1.2338e+01	2.4689	30.078680	0.000872	8.716540	1.476622	0.000174
 126	1.2438e+01	2.4903	30.207868	0.000649	6.486727	1.098881	0.000130
 127	1.2537e+01	2.5097	30.385502	0.000892	8.919250	1.510962	0.000179
 128	1.2636e+01	2.5295	30.518728	0.000669	6.689437	1.133221	0.000134
 129	1.2736e+01	2.5497	30.660027	0.000709	7.094858	1.201901	0.000142
 130	1.2835e+01	2.5686	30.849773	0.000953	9.527381	1.613982	0.000191
 131	1.2935e+01	2.5886	30.987035	0.000689	6.892148	1.167561	0.000138
 132	1.3034e+01	2.6080	31.140447	0.000770	7.702989	1.304922	0.000154
 133	1.3134e+01	2.6288	31.301932	0.000811	8.108409	1.373602	0.000162
 134	1.3233e+01	2.6485	31.423046	0.000608	6.081307	1.030201	0.000122
 135	1.3333e+01	2.6685	31.637014	0.001074	10.743642	1.820022	0.000215
 136	1.3432e+01	2.6882	31.766203	0.000649	6.486727	1.098881	0.000130
 137	1.3532e+01	2.7087	31.935762	0.000851	8.513829	1.442282	0.000170
 138	1.3632e+01	2.7269	32.068988	0.000669	6.689437	1.133221	0.000134
 139	1.3731e+01	2.7480	32.194139	0.000628	6.284017	1.064541	0.000126
 140	1.3831e+01	2.7678	32.387921	0.000973	9.730091	1.648322	0.000195
 141	1.3930e+01	2.7880	32.529221	0.000709	7.094858	1.201901	0.000142
 142	1.4030e+01	2.8084	32.666484	0.000689	6.892148	1.167561	0.000138
 143	1.4129e+01	2.8277	32.832006	0.000831	8.311119	1.407942	0.000166
 144	1.4229e+01	2.8483	32.965232	0.000669	6.689437	1.133221	0.000134
 145	1.4328e+01	2.8683	33.102494	0.000689	6.892148	1.167561	0.000138
 146	1.4428e+01	2.8871	33.288203	0.000932	9.324670	1.579642	0.000187
 147	1.4527e+01	2.9081	33.445651	0.000791	7.905699	1.339262	0.000158
 148	1.4627e+01	2.9281	33.586951	0.000709	7.094858	1.201901	0.000142
 149	1.4726e+01	2.9470	33.732288	0.000730	7.297568	1.236241	0.000146
 150	1.4825e+01	2.9666	33.881662	0.000750	7.500278	1.270582	0.000150
 151	1.4925e+01	2.9864	34.035073	0.000770	7.702989	1.304922	0.000154
 152	1.5024e+01	3.0074	34.188484	0.000770	7.702989	1.304922	0.000154
 153	1.5124e+01	3.0273	34.337858	0.000750	7.500278	1.270582	0.000150
 154	1.5223e+01	3.0473	34.463009	0.000628	6.284017	1.064541	0.000126
 155	1.5323e+01	3.0677	34.656792	0.000973	9.730091	1.648322	0.000195
 156	1.5422e+01	3.0871	34.773869	0.000588	5.878596	0.995861	0.000118
 157	1.5522e+01	3.1068	34.931317	0.000791	7.905699	1.339262	0.000158
 158	1.5621e+01	3.1268	35.056468	0.000628	6.284017	1.064541	0.000126
 159	1.5721e+01	3.1470	35.221991	0.000831	8.311119	1.407942	0.000166
 160	1.5820e+01	3.1667	35.371365	0.000750	7.500278	1.270582	0.000150
 161	1.5920e+01	3.1861	35.484405	0.000568	5.675886	0.961521	0.000114
 162	1.6020e+01	3.2066	35.682224	0.000993	9.932801	1.682662	0.000199
 163	1.6119e+01	3.2262	35.851784	0.000851	8.513829	1.442282	0.000170
 164	1.6218e+01	3.2467	35.972898	0.000608	6.081307	1.030201	0.000122
 165	1.6318e+01	3.2664	36.098049	0.000628	6.284017	1.064541	0.000126
 166	1.6418e+01	3.2853	36.255497	0.000791	7.905699	1.339262	0.000158
 167	1.6517e+01	3.3059	36.445243	0.000953	9.527381	1.613982	0.000191
 168	1.6616e+01	3.3260	36.546171	0.000507	5.067756	0.858501	0.000101
 169	1.6716e+01	3.3463	36.707657	0.000811	8.108409	1.373602	0.000162
 170	1.6816e+01	3.3660	36.905476	0.000993	9.932801	1.682662	0.000199
 171	1.6915e+01	3.3863	37.054850	0.000750	7.500278	1.270582	0.000150
 172	1.7015e+01	3.4052	37.200187	0.000730	7.297568	1.236241	0.000146
 173	1.7114e+01	3.4254	37.272856	0.000365	3.648784	0.618121	0.000073
 174	1.7213e+01	3.4453	37.450490	0.000892	8.919250	1.510962	0.000179
 175	1.7313e+01	3.4653	37.611975	0.000811	8.108409	1.373602	0.000162
 176	1.7413e+01	3.4859	37.809795	0.000993	9.932801	1.682662	0.000199
 177	1.7512e+01	3.5054	37.947057	0.000689	6.892148	1.167561	0.000138
 178	1.7611e+01	3.5249	38.100469	0.000770	7.702989	1.304922	0.000154
 179	1.7711e+01	3.5452	38.241768	0.000709	7.094858	1.201901	0.000142
 180	1.7811e+01	3.5641	38.411328	0.000851	8.513829	1.442282	0.000170
 181	1.7910e+01	3.5845	38.532442	0.000608	6.081307	1.030201	0.000122
 182	1.8009e+01	3.6054	38.681816	0.000750	7.500278	1.270582	0.000150
 183	1.8109e+01	3.6248	38.855413	0.000872	8.716540	1.476622	0.000174
 184	1.8209e+01	3.6448	39.000750	0.000730	7.297568	1.236241	0.000146
 185	1.8308e+01	3.6650	39.129938	0.000649	6.486727	1.098881	0.000130
 186	1.8407e+01	3.6852	39.283349	0.000770	7.702989	1.304922	0.000154
 187	1.8507e+01	3.7048	39.432723	0.000750	7.500278	1.270582	0.000150
 188	1.8607e+01	3.7248	39.557875	0.000628	6.284017	1.064541	0.000126
 189	1.8706e+01	3.7450	39.731471	0.000872	8.716540	1.476622	0.000174
 190	1.8805e+01	3.7652	39.872771	0.000709	7.094858	1.201901	0.000142
 191	1.8905e+01	3.7841	39.981774	0.000547	5.473176	0.927181	0.000110
 192	1.9005e+01	3.8038	40.151333	0.000851	8.513829	1.442282	0.000170
 193	1.9104e+01	3.8239	40.284559	0.000669	6.689437	1.133221	0.000134
 194	1.9203e+01	3.8428	40.446044	0.000811	8.108409	1.373602	0.000162
 195	1.9303e+01	3.8644	40.587344	0.000709	7.094858	1.201901	0.000142
 196	1.9402e+01	3.8837	40.732681	0.000730	7.297568	1.236241	0.000146
 197	1.9502e+01	3.9045	40.878018	0.000730	7.297568	1.236241	0.000146
 198	1.9602e+01	3.9230	41.079875	0.001014	10.135511	1.717002	0.000203
 199	1.9701e+01	3.9425	41.156580	0.000385	3.851494	0.652461	0.000077
 200	1.9800e+01	3.9643	41.342289	0.000932	9.324670	1.579642	0.000187
 201	1.9900e+01	3.9832	41.475514	0.000669	6.689437	1.133221	0.000134
 202	2.0000e+01	4.0029	41.620851	0.000730	7.297568	1.236241	0.000146
 203	2.0099e+01	4.0227	41.766188	0.000730	7.297568	1.236241	0.000146
 204	2.0198e+01	4.0432	41.859042	0.000466	4.662335	0.789821	0.000093
 205	2.0298e+01	4.0636	42.024564	0.000831	8.311119	1.407942	0.000166
 206	2.0398e+01	4.0830	42.157790	0.000669	6.689437	1.133221	0.000134
 207	2.0497e+01	4.1032	42.327350	0.000851	8.513829	1.442282	0.000170
 208	2.0596e+01	4.1236	42.452501	0.000628	6.284017	1.064541	0.000126
 209	2.0696e+01	4.1434	42.630135	0.000892	8.919250	1.510962	0.000179
 210	2.0796e+01	4.1624	42.694729	0.000324	3.243364	0.549441	0.000065
 211	2.0895e+01	4.1822	42.896586	0.001014	10.135511	1.717002	0.000203
 212	2.0994e+01	4.2028	43.017700	0.000608	6.081307	1.030201	0.000122
 213	2.1094e+01	4.2230	43.163037	0.000730	7.297568	1.236241	0.000146
 214	2.1194e+01	4.2421	43.340671	0.000892	8.919250	1.510962	0.000179
 215	2.1293e+01	4.2620	43.453711	0.000568	5.675886	0.961521	0.000114
 216	2.1392e+01	4.2817	43.623270	0.000851	8.513829	1.442282	0.000170
 217	2.1492e+01	4.3018	43.740347	0.000588	5.878596	0.995861	0.000118
 218	2.1591e+01	4.3215	43.897795	0.000791	7.905699	1.339262	0.000158
 219	2.1691e+01	4.3426	44.031021	0.000669	6.689437	1.133221	0.000134
 220	2.1791e+01	4.3623	44.156172	0.000628	6.284017	1.064541	0.000126
 221	2.1890e+01	4.3815	44.309583	0.000770	7.702989	1.304922	0.000154
 222	2.1989e+01	4.4017	44.458957	0.000750	7.500278	1.270582	0.000150
 223	2.2089e+01	4.4213	44.571997	0.000568	5.675886	0.961521	0.000114
 224	2.2189e+01	4.4421	44.741557	0.000851	8.513829	1.442282	0.000170
 225	2.2288e+01	4.4613	44.842485	0.000507	5.067756	0.858501	0.000101
 226	2.2387e+01	4.4813	44.991859	0.000750	7.500278	1.270582	0.000150
 227	2.2487e+01	4.5018	45.149308	0.000791	7.905699	1.339262	0.000158
 228	2.2587e+01	4.5210	45.294644	0.000730	7.297568	1.236241	0.000146
 229	2.2686e+01	4.5415	45.448056	0.000770	7.702989	1.304922	0.000154
 230	2.2785e+01	4.5610	45.565133	0.000588	5.878596	0.995861	0.000118
 231	2.2885e+01	4.5811	45.718544	0.000770	7.702989	1.304922	0.000154
 232	2.2985e+01	4.6008	45.835621	0.000588	5.878596	0.995861	0.000118
 233	2.3084e+01	4.6211	46.005180	0.000851	8.513829	1.442282	0.000170
 234	2.3183e+01	4.6413	46.114183	0.000547	5.473176	0.927181	0.000110
 235	2.3283e+01	4.6610	46.271631	0.000791	7.905699	1.339262	0.000158
 236	2.3383e+01	4.6804	46.421005	0.000750	7.500278	1.270582	0.000150
 237	2.3482e+01	4.7002	46.582491	0.000811	8.108409	1.373602	0.000162
 238	2.3581e+01	4.7207	46.687456	0.000527	5.270466	0.892841	0.000105
 239	2.3681e+01	4.7401	46.836830	0.000750	7.500278	1.270582	0.000150
 240	2.3780e+01	4.7598	46.982167	0.000730	7.297568	1.236241	0.000146
 241	2.3880e+01	4.7800	47.115393	0.000669	6.689437	1.133221	0.000134
 242	2.3980e+01	4.8009	47.228432	0.000568	5.675886	0.961521	0.000114
 243	2.4079e+01	4.8200	47.402029	0.000872	8.716540	1.476622	0.000174
 244	2.4178e+01	4.8399	47.535255	0.000669	6.689437	1.133221	0.000134
 245	2.4278e+01	4.8608	47.644257	0.000547	5.473176	0.927181	0.000110
 246	2.4378e+01	4.8792	47.789594	0.000730	7.297568	1.236241	0.000146
 247	2.4477e+01	4.8997	47.955117	0.000831	8.311119	1.407942	0.000166
 248	2.4576e+01	4.9197	48.039897	0.000426	4.256915	0.721141	0.000085
 249	2.4676e+01	4.9393	48.197345	0.000791	7.905699	1.339262	0.000158
 250	2.4776e+01	4.9598	48.338645	0.000709	7.094858	1.201901	0.000142
 251	2.4875e+01	4.9796	48.439573	0.000507	5.067756	0.858501	0.000101
 252	2.4974e+01	5.0001	48.584910	0.000730	7.297568	1.236241	0.000146
 253	2.5074e+01	5.0201	48.726210	0.000709	7.094858	1.201901	0.000142
 254	2.5174e+01	5.0393	48.831175	0.000527	5.270466	0.892841	0.000105
 255	2.5273e+01	5.0599	48.992661	0.000811	8.108409	1.373602	0.000162
 256	2.5372e+01	5.0783	49.121849	0.000649	6.486727	1.098881	0.000130
 257	2.5472e+01	5.0999	49.247000	0.000628	6.284017	1.064541	0.000126
 258	2.5572e+01	5.1177	49.384263	0.000689	6.892148	1.167561	0.000138
 259	2.5671e+01	5.1382	49.533637	0.000750	7.500278	1.270582	0.000150
 260	2.5770e+01	5.1581	49.654751	0.000608	6.081307	1.030201	0.000122
 261	2.5870e+01	5.1785	49.792014	0.000689	6.892148	1.167561	0.000138
 262	2.5970e+01	5.1977	49.933313	0.000709	7.094858	1.201901	0.000142
 263	2.6069e+01	5.2174	50.030205	0.000487	4.865045	0.824161	0.000097
 264	2.6169e+01	5.2386	50.191690	0.000811	8.108409	1.373602	0.000162
 265	2.6268e+01	5.2585	50.284544	0.000466	4.662335	0.789821	0.000093
 266	2.6367e+01	5.2774	50.429881	0.000730	7.297568	1.236241	0.000146
 267	2.6467e+01	5.2979	50.575218	0.000730	7.297568	1.236241	0.000146
 268	2.6567e+01	5.3187	50.668072	0.000466	4.662335	0.789821	0.000093
 269	2.6666e+01	5.3384	50.837632	0.000851	8.513829	1.442282	0.000170
 270	2.6765e+01	5.3568	51.003154	0.000831	8.311119	1.407942	0.000166
 271	2.6865e+01	5.3769	51.075823	0.000365	3.648784	0.618121	0.000073
 272	2.6965e+01	5.3963	51.221160	0.000730	7.297568	1.236241	0.000146
 273	2.7064e+01	5.4169	51.378608	0.000791	7.905699	1.339262	0.000158
 274	2.7163e+01	5.4375	51.511833	0.000669	6.689437	1.133221	0.000134
 275	2.7263e+01	5.4568	51.612762	0.000507	5.067756	0.858501	0.000101
 276	2.7363e+01	5.4778	51.733876	0.000608	6.081307	1.030201	0.000122
 277	2.7462e+01	5.4962	51.895361	0.000811	8.108409	1.373602	0.000162
 278	2.7561e+01	5.5163	51.984178	0.000446	4.459625	0.755481	0.000089
 279	2.7661e+01	5.5371	52.161812	0.000892	8.919250	1.510962	0.000179
 280	2.7761e+01	5.5575	52.262741	0.000507	5.067756	0.858501	0.000101
 281	2.7860e+01	5.5773	52.416152	0.000770	7.702989	1.304922	0.000154
 282	2.7959e+01	5.5963	52.529192	0.000568	5.675886	0.961521	0.000114
 283	2.8059e+01	5.6171	52.678566	0.000750	7.500278	1.270582	0.000150
 284	2.8159e+01	5.6368	52.803717	0.000628	6.284017	1.064541	0.000126
 285	2.8258e+01	5.6568	52.940980	0.000689	6.892148	1.167561	0.000138
 286	2.8358e+01	5.6763	53.041908	0.000507	5.067756	0.858501	0.000101
 287	2.8457e+01	5.6963	53.150911	0.000547	5.473176	0.927181	0.000110
 288	2.8556e+01	5.7163	53.324507	0.000872	8.716540	1.476622	0.000174
 289	2.8656e+01	5.7365	53.465807	0.000709	7.094858	1.201901	0.000142
 290	2.8756e+01	5.7563	53.570773	0.000527	5.270466	0.892841	0.000105
 291	2.8855e+01	5.7762	53.691887	0.000608	6.081307	1.030201	0.000122
 292	2.8954e+01	5.7954	53.837224	0.000730	7.297568	1.236241	0.000146
 293	2.9054e+01	5.8157	53.998709	0.000811	8.108409	1.373602	0.000162
 294	2.9154e+01	5.8355	54.075415	0.000385	3.851494	0.652461	0.000077
 295	2.9253e+01	5.8559	54.220752	0.000730	7.297568	1.236241	0.000146
 296	2.9352e+01	5.8753	54.341866	0.000608	6.081307	1.030201	0.000122
 297	2.9452e+01	5.8950	54.458943	0.000588	5.878596	0.995861	0.000118
 298	2.9552e+01	5.9155	54.612354	0.000770	7.702989	1.304922	0.000154
 299	2.9651e+01	5.9350	54.737505	0.000628	6.284017	1.064541	0.000126
 300	2.9750e+01	5.9557	54.890916	0.000770	7.702989	1.304922	0.000154
 301	2.9850e+01	5.9748	54.987807	0.000487	4.865045	0.824161	0.000097
 302	2.9950e+01	5.9959	55.116996	0.000649	6.486727	1.098881	0.000130
 303	3.0049e+01	6.0155	55.278481	0.000811	8.108409	1.373602	0.000162
 304	3.0148e+01	6.0348	55.367298	0.000446	4.459625	0.755481	0.000089
 305	3.0248e+01	6.0552	55.508598	0.000709	7.094858	1.201901	0.000142
 306	3.0348e+01	6.0748	55.609526	0.000507	5.067756	0.858501	0.000101
 307	3.0447e+01	6.0948	55.738715	0.000649	6.486727	1.098881	0.000130
 308	3.0547e+01	6.1146	55.888089	0.000750	7.500278	1.270582	0.000150
 309	3.0646e+01	6.1349	56.001128	0.000568	5.675886	0.961521	0.000114
 310	3.0745e+01	6.1558	56.130317	0.000649	6.486727	1.098881	0.000130
 311	3.0845e+01	6.1749	56.279691	0.000750	7.500278	1.270582	0.000150
 312	3.0945e+01	6.1946	56.380619	0.000507	5.067756	0.858501	0.000101
 313	3.1044e+01	6.2149	56.554216	0.000872	8.716540	1.476622	0.000174
 314	3.1143e+01	6.2338	56.630922	0.000385	3.851494	0.652461	0.000077
 315	3.1243e+01	6.2542	56.743961	0.000568	5.675886	0.961521	0.000114
 316	3.1343e+01	6.2738	56.873150	0.000649	6.486727	1.098881	0.000130
 317	3.1442e+01	6.2942	56.998301	0.000628	6.284017	1.064541	0.000126
 318	3.1541e+01	6.3138	57.131526	0.000669	6.689437	1.133221	0.000134
 319	3.1641e+01	6.3331	57.236492	0.000527	5.270466	0.892841	0.000105
 320	3.1741e+01	6.3536	57.361643	0.000628	6.284017	1.064541	0.000126
 321	3.1840e+01	6.3732	57.502943	0.000709	7.094858	1.201901	0.000142
 322	3.1939e+01	6.3932	57.611946	0.000547	5.473176	0.927181	0.000110
 323	3.2039e+01	6.4126	57.729022	0.000588	5.878596	0.995861	0.000118
 324	3.2139e+01	6.4327	57.850137	0.000608	6.081307	1.030201	0.000122
 325	3.2238e+01	6.4521	58.011622	0.000811	8.108409	1.373602	0.000162
 326	3.2337e+01	6.4730	58.096402	0.000426	4.256915	0.721141	0.000085
 327	3.2437e+01	6.4922	58.233664	0.000689	6.892148	1.167561	0.000138
 328	3.2536e+01	6.5130	58.350741	0.000588	5.878596	0.995861	0.000118
 329	3.2636e+01	6.5321	58.459744	0.000547	5.473176	0.927181	0.000110
 330	3.2736e+01	6.5525	58.609118	0.000750	7.500278	1.270582	0.000150
 331	3.2835e+01	6.5719	58.742344	0.000669	6.689437	1.133221	0.000134
 332	3.2934e+01	6.5918	58.843272	0.000507	5.067756	0.858501	0.000101
 333	3.3034e+01	6.6116	58.996683	0.000770	7.702989	1.304922	0.000154
 334	3.3133e+01	6.6312	59.101649	0.000527	5.270466	0.892841	0.000105
 335	3.3233e+01	6.6523	59.259097	0.000791	7.905699	1.339262	0.000158
 336	3.3333e+01	6.6725	59.372137	0.000568	5.675886	0.961521	0.000114
 337	3.3432e+01	6.6926	59.509399	0.000689	6.892148	1.167561	0.000138
 338	3.3532e+01	6.7110	59.618402	0.000547	5.473176	0.927181	0.000110
 339	3.3631e+01	6.7318	59.723368	0.000527	5.270466	0.892841	0.000105
 340	3.3730e+01	6.7514	59.909076	0.000932	9.324670	1.579642	0.000187
 341	3.3830e+01	6.7725	59.977707	0.000345	3.446074	0.583781	0.000069
 342	3.3929e+01	6.7915	60.123044	0.000730	7.297568	1.236241	0.000146
 343	3.4029e+01	6.8113	60.252232	0.000649	6.486727	1.098881	0.000130
 344	3.4129e+01	6.8306	60.357198	0.000527	5.270466	0.892841	0.000105
 345	3.4228e+01	6.8520	60.498498	0.000709	7.094858	1.201901	0.000142
 346	3.4328e+01	6.8710	60.615575	0.000588	5.878596	0.995861	0.000118
 347	3.4427e+01	6.8922	60.748800	0.000669	6.689437	1.133221	0.000134
 348	3.4526e+01	6.9115	60.873951	0.000628	6.284017	1.064541	0.000126
 349	3.4626e+01	6.9312	60.966805	0.000466	4.662335	0.789821	0.000093
 350	3.4725e+01	6.9518	61.104068	0.000689	6.892148	1.167561	0.000138
 351	3.4825e+01	6.9702	61.253442	0.000750	7.500278	1.270582	0.000150
 352	3.4925e+01	6.9905	61.374556	0.000608	6.081307	1.030201	0.000122
 353	3.5024e+01	7.0103	61.487596	0.000568	5.675886	0.961521	0.000114
 354	3.5123e+01	7.0305	61.628896	0.000709	7.094858	1.201901	0.000142
 355	3.5223e+01	7.0504	61.758084	0.000649	6.486727	1.098881	0.000130
 356	3.5322e+01	7.0708	61.818641	0.000304	3.040653	0.515101	0.000061
 357	3.5422e+01	7.0899	61.968015	0.000750	7.500278	1.270582	0.000150
 358	3.5522e+01	7.1095	62.072981	0.000527	5.270466	0.892841	0.000105
 359	3.5621e+01	7.1298	62.202169	0.000649	6.486727	1.098881	0.000130
 360	3.5721e+01	7.1511	62.343469	0.000709	7.094858	1.201901	0.000142
 361	3.5820e+01	7.1700	62.436323	0.000466	4.662335	0.789821	0.000093
 362	3.5919e+01	7.1905	62.589734	0.000770	7.702989	1.304922	0.000154
 363	3.6019e+01	7.2095	62.670477	0.000405	4.054204	0.686801	0.000081
 364	3.6118e+01	7.2290	62.779479	0.000547	5.473176	0.927181	0.000110
 365	3.6218e+01	7.2503	62.949039	0.000851	8.513829	1.442282	0.000170
 366	3.6318e+01	7.2698	63.070153	0.000608	6.081307	1.030201	0.000122
 367	3.6417e+01	7.2897	63.191267	0.000608	6.081307	1.030201	0.000122
 368	3.6517e+01	7.3097	63.312381	0.000608	6.081307	1.030201	0.000122
 369	3.6616e+01	7.3305	63.425421	0.000568	5.675886	0.961521	0.000114
 370	3.6715e+01	7.3501	63.542498	0.000588	5.878596	0.995861	0.000118
 371	3.6815e+01	7.3692	63.647463	0.000527	5.270466	0.892841	0.000105
 372	3.6914e+01	7.3888	63.784726	0.000689	6.892148	1.167561	0.000138
 373	3.7014e+01	7.4097	63.873543	0.000446	4.459625	0.755481	0.000089
 374	3.7114e+01	7.4297	63.994657	0.000608	6.081307	1.030201	0.000122
 375	3.7213e+01	7.4487	64.123845	0.000649	6.486727	1.098881	0.000130
 376	3.7313e+01	7.4683	64.240922	0.000588	5.878596	0.995861	0.000118
 377	3.7412e+01	7.4902	64.370111	0.000649	6.486727	1.098881	0.000130
 378	3.7511e+01	7.5082	64.507373	0.000689	6.892148	1.167561	0.000138
 379	3.7611e+01	7.5285	64.608302	0.000507	5.067756	0.858501	0.000101
 380	3.7711e+01	7.5478	64.689044	0.000405	4.054204	0.686801	0.000081
 381	3.7810e+01	7.5689	64.846493	0.000791	7.905699	1.339262	0.000158
 382	3.7910e+01	7.5889	64.955495	0.000547	5.473176	0.927181	0.000110
 383	3.8009e+01	7.6087	65.080647	0.000628	6.284017	1.064541	0.000126
 384	3.8108e+01	7.6279	65.173501	0.000466	4.662335	0.789821	0.000093
 385	3.8208e+01	7.6482	65.306726	0.000669	6.689437	1.133221	0.000134
 386	3.8307e+01	7.6685	65.443989	0.000689	6.892148	1.167561	0.000138
 387	3.8407e+01	7.6869	65.528769	0.000426	4.256915	0.721141	0.000085
 388	3.8507e+01	7.7078	65.645846	0.000588	5.878596	0.995861	0.000118
 389	3.8606e+01	7.7277	65.787145	0.000709	7.094858	1.201901	0.000142
 390	3.8706e+01	7.7473	65.892111	0.000527	5.270466	0.892841	0.000105
 391	3.8805e+01	7.7667	66.049559	0.000791	7.905699	1.339262	0.000158
 392	3.8904e+01	7.7871	66.126265	0.000385	3.851494	0.652461	0.000077
 393	3.9004e+01	7.8072	66.247379	0.000608	6.081307	1.030201	0.000122
 394	3.9103e+01	7.8271	66.364456	0.000588	5.878596	0.995861	0.000118
 395	3.9203e+01	7.8479	66.489607	0.000628	6.284017	1.064541	0.000126
 396	3.9303e+01	7.8672	66.582461	0.000466	4.662335	0.789821	0.000093
 397	3.9402e+01	7.8868	66.727798	0.000730	7.297568	1.236241	0.000146
 398	3.9502e+01	7.9077	66.816615	0.000446	4.459625	0.755481	0.000089
 399	3.9601e+01	7.9274	66.970026	0.000770	7.702989	1.304922	0.000154
 400	3.9700e+01	7.9461	67.054806	0.000426	4.256915	0.721141	0.000085
 401	3.9800e+01	7.9668	67.204180	0.000750	7.500278	1.270582	0.000150
 402	3.9900e+01	7.9868	67.297034	0.000466	4.662335	0.789821	0.000093
 403	3.9999e+01	8.0064	67.454482	0.000791	7.905699	1.339262	0.000158
 404	4.0099e+01	8.0262	67.535225	0.000405	4.054204	0.686801	0.000081
 405	4.0198e+01	8.0469	67.652302	0.000588	5.878596	0.995861	0.000118
 406	4.0297e+01	8.0656	67.757268	0.000527	5.270466	0.892841	0.000105
 407	4.0397e+01	8.0860	67.870307	0.000568	5.675886	0.961521	0.000114
 408	4.0496e+01	8.1061	68.003533	0.000669	6.689437	1.133221	0.000134
 409	4.0596e+01	8.1256	68.128684	0.000628	6.284017	1.064541	0.000126
 410	4.0696e+01	8.1464	68.233650	0.000527	5.270466	0.892841	0.000105
 411	4.0795e+01	8.1649	68.338615	0.000527	5.270466	0.892841	0.000105
 412	4.0895e+01	8.1853	68.439544	0.000507	5.067756	0.858501	0.000101
 413	4.0994e+01	8.2049	68.568732	0.000649	6.486727	1.098881	0.000130
 414	4.1093e+01	8.2257	68.681772	0.000568	5.675886	0.961521	0.000114
 415	4.1193e+01	8.2450	68.782700	0.000507	5.067756	0.858501	0.000101
 416	4.1292e+01	8.2645	68.891703	0.000547	5.473176	0.927181	0.000110
 417	4.1392e+01	8.2858	69.008780	0.000588	5.878596	0.995861	0.000118
 418	4.1492e+01	8.3043	69.133931	0.000628	6.284017	1.064541	0.000126
 419	4.1591e+01	8.3245	69.238896	0.000527	5.270466	0.892841	0.000105
 420	4.1691e+01	8.3447	69.347899	0.000547	5.473176	0.927181	0.000110
 421	4.1790e+01	8.3646	69.448828	0.000507	5.067756	0.858501	0.000101
 422	4.1889e+01	8.3849	69.598202	0.000750	7.500278	1.270582	0.000150
 423	4.1989e+01	8.4049	69.723353	0.000628	6.284017	1.064541	0.000126
 424	4.2089e+01	8.4248	69.816207	0.000466	4.662335	0.789821	0.000093
 425	4.2188e+01	8.4457	69.900987	0.000426	4.256915	0.721141	0.000085
 426	4.2288e+01	8.4656	70.022101	0.000608	6.081307	1.030201	0.000122
 427	4.2387e+01	8.4850	70.135141	0.000568	5.675886	0.961521	0.000114
 428	4.2486e+01	8.5046	70.236069	0.000507	5.067756	0.858501	0.000101
 429	4.2586e+01	8.5241	70.332960	0.000487	4.865045	0.824161	0.000097
 430	4.2685e+01	8.5439	70.429852	0.000487	4.865045	0.824161	0.000097
 431	4.2785e+01	8.5654	70.559040	0.000649	6.486727	1.098881	0.000130
 432	4.2885e+01	8.5844	70.704377	0.000730	7.297568	1.236241	0.000146
 433	4.2984e+01	8.6041	70.805305	0.000507	5.067756	0.858501	0.000101
 434	4.3084e+01	8.6247	70.869899	0.000324	3.243364	0.549441	0.000065
 435	4.3183e+01	8.6443	71.007162	0.000689	6.892148	1.167561	0.000138
 436	4.3282e+01	8.6631	71.144425	0.000689	6.892148	1.167561	0.000138
 437	4.3382e+01	8.6844	71.233242	0.000446	4.459625	0.755481	0.000089
 438	4.3481e+01	8.7036	71.293799	0.000304	3.040653	0.515101	0.000061
 439	4.3581e+01	8.7238	71.447210	0.000770	7.702989	1.304922	0.000154
 440	4.3681e+01	8.7427	71.556212	0.000547	5.473176	0.927181	0.000110
 441	4.3780e+01	8.7636	71.669252	0.000568	5.675886	0.961521	0.000114
 442	4.3880e+01	8.7827	71.778255	0.000547	5.473176	0.927181	0.000110
 443	4.3979e+01	8.8029	71.891295	0.000568	5.675886	0.961521	0.000114
 444	4.4078e+01	8.8233	72.024520	0.000669	6.689437	1.133221	0.000134
 445	4.4178e+01	8.8428	72.089114	0.000324	3.243364	0.549441	0.000065
 446	4.4278e+01	8.8623	72.173894	0.000426	4.256915	0.721141	0.000085
 447	4.4377e+01	8.8822	72.303083	0.000649	6.486727	1.098881	0.000130
 448	4.4477e+01	8.9027	72.440345	0.000689	6.892148	1.167561	0.000138
 449	4.4576e+01	8.9224	72.545311	0.000527	5.270466	0.892841	0.000105
 450	4.4675e+01	8.9417	72.638165	0.000466	4.662335	0.789821	0.000093
 451	4.4775e+01	8.9610	72.775427	0.000689	6.892148	1.167561	0.000138
 452	4.4874e+01	8.9810	72.868282	0.000466	4.662335	0.789821	0.000093
 453	4.4974e+01	9.0017	72.973247	0.000527	5.270466	0.892841	0.000105
 454	4.5074e+01	9.0210	73.098398	0.000628	6.284017	1.064541	0.000126
 455	4.5173e+01	9.0424	73.227587	0.000649	6.486727	1.098881	0.000130
 456	4.5273e+01	9.0620	73.304292	0.000385	3.851494	0.652461	0.000077
 457	4.5372e+01	9.0815	73.389072	0.000426	4.256915	0.721141	0.000085
 458	4.5471e+01	9.1009	73.534409	0.000730	7.297568	1.236241	0.000146
 459	4.5571e+01	9.1219	73.635337	0.000507	5.067756	0.858501	0.000101
 460	4.5670e+01	9.1412	73.716080	0.000405	4.054204	0.686801	0.000081
 461	4.5770e+01	9.1605	73.889677	0.000872	8.716540	1.476622	0.000174
 462	4.5870e+01	9.1810	73.926011	0.000182	1.824392	0.309060	0.000037
 463	4.5969e+01	9.2007	74.059237	0.000669	6.689437	1.133221	0.000134
 464	4.6069e+01	9.2206	74.160165	0.000507	5.067756	0.858501	0.000101
 465	4.6168e+01	9.2407	74.285316	0.000628	6.284017	1.064541	0.000126
 466	4.6267e+01	9.2603	74.398356	0.000568	5.675886	0.961521	0.000114
 467	4.6367e+01	9.2813	74.543693	0.000730	7.297568	1.236241	0.000146
 468	4.6467e+01	9.3018	74.612324	0.000345	3.446074	0.583781	0.000069
 469	4.6566e+01	9.3216	74.709215	0.000487	4.865045	0.824161	0.000097
 470	4.6666e+01	9.3408	74.838404	0.000649	6.486727	1.098881	0.000130
 471	4.6765e+01	9.3607	74.967592	0.000649	6.486727	1.098881	0.000130
 472	4.6864e+01	9.3810	75.072558	0.000527	5.270466	0.892841	0.000105
 473	4.6964e+01	9.3999	75.177523	0.000527	5.270466	0.892841	0.000105
 474	4.7063e+01	9.4189	75.270377	0.000466	4.662335	0.789821	0.000093
 475	4.7163e+01	9.4409	75.359194	0.000446	4.459625	0.755481	0.000089
 476	4.7263e+01	9.4586	75.476271	0.000588	5.878596	0.995861	0.000118
 477	4.7362e+01	9.4800	75.573162	0.000487	4.865045	0.824161	0.000097
 478	4.7462e+01	9.4991	75.670054	0.000487	4.865045	0.824161	0.000097
 479	4.7561e+01	9.5193	75.787131	0.000588	5.878596	0.995861	0.000118
 480	4.7660e+01	9.5394	75.896133	0.000547	5.473176	0.927181	0.000110
 481	4.7760e+01	9.5605	76.017247	0.000608	6.081307	1.030201	0.000122
 482	4.7859e+01	9.5782	76.114139	0.000487	4.865045	0.824161	0.000097
 483	4.7959e+01	9.5988	76.190844	0.000385	3.851494	0.652461	0.000077
 484	4.8059e+01	9.6183	76.315995	0.000628	6.284017	1.064541	0.000126
 485	4.8158e+01	9.6378	76.384627	0.000345	3.446074	0.583781	0.000069
 486	4.8258e+01	9.6594	76.521889	0.000689	6.892148	1.167561	0.000138
 487	4.8357e+01	9.6783	76.618781	0.000487	4.865045	0.824161	0.000097
 488	4.8456e+01	9.6984	76.760080	0.000709	7.094858	1.201901	0.000142
 489	4.8556e+01	9.7201	76.840823	0.000405	4.054204	0.686801	0.000081
 490	4.8656e+01	9.7392	76.945789	0.000527	5.270466	0.892841	0.000105
 491	4.8755e+01	9.7589	77.030568	0.000426	4.256915	0.721141	0.000085
 492	4.8855e+01	9.7785	77.147645	0.000588	5.878596	0.995861	0.000118
 493	4.8954e+01	9.7986	77.288945	0.000709	7.094858	1.201901	0.000142
 494	4.9053e+01	9.8181	77.361614	0.000365	3.648784	0.618121	0.000073
 495	4.9153e+01	9.8373	77.466579	0.000527	5.270466	0.892841	0.000105
 496	4.9252e+01	9.8573	77.567508	0.000507	5.067756	0.858501	0.000101
 497	4.9352e+01	9.8780	77.660362	0.000466	4.662335	0.789821	0.000093
 498	4.9452e+01	9.8980	77.817810	0.000791	7.905699	1.339262	0.000158
 499	4.9551e+01	9.9182	77.934887	0.000588	5.878596	0.995861	0.000118
 500	4.9651e+01	9.9366	77.987370	0.000264	2.635233	0.446421	0.000053
 501	4.9750e+01	9.9577	78.116558	0.000649	6.486727	1.098881	0.000130
 502	4.9849e+01	9.9777	78.237672	0.000608	6.081307	1.030201	0.000122
 503	4.9949e+01	9.9968	78.346675	0.000547	5.473176	0.927181	0.000110
 504	5.0048e+01	9.9780	78.278043	0.000345	3.446074	0.583781	-0.000069
 505	5.0148e+01	9.9585	78.217486	0.000304	3.040653	0.515101	-0.000061
 506	5.0248e+01	9.9380	78.124632	0.000466	4.662335	0.789821	-0.000093
 507	5.0347e+01	9.9173	78.076187	0.000243	2.432523	0.412080	-0.000049
 508	5.0447e+01	9.8981	78.007555	0.000345	3.446074	0.583781	-0.000069
 509	5.0546e+01	9.8779	77.926813	0.000405	4.054204	0.686801	-0.000081
 510	5.0645e+01	9.8582	77.842033	0.000426	4.256915	0.721141	-0.000085
 511	5.0745e+01	9.8383	77.753216	0.000446	4.459625	0.755481	-0.000089
 512	5.0844e+01	9.8184	77.696696	0.000284	2.837943	0.480761	-0.000057
 513	5.0944e+01	9.7983	77.624027	0.000365	3.648784	0.618121	-0.000073
 514	5.1044e+01	9.7782	77.535210	0.000446	4.459625	0.755481	-0.000089
 515	5.1143e+01	9.7583	77.438319	0.000487	4.865045	0.824161	-0.000097
 516	5.1242e+01	9.7385	77.357576	0.000405	4.054204	0.686801	-0.000081
 517	5.1342e+01	9.7181	77.305094	0.000264	2.635233	0.446421	-0.000053
 518	5.1441e+01	9.6990	77.236462	0.000345	3.446074	0.583781	-0.000069
 519	5.1541e+01	9.6795	77.147645	0.000446	4.459625	0.755481	-0.000089
 520	5.1641e+01	9.6592	77.042680	0.000527	5.270466	0.892841	-0.000105
 521	5.1740e+01	9.6387	76.990197	0.000264	2.635233	0.446421	-0.000053
 522	5.1840e+01	9.6184	76.889269	0.000507	5.067756	0.858501	-0.000101
 523	5.1939e+01	9.5998	76.780266	0.000547	5.473176	0.927181	-0.000110
 524	5.2038e+01	9.5789	76.735858	0.000223	2.229812	0.377740	-0.000045
 525	5.2138e+01	9.5593	76.655115	0.000405	4.054204	0.686801	-0.000081
 526	5.2237e+01	9.5399	76.598595	0.000284	2.837943	0.480761	-0.000057
 527	5.2337e+01	9.5197	76.469407	0.000649	6.486727	1.098881	-0.000130
 528	5.2437e+01	9.4992	76.404812	0.000324	3.243364	0.549441	-0.000065
 529	5.2536e+01	9.4800	76.315995	0.000446	4.459625	0.755481	-0.000089
 530	5.2636e+01	9.4595	76.206993	0.000547	5.473176	0.927181	-0.000110
 531	5.2735e+01	9.4398	76.170659	0.000182	1.824392	0.309060	-0.000037
 532	5.2834e+01	9.4184	76.065693	0.000527	5.270466	0.892841	-0.000105
 533	5.2934e+01	9.4001	75.964765	0.000507	5.067756	0.858501	-0.000101
 534	5.3033e+01	9.3802	75.879985	0.000426	4.256915	0.721141	-0.000085
 535	5.3133e+01	9.3597	75.795205	0.000426	4.256915	0.721141	-0.000085
 536	5.3233e+01	9.3393	75.722536	0.000365	3.648784	0.618121	-0.000073
 537	5.3332e+01	9.3204	75.633719	0.000446	4.459625	0.755481	-0.000089
 538	5.3431e+01	9.3003	75.552977	0.000405	4.054204	0.686801	-0.000081
 539	5.3531e+01	9.2809	75.456086	0.000487	4.865045	0.824161	-0.000097
 540	5.3630e+01	9.2609	75.367269	0.000446	4.459625	0.755481	-0.000089
 541	5.3730e+01	9.2411	75.270377	0.000487	4.865045	0.824161	-0.000097
 542	5.3830e+01	9.2212	75.173486	0.000487	4.865045	0.824161	-0.000097
 543	5.3929e+01	9.2011	75.116966	0.000284	2.837943	0.480761	-0.000057
 544	5.4029e+01	9.1801	75.020075	0.000487	4.865045	0.824161	-0.000097
 545	5.4128e+01	9.1614	74.919146	0.000507	5.067756	0.858501	-0.000101
 546	5.4227e+01	9.1422	74.830329	0.000446	4.459625	0.755481	-0.000089
 547	5.4327e+01	9.1211	74.733438	0.000487	4.865045	0.824161	-0.000097
 548	5.4426e+01	9.1010	74.672881	0.000304	3.040653	0.515101	-0.000061
 549	5.4526e+01	9.0809	74.580027	0.000466	4.662335	0.789821	-0.000093
 550	5.4626e+01	9.0616	74.511396	0.000345	3.446074	0.583781	-0.000069
 551	5.4725e+01	9.0408	74.418542	0.000466	4.662335	0.789821	-0.000093
 552	5.4825e+01	9.0222	74.321650	0.000487	4.865045	0.824161	-0.000097
 553	5.4924e+01	9.0024	74.204573	0.000588	5.878596	0.995861	-0.000118
 554	5.5023e+01	8.9826	74.107682	0.000487	4.865045	0.824161	-0.000097
 555	5.5123e+01	8.9627	74.043088	0.000324	3.243364	0.549441	-0.000065
 556	5.5222e+01	8.9417	73.921974	0.000608	6.081307	1.030201	-0.000122
 557	5.5322e+01	8.9224	73.857380	0.000324	3.243364	0.549441	-0.000065
 558	5.5422e+01	8.9016	73.760489	0.000487	4.865045	0.824161	-0.000097
 559	5.5521e+01	8.8818	73.675709	0.000426	4.256915	0.721141	-0.000085
 560	5.5620e+01	8.8625	73.574780	0.000507	5.067756	0.858501	-0.000101
 561	5.5720e+01	8.8419	73.530372	0.000223	2.229812	0.377740	-0.000045
 562	5.5819e+01	8.8232	73.425406	0.000527	5.270466	0.892841	-0.000105
 563	5.5919e+01	8.8033	73.316404	0.000547	5.473176	0.927181	-0.000110
 564	5.6019e+01	8.7830	73.207401	0.000547	5.473176	0.927181	-0.000110
 565	5.6118e+01	8.7629	73.146844	0.000304	3.040653	0.515101	-0.000061
 566	5.6218e+01	8.7433	73.062064	0.000426	4.256915	0.721141	-0.000085
 567	5.6317e+01	8.7231	72.953061	0.000547	5.473176	0.927181	-0.000110
 568	5.6416e+01	8.7036	72.876356	0.000385	3.851494	0.652461	-0.000077
 569	5.6516e+01	8.6841	72.747167	0.000649	6.486727	1.098881	-0.000130
 570	5.6615e+01	8.6632	72.718907	0.000142	1.418972	0.240380	-0.000028
 571	5.6715e+01	8.6436	72.597793	0.000608	6.081307	1.030201	-0.000122
 572	5.6815e+01	8.6239	72.496865	0.000507	5.067756	0.858501	-0.000101
 573	5.6914e+01	8.6040	72.412085	0.000426	4.256915	0.721141	-0.000085
 574	5.7014e+01	8.5828	72.327305	0.000426	4.256915	0.721141	-0.000085
 575	5.7113e+01	8.5648	72.226377	0.000507	5.067756	0.858501	-0.000101
 576	5.7212e+01	8.5437	72.181968	0.000223	2.229812	0.377740	-0.000045
 577	5.7312e+01	8.5250	72.072966	0.000547	5.473176	0.927181	-0.000110
 578	5.7411e+01	8.5043	71.955889	0.000588	5.878596	0.995861	-0.000118
 579	5.7511e+01	8.4843	71.891295	0.000324	3.243364	0.549441	-0.000065
 580	5.7611e+01	8.4644	71.774218	0.000588	5.878596	0.995861	-0.000118
 581	5.7710e+01	8.4449	71.661178	0.000568	5.675886	0.961521	-0.000114
 582	5.7809e+01	8.4245	71.600621	0.000304	3.040653	0.515101	-0.000061
 583	5.7909e+01	8.4042	71.511804	0.000446	4.459625	0.755481	-0.000089
 584	5.8008e+01	8.3848	71.418950	0.000466	4.662335	0.789821	-0.000093
 585	5.8108e+01	8.3643	71.297836	0.000608	6.081307	1.030201	-0.000122
 586	5.8208e+01	8.3453	71.180759	0.000588	5.878596	0.995861	-0.000118
 587	5.8307e+01	8.3252	71.091942	0.000446	4.459625	0.755481	-0.000089
 588	5.8407e+01	8.3062	71.015236	0.000385	3.851494	0.652461	-0.000077
 589	5.8506e+01	8.2856	70.906234	0.000547	5.473176	0.927181	-0.000110
 590	5.8605e+01	8.2645	70.801268	0.000527	5.270466	0.892841	-0.000105
 591	5.8705e+01	8.2459	70.724562	0.000385	3.851494	0.652461	-0.000077
 592	5.8804e+01	8.2257	70.599411	0.000628	6.284017	1.064541	-0.000126
 593	5.8904e+01	8.2056	70.510594	0.000446	4.459625	0.755481	-0.000089
 594	5.9004e+01	8.1860	70.409666	0.000507	5.067756	0.858501	-0.000101
 595	5.9103e+01	8.1654	70.316812	0.000466	4.662335	0.789821	-0.000093
 596	5.9203e+01	8.1458	70.207809	0.000547	5.473176	0.927181	-0.000110
 597	5.9302e+01	8.1262	70.098806	0.000547	5.473176	0.927181	-0.000110
 598	5.9401e+01	8.1064	70.038249	0.000304	3.040653	0.515101	-0.000061
 599	5.9501e+01	8.0866	69.945395	0.000466	4.662335	0.789821	-0.000093
 600	5.9600e+01	8.0659	69.828318	0.000588	5.878596	0.995861	-0.000118
 601	5.9700e+01	8.0460	69.723353	0.000527	5.270466	0.892841	-0.000105
 602	5.9800e+01	8.0261	69.602239	0.000608	6.081307	1.030201	-0.000122
 603	5.9899e+01	8.0072	69.557830	0.000223	2.229812	0.377740	-0.000045
 604	5.9998e+01	7.9863	69.428642	0.000649	6.486727	1.098881	-0.000130
 605	6.0098e+01	7.9660	69.335788	0.000466	4.662335	0.789821	-0.000093
 606	6.0197e+01	7.9471	69.242934	0.000466	4.662335	0.789821	-0.000093
 607	6.0297e+01	7.9273	69.162191	0.000405	4.054204	0.686801	-0.000081
 608	6.0397e+01	7.9070	69.037040	0.000628	6.284017	1.064541	-0.000126
 609	6.0496e+01	7.8867	68.932074	0.000527	5.270466	0.892841	-0.000105
 610	6.0596e+01	7.8677	68.847294	0.000426	4.256915	0.721141	-0.000085
 611	6.0695e+01	7.8460	68.730217	0.000588	5.878596	0.995861	-0.000118
 612	6.0794e+01	7.8271	68.677735	0.000264	2.635233	0.446421	-0.000053
 613	6.0894e+01	7.8078	68.532398	0.000730	7.297568	1.236241	-0.000146
 614	6.0993e+01	7.7879	68.447618	0.000426	4.256915	0.721141	-0.000085
 615	6.1093e+01	7.7671	68.314392	0.000669	6.689437	1.133221	-0.000134
 616	6.1193e+01	7.7459	68.241724	0.000365	3.648784	0.618121	-0.000073
 617	6.1292e+01	7.7280	68.156944	0.000426	4.256915	0.721141	-0.000085
 618	6.1392e+01	7.7084	68.031793	0.000628	6.284017	1.064541	-0.000126
 619	6.1491e+01	7.6881	67.963162	0.000345	3.446074	0.583781	-0.000069
 620	6.1590e+01	7.6675	67.846085	0.000588	5.878596	0.995861	-0.000118
 621	6.1690e+01	7.6484	67.773416	0.000365	3.648784	0.618121	-0.000073
 622	6.1789e+01	7.6270	67.644228	0.000649	6.486727	1.098881	-0.000130
 623	6.1889e+01	7.6083	67.575597	0.000345	3.446074	0.583781	-0.000069
 624	6.1989e+01	7.5879	67.454482	0.000608	6.081307	1.030201	-0.000122
 625	6.2088e+01	7.5696	67.361628	0.000466	4.662335	0.789821	-0.000093
 626	6.2188e+01	7.5493	67.236477	0.000628	6.284017	1.064541	-0.000126
 627	6.2287e+01	7.5283	67.151697	0.000426	4.256915	0.721141	-0.000085
 628	6.2386e+01	7.5088	67.042695	0.000547	5.473176	0.927181	-0.000110
 629	6.2486e+01	7.4897	66.945803	0.000487	4.865045	0.824161	-0.000097
 630	6.2586e+01	7.4688	66.840838	0.000527	5.270466	0.892841	-0.000105
 631	6.2685e+01	7.4488	66.735872	0.000527	5.270466	0.892841	-0.000105
 632	6.2785e+01	7.4286	66.634944	0.000507	5.067756	0.858501	-0.000101
 633	6.2884e+01	7.4084	66.558238	0.000385	3.851494	0.652461	-0.000077
 634	6.2983e+01	7.3888	66.437124	0.000608	6.081307	1.030201	-0.000122
 635	6.3083e+01	7.3689	66.336196	0.000507	5.067756	0.858501	-0.000101
 636	6.3182e+01	7.3503	66.219119	0.000588	5.878596	0.995861	-0.000118
 637	6.3282e+01	7.3291	66.154525	0.000324	3.243364	0.549441	-0.000065
 638	6.3382e+01	7.3094	66.005151	0.000750	7.500278	1.270582	-0.000150
 639	6.3481e+01	7.2900	65.972854	0.000162	1.621682	0.274720	-0.000032
 640	6.3581e+01	7.2694	65.823480	0.000750	7.500278	1.270582	-0.000150
 641	6.3680e+01	7.2497	65.738700	0.000426	4.256915	0.721141	-0.000085
 642	6.3779e+01	7.2297	65.633734	0.000527	5.270466	0.892841	-0.000105
 643	6.3879e+01	7.2098	65.593363	0.000203	2.027102	0.343400	-0.000041
 644	6.3978e+01	7.1917	65.419766	0.000872	8.716540	1.476622	-0.000174
 645	6.4078e+01	7.1700	65.339023	0.000405	4.054204	0.686801	-0.000081
 646	6.4177e+01	7.1495	65.221946	0.000588	5.878596	0.995861	-0.000118
 647	6.4277e+01	7.1304	65.100832	0.000608	6.081307	1.030201	-0.000122
 648	6.4376e+01	7.1108	65.007978	0.000466	4.662335	0.789821	-0.000093
 649	6.4476e+01	7.0901	64.903013	0.000527	5.270466	0.892841	-0.000105
 650	6.4576e+01	7.0700	64.773824	0.000649	6.486727	1.098881	-0.000130
 651	6.4675e+01	7.0508	64.672896	0.000507	5.067756	0.858501	-0.000101
 652	6.4775e+01	7.0303	64.592153	0.000405	4.054204	0.686801	-0.000081
 653	6.4874e+01	7.0098	64.479113	0.000568	5.675886	0.961521	-0.000114
 654	6.4974e+01	6.9905	64.406445	0.000365	3.648784	0.618121	-0.000073
 655	6.5073e+01	6.9700	64.281294	0.000628	6.284017	1.064541	-0.000126
 656	6.5172e+01	6.9498	64.152105	0.000649	6.486727	1.098881	-0.000130
 657	6.5272e+01	6.9305	64.051177	0.000507	5.067756	0.858501	-0.000101
 658	6.5371e+01	6.9111	63.974471	0.000385	3.851494	0.652461	-0.000077
 659	6.5471e+01	6.8911	63.817023	0.000791	7.905699	1.339262	-0.000158
 660	6.5570e+01	6.8711	63.732243	0.000426	4.256915	0.721141	-0.000085
 661	6.5670e+01	6.8523	63.647463	0.000426	4.256915	0.721141	-0.000085
 662	6.5769e+01	6.8314	63.530387	0.000588	5.878596	0.995861	-0.000118
 663	6.5869e+01	6.8124	63.421384	0.000547	5.473176	0.927181	-0.000110
 664	6.5969e+01	6.7904	63.324493	0.000487	4.865045	0.824161	-0.000097
 665	6.6068e+01	6.7711	63.235676	0.000446	4.459625	0.755481	-0.000089
 666	6.6168e+01	6.7506	63.110524	0.000628	6.284017	1.064541	-0.000126
 667	6.6267e+01	6.7318	63.021707	0.000446	4.459625	0.755481	-0.000089
 668	6.6367e+01	6.7117	62.916742	0.000527	5.270466	0.892841	-0.000105
 669	6.6466e+01	6.6924	62.831962	0.000426	4.256915	0.721141	-0.000085
 670	6.6566e+01	6.6720	62.722959	0.000547	5.473176	0.927181	-0.000110
 671	6.6665e+01	6.6511	62.573585	0.000750	7.500278	1.270582	-0.000150
 672	6.6764e+01	6.6308	62.500917	0.000365	3.648784	0.618121	-0.000073
 673	6.6864e+01	6.6130	62.375766	0.000628	6.284017	1.064541	-0.000126
 674	6.6963e+01	6.5929	62.295023	0.000405	4.054204	0.686801	-0.000081
 675	6.7063e+01	6.5719	62.202169	0.000466	4.662335	0.789821	-0.000093
 676	6.7162e+01	6.5527	62.097203	0.000527	5.270466	0.892841	-0.000105
 677	6.7262e+01	6.5333	61.996275	0.000507	5.067756	0.858501	-0.000101
 678	6.7362e+01	6.5123	61.895347	0.000507	5.067756	0.858501	-0.000101
 679	6.7461e+01	6.4922	61.794418	0.000507	5.067756	0.858501	-0.000101
 680	6.7561e+01	6.4734	61.669267	0.000628	6.284017	1.064541	-0.000126
 681	6.7660e+01	6.4529	61.532004	0.000689	6.892148	1.167561	-0.000138
 682	6.7760e+01	6.4342	61.463373	0.000345	3.446074	0.583781	-0.000069
 683	6.7859e+01	6.4127	61.366482	0.000487	4.865045	0.824161	-0.000097
 684	6.7959e+01	6.3930	61.233256	0.000669	6.689437	1.133221	-0.000134
 685	6.8058e+01	6.3720	61.160588	0.000365	3.648784	0.618121	-0.000073
 686	6.8157e+01	6.3538	61.027362	0.000669	6.689437	1.133221	-0.000134
 687	6.8257e+01	6.3323	60.950657	0.000385	3.851494	0.652461	-0.000077
 688	6.8356e+01	6.3135	60.853766	0.000487	4.865045	0.824161	-0.000097
 689	6.8456e+01	6.2943	60.732651	0.000608	6.081307	1.030201	-0.000122
 690	6.8555e+01	6.2725	60.623649	0.000547	5.473176	0.927181	-0.000110
 691	6.8655e+01	6.2540	60.494460	0.000649	6.486727	1.098881	-0.000130
 692	6.8754e+01	6.2344	60.401606	0.000466	4.662335	0.789821	-0.000093
 693	6.8854e+01	6.2146	60.296641	0.000527	5.270466	0.892841	-0.000105
 694	6.8954e+01	6.1945	60.187638	0.000547	5.473176	0.927181	-0.000110
 695	6.9053e+01	6.1741	60.074598	0.000568	5.675886	0.961521	-0.000114
 696	6.9153e+01	6.1549	59.997893	0.000385	3.851494	0.652461	-0.000077
 697	6.9252e+01	6.1347	59.872742	0.000628	6.284017	1.064541	-0.000126
 698	6.9352e+01	6.1139	59.779887	0.000466	4.662335	0.789821	-0.000093
 699	6.9451e+01	6.0946	59.626476	0.000770	7.702989	1.304922	-0.000154
 700	6.9550e+01	6.0755	59.561882	0.000324	3.243364	0.549441	-0.000065
 701	6.9650e+01	6.0555	59.416545	0.000730	7.297568	1.236241	-0.000146
 702	6.9749e+01	6.0345	59.327728	0.000446	4.459625	0.755481	-0.000089
 703	6.9849e+01	6.0154	59.198540	0.000649	6.486727	1.098881	-0.000130
 704	6.9948e+01	5.9961	59.105686	0.000466	4.662335	0.789821	-0.000093
 705	7.0048e+01	5.9759	58.976497	0.000649	6.486727	1.098881	-0.000130
 706	7.0147e+01	5.9550	58.855383	0.000608	6.081307	1.030201	-0.000122
 707	7.0247e+01	5.9356	58.770604	0.000426	4.256915	0.721141	-0.000085
 708	7.0347e+01	5.9155	58.661601	0.000547	5.473176	0.927181	-0.000110
 709	7.0446e+01	5.8962	58.548561	0.000568	5.675886	0.961521	-0.000114
 710	7.0546e+01	5.8755	58.427447	0.000608	6.081307	1.030201	-0.000122
 711	7.0645e+01	5.8555	58.306333	0.000608	6.081307	1.030201	-0.000122
 712	7.0745e+01	5.8361	58.201367	0.000527	5.270466	0.892841	-0.000105
 713	7.0844e+01	5.8160	58.080253	0.000608	6.081307	1.030201	-0.000122
 714	7.0944e+01	5.7956	58.019696	0.000304	3.040653	0.515101	-0.000061
 715	7.1043e+01	5.7761	57.882434	0.000689	6.892148	1.167561	-0.000138
 716	7.1142e+01	5.7563	57.757282	0.000628	6.284017	1.064541	-0.000126
 717	7.1242e+01	5.7359	57.668465	0.000446	4.459625	0.755481	-0.000089
 718	7.1341e+01	5.7166	57.555426	0.000568	5.675886	0.961521	-0.000114
 719	7.1441e+01	5.6968	57.426237	0.000649	6.486727	1.098881	-0.000130
 720	7.1540e+01	5.6762	57.321272	0.000527	5.270466	0.892841	-0.000105
 721	7.1640e+01	5.6568	57.212269	0.000547	5.473176	0.927181	-0.000110
 722	7.1740e+01	5.6359	57.103266	0.000547	5.473176	0.927181	-0.000110
 723	7.1839e+01	5.6170	56.978115	0.000628	6.284017	1.064541	-0.000126
 724	7.1939e+01	5.5965	56.857001	0.000608	6.081307	1.030201	-0.000122
 725	7.2038e+01	5.5770	56.764147	0.000466	4.662335	0.789821	-0.000093
 726	7.2138e+01	5.5572	56.647070	0.000588	5.878596	0.995861	-0.000118
 727	7.2237e+01	5.5367	56.550179	0.000487	4.865045	0.824161	-0.000097
 728	7.2337e+01	5.5169	56.416953	0.000669	6.689437	1.133221	-0.000134
 729	7.2436e+01	5.4969	56.320062	0.000487	4.865045	0.824161	-0.000097
 730	7.2535e+01	5.4772	56.202985	0.000588	5.878596	0.995861	-0.000118
 731	7.2635e+01	5.4562	56.089945	0.000568	5.675886	0.961521	-0.000114
 732	7.2734e+01	5.4379	55.972868	0.000588	5.878596	0.995861	-0.000118
 733	7.2834e+01	5.4177	55.888089	0.000426	4.256915	0.721141	-0.000085
 734	7.2933e+01	5.3979	55.766975	0.000608	6.081307	1.030201	-0.000122
 735	7.3033e+01	5.3783	55.657972	0.000547	5.473176	0.927181	-0.000110
 736	7.3132e+01	5.3579	55.548969	0.000547	5.473176	0.927181	-0.000110
 737	7.3232e+01	5.3387	55.423818	0.000628	6.284017	1.064541	-0.000126
 738	7.3332e+01	5.3184	55.294630	0.000649	6.486727	1.098881	-0.000130
 739	7.3431e+01	5.2984	55.181590	0.000568	5.675886	0.961521	-0.000114
 740	7.3531e+01	5.2779	55.056439	0.000628	6.284017	1.064541	-0.000126
 741	7.3630e+01	5.2588	54.967622	0.000446	4.459625	0.755481	-0.000089
 742	7.3730e+01	5.2381	54.842470	0.000628	6.284017	1.064541	-0.000126
 743	7.3829e+01	5.2184	54.741542	0.000507	5.067756	0.858501	-0.000101
 744	7.3928e+01	5.1980	54.640614	0.000507	5.067756	0.858501	-0.000101
 745	7.4028e+01	5.1778	54.479128	0.000811	8.108409	1.373602	-0.000162
 746	7.4127e+01	5.1585	54.374163	0.000527	5.270466	0.892841	-0.000105
 747	7.4227e+01	5.1378	54.240937	0.000669	6.689437	1.133221	-0.000134
 748	7.4326e+01	5.1186	54.172306	0.000345	3.446074	0.583781	-0.000069
 749	7.4426e+01	5.0982	54.079452	0.000466	4.662335	0.789821	-0.000093
 750	7.4525e+01	5.0784	53.913929	0.000831	8.311119	1.407942	-0.000166
 751	7.4625e+01	5.0589	53.821075	0.000466	4.662335	0.789821	-0.000093
 752	7.4725e+01	5.0383	53.655553	0.000831	8.311119	1.407942	-0.000166
 753	7.4824e+01	5.0191	53.554624	0.000507	5.067756	0.858501	-0.000101
 754	7.4924e+01	4.9990	53.469844	0.000426	4.256915	0.721141	-0.000085
 755	7.5023e+01	4.9792	53.324507	0.000730	7.297568	1.236241	-0.000146
 756	7.5123e+01	4.9603	53.199356	0.000628	6.284017	1.064541	-0.000126
 757	7.5222e+01	4.9393	53.082279	0.000588	5.878596	0.995861	-0.000118
 758	7.5322e+01	4.9194	52.969239	0.000568	5.675886	0.961521	-0.000114
 759	7.5421e+01	4.8998	52.864274	0.000527	5.270466	0.892841	-0.000105
 760	7.5520e+01	4.8803	52.747197	0.000588	5.878596	0.995861	-0.000118
 761	7.5620e+01	4.8598	52.605897	0.000709	7.094858	1.201901	-0.000142
 762	7.5719e+01	4.8411	52.472672	0.000669	6.689437	1.133221	-0.000134
 763	7.5819e+01	4.8202	52.339446	0.000669	6.689437	1.133221	-0.000134
 764	7.5918e+01	4.8003	52.202184	0.000689	6.892148	1.167561	-0.000138
 765	7.6018e+01	4.7810	52.072995	0.000649	6.486727	1.098881	-0.000130
 766	7.6118e+01	4.7600	52.004364	0.000345	3.446074	0.583781	-0.000069
 767	7.6217e+01	4.7399	51.842879	0.000811	8.108409	1.373602	-0.000162
 768	7.6317e+01	4.7202	51.770210	0.000365	3.648784	0.618121	-0.000073
 769	7.6416e+01	4.7015	51.620836	0.000750	7.500278	1.270582	-0.000150
 770	7.6516e+01	4.6799	51.463388	0.000791	7.905699	1.339262	-0.000158
 771	7.6615e+01	4.6607	51.350348	0.000568	5.675886	0.961521	-0.000114
 772	7.6715e+01	4.6407	51.261531	0.000446	4.459625	0.755481	-0.000089
 773	7.6814e+01	4.6206	51.152528	0.000547	5.473176	0.927181	-0.000110
 774	7.6913e+01	4.5999	51.011229	0.000709	7.094858	1.201901	-0.000142
 775	7.7013e+01	4.5818	50.906263	0.000527	5.270466	0.892841	-0.000105
 776	7.7112e+01	4.5616	50.769000	0.000689	6.892148	1.167561	-0.000138
 777	7.7212e+01	4.5409	50.623664	0.000730	7.297568	1.236241	-0.000146
 778	7.7311e+01	4.5210	50.510624	0.000568	5.675886	0.961521	-0.000114
 779	7.7411e+01	4.5008	50.425844	0.000426	4.256915	0.721141	-0.000085
 780	7.7510e+01	4.4802	50.268396	0.000791	7.905699	1.339262	-0.000158
 781	7.7610e+01	4.4619	50.183616	0.000426	4.256915	0.721141	-0.000085
 782	7.7710e+01	4.4408	50.066539	0.000588	5.878596	0.995861	-0.000118
 783	7.7809e+01	4.4216	49.896979	0.000851	8.513829	1.442282	-0.000170
 784	7.7909e+01	4.4009	49.787976	0.000547	5.473176	0.927181	-0.000110
 785	7.8008e+01	4.3819	49.674937	0.000568	5.675886	0.961521	-0.000114
 786	7.8108e+01	4.3620	49.553823	0.000608	6.081307	1.030201	-0.000122
 787	7.8207e+01	4.3432	49.400411	0.000770	7.702989	1.304922	-0.000154
 788	7.8306e+01	4.3218	49.311594	0.000446	4.459625	0.755481	-0.000089
 789	7.8406e+01	4.3031	49.121849	0.000953	9.527381	1.613982	-0.000191
 790	7.8505e+01	4.2818	49.057255	0.000324	3.243364	0.549441	-0.000065
 791	7.8605e+01	4.2627	48.936141	0.000608	6.081307	1.030201	-0.000122
 792	7.8704e+01	4.2420	48.762544	0.000872	8.716540	1.476622	-0.000174
 793	7.8804e+01	4.2213	48.661616	0.000507	5.067756	0.858501	-0.000101
 794	7.8903e+01	4.2024	48.540502	0.000608	6.081307	1.030201	-0.000122
 795	7.9003e+01	4.1826	48.407276	0.000669	6.689437	1.133221	-0.000134
 796	7.9103e+01	4.1629	48.282125	0.000628	6.284017	1.064541	-0.000126
 797	7.9202e+01	4.1427	48.189271	0.000466	4.662335	0.789821	-0.000093
 798	7.9302e+01	4.1235	48.035860	0.000770	7.702989	1.304922	-0.000154
 799	7.9401e+01	4.1027	47.874374	0.000811	8.108409	1.373602	-0.000162
 800	7.9501e+01	4.0829	47.789594	0.000426	4.256915	0.721141	-0.000085
 801	7.9600e+01	4.0634	47.628109	0.000811	8.108409	1.373602	-0.000162
 802	7.9700e+01	4.0430	47.543329	0.000426	4.256915	0.721141	-0.000085
 803	7.9799e+01	4.0234	47.418178	0.000628	6.284017	1.064541	-0.000126
 804	7.9898e+01	4.0029	47.276878	0.000709	7.094858	1.201901	-0.000142
 805	7.9998e+01	3.9832	47.196135	0.000405	4.054204	0.686801	-0.000081
 806	8.0097e+01	3.9632	47.070984	0.000628	6.284017	1.064541	-0.000126
 807	8.0197e+01	3.9430	46.901424	0.000851	8.513829	1.442282	-0.000170
 808	8.0296e+01	3.9233	46.804533	0.000487	4.865045	0.824161	-0.000097
 809	8.0396e+01	3.9037	46.691493	0.000568	5.675886	0.961521	-0.000114
 810	8.0496e+01	3.8825	46.530008	0.000811	8.108409	1.373602	-0.000162
 811	8.0595e+01	3.8644	46.392745	0.000689	6.892148	1.167561	-0.000138
 812	8.0695e+01	3.8441	46.267594	0.000628	6.284017	1.064541	-0.000126
 813	8.0794e+01	3.8244	46.158591	0.000547	5.473176	0.927181	-0.000110
 814	8.0894e+01	3.8035	46.009217	0.000750	7.500278	1.270582	-0.000150
 815	8.0993e+01	3.7843	45.888103	0.000608	6.081307	1.030201	-0.000122
 816	8.1093e+01	3.7644	45.746804	0.000709	7.094858	1.201901	-0.000142
 817	8.1192e+01	3.7442	45.629727	0.000588	5.878596	0.995861	-0.000118
 818	8.1291e+01	3.7249	45.508613	0.000608	6.081307	1.030201	-0.000122
 819	8.1391e+01	3.7049	45.351164	0.000791	7.905699	1.339262	-0.000158
 820	8.1490e+01	3.6843	45.242162	0.000547	5.473176	0.927181	-0.000110
 821	8.1590e+01	3.6655	45.153345	0.000446	4.459625	0.755481	-0.000089
 822	8.1689e+01	3.6446	44.999934	0.000770	7.702989	1.304922	-0.000154
 823	8.1789e+01	3.6251	44.886894	0.000568	5.675886	0.961521	-0.000114
 824	8.1888e+01	3.6044	44.733483	0.000770	7.702989	1.304922	-0.000154
 825	8.1988e+01	3.5853	44.576034	0.000791	7.905699	1.339262	-0.000158
 826	8.2088e+01	3.5658	44.426660	0.000750	7.500278	1.270582	-0.000150
 827	8.2187e+01	3.5455	44.313620	0.000568	5.675886	0.961521	-0.000114
 828	8.2287e+01	3.5255	44.184432	0.000649	6.486727	1.098881	-0.000130
 829	8.2386e+01	3.5054	44.067355	0.000588	5.878596	0.995861	-0.000118
 830	8.2486e+01	3.4859	43.922018	0.000730	7.297568	1.236241	-0.000146
 831	8.2585e+01	3.4652	43.817053	0.000527	5.270466	0.892841	-0.000105
 832	8.2684e+01	3.4460	43.655567	0.000811	8.108409	1.373602	-0.000162
 833	8.2784e+01	3.4263	43.534453	0.000608	6.081307	1.030201	-0.000122
 834	8.2883e+01	3.4058	43.417376	0.000588	5.878596	0.995861	-0.000118
 835	8.2983e+01	3.3860	43.300299	0.000588	5.878596	0.995861	-0.000118
 836	8.3082e+01	3.3656	43.163037	0.000689	6.892148	1.167561	-0.000138
 837	8.3182e+01	3.3458	43.029811	0.000669	6.689437	1.133221	-0.000134
 838	8.3281e+01	3.3255	42.896586	0.000669	6.689437	1.133221	-0.000134
 839	8.3381e+01	3.3069	42.783546	0.000568	5.675886	0.961521	-0.000114
 840	8.3481e+01	3.2870	42.646283	0.000689	6.892148	1.167561	-0.000138
 841	8.3580e+01	3.2668	42.496909	0.000750	7.500278	1.270582	-0.000150
 842	8.3680e+01	3.2464	42.343498	0.000770	7.702989	1.304922	-0.000154
 843	8.3779e+01	3.2261	42.250644	0.000466	4.662335	0.789821	-0.000093
 844	8.3879e+01	3.2057	42.109344	0.000709	7.094858	1.201901	-0.000142
 845	8.3978e+01	3.1862	41.976119	0.000669	6.689437	1.133221	-0.000134
 846	8.4078e+01	3.1664	41.826745	0.000750	7.500278	1.270582	-0.000150
 847	8.4177e+01	3.1465	41.766188	0.000304	3.040653	0.515101	-0.000061
 848	8.4276e+01	3.1267	41.560294	0.001034	10.338221	1.751342	-0.000207
 849	8.4376e+01	3.1071	41.447254	0.000568	5.675886	0.961521	-0.000114
 850	8.4475e+01	3.0874	41.354400	0.000466	4.662335	0.789821	-0.000093
 851	8.4575e+01	3.0667	41.205026	0.000750	7.500278	1.270582	-0.000150
 852	8.4674e+01	3.0466	41.075838	0.000649	6.486727	1.098881	-0.000130
 853	8.4774e+01	3.0270	40.962798	0.000568	5.675886	0.961521	-0.000114
 854	8.4874e+01	3.0070	40.801312	0.000811	8.108409	1.373602	-0.000162
 855	8.4973e+01	2.9870	40.676161	0.000628	6.284017	1.064541	-0.000126
 856	8.5073e+01	2.9675	40.555047	0.000608	6.081307	1.030201	-0.000122
 857	8.5172e+01	2.9469	40.401636	0.000770	7.702989	1.304922	-0.000154
 858	8.5272e+01	2.9279	40.264373	0.000689	6.892148	1.167561	-0.000138
 859	8.5371e+01	2.9082	40.106925	0.000791	7.905699	1.339262	-0.000158
 860	8.5471e+01	2.8873	40.054442	0.000264	2.635233	0.446421	-0.000053
 861	8.5570e+01	2.8678	39.884883	0.000851	8.513829	1.442282	-0.000170
 862	8.5669e+01	2.8474	39.743583	0.000709	7.094858	1.201901	-0.000142
 863	8.5769e+01	2.8272	39.594209	0.000750	7.500278	1.270582	-0.000150
 864	8.5868e+01	2.8084	39.481169	0.000568	5.675886	0.961521	-0.000114
 865	8.5968e+01	2.7882	39.323721	0.000791	7.905699	1.339262	-0.000158
 866	8.6067e+01	2.7679	39.218755	0.000527	5.270466	0.892841	-0.000105
 867	8.6167e+01	2.7478	39.041121	0.000892	8.919250	1.510962	-0.000179
 868	8.6266e+01	2.7276	38.911933	0.000649	6.486727	1.098881	-0.000130
 869	8.6366e+01	2.7082	38.786782	0.000628	6.284017	1.064541	-0.000126
 870	8.6466e+01	2.6884	38.645482	0.000709	7.094858	1.201901	-0.000142
 871	8.6565e+01	2.6685	38.532442	0.000568	5.675886	0.961521	-0.000114
 872	8.6665e+01	2.6481	38.374994	0.000791	7.905699	1.339262	-0.000158
 873	8.6764e+01	2.6291	38.213508	0.000811	8.108409	1.373602	-0.000162
 874	8.6864e+01	2.6084	38.104506	0.000547	5.473176	0.927181	-0.000110
 875	8.6963e+01	2.5880	37.979354	0.000628	6.284017	1.064541	-0.000126
 876	8.7063e+01	2.5687	37.902649	0.000385	3.851494	0.652461	-0.000077
 877	8.7162e+01	2.5494	37.692718	0.001054	10.540932	1.785682	-0.000211
 878	8.7261e+01	2.5292	37.531232	0.000811	8.108409	1.373602	-0.000162
 879	8.7361e+01	2.5091	37.414155	0.000588	5.878596	0.995861	-0.000118
 880	8.7460e+01	2.4891	37.268819	0.000730	7.297568	1.236241	-0.000146
 881	8.7560e+01	2.4702	37.139630	0.000649	6.486727	1.098881	-0.000130
 882	8.7659e+01	2.4496	36.990256	0.000750	7.500278	1.270582	-0.000150
 883	8.7759e+01	2.4303	36.905476	0.000426	4.256915	0.721141	-0.000085
 884	8.7859e+01	2.4096	36.711694	0.000973	9.730091	1.648322	-0.000195
 885	8.7958e+01	2.3894	36.630951	0.000405	4.054204	0.686801	-0.000081
 886	8.8058e+01	2.3696	36.449280	0.000912	9.121960	1.545302	-0.000183
 887	8.8157e+01	2.3496	36.299906	0.000750	7.500278	1.270582	-0.000150
 888	8.8257e+01	2.3301	36.186866	0.000568	5.675886	0.961521	-0.000114
 889	8.8356e+01	2.3104	36.009232	0.000892	8.919250	1.510962	-0.000179
 890	8.8456e+01	2.2902	35.888118	0.000608	6.081307	1.030201	-0.000122
 891	8.8555e+01	2.2705	35.767004	0.000608	6.081307	1.030201	-0.000122
 892	8.8654e+01	2.2504	35.653964	0.000568	5.675886	0.961521	-0.000114
 893	8.8754e+01	2.2301	35.504590	0.000750	7.500278	1.270582	-0.000150
 894	8.8853e+01	2.2104	35.314845	0.000953	9.527381	1.613982	-0.000191
 895	8.8953e+01	2.1904	35.205842	0.000547	5.473176	0.927181	-0.000110
 896	8.9052e+01	2.1708	35.080691	0.000628	6.284017	1.064541	-0.000126
 897	8.9152e+01	2.1506	34.927280	0.000770	7.702989	1.304922	-0.000154
 898	8.9251e+01	2.1314	34.761757	0.000831	8.311119	1.407942	-0.000166
 899	8.9351e+01	2.1110	34.628532	0.000669	6.689437	1.133221	-0.000134
 900	8.9451e+01	2.0901	34.499343	0.000649	6.486727	1.098881	-0.000130
 901	8.9550e+01	2.0710	34.370155	0.000649	6.486727	1.098881	-0.000130
 902	8.9650e+01	2.0503	34.200595	0.000851	8.513829	1.442282	-0.000170
 903	8.9749e+01	2.0307	34.043147	0.000791	7.905699	1.339262	-0.000158
 904	8.9849e+01	2.0110	33.934144	0.000547	5.473176	0.927181	-0.000110
 905	8.9948e+01	1.9912	33.752473	0.000912	9.121960	1.545302	-0.000183
 906	9.0047e+01	1.9715	33.623285	0.000649	6.486727	1.098881	-0.000130
 907	9.0147e+01	1.9513	33.498134	0.000628	6.284017	1.064541	-0.000126
 908	9.0246e+01	1.9309	33.368945	0.000649	6.486727	1.098881	-0.000130
 909	9.0346e+01	1.9108	33.243794	0.000628	6.284017	1.064541	-0.000126
 910	9.0445e+01	1.8920	33.090383	0.000770	7.702989	1.304922	-0.000154
 911	9.0545e+01	1.8710	32.957158	0.000669	6.689437	1.133221	-0.000134
 912	9.0644e+01	1.8520	32.803746	0.000770	7.702989	1.304922	-0.000154
 913	9.0744e+01	1.8324	32.658410	0.000730	7.297568	1.236241	-0.000146
 914	9.0844e+01	1.8129	32.521147	0.000689	6.892148	1.167561	-0.000138
 915	9.0943e+01	1.7918	32.343513	0.000892	8.919250	1.510962	-0.000179
 916	9.1043e+01	1.7722	32.206250	0.000689	6.892148	1.167561	-0.000138
 917	9.1142e+01	1.7515	32.105322	0.000507	5.067756	0.858501	-0.000101
 918	9.1242e+01	1.7324	31.968059	0.000689	6.892148	1.167561	-0.000138
 919	9.1341e+01	1.7130	31.782351	0.000932	9.324670	1.579642	-0.000187
 920	9.1441e+01	1.6919	31.616829	0.000831	8.311119	1.407942	-0.000166
 921	9.1540e+01	1.6732	31.479566	0.000689	6.892148	1.167561	-0.000138
 922	9.1639e+01	1.6528	31.322118	0.000791	7.905699	1.339262	-0.000158
 923	9.1739e+01	1.6323	31.205041	0.000588	5.878596	0.995861	-0.000118
 924	9.1838e+01	1.6134	31.051630	0.000770	7.702989	1.304922	-0.000154
 925	9.1938e+01	1.5929	30.906293	0.000730	7.297568	1.236241	-0.000146
 926	9.2037e+01	1.5725	30.740770	0.000831	8.311119	1.407942	-0.000166
 927	9.2137e+01	1.5522	30.643879	0.000487	4.865045	0.824161	-0.000097
 928	9.2237e+01	1.5340	30.421836	0.001115	11.149062	1.888702	-0.000223
 929	9.2336e+01	1.5128	30.312834	0.000547	5.473176	0.927181	-0.000110
 930	9.2436e+01	1.4930	30.135200	0.000892	8.919250	1.510962	-0.000179
 931	9.2535e+01	1.4732	30.046383	0.000446	4.459625	0.755481	-0.000089
 932	9.2635e+01	1.4534	29.864712	0.000912	9.121960	1.545302	-0.000183
 933	9.2734e+01	1.4333	29.719375	0.000730	7.297568	1.236241	-0.000146
 934	9.2834e+01	1.4136	29.545778	0.000872	8.716540	1.476622	-0.000174
 935	9.2933e+01	1.3935	29.376218	0.000851	8.513829	1.442282	-0.000170
 936	9.3032e+01	1.3725	29.222807	0.000770	7.702989	1.304922	-0.000154
 937	9.3132e+01	1.3539	29.109767	0.000568	5.675886	0.961521	-0.000114
 938	9.3231e+01	1.3337	28.936170	0.000872	8.716540	1.476622	-0.000174
 939	9.3331e+01	1.3138	28.823131	0.000568	5.675886	0.961521	-0.000114
 940	9.3430e+01	1.2935	28.653571	0.000851	8.513829	1.442282	-0.000170
 941	9.3530e+01	1.2745	28.492085	0.000811	8.108409	1.373602	-0.000162
 942	9.3629e+01	1.2543	28.366934	0.000628	6.284017	1.064541	-0.000126
 943	9.3729e+01	1.2341	28.225635	0.000709	7.094858	1.201901	-0.000142
 944	9.3829e+01	1.2153	28.043963	0.000912	9.121960	1.545302	-0.000183
 945	9.3928e+01	1.1943	27.898627	0.000730	7.297568	1.236241	-0.000146
 946	9.4028e+01	1.1748	27.773475	0.000628	6.284017	1.064541	-0.000126
 947	9.4127e+01	1.1540	27.660436	0.000568	5.675886	0.961521	-0.000114
 948	9.4227e+01	1.1352	27.482802	0.000892	8.919250	1.510962	-0.000179
 949	9.4326e+01	1.1147	27.289019	0.000973	9.730091	1.648322	-0.000195
 950	9.4425e+01	1.0951	27.167905	0.000608	6.081307	1.030201	-0.000122
 951	9.4525e+01	1.0760	27.038717	0.000649	6.486727	1.098881	-0.000130
 952	9.4624e+01	1.0554	26.869157	0.000851	8.513829	1.442282	-0.000170
 953	9.4724e+01	1.0357	26.711709	0.000791	7.905699	1.339262	-0.000158
 954	9.4823e+01	1.0163	26.570409	0.000709	7.094858	1.201901	-0.000142
 955	9.4923e+01	0.9954	26.425072	0.000730	7.297568	1.236241	-0.000146
 956	9.5022e+01	0.9747	26.247438	0.000892	8.919250	1.510962	-0.000179
 957	9.5122e+01	0.9553	26.114213	0.000669	6.689437	1.133221	-0.000134
 958	9.5222e+01	0.9357	25.948690	0.000831	8.311119	1.407942	-0.000166
 959	9.5321e+01	0.9161	25.803353	0.000730	7.297568	1.236241	-0.000146
 960	9.5421e+01	0.8945	25.645905	0.000791	7.905699	1.339262	-0.000158
 961	9.5520e+01	0.8766	25.492494	0.000770	7.702989	1.304922	-0.000154
 962	9.5620e+01	0.8564	25.347157	0.000730	7.297568	1.236241	-0.000146
 963	9.5719e+01	0.8374	25.209894	0.000689	6.892148	1.167561	-0.000138
 964	9.5819e+01	0.8163	25.036297	0.000872	8.716540	1.476622	-0.000174
 965	9.5918e+01	0.7963	24.882886	0.000770	7.702989	1.304922	-0.000154
 966	9.6017e+01	0.7774	24.737549	0.000730	7.297568	1.236241	-0.000146
 967	9.6117e+01	0.7565	24.592212	0.000730	7.297568	1.236241	-0.000146
 968	9.6216e+01	0.7356	24.418616	0.000872	8.716540	1.476622	-0.000174
 969	9.6316e+01	0.7166	24.273279	0.000730	7.297568	1.236241	-0.000146
 970	9.6415e+01	0.6956	24.103719	0.000851	8.513829	1.442282	-0.000170
 971	9.6515e+01	0.6760	23.946271	0.000791	7.905699	1.339262	-0.000158
 972	9.6615e+01	0.6564	23.809008	0.000689	6.892148	1.167561	-0.000138
 973	9.6714e+01	0.6372	23.683857	0.000628	6.284017	1.064541	-0.000126
 974	9.6814e+01	0.6171	23.522371	0.000811	8.108409	1.373602	-0.000162
 975	9.6913e+01	0.5971	23.336663	0.000932	9.324670	1.579642	-0.000187
 976	9.7013e+01	0.5769	23.187289	0.000750	7.500278	1.270582	-0.000150
 977	9.7112e+01	0.5578	23.041952	0.000730	7.297568	1.236241	-0.000146
 978	9.7212e+01	0.5373	22.876430	0.000831	8.311119	1.407942	-0.000166
 979	9.7311e+01	0.5175	22.731093	0.000730	7.297568	1.236241	-0.000146
 980	9.7410e+01	0.4969	22.601904	0.000649	6.486727	1.098881	-0.000130
 981	9.7510e+01	0.4778	22.448493	0.000770	7.702989	1.304922	-0.000154
 982	9.7609e+01	0.4568	22.266822	0.000912	9.121960	1.545302	-0.000183
 983	9.7709e+01	0.4372	22.145708	0.000608	6.081307	1.030201	-0.000122
 984	9.7808e+01	0.4179	21.992297	0.000770	7.702989	1.304922	-0.000154
 985	9.7908e+01	0.3980	21.810626	0.000912	9.121960	1.545302	-0.000183
 986	9.8007e+01	0.3780	21.665289	0.000730	7.297568	1.236241	-0.000146
 987	9.8107e+01	0.3573	21.483618	0.000912	9.121960	1.545302	-0.000183
 988	9.8207e+01	0.3381	21.334244	0.000750	7.500278	1.270582	-0.000150
 989	9.8306e+01	0.3188	21.164684	0.000851	8.513829	1.442282	-0.000170
 990	9.8406e+01	0.2988	21.047607	0.000588	5.878596	0.995861	-0.000118
 991	9.8505e+01	0.2776	20.841713	0.001034	10.338221	1.751342	-0.000207
 992	9.8605e+01	0.2586	20.684265	0.000791	7.905699	1.339262	-0.000158
 993	9.8704e+01	0.2386	20.551039	0.000669	6.689437	1.133221	-0.000134
 994	9.8803e+01	0.2187	20.377443	0.000872	8.716540	1.476622	-0.000174
 995	9.8903e+01	0.1982	20.207883	0.000851	8.513829	1.442282	-0.000170
 996	9.9002e+01	0.1778	20.070620	0.000689	6.892148	1.167561	-0.000138
 997	9.9102e+01	0.1595	19.949506	0.000608	6.081307	1.030201	-0.000122
 998	9.9201e+01	0.1389	19.759761	0.000953	9.527381	1.613982	-0.000191
 999	9.9301e+01	0.1188	19.570015	0.000953	9.527381	1.613982	-0.000191
1000	9.9400e+01	0.0983	19.469087	0.000507	5.067756	0.858501	-0.000101
1001	9.9500e+01	0.0782	19.307602	0.000811	8.108409	1.373602	-0.000162
1002	9.9600e+01	0.0597	19.101708	0.001034	10.338221	1.751342	-0.000207
1003	9.9699e+01	0.0385	18.964445	0.000689	6.892148	1.167561	-0.000138
1004	9.9799e+01	0.0201	18.887740	0.000385	3.851494	0.652461	-0.000077
1005	9.9898e+01	-0.0017	18.681846	0.001034	10.338221	1.751342	-0.000207
1006	9.9998e+01	-0.0190	18.532472	0.000750	7.500278	1.270582	-0.000150
1007	1.0010e+02	-0.0381	18.375023	0.000791	7.905699	1.339262	-0.000158
1008	1.0020e+02	-0.0584	18.237761	0.000689	6.892148	1.167561	-0.000138
1009	1.0030e+02	-0.0787	18.080312	0.000791	7.905699	1.339262	-0.000158
1010	1.0040e+02	-0.0991	17.939013	0.000709	7.094858	1.201901	-0.000142
1011	1.0050e+02	-0.1183	17.745230	0.000973	9.730091	1.648322	-0.000195
1012	1.0059e+02	-0.1380	17.587782	0.000791	7.905699	1.339262	-0.000158
1013	1.0069e+02	-0.1594	17.450519	0.000689	6.892148	1.167561	-0.000138
1014	1.0079e+02	-0.1786	17.301145	0.000750	7.500278	1.270582	-0.000150
1015	1.0089e+02	-0.1989	17.204254	0.000487	4.865045	0.824161	-0.000097
1016	1.0099e+02	-0.2182	16.990286	0.001074	10.743642	1.820022	-0.000215
1017	1.0109e+02	-0.2386	16.848986	0.000709	7.094858	1.201901	-0.000142
1018	1.0119e+02	-0.2585	16.671352	0.000892	8.919250	1.510962	-0.000179
1019	1.0129e+02	-0.2782	16.493718	0.000892	8.919250	1.510962	-0.000179
1020	1.0139e+02	-0.2981	16.332233	0.000811	8.108409	1.373602	-0.000162
1021	1.0149e+02	-0.3178	16.174784	0.000791	7.905699	1.339262	-0.000158
1022	1.0159e+02	-0.3375	16.041559	0.000669	6.689437	1.133221	-0.000134
1023	1.0169e+02	-0.3578	15.863925	0.000892	8.919250	1.510962	-0.000179
1024	1.0179e+02	-0.3782	15.718588	0.000730	7.297568	1.236241	-0.000146
1025	1.0189e+02	-0.3971	15.565177	0.000770	7.702989	1.304922	-0.000154
1026	1.0199e+02	-0.4173	15.427914	0.000689	6.892148	1.167561	-0.000138
1027	1.0209e+02	-0.4381	15.266429	0.000811	8.108409	1.373602	-0.000162
1028	1.0219e+02	-0.4568	15.113018	0.000770	7.702989	1.304922	-0.000154
1029	1.0229e+02	-0.4784	14.943458	0.000851	8.513829	1.442282	-0.000170
1030	1.0239e+02	-0.4974	14.790047	0.000770	7.702989	1.304922	-0.000154
1031	1.0248e+02	-0.5171	14.628561	0.000811	8.108409	1.373602	-0.000162
1032	1.0258e+02	-0.5379	14.467076	0.000811	8.108409	1.373602	-0.000162
1033	1.0268e+02	-0.5573	14.321739	0.000730	7.297568	1.236241	-0.000146
1034	1.0278e+02	-0.5767	14.160254	0.000811	8.108409	1.373602	-0.000162
1035	1.0288e+02	-0.5973	13.970508	0.000953	9.527381	1.613982	-0.000191
1036	1.0298e+02	-0.6168	13.817097	0.000770	7.702989	1.304922	-0.000154
1037	1.0308e+02	-0.6363	13.635426	0.000912	9.121960	1.545302	-0.000183
1038	1.0318e+02	-0.6580	13.506238	0.000649	6.486727	1.098881	-0.000130
1039	1.0328e+02	-0.6772	13.385124	0.000608	6.081307	1.030201	-0.000122
1040	1.0338e+02	-0.6958	13.203452	0.000912	9.121960	1.545302	-0.000183
1041	1.0348e+02	-0.7173	13.005633	0.000993	9.932801	1.682662	-0.000199
1042	1.0358e+02	-0.7368	12.876444	0.000649	6.486727	1.098881	-0.000130
1043	1.0368e+02	-0.7562	12.698810	0.000892	8.919250	1.510962	-0.000179
1044	1.0378e+02	-0.7768	12.549436	0.000750	7.500278	1.270582	-0.000150
1045	1.0388e+02	-0.7960	12.391988	0.000791	7.905699	1.339262	-0.000158
1046	1.0398e+02	-0.8163	12.222428	0.000851	8.513829	1.442282	-0.000170
1047	1.0408e+02	-0.8362	12.060943	0.000811	8.108409	1.373602	-0.000162
1048	1.0418e+02	-0.8559	11.911569	0.000750	7.500278	1.270582	-0.000150
1049	1.0428e+02	-0.8755	11.713749	0.000993	9.932801	1.682662	-0.000199
1050	1.0438e+02	-0.8953	11.580524	0.000669	6.689437	1.133221	-0.000134
1051	1.0447e+02	-0.9160	11.415001	0.000831	8.311119	1.407942	-0.000166
1052	1.0457e+02	-0.9354	11.277739	0.000689	6.892148	1.167561	-0.000138
1053	1.0467e+02	-0.9549	11.112216	0.000831	8.311119	1.407942	-0.000166
1054	1.0477e+02	-0.9763	10.938619	0.000872	8.716540	1.476622	-0.000174
1055	1.0487e+02	-0.9966	10.805394	0.000669	6.689437	1.133221	-0.000134
1056	1.0497e+02	-1.0156	10.639871	0.000831	8.311119	1.407942	-0.000166
1057	1.0507e+02	-1.0349	10.462237	0.000892	8.919250	1.510962	-0.000179
1058	1.0517e+02	-1.0552	10.312863	0.000750	7.500278	1.270582	-0.000150
1059	1.0527e+02	-1.0754	10.159452	0.000770	7.702989	1.304922	-0.000154
1060	1.0537e+02	-1.0962	9.973744	0.000932	9.324670	1.579642	-0.000187
1061	1.0547e+02	-1.1153	9.828407	0.000730	7.297568	1.236241	-0.000146
1062	1.0557e+02	-1.1343	9.670959	0.000791	7.905699	1.339262	-0.000158
1063	1.0567e+02	-1.1550	9.517548	0.000770	7.702989	1.304922	-0.000154
1064	1.0577e+02	-1.1743	9.376248	0.000709	7.094858	1.201901	-0.000142
1065	1.0587e+02	-1.1950	9.182465	0.000973	9.730091	1.648322	-0.000195
1066	1.0597e+02	-1.2151	8.992720	0.000953	9.527381	1.613982	-0.000191
1067	1.0607e+02	-1.2333	8.899866	0.000466	4.662335	0.789821	-0.000093
1068	1.0617e+02	-1.2550	8.693972	0.001034	10.338221	1.751342	-0.000207
1069	1.0627e+02	-1.2738	8.552672	0.000709	7.094858	1.201901	-0.000142
1070	1.0637e+02	-1.2944	8.415409	0.000689	6.892148	1.167561	-0.000138
1071	1.0647e+02	-1.3135	8.217590	0.000993	9.932801	1.682662	-0.000199
1072	1.0656e+02	-1.3339	8.072253	0.000730	7.297568	1.236241	-0.000146
1073	1.0666e+02	-1.3538	7.926916	0.000730	7.297568	1.236241	-0.000146
1074	1.0676e+02	-1.3741	7.725059	0.001014	10.135511	1.717002	-0.000203
1075	1.0686e+02	-1.3934	7.563574	0.000811	8.108409	1.373602	-0.000162
1076	1.0696e+02	-1.4134	7.434385	0.000649	6.486727	1.098881	-0.000130
1077	1.0706e+02	-1.4346	7.264826	0.000851	8.513829	1.442282	-0.000170
1078	1.0716e+02	-1.4544	7.099303	0.000831	8.311119	1.407942	-0.000166
1079	1.0726e+02	-1.4732	6.962041	0.000689	6.892148	1.167561	-0.000138
1080	1.0736e+02	-1.4935	6.768258	0.000973	9.730091	1.648322	-0.000195
1081	1.0746e+02	-1.5131	6.626958	0.000709	7.094858	1.201901	-0.000142
1082	1.0756e+02	-1.5327	6.485659	0.000709	7.094858	1.201901	-0.000142
1083	1.0766e+02	-1.5529	6.283802	0.001014	10.135511	1.717002	-0.000203
1084	1.0776e+02	-1.5733	6.166725	0.000588	5.878596	0.995861	-0.000118
1085	1.0786e+02	-1.5936	6.009277	0.000791	7.905699	1.339262	-0.000158
1086	1.0796e+02	-1.6131	5.787234	0.001115	11.149062	1.888702	-0.000223
1087	1.0806e+02	-1.6325	5.625749	0.000811	8.108409	1.373602	-0.000162
1088	1.0816e+02	-1.6531	5.464263	0.000811	8.108409	1.373602	-0.000162
1089	1.0826e+02	-1.6718	5.314889	0.000750	7.500278	1.270582	-0.000150
1090	1.0836e+02	-1.6931	5.157441	0.000791	7.905699	1.339262	-0.000158
1091	1.0845e+02	-1.7131	4.959621	0.000993	9.932801	1.682662	-0.000199
1092	1.0855e+02	-1.7341	4.806210	0.000770	7.702989	1.304922	-0.000154
1093	1.0865e+02	-1.7522	4.693170	0.000568	5.675886	0.961521	-0.000114
1094	1.0875e+02	-1.7720	4.499388	0.000973	9.730091	1.648322	-0.000195
1095	1.0885e+02	-1.7922	4.362125	0.000689	6.892148	1.167561	-0.000138
1096	1.0895e+02	-1.8124	4.164306	0.000993	9.932801	1.682662	-0.000199
1097	1.0905e+02	-1.8321	3.982634	0.000912	9.121960	1.545302	-0.000183
1098	1.0915e+02	-1.8520	3.837298	0.000730	7.297568	1.236241	-0.000146
1099	1.0925e+02	-1.8726	3.667738	0.000851	8.513829	1.442282	-0.000170
1100	1.0935e+02	-1.8916	3.490104	0.000892	8.919250	1.510962	-0.000179
1101	1.0945e+02	-1.9113	3.340730	0.000750	7.500278	1.270582	-0.000150
1102	1.0955e+02	-1.9312	3.175207	0.000831	8.311119	1.407942	-0.000166
1103	1.0965e+02	-1.9514	3.029870	0.000730	7.297568	1.236241	-0.000146
1104	1.0975e+02	-1.9710	2.844162	0.000932	9.324670	1.579642	-0.000187
1105	1.0985e+02	-1.9913	2.658454	0.000932	9.324670	1.579642	-0.000187
1106	1.0995e+02	-2.0110	2.545414	0.000568	5.675886	0.961521	-0.000114
1107	1.1005e+02	-2.0319	2.363743	0.000912	9.121960	1.545302	-0.000183
1108	1.1015e+02	-2.0521	2.202258	0.000811	8.108409	1.373602	-0.000162
1109	1.1025e+02	-2.0712	2.040772	0.000811	8.108409	1.373602	-0.000162
1110	1.1035e+02	-2.0906	1.863138	0.000892	8.919250	1.510962	-0.000179
1111	1.1044e+02	-2.1115	1.705690	0.000791	7.905699	1.339262	-0.000158
1112	1.1054e+02	-2.1310	1.552279	0.000770	7.702989	1.304922	-0.000154
1113	1.1064e+02	-2.1510	1.378682	0.000872	8.716540	1.476622	-0.000174
1114	1.1074e+02	-2.1709	1.221234	0.000791	7.905699	1.339262	-0.000158
1115	1.1084e+02	-2.1909	1.067822	0.000770	7.702989	1.304922	-0.000154
1116	1.1094e+02	-2.2106	0.898263	0.000851	8.513829	1.442282	-0.000170
1117	1.1104e+02	-2.2306	0.732740	0.000831	8.311119	1.407942	-0.000166
1118	1.1114e+02	-2.2507	0.559143	0.000872	8.716540	1.476622	-0.000174
1119	1.1124e+02	-2.2706	0.405732	0.000770	7.702989	1.304922	-0.000154
1120	1.1134e+02	-2.2904	0.256358	0.000750	7.500278	1.270582	-0.000150
1121	1.1144e+02	-2.3100	0.078724	0.000892	8.919250	1.510962	-0.000179
1122	1.1154e+02	-2.3305	-0.082761	0.000811	8.108409	1.373602	-0.000162
1123	1.1164e+02	-2.3508	-0.244247	0.000811	8.108409	1.373602	-0.000162
1124	1.1174e+02	-2.3701	-0.393621	0.000750	7.500278	1.270582	-0.000150
1125	1.1184e+02	-2.3901	-0.530883	0.000689	6.892148	1.167561	-0.000138
1126	1.1194e+02	-2.4102	-0.728703	0.000993	9.932801	1.682662	-0.000199
1127	1.1204e+02	-2.4297	-0.914411	0.000932	9.324670	1.579642	-0.000187
1128	1.1214e+02	-2.4500	-1.035525	0.000608	6.081307	1.030201	-0.000122
1129	1.1224e+02	-2.4698	-1.217196	0.000912	9.121960	1.545302	-0.000183
1130	1.1234e+02	-2.4892	-1.382719	0.000831	8.311119	1.407942	-0.000166
1131	1.1244e+02	-2.5095	-1.532093	0.000750	7.500278	1.270582	-0.000150
1132	1.1253e+02	-2.5283	-1.717801	0.000932	9.324670	1.579642	-0.000187
1133	1.1263e+02	-2.5497	-1.871212	0.000770	7.702989	1.304922	-0.000154
1134	1.1273e+02	-2.5693	-2.016549	0.000730	7.297568	1.236241	-0.000146
1135	1.1283e+02	-2.5885	-2.194183	0.000892	8.919250	1.510962	-0.000179
1136	1.1293e+02	-2.6081	-2.335483	0.000709	7.094858	1.201901	-0.000142
1137	1.1303e+02	-2.6287	-2.509080	0.000872	8.716540	1.476622	-0.000174
1138	1.1313e+02	-2.6488	-2.678640	0.000851	8.513829	1.442282	-0.000170
1139	1.1323e+02	-2.6686	-2.787642	0.000547	5.473176	0.927181	-0.000110
1140	1.1333e+02	-2.6888	-2.977388	0.000953	9.527381	1.613982	-0.000191
1141	1.1343e+02	-2.7084	-3.130799	0.000770	7.702989	1.304922	-0.000154
1142	1.1353e+02	-2.7283	-3.276136	0.000730	7.297568	1.236241	-0.000146
1143	1.1363e+02	-2.7479	-3.482030	0.001034	10.338221	1.751342	-0.000207
1144	1.1373e+02	-2.7686	-3.599107	0.000588	5.878596	0.995861	-0.000118
1145	1.1383e+02	-2.7884	-3.784815	0.000932	9.324670	1.579642	-0.000187
1146	1.1393e+02	-2.8077	-3.926115	0.000709	7.094858	1.201901	-0.000142
1147	1.1403e+02	-2.8281	-4.103748	0.000892	8.919250	1.510962	-0.000179
1148	1.1413e+02	-2.8479	-4.249085	0.000730	7.297568	1.236241	-0.000146
1149	1.1423e+02	-2.8683	-4.394422	0.000730	7.297568	1.236241	-0.000146
1150	1.1433e+02	-2.8876	-4.608390	0.001074	10.743642	1.820022	-0.000215
1151	1.1442e+02	-2.9072	-4.741616	0.000669	6.689437	1.133221	-0.000134
1152	1.1452e+02	-2.9276	-4.878879	0.000689	6.892148	1.167561	-0.000138
1153	1.1462e+02	-2.9470	-5.048438	0.000851	8.513829	1.442282	-0.000170
1154	1.1472e+02	-2.9675	-5.209924	0.000811	8.108409	1.373602	-0.000162
1155	1.1482e+02	-2.9871	-5.359298	0.000750	7.500278	1.270582	-0.000150
1156	1.1492e+02	-3.0072	-5.549043	0.000953	9.527381	1.613982	-0.000191
1157	1.1502e+02	-3.0269	-5.714566	0.000831	8.311119	1.407942	-0.000166
1158	1.1512e+02	-3.0474	-5.847791	0.000669	6.689437	1.133221	-0.000134
1159	1.1522e+02	-3.0677	-6.041574	0.000973	9.730091	1.648322	-0.000195
1160	1.1532e+02	-3.0869	-6.178836	0.000689	6.892148	1.167561	-0.000138
1161	1.1542e+02	-3.1070	-6.328210	0.000750	7.500278	1.270582	-0.000150
1162	1.1552e+02	-3.1274	-6.530067	0.001014	10.135511	1.717002	-0.000203
1163	1.1562e+02	-3.1470	-6.691552	0.000811	8.108409	1.373602	-0.000162
1164	1.1572e+02	-3.1674	-6.832852	0.000709	7.094858	1.201901	-0.000142
1165	1.1582e+02	-3.1863	-6.982226	0.000750	7.500278	1.270582	-0.000150
1166	1.1592e+02	-3.2068	-7.147749	0.000831	8.311119	1.407942	-0.000166
1167	1.1602e+02	-3.2261	-7.293086	0.000730	7.297568	1.236241	-0.000146
1168	1.1612e+02	-3.2478	-7.438423	0.000730	7.297568	1.236241	-0.000146
1169	1.1622e+02	-3.2661	-7.587797	0.000750	7.500278	1.270582	-0.000150
1170	1.1632e+02	-3.2852	-7.781579	0.000973	9.730091	1.648322	-0.000195
1171	1.1642e+02	-3.3058	-7.910767	0.000649	6.486727	1.098881	-0.000130
1172	1.1651e+02	-3.3259	-8.088401	0.000892	8.919250	1.510962	-0.000179
1173	1.1661e+02	-3.3452	-8.205478	0.000588	5.878596	0.995861	-0.000118
1174	1.1671e+02	-3.3665	-8.395224	0.000953	9.527381	1.613982	-0.000191
1175	1.1681e+02	-3.3856	-8.544598	0.000750	7.500278	1.270582	-0.000150
1176	1.1691e+02	-3.4058	-8.685898	0.000709	7.094858	1.201901	-0.000142
1177	1.1701e+02	-3.4265	-8.863532	0.000892	8.919250	1.510962	-0.000179
1178	1.1711e+02	-3.4460	-8.992720	0.000649	6.486727	1.098881	-0.000130
1179	1.1721e+02	-3.4653	-9.146131	0.000770	7.702989	1.304922	-0.000154
1180	1.1731e+02	-3.4850	-9.279356	0.000669	6.689437	1.133221	-0.000134
1181	1.1741e+02	-3.5045	-9.461028	0.000912	9.121960	1.545302	-0.000183
1182	1.1751e+02	-3.5258	-9.622513	0.000811	8.108409	1.373602	-0.000162
1183	1.1761e+02	-3.5452	-9.788036	0.000831	8.311119	1.407942	-0.000166
1184	1.1771e+02	-3.5658	-9.929335	0.000709	7.094858	1.201901	-0.000142
1185	1.1781e+02	-3.5846	-10.094858	0.000831	8.311119	1.407942	-0.000166
1186	1.1791e+02	-3.6053	-10.224046	0.000649	6.486727	1.098881	-0.000130
1187	1.1801e+02	-3.6246	-10.393606	0.000851	8.513829	1.442282	-0.000170
1188	1.1811e+02	-3.6452	-10.514720	0.000608	6.081307	1.030201	-0.000122
1189	1.1821e+02	-3.6651	-10.672168	0.000791	7.905699	1.339262	-0.000158
1190	1.1831e+02	-3.6853	-10.853839	0.000912	9.121960	1.545302	-0.000183
1191	1.1841e+02	-3.7042	-11.003213	0.000750	7.500278	1.270582	-0.000150
1192	1.1850e+02	-3.7251	-11.148550	0.000730	7.297568	1.236241	-0.000146
1193	1.1860e+02	-3.7432	-11.334259	0.000932	9.324670	1.579642	-0.000187
1194	1.1870e+02	-3.7650	-11.475558	0.000709	7.094858	1.201901	-0.000142
1195	1.1880e+02	-3.7842	-11.628969	0.000770	7.702989	1.304922	-0.000154
1196	1.1890e+02	-3.8032	-11.762195	0.000669	6.689437	1.133221	-0.000134
1197	1.1900e+02	-3.8250	-11.939829	0.000892	8.919250	1.510962	-0.000179
1198	1.1910e+02	-3.8437	-12.101314	0.000811	8.108409	1.373602	-0.000162
1199	1.1920e+02	-3.8629	-12.242614	0.000709	7.094858	1.201901	-0.000142
1200	1.1930e+02	-3.8830	-12.355654	0.000568	5.675886	0.961521	-0.000114
1201	1.1940e+02	-3.9041	-12.537325	0.000912	9.121960	1.545302	-0.000183
1202	1.1950e+02	-3.9230	-12.694773	0.000791	7.905699	1.339262	-0.000158
1203	1.1960e+02	-3.9436	-12.860296	0.000831	8.311119	1.407942	-0.000166
1204	1.1970e+02	-3.9642	-12.961224	0.000507	5.067756	0.858501	-0.000101
1205	1.1980e+02	-3.9836	-13.138858	0.000892	8.919250	1.510962	-0.000179
1206	1.1990e+02	-4.0028	-13.352826	0.001074	10.743642	1.820022	-0.000215
1207	1.2000e+02	-4.0240	-13.482015	0.000649	6.486727	1.098881	-0.000130
1208	1.2010e+02	-4.0428	-13.619277	0.000689	6.892148	1.167561	-0.000138
1209	1.2020e+02	-4.0631	-13.756540	0.000689	6.892148	1.167561	-0.000138
1210	1.2030e+02	-4.0832	-13.905914	0.000750	7.500278	1.270582	-0.000150
1211	1.2039e+02	-4.1031	-14.099697	0.000973	9.730091	1.648322	-0.000195
1212	1.2049e+02	-4.1231	-14.192551	0.000466	4.662335	0.789821	-0.000093
1213	1.2059e+02	-4.1438	-14.370185	0.000892	8.919250	1.510962	-0.000179
1214	1.2069e+02	-4.1629	-14.515522	0.000730	7.297568	1.236241	-0.000146
1215	1.2079e+02	-4.1826	-14.685081	0.000851	8.513829	1.442282	-0.000170
1216	1.2089e+02	-4.2034	-14.854641	0.000851	8.513829	1.442282	-0.000170
1217	1.2099e+02	-4.2221	-15.020164	0.000831	8.311119	1.407942	-0.000166
1218	1.2109e+02	-4.2427	-15.137240	0.000588	5.878596	0.995861	-0.000118
1219	1.2119e+02	-4.2629	-15.298726	0.000811	8.108409	1.373602	-0.000162
1220	1.2129e+02	-4.2820	-15.435988	0.000689	6.892148	1.167561	-0.000138
1221	1.2139e+02	-4.3020	-15.577288	0.000709	7.094858	1.201901	-0.000142
1222	1.2149e+02	-4.3218	-15.758959	0.000912	9.121960	1.545302	-0.000183
1223	1.2159e+02	-4.3428	-15.896222	0.000689	6.892148	1.167561	-0.000138
1224	1.2169e+02	-4.3619	-16.041559	0.000730	7.297568	1.236241	-0.000146
1225	1.2179e+02	-4.3809	-16.215156	0.000872	8.716540	1.476622	-0.000174
1226	1.2189e+02	-4.4025	-16.352418	0.000689	6.892148	1.167561	-0.000138
1227	1.2199e+02	-4.4212	-16.505829	0.000770	7.702989	1.304922	-0.000154
1228	1.2209e+02	-4.4406	-16.663278	0.000791	7.905699	1.339262	-0.000158
1229	1.2219e+02	-4.4617	-16.824763	0.000811	8.108409	1.373602	-0.000162
1230	1.2229e+02	-4.4810	-16.941840	0.000588	5.878596	0.995861	-0.000118
1231	1.2239e+02	-4.5021	-17.107363	0.000831	8.311119	1.407942	-0.000166
1232	1.2248e+02	-4.5219	-17.228477	0.000608	6.081307	1.030201	-0.000122
1233	1.2258e+02	-4.5412	-17.442445	0.001074	10.743642	1.820022	-0.000215
1234	1.2268e+02	-4.5613	-17.567596	0.000628	6.284017	1.064541	-0.000126
1235	1.2278e+02	-4.5812	-17.700822	0.000669	6.689437	1.133221	-0.000134
1236	1.2288e+02	-4.6008	-17.830010	0.000649	6.486727	1.098881	-0.000130
1237	1.2298e+02	-4.6211	-18.015718	0.000932	9.324670	1.579642	-0.000187
1238	1.2308e+02	-4.6410	-18.152981	0.000689	6.892148	1.167561	-0.000138
1239	1.2318e+02	-4.6606	-18.302355	0.000750	7.500278	1.270582	-0.000150
1240	1.2328e+02	-4.6808	-18.455766	0.000770	7.702989	1.304922	-0.000154
1241	1.2338e+02	-4.7008	-18.584954	0.000649	6.486727	1.098881	-0.000130
1242	1.2348e+02	-4.7203	-18.754514	0.000851	8.513829	1.442282	-0.000170
1243	1.2358e+02	-4.7409	-18.948297	0.000973	9.730091	1.648322	-0.000195
1244	1.2368e+02	-4.7610	-19.081522	0.000669	6.689437	1.133221	-0.000134
1245	1.2378e+02	-4.7807	-19.214748	0.000669	6.689437	1.133221	-0.000134
1246	1.2388e+02	-4.8002	-19.315676	0.000507	5.067756	0.858501	-0.000101
1247	1.2398e+02	-4.8208	-19.469087	0.000770	7.702989	1.304922	-0.000154
1248	1.2408e+02	-4.8407	-19.598275	0.000649	6.486727	1.098881	-0.000130
1249	1.2418e+02	-4.8602	-19.800132	0.001014	10.135511	1.717002	-0.000203
1250	1.2428e+02	-4.8800	-19.941432	0.000709	7.094858	1.201901	-0.000142
1251	1.2438e+02	-4.8993	-20.090806	0.000750	7.500278	1.270582	-0.000150
1252	1.2447e+02	-4.9205	-20.256329	0.000831	8.311119	1.407942	-0.000166
1253	1.2457e+02	-4.9391	-20.401665	0.000730	7.297568	1.236241	-0.000146
1254	1.2467e+02	-4.9596	-20.514705	0.000568	5.675886	0.961521	-0.000114
1255	1.2477e+02	-4.9792	-20.656005	0.000709	7.094858	1.201901	-0.000142
1256	1.2487e+02	-5.0005	-20.845750	0.000953	9.527381	1.613982	-0.000191
1257	1.2497e+02	-5.0201	-20.966864	0.000608	6.081307	1.030201	-0.000122
1258	1.2507e+02	-5.0395	-21.188907	0.001115	11.149062	1.888702	-0.000223
1259	1.2517e+02	-5.0592	-21.273687	0.000426	4.256915	0.721141	-0.000085
1260	1.2527e+02	-5.0796	-21.451321	0.000892	8.919250	1.510962	-0.000179
1261	1.2537e+02	-5.0985	-21.604732	0.000770	7.702989	1.304922	-0.000154
1262	1.2547e+02	-5.1192	-21.770254	0.000831	8.311119	1.407942	-0.000166
1263	1.2557e+02	-5.1389	-21.931740	0.000811	8.108409	1.373602	-0.000162
1264	1.2567e+02	-5.1587	-22.004408	0.000365	3.648784	0.618121	-0.000073
1265	1.2577e+02	-5.1791	-22.210302	0.001034	10.338221	1.751342	-0.000207
1266	1.2587e+02	-5.1988	-22.343528	0.000669	6.689437	1.133221	-0.000134
1267	1.2597e+02	-5.2175	-22.500976	0.000791	7.905699	1.339262	-0.000158
1268	1.2607e+02	-5.2386	-22.642276	0.000709	7.094858	1.201901	-0.000142
1269	1.2617e+02	-5.2576	-22.803761	0.000811	8.108409	1.373602	-0.000162
1270	1.2627e+02	-5.2787	-22.957172	0.000770	7.702989	1.304922	-0.000154
1271	1.2636e+02	-5.2988	-23.130769	0.000872	8.716540	1.476622	-0.000174
1272	1.2646e+02	-5.3176	-23.243809	0.000568	5.675886	0.961521	-0.000114
1273	1.2656e+02	-5.3383	-23.385109	0.000709	7.094858	1.201901	-0.000142
1274	1.2666e+02	-5.3583	-23.582928	0.000993	9.932801	1.682662	-0.000199
1275	1.2676e+02	-5.3770	-23.659634	0.000385	3.851494	0.652461	-0.000077
1276	1.2686e+02	-5.3976	-23.877639	0.001095	10.946352	1.854362	-0.000219
1277	1.2696e+02	-5.4178	-23.978568	0.000507	5.067756	0.858501	-0.000101
1278	1.2706e+02	-5.4376	-24.140053	0.000811	8.108409	1.373602	-0.000162
1279	1.2716e+02	-5.4578	-24.285390	0.000730	7.297568	1.236241	-0.000146
1280	1.2726e+02	-5.4781	-24.414578	0.000649	6.486727	1.098881	-0.000130
1281	1.2736e+02	-5.4966	-24.608361	0.000973	9.730091	1.648322	-0.000195
1282	1.2746e+02	-5.5170	-24.753698	0.000730	7.297568	1.236241	-0.000146
1283	1.2756e+02	-5.5380	-24.878849	0.000628	6.284017	1.064541	-0.000126
1284	1.2766e+02	-5.5563	-25.048409	0.000851	8.513829	1.442282	-0.000170
1285	1.2776e+02	-5.5777	-25.193746	0.000730	7.297568	1.236241	-0.000146
1286	1.2786e+02	-5.5972	-25.339082	0.000730	7.297568	1.236241	-0.000146
1287	1.2796e+02	-5.6163	-25.488456	0.000750	7.500278	1.270582	-0.000150
1288	1.2806e+02	-5.6366	-25.658016	0.000851	8.513829	1.442282	-0.000170
1289	1.2816e+02	-5.6573	-25.779130	0.000608	6.081307	1.030201	-0.000122
1290	1.2826e+02	-5.6767	-25.916393	0.000689	6.892148	1.167561	-0.000138
1291	1.2835e+02	-5.6967	-26.102101	0.000932	9.324670	1.579642	-0.000187
1292	1.2845e+02	-5.7168	-26.259549	0.000791	7.905699	1.339262	-0.000158
1293	1.2855e+02	-5.7374	-26.392775	0.000669	6.689437	1.133221	-0.000134
1294	1.2865e+02	-5.7567	-26.542149	0.000750	7.500278	1.270582	-0.000150
1295	1.2875e+02	-5.7769	-26.695560	0.000770	7.702989	1.304922	-0.000154
1296	1.2885e+02	-5.7970	-26.816674	0.000608	6.081307	1.030201	-0.000122
1297	1.2895e+02	-5.8165	-27.010457	0.000973	9.730091	1.648322	-0.000195
1298	1.2905e+02	-5.8371	-27.139645	0.000649	6.486727	1.098881	-0.000130
1299	1.2915e+02	-5.8566	-27.305168	0.000831	8.311119	1.407942	-0.000166
1300	1.2925e+02	-5.8771	-27.434356	0.000649	6.486727	1.098881	-0.000130
1301	1.2935e+02	-5.8965	-27.607953	0.000872	8.716540	1.476622	-0.000174
1302	1.2945e+02	-5.9168	-27.761364	0.000770	7.702989	1.304922	-0.000154
1303	1.2955e+02	-5.9355	-27.886515	0.000628	6.284017	1.064541	-0.000126
1304	1.2965e+02	-5.9561	-28.039926	0.000770	7.702989	1.304922	-0.000154
1305	1.2975e+02	-5.9758	-28.152966	0.000568	5.675886	0.961521	-0.000114
1306	1.2985e+02	-5.9956	-28.334637	0.000912	9.121960	1.545302	-0.000183
1307	1.2995e+02	-6.0158	-28.504197	0.000851	8.513829	1.442282	-0.000170
1308	1.3005e+02	-6.0352	-28.653571	0.000750	7.500278	1.270582	-0.000150
1309	1.3015e+02	-6.0555	-28.819093	0.000831	8.311119	1.407942	-0.000166
1310	1.3025e+02	-6.0756	-28.907910	0.000446	4.459625	0.755481	-0.000089
1311	1.3034e+02	-6.0956	-29.105730	0.000993	9.932801	1.682662	-0.000199
1312	1.3044e+02	-6.1154	-29.263178	0.000791	7.905699	1.339262	-0.000158
1313	1.3054e+02	-6.1342	-29.396404	0.000669	6.689437	1.133221	-0.000134
1314	1.3064e+02	-6.1545	-29.561926	0.000831	8.311119	1.407942	-0.000166
1315	1.3074e+02	-6.1748	-29.699189	0.000689	6.892148	1.167561	-0.000138
1316	1.3084e+02	-6.1957	-29.864712	0.000831	8.311119	1.407942	-0.000166
1317	1.3094e+02	-6.2154	-30.050420	0.000932	9.324670	1.579642	-0.000187
1318	1.3104e+02	-6.2350	-30.183645	0.000669	6.689437	1.133221	-0.000134
1319	1.3114e+02	-6.2544	-30.345131	0.000811	8.108409	1.373602	-0.000162
1320	1.3124e+02	-6.2755	-30.498542	0.000770	7.702989	1.304922	-0.000154
1321	1.3134e+02	-6.2954	-30.660027	0.000811	8.108409	1.373602	-0.000162
1322	1.3144e+02	-6.3145	-30.829587	0.000851	8.513829	1.442282	-0.000170
1323	1.3154e+02	-6.3333	-30.942627	0.000568	5.675886	0.961521	-0.000114
1324	1.3164e+02	-6.3533	-31.120261	0.000892	8.919250	1.510962	-0.000179
1325	1.3174e+02	-6.3741	-31.245412	0.000628	6.284017	1.064541	-0.000126
1326	1.3184e+02	-6.3943	-31.431120	0.000932	9.324670	1.579642	-0.000187
1327	1.3194e+02	-6.4133	-31.628940	0.000993	9.932801	1.682662	-0.000199
1328	1.3204e+02	-6.4339	-31.737943	0.000547	5.473176	0.927181	-0.000110
1329	1.3214e+02	-6.4531	-31.923651	0.000932	9.324670	1.579642	-0.000187
1330	1.3224e+02	-6.4734	-32.081099	0.000791	7.905699	1.339262	-0.000158
1331	1.3234e+02	-6.4941	-32.218362	0.000689	6.892148	1.167561	-0.000138
1332	1.3243e+02	-6.5136	-32.428293	0.001054	10.540932	1.785682	-0.000211
1333	1.3253e+02	-6.5332	-32.589778	0.000811	8.108409	1.373602	-0.000162
1334	1.3263e+02	-6.5532	-32.714929	0.000628	6.284017	1.064541	-0.000126
1335	1.3273e+02	-6.5733	-32.916786	0.001014	10.135511	1.717002	-0.000203
1336	1.3283e+02	-6.5939	-33.054049	0.000689	6.892148	1.167561	-0.000138
1337	1.3293e+02	-6.6130	-33.183237	0.000649	6.486727	1.098881	-0.000130
1338	1.3303e+02	-6.6331	-33.364908	0.000912	9.121960	1.545302	-0.000183
1339	1.3313e+02	-6.6528	-33.538505	0.000872	8.716540	1.476622	-0.000174
1340	1.3323e+02	-6.6730	-33.716139	0.000892	8.919250	1.510962	-0.000179
1341	1.3333e+02	-6.6933	-33.889736	0.000872	8.716540	1.476622	-0.000174
1342	1.3343e+02	-6.7130	-34.055259	0.000831	8.311119	1.407942	-0.000166
1343	1.3353e+02	-6.7325	-34.188484	0.000669	6.689437	1.133221	-0.000134
1344	1.3363e+02	-6.7525	-34.317672	0.000649	6.486727	1.098881	-0.000130
1345	1.3373e+02	-6.7734	-34.523566	0.001034	10.338221	1.751342	-0.000207
1346	1.3383e+02	-6.7935	-34.697163	0.000872	8.716540	1.476622	-0.000174
1347	1.3393e+02	-6.8134	-34.842500	0.000730	7.297568	1.236241	-0.000146
1348	1.3403e+02	-6.8323	-35.044357	0.001014	10.135511	1.717002	-0.000203
1349	1.3413e+02	-6.8523	-35.185657	0.000709	7.094858	1.201901	-0.000142
1350	1.3423e+02	-6.8721	-35.351179	0.000831	8.311119	1.407942	-0.000166
1351	1.3432e+02	-6.8922	-35.553036	0.001014	10.135511	1.717002	-0.000203
1352	1.3442e+02	-6.9121	-35.726633	0.000872	8.716540	1.476622	-0.000174
1353	1.3452e+02	-6.9318	-35.839673	0.000568	5.675886	0.961521	-0.000114
1354	1.3462e+02	-6.9519	-36.041529	0.001014	10.135511	1.717002	-0.000203
1355	1.3472e+02	-6.9720	-36.194940	0.000770	7.702989	1.304922	-0.000154
1356	1.3482e+02	-6.9914	-36.340277	0.000730	7.297568	1.236241	-0.000146
1357	1.3492e+02	-7.0118	-36.534060	0.000973	9.730091	1.648322	-0.000195
1358	1.3502e+02	-7.0317	-36.711694	0.000892	8.919250	1.510962	-0.000179
1359	1.3512e+02	-7.0518	-36.929699	0.001095	10.946352	1.854362	-0.000219
1360	1.3522e+02	-7.0715	-37.062925	0.000669	6.689437	1.133221	-0.000134
1361	1.3532e+02	-7.0914	-37.240559	0.000892	8.919250	1.510962	-0.000179
1362	1.3542e+02	-7.1123	-37.438378	0.000993	9.932801	1.682662	-0.000199
1363	1.3552e+02	-7.1313	-37.632161	0.000973	9.730091	1.648322	-0.000195
1364	1.3562e+02	-7.1509	-37.805758	0.000872	8.716540	1.476622	-0.000174
1365	1.3572e+02	-7.1703	-37.959169	0.000770	7.702989	1.304922	-0.000154
1366	1.3582e+02	-7.1912	-38.181211	0.001115	11.149062	1.888702	-0.000223
1367	1.3592e+02	-7.2112	-38.383068	0.001014	10.135511	1.717002	-0.000203
1368	1.3602e+02	-7.2301	-38.548591	0.000831	8.311119	1.407942	-0.000166
1369	1.3612e+02	-7.2507	-38.689890	0.000709	7.094858	1.201901	-0.000142
1370	1.3622e+02	-7.2704	-38.899821	0.001054	10.540932	1.785682	-0.000211
1371	1.3631e+02	-7.2902	-39.061307	0.000811	8.108409	1.373602	-0.000162
1372	1.3641e+02	-7.3106	-39.238941	0.000892	8.919250	1.510962	-0.000179
1373	1.3651e+02	-7.3309	-39.440798	0.001014	10.135511	1.717002	-0.000203
1374	1.3661e+02	-7.3508	-39.642654	0.001014	10.135511	1.717002	-0.000203
1375	1.3671e+02	-7.3697	-39.804140	0.000811	8.108409	1.373602	-0.000162
1376	1.3681e+02	-7.3904	-40.054442	0.001257	12.568034	2.129083	-0.000252
1377	1.3691e+02	-7.4117	-40.236113	0.000912	9.121960	1.545302	-0.000183
1378	1.3701e+02	-7.4313	-40.397599	0.000811	8.108409	1.373602	-0.000162
1379	1.3711e+02	-7.4498	-40.551010	0.000770	7.702989	1.304922	-0.000154
1380	1.3721e+02	-7.4702	-40.781127	0.001155	11.554483	1.957382	-0.000231
1381	1.3731e+02	-7.4905	-41.003169	0.001115	11.149062	1.888702	-0.000223
1382	1.3741e+02	-7.5098	-41.217137	0.001074	10.743642	1.820022	-0.000215
1383	1.3751e+02	-7.5301	-41.394771	0.000892	8.919250	1.510962	-0.000179
1384	1.3761e+02	-7.5500	-41.564331	0.000851	8.513829	1.442282	-0.000170
1385	1.3771e+02	-7.5687	-41.790411	0.001135	11.351773	1.923042	-0.000227
1386	1.3781e+02	-7.5890	-41.996305	0.001034	10.338221	1.751342	-0.000207
1387	1.3791e+02	-7.6089	-42.194124	0.000993	9.932801	1.682662	-0.000199
1388	1.3801e+02	-7.6292	-42.363684	0.000851	8.513829	1.442282	-0.000170
1389	1.3811e+02	-7.6480	-42.565541	0.001014	10.135511	1.717002	-0.000203
1390	1.3821e+02	-7.6685	-42.767397	0.001014	10.135511	1.717002	-0.000203
1391	1.3831e+02	-7.6882	-42.977328	0.001054	10.540932	1.785682	-0.000211
1392	1.3840e+02	-7.7095	-43.259928	0.001419	14.189716	2.403803	-0.000284
1393	1.3850e+02	-7.7287	-43.425451	0.000831	8.311119	1.407942	-0.000166
1394	1.3860e+02	-7.7487	-43.603085	0.000892	8.919250	1.510962	-0.000179
1395	1.3870e+02	-7.7681	-43.808978	0.001034	10.338221	1.751342	-0.000207
1396	1.3880e+02	-7.7890	-44.059281	0.001257	12.568034	2.129083	-0.000252
1397	1.3890e+02	-7.8081	-44.257101	0.000993	9.932801	1.682662	-0.000199
1398	1.3900e+02	-7.8281	-44.454920	0.000993	9.932801	1.682662	-0.000199
1399	1.3910e+02	-7.8477	-44.697148	0.001216	12.162613	2.060402	-0.000243
1400	1.3920e+02	-7.8683	-44.907079	0.001054	10.540932	1.785682	-0.000211
1401	1.3930e+02	-7.8872	-45.100862	0.000973	9.730091	1.648322	-0.000195
1402	1.3940e+02	-7.9080	-45.322904	0.001115	11.149062	1.888702	-0.000223
1403	1.3950e+02	-7.9282	-45.544947	0.001115	11.149062	1.888702	-0.000223
1404	1.3960e+02	-7.9477	-45.766989	0.001115	11.149062	1.888702	-0.000223
1405	1.3970e+02	-7.9672	-45.956735	0.000953	9.527381	1.613982	-0.000191
1406	1.3980e+02	-7.9871	-46.211074	0.001277	12.770744	2.163423	-0.000256
1407	1.3990e+02	-8.0077	-46.396782	0.000932	9.324670	1.579642	-0.000187
1408	1.4000e+02	-8.0279	-46.622862	0.001135	11.351773	1.923042	-0.000227
1409	1.4010e+02	-8.0468	-46.897387	0.001378	13.784295	2.335123	-0.000276
1410	1.4020e+02	-8.0676	-47.083096	0.000932	9.324670	1.579642	-0.000187
1411	1.4029e+02	-8.0878	-47.317249	0.001176	11.757193	1.991722	-0.000235
1412	1.4039e+02	-8.1071	-47.551403	0.001176	11.757193	1.991722	-0.000235
1413	1.4049e+02	-8.1272	-47.745186	0.000973	9.730091	1.648322	-0.000195
1414	1.4059e+02	-8.1470	-47.979340	0.001176	11.757193	1.991722	-0.000235
1415	1.4069e+02	-8.1673	-48.241754	0.001318	13.176165	2.232103	-0.000264
1416	1.4079e+02	-8.1864	-48.423425	0.000912	9.121960	1.545302	-0.000183
1417	1.4089e+02	-8.2054	-48.689876	0.001338	13.378875	2.266443	-0.000268
1418	1.4099e+02	-8.2280	-48.911918	0.001115	11.149062	1.888702	-0.000223
1419	1.4109e+02	-8.2458	-49.142035	0.001155	11.554483	1.957382	-0.000231
1420	1.4119e+02	-8.2674	-49.396374	0.001277	12.770744	2.163423	-0.000256
1421	1.4129e+02	-8.2861	-49.642640	0.001237	12.365324	2.094743	-0.000248
1422	1.4139e+02	-8.3067	-49.921202	0.001399	13.987005	2.369463	-0.000280
1423	1.4149e+02	-8.3263	-50.127096	0.001034	10.338221	1.751342	-0.000207
1424	1.4159e+02	-8.3459	-50.369324	0.001216	12.162613	2.060402	-0.000243
1425	1.4169e+02	-8.3662	-50.599441	0.001155	11.554483	1.957382	-0.000231
1426	1.4179e+02	-8.3862	-50.878003	0.001399	13.987005	2.369463	-0.000280
1427	1.4189e+02	-8.4053	-51.120231	0.001216	12.162613	2.060402	-0.000243
1428	1.4199e+02	-8.4251	-51.386682	0.001338	13.378875	2.266443	-0.000268
1429	1.4209e+02	-8.4459	-51.600650	0.001074	10.743642	1.820022	-0.000215
1430	1.4219e+02	-8.4649	-51.879213	0.001399	13.987005	2.369463	-0.000280
1431	1.4228e+02	-8.4859	-52.121441	0.001216	12.162613	2.060402	-0.000243
1432	1.4238e+02	-8.5053	-52.379818	0.001297	12.973454	2.197763	-0.000260
1433	1.4248e+02	-8.5255	-52.626083	0.001237	12.365324	2.094743	-0.000248
1434	1.4258e+02	-8.5452	-52.892534	0.001338	13.378875	2.266443	-0.000268
1435	1.4268e+02	-8.5648	-53.118613	0.001135	11.351773	1.923042	-0.000227
1436	1.4278e+02	-8.5849	-53.445621	0.001642	16.419528	2.781543	-0.000329
1437	1.4288e+02	-8.6047	-53.699961	0.001277	12.770744	2.163423	-0.000256
1438	1.4298e+02	-8.6249	-53.950263	0.001257	12.568034	2.129083	-0.000252
1439	1.4308e+02	-8.6446	-54.244974	0.001480	14.797846	2.506823	-0.000296
1440	1.4318e+02	-8.6640	-54.483165	0.001196	11.959903	2.026062	-0.000239
1441	1.4328e+02	-8.6846	-54.781913	0.001500	15.000557	2.541163	-0.000300
1442	1.4338e+02	-8.7044	-55.003956	0.001115	11.149062	1.888702	-0.000223
1443	1.4348e+02	-8.7245	-55.282518	0.001399	13.987005	2.369463	-0.000280
1444	1.4358e+02	-8.7451	-55.553006	0.001358	13.581585	2.300783	-0.000272
1445	1.4368e+02	-8.7645	-55.811383	0.001297	12.973454	2.197763	-0.000260
1446	1.4378e+02	-8.7836	-56.110131	0.001500	15.000557	2.541163	-0.000300
1447	1.4388e+02	-8.8032	-56.364471	0.001277	12.770744	2.163423	-0.000256
1448	1.4398e+02	-8.8248	-56.671293	0.001541	15.405977	2.609843	-0.000308
1449	1.4408e+02	-8.8440	-56.937744	0.001338	13.378875	2.266443	-0.000268
1450	1.4418e+02	-8.8641	-57.208232	0.001358	13.581585	2.300783	-0.000272
1451	1.4428e+02	-8.8832	-57.539277	0.001662	16.622238	2.815883	-0.000333
1452	1.4437e+02	-8.9043	-57.801691	0.001318	13.176165	2.232103	-0.000264
1453	1.4447e+02	-8.9232	-58.043919	0.001216	12.162613	2.060402	-0.000243
1454	1.4457e+02	-8.9439	-58.346704	0.001520	15.203267	2.575503	-0.000304
1455	1.4467e+02	-8.9643	-58.625267	0.001399	13.987005	2.369463	-0.000280
1456	1.4477e+02	-8.9832	-58.891718	0.001338	13.378875	2.266443	-0.000268
1457	1.4487e+02	-9.0034	-59.234874	0.001723	17.230369	2.918904	-0.000345
1458	1.4497e+02	-9.0230	-59.493251	0.001297	12.973454	2.197763	-0.000260
1459	1.4507e+02	-9.0428	-59.791999	0.001500	15.000557	2.541163	-0.000300
1460	1.4517e+02	-9.0628	-60.106895	0.001581	15.811397	2.678523	-0.000316
1461	1.4527e+02	-9.0822	-60.405643	0.001500	15.000557	2.541163	-0.000300
1462	1.4537e+02	-9.1019	-60.704392	0.001500	15.000557	2.541163	-0.000300
1463	1.4547e+02	-9.1223	-60.995065	0.001460	14.595136	2.472483	-0.000292
1464	1.4557e+02	-9.1426	-61.269591	0.001378	13.784295	2.335123	-0.000276
1465	1.4567e+02	-9.1640	-61.560264	0.001460	14.595136	2.472483	-0.000292
1466	1.4577e+02	-9.1821	-61.883235	0.001622	16.216818	2.747203	-0.000325
1467	1.4587e+02	-9.2036	-62.222355	0.001703	17.027659	2.884563	-0.000341
1468	1.4597e+02	-9.2223	-62.492843	0.001358	13.581585	2.300783	-0.000272
1469	1.4607e+02	-9.2429	-62.835999	0.001723	17.230369	2.918904	-0.000345
1470	1.4617e+02	-9.2610	-63.098413	0.001318	13.176165	2.232103	-0.000264
1471	1.4626e+02	-9.2822	-63.494052	0.001987	19.865602	3.365324	-0.000398
1472	1.4636e+02	-9.3015	-63.756466	0.001318	13.176165	2.232103	-0.000264
1473	1.4646e+02	-9.3213	-64.091548	0.001682	16.824949	2.850223	-0.000337
1474	1.4656e+02	-9.3423	-64.370111	0.001399	13.987005	2.369463	-0.000280
1475	1.4666e+02	-9.3619	-64.668859	0.001500	15.000557	2.541163	-0.000300
1476	1.4676e+02	-9.3823	-65.020090	0.001764	17.635789	2.987584	-0.000353
1477	1.4686e+02	-9.4014	-65.351135	0.001662	16.622238	2.815883	-0.000333
1478	1.4696e+02	-9.4212	-65.694291	0.001723	17.230369	2.918904	-0.000345
1479	1.4706e+02	-9.4408	-66.017262	0.001622	16.216818	2.747203	-0.000325
1480	1.4716e+02	-9.4611	-66.316010	0.001500	15.000557	2.541163	-0.000300
1481	1.4726e+02	-9.4809	-66.655130	0.001703	17.027659	2.884563	-0.000341
1482	1.4736e+02	-9.5007	-66.970026	0.001581	15.811397	2.678523	-0.000316
1483	1.4746e+02	-9.5210	-67.353554	0.001926	19.257471	3.262304	-0.000385
1484	1.4756e+02	-9.5418	-67.640191	0.001439	14.392426	2.438143	-0.000288
1485	1.4766e+02	-9.5605	-68.043904	0.002027	20.271022	3.434004	-0.000406
1486	1.4776e+02	-9.5816	-68.354764	0.001561	15.608687	2.644183	-0.000312
1487	1.4786e+02	-9.6007	-68.653512	0.001500	15.000557	2.541163	-0.000300
1488	1.4796e+02	-9.6209	-69.053188	0.002007	20.068312	3.399664	-0.000402
1489	1.4806e+02	-9.6414	-69.388270	0.001682	16.824949	2.850223	-0.000337
1490	1.4816e+02	-9.6612	-69.763724	0.001885	18.852051	3.193624	-0.000377
1491	1.4825e+02	-9.6806	-70.110918	0.001743	17.433079	2.953244	-0.000349
1492	1.4835e+02	-9.6997	-70.446000	0.001682	16.824949	2.850223	-0.000337
1493	1.4845e+02	-9.7200	-70.793194	0.001743	17.433079	2.953244	-0.000349
1494	1.4855e+02	-9.7398	-71.180759	0.001946	19.460182	3.296644	-0.000390
1495	1.4865e+02	-9.7592	-71.531990	0.001764	17.635789	2.987584	-0.000353
1496	1.4875e+02	-9.7801	-71.879183	0.001743	17.433079	2.953244	-0.000349
1497	1.4885e+02	-9.7998	-72.246563	0.001845	18.446630	3.124944	-0.000369
1498	1.4895e+02	-9.8189	-72.617979	0.001865	18.649341	3.159284	-0.000373
1499	1.4905e+02	-9.8395	-72.985358	0.001845	18.446630	3.124944	-0.000369
1500	1.4915e+02	-9.8601	-73.340626	0.001784	17.838500	3.021924	-0.000357
1501	1.4925e+02	-9.8793	-73.691857	0.001764	17.635789	2.987584	-0.000353
1502	1.4935e+02	-9.9003	-74.059237	0.001845	18.446630	3.124944	-0.000369
1503	1.4945e+02	-9.9182	-74.466987	0.002047	20.473733	3.468344	-0.000410
1504	1.4955e+02	-9.9399	-74.830329	0.001824	18.243920	3.090604	-0.000365
1505	1.4965e+02	-9.9604	-75.201746	0.001865	18.649341	3.159284	-0.000373
1506	1.4975e+02	-9.9789	-75.581237	0.001905	19.054761	3.227964	-0.000381
1507	1.4985e+02	-9.9993	-75.956690	0.001885	18.852051	3.193624	-0.000377
1508	1.4995e+02	-9.9792	-76.110102	-0.000770	-7.702989	-1.304922	-0.000154
1509	1.5005e+02	-9.9593	-76.356367	-0.001237	-12.365324	-2.094743	-0.000248
1510	1.5015e+02	-9.9388	-76.493629	-0.000689	-6.892148	-1.167561	-0.000138
1511	1.5025e+02	-9.9187	-76.655115	-0.000811	-8.108409	-1.373602	-0.000162
1512	1.5034e+02	-9.9001	-76.792377	-0.000689	-6.892148	-1.167561	-0.000138
1513	1.5044e+02	-9.8802	-76.925603	-0.000669	-6.689437	-1.133221	-0.000134
1514	1.5054e+02	-9.8596	-77.079014	-0.000770	-7.702989	-1.304922	-0.000154
1515	1.5064e+02	-9.8401	-77.208202	-0.000649	-6.486727	-1.098881	-0.000130
1516	1.5074e+02	-9.8196	-77.301057	-0.000466	-4.662335	-0.789821	-0.000093
1517	1.5084e+02	-9.7997	-77.373725	-0.000365	-3.648784	-0.618121	-0.000073
1518	1.5094e+02	-9.7803	-77.430245	-0.000284	-2.837943	-0.480761	-0.000057
1519	1.5104e+02	-9.7597	-77.559433	-0.000649	-6.486727	-1.098881	-0.000130
1520	1.5114e+02	-9.7407	-77.656324	-0.000487	-4.865045	-0.824161	-0.000097
1521	1.5124e+02	-9.7194	-77.680547	-0.000122	-1.216261	-0.206040	-0.000024
1522	1.5134e+02	-9.7016	-77.769364	-0.000446	-4.459625	-0.755481	-0.000089
1523	1.5144e+02	-9.6808	-77.862218	-0.000466	-4.662335	-0.789821	-0.000093
1524	1.5154e+02	-9.6603	-77.870293	-0.000041	-0.405420	-0.068680	-0.000008
1525	1.5164e+02	-9.6406	-77.955073	-0.000426	-4.256915	-0.721141	-0.000085
1526	1.5174e+02	-9.6213	-78.007555	-0.000264	-2.635233	-0.446421	-0.000053
1527	1.5184e+02	-9.6008	-78.072149	-0.000324	-3.243364	-0.549441	-0.000065
1528	1.5194e+02	-9.5803	-78.104447	-0.000162	-1.621682	-0.274720	-0.000032
1529	1.5204e+02	-9.5612	-78.132707	-0.000142	-1.418972	-0.240380	-0.000028
1530	1.5214e+02	-9.5405	-78.201338	-0.000345	-3.446074	-0.583781	-0.000069
1531	1.5224e+02	-9.5215	-78.225561	-0.000122	-1.216261	-0.206040	-0.000024
1532	1.5233e+02	-9.5014	-78.213449	0.000061	0.608131	0.103020	0.000012
1533	1.5243e+02	-9.4803	-78.241709	-0.000142	-1.418972	-0.240380	-0.000028
1534	1.5253e+02	-9.4614	-78.282081	-0.000203	-2.027102	-0.343400	-0.000041
1535	1.5263e+02	-9.4411	-78.298229	-0.000081	-0.810841	-0.137360	-0.000016
1536	1.5273e+02	-9.4220	-78.290155	0.000041	0.405420	0.068680	0.000008
1537	1.5283e+02	-9.4014	-78.306303	-0.000081	-0.810841	-0.137360	-0.000016
1538	1.5293e+02	-9.3820	-78.346675	-0.000203	-2.027102	-0.343400	-0.000041
1539	1.5303e+02	-9.3616	-78.326489	0.000101	1.013551	0.171700	0.000020
1540	1.5313e+02	-9.3425	-78.314378	0.000061	0.608131	0.103020	0.000012
1541	1.5323e+02	-9.3217	-78.334563	-0.000101	-1.013551	-0.171700	-0.000020
1542	1.5333e+02	-9.3013	-78.298229	0.000182	1.824392	0.309060	0.000037
1543	1.5343e+02	-9.2830	-78.330526	-0.000162	-1.621682	-0.274720	-0.000032
1544	1.5353e+02	-9.2615	-78.314378	0.000081	0.810841	0.137360	0.000016
1545	1.5363e+02	-9.2420	-78.314378	0.000000	0.000000	0.000000	0.000000
1546	1.5373e+02	-9.2216	-78.302266	0.000061	0.608131	0.103020	0.000012
1547	1.5383e+02	-9.2022	-78.265932	0.000182	1.824392	0.309060	0.000037
1548	1.5393e+02	-9.1826	-78.261895	0.000020	0.202710	0.034340	0.000004
1549	1.5403e+02	-9.1615	-78.233635	0.000142	1.418972	0.240380	0.000028
1550	1.5413e+02	-9.1431	-78.253821	-0.000101	-1.013551	-0.171700	-0.000020
1551	1.5422e+02	-9.1228	-78.197301	0.000284	2.837943	0.480761	0.000057
1552	1.5432e+02	-9.1026	-78.156929	0.000203	2.027102	0.343400	0.000041
1553	1.5442e+02	-9.0836	-78.144818	0.000061	0.608131	0.103020	0.000012
1554	1.5452e+02	-9.0628	-78.132707	0.000061	0.608131	0.103020	0.000012
1555	1.5462e+02	-9.0428	-78.112521	0.000101	1.013551	0.171700	0.000020
1556	1.5472e+02	-9.0229	-78.051964	0.000304	3.040653	0.515101	0.000061
1557	1.5482e+02	-9.0034	-78.047927	0.000020	0.202710	0.034340	0.000004
1558	1.5492e+02	-8.9835	-78.031778	0.000081	0.810841	0.137360	0.000016
1559	1.5502e+02	-8.9629	-77.971221	0.000304	3.040653	0.515101	0.000061
1560	1.5512e+02	-8.9437	-77.934887	0.000182	1.824392	0.309060	0.000037
1561	1.5522e+02	-8.9235	-77.890478	0.000223	2.229812	0.377740	0.000045
1562	1.5532e+02	-8.9041	-77.886441	0.000020	0.202710	0.034340	0.000004
1563	1.5542e+02	-8.8834	-77.829921	0.000284	2.837943	0.480761	0.000057
1564	1.5552e+02	-8.8644	-77.789550	0.000203	2.027102	0.343400	0.000041
1565	1.5562e+02	-8.8437	-77.741104	0.000243	2.432523	0.412080	0.000049
1566	1.5572e+02	-8.8240	-77.708807	0.000162	1.621682	0.274720	0.000032
1567	1.5582e+02	-8.8037	-77.640176	0.000345	3.446074	0.583781	0.000069
1568	1.5592e+02	-8.7836	-77.583656	0.000284	2.837943	0.480761	0.000057
1569	1.5602e+02	-8.7641	-77.539248	0.000223	2.229812	0.377740	0.000045
1570	1.5612e+02	-8.7440	-77.454468	0.000426	4.256915	0.721141	0.000085
1571	1.5622e+02	-8.7242	-77.426208	0.000142	1.418972	0.240380	0.000028
1572	1.5631e+02	-8.7036	-77.406022	0.000101	1.013551	0.171700	0.000020
1573	1.5641e+02	-8.6841	-77.321242	0.000426	4.256915	0.721141	0.000085
1574	1.5651e+02	-8.6646	-77.284908	0.000182	1.824392	0.309060	0.000037
1575	1.5661e+02	-8.6444	-77.256648	0.000142	1.418972	0.240380	0.000028
1576	1.5671e+02	-8.6264	-77.139571	0.000588	5.878596	0.995861	0.000118
1577	1.5681e+02	-8.6047	-77.127460	0.000061	0.608131	0.103020	0.000012
1578	1.5691e+02	-8.5849	-77.111311	0.000081	0.810841	0.137360	0.000016
1579	1.5701e+02	-8.5657	-77.042680	0.000345	3.446074	0.583781	0.000069
1580	1.5711e+02	-8.5445	-76.949826	0.000466	4.662335	0.789821	0.000093
1581	1.5721e+02	-8.5249	-76.881194	0.000345	3.446074	0.583781	0.000069
1582	1.5731e+02	-8.5048	-76.804489	0.000385	3.851494	0.652461	0.000077
1583	1.5741e+02	-8.4850	-76.776229	0.000142	1.418972	0.240380	0.000028
1584	1.5751e+02	-8.4648	-76.707598	0.000345	3.446074	0.583781	0.000069
1585	1.5761e+02	-8.4448	-76.683375	0.000122	1.216261	0.206040	0.000024
1586	1.5771e+02	-8.4261	-76.582446	0.000507	5.067756	0.858501	0.000101
1587	1.5781e+02	-8.4056	-76.513815	0.000345	3.446074	0.583781	0.000069
1588	1.5791e+02	-8.3862	-76.457295	0.000284	2.837943	0.480761	0.000057
1589	1.5801e+02	-8.3655	-76.404812	0.000264	2.635233	0.446421	0.000053
1590	1.5811e+02	-8.3463	-76.328107	0.000385	3.851494	0.652461	0.000077
1591	1.5821e+02	-8.3247	-76.291773	0.000182	1.824392	0.309060	0.000037
1592	1.5830e+02	-8.3065	-76.186807	0.000527	5.270466	0.892841	0.000105
1593	1.5840e+02	-8.2858	-76.154510	0.000162	1.621682	0.274720	0.000032
1594	1.5850e+02	-8.2661	-76.106064	0.000243	2.432523	0.412080	0.000049
1595	1.5860e+02	-8.2474	-76.021285	0.000426	4.256915	0.721141	0.000085
1596	1.5870e+02	-8.2266	-75.956690	0.000324	3.243364	0.549441	0.000065
1597	1.5880e+02	-8.2065	-75.863836	0.000466	4.662335	0.789821	0.000093
1598	1.5890e+02	-8.1870	-75.783094	0.000405	4.054204	0.686801	0.000081
1599	1.5900e+02	-8.1660	-75.718499	0.000324	3.243364	0.549441	0.000065
1600	1.5910e+02	-8.1467	-75.690239	0.000142	1.418972	0.240380	0.000028
1601	1.5920e+02	-8.1255	-75.605460	0.000426	4.256915	0.721141	0.000085
1602	1.5930e+02	-8.1062	-75.504531	0.000507	5.067756	0.858501	0.000101
1603	1.5940e+02	-8.0872	-75.452048	0.000264	2.635233	0.446421	0.000053
1604	1.5950e+02	-8.0669	-75.379380	0.000365	3.648784	0.618121	0.000073
1605	1.5960e+02	-8.0464	-75.298637	0.000405	4.054204	0.686801	0.000081
1606	1.5970e+02	-8.0272	-75.286526	0.000061	0.608131	0.103020	0.000012
1607	1.5980e+02	-8.0067	-75.234043	0.000264	2.635233	0.446421	0.000053
1608	1.5990e+02	-7.9868	-75.133115	0.000507	5.067756	0.858501	0.000101
1609	1.6000e+02	-7.9672	-75.040261	0.000466	4.662335	0.789821	0.000093
1610	1.6010e+02	-7.9482	-74.959518	0.000405	4.054204	0.686801	0.000081
1611	1.6019e+02	-7.9279	-74.878775	0.000405	4.054204	0.686801	0.000081
1612	1.6029e+02	-7.9071	-74.761698	0.000588	5.878596	0.995861	0.000118
1613	1.6039e+02	-7.8885	-74.733438	0.000142	1.418972	0.240380	0.000028
1614	1.6049e+02	-7.8680	-74.600213	0.000669	6.689437	1.133221	0.000134
1615	1.6059e+02	-7.8464	-74.575990	0.000122	1.216261	0.206040	0.000024
1616	1.6069e+02	-7.8279	-74.495247	0.000405	4.054204	0.686801	0.000081
1617	1.6079e+02	-7.8075	-74.422579	0.000365	3.648784	0.618121	0.000073
1618	1.6089e+02	-7.7879	-74.317613	0.000527	5.270466	0.892841	0.000105
1619	1.6099e+02	-7.7687	-74.232833	0.000426	4.256915	0.721141	0.000085
1620	1.6109e+02	-7.7478	-74.168239	0.000324	3.243364	0.549441	0.000065
1621	1.6119e+02	-7.7292	-74.091534	0.000385	3.851494	0.652461	0.000077
1622	1.6129e+02	-7.7079	-73.974457	0.000588	5.878596	0.995861	0.000118
1623	1.6139e+02	-7.6886	-73.926011	0.000243	2.432523	0.412080	0.000049
1624	1.6149e+02	-7.6685	-73.861417	0.000324	3.243364	0.549441	0.000065
1625	1.6159e+02	-7.6489	-73.748377	0.000568	5.675886	0.961521	0.000114
1626	1.6169e+02	-7.6287	-73.671672	0.000385	3.851494	0.652461	0.000077
1627	1.6179e+02	-7.6091	-73.590929	0.000405	4.054204	0.686801	0.000081
1628	1.6189e+02	-7.5887	-73.514223	0.000385	3.851494	0.652461	0.000077
1629	1.6199e+02	-7.5693	-73.397146	0.000588	5.878596	0.995861	0.000118
1630	1.6209e+02	-7.5491	-73.312366	0.000426	4.256915	0.721141	0.000085
1631	1.6219e+02	-7.5288	-73.239698	0.000365	3.648784	0.618121	0.000073
1632	1.6228e+02	-7.5096	-73.183178	0.000284	2.837943	0.480761	0.000057
1633	1.6238e+02	-7.4901	-73.106473	0.000385	3.851494	0.652461	0.000077
1634	1.6248e+02	-7.4696	-73.017656	0.000446	4.459625	0.755481	0.000089
1635	1.6258e+02	-7.4500	-72.936913	0.000405	4.054204	0.686801	0.000081
1636	1.6268e+02	-7.4303	-72.856170	0.000405	4.054204	0.686801	0.000081
1637	1.6278e+02	-7.4101	-72.726982	0.000649	6.486727	1.098881	0.000130
1638	1.6288e+02	-7.3912	-72.666425	0.000304	3.040653	0.515101	0.000061
1639	1.6298e+02	-7.3708	-72.569533	0.000487	4.865045	0.824161	0.000097
1640	1.6308e+02	-7.3502	-72.504939	0.000324	3.243364	0.549441	0.000065
1641	1.6318e+02	-7.3302	-72.359602	0.000730	7.297568	1.236241	0.000146
1642	1.6328e+02	-7.3102	-72.327305	0.000162	1.621682	0.274720	0.000032
1643	1.6338e+02	-7.2910	-72.218303	0.000547	5.473176	0.927181	0.000110
1644	1.6348e+02	-7.2713	-72.169857	0.000243	2.432523	0.412080	0.000049
1645	1.6358e+02	-7.2515	-72.064891	0.000527	5.270466	0.892841	0.000105
1646	1.6368e+02	-7.2306	-71.931666	0.000669	6.689437	1.133221	0.000134
1647	1.6378e+02	-7.2108	-71.850923	0.000405	4.054204	0.686801	0.000081
1648	1.6388e+02	-7.1909	-71.758069	0.000466	4.662335	0.789821	0.000093
1649	1.6398e+02	-7.1710	-71.661178	0.000487	4.865045	0.824161	0.000097
1650	1.6408e+02	-7.1512	-71.580435	0.000405	4.054204	0.686801	0.000081
1651	1.6418e+02	-7.1318	-71.499692	0.000405	4.054204	0.686801	0.000081
1652	1.6427e+02	-7.1114	-71.410876	0.000446	4.459625	0.755481	0.000089
1653	1.6437e+02	-7.0917	-71.334170	0.000385	3.851494	0.652461	0.000077
1654	1.6447e+02	-7.0709	-71.221130	0.000568	5.675886	0.961521	0.000114
1655	1.6457e+02	-7.0509	-71.087905	0.000669	6.689437	1.133221	0.000134
1656	1.6467e+02	-7.0312	-71.083868	0.000020	0.202710	0.034340	0.000004
1657	1.6477e+02	-7.0119	-70.946605	0.000689	6.892148	1.167561	0.000138
1658	1.6487e+02	-6.9914	-70.841639	0.000527	5.270466	0.892841	0.000105
1659	1.6497e+02	-6.9717	-70.768971	0.000365	3.648784	0.618121	0.000073
1660	1.6507e+02	-6.9511	-70.684191	0.000426	4.256915	0.721141	0.000085
1661	1.6517e+02	-6.9324	-70.567114	0.000588	5.878596	0.995861	0.000118
1662	1.6527e+02	-6.9121	-70.506557	0.000304	3.040653	0.515101	0.000061
1663	1.6537e+02	-6.8924	-70.401592	0.000527	5.270466	0.892841	0.000105
1664	1.6547e+02	-6.8719	-70.292589	0.000547	5.473176	0.927181	0.000110
1665	1.6557e+02	-6.8521	-70.227995	0.000324	3.243364	0.549441	0.000065
1666	1.6567e+02	-6.8324	-70.114955	0.000568	5.675886	0.961521	0.000114
1667	1.6577e+02	-6.8120	-70.054398	0.000304	3.040653	0.515101	0.000061
1668	1.6587e+02	-6.7920	-69.945395	0.000547	5.473176	0.927181	0.000110
1669	1.6597e+02	-6.7728	-69.828318	0.000588	5.878596	0.995861	0.000118
1670	1.6607e+02	-6.7532	-69.747576	0.000405	4.054204	0.686801	0.000081
1671	1.6616e+02	-6.7329	-69.662796	0.000426	4.256915	0.721141	0.000085
1672	1.6626e+02	-6.7131	-69.537645	0.000628	6.284017	1.064541	0.000126
1673	1.6636e+02	-6.6929	-69.448828	0.000446	4.459625	0.755481	0.000089
1674	1.6646e+02	-6.6733	-69.339825	0.000547	5.473176	0.927181	0.000110
1675	1.6656e+02	-6.6528	-69.263119	0.000385	3.851494	0.652461	0.000077
1676	1.6666e+02	-6.6333	-69.129894	0.000669	6.689437	1.133221	0.000134
1677	1.6676e+02	-6.6133	-69.037040	0.000466	4.662335	0.789821	0.000093
1678	1.6686e+02	-6.5933	-68.984557	0.000264	2.635233	0.446421	0.000053
1679	1.6696e+02	-6.5730	-68.855369	0.000649	6.486727	1.098881	0.000130
1680	1.6706e+02	-6.5540	-68.742329	0.000568	5.675886	0.961521	0.000114
1681	1.6716e+02	-6.5331	-68.621215	0.000608	6.081307	1.030201	0.000122
1682	1.6726e+02	-6.5132	-68.479915	0.000709	7.094858	1.201901	0.000142
1683	1.6736e+02	-6.4941	-68.427432	0.000264	2.635233	0.446421	0.000053
1684	1.6746e+02	-6.4741	-68.330541	0.000487	4.865045	0.824161	0.000097
1685	1.6756e+02	-6.4538	-68.265947	0.000324	3.243364	0.549441	0.000065
1686	1.6766e+02	-6.4334	-68.140796	0.000628	6.284017	1.064541	0.000126
1687	1.6776e+02	-6.4133	-68.023719	0.000588	5.878596	0.995861	0.000118
1688	1.6786e+02	-6.3937	-67.918753	0.000527	5.270466	0.892841	0.000105
1689	1.6796e+02	-6.3741	-67.785528	0.000669	6.689437	1.133221	0.000134
1690	1.6806e+02	-6.3544	-67.733045	0.000264	2.635233	0.446421	0.000053
1691	1.6816e+02	-6.3348	-67.615968	0.000588	5.878596	0.995861	0.000118
1692	1.6825e+02	-6.3144	-67.482742	0.000669	6.689437	1.133221	0.000134
1693	1.6835e+02	-6.2947	-67.389888	0.000466	4.662335	0.789821	0.000093
1694	1.6845e+02	-6.2750	-67.301071	0.000446	4.459625	0.755481	0.000089
1695	1.6855e+02	-6.2545	-67.232440	0.000345	3.446074	0.583781	0.000069
1696	1.6865e+02	-6.2349	-67.095177	0.000689	6.892148	1.167561	0.000138
1697	1.6875e+02	-6.2141	-66.990212	0.000527	5.270466	0.892841	0.000105
1698	1.6885e+02	-6.1954	-66.869098	0.000608	6.081307	1.030201	0.000122
1699	1.6895e+02	-6.1749	-66.756058	0.000568	5.675886	0.961521	0.000114
1700	1.6905e+02	-6.1545	-66.687427	0.000345	3.446074	0.583781	0.000069
1701	1.6915e+02	-6.1356	-66.550164	0.000689	6.892148	1.167561	0.000138
1702	1.6925e+02	-6.1159	-66.473458	0.000385	3.851494	0.652461	0.000077
1703	1.6935e+02	-6.0959	-66.368493	0.000527	5.270466	0.892841	0.000105
1704	1.6945e+02	-6.0770	-66.243342	0.000628	6.284017	1.064541	0.000126
1705	1.6955e+02	-6.0547	-66.122228	0.000608	6.081307	1.030201	0.000122
1706	1.6965e+02	-6.0361	-66.005151	0.000588	5.878596	0.995861	0.000118
1707	1.6975e+02	-6.0153	-65.948631	0.000284	2.837943	0.480761	0.000057
1708	1.6985e+02	-5.9967	-65.827517	0.000608	6.081307	1.030201	0.000122
1709	1.6995e+02	-5.9758	-65.714477	0.000568	5.675886	0.961521	0.000114
1710	1.7005e+02	-5.9558	-65.625660	0.000446	4.459625	0.755481	0.000089
1711	1.7015e+02	-5.9354	-65.520694	0.000527	5.270466	0.892841	0.000105
1712	1.7024e+02	-5.9160	-65.391506	0.000649	6.486727	1.098881	0.000130
1713	1.7034e+02	-5.8959	-65.266355	0.000628	6.284017	1.064541	0.000126
1714	1.7044e+02	-5.8759	-65.205798	0.000304	3.040653	0.515101	0.000061
1715	1.7054e+02	-5.8559	-65.056424	0.000750	7.500278	1.270582	0.000150
1716	1.7064e+02	-5.8370	-64.951458	0.000527	5.270466	0.892841	0.000105
1717	1.7074e+02	-5.8173	-64.842456	0.000547	5.473176	0.927181	0.000110
1718	1.7084e+02	-5.7968	-64.709230	0.000669	6.689437	1.133221	0.000134
1719	1.7094e+02	-5.7767	-64.672896	0.000182	1.824392	0.309060	0.000037
1720	1.7104e+02	-5.7565	-64.535633	0.000689	6.892148	1.167561	0.000138
1721	1.7114e+02	-5.7361	-64.438742	0.000487	4.865045	0.824161	0.000097
1722	1.7124e+02	-5.7173	-64.297442	0.000709	7.094858	1.201901	0.000142
1723	1.7134e+02	-5.6964	-64.232848	0.000324	3.243364	0.549441	0.000065
1724	1.7144e+02	-5.6767	-64.079437	0.000770	7.702989	1.304922	0.000154
1725	1.7154e+02	-5.6570	-63.990620	0.000446	4.459625	0.755481	0.000089
1726	1.7164e+02	-5.6375	-63.865469	0.000628	6.284017	1.064541	0.000126
1727	1.7174e+02	-5.6172	-63.772615	0.000466	4.662335	0.789821	0.000093
1728	1.7184e+02	-5.5978	-63.655538	0.000588	5.878596	0.995861	0.000118
1729	1.7194e+02	-5.5765	-63.522312	0.000669	6.689437	1.133221	0.000134
1730	1.7204e+02	-5.5566	-63.429458	0.000466	4.662335	0.789821	0.000093
1731	1.7213e+02	-5.5374	-63.300270	0.000649	6.486727	1.098881	0.000130
1732	1.7223e+02	-5.5162	-63.207416	0.000466	4.662335	0.789821	0.000093
1733	1.7233e+02	-5.4976	-63.086302	0.000608	6.081307	1.030201	0.000122
1734	1.7243e+02	-5.4781	-62.977299	0.000547	5.473176	0.927181	0.000110
1735	1.7253e+02	-5.4562	-62.852148	0.000628	6.284017	1.064541	0.000126
1736	1.7263e+02	-5.4385	-62.743145	0.000547	5.473176	0.927181	0.000110
1737	1.7273e+02	-5.4187	-62.642217	0.000507	5.067756	0.858501	0.000101
1738	1.7283e+02	-5.3969	-62.553400	0.000446	4.459625	0.755481	0.000089
1739	1.7293e+02	-5.3773	-62.412100	0.000709	7.094858	1.201901	0.000142
1740	1.7303e+02	-5.3581	-62.315209	0.000487	4.865045	0.824161	0.000097
1741	1.7313e+02	-5.3384	-62.218317	0.000487	4.865045	0.824161	0.000097
1742	1.7323e+02	-5.3188	-62.020498	0.000993	9.932801	1.682662	0.000199
1743	1.7333e+02	-5.2989	-61.951866	0.000345	3.446074	0.583781	0.000069
1744	1.7343e+02	-5.2779	-61.867087	0.000426	4.256915	0.721141	0.000085
1745	1.7353e+02	-5.2583	-61.737898	0.000649	6.486727	1.098881	0.000130
1746	1.7363e+02	-5.2390	-61.592561	0.000730	7.297568	1.236241	0.000146
1747	1.7373e+02	-5.2182	-61.503744	0.000446	4.459625	0.755481	0.000089
1748	1.7383e+02	-5.1990	-61.370519	0.000669	6.689437	1.133221	0.000134
1749	1.7393e+02	-5.1791	-61.269591	0.000507	5.067756	0.858501	0.000101
1750	1.7403e+02	-5.1584	-61.176736	0.000466	4.662335	0.789821	0.000093
1751	1.7413e+02	-5.1387	-61.035437	0.000709	7.094858	1.201901	0.000142
1752	1.7422e+02	-5.1196	-60.910285	0.000628	6.284017	1.064541	0.000126
1753	1.7432e+02	-5.0995	-60.801283	0.000547	5.473176	0.927181	0.000110
1754	1.7442e+02	-5.0787	-60.696317	0.000527	5.270466	0.892841	0.000105
1755	1.7452e+02	-5.0594	-60.526758	0.000851	8.513829	1.442282	0.000170
1756	1.7462e+02	-5.0383	-60.450052	0.000385	3.851494	0.652461	0.000077
1757	1.7472e+02	-5.0200	-60.308752	0.000709	7.094858	1.201901	0.000142
1758	1.7482e+02	-4.9999	-60.175527	0.000669	6.689437	1.133221	0.000134
1759	1.7492e+02	-4.9799	-60.042301	0.000669	6.689437	1.133221	0.000134
1760	1.7502e+02	-4.9600	-59.997893	0.000223	2.229812	0.377740	0.000045
1761	1.7512e+02	-4.9409	-59.864667	0.000669	6.689437	1.133221	0.000134
1762	1.7522e+02	-4.9196	-59.775850	0.000446	4.459625	0.755481	0.000089
1763	1.7532e+02	-4.8999	-59.626476	0.000750	7.500278	1.270582	0.000150
1764	1.7542e+02	-4.8813	-59.541696	0.000426	4.256915	0.721141	0.000085
1765	1.7552e+02	-4.8605	-59.396360	0.000730	7.297568	1.236241	0.000146
1766	1.7562e+02	-4.8412	-59.311580	0.000426	4.256915	0.721141	0.000085
1767	1.7572e+02	-4.8208	-59.170280	0.000709	7.094858	1.201901	0.000142
1768	1.7582e+02	-4.8010	-59.057240	0.000568	5.675886	0.961521	0.000114
1769	1.7592e+02	-4.7809	-58.936126	0.000608	6.081307	1.030201	0.000122
1770	1.7602e+02	-4.7604	-58.835198	0.000507	5.067756	0.858501	0.000101
1771	1.7612e+02	-4.7408	-58.685824	0.000750	7.500278	1.270582	0.000150
1772	1.7621e+02	-4.7205	-58.597007	0.000446	4.459625	0.755481	0.000089
1773	1.7631e+02	-4.7008	-58.443596	0.000770	7.702989	1.304922	0.000154
1774	1.7641e+02	-4.6804	-58.358816	0.000426	4.256915	0.721141	0.000085
1775	1.7651e+02	-4.6603	-58.233664	0.000628	6.284017	1.064541	0.000126
1776	1.7661e+02	-4.6405	-58.124662	0.000547	5.473176	0.927181	0.000110
1777	1.7671e+02	-4.6209	-58.051993	0.000365	3.648784	0.618121	0.000073
1778	1.7681e+02	-4.6017	-57.898582	0.000770	7.702989	1.304922	0.000154
1779	1.7691e+02	-4.5804	-57.769394	0.000649	6.486727	1.098881	0.000130
1780	1.7701e+02	-4.5609	-57.652317	0.000588	5.878596	0.995861	0.000118
1781	1.7711e+02	-4.5415	-57.498906	0.000770	7.702989	1.304922	0.000154
1782	1.7721e+02	-4.5216	-57.426237	0.000365	3.648784	0.618121	0.000073
1783	1.7731e+02	-4.4955	-57.284938	0.000709	7.094858	1.201901	0.000142
1784	1.7741e+02	-4.4814	-57.139601	0.000730	7.297568	1.236241	0.000146
1785	1.7751e+02	-4.4613	-57.010412	0.000649	6.486727	1.098881	0.000130
1786	1.7761e+02	-4.4423	-56.933707	0.000385	3.851494	0.652461	0.000077
1787	1.7771e+02	-4.4223	-56.812593	0.000608	6.081307	1.030201	0.000122
1788	1.7781e+02	-4.4019	-56.671293	0.000709	7.094858	1.201901	0.000142
1789	1.7791e+02	-4.3820	-56.521919	0.000750	7.500278	1.270582	0.000150
1790	1.7801e+02	-4.3613	-56.437139	0.000426	4.256915	0.721141	0.000085
1791	1.7810e+02	-4.3423	-56.316025	0.000608	6.081307	1.030201	0.000122
1792	1.7820e+02	-4.3227	-56.186837	0.000649	6.486727	1.098881	0.000130
1793	1.7830e+02	-4.3016	-56.045537	0.000709	7.094858	1.201901	0.000142
1794	1.7840e+02	-4.2822	-55.916349	0.000649	6.486727	1.098881	0.000130
1795	1.7850e+02	-4.2622	-55.807346	0.000547	5.473176	0.927181	0.000110
1796	1.7860e+02	-4.2422	-55.694306	0.000568	5.675886	0.961521	0.000114
1797	1.7870e+02	-4.2207	-55.565118	0.000649	6.486727	1.098881	0.000130
1798	1.7880e+02	-4.2021	-55.423818	0.000709	7.094858	1.201901	0.000142
1799	1.7890e+02	-4.1824	-55.294630	0.000649	6.486727	1.098881	0.000130
1800	1.7900e+02	-4.1623	-55.153330	0.000709	7.094858	1.201901	0.000142
1801	1.7910e+02	-4.1423	-55.036253	0.000588	5.878596	0.995861	0.000118
1802	1.7920e+02	-4.1231	-54.927250	0.000547	5.473176	0.927181	0.000110
1803	1.7930e+02	-4.1019	-54.806136	0.000608	6.081307	1.030201	0.000122
1804	1.7940e+02	-4.0826	-54.693096	0.000568	5.675886	0.961521	0.000114
1805	1.7950e+02	-4.0631	-54.531611	0.000811	8.108409	1.373602	0.000162
1806	1.7960e+02	-4.0429	-54.406460	0.000628	6.284017	1.064541	0.000126
1807	1.7970e+02	-4.0235	-54.269197	0.000689	6.892148	1.167561	0.000138
1808	1.7980e+02	-4.0038	-54.160194	0.000547	5.473176	0.927181	0.000110
1809	1.7990e+02	-3.9826	-54.067340	0.000466	4.662335	0.789821	0.000093
1810	1.8000e+02	-3.9632	-53.873558	0.000973	9.730091	1.648322	0.000195
1811	1.8009e+02	-3.9427	-53.732258	0.000709	7.094858	1.201901	0.000142
1812	1.8019e+02	-3.9246	-53.623255	0.000547	5.473176	0.927181	0.000110
1813	1.8029e+02	-3.9038	-53.514253	0.000547	5.473176	0.927181	0.000110
1814	1.8039e+02	-3.8829	-53.348730	0.000831	8.311119	1.407942	0.000166
1815	1.8049e+02	-3.8642	-53.235690	0.000568	5.675886	0.961521	0.000114
1816	1.8059e+02	-3.8441	-53.114576	0.000608	6.081307	1.030201	0.000122
1817	1.8069e+02	-3.8239	-52.981351	0.000669	6.689437	1.133221	0.000134
1818	1.8079e+02	-3.8045	-52.884460	0.000487	4.865045	0.824161	0.000097
1819	1.8089e+02	-3.7843	-52.783531	0.000507	5.067756	0.858501	0.000101
1820	1.8099e+02	-3.7643	-52.609934	0.000872	8.716540	1.476622	0.000174
1821	1.8109e+02	-3.7437	-52.488820	0.000608	6.081307	1.030201	0.000122
1822	1.8119e+02	-3.7238	-52.371743	0.000588	5.878596	0.995861	0.000118
1823	1.8129e+02	-3.7037	-52.218332	0.000770	7.702989	1.304922	0.000154
1824	1.8139e+02	-3.6848	-52.093181	0.000628	6.284017	1.064541	0.000126
1825	1.8149e+02	-3.6656	-51.935733	0.000791	7.905699	1.339262	0.000158
1826	1.8159e+02	-3.6449	-51.863064	0.000365	3.648784	0.618121	0.000073
1827	1.8169e+02	-3.6254	-51.701579	0.000811	8.108409	1.373602	0.000162
1828	1.8179e+02	-3.6058	-51.556242	0.000730	7.297568	1.236241	0.000146
1829	1.8189e+02	-3.5855	-51.427054	0.000649	6.486727	1.098881	0.000130
1830	1.8199e+02	-3.5649	-51.301902	0.000628	6.284017	1.064541	0.000126
1831	1.8209e+02	-3.5453	-51.180788	0.000608	6.081307	1.030201	0.000122
1832	1.8218e+02	-3.5252	-51.055637	0.000628	6.284017	1.064541	0.000126
1833	1.8228e+02	-3.5045	-50.910300	0.000730	7.297568	1.236241	0.000146
1834	1.8238e+02	-3.4857	-50.756889	0.000770	7.702989	1.304922	0.000154
1835	1.8248e+02	-3.4653	-50.659998	0.000487	4.865045	0.824161	0.000097
1836	1.8258e+02	-3.4450	-50.478327	0.000912	9.121960	1.545302	0.000183
1837	1.8268e+02	-3.4264	-50.381435	0.000487	4.865045	0.824161	0.000097
1838	1.8278e+02	-3.4061	-50.248210	0.000669	6.689437	1.133221	0.000134
1839	1.8288e+02	-3.3865	-50.102873	0.000730	7.297568	1.236241	0.000146
1840	1.8298e+02	-3.3659	-49.969648	0.000669	6.689437	1.133221	0.000134
1841	1.8308e+02	-3.3459	-49.816236	0.000770	7.702989	1.304922	0.000154
1842	1.8318e+02	-3.3252	-49.662825	0.000770	7.702989	1.304922	0.000154
1843	1.8328e+02	-3.3060	-49.529600	0.000669	6.689437	1.133221	0.000134
1844	1.8338e+02	-3.2864	-49.408486	0.000608	6.081307	1.030201	0.000122
1845	1.8348e+02	-3.2661	-49.283335	0.000628	6.284017	1.064541	0.000126
1846	1.8358e+02	-3.2468	-49.146072	0.000689	6.892148	1.167561	0.000138
1847	1.8368e+02	-3.2271	-49.012846	0.000669	6.689437	1.133221	0.000134
1848	1.8378e+02	-3.2059	-48.839250	0.000872	8.716540	1.476622	0.000174
1849	1.8388e+02	-3.1853	-48.697950	0.000709	7.094858	1.201901	0.000142
1850	1.8398e+02	-3.1665	-48.544539	0.000770	7.702989	1.304922	0.000154
1851	1.8407e+02	-3.1469	-48.403239	0.000709	7.094858	1.201901	0.000142
1852	1.8417e+02	-3.1272	-48.298273	0.000527	5.270466	0.892841	0.000105
1853	1.8427e+02	-3.1069	-48.128714	0.000851	8.513829	1.442282	0.000170
1854	1.8437e+02	-3.0875	-48.023748	0.000527	5.270466	0.892841	0.000105
1855	1.8447e+02	-3.0676	-47.854188	0.000851	8.513829	1.442282	0.000170
1856	1.8457e+02	-3.0479	-47.749223	0.000527	5.270466	0.892841	0.000105
1857	1.8467e+02	-3.0270	-47.575626	0.000872	8.716540	1.476622	0.000174
1858	1.8477e+02	-3.0069	-47.397992	0.000892	8.919250	1.510962	0.000179
1859	1.8487e+02	-2.9874	-47.293027	0.000527	5.270466	0.892841	0.000105
1860	1.8497e+02	-2.9664	-47.151727	0.000709	7.094858	1.201901	0.000142
1861	1.8507e+02	-2.9472	-46.982167	0.000851	8.513829	1.442282	0.000170
1862	1.8517e+02	-2.9282	-46.861053	0.000608	6.081307	1.030201	0.000122
1863	1.8527e+02	-2.9074	-46.743976	0.000588	5.878596	0.995861	0.000118
1864	1.8537e+02	-2.8883	-46.582491	0.000811	8.108409	1.373602	0.000162
1865	1.8547e+02	-2.8670	-46.449265	0.000669	6.689437	1.133221	0.000134
1866	1.8557e+02	-2.8475	-46.307965	0.000709	7.094858	1.201901	0.000142
1867	1.8567e+02	-2.8280	-46.138406	0.000851	8.513829	1.442282	0.000170
1868	1.8577e+02	-2.8085	-46.029403	0.000547	5.473176	0.927181	0.000110
1869	1.8587e+02	-2.7879	-45.896178	0.000669	6.689437	1.133221	0.000134
1870	1.8597e+02	-2.7690	-45.706432	0.000953	9.527381	1.613982	0.000191
1871	1.8606e+02	-2.7483	-45.585318	0.000608	6.081307	1.030201	0.000122
1872	1.8616e+02	-2.7295	-45.456130	0.000649	6.486727	1.098881	0.000130
1873	1.8626e+02	-2.7081	-45.302719	0.000770	7.702989	1.304922	0.000154
1874	1.8636e+02	-2.6877	-45.137196	0.000831	8.311119	1.407942	0.000166
1875	1.8646e+02	-2.6684	-45.028193	0.000547	5.473176	0.927181	0.000110
1876	1.8656e+02	-2.6488	-44.911117	0.000588	5.878596	0.995861	0.000118
1877	1.8666e+02	-2.6286	-44.729445	0.000912	9.121960	1.545302	0.000183
1878	1.8676e+02	-2.6082	-44.600257	0.000649	6.486727	1.098881	0.000130
1879	1.8686e+02	-2.5891	-44.418586	0.000912	9.121960	1.545302	0.000183
1880	1.8696e+02	-2.5694	-44.281323	0.000689	6.892148	1.167561	0.000138
1881	1.8706e+02	-2.5486	-44.152135	0.000649	6.486727	1.098881	0.000130
1882	1.8716e+02	-2.5288	-43.974501	0.000892	8.919250	1.510962	0.000179
1883	1.8726e+02	-2.5098	-43.853387	0.000608	6.081307	1.030201	0.000122
1884	1.8736e+02	-2.4900	-43.691902	0.000811	8.108409	1.373602	0.000162
1885	1.8746e+02	-2.4698	-43.570787	0.000608	6.081307	1.030201	0.000122
1886	1.8756e+02	-2.4500	-43.413339	0.000791	7.905699	1.339262	0.000158
1887	1.8766e+02	-2.4311	-43.284151	0.000649	6.486727	1.098881	0.000130
1888	1.8776e+02	-2.4105	-43.163037	0.000608	6.081307	1.030201	0.000122
1889	1.8786e+02	-2.3897	-42.989440	0.000872	8.716540	1.476622	0.000174
1890	1.8796e+02	-2.3698	-42.864289	0.000628	6.284017	1.064541	0.000126
1891	1.8806e+02	-2.3508	-42.698766	0.000831	8.311119	1.407942	0.000166
1892	1.8815e+02	-2.3306	-42.581689	0.000588	5.878596	0.995861	0.000118
1893	1.8825e+02	-2.3102	-42.412129	0.000851	8.513829	1.442282	0.000170
1894	1.8835e+02	-2.2910	-42.210273	0.001014	10.135511	1.717002	0.000203
1895	1.8845e+02	-2.2713	-42.121456	0.000446	4.459625	0.755481	0.000089
1896	1.8855e+02	-2.2502	-41.919599	0.001014	10.135511	1.717002	0.000203
1897	1.8865e+02	-2.2299	-41.774262	0.000730	7.297568	1.236241	0.000146
1898	1.8875e+02	-2.2112	-41.653148	0.000608	6.081307	1.030201	0.000122
1899	1.8885e+02	-2.1906	-41.519922	0.000669	6.689437	1.133221	0.000134
1900	1.8895e+02	-2.1707	-41.350363	0.000851	8.513829	1.442282	0.000170
1901	1.8905e+02	-2.1512	-41.192915	0.000791	7.905699	1.339262	0.000158
1902	1.8915e+02	-2.1310	-41.079875	0.000568	5.675886	0.961521	0.000114
1903	1.8925e+02	-2.1106	-40.882055	0.000993	9.932801	1.682662	0.000199
1904	1.8935e+02	-2.0917	-40.760941	0.000608	6.081307	1.030201	0.000122
1905	1.8945e+02	-2.0712	-40.607530	0.000770	7.702989	1.304922	0.000154
1906	1.8955e+02	-2.0523	-40.482379	0.000628	6.284017	1.064541	0.000126
1907	1.8965e+02	-2.0312	-40.292633	0.000953	9.527381	1.613982	0.000191
1908	1.8975e+02	-2.0118	-40.123074	0.000851	8.513829	1.442282	0.000170
1909	1.8985e+02	-1.9912	-40.018108	0.000527	5.270466	0.892841	0.000105
1910	1.8995e+02	-1.9716	-39.812214	0.001034	10.338221	1.751342	0.000207
1911	1.9004e+02	-1.9511	-39.727434	0.000426	4.256915	0.721141	0.000085
1912	1.9014e+02	-1.9312	-39.533652	0.000973	9.730091	1.648322	0.000195
1913	1.9024e+02	-1.9116	-39.360055	0.000872	8.716540	1.476622	0.000174
1914	1.9034e+02	-1.8922	-39.214718	0.000730	7.297568	1.236241	0.000146
1915	1.9044e+02	-1.8732	-39.093604	0.000608	6.081307	1.030201	0.000122
1916	1.9054e+02	-1.8520	-38.940193	0.000770	7.702989	1.304922	0.000154
1917	1.9064e+02	-1.8316	-38.746410	0.000973	9.730091	1.648322	0.000195
1918	1.9074e+02	-1.8121	-38.597036	0.000750	7.500278	1.270582	0.000150
1919	1.9084e+02	-1.7918	-38.483996	0.000568	5.675886	0.961521	0.000114
1920	1.9094e+02	-1.7719	-38.294251	0.000953	9.527381	1.613982	0.000191
1921	1.9104e+02	-1.7521	-38.128728	0.000831	8.311119	1.407942	0.000166
1922	1.9114e+02	-1.7317	-38.027800	0.000507	5.067756	0.858501	0.000101
1923	1.9124e+02	-1.7123	-37.874389	0.000770	7.702989	1.304922	0.000154
1924	1.9134e+02	-1.6927	-37.704829	0.000851	8.513829	1.442282	0.000170
1925	1.9144e+02	-1.6724	-37.547381	0.000791	7.905699	1.339262	0.000158
1926	1.9154e+02	-1.6529	-37.369747	0.000892	8.919250	1.510962	0.000179
1927	1.9164e+02	-1.6329	-37.232484	0.000689	6.892148	1.167561	0.000138
1928	1.9174e+02	-1.6129	-37.103296	0.000649	6.486727	1.098881	0.000130
1929	1.9184e+02	-1.5935	-36.970071	0.000669	6.689437	1.133221	0.000134
1930	1.9194e+02	-1.5738	-36.792437	0.000892	8.919250	1.510962	0.000179
1931	1.9203e+02	-1.5536	-36.643063	0.000750	7.500278	1.270582	0.000150
1932	1.9213e+02	-1.5327	-36.485614	0.000791	7.905699	1.339262	0.000158
1933	1.9223e+02	-1.5137	-36.376612	0.000547	5.473176	0.927181	0.000110
1934	1.9233e+02	-1.4935	-36.211089	0.000831	8.311119	1.407942	0.000166
1935	1.9243e+02	-1.4734	-36.009232	0.001014	10.135511	1.717002	0.000203
1936	1.9253e+02	-1.4539	-35.871970	0.000689	6.892148	1.167561	0.000138
1937	1.9263e+02	-1.4334	-35.698373	0.000872	8.716540	1.476622	0.000174
1938	1.9273e+02	-1.4132	-35.544962	0.000770	7.702989	1.304922	0.000154
1939	1.9283e+02	-1.3931	-35.399625	0.000730	7.297568	1.236241	0.000146
1940	1.9293e+02	-1.3744	-35.242176	0.000791	7.905699	1.339262	0.000158
1941	1.9303e+02	-1.3538	-35.108951	0.000669	6.689437	1.133221	0.000134
1942	1.9313e+02	-1.3343	-34.967651	0.000709	7.094858	1.201901	0.000142
1943	1.9323e+02	-1.3137	-34.798091	0.000851	8.513829	1.442282	0.000170
1944	1.9333e+02	-1.2944	-34.652755	0.000730	7.297568	1.236241	0.000146
1945	1.9343e+02	-1.2746	-34.511455	0.000709	7.094858	1.201901	0.000142
1946	1.9353e+02	-1.2550	-34.293450	0.001095	10.946352	1.854362	0.000219
1947	1.9363e+02	-1.2347	-34.152150	0.000709	7.094858	1.201901	0.000142
1948	1.9373e+02	-1.2144	-34.051221	0.000507	5.067756	0.858501	0.000101
1949	1.9383e+02	-1.1951	-33.893773	0.000791	7.905699	1.339262	0.000158
1950	1.9393e+02	-1.1744	-33.699991	0.000973	9.730091	1.648322	0.000195
1951	1.9403e+02	-1.1548	-33.542542	0.000791	7.905699	1.339262	0.000158
1952	1.9412e+02	-1.1353	-33.372983	0.000851	8.513829	1.442282	0.000170
1953	1.9422e+02	-1.1149	-33.276091	0.000487	4.865045	0.824161	0.000097
1954	1.9432e+02	-1.0946	-33.054049	0.001115	11.149062	1.888702	0.000223
1955	1.9442e+02	-1.0745	-32.912749	0.000709	7.094858	1.201901	0.000142
1956	1.9452e+02	-1.0549	-32.759338	0.000770	7.702989	1.304922	0.000154
1957	1.9462e+02	-1.0354	-32.585741	0.000872	8.716540	1.476622	0.000174
1958	1.9472e+02	-1.0162	-32.383884	0.001014	10.135511	1.717002	0.000203
1959	1.9482e+02	-0.9955	-32.295067	0.000446	4.459625	0.755481	0.000089
1960	1.9492e+02	-0.9753	-32.125508	0.000851	8.513829	1.442282	0.000170
1961	1.9502e+02	-0.9552	-31.919614	0.001034	10.338221	1.751342	0.000207
1962	1.9512e+02	-0.9362	-31.830797	0.000446	4.459625	0.755481	0.000089
1963	1.9522e+02	-0.9164	-31.653163	0.000892	8.919250	1.510962	0.000179
1964	1.9532e+02	-0.8952	-31.499752	0.000770	7.702989	1.304922	0.000154
1965	1.9542e+02	-0.8755	-31.330192	0.000851	8.513829	1.442282	0.000170
1966	1.9552e+02	-0.8566	-31.140447	0.000953	9.527381	1.613982	0.000191
1967	1.9562e+02	-0.8363	-31.019332	0.000608	6.081307	1.030201	0.000122
1968	1.9572e+02	-0.8160	-30.833624	0.000932	9.324670	1.579642	0.000187
1969	1.9582e+02	-0.7957	-30.720584	0.000568	5.675886	0.961521	0.000114
1970	1.9592e+02	-0.7766	-30.530839	0.000953	9.527381	1.613982	0.000191
1971	1.9601e+02	-0.7564	-30.397614	0.000669	6.689437	1.133221	0.000134
1972	1.9611e+02	-0.7355	-30.183645	0.001074	10.743642	1.820022	0.000215
1973	1.9621e+02	-0.7156	-30.038308	0.000730	7.297568	1.236241	0.000146
1974	1.9631e+02	-0.6968	-29.901046	0.000689	6.892148	1.167561	0.000138
1975	1.9641e+02	-0.6772	-29.731486	0.000851	8.513829	1.442282	0.000170
1976	1.9651e+02	-0.6570	-29.606335	0.000628	6.284017	1.064541	0.000126
1977	1.9661e+02	-0.6368	-29.416590	0.000953	9.527381	1.613982	0.000191
1978	1.9671e+02	-0.6172	-29.230881	0.000932	9.324670	1.579642	0.000187
1979	1.9681e+02	-0.5969	-29.109767	0.000608	6.081307	1.030201	0.000122
1980	1.9691e+02	-0.5770	-28.911948	0.000993	9.932801	1.682662	0.000199
1981	1.9701e+02	-0.5576	-28.762574	0.000750	7.500278	1.270582	0.000150
1982	1.9711e+02	-0.5383	-28.645497	0.000588	5.878596	0.995861	0.000118
1983	1.9721e+02	-0.5173	-28.391157	0.001277	12.770744	2.163423	0.000256
1984	1.9731e+02	-0.4977	-28.290229	0.000507	5.067756	0.858501	0.000101
1985	1.9741e+02	-0.4762	-28.157003	0.000669	6.689437	1.133221	0.000134
1986	1.9751e+02	-0.4572	-27.963221	0.000973	9.730091	1.648322	0.000195
1987	1.9761e+02	-0.4369	-27.805772	0.000791	7.905699	1.339262	0.000158
1988	1.9771e+02	-0.4169	-27.636213	0.000851	8.513829	1.442282	0.000170
1989	1.9781e+02	-0.3988	-27.511061	0.000628	6.284017	1.064541	0.000126
1990	1.9791e+02	-0.3773	-27.329390	0.000912	9.121960	1.545302	0.000183
1991	1.9800e+02	-0.3572	-27.159831	0.000851	8.513829	1.442282	0.000170
1992	1.9810e+02	-0.3374	-26.998345	0.000811	8.108409	1.373602	0.000162
1993	1.9820e+02	-0.3181	-26.816674	0.000912	9.121960	1.545302	0.000183
1994	1.9830e+02	-0.2988	-26.663263	0.000770	7.702989	1.304922	0.000154
1995	1.9840e+02	-0.2782	-26.517926	0.000730	7.297568	1.236241	0.000146
1996	1.9850e+02	-0.2577	-26.344329	0.000872	8.716540	1.476622	0.000174
1997	1.9860e+02	-0.2383	-26.190918	0.000770	7.702989	1.304922	0.000154
1998	1.9870e+02	-0.2183	-26.049618	0.000709	7.094858	1.201901	0.000142
1999	1.9880e+02	-0.1984	-25.871984	0.000892	8.919250	1.510962	0.000179
2000	1.9890e+02	-0.1790	-25.738759	0.000669	6.689437	1.133221	0.000134
2001	1.9900e+02	-0.1581	-25.553051	0.000932	9.324670	1.579642	0.000187
2002	1.9910e+02	-0.1383	-25.367342	0.000932	9.324670	1.579642	0.000187
2003	1.9920e+02	-0.1183	-25.222006	0.000730	7.297568	1.236241	0.000146
2004	1.9930e+02	-0.0988	-25.076669	0.000730	7.297568	1.236241	0.000146
2005	1.9940e+02	-0.0783	-24.903072	0.000872	8.716540	1.476622	0.000174
2006	1.9950e+02	-0.0592	-24.765809	0.000689	6.892148	1.167561	0.000138
2007	1.9960e+02	-0.0395	-24.580101	0.000932	9.324670	1.579642	0.000187
2008	1.9970e+02	-0.0192	-24.374207	0.001034	10.338221	1.751342	0.000207
2009	1.9980e+02	-0.0011	-24.232907	0.001034	10.338221	1.751342	0.000142

Smooth data before PMax, +/-Pr and +/-Vc Calc.

PMax (uC/cm2):	6.74e+01
Pr (uC/cm2):	7.78e+00
-Pr (uC/cm2):	-3.52e+01
PLoss (uC/cm2):	-3.52e+01
-Vc:	-9.79e-01
C (Max-Eff) (nF):	6.74e-01
K (Eff):	1.14e+03
Vert. (+/-Pr) Shift (uC/cm2):	-1.37e+01
Offset (uC/cm2):	-1.09e+01

A (Loop Area - uC/cm2·Volts):	-1.00e-01



Hysteresis Version: 5.48.1 - Radiant Technologies, Inc., 1999 - 9/12/24

