»»»»»»»»»»»»»»»»»»»»»»»»»»»»»»»»»»»» Hysteresis ««««««««««««««««««««««««««««««««««««
»»»  Executed Version:	5.48.1
»»»  Vision Version:	5.48.4 (R)
»»»  Vision Compiled:	9/18/24
»»»  Driver Version:	5.47.0
»»»  Windows Version:	Windows 8 or 8.1
»»»  Processor Information:	x86 (AMD or Intel) - 32 Processors
»»»  Tester Name:	PMF21124-494 (100V)
»»»  Tester S/N:	PMF21124-494
»»»  Internal Amp Type:	100V RevK 270k
»»»  Internal Amp S/N:	iAB2-596/K     
»»»  Execution Count:	1
»»»»»»»»»»»»»»»»»»»»»»»»»»»»»»»»»»»»»»»»»»««««««««««««««««««««««««««««««««««««««««««

Stored:	7/8/2025 - 17:50:42
Configured:	07/08/25 02:50:47 PM
Executed:	07/08/25 05:50:10 PM

»»»»»»»»»»»»»»»»»»»»»»»»»»»»»»»»»»» Sample Info ««««««««««««««««««««««««««««««««««««
Sample Name:	
Lot Name:	
Wafer Name:	
Die Row/Column:	0/0
Capacitor Number:	0
Sample Area (cm2):	1.00e-04
Sample Thickness (microns):	1.50e-01

Amplifier:	Internal

»»»»»»»»»»»»»»»»»»»»»»»»»»»»»»»»»»» Tester Info «««««««««««««««««««««««««««««««««««
Tester Name:	PMF21124-494 (100V)
Tester Serial Number:	PMF21124-494
Return Signal Amp. Level:	0.19 [Index: 3]

»»»»»»»»»»»»»»»»»»»»»»»»»»»»»»»» Hysteresis Info ««««««««««««««««««««««««««««««««««
Task Name:	Hyst-724
Volts:	10.00
Field:	666.67 (kV/cm)
DCBias:	0.00
DCField:	0.00 (kV/cm)
Hysteresis Period (ms):	2.00e+02
Preset:	Enabled
Preset Delay (ms):	1.00e+03
Profile:	Standard Bipolar

»»»»»»»»»»»»»»»»»»»»»»»»»»»»»»»»»»»»»» Data «««««««««««««««««««««««««««««««««««««««
Points:	2009

Valid Data

Point	Time (ms)	Drive Voltage	Measured Polarization (uC/cm2)	Capacitance (uF)	Normalized Capacitance (uF/cm2)	Dielectric Constant	Instantaneous Current (mA)
   1	0.0000e+00	-0.0002	17.406111	0.001014	10.135221	1.716953	0.000203
   2	9.9500e-02	0.0189	17.607968	0.001014	10.135221	1.716953	0.000203
   3	1.9900e-01	0.0395	17.725044	0.000588	5.878428	0.995833	0.000118
   4	2.9850e-01	0.0590	17.947087	0.001115	11.148743	1.888648	0.000223
   5	3.9800e-01	0.0787	18.068201	0.000608	6.081133	1.030172	0.000122
   6	4.9750e-01	0.0989	18.229686	0.000811	8.108177	1.373562	0.000162
   7	5.9700e-01	0.1186	18.358875	0.000649	6.486542	1.098850	0.000130
   8	6.9650e-01	0.1380	18.520360	0.000811	8.108177	1.373562	0.000162
   9	7.9600e-01	0.1593	18.706068	0.000932	9.324403	1.579597	0.000187
  10	8.9550e-01	0.1793	18.887740	0.000912	9.121699	1.545258	0.000183
  11	9.9500e-01	0.1989	19.020965	0.000669	6.689246	1.133189	0.000134
  12	1.0945e+00	0.2181	19.194562	0.000872	8.716290	1.476580	0.000174
  13	1.1940e+00	0.2384	19.343936	0.000750	7.500064	1.270545	0.000150
  14	1.2935e+00	0.2589	19.505421	0.000811	8.108177	1.373562	0.000162
  15	1.3930e+00	0.2780	19.695167	0.000953	9.527108	1.613936	0.000191
  16	1.4925e+00	0.2979	19.852615	0.000791	7.905473	1.339223	0.000158
  17	1.5920e+00	0.3180	20.018138	0.000831	8.310881	1.407901	0.000166
  18	1.6915e+00	0.3379	20.191734	0.000872	8.716290	1.476580	0.000174
  19	1.7910e+00	0.3577	20.353220	0.000811	8.108177	1.373562	0.000162
  20	1.8905e+00	0.3783	20.506631	0.000770	7.702768	1.304884	0.000154
  21	1.9900e+00	0.3977	20.720599	0.001074	10.743334	1.819970	0.000215
  22	2.0895e+00	0.4173	20.829602	0.000547	5.473019	0.927155	0.000110
  23	2.1890e+00	0.4368	21.023384	0.000973	9.729812	1.648275	0.000195
  24	2.2885e+00	0.4578	21.201018	0.000892	8.918995	1.510919	0.000179
  25	2.3880e+00	0.4774	21.378652	0.000892	8.918995	1.510919	0.000179
  26	2.4875e+00	0.4981	21.523989	0.000730	7.297359	1.236206	0.000146
  27	2.5870e+00	0.5165	21.693549	0.000851	8.513586	1.442240	0.000170
  28	2.6865e+00	0.5377	21.875220	0.000912	9.121699	1.545258	0.000183
  29	2.7860e+00	0.5573	22.044780	0.000851	8.513586	1.442240	0.000170
  30	2.8855e+00	0.5763	22.226451	0.000912	9.121699	1.545258	0.000183
  31	2.9850e+00	0.5966	22.359676	0.000669	6.689246	1.133189	0.000134
  32	3.0845e+00	0.6168	22.561533	0.001014	10.135221	1.716953	0.000203
  33	3.1840e+00	0.6370	22.718981	0.000791	7.905473	1.339223	0.000158
  34	3.2835e+00	0.6557	22.892578	0.000872	8.716290	1.476580	0.000174
  35	3.3830e+00	0.6770	23.066175	0.000872	8.716290	1.476580	0.000174
  36	3.4825e+00	0.6965	23.255920	0.000953	9.527108	1.613936	0.000191
  37	3.5820e+00	0.7166	23.413369	0.000791	7.905473	1.339223	0.000158
  38	3.6815e+00	0.7354	23.586966	0.000872	8.716290	1.476580	0.000174
  39	3.7810e+00	0.7564	23.772674	0.000932	9.324403	1.579597	0.000187
  40	3.8805e+00	0.7767	23.938196	0.000831	8.310881	1.407901	0.000166
  41	3.9800e+00	0.7958	24.123905	0.000932	9.324403	1.579597	0.000187
  42	4.0795e+00	0.8163	24.277316	0.000770	7.702768	1.304884	0.000154
  43	4.1790e+00	0.8354	24.454950	0.000892	8.918995	1.510919	0.000179
  44	4.2785e+00	0.8563	24.632584	0.000892	8.918995	1.510919	0.000179
  45	4.3780e+00	0.8759	24.830403	0.000993	9.932517	1.682614	0.000199
  46	4.4775e+00	0.8952	24.955555	0.000628	6.283837	1.064511	0.000126
  47	4.5770e+00	0.9160	25.157411	0.001014	10.135221	1.716953	0.000203
  48	4.6765e+00	0.9351	25.302748	0.000730	7.297359	1.236206	0.000146
  49	4.7760e+00	0.9561	25.472308	0.000851	8.513586	1.442240	0.000170
  50	4.8755e+00	0.9760	25.710499	0.001196	11.959561	2.026004	0.000239
  51	4.9750e+00	0.9953	25.855836	0.000730	7.297359	1.236206	0.000146
  52	5.0745e+00	1.0152	26.033470	0.000892	8.918995	1.510919	0.000179
  53	5.1740e+00	1.0361	26.194955	0.000811	8.108177	1.373562	0.000162
  54	5.2735e+00	1.0555	26.368552	0.000872	8.716290	1.476580	0.000174
  55	5.3730e+00	1.0749	26.530038	0.000811	8.108177	1.373562	0.000162
  56	5.4725e+00	1.0946	26.756117	0.001135	11.351448	1.922987	0.000227
  57	5.5720e+00	1.1143	26.901454	0.000730	7.297359	1.236206	0.000146
  58	5.6715e+00	1.1353	27.099274	0.000993	9.932517	1.682614	0.000199
  59	5.7710e+00	1.1555	27.272870	0.000872	8.716290	1.476580	0.000174
  60	5.8705e+00	1.1740	27.422245	0.000750	7.500064	1.270545	0.000150
  61	5.9700e+00	1.1945	27.599878	0.000892	8.918995	1.510919	0.000179
  62	6.0695e+00	1.2148	27.777512	0.000892	8.918995	1.510919	0.000179
  63	6.1690e+00	1.2333	27.979369	0.001014	10.135221	1.716953	0.000203
  64	6.2685e+00	1.2546	28.132780	0.000770	7.702768	1.304884	0.000154
  65	6.3680e+00	1.2739	28.318489	0.000932	9.324403	1.579597	0.000187
  66	6.4675e+00	1.2938	28.492085	0.000872	8.716290	1.476580	0.000174
  67	6.5670e+00	1.3128	28.653571	0.000811	8.108177	1.373562	0.000162
  68	6.6665e+00	1.3342	28.851391	0.000993	9.932517	1.682614	0.000199
  69	6.7660e+00	1.3528	29.024987	0.000872	8.716290	1.476580	0.000174
  70	6.8655e+00	1.3734	29.190510	0.000831	8.310881	1.407901	0.000166
  71	6.9650e+00	1.3929	29.347958	0.000791	7.905473	1.339223	0.000158
  72	7.0645e+00	1.4130	29.561926	0.001074	10.743334	1.819970	0.000215
  73	7.1640e+00	1.4328	29.727449	0.000831	8.310881	1.407901	0.000166
  74	7.2635e+00	1.4530	29.905083	0.000892	8.918995	1.510919	0.000179
  75	7.3630e+00	1.4721	30.086754	0.000912	9.121699	1.545258	0.000183
  76	7.4625e+00	1.4925	30.280537	0.000973	9.729812	1.648275	0.000195
  77	7.5620e+00	1.5127	30.482393	0.001014	10.135221	1.716953	0.000203
  78	7.6615e+00	1.5334	30.627730	0.000730	7.297359	1.236206	0.000146
  79	7.7610e+00	1.5536	30.789216	0.000811	8.108177	1.373562	0.000162
  80	7.8605e+00	1.5735	31.011258	0.001115	11.148743	1.888648	0.000223
  81	7.9600e+00	1.5923	31.184855	0.000872	8.716290	1.476580	0.000174
  82	8.0595e+00	1.6125	31.358452	0.000872	8.716290	1.476580	0.000174
  83	8.1590e+00	1.6327	31.536086	0.000892	8.918995	1.510919	0.000179
  84	8.2585e+00	1.6521	31.766203	0.001155	11.554152	1.957326	0.000231
  85	8.3580e+00	1.6720	31.887317	0.000608	6.081133	1.030172	0.000122
  86	8.4575e+00	1.6920	32.125508	0.001196	11.959561	2.026004	0.000239
  87	8.5570e+00	1.7126	32.270845	0.000730	7.297359	1.236206	0.000146
  88	8.6565e+00	1.7321	32.472701	0.001014	10.135221	1.716953	0.000203
  89	8.7560e+00	1.7519	32.646298	0.000872	8.716290	1.476580	0.000174
  90	8.8555e+00	1.7725	32.848155	0.001014	10.135221	1.716953	0.000203
  91	8.9550e+00	1.7916	33.029826	0.000912	9.121699	1.545258	0.000183
  92	9.0545e+00	1.8110	33.207460	0.000892	8.918995	1.510919	0.000179
  93	9.1540e+00	1.8313	33.409317	0.001014	10.135221	1.716953	0.000203
  94	9.2535e+00	1.8523	33.574839	0.000831	8.310881	1.407901	0.000166
  95	9.3530e+00	1.8713	33.748436	0.000872	8.716290	1.476580	0.000174
  96	9.4525e+00	1.8913	33.938182	0.000953	9.527108	1.613936	0.000191
  97	9.5520e+00	1.9118	34.123890	0.000932	9.324403	1.579597	0.000187
  98	9.6515e+00	1.9311	34.305561	0.000912	9.121699	1.545258	0.000183
  99	9.7510e+00	1.9520	34.483195	0.000892	8.918995	1.510919	0.000179
 100	9.8505e+00	1.9715	34.656792	0.000872	8.716290	1.476580	0.000174
 101	9.9500e+00	1.9903	34.850574	0.000973	9.729812	1.648275	0.000195
 102	1.0050e+01	2.0105	35.016097	0.000831	8.310881	1.407901	0.000166
 103	1.0149e+01	2.0316	35.201805	0.000932	9.324403	1.579597	0.000187
 104	1.0248e+01	2.0512	35.383476	0.000912	9.121699	1.545258	0.000183
 105	1.0348e+01	2.0707	35.593407	0.001054	10.540630	1.785631	0.000211
 106	1.0447e+01	2.0910	35.730670	0.000689	6.891950	1.167528	0.000138
 107	1.0547e+01	2.1115	35.928490	0.000993	9.932517	1.682614	0.000199
 108	1.0646e+01	2.1306	36.118235	0.000953	9.527108	1.613936	0.000191
 109	1.0746e+01	2.1513	36.283757	0.000831	8.310881	1.407901	0.000166
 110	1.0845e+01	2.1708	36.485614	0.001014	10.135221	1.716953	0.000203
 111	1.0945e+01	2.1912	36.679397	0.000973	9.729812	1.648275	0.000195
 112	1.1044e+01	2.2099	36.861068	0.000912	9.121699	1.545258	0.000183
 113	1.1144e+01	2.2293	37.022553	0.000811	8.108177	1.373562	0.000162
 114	1.1243e+01	2.2498	37.228447	0.001034	10.337926	1.751292	0.000207
 115	1.1343e+01	2.2699	37.393970	0.000831	8.310881	1.407901	0.000166
 116	1.1443e+01	2.2900	37.563529	0.000851	8.513586	1.442240	0.000170
 117	1.1542e+01	2.3098	37.737126	0.000872	8.716290	1.476580	0.000174
 118	1.1642e+01	2.3296	37.914760	0.000892	8.918995	1.510919	0.000179
 119	1.1741e+01	2.3497	38.152951	0.001196	11.959561	2.026004	0.000239
 120	1.1841e+01	2.3685	38.261954	0.000547	5.473019	0.927155	0.000110
 121	1.1940e+01	2.3901	38.475922	0.001074	10.743334	1.819970	0.000215
 122	1.2040e+01	2.4103	38.665668	0.000953	9.527108	1.613936	0.000191
 123	1.2139e+01	2.4296	38.843302	0.000892	8.918995	1.510919	0.000179
 124	1.2239e+01	2.4490	39.016898	0.000872	8.716290	1.476580	0.000174
 125	1.2338e+01	2.4691	39.206644	0.000953	9.527108	1.613936	0.000191
 126	1.2438e+01	2.4892	39.388315	0.000912	9.121699	1.545258	0.000183
 127	1.2537e+01	2.5096	39.549800	0.000811	8.108177	1.373562	0.000162
 128	1.2636e+01	2.5297	39.751657	0.001014	10.135221	1.716953	0.000203
 129	1.2736e+01	2.5491	39.896994	0.000730	7.297359	1.236206	0.000146
 130	1.2835e+01	2.5694	40.070591	0.000872	8.716290	1.476580	0.000174
 131	1.2935e+01	2.5894	40.215928	0.000730	7.297359	1.236206	0.000146
 132	1.3034e+01	2.6080	40.474304	0.001297	12.973083	2.197700	0.000260
 133	1.3134e+01	2.6278	40.631753	0.000791	7.905473	1.339223	0.000158
 134	1.3233e+01	2.6489	40.764978	0.000669	6.689246	1.133189	0.000134
 135	1.3333e+01	2.6680	40.978946	0.001074	10.743334	1.819970	0.000215
 136	1.3432e+01	2.6881	41.148506	0.000851	8.513586	1.442240	0.000170
 137	1.3532e+01	2.7084	41.346326	0.000993	9.932517	1.682614	0.000199
 138	1.3632e+01	2.7282	41.523960	0.000892	8.918995	1.510919	0.000179
 139	1.3731e+01	2.7474	41.709668	0.000932	9.324403	1.579597	0.000187
 140	1.3831e+01	2.7682	41.903450	0.000973	9.729812	1.648275	0.000195
 141	1.3930e+01	2.7879	42.064936	0.000811	8.108177	1.373562	0.000162
 142	1.4030e+01	2.8077	42.270830	0.001034	10.337926	1.751292	0.000207
 143	1.4129e+01	2.8280	42.444427	0.000872	8.716290	1.476580	0.000174
 144	1.4229e+01	2.8477	42.597838	0.000770	7.702768	1.304884	0.000154
 145	1.4328e+01	2.8684	42.783546	0.000932	9.324403	1.579597	0.000187
 146	1.4428e+01	2.8875	42.961180	0.000892	8.918995	1.510919	0.000179
 147	1.4527e+01	2.9074	43.122665	0.000811	8.108177	1.373562	0.000162
 148	1.4627e+01	2.9275	43.312411	0.000953	9.527108	1.613936	0.000191
 149	1.4726e+01	2.9474	43.522342	0.001054	10.540630	1.785631	0.000211
 150	1.4825e+01	2.9681	43.655567	0.000669	6.689246	1.133189	0.000134
 151	1.4925e+01	2.9871	43.857424	0.001014	10.135221	1.716953	0.000203
 152	1.5024e+01	3.0067	44.043132	0.000932	9.324403	1.579597	0.000187
 153	1.5124e+01	3.0277	44.236915	0.000973	9.729812	1.648275	0.000195
 154	1.5223e+01	3.0460	44.390326	0.000770	7.702768	1.304884	0.000154
 155	1.5323e+01	3.0669	44.567960	0.000892	8.918995	1.510919	0.000179
 156	1.5422e+01	3.0870	44.745594	0.000892	8.918995	1.510919	0.000179
 157	1.5522e+01	3.1069	44.911117	0.000831	8.310881	1.407901	0.000166
 158	1.5621e+01	3.1264	45.096825	0.000932	9.324403	1.579597	0.000187
 159	1.5721e+01	3.1472	45.266384	0.000851	8.513586	1.442240	0.000170
 160	1.5820e+01	3.1668	45.415758	0.000750	7.500064	1.270545	0.000150
 161	1.5920e+01	3.1861	45.617615	0.001014	10.135221	1.716953	0.000203
 162	1.6020e+01	3.2061	45.783138	0.000831	8.310881	1.407901	0.000166
 163	1.6119e+01	3.2253	45.976920	0.000973	9.729812	1.648275	0.000195
 164	1.6218e+01	3.2467	46.130332	0.000770	7.702768	1.304884	0.000154
 165	1.6318e+01	3.2656	46.287780	0.000791	7.905473	1.339223	0.000158
 166	1.6418e+01	3.2862	46.481562	0.000973	9.729812	1.648275	0.000195
 167	1.6517e+01	3.3056	46.699568	0.001095	10.946039	1.854309	0.000219
 168	1.6616e+01	3.3263	46.800496	0.000507	5.067611	0.858476	0.000101
 169	1.6716e+01	3.3462	46.994279	0.000973	9.729812	1.648275	0.000195
 170	1.6816e+01	3.3662	47.196135	0.001014	10.135221	1.716953	0.000203
 171	1.6915e+01	3.3849	47.313212	0.000588	5.878428	0.995833	0.000118
 172	1.7015e+01	3.4064	47.511032	0.000993	9.932517	1.682614	0.000199
 173	1.7114e+01	3.4252	47.660406	0.000750	7.500064	1.270545	0.000150
 174	1.7213e+01	3.4455	47.850151	0.000953	9.527108	1.613936	0.000191
 175	1.7313e+01	3.4653	48.019711	0.000851	8.513586	1.442240	0.000170
 176	1.7413e+01	3.4849	48.173122	0.000770	7.702768	1.304884	0.000154
 177	1.7512e+01	3.5052	48.306348	0.000669	6.689246	1.133189	0.000134
 178	1.7611e+01	3.5250	48.512242	0.001034	10.337926	1.751292	0.000207
 179	1.7711e+01	3.5452	48.681801	0.000851	8.513586	1.442240	0.000170
 180	1.7811e+01	3.5645	48.815027	0.000669	6.689246	1.133189	0.000134
 181	1.7910e+01	3.5854	49.004772	0.000953	9.527108	1.613936	0.000191
 182	1.8009e+01	3.6050	49.206629	0.001014	10.135221	1.716953	0.000203
 183	1.8109e+01	3.6250	49.380226	0.000872	8.716290	1.476580	0.000174
 184	1.8209e+01	3.6443	49.525563	0.000730	7.297359	1.236206	0.000146
 185	1.8308e+01	3.6651	49.727419	0.001014	10.135221	1.716953	0.000203
 186	1.8407e+01	3.6845	49.892942	0.000831	8.310881	1.407901	0.000166
 187	1.8507e+01	3.7045	50.050390	0.000791	7.905473	1.339223	0.000158
 188	1.8607e+01	3.7247	50.215913	0.000831	8.310881	1.407901	0.000166
 189	1.8706e+01	3.7440	50.413733	0.000993	9.932517	1.682614	0.000199
 190	1.8805e+01	3.7644	50.534847	0.000608	6.081133	1.030172	0.000122
 191	1.8905e+01	3.7840	50.680183	0.000730	7.297359	1.236206	0.000146
 192	1.9005e+01	3.8024	50.898189	0.001095	10.946039	1.854309	0.000219
 193	1.9104e+01	3.8241	51.043526	0.000730	7.297359	1.236206	0.000146
 194	1.9203e+01	3.8438	51.225197	0.000912	9.121699	1.545258	0.000183
 195	1.9303e+01	3.8630	51.378608	0.000770	7.702768	1.304884	0.000154
 196	1.9402e+01	3.8836	51.556242	0.000892	8.918995	1.510919	0.000179
 197	1.9502e+01	3.9041	51.725802	0.000851	8.513586	1.442240	0.000170
 198	1.9602e+01	3.9229	51.879213	0.000770	7.702768	1.304884	0.000154
 199	1.9701e+01	3.9437	52.085107	0.001034	10.337926	1.751292	0.000207
 200	1.9800e+01	3.9626	52.214295	0.000649	6.486542	1.098850	0.000130
 201	1.9900e+01	3.9840	52.383855	0.000851	8.513586	1.442240	0.000170
 202	2.0000e+01	4.0031	52.557452	0.000872	8.716290	1.476580	0.000174
 203	2.0099e+01	4.0234	52.718937	0.000811	8.108177	1.373562	0.000162
 204	2.0198e+01	4.0426	52.888497	0.000851	8.513586	1.442240	0.000170
 205	2.0298e+01	4.0622	53.054019	0.000831	8.310881	1.407901	0.000166
 206	2.0398e+01	4.0829	53.235690	0.000912	9.121699	1.545258	0.000183
 207	2.0497e+01	4.1024	53.417362	0.000912	9.121699	1.545258	0.000183
 208	2.0596e+01	4.1221	53.594995	0.000892	8.918995	1.510919	0.000179
 209	2.0696e+01	4.1429	53.752444	0.000791	7.905473	1.339223	0.000158
 210	2.0796e+01	4.1622	53.885669	0.000669	6.689246	1.133189	0.000134
 211	2.0895e+01	4.1807	54.075415	0.000953	9.527108	1.613936	0.000191
 212	2.0994e+01	4.2020	54.261123	0.000932	9.324403	1.579597	0.000187
 213	2.1094e+01	4.2220	54.398386	0.000689	6.891950	1.167528	0.000138
 214	2.1194e+01	4.2418	54.576019	0.000892	8.918995	1.510919	0.000179
 215	2.1293e+01	4.2620	54.717319	0.000709	7.094655	1.201867	0.000142
 216	2.1392e+01	4.2825	54.874768	0.000791	7.905473	1.339223	0.000158
 217	2.1492e+01	4.3024	55.056439	0.000912	9.121699	1.545258	0.000183
 218	2.1591e+01	4.3215	55.225998	0.000851	8.513586	1.442240	0.000170
 219	2.1691e+01	4.3414	55.415744	0.000953	9.527108	1.613936	0.000191
 220	2.1791e+01	4.3616	55.548969	0.000669	6.689246	1.133189	0.000134
 221	2.1890e+01	4.3818	55.690269	0.000709	7.094655	1.201867	0.000142
 222	2.1989e+01	4.4017	55.867903	0.000892	8.918995	1.510919	0.000179
 223	2.2089e+01	4.4219	56.025351	0.000791	7.905473	1.339223	0.000158
 224	2.2189e+01	4.4415	56.207022	0.000912	9.121699	1.545258	0.000183
 225	2.2288e+01	4.4611	56.344285	0.000689	6.891950	1.167528	0.000138
 226	2.2387e+01	4.4808	56.521919	0.000892	8.918995	1.510919	0.000179
 227	2.2487e+01	4.5014	56.703590	0.000912	9.121699	1.545258	0.000183
 228	2.2587e+01	4.5212	56.832778	0.000649	6.486542	1.098850	0.000130
 229	2.2686e+01	4.5406	57.014449	0.000912	9.121699	1.545258	0.000183
 230	2.2785e+01	4.5606	57.167861	0.000770	7.702768	1.304884	0.000154
 231	2.2885e+01	4.5815	57.321272	0.000770	7.702768	1.304884	0.000154
 232	2.2985e+01	4.6008	57.490831	0.000851	8.513586	1.442240	0.000170
 233	2.3084e+01	4.6203	57.664428	0.000872	8.716290	1.476580	0.000174
 234	2.3183e+01	4.6409	57.781505	0.000588	5.878428	0.995833	0.000118
 235	2.3283e+01	4.6607	57.959139	0.000892	8.918995	1.510919	0.000179
 236	2.3383e+01	4.6804	58.092365	0.000669	6.689246	1.133189	0.000134
 237	2.3482e+01	4.7009	58.314407	0.001115	11.148743	1.888648	0.000223
 238	2.3581e+01	4.7213	58.435521	0.000608	6.081133	1.030172	0.000122
 239	2.3681e+01	4.7395	58.621229	0.000932	9.324403	1.579597	0.000187
 240	2.3780e+01	4.7601	58.774641	0.000770	7.702768	1.304884	0.000154
 241	2.3880e+01	4.7800	58.956312	0.000912	9.121699	1.545258	0.000183
 242	2.3980e+01	4.7996	59.105686	0.000750	7.500064	1.270545	0.000150
 243	2.4079e+01	4.8206	59.271208	0.000831	8.310881	1.407901	0.000166
 244	2.4178e+01	4.8386	59.436731	0.000831	8.310881	1.407901	0.000166
 245	2.4278e+01	4.8599	59.578031	0.000709	7.094655	1.201867	0.000142
 246	2.4378e+01	4.8796	59.723368	0.000730	7.297359	1.236206	0.000146
 247	2.4477e+01	4.8995	59.876779	0.000770	7.702768	1.304884	0.000154
 248	2.4576e+01	4.9195	60.046338	0.000851	8.513586	1.442240	0.000170
 249	2.4676e+01	4.9394	60.256269	0.001054	10.540630	1.785631	0.000211
 250	2.4776e+01	4.9589	60.417755	0.000811	8.108177	1.373562	0.000162
 251	2.4875e+01	4.9807	60.583277	0.000831	8.310881	1.407901	0.000166
 252	2.4974e+01	4.9998	60.672094	0.000446	4.459497	0.755459	0.000089
 253	2.5074e+01	5.0195	60.882025	0.001054	10.540630	1.785631	0.000211
 254	2.5174e+01	5.0393	61.031400	0.000750	7.500064	1.270545	0.000150
 255	2.5273e+01	5.0588	61.225182	0.000973	9.729812	1.648275	0.000195
 256	2.5372e+01	5.0777	61.386667	0.000811	8.108177	1.373562	0.000162
 257	2.5472e+01	5.0990	61.515856	0.000649	6.486542	1.098850	0.000130
 258	2.5572e+01	5.1176	61.681378	0.000831	8.310881	1.407901	0.000166
 259	2.5671e+01	5.1376	61.818641	0.000689	6.891950	1.167528	0.000138
 260	2.5770e+01	5.1571	61.980126	0.000811	8.108177	1.373562	0.000162
 261	2.5870e+01	5.1778	62.153723	0.000872	8.716290	1.476580	0.000174
 262	2.5970e+01	5.1977	62.335394	0.000912	9.121699	1.545258	0.000183
 263	2.6069e+01	5.2174	62.472657	0.000689	6.891950	1.167528	0.000138
 264	2.6169e+01	5.2374	62.638180	0.000831	8.310881	1.407901	0.000166
 265	2.6268e+01	5.2586	62.827925	0.000953	9.527108	1.613936	0.000191
 266	2.6367e+01	5.2773	62.936928	0.000547	5.473019	0.927155	0.000110
 267	2.6467e+01	5.2973	63.090339	0.000770	7.702768	1.304884	0.000154
 268	2.6567e+01	5.3190	63.292196	0.001014	10.135221	1.716953	0.000203
 269	2.6666e+01	5.3372	63.393124	0.000507	5.067611	0.858476	0.000101
 270	2.6765e+01	5.3570	63.582869	0.000953	9.527108	1.613936	0.000191
 271	2.6865e+01	5.3779	63.728206	0.000730	7.297359	1.236206	0.000146
 272	2.6965e+01	5.3963	63.901803	0.000872	8.716290	1.476580	0.000174
 273	2.7064e+01	5.4174	64.039066	0.000689	6.891950	1.167528	0.000138
 274	2.7163e+01	5.4372	64.152105	0.000568	5.675724	0.961494	0.000114
 275	2.7263e+01	5.4574	64.370111	0.001095	10.946039	1.854309	0.000219
 276	2.7363e+01	5.4773	64.483151	0.000568	5.675724	0.961494	0.000114
 277	2.7462e+01	5.4974	64.676933	0.000973	9.729812	1.648275	0.000195
 278	2.7561e+01	5.5166	64.814196	0.000689	6.891950	1.167528	0.000138
 279	2.7661e+01	5.5369	64.971644	0.000791	7.905473	1.339223	0.000158
 280	2.7761e+01	5.5576	65.141204	0.000851	8.513586	1.442240	0.000170
 281	2.7860e+01	5.5769	65.322875	0.000912	9.121699	1.545258	0.000183
 282	2.7959e+01	5.5959	65.472249	0.000750	7.500064	1.270545	0.000150
 283	2.8059e+01	5.6165	65.601437	0.000649	6.486542	1.098850	0.000130
 284	2.8159e+01	5.6361	65.738700	0.000689	6.891950	1.167528	0.000138
 285	2.8258e+01	5.6570	65.867888	0.000649	6.486542	1.098850	0.000130
 286	2.8358e+01	5.6760	66.057634	0.000953	9.527108	1.613936	0.000191
 287	2.8457e+01	5.6954	66.211045	0.000770	7.702768	1.304884	0.000154
 288	2.8556e+01	5.7160	66.360419	0.000750	7.500064	1.270545	0.000150
 289	2.8656e+01	5.7358	66.538053	0.000892	8.918995	1.510919	0.000179
 290	2.8756e+01	5.7558	66.679352	0.000709	7.094655	1.201867	0.000142
 291	2.8855e+01	5.7758	66.800466	0.000608	6.081133	1.030172	0.000122
 292	2.8954e+01	5.7952	66.986175	0.000932	9.324403	1.579597	0.000187
 293	2.9054e+01	5.8154	67.127474	0.000709	7.094655	1.201867	0.000142
 294	2.9154e+01	5.8360	67.280886	0.000770	7.702768	1.304884	0.000154
 295	2.9253e+01	5.8559	67.418148	0.000689	6.891950	1.167528	0.000138
 296	2.9352e+01	5.8753	67.551374	0.000669	6.689246	1.133189	0.000134
 297	2.9452e+01	5.8955	67.745156	0.000973	9.729812	1.648275	0.000195
 298	2.9552e+01	5.9155	67.882419	0.000689	6.891950	1.167528	0.000138
 299	2.9651e+01	5.9344	68.027756	0.000730	7.297359	1.236206	0.000146
 300	2.9750e+01	5.9551	68.165018	0.000689	6.891950	1.167528	0.000138
 301	2.9850e+01	5.9746	68.342652	0.000892	8.918995	1.510919	0.000179
 302	2.9950e+01	5.9949	68.459729	0.000588	5.878428	0.995833	0.000118
 303	3.0049e+01	6.0146	68.645438	0.000932	9.324403	1.579597	0.000187
 304	3.0148e+01	6.0352	68.806923	0.000811	8.108177	1.373562	0.000162
 305	3.0248e+01	6.0552	68.940148	0.000669	6.689246	1.133189	0.000134
 306	3.0348e+01	6.0758	69.081448	0.000709	7.094655	1.201867	0.000142
 307	3.0447e+01	6.0942	69.238896	0.000791	7.905473	1.339223	0.000158
 308	3.0547e+01	6.1143	69.408456	0.000851	8.513586	1.442240	0.000170
 309	3.0646e+01	6.1346	69.569942	0.000811	8.108177	1.373562	0.000162
 310	3.0745e+01	6.1555	69.678944	0.000547	5.473019	0.927155	0.000110
 311	3.0845e+01	6.1745	69.828318	0.000750	7.500064	1.270545	0.000150
 312	3.0945e+01	6.1949	69.993841	0.000831	8.310881	1.407901	0.000166
 313	3.1044e+01	6.2148	70.123029	0.000649	6.486542	1.098850	0.000130
 314	3.1143e+01	6.2345	70.296626	0.000872	8.716290	1.476580	0.000174
 315	3.1243e+01	6.2543	70.458111	0.000811	8.108177	1.373562	0.000162
 316	3.1343e+01	6.2737	70.583263	0.000628	6.283837	1.064511	0.000126
 317	3.1442e+01	6.2939	70.736674	0.000770	7.702768	1.304884	0.000154
 318	3.1541e+01	6.3131	70.886048	0.000750	7.500064	1.270545	0.000150
 319	3.1641e+01	6.3331	71.051570	0.000831	8.310881	1.407901	0.000166
 320	3.1741e+01	6.3523	71.148462	0.000486	4.864906	0.824137	0.000097
 321	3.1840e+01	6.3737	71.322059	0.000872	8.716290	1.476580	0.000174
 322	3.1939e+01	6.3935	71.463358	0.000709	7.094655	1.201867	0.000142
 323	3.2039e+01	6.4129	71.632918	0.000851	8.513586	1.442240	0.000170
 324	3.2139e+01	6.4324	71.774218	0.000709	7.094655	1.201867	0.000142
 325	3.2238e+01	6.4526	71.887258	0.000568	5.675724	0.961494	0.000114
 326	3.2337e+01	6.4723	72.052780	0.000831	8.310881	1.407901	0.000166
 327	3.2437e+01	6.4915	72.230414	0.000892	8.918995	1.510919	0.000179
 328	3.2536e+01	6.5124	72.375751	0.000730	7.297359	1.236206	0.000146
 329	3.2636e+01	6.5321	72.480716	0.000527	5.270315	0.892816	0.000105
 330	3.2736e+01	6.5523	72.630090	0.000750	7.500064	1.270545	0.000150
 331	3.2835e+01	6.5720	72.767353	0.000689	6.891950	1.167528	0.000138
 332	3.2934e+01	6.5918	72.904616	0.000689	6.891950	1.167528	0.000138
 333	3.3034e+01	6.6129	73.058027	0.000770	7.702768	1.304884	0.000154
 334	3.3133e+01	6.6318	73.267958	0.001054	10.540630	1.785631	0.000211
 335	3.3233e+01	6.6518	73.372923	0.000527	5.270315	0.892816	0.000105
 336	3.3333e+01	6.6726	73.481926	0.000547	5.473019	0.927155	0.000110
 337	3.3432e+01	6.6912	73.639374	0.000791	7.905473	1.339223	0.000158
 338	3.3532e+01	6.7129	73.752414	0.000568	5.675724	0.961494	0.000114
 339	3.3631e+01	6.7315	73.917937	0.000831	8.310881	1.407901	0.000166
 340	3.3730e+01	6.7516	74.055199	0.000689	6.891950	1.167528	0.000138
 341	3.3830e+01	6.7713	74.176313	0.000608	6.081133	1.030172	0.000122
 342	3.3929e+01	6.7921	74.337799	0.000811	8.108177	1.373562	0.000162
 343	3.4029e+01	6.8116	74.523507	0.000932	9.324403	1.579597	0.000187
 344	3.4129e+01	6.8306	74.612324	0.000446	4.459497	0.755459	0.000089
 345	3.4228e+01	6.8508	74.757661	0.000730	7.297359	1.236206	0.000146
 346	3.4328e+01	6.8713	74.890887	0.000669	6.689246	1.133189	0.000134
 347	3.4427e+01	6.8915	75.068520	0.000892	8.918995	1.510919	0.000179
 348	3.4526e+01	6.9110	75.193672	0.000628	6.283837	1.064511	0.000126
 349	3.4626e+01	6.9308	75.363231	0.000851	8.513586	1.442240	0.000170
 350	3.4725e+01	6.9509	75.508568	0.000730	7.297359	1.236206	0.000146
 351	3.4825e+01	6.9712	75.589311	0.000405	4.054088	0.686781	0.000081
 352	3.4925e+01	6.9906	75.746759	0.000791	7.905473	1.339223	0.000158
 353	3.5024e+01	7.0110	75.900170	0.000770	7.702768	1.304884	0.000154
 354	3.5123e+01	7.0306	76.061656	0.000811	8.108177	1.373562	0.000162
 355	3.5223e+01	7.0509	76.166621	0.000527	5.270315	0.892816	0.000105
 356	3.5322e+01	7.0702	76.324070	0.000791	7.905473	1.339223	0.000158
 357	3.5422e+01	7.0898	76.441147	0.000588	5.878428	0.995833	0.000118
 358	3.5522e+01	7.1103	76.586484	0.000730	7.297359	1.236206	0.000146
 359	3.5621e+01	7.1298	76.735858	0.000750	7.500064	1.270545	0.000150
 360	3.5721e+01	7.1498	76.889269	0.000770	7.702768	1.304884	0.000154
 361	3.5820e+01	7.1696	77.018457	0.000649	6.486542	1.098850	0.000130
 362	3.5919e+01	7.1898	77.151683	0.000669	6.689246	1.133189	0.000134
 363	3.6019e+01	7.2104	77.301057	0.000750	7.500064	1.270545	0.000150
 364	3.6118e+01	7.2289	77.418133	0.000588	5.878428	0.995833	0.000118
 365	3.6218e+01	7.2494	77.563470	0.000730	7.297359	1.236206	0.000146
 366	3.6318e+01	7.2706	77.704770	0.000709	7.094655	1.201867	0.000142
 367	3.6417e+01	7.2903	77.858181	0.000770	7.702768	1.304884	0.000154
 368	3.6517e+01	7.3100	77.999481	0.000709	7.094655	1.201867	0.000142
 369	3.6616e+01	7.3290	78.128669	0.000649	6.486542	1.098850	0.000130
 370	3.6715e+01	7.3492	78.221523	0.000466	4.662202	0.789798	0.000093
 371	3.6815e+01	7.3691	78.411269	0.000953	9.527108	1.613936	0.000191
 372	3.6914e+01	7.3891	78.544494	0.000669	6.689246	1.133189	0.000134
 373	3.7014e+01	7.4092	78.677720	0.000669	6.689246	1.133189	0.000134
 374	3.7114e+01	7.4294	78.851317	0.000872	8.716290	1.476580	0.000174
 375	3.7213e+01	7.4487	78.952245	0.000507	5.067611	0.858476	0.000101
 376	3.7313e+01	7.4682	79.097582	0.000730	7.297359	1.236206	0.000146
 377	3.7412e+01	7.4887	79.190436	0.000466	4.662202	0.789798	0.000093
 378	3.7511e+01	7.5079	79.347884	0.000791	7.905473	1.339223	0.000158
 379	3.7611e+01	7.5284	79.505333	0.000791	7.905473	1.339223	0.000158
 380	3.7711e+01	7.5478	79.622410	0.000588	5.878428	0.995833	0.000118
 381	3.7810e+01	7.5681	79.775821	0.000770	7.702768	1.304884	0.000154
 382	3.7910e+01	7.5880	79.913083	0.000689	6.891950	1.167528	0.000138
 383	3.8009e+01	7.6079	80.058420	0.000730	7.297359	1.236206	0.000146
 384	3.8108e+01	7.6275	80.191646	0.000669	6.689246	1.133189	0.000134
 385	3.8208e+01	7.6481	80.320834	0.000649	6.486542	1.098850	0.000130
 386	3.8307e+01	7.6674	80.462134	0.000709	7.094655	1.201867	0.000142
 387	3.8407e+01	7.6880	80.587285	0.000628	6.283837	1.064511	0.000126
 388	3.8507e+01	7.7070	80.768956	0.000912	9.121699	1.545258	0.000183
 389	3.8606e+01	7.7279	80.849699	0.000405	4.054088	0.686781	0.000081
 390	3.8706e+01	7.7475	80.990999	0.000709	7.094655	1.201867	0.000142
 391	3.8805e+01	7.7686	81.140373	0.000750	7.500064	1.270545	0.000150
 392	3.8904e+01	7.7874	81.261487	0.000608	6.081133	1.030172	0.000122
 393	3.9004e+01	7.8069	81.406824	0.000730	7.297359	1.236206	0.000146
 394	3.9103e+01	7.8275	81.540049	0.000669	6.689246	1.133189	0.000134
 395	3.9203e+01	7.8460	81.685386	0.000730	7.297359	1.236206	0.000146
 396	3.9303e+01	7.8670	81.810537	0.000628	6.283837	1.064511	0.000126
 397	3.9402e+01	7.8869	81.907428	0.000486	4.864906	0.824137	0.000097
 398	3.9502e+01	7.9066	82.097174	0.000953	9.527108	1.613936	0.000191
 399	3.9601e+01	7.9266	82.238474	0.000709	7.094655	1.201867	0.000142
 400	3.9700e+01	7.9472	82.355550	0.000588	5.878428	0.995833	0.000118
 401	3.9800e+01	7.9675	82.468590	0.000568	5.675724	0.961494	0.000114
 402	3.9900e+01	7.9861	82.634113	0.000831	8.310881	1.407901	0.000166
 403	3.9999e+01	8.0066	82.759264	0.000628	6.283837	1.064511	0.000126
 404	4.0099e+01	8.0262	82.844044	0.000426	4.256793	0.721120	0.000085
 405	4.0198e+01	8.0469	82.985344	0.000709	7.094655	1.201867	0.000142
 406	4.0297e+01	8.0656	83.138755	0.000770	7.702768	1.304884	0.000154
 407	4.0397e+01	8.0865	83.288129	0.000750	7.500064	1.270545	0.000150
 408	4.0496e+01	8.1055	83.409243	0.000608	6.081133	1.030172	0.000122
 409	4.0596e+01	8.1261	83.566691	0.000791	7.905473	1.339223	0.000158
 410	4.0696e+01	8.1454	83.663582	0.000486	4.864906	0.824137	0.000097
 411	4.0795e+01	8.1664	83.829105	0.000831	8.310881	1.407901	0.000166
 412	4.0895e+01	8.1863	83.950219	0.000608	6.081133	1.030172	0.000122
 413	4.0994e+01	8.2052	84.095556	0.000730	7.297359	1.236206	0.000146
 414	4.1093e+01	8.2247	84.216670	0.000608	6.081133	1.030172	0.000122
 415	4.1193e+01	8.2456	84.325673	0.000547	5.473019	0.927155	0.000110
 416	4.1292e+01	8.2655	84.487158	0.000811	8.108177	1.373562	0.000162
 417	4.1392e+01	8.2851	84.632495	0.000730	7.297359	1.236206	0.000146
 418	4.1492e+01	8.3057	84.757646	0.000628	6.283837	1.064511	0.000126
 419	4.1591e+01	8.3253	84.898946	0.000709	7.094655	1.201867	0.000142
 420	4.1691e+01	8.3456	85.048320	0.000750	7.500064	1.270545	0.000150
 421	4.1790e+01	8.3643	85.145211	0.000486	4.864906	0.824137	0.000097
 422	4.1889e+01	8.3850	85.302660	0.000791	7.905473	1.339223	0.000158
 423	4.1989e+01	8.4047	85.460108	0.000791	7.905473	1.339223	0.000158
 424	4.2089e+01	8.4244	85.593333	0.000669	6.689246	1.133189	0.000134
 425	4.2188e+01	8.4443	85.706373	0.000568	5.675724	0.961494	0.000114
 426	4.2288e+01	8.4634	85.811339	0.000527	5.270315	0.892816	0.000105
 427	4.2387e+01	8.4843	85.997047	0.000932	9.324403	1.579597	0.000187
 428	4.2486e+01	8.5041	86.130272	0.000669	6.689246	1.133189	0.000134
 429	4.2586e+01	8.5236	86.239275	0.000547	5.473019	0.927155	0.000110
 430	4.2685e+01	8.5436	86.396723	0.000791	7.905473	1.339223	0.000158
 431	4.2785e+01	8.5645	86.538023	0.000709	7.094655	1.201867	0.000142
 432	4.2885e+01	8.5840	86.610692	0.000365	3.648680	0.618103	0.000073
 433	4.2984e+01	8.6042	86.760066	0.000750	7.500064	1.270545	0.000150
 434	4.3084e+01	8.6240	86.897328	0.000689	6.891950	1.167528	0.000138
 435	4.3183e+01	8.6430	87.022479	0.000628	6.283837	1.064511	0.000126
 436	4.3282e+01	8.6637	87.167816	0.000730	7.297359	1.236206	0.000146
 437	4.3382e+01	8.6848	87.292967	0.000628	6.283837	1.064511	0.000126
 438	4.3481e+01	8.7036	87.430230	0.000689	6.891950	1.167528	0.000138
 439	4.3581e+01	8.7228	87.539233	0.000547	5.473019	0.927155	0.000110
 440	4.3681e+01	8.7439	87.688607	0.000750	7.500064	1.270545	0.000150
 441	4.3780e+01	8.7637	87.825869	0.000689	6.891950	1.167528	0.000138
 442	4.3880e+01	8.7829	87.938909	0.000568	5.675724	0.961494	0.000114
 443	4.3979e+01	8.8037	88.120580	0.000912	9.121699	1.545258	0.000183
 444	4.4078e+01	8.8221	88.217472	0.000486	4.864906	0.824137	0.000097
 445	4.4178e+01	8.8425	88.354734	0.000689	6.891950	1.167528	0.000138
 446	4.4278e+01	8.8623	88.463737	0.000547	5.473019	0.927155	0.000110
 447	4.4377e+01	8.8821	88.617148	0.000770	7.702768	1.304884	0.000154
 448	4.4477e+01	8.9017	88.705965	0.000446	4.459497	0.755459	0.000089
 449	4.4576e+01	8.9218	88.843228	0.000689	6.891950	1.167528	0.000138
 450	4.4675e+01	8.9420	88.976453	0.000669	6.689246	1.133189	0.000134
 451	4.4775e+01	8.9613	89.162161	0.000932	9.324403	1.579597	0.000187
 452	4.4874e+01	8.9806	89.275201	0.000568	5.675724	0.961494	0.000114
 453	4.4974e+01	9.0011	89.368055	0.000466	4.662202	0.789798	0.000093
 454	4.5074e+01	9.0205	89.505318	0.000689	6.891950	1.167528	0.000138
 455	4.5173e+01	9.0413	89.610283	0.000527	5.270315	0.892816	0.000105
 456	4.5273e+01	9.0607	89.775806	0.000831	8.310881	1.407901	0.000166
 457	4.5372e+01	9.0813	89.909031	0.000669	6.689246	1.133189	0.000134
 458	4.5471e+01	9.1016	90.022071	0.000568	5.675724	0.961494	0.000114
 459	4.5571e+01	9.1208	90.191631	0.000851	8.513586	1.442240	0.000170
 460	4.5670e+01	9.1415	90.284485	0.000466	4.662202	0.789798	0.000093
 461	4.5770e+01	9.1608	90.425785	0.000709	7.094655	1.201867	0.000142
 462	4.5870e+01	9.1806	90.583233	0.000791	7.905473	1.339223	0.000158
 463	4.5969e+01	9.2008	90.651864	0.000345	3.445975	0.583764	0.000069
 464	4.6069e+01	9.2201	90.793164	0.000709	7.094655	1.201867	0.000142
 465	4.6168e+01	9.2412	90.926390	0.000669	6.689246	1.133189	0.000134
 466	4.6267e+01	9.2606	91.039429	0.000568	5.675724	0.961494	0.000114
 467	4.6367e+01	9.2810	91.208989	0.000851	8.513586	1.442240	0.000170
 468	4.6467e+01	9.3006	91.330103	0.000608	6.081133	1.030172	0.000122
 469	4.6566e+01	9.3201	91.459292	0.000649	6.486542	1.098850	0.000130
 470	4.6666e+01	9.3393	91.564257	0.000527	5.270315	0.892816	0.000105
 471	4.6765e+01	9.3613	91.685371	0.000608	6.081133	1.030172	0.000122
 472	4.6864e+01	9.3805	91.854931	0.000851	8.513586	1.442240	0.000170
 473	4.6964e+01	9.3997	91.943748	0.000446	4.459497	0.755459	0.000089
 474	4.7063e+01	9.4205	92.121382	0.000892	8.918995	1.510919	0.000179
 475	4.7163e+01	9.4392	92.226347	0.000527	5.270315	0.892816	0.000105
 476	4.7263e+01	9.4595	92.343424	0.000588	5.878428	0.995833	0.000118
 477	4.7362e+01	9.4801	92.508947	0.000831	8.310881	1.407901	0.000166
 478	4.7462e+01	9.4997	92.613912	0.000527	5.270315	0.892816	0.000105
 479	4.7561e+01	9.5193	92.730989	0.000588	5.878428	0.995833	0.000118
 480	4.7660e+01	9.5386	92.860178	0.000649	6.486542	1.098850	0.000130
 481	4.7760e+01	9.5585	92.961106	0.000507	5.067611	0.858476	0.000101
 482	4.7859e+01	9.5801	93.110480	0.000750	7.500064	1.270545	0.000150
 483	4.7959e+01	9.5986	93.239668	0.000649	6.486542	1.098850	0.000130
 484	4.8059e+01	9.6186	93.393080	0.000770	7.702768	1.304884	0.000154
 485	4.8158e+01	9.6381	93.530342	0.000689	6.891950	1.167528	0.000138
 486	4.8258e+01	9.6582	93.639345	0.000547	5.473019	0.927155	0.000110
 487	4.8357e+01	9.6786	93.728162	0.000446	4.459497	0.755459	0.000089
 488	4.8456e+01	9.6983	93.885610	0.000791	7.905473	1.339223	0.000158
 489	4.8556e+01	9.7183	93.998650	0.000568	5.675724	0.961494	0.000114
 490	4.8656e+01	9.7382	94.119764	0.000608	6.081133	1.030172	0.000122
 491	4.8755e+01	9.7586	94.257027	0.000689	6.891950	1.167528	0.000138
 492	4.8855e+01	9.7782	94.374104	0.000588	5.878428	0.995833	0.000118
 493	4.8954e+01	9.7989	94.551738	0.000892	8.918995	1.510919	0.000179
 494	4.9053e+01	9.8177	94.612295	0.000304	3.040566	0.515086	0.000061
 495	4.9153e+01	9.8373	94.781854	0.000851	8.513586	1.442240	0.000170
 496	4.9252e+01	9.8578	94.927191	0.000730	7.297359	1.236206	0.000146
 497	4.9352e+01	9.8780	95.052342	0.000628	6.283837	1.064511	0.000126
 498	4.9452e+01	9.8977	95.129048	0.000385	3.851384	0.652442	0.000077
 499	4.9551e+01	9.9179	95.254199	0.000628	6.283837	1.064511	0.000126
 500	4.9651e+01	9.9375	95.419722	0.000831	8.310881	1.407901	0.000166
 501	4.9750e+01	9.9585	95.472205	0.000264	2.635158	0.446408	0.000053
 502	4.9849e+01	9.9775	95.605430	0.000669	6.689246	1.133189	0.000134
 503	4.9949e+01	9.9969	95.779027	0.000872	8.716290	1.476580	0.000174
 504	5.0048e+01	9.9769	95.661950	0.000588	5.878428	0.995833	-0.000118
 505	5.0148e+01	9.9577	95.633690	0.000142	1.418931	0.240373	-0.000028
 506	5.0248e+01	9.9377	95.532762	0.000507	5.067611	0.858476	-0.000101
 507	5.0347e+01	9.9175	95.439907	0.000466	4.662202	0.789798	-0.000093
 508	5.0447e+01	9.8984	95.347053	0.000466	4.662202	0.789798	-0.000093
 509	5.0546e+01	9.8780	95.234013	0.000568	5.675724	0.961494	-0.000114
 510	5.0645e+01	9.8572	95.157308	0.000385	3.851384	0.652442	-0.000077
 511	5.0745e+01	9.8389	95.048305	0.000547	5.473019	0.927155	-0.000110
 512	5.0844e+01	9.8186	94.955451	0.000466	4.662202	0.789798	-0.000093
 513	5.0944e+01	9.7986	94.870671	0.000426	4.256793	0.721120	-0.000085
 514	5.1044e+01	9.7778	94.793966	0.000385	3.851384	0.652442	-0.000077
 515	5.1143e+01	9.7577	94.680926	0.000568	5.675724	0.961494	-0.000114
 516	5.1242e+01	9.7388	94.616332	0.000324	3.243271	0.549425	-0.000065
 517	5.1342e+01	9.7187	94.499255	0.000588	5.878428	0.995833	-0.000118
 518	5.1441e+01	9.6973	94.390252	0.000547	5.473019	0.927155	-0.000110
 519	5.1541e+01	9.6790	94.305472	0.000426	4.256793	0.721120	-0.000085
 520	5.1641e+01	9.6597	94.224730	0.000405	4.054088	0.686781	-0.000081
 521	5.1740e+01	9.6393	94.111690	0.000568	5.675724	0.961494	-0.000114
 522	5.1840e+01	9.6194	93.982501	0.000649	6.486542	1.098850	-0.000130
 523	5.1939e+01	9.5996	93.885610	0.000486	4.864906	0.824137	-0.000097
 524	5.2038e+01	9.5789	93.816979	0.000345	3.445975	0.583764	-0.000069
 525	5.2138e+01	9.5588	93.744310	0.000365	3.648680	0.618103	-0.000073
 526	5.2237e+01	9.5386	93.615122	0.000649	6.486542	1.098850	-0.000130
 527	5.2337e+01	9.5190	93.498045	0.000588	5.878428	0.995833	-0.000118
 528	5.2437e+01	9.4992	93.449599	0.000243	2.432453	0.412069	-0.000049
 529	5.2536e+01	9.4800	93.320411	0.000649	6.486542	1.098850	-0.000130
 530	5.2636e+01	9.4591	93.215446	0.000527	5.270315	0.892816	-0.000105
 531	5.2735e+01	9.4392	93.126629	0.000446	4.459497	0.755459	-0.000089
 532	5.2834e+01	9.4189	93.005515	0.000608	6.081133	1.030172	-0.000122
 533	5.2934e+01	9.3996	92.924772	0.000405	4.054088	0.686781	-0.000081
 534	5.3033e+01	9.3793	92.795584	0.000649	6.486542	1.098850	-0.000130
 535	5.3133e+01	9.3597	92.730989	0.000324	3.243271	0.549425	-0.000065
 536	5.3233e+01	9.3396	92.593727	0.000689	6.891950	1.167528	-0.000138
 537	5.3332e+01	9.3204	92.488761	0.000527	5.270315	0.892816	-0.000105
 538	5.3431e+01	9.2999	92.412056	0.000385	3.851384	0.652442	-0.000077
 539	5.3531e+01	9.2795	92.311127	0.000507	5.067611	0.858476	-0.000101
 540	5.3630e+01	9.2597	92.198087	0.000568	5.675724	0.961494	-0.000114
 541	5.3730e+01	9.2410	92.101196	0.000486	4.864906	0.824137	-0.000097
 542	5.3830e+01	9.2200	91.980082	0.000608	6.081133	1.030172	-0.000122
 543	5.3929e+01	9.2004	91.931636	0.000243	2.432453	0.412069	-0.000049
 544	5.4029e+01	9.1800	91.774188	0.000791	7.905473	1.339223	-0.000158
 545	5.4128e+01	9.1608	91.693445	0.000405	4.054088	0.686781	-0.000081
 546	5.4227e+01	9.1409	91.592517	0.000507	5.067611	0.858476	-0.000101
 547	5.4327e+01	9.1211	91.471403	0.000608	6.081133	1.030172	-0.000122
 548	5.4426e+01	9.1007	91.394697	0.000385	3.851384	0.652442	-0.000077
 549	5.4526e+01	9.0820	91.277620	0.000588	5.878428	0.995833	-0.000118
 550	5.4626e+01	9.0620	91.152469	0.000628	6.283837	1.064511	-0.000126
 551	5.4725e+01	9.0408	91.067689	0.000426	4.256793	0.721120	-0.000085
 552	5.4825e+01	9.0204	90.978872	0.000446	4.459497	0.755459	-0.000089
 553	5.4924e+01	9.0016	90.845647	0.000669	6.689246	1.133189	-0.000134
 554	5.5023e+01	8.9808	90.760867	0.000426	4.256793	0.721120	-0.000085
 555	5.5123e+01	8.9619	90.635716	0.000628	6.283837	1.064511	-0.000126
 556	5.5222e+01	8.9407	90.510565	0.000628	6.283837	1.064511	-0.000126
 557	5.5322e+01	8.9224	90.405599	0.000527	5.270315	0.892816	-0.000105
 558	5.5422e+01	8.9019	90.312745	0.000466	4.662202	0.789798	-0.000093
 559	5.5521e+01	8.8818	90.199705	0.000568	5.675724	0.961494	-0.000114
 560	5.5620e+01	8.8625	90.082628	0.000588	5.878428	0.995833	-0.000118
 561	5.5720e+01	8.8415	89.945366	0.000689	6.891950	1.167528	-0.000138
 562	5.5819e+01	8.8241	89.884809	0.000304	3.040566	0.515086	-0.000061
 563	5.5919e+01	8.8029	89.763695	0.000608	6.081133	1.030172	-0.000122
 564	5.6019e+01	8.7830	89.699100	0.000324	3.243271	0.549425	-0.000065
 565	5.6118e+01	8.7628	89.582023	0.000588	5.878428	0.995833	-0.000118
 566	5.6218e+01	8.7429	89.464947	0.000588	5.878428	0.995833	-0.000118
 567	5.6317e+01	8.7232	89.351907	0.000568	5.675724	0.961494	-0.000114
 568	5.6416e+01	8.7030	89.234830	0.000588	5.878428	0.995833	-0.000118
 569	5.6516e+01	8.6842	89.129864	0.000527	5.270315	0.892816	-0.000105
 570	5.6615e+01	8.6634	89.028936	0.000507	5.067611	0.858476	-0.000101
 571	5.6715e+01	8.6434	88.903785	0.000628	6.283837	1.064511	-0.000126
 572	5.6815e+01	8.6239	88.819005	0.000426	4.256793	0.721120	-0.000085
 573	5.6914e+01	8.6050	88.693854	0.000628	6.283837	1.064511	-0.000126
 574	5.7014e+01	8.5840	88.556591	0.000689	6.891950	1.167528	-0.000138
 575	5.7113e+01	8.5645	88.463737	0.000466	4.662202	0.789798	-0.000093
 576	5.7212e+01	8.5443	88.354734	0.000547	5.473019	0.927155	-0.000110
 577	5.7312e+01	8.5255	88.229583	0.000628	6.283837	1.064511	-0.000126
 578	5.7411e+01	8.5040	88.080209	0.000750	7.500064	1.270545	-0.000150
 579	5.7511e+01	8.4845	88.015615	0.000324	3.243271	0.549425	-0.000065
 580	5.7611e+01	8.4641	87.918724	0.000486	4.864906	0.824137	-0.000097
 581	5.7710e+01	8.4441	87.793572	0.000628	6.283837	1.064511	-0.000126
 582	5.7809e+01	8.4240	87.700718	0.000466	4.662202	0.789798	-0.000093
 583	5.7909e+01	8.4034	87.595753	0.000527	5.270315	0.892816	-0.000105
 584	5.8008e+01	8.3857	87.490787	0.000527	5.270315	0.892816	-0.000105
 585	5.8108e+01	8.3652	87.377747	0.000568	5.675724	0.961494	-0.000114
 586	5.8208e+01	8.3441	87.248559	0.000649	6.486542	1.098850	-0.000130
 587	5.8307e+01	8.3253	87.127445	0.000608	6.081133	1.030172	-0.000122
 588	5.8407e+01	8.3057	87.066888	0.000304	3.040566	0.515086	-0.000061
 589	5.8506e+01	8.2851	86.961922	0.000527	5.270315	0.892816	-0.000105
 590	5.8605e+01	8.2658	86.828697	0.000669	6.689246	1.133189	-0.000134
 591	5.8705e+01	8.2449	86.739880	0.000446	4.459497	0.755459	-0.000089
 592	5.8804e+01	8.2262	86.647026	0.000466	4.662202	0.789798	-0.000093
 593	5.8904e+01	8.2053	86.509763	0.000689	6.891950	1.167528	-0.000138
 594	5.9004e+01	8.1857	86.412872	0.000486	4.864906	0.824137	-0.000097
 595	5.9103e+01	8.1666	86.267535	0.000730	7.297359	1.236206	-0.000146
 596	5.9203e+01	8.1467	86.178718	0.000446	4.459497	0.755459	-0.000089
 597	5.9302e+01	8.1255	86.073753	0.000527	5.270315	0.892816	-0.000105
 598	5.9401e+01	8.1052	85.993010	0.000405	4.054088	0.686781	-0.000081
 599	5.9501e+01	8.0859	85.867859	0.000628	6.283837	1.064511	-0.000126
 600	5.9600e+01	8.0648	85.746745	0.000608	6.081133	1.030172	-0.000122
 601	5.9700e+01	8.0471	85.593333	0.000770	7.702768	1.304884	-0.000154
 602	5.9800e+01	8.0267	85.520665	0.000365	3.648680	0.618103	-0.000073
 603	5.9899e+01	8.0067	85.387439	0.000669	6.689246	1.133189	-0.000134
 604	5.9998e+01	7.9859	85.294585	0.000466	4.662202	0.789798	-0.000093
 605	6.0098e+01	7.9662	85.181546	0.000568	5.675724	0.961494	-0.000114
 606	6.0197e+01	7.9468	85.064469	0.000588	5.878428	0.995833	-0.000118
 607	6.0297e+01	7.9267	84.955466	0.000547	5.473019	0.927155	-0.000110
 608	6.0397e+01	7.9068	84.810129	0.000730	7.297359	1.236206	-0.000146
 609	6.0496e+01	7.8867	84.717275	0.000466	4.662202	0.789798	-0.000093
 610	6.0596e+01	7.8671	84.596161	0.000608	6.081133	1.030172	-0.000122
 611	6.0695e+01	7.8465	84.523492	0.000365	3.648680	0.618103	-0.000073
 612	6.0794e+01	7.8278	84.374118	0.000750	7.500064	1.270545	-0.000150
 613	6.0894e+01	7.8077	84.277227	0.000486	4.864906	0.824137	-0.000097
 614	6.0993e+01	7.7873	84.139964	0.000689	6.891950	1.167528	-0.000138
 615	6.1093e+01	7.7668	84.018850	0.000608	6.081133	1.030172	-0.000122
 616	6.1193e+01	7.7474	83.958293	0.000304	3.040566	0.515086	-0.000061
 617	6.1292e+01	7.7279	83.792771	0.000831	8.310881	1.407901	-0.000166
 618	6.1392e+01	7.7081	83.655508	0.000689	6.891950	1.167528	-0.000138
 619	6.1491e+01	7.6877	83.594951	0.000304	3.040566	0.515086	-0.000061
 620	6.1590e+01	7.6688	83.465763	0.000649	6.486542	1.098850	-0.000130
 621	6.1690e+01	7.6480	83.364834	0.000507	5.067611	0.858476	-0.000101
 622	6.1789e+01	7.6275	83.255832	0.000547	5.473019	0.927155	-0.000110
 623	6.1889e+01	7.6081	83.114532	0.000709	7.094655	1.201867	-0.000142
 624	6.1989e+01	7.5877	83.013604	0.000507	5.067611	0.858476	-0.000101
 625	6.2088e+01	7.5684	82.876341	0.000689	6.891950	1.167528	-0.000138
 626	6.2188e+01	7.5475	82.771375	0.000527	5.270315	0.892816	-0.000105
 627	6.2287e+01	7.5286	82.634113	0.000689	6.891950	1.167528	-0.000138
 628	6.2386e+01	7.5091	82.521073	0.000568	5.675724	0.961494	-0.000114
 629	6.2486e+01	7.4893	82.424182	0.000486	4.864906	0.824137	-0.000097
 630	6.2586e+01	7.4679	82.294993	0.000649	6.486542	1.098850	-0.000130
 631	6.2685e+01	7.4486	82.169842	0.000628	6.283837	1.064511	-0.000126
 632	6.2785e+01	7.4291	82.064877	0.000527	5.270315	0.892816	-0.000105
 633	6.2884e+01	7.4090	81.931651	0.000669	6.689246	1.133189	-0.000134
 634	6.2983e+01	7.3904	81.798426	0.000669	6.689246	1.133189	-0.000134
 635	6.3083e+01	7.3686	81.701534	0.000486	4.864906	0.824137	-0.000097
 636	6.3182e+01	7.3496	81.596569	0.000527	5.270315	0.892816	-0.000105
 637	6.3282e+01	7.3293	81.467381	0.000649	6.486542	1.098850	-0.000130
 638	6.3382e+01	7.3083	81.338192	0.000649	6.486542	1.098850	-0.000130
 639	6.3481e+01	7.2894	81.217078	0.000608	6.081133	1.030172	-0.000122
 640	6.3581e+01	7.2707	81.091927	0.000628	6.283837	1.064511	-0.000126
 641	6.3680e+01	7.2500	80.990999	0.000507	5.067611	0.858476	-0.000101
 642	6.3779e+01	7.2292	80.906219	0.000426	4.256793	0.721120	-0.000085
 643	6.3879e+01	7.2095	80.801253	0.000527	5.270315	0.892816	-0.000105
 644	6.3978e+01	7.1905	80.627656	0.000872	8.716290	1.476580	-0.000174
 645	6.4078e+01	7.1694	80.518654	0.000547	5.473019	0.927155	-0.000110
 646	6.4177e+01	7.1503	80.433874	0.000426	4.256793	0.721120	-0.000085
 647	6.4277e+01	7.1304	80.288537	0.000730	7.297359	1.236206	-0.000146
 648	6.4376e+01	7.1105	80.171460	0.000588	5.878428	0.995833	-0.000118
 649	6.4476e+01	7.0907	80.074569	0.000486	4.864906	0.824137	-0.000097
 650	6.4576e+01	7.0695	79.913083	0.000811	8.108177	1.373562	-0.000162
 651	6.4675e+01	7.0498	79.804081	0.000547	5.473019	0.927155	-0.000110
 652	6.4775e+01	7.0306	79.658744	0.000730	7.297359	1.236206	-0.000146
 653	6.4874e+01	7.0099	79.610298	0.000243	2.432453	0.412069	-0.000049
 654	6.4974e+01	6.9904	79.501296	0.000547	5.473019	0.927155	-0.000110
 655	6.5073e+01	6.9704	79.355959	0.000730	7.297359	1.236206	-0.000146
 656	6.5172e+01	6.9497	79.226770	0.000649	6.486542	1.098850	-0.000130
 657	6.5272e+01	6.9310	79.129879	0.000486	4.864906	0.824137	-0.000097
 658	6.5371e+01	6.9106	78.960319	0.000851	8.513586	1.442240	-0.000170
 659	6.5471e+01	6.8900	78.859391	0.000507	5.067611	0.858476	-0.000101
 660	6.5570e+01	6.8710	78.726165	0.000669	6.689246	1.133189	-0.000134
 661	6.5670e+01	6.8519	78.584866	0.000709	7.094655	1.201867	-0.000142
 662	6.5769e+01	6.8313	78.479900	0.000527	5.270315	0.892816	-0.000105
 663	6.5869e+01	6.8122	78.387046	0.000466	4.662202	0.789798	-0.000093
 664	6.5969e+01	6.7924	78.241709	0.000730	7.297359	1.236206	-0.000146
 665	6.6068e+01	6.7707	78.100409	0.000709	7.094655	1.201867	-0.000142
 666	6.6168e+01	6.7522	77.975258	0.000628	6.283837	1.064511	-0.000126
 667	6.6267e+01	6.7321	77.890478	0.000426	4.256793	0.721120	-0.000085
 668	6.6367e+01	6.7123	77.720919	0.000851	8.513586	1.442240	-0.000170
 669	6.6466e+01	6.6920	77.599805	0.000608	6.081133	1.030172	-0.000122
 670	6.6566e+01	6.6721	77.458505	0.000709	7.094655	1.201867	-0.000142
 671	6.6665e+01	6.6512	77.341428	0.000588	5.878428	0.995833	-0.000118
 672	6.6764e+01	6.6326	77.236462	0.000527	5.270315	0.892816	-0.000105
 673	6.6864e+01	6.6122	77.099200	0.000689	6.891950	1.167528	-0.000138
 674	6.6963e+01	6.5919	76.957900	0.000709	7.094655	1.201867	-0.000142
 675	6.7063e+01	6.5716	76.828712	0.000649	6.486542	1.098850	-0.000130
 676	6.7162e+01	6.5514	76.723746	0.000527	5.270315	0.892816	-0.000105
 677	6.7262e+01	6.5328	76.570335	0.000770	7.702768	1.304884	-0.000154
 678	6.7362e+01	6.5119	76.437109	0.000669	6.689246	1.133189	-0.000134
 679	6.7461e+01	6.4928	76.295810	0.000709	7.094655	1.201867	-0.000142
 680	6.7561e+01	6.4725	76.182770	0.000568	5.675724	0.961494	-0.000114
 681	6.7660e+01	6.4532	76.057619	0.000628	6.283837	1.064511	-0.000126
 682	6.7760e+01	6.4329	75.964765	0.000466	4.662202	0.789798	-0.000093
 683	6.7859e+01	6.4120	75.819428	0.000730	7.297359	1.236206	-0.000146
 684	6.7959e+01	6.3931	75.706388	0.000568	5.675724	0.961494	-0.000114
 685	6.8058e+01	6.3738	75.544902	0.000811	8.108177	1.373562	-0.000162
 686	6.8157e+01	6.3532	75.431863	0.000568	5.675724	0.961494	-0.000114
 687	6.8257e+01	6.3330	75.282489	0.000750	7.500064	1.270545	-0.000150
 688	6.8356e+01	6.3125	75.169449	0.000568	5.675724	0.961494	-0.000114
 689	6.8456e+01	6.2933	75.048335	0.000608	6.081133	1.030172	-0.000122
 690	6.8555e+01	6.2732	74.923184	0.000628	6.283837	1.064511	-0.000126
 691	6.8655e+01	6.2541	74.785921	0.000689	6.891950	1.167528	-0.000138
 692	6.8754e+01	6.2347	74.680955	0.000527	5.270315	0.892816	-0.000105
 693	6.8854e+01	6.2145	74.523507	0.000791	7.905473	1.339223	-0.000158
 694	6.8954e+01	6.1939	74.390282	0.000669	6.689246	1.133189	-0.000134
 695	6.9053e+01	6.1750	74.285316	0.000527	5.270315	0.892816	-0.000105
 696	6.9153e+01	6.1544	74.144016	0.000709	7.094655	1.201867	-0.000142
 697	6.9252e+01	6.1343	74.010791	0.000669	6.689246	1.133189	-0.000134
 698	6.9352e+01	6.1137	73.905825	0.000527	5.270315	0.892816	-0.000105
 699	6.9451e+01	6.0955	73.720117	0.000932	9.324403	1.579597	-0.000187
 700	6.9550e+01	6.0748	73.599003	0.000608	6.081133	1.030172	-0.000122
 701	6.9650e+01	6.0546	73.522297	0.000385	3.851384	0.652442	-0.000077
 702	6.9749e+01	6.0342	73.368886	0.000770	7.702768	1.304884	-0.000154
 703	6.9849e+01	6.0148	73.235661	0.000669	6.689246	1.133189	-0.000134
 704	6.9948e+01	5.9947	73.106473	0.000649	6.486542	1.098850	-0.000130
 705	7.0048e+01	5.9756	72.969210	0.000689	6.891950	1.167528	-0.000138
 706	7.0147e+01	5.9551	72.868282	0.000507	5.067611	0.858476	-0.000101
 707	7.0247e+01	5.9354	72.710833	0.000791	7.905473	1.339223	-0.000158
 708	7.0347e+01	5.9156	72.589719	0.000608	6.081133	1.030172	-0.000122
 709	7.0446e+01	5.8935	72.440345	0.000750	7.500064	1.270545	-0.000150
 710	7.0546e+01	5.8756	72.290971	0.000750	7.500064	1.270545	-0.000150
 711	7.0645e+01	5.8553	72.165820	0.000628	6.283837	1.064511	-0.000126
 712	7.0745e+01	5.8360	72.052780	0.000568	5.675724	0.961494	-0.000114
 713	7.0844e+01	5.8157	71.911480	0.000709	7.094655	1.201867	-0.000142
 714	7.0944e+01	5.7954	71.798441	0.000568	5.675724	0.961494	-0.000114
 715	7.1043e+01	5.7758	71.636955	0.000811	8.108177	1.373562	-0.000162
 716	7.1142e+01	5.7551	71.515841	0.000608	6.081133	1.030172	-0.000122
 717	7.1242e+01	5.7363	71.398764	0.000588	5.878428	0.995833	-0.000118
 718	7.1341e+01	5.7166	71.261501	0.000689	6.891950	1.167528	-0.000138
 719	7.1441e+01	5.6960	71.136350	0.000628	6.283837	1.064511	-0.000126
 720	7.1540e+01	5.6754	71.003125	0.000669	6.689246	1.133189	-0.000134
 721	7.1640e+01	5.6559	70.873936	0.000649	6.486542	1.098850	-0.000130
 722	7.1740e+01	5.6367	70.736674	0.000689	6.891950	1.167528	-0.000138
 723	7.1839e+01	5.6170	70.591337	0.000730	7.297359	1.236206	-0.000146
 724	7.1939e+01	5.5962	70.478297	0.000568	5.675724	0.961494	-0.000114
 725	7.2038e+01	5.5772	70.324886	0.000770	7.702768	1.304884	-0.000154
 726	7.2138e+01	5.5566	70.195698	0.000649	6.486542	1.098850	-0.000130
 727	7.2237e+01	5.5367	70.034212	0.000811	8.108177	1.373562	-0.000162
 728	7.2337e+01	5.5167	69.921172	0.000568	5.675724	0.961494	-0.000114
 729	7.2436e+01	5.4986	69.771798	0.000750	7.500064	1.270545	-0.000150
 730	7.2535e+01	5.4771	69.666833	0.000527	5.270315	0.892816	-0.000105
 731	7.2635e+01	5.4568	69.481125	0.000932	9.324403	1.579597	-0.000187
 732	7.2734e+01	5.4366	69.380196	0.000507	5.067611	0.858476	-0.000101
 733	7.2834e+01	5.4181	69.267156	0.000568	5.675724	0.961494	-0.000114
 734	7.2933e+01	5.3970	69.109708	0.000791	7.905473	1.339223	-0.000158
 735	7.3033e+01	5.3770	68.968408	0.000709	7.094655	1.201867	-0.000142
 736	7.3132e+01	5.3565	68.810960	0.000791	7.905473	1.339223	-0.000158
 737	7.3232e+01	5.3370	68.697920	0.000568	5.675724	0.961494	-0.000114
 738	7.3332e+01	5.3181	68.560658	0.000689	6.891950	1.167528	-0.000138
 739	7.3431e+01	5.2979	68.415321	0.000730	7.297359	1.236206	-0.000146
 740	7.3531e+01	5.2769	68.261910	0.000770	7.702768	1.304884	-0.000154
 741	7.3630e+01	5.2578	68.132721	0.000649	6.486542	1.098850	-0.000130
 742	7.3730e+01	5.2381	67.983347	0.000750	7.500064	1.270545	-0.000150
 743	7.3829e+01	5.2174	67.850122	0.000669	6.689246	1.133189	-0.000134
 744	7.3928e+01	5.1986	67.757268	0.000466	4.662202	0.789798	-0.000093
 745	7.4028e+01	5.1774	67.599819	0.000791	7.905473	1.339223	-0.000158
 746	7.4127e+01	5.1569	67.438334	0.000811	8.108177	1.373562	-0.000162
 747	7.4227e+01	5.1380	67.305108	0.000669	6.689246	1.133189	-0.000134
 748	7.4326e+01	5.1184	67.212254	0.000466	4.662202	0.789798	-0.000093
 749	7.4426e+01	5.0991	67.050769	0.000811	8.108177	1.373562	-0.000162
 750	7.4525e+01	5.0787	66.909469	0.000709	7.094655	1.201867	-0.000142
 751	7.4625e+01	5.0587	66.788355	0.000608	6.081133	1.030172	-0.000122
 752	7.4725e+01	5.0396	66.659167	0.000649	6.486542	1.098850	-0.000130
 753	7.4824e+01	5.0192	66.501718	0.000791	7.905473	1.339223	-0.000158
 754	7.4924e+01	4.9993	66.368493	0.000669	6.689246	1.133189	-0.000134
 755	7.5023e+01	4.9777	66.259490	0.000547	5.473019	0.927155	-0.000110
 756	7.5123e+01	4.9596	66.130302	0.000649	6.486542	1.098850	-0.000130
 757	7.5222e+01	4.9404	65.964779	0.000831	8.310881	1.407901	-0.000166
 758	7.5322e+01	4.9203	65.823480	0.000709	7.094655	1.201867	-0.000142
 759	7.5421e+01	4.8998	65.714477	0.000547	5.473019	0.927155	-0.000110
 760	7.5520e+01	4.8806	65.589326	0.000628	6.283837	1.064511	-0.000126
 761	7.5620e+01	4.8612	65.391506	0.000993	9.932517	1.682614	-0.000199
 762	7.5719e+01	4.8392	65.278466	0.000568	5.675724	0.961494	-0.000114
 763	7.5819e+01	4.8206	65.149278	0.000649	6.486542	1.098850	-0.000130
 764	7.5918e+01	4.7995	65.012015	0.000689	6.891950	1.167528	-0.000138
 765	7.6018e+01	4.7805	64.882827	0.000649	6.486542	1.098850	-0.000130
 766	7.6118e+01	4.7601	64.713267	0.000851	8.513586	1.442240	-0.000170
 767	7.6217e+01	4.7402	64.612339	0.000507	5.067611	0.858476	-0.000101
 768	7.6317e+01	4.7210	64.430668	0.000912	9.121699	1.545258	-0.000183
 769	7.6416e+01	4.7012	64.313591	0.000588	5.878428	0.995833	-0.000118
 770	7.6516e+01	4.6806	64.135957	0.000892	8.918995	1.510919	-0.000179
 771	7.6615e+01	4.6609	64.006769	0.000649	6.486542	1.098850	-0.000130
 772	7.6715e+01	4.6391	63.901803	0.000527	5.270315	0.892816	-0.000105
 773	7.6814e+01	4.6207	63.748392	0.000770	7.702768	1.304884	-0.000154
 774	7.6913e+01	4.6004	63.607092	0.000709	7.094655	1.201867	-0.000142
 775	7.7013e+01	4.5811	63.469830	0.000689	6.891950	1.167528	-0.000138
 776	7.7112e+01	4.5598	63.328530	0.000709	7.094655	1.201867	-0.000142
 777	7.7212e+01	4.5410	63.163007	0.000831	8.310881	1.407901	-0.000166
 778	7.7311e+01	4.5213	63.041893	0.000608	6.081133	1.030172	-0.000122
 779	7.7411e+01	4.5013	62.920779	0.000608	6.081133	1.030172	-0.000122
 780	7.7510e+01	4.4810	62.718922	0.001014	10.135221	1.716953	-0.000203
 781	7.7610e+01	4.4607	62.581660	0.000689	6.891950	1.167528	-0.000138
 782	7.7710e+01	4.4411	62.452471	0.000649	6.486542	1.098850	-0.000130
 783	7.7809e+01	4.4212	62.315209	0.000689	6.891950	1.167528	-0.000138
 784	7.7909e+01	4.4007	62.157760	0.000791	7.905473	1.339223	-0.000158
 785	7.8008e+01	4.3822	62.040683	0.000588	5.878428	0.995833	-0.000118
 786	7.8108e+01	4.3611	61.895347	0.000730	7.297359	1.236206	-0.000146
 787	7.8207e+01	4.3415	61.758084	0.000689	6.891950	1.167528	-0.000138
 788	7.8306e+01	4.3217	61.612747	0.000730	7.297359	1.236206	-0.000146
 789	7.8406e+01	4.3022	61.475484	0.000689	6.891950	1.167528	-0.000138
 790	7.8505e+01	4.2822	61.301888	0.000872	8.716290	1.476580	-0.000174
 791	7.8605e+01	4.2623	61.196922	0.000527	5.270315	0.892816	-0.000105
 792	7.8704e+01	4.2426	61.019288	0.000892	8.918995	1.510919	-0.000179
 793	7.8804e+01	4.2220	60.877988	0.000709	7.094655	1.201867	-0.000142
 794	7.8903e+01	4.2023	60.712466	0.000831	8.310881	1.407901	-0.000166
 795	7.9003e+01	4.1821	60.575203	0.000689	6.891950	1.167528	-0.000138
 796	7.9103e+01	4.1618	60.462163	0.000568	5.675724	0.961494	-0.000114
 797	7.9202e+01	4.1437	60.332975	0.000649	6.486542	1.098850	-0.000130
 798	7.9302e+01	4.1232	60.135155	0.000993	9.932517	1.682614	-0.000199
 799	7.9401e+01	4.1027	59.989818	0.000730	7.297359	1.236206	-0.000146
 800	7.9501e+01	4.0827	59.872742	0.000588	5.878428	0.995833	-0.000118
 801	7.9600e+01	4.0639	59.719330	0.000770	7.702768	1.304884	-0.000154
 802	7.9700e+01	4.0425	59.557845	0.000811	8.108177	1.373562	-0.000162
 803	7.9799e+01	4.0229	59.404434	0.000770	7.702768	1.304884	-0.000154
 804	7.9898e+01	4.0032	59.283320	0.000608	6.081133	1.030172	-0.000122
 805	7.9998e+01	3.9825	59.077426	0.001034	10.337926	1.751292	-0.000207
 806	8.0097e+01	3.9635	58.944200	0.000669	6.689246	1.133189	-0.000134
 807	8.0197e+01	3.9434	58.790789	0.000770	7.702768	1.304884	-0.000154
 808	8.0296e+01	3.9234	58.653527	0.000689	6.891950	1.167528	-0.000138
 809	8.0396e+01	3.9030	58.500115	0.000770	7.702768	1.304884	-0.000154
 810	8.0496e+01	3.8835	58.399187	0.000507	5.067611	0.858476	-0.000101
 811	8.0595e+01	3.8623	58.237702	0.000811	8.108177	1.373562	-0.000162
 812	8.0695e+01	3.8438	58.080253	0.000791	7.905473	1.339223	-0.000158
 813	8.0794e+01	3.8235	57.918768	0.000811	8.108177	1.373562	-0.000162
 814	8.0894e+01	3.8036	57.789580	0.000649	6.486542	1.098850	-0.000130
 815	8.0993e+01	3.7840	57.640205	0.000750	7.500064	1.270545	-0.000150
 816	8.1093e+01	3.7643	57.474683	0.000831	8.310881	1.407901	-0.000166
 817	8.1192e+01	3.7453	57.317235	0.000791	7.905473	1.339223	-0.000158
 818	8.1291e+01	3.7249	57.188046	0.000649	6.486542	1.098850	-0.000130
 819	8.1391e+01	3.7042	57.038672	0.000750	7.500064	1.270545	-0.000150
 820	8.1490e+01	3.6840	56.889298	0.000750	7.500064	1.270545	-0.000150
 821	8.1590e+01	3.6652	56.747999	0.000709	7.094655	1.201867	-0.000142
 822	8.1689e+01	3.6447	56.566327	0.000912	9.121699	1.545258	-0.000183
 823	8.1789e+01	3.6252	56.453288	0.000568	5.675724	0.961494	-0.000114
 824	8.1888e+01	3.6050	56.283728	0.000851	8.513586	1.442240	-0.000170
 825	8.1988e+01	3.5847	56.150502	0.000669	6.689246	1.133189	-0.000134
 826	8.2088e+01	3.5654	55.944608	0.001034	10.337926	1.751292	-0.000207
 827	8.2187e+01	3.5448	55.827532	0.000588	5.878428	0.995833	-0.000118
 828	8.2287e+01	3.5250	55.686232	0.000709	7.094655	1.201867	-0.000142
 829	8.2386e+01	3.5050	55.532821	0.000770	7.702768	1.304884	-0.000154
 830	8.2486e+01	3.4855	55.395558	0.000689	6.891950	1.167528	-0.000138
 831	8.2585e+01	3.4650	55.225998	0.000851	8.513586	1.442240	-0.000170
 832	8.2684e+01	3.4447	55.036253	0.000953	9.527108	1.613936	-0.000191
 833	8.2784e+01	3.4261	54.858619	0.000892	8.918995	1.510919	-0.000179
 834	8.2883e+01	3.4052	54.753653	0.000527	5.270315	0.892816	-0.000105
 835	8.2983e+01	3.3848	54.584094	0.000851	8.513586	1.442240	-0.000170
 836	8.3082e+01	3.3655	54.422608	0.000811	8.108177	1.373562	-0.000162
 837	8.3182e+01	3.3458	54.232863	0.000953	9.527108	1.613936	-0.000191
 838	8.3281e+01	3.3264	54.087526	0.000730	7.297359	1.236206	-0.000146
 839	8.3381e+01	3.3064	53.950263	0.000689	6.891950	1.167528	-0.000138
 840	8.3481e+01	3.2858	53.813001	0.000689	6.891950	1.167528	-0.000138
 841	8.3580e+01	3.2656	53.631330	0.000912	9.121699	1.545258	-0.000183
 842	8.3680e+01	3.2468	53.469844	0.000811	8.108177	1.373562	-0.000162
 843	8.3779e+01	3.2258	53.324507	0.000730	7.297359	1.236206	-0.000146
 844	8.3879e+01	3.2054	53.146873	0.000892	8.918995	1.510919	-0.000179
 845	8.3978e+01	3.1860	53.017685	0.000649	6.486542	1.098850	-0.000130
 846	8.4078e+01	3.1674	52.840051	0.000892	8.918995	1.510919	-0.000179
 847	8.4177e+01	3.1472	52.646269	0.000973	9.729812	1.648275	-0.000195
 848	8.4276e+01	3.1261	52.484783	0.000811	8.108177	1.373562	-0.000162
 849	8.4376e+01	3.1069	52.383855	0.000507	5.067611	0.858476	-0.000101
 850	8.4475e+01	3.0862	52.186035	0.000993	9.932517	1.682614	-0.000199
 851	8.4575e+01	3.0672	52.016475	0.000851	8.513586	1.442240	-0.000170
 852	8.4674e+01	3.0473	51.887287	0.000649	6.486542	1.098850	-0.000130
 853	8.4774e+01	3.0271	51.729839	0.000791	7.905473	1.339223	-0.000158
 854	8.4874e+01	3.0076	51.552205	0.000892	8.918995	1.510919	-0.000179
 855	8.4973e+01	2.9871	51.435128	0.000588	5.878428	0.995833	-0.000118
 856	8.5073e+01	2.9675	51.285754	0.000750	7.500064	1.270545	-0.000150
 857	8.5172e+01	2.9469	51.083897	0.001014	10.135221	1.716953	-0.000203
 858	8.5272e+01	2.9279	50.906263	0.000892	8.918995	1.510919	-0.000179
 859	8.5371e+01	2.9074	50.732666	0.000872	8.716290	1.476580	-0.000174
 860	8.5471e+01	2.8875	50.611552	0.000608	6.081133	1.030172	-0.000122
 861	8.5570e+01	2.8681	50.462178	0.000750	7.500064	1.270545	-0.000150
 862	8.5669e+01	2.8468	50.276470	0.000932	9.324403	1.579597	-0.000187
 863	8.5769e+01	2.8277	50.114984	0.000811	8.108177	1.373562	-0.000162
 864	8.5868e+01	2.8085	49.949462	0.000831	8.310881	1.407901	-0.000166
 865	8.5968e+01	2.7887	49.783939	0.000831	8.310881	1.407901	-0.000166
 866	8.6067e+01	2.7687	49.646677	0.000689	6.891950	1.167528	-0.000138
 867	8.6167e+01	2.7484	49.448857	0.000993	9.932517	1.682614	-0.000199
 868	8.6266e+01	2.7282	49.303520	0.000730	7.297359	1.236206	-0.000146
 869	8.6366e+01	2.7085	49.158183	0.000730	7.297359	1.236206	-0.000146
 870	8.6466e+01	2.6878	48.980549	0.000892	8.918995	1.510919	-0.000179
 871	8.6565e+01	2.6684	48.819064	0.000811	8.108177	1.373562	-0.000162
 872	8.6665e+01	2.6482	48.693913	0.000628	6.283837	1.064511	-0.000126
 873	8.6764e+01	2.6289	48.504167	0.000953	9.527108	1.613936	-0.000191
 874	8.6864e+01	2.6083	48.334608	0.000851	8.513586	1.442240	-0.000170
 875	8.6963e+01	2.5888	48.161011	0.000872	8.716290	1.476580	-0.000174
 876	8.7063e+01	2.5695	47.979340	0.000912	9.121699	1.545258	-0.000183
 877	8.7162e+01	2.5488	47.829966	0.000750	7.500064	1.270545	-0.000150
 878	8.7261e+01	2.5288	47.676554	0.000770	7.702768	1.304884	-0.000154
 879	8.7361e+01	2.5084	47.506995	0.000851	8.513586	1.442240	-0.000170
 880	8.7460e+01	2.4897	47.353584	0.000770	7.702768	1.304884	-0.000154
 881	8.7560e+01	2.4688	47.184024	0.000851	8.513586	1.442240	-0.000170
 882	8.7659e+01	2.4496	47.058873	0.000628	6.283837	1.064511	-0.000126
 883	8.7759e+01	2.4296	46.828756	0.001155	11.554152	1.957326	-0.000231
 884	8.7859e+01	2.4098	46.711679	0.000588	5.878428	0.995833	-0.000118
 885	8.7958e+01	2.3893	46.538082	0.000872	8.716290	1.476580	-0.000174
 886	8.8058e+01	2.3700	46.352374	0.000932	9.324403	1.579597	-0.000187
 887	8.8157e+01	2.3504	46.235297	0.000588	5.878428	0.995833	-0.000118
 888	8.8257e+01	2.3301	46.037477	0.000993	9.932517	1.682614	-0.000199
 889	8.8356e+01	2.3106	45.851769	0.000932	9.324403	1.579597	-0.000187
 890	8.8456e+01	2.2906	45.702395	0.000750	7.500064	1.270545	-0.000150
 891	8.8555e+01	2.2707	45.565133	0.000689	6.891950	1.167528	-0.000138
 892	8.8654e+01	2.2507	45.367313	0.000993	9.932517	1.682614	-0.000199
 893	8.8754e+01	2.2299	45.193716	0.000872	8.716290	1.476580	-0.000174
 894	8.8853e+01	2.2104	45.036268	0.000791	7.905473	1.339223	-0.000158
 895	8.8953e+01	2.1914	44.850559	0.000932	9.324403	1.579597	-0.000187
 896	8.9052e+01	2.1721	44.644666	0.001034	10.337926	1.751292	-0.000207
 897	8.9152e+01	2.1506	44.543737	0.000507	5.067611	0.858476	-0.000101
 898	8.9251e+01	2.1296	44.358029	0.000932	9.324403	1.579597	-0.000187
 899	8.9351e+01	2.1108	44.192506	0.000831	8.310881	1.407901	-0.000166
 900	8.9451e+01	2.0909	44.014872	0.000892	8.918995	1.510919	-0.000179
 901	8.9550e+01	2.0707	43.865498	0.000750	7.500064	1.270545	-0.000150
 902	8.9650e+01	2.0506	43.699976	0.000831	8.310881	1.407901	-0.000166
 903	8.9749e+01	2.0307	43.526379	0.000872	8.716290	1.476580	-0.000174
 904	8.9849e+01	2.0115	43.344708	0.000912	9.121699	1.545258	-0.000183
 905	8.9948e+01	1.9912	43.163037	0.000912	9.121699	1.545258	-0.000183
 906	9.0047e+01	1.9711	43.029811	0.000669	6.689246	1.133189	-0.000134
 907	9.0147e+01	1.9515	42.831992	0.000993	9.932517	1.682614	-0.000199
 908	9.0246e+01	1.9309	42.650321	0.000912	9.121699	1.545258	-0.000183
 909	9.0346e+01	1.9109	42.513058	0.000689	6.891950	1.167528	-0.000138
 910	9.0445e+01	1.8913	42.307164	0.001034	10.337926	1.751292	-0.000207
 911	9.0545e+01	1.8714	42.133567	0.000872	8.716290	1.476580	-0.000174
 912	9.0644e+01	1.8518	41.968045	0.000831	8.310881	1.407901	-0.000166
 913	9.0744e+01	1.8308	41.806559	0.000811	8.108177	1.373562	-0.000162
 914	9.0844e+01	1.8121	41.673334	0.000669	6.689246	1.133189	-0.000134
 915	9.0943e+01	1.7912	41.443217	0.001155	11.554152	1.957326	-0.000231
 916	9.1043e+01	1.7719	41.305954	0.000689	6.891950	1.167528	-0.000138
 917	9.1142e+01	1.7516	41.132357	0.000872	8.716290	1.476580	-0.000174
 918	9.1242e+01	1.7324	40.966835	0.000831	8.310881	1.407901	-0.000166
 919	9.1341e+01	1.7122	40.764978	0.001014	10.135221	1.716953	-0.000203
 920	9.1441e+01	1.6917	40.623678	0.000709	7.094655	1.201867	-0.000142
 921	9.1540e+01	1.6721	40.458156	0.000831	8.310881	1.407901	-0.000166
 922	9.1639e+01	1.6531	40.288596	0.000851	8.513586	1.442240	-0.000170
 923	9.1739e+01	1.6331	40.110962	0.000892	8.918995	1.510919	-0.000179
 924	9.1838e+01	1.6121	39.977737	0.000669	6.689246	1.133189	-0.000134
 925	9.1938e+01	1.5921	39.779917	0.000993	9.932517	1.682614	-0.000199
 926	9.2037e+01	1.5723	39.626506	0.000770	7.702768	1.304884	-0.000154
 927	9.2137e+01	1.5524	39.420612	0.001034	10.337926	1.751292	-0.000207
 928	9.2237e+01	1.5334	39.275275	0.000730	7.297359	1.236206	-0.000146
 929	9.2336e+01	1.5133	39.085530	0.000953	9.527108	1.613936	-0.000191
 930	9.2436e+01	1.4925	38.936156	0.000750	7.500064	1.270545	-0.000150
 931	9.2535e+01	1.4727	38.786782	0.000750	7.500064	1.270545	-0.000150
 932	9.2635e+01	1.4527	38.609148	0.000892	8.918995	1.510919	-0.000179
 933	9.2734e+01	1.4340	38.423439	0.000932	9.324403	1.579597	-0.000187
 934	9.2834e+01	1.4127	38.221583	0.001014	10.135221	1.716953	-0.000203
 935	9.2933e+01	1.3937	38.080283	0.000709	7.094655	1.201867	-0.000142
 936	9.3032e+01	1.3732	37.890537	0.000953	9.527108	1.613936	-0.000191
 937	9.3132e+01	1.3532	37.757312	0.000669	6.689246	1.133189	-0.000134
 938	9.3231e+01	1.3337	37.587752	0.000851	8.513586	1.442240	-0.000170
 939	9.3331e+01	1.3139	37.345524	0.001216	12.162265	2.060344	-0.000243
 940	9.3430e+01	1.2943	37.208262	0.000689	6.891950	1.167528	-0.000138
 941	9.3530e+01	1.2737	37.038702	0.000851	8.513586	1.442240	-0.000170
 942	9.3629e+01	1.2544	36.865105	0.000872	8.716290	1.476580	-0.000174
 943	9.3729e+01	1.2347	36.699582	0.000831	8.310881	1.407901	-0.000166
 944	9.3829e+01	1.2146	36.562320	0.000689	6.891950	1.167528	-0.000138
 945	9.3928e+01	1.1951	36.340277	0.001115	11.148743	1.888648	-0.000223
 946	9.4028e+01	1.1746	36.126309	0.001074	10.743334	1.819970	-0.000215
 947	9.4127e+01	1.1549	35.985009	0.000709	7.094655	1.201867	-0.000142
 948	9.4227e+01	1.1348	35.815450	0.000851	8.513586	1.442240	-0.000170
 949	9.4326e+01	1.1147	35.633779	0.000912	9.121699	1.545258	-0.000183
 950	9.4425e+01	1.0950	35.468256	0.000831	8.310881	1.407901	-0.000166
 951	9.4525e+01	1.0756	35.294659	0.000872	8.716290	1.476580	-0.000174
 952	9.4624e+01	1.0545	35.117025	0.000892	8.918995	1.510919	-0.000179
 953	9.4724e+01	1.0357	34.955540	0.000811	8.108177	1.373562	-0.000162
 954	9.4823e+01	1.0153	34.749646	0.001034	10.337926	1.751292	-0.000207
 955	9.4923e+01	0.9946	34.567975	0.000912	9.121699	1.545258	-0.000183
 956	9.5022e+01	0.9747	34.394378	0.000872	8.716290	1.476580	-0.000174
 957	9.5122e+01	0.9559	34.208670	0.000932	9.324403	1.579597	-0.000187
 958	9.5222e+01	0.9359	34.026999	0.000912	9.121699	1.545258	-0.000183
 959	9.5321e+01	0.9159	33.893773	0.000669	6.689246	1.133189	-0.000134
 960	9.5421e+01	0.8954	33.704028	0.000953	9.527108	1.613936	-0.000191
 961	9.5520e+01	0.8769	33.510245	0.000973	9.729812	1.648275	-0.000195
 962	9.5620e+01	0.8556	33.344723	0.000831	8.310881	1.407901	-0.000166
 963	9.5719e+01	0.8363	33.159014	0.000932	9.324403	1.579597	-0.000187
 964	9.5819e+01	0.8163	33.013677	0.000730	7.297359	1.236206	-0.000146
 965	9.5918e+01	0.7956	32.811821	0.001014	10.135221	1.716953	-0.000203
 966	9.6017e+01	0.7767	32.609964	0.001014	10.135221	1.716953	-0.000203
 967	9.6117e+01	0.7559	32.460590	0.000750	7.500064	1.270545	-0.000150
 968	9.6216e+01	0.7354	32.266807	0.000973	9.729812	1.648275	-0.000195
 969	9.6316e+01	0.7143	32.085136	0.000912	9.121699	1.545258	-0.000183
 970	9.6415e+01	0.6959	31.887317	0.000993	9.932517	1.682614	-0.000199
 971	9.6515e+01	0.6764	31.737943	0.000750	7.500064	1.270545	-0.000150
 972	9.6615e+01	0.6567	31.544160	0.000973	9.729812	1.648275	-0.000195
 973	9.6714e+01	0.6363	31.406897	0.000689	6.891950	1.167528	-0.000138
 974	9.6814e+01	0.6168	31.164669	0.001216	12.162265	2.060344	-0.000243
 975	9.6913e+01	0.5968	30.991072	0.000872	8.716290	1.476580	-0.000174
 976	9.7013e+01	0.5766	30.841698	0.000750	7.500064	1.270545	-0.000150
 977	9.7112e+01	0.5576	30.639842	0.001014	10.135221	1.716953	-0.000203
 978	9.7212e+01	0.5370	30.466245	0.000872	8.716290	1.476580	-0.000174
 979	9.7311e+01	0.5165	30.284574	0.000912	9.121699	1.545258	-0.000183
 980	9.7410e+01	0.4960	30.090791	0.000973	9.729812	1.648275	-0.000195
 981	9.7510e+01	0.4771	29.933343	0.000791	7.905473	1.339223	-0.000158
 982	9.7609e+01	0.4575	29.755709	0.000892	8.918995	1.510919	-0.000179
 983	9.7709e+01	0.4369	29.565964	0.000953	9.527108	1.613936	-0.000191
 984	9.7808e+01	0.4176	29.356033	0.001054	10.540630	1.785631	-0.000211
 985	9.7908e+01	0.3978	29.206658	0.000750	7.500064	1.270545	-0.000150
 986	9.8007e+01	0.3769	29.061322	0.000730	7.297359	1.236206	-0.000146
 987	9.8107e+01	0.3572	28.851391	0.001054	10.540630	1.785631	-0.000211
 988	9.8207e+01	0.3382	28.661645	0.000953	9.527108	1.613936	-0.000191
 989	9.8306e+01	0.3188	28.484011	0.000892	8.918995	1.510919	-0.000179
 990	9.8406e+01	0.2988	28.306377	0.000892	8.918995	1.510919	-0.000179
 991	9.8505e+01	0.2776	28.088372	0.001095	10.946039	1.854309	-0.000219
 992	9.8605e+01	0.2585	27.938998	0.000750	7.500064	1.270545	-0.000150
 993	9.8704e+01	0.2384	27.729067	0.001054	10.540630	1.785631	-0.000211
 994	9.8803e+01	0.2176	27.579693	0.000750	7.500064	1.270545	-0.000150
 995	9.8903e+01	0.1977	27.410133	0.000851	8.513586	1.442240	-0.000170
 996	9.9002e+01	0.1785	27.224425	0.000932	9.324403	1.579597	-0.000187
 997	9.9102e+01	0.1591	26.998345	0.001135	11.351448	1.922987	-0.000227
 998	9.9201e+01	0.1380	26.808600	0.000953	9.527108	1.613936	-0.000191
 999	9.9301e+01	0.1185	26.598669	0.001054	10.540630	1.785631	-0.000211
1000	9.9400e+01	0.0992	26.473518	0.000628	6.283837	1.064511	-0.000126
1001	9.9500e+01	0.0792	26.227252	0.001236	12.364970	2.094683	-0.000248
1002	9.9600e+01	0.0594	26.073841	0.000770	7.702768	1.304884	-0.000154
1003	9.9699e+01	0.0393	25.880059	0.000973	9.729812	1.648275	-0.000195
1004	9.9799e+01	0.0179	25.730685	0.000750	7.500064	1.270545	-0.000150
1005	9.9898e+01	-0.0005	25.508642	0.001115	11.148743	1.888648	-0.000223
1006	9.9998e+01	-0.0183	25.351194	0.000791	7.905473	1.339223	-0.000158
1007	1.0010e+02	-0.0389	25.149337	0.001014	10.135221	1.716953	-0.000203
1008	1.0020e+02	-0.0584	24.987852	0.000811	8.108177	1.373562	-0.000162
1009	1.0030e+02	-0.0785	24.753698	0.001176	11.756857	1.991665	-0.000235
1010	1.0040e+02	-0.0984	24.584138	0.000851	8.513586	1.442240	-0.000170
1011	1.0050e+02	-0.1193	24.402467	0.000912	9.121699	1.545258	-0.000183
1012	1.0059e+02	-0.1385	24.208684	0.000973	9.729812	1.648275	-0.000195
1013	1.0069e+02	-0.1591	24.027013	0.000912	9.121699	1.545258	-0.000183
1014	1.0079e+02	-0.1788	23.821119	0.001034	10.337926	1.751292	-0.000207
1015	1.0089e+02	-0.1980	23.615225	0.001034	10.337926	1.751292	-0.000207
1016	1.0099e+02	-0.2180	23.461814	0.000770	7.702768	1.304884	-0.000154
1017	1.0109e+02	-0.2384	23.255920	0.001034	10.337926	1.751292	-0.000207
1018	1.0119e+02	-0.2586	23.074249	0.000912	9.121699	1.545258	-0.000183
1019	1.0129e+02	-0.2779	22.912764	0.000811	8.108177	1.373562	-0.000162
1020	1.0139e+02	-0.2972	22.731093	0.000912	9.121699	1.545258	-0.000183
1021	1.0149e+02	-0.3175	22.500976	0.001155	11.554152	1.957326	-0.000231
1022	1.0159e+02	-0.3373	22.315268	0.000932	9.324403	1.579597	-0.000187
1023	1.0169e+02	-0.3574	22.153782	0.000811	8.108177	1.373562	-0.000162
1024	1.0179e+02	-0.3775	21.960000	0.000973	9.729812	1.648275	-0.000195
1025	1.0189e+02	-0.3977	21.770254	0.000953	9.527108	1.613936	-0.000191
1026	1.0199e+02	-0.4173	21.580509	0.000953	9.527108	1.613936	-0.000191
1027	1.0209e+02	-0.4381	21.386727	0.000973	9.729812	1.648275	-0.000195
1028	1.0219e+02	-0.4568	21.188907	0.000993	9.932517	1.682614	-0.000199
1029	1.0229e+02	-0.4781	20.987050	0.001014	10.135221	1.716953	-0.000203
1030	1.0239e+02	-0.4976	20.801342	0.000932	9.324403	1.579597	-0.000187
1031	1.0248e+02	-0.5166	20.639856	0.000811	8.108177	1.373562	-0.000162
1032	1.0258e+02	-0.5373	20.433963	0.001034	10.337926	1.751292	-0.000207
1033	1.0268e+02	-0.5559	20.232106	0.001014	10.135221	1.716953	-0.000203
1034	1.0278e+02	-0.5769	20.070620	0.000811	8.108177	1.373562	-0.000162
1035	1.0288e+02	-0.5970	19.872801	0.000993	9.932517	1.682614	-0.000199
1036	1.0298e+02	-0.6165	19.703241	0.000851	8.513586	1.442240	-0.000170
1037	1.0308e+02	-0.6367	19.485236	0.001095	10.946039	1.854309	-0.000219
1038	1.0318e+02	-0.6571	19.291453	0.000973	9.729812	1.648275	-0.000195
1039	1.0328e+02	-0.6767	19.081522	0.001054	10.540630	1.785631	-0.000211
1040	1.0338e+02	-0.6973	18.924074	0.000791	7.905473	1.339223	-0.000158
1041	1.0348e+02	-0.7171	18.734328	0.000953	9.527108	1.613936	-0.000191
1042	1.0358e+02	-0.7359	18.548620	0.000932	9.324403	1.579597	-0.000187
1043	1.0368e+02	-0.7561	18.362912	0.000932	9.324403	1.579597	-0.000187
1044	1.0378e+02	-0.7760	18.140869	0.001115	11.148743	1.888648	-0.000223
1045	1.0388e+02	-0.7954	17.963235	0.000892	8.918995	1.510919	-0.000179
1046	1.0398e+02	-0.8166	17.753304	0.001054	10.540630	1.785631	-0.000211
1047	1.0408e+02	-0.8354	17.595856	0.000791	7.905473	1.339223	-0.000158
1048	1.0418e+02	-0.8562	17.418222	0.000892	8.918995	1.510919	-0.000179
1049	1.0428e+02	-0.8760	17.232514	0.000932	9.324403	1.579597	-0.000187
1050	1.0438e+02	-0.8968	17.030657	0.001014	10.135221	1.716953	-0.000203
1051	1.0447e+02	-0.9159	16.836875	0.000973	9.729812	1.648275	-0.000195
1052	1.0457e+02	-0.9357	16.598684	0.001196	11.959561	2.026004	-0.000239
1053	1.0467e+02	-0.9557	16.485644	0.000568	5.675724	0.961494	-0.000114
1054	1.0477e+02	-0.9759	16.271676	0.001074	10.743334	1.819970	-0.000215
1055	1.0487e+02	-0.9950	16.041559	0.001155	11.554152	1.957326	-0.000231
1056	1.0497e+02	-1.0155	15.888148	0.000770	7.702768	1.304884	-0.000154
1057	1.0507e+02	-1.0347	15.738774	0.000750	7.500064	1.270545	-0.000150
1058	1.0517e+02	-1.0551	15.500583	0.001196	11.959561	2.026004	-0.000239
1059	1.0527e+02	-1.0752	15.335060	0.000831	8.310881	1.407901	-0.000166
1060	1.0537e+02	-1.0953	15.129166	0.001034	10.337926	1.751292	-0.000207
1061	1.0547e+02	-1.1151	14.923272	0.001034	10.337926	1.751292	-0.000207
1062	1.0557e+02	-1.1359	14.749675	0.000872	8.716290	1.476580	-0.000174
1063	1.0567e+02	-1.1532	14.519559	0.001155	11.554152	1.957326	-0.000231
1064	1.0577e+02	-1.1746	14.378259	0.000709	7.094655	1.201867	-0.000142
1065	1.0587e+02	-1.1943	14.160254	0.001095	10.946039	1.854309	-0.000219
1066	1.0597e+02	-1.2153	13.954360	0.001034	10.337926	1.751292	-0.000207
1067	1.0607e+02	-1.2338	13.780763	0.000872	8.716290	1.476580	-0.000174
1068	1.0617e+02	-1.2548	13.603129	0.000892	8.918995	1.510919	-0.000179
1069	1.0627e+02	-1.2740	13.409346	0.000973	9.729812	1.648275	-0.000195
1070	1.0637e+02	-1.2947	13.227675	0.000912	9.121699	1.545258	-0.000183
1071	1.0647e+02	-1.3145	13.033893	0.000973	9.729812	1.648275	-0.000195
1072	1.0656e+02	-1.3336	12.852222	0.000912	9.121699	1.545258	-0.000183
1073	1.0666e+02	-1.3535	12.654402	0.000993	9.932517	1.682614	-0.000199
1074	1.0676e+02	-1.3743	12.432360	0.001115	11.148743	1.888648	-0.000223
1075	1.0686e+02	-1.3940	12.226466	0.001034	10.337926	1.751292	-0.000207
1076	1.0696e+02	-1.4126	12.048832	0.000892	8.918995	1.510919	-0.000179
1077	1.0706e+02	-1.4331	11.842938	0.001034	10.337926	1.751292	-0.000207
1078	1.0716e+02	-1.4534	11.649155	0.000973	9.729812	1.648275	-0.000195
1079	1.0726e+02	-1.4737	11.532078	0.000588	5.878428	0.995833	-0.000118
1080	1.0736e+02	-1.4935	11.293887	0.001196	11.959561	2.026004	-0.000239
1081	1.0746e+02	-1.5128	11.120290	0.000872	8.716290	1.476580	-0.000174
1082	1.0756e+02	-1.5337	10.918434	0.001014	10.135221	1.716953	-0.000203
1083	1.0766e+02	-1.5530	10.720614	0.000993	9.932517	1.682614	-0.000199
1084	1.0776e+02	-1.5741	10.534906	0.000932	9.324403	1.579597	-0.000187
1085	1.0786e+02	-1.5941	10.365346	0.000851	8.513586	1.442240	-0.000170
1086	1.0796e+02	-1.6130	10.195786	0.000851	8.513586	1.442240	-0.000170
1087	1.0806e+02	-1.6324	9.985855	0.001054	10.540630	1.785631	-0.000211
1088	1.0816e+02	-1.6526	9.767850	0.001095	10.946039	1.854309	-0.000219
1089	1.0826e+02	-1.6722	9.598290	0.000851	8.513586	1.442240	-0.000170
1090	1.0836e+02	-1.6926	9.424693	0.000872	8.716290	1.476580	-0.000174
1091	1.0845e+02	-1.7123	9.214762	0.001054	10.540630	1.785631	-0.000211
1092	1.0855e+02	-1.7322	9.008868	0.001034	10.337926	1.751292	-0.000207
1093	1.0865e+02	-1.7532	8.831234	0.000892	8.918995	1.510919	-0.000179
1094	1.0875e+02	-1.7712	8.641489	0.000953	9.527108	1.613936	-0.000191
1095	1.0885e+02	-1.7921	8.455781	0.000932	9.324403	1.579597	-0.000187
1096	1.0895e+02	-1.8122	8.294295	0.000811	8.108177	1.373562	-0.000162
1097	1.0905e+02	-1.8330	8.092439	0.001014	10.135221	1.716953	-0.000203
1098	1.0915e+02	-1.8527	7.939027	0.000770	7.702768	1.304884	-0.000154
1099	1.0925e+02	-1.8725	7.733134	0.001034	10.337926	1.751292	-0.000207
1100	1.0935e+02	-1.8928	7.547425	0.000932	9.324403	1.579597	-0.000187
1101	1.0945e+02	-1.9120	7.345568	0.001014	10.135221	1.716953	-0.000203
1102	1.0955e+02	-1.9317	7.171972	0.000872	8.716290	1.476580	-0.000174
1103	1.0965e+02	-1.9526	6.941855	0.001155	11.554152	1.957326	-0.000231
1104	1.0975e+02	-1.9719	6.768258	0.000872	8.716290	1.476580	-0.000174
1105	1.0985e+02	-1.9916	6.586587	0.000912	9.121699	1.545258	-0.000183
1106	1.0995e+02	-2.0120	6.396842	0.000953	9.527108	1.613936	-0.000191
1107	1.1005e+02	-2.0324	6.223245	0.000872	8.716290	1.476580	-0.000174
1108	1.1015e+02	-2.0516	6.001202	0.001115	11.148743	1.888648	-0.000223
1109	1.1025e+02	-2.0710	5.859903	0.000709	7.094655	1.201867	-0.000142
1110	1.1035e+02	-2.0905	5.649971	0.001054	10.540630	1.785631	-0.000211
1111	1.1044e+02	-2.1102	5.464263	0.000932	9.324403	1.579597	-0.000187
1112	1.1054e+02	-2.1314	5.254332	0.001054	10.540630	1.785631	-0.000211
1113	1.1064e+02	-2.1501	5.068624	0.000932	9.324403	1.579597	-0.000187
1114	1.1074e+02	-2.1715	4.870804	0.000993	9.932517	1.682614	-0.000199
1115	1.1084e+02	-2.1907	4.709319	0.000811	8.108177	1.373562	-0.000162
1116	1.1094e+02	-2.2105	4.503425	0.001034	10.337926	1.751292	-0.000207
1117	1.1104e+02	-2.2305	4.313680	0.000953	9.527108	1.613936	-0.000191
1118	1.1114e+02	-2.2512	4.132008	0.000912	9.121699	1.545258	-0.000183
1119	1.1124e+02	-2.2705	3.918040	0.001074	10.743334	1.819970	-0.000215
1120	1.1134e+02	-2.2899	3.720221	0.000993	9.932517	1.682614	-0.000199
1121	1.1144e+02	-2.3106	3.554698	0.000831	8.310881	1.407901	-0.000166
1122	1.1154e+02	-2.3306	3.389175	0.000831	8.310881	1.407901	-0.000166
1123	1.1164e+02	-2.3507	3.187319	0.001014	10.135221	1.716953	-0.000203
1124	1.1174e+02	-2.3700	2.997573	0.000953	9.527108	1.613936	-0.000191
1125	1.1184e+02	-2.3904	2.803791	0.000973	9.729812	1.648275	-0.000195
1126	1.1194e+02	-2.4100	2.577711	0.001135	11.351448	1.922987	-0.000227
1127	1.1204e+02	-2.4309	2.432374	0.000730	7.297359	1.236206	-0.000146
1128	1.1214e+02	-2.4500	2.250703	0.000912	9.121699	1.545258	-0.000183
1129	1.1224e+02	-2.4702	2.040772	0.001054	10.540630	1.785631	-0.000211
1130	1.1234e+02	-2.4908	1.879287	0.000811	8.108177	1.373562	-0.000162
1131	1.1244e+02	-2.5102	1.689541	0.000953	9.527108	1.613936	-0.000191
1132	1.1253e+02	-2.5288	1.479610	0.001054	10.540630	1.785631	-0.000211
1133	1.1263e+02	-2.5488	1.297939	0.000912	9.121699	1.545258	-0.000183
1134	1.1273e+02	-2.5688	1.088008	0.001054	10.540630	1.785631	-0.000211
1135	1.1283e+02	-2.5883	0.914411	0.000872	8.716290	1.476580	-0.000174
1136	1.1293e+02	-2.6083	0.761000	0.000770	7.702768	1.304884	-0.000154
1137	1.1303e+02	-2.6282	0.547032	0.001074	10.743334	1.819970	-0.000215
1138	1.1313e+02	-2.6485	0.365361	0.000912	9.121699	1.545258	-0.000183
1139	1.1323e+02	-2.6685	0.187727	0.000892	8.918995	1.510919	-0.000179
1140	1.1333e+02	-2.6897	-0.006056	0.000973	9.729812	1.648275	-0.000195
1141	1.1343e+02	-2.7090	-0.207912	0.001014	10.135221	1.716953	-0.000203
1142	1.1353e+02	-2.7290	-0.397658	0.000953	9.527108	1.613936	-0.000191
1143	1.1363e+02	-2.7470	-0.559143	0.000811	8.108177	1.373562	-0.000162
1144	1.1373e+02	-2.7695	-0.752926	0.000973	9.729812	1.648275	-0.000195
1145	1.1383e+02	-2.7875	-0.918448	0.000831	8.310881	1.407901	-0.000166
1146	1.1393e+02	-2.8085	-1.108194	0.000953	9.527108	1.613936	-0.000191
1147	1.1403e+02	-2.8281	-1.301976	0.000973	9.729812	1.648275	-0.000195
1148	1.1413e+02	-2.8482	-1.467499	0.000831	8.310881	1.407901	-0.000166
1149	1.1423e+02	-2.8683	-1.633021	0.000831	8.310881	1.407901	-0.000166
1150	1.1433e+02	-2.8878	-1.871212	0.001196	11.959561	2.026004	-0.000239
1151	1.1442e+02	-2.9070	-2.020586	0.000750	7.500064	1.270545	-0.000150
1152	1.1452e+02	-2.9278	-2.222443	0.001014	10.135221	1.716953	-0.000203
1153	1.1462e+02	-2.9471	-2.428337	0.001034	10.337926	1.751292	-0.000207
1154	1.1472e+02	-2.9671	-2.585785	0.000791	7.905473	1.339223	-0.000158
1155	1.1482e+02	-2.9873	-2.759382	0.000872	8.716290	1.476580	-0.000174
1156	1.1492e+02	-3.0087	-2.969313	0.001054	10.540630	1.785631	-0.000211
1157	1.1502e+02	-3.0271	-3.122724	0.000770	7.702768	1.304884	-0.000154
1158	1.1512e+02	-3.0469	-3.328618	0.001034	10.337926	1.751292	-0.000207
1159	1.1522e+02	-3.0672	-3.494141	0.000831	8.310881	1.407901	-0.000166
1160	1.1532e+02	-3.0870	-3.675812	0.000912	9.121699	1.545258	-0.000183
1161	1.1542e+02	-3.1067	-3.877669	0.001014	10.135221	1.716953	-0.000203
1162	1.1552e+02	-3.1273	-4.067414	0.000953	9.527108	1.613936	-0.000191
1163	1.1562e+02	-3.1473	-4.269271	0.001014	10.135221	1.716953	-0.000203
1164	1.1572e+02	-3.1660	-4.446905	0.000892	8.918995	1.510919	-0.000179
1165	1.1582e+02	-3.1860	-4.632613	0.000932	9.324403	1.579597	-0.000187
1166	1.1592e+02	-3.2064	-4.802173	0.000851	8.513586	1.442240	-0.000170
1167	1.1602e+02	-3.2263	-4.987881	0.000932	9.324403	1.579597	-0.000187
1168	1.1612e+02	-3.2466	-5.189738	0.001014	10.135221	1.716953	-0.000203
1169	1.1622e+02	-3.2664	-5.387558	0.000993	9.932517	1.682614	-0.000199
1170	1.1632e+02	-3.2860	-5.561154	0.000872	8.716290	1.476580	-0.000174
1171	1.1642e+02	-3.3064	-5.746863	0.000932	9.324403	1.579597	-0.000187
1172	1.1651e+02	-3.3266	-5.940645	0.000973	9.729812	1.648275	-0.000195
1173	1.1661e+02	-3.3462	-6.130391	0.000953	9.527108	1.613936	-0.000191
1174	1.1671e+02	-3.3667	-6.348396	0.001095	10.946039	1.854309	-0.000219
1175	1.1681e+02	-3.3864	-6.509881	0.000811	8.108177	1.373562	-0.000162
1176	1.1691e+02	-3.4061	-6.691552	0.000912	9.121699	1.545258	-0.000183
1177	1.1701e+02	-3.4269	-6.844964	0.000770	7.702768	1.304884	-0.000154
1178	1.1711e+02	-3.4457	-7.079118	0.001176	11.756857	1.991665	-0.000235
1179	1.1721e+02	-3.4653	-7.244640	0.000831	8.310881	1.407901	-0.000166
1180	1.1731e+02	-3.4862	-7.402088	0.000791	7.905473	1.339223	-0.000158
1181	1.1741e+02	-3.5059	-7.624131	0.001115	11.148743	1.888648	-0.000223
1182	1.1751e+02	-3.5249	-7.789653	0.000831	8.310881	1.407901	-0.000166
1183	1.1761e+02	-3.5460	-7.983436	0.000973	9.729812	1.648275	-0.000195
1184	1.1771e+02	-3.5648	-8.201441	0.001095	10.946039	1.854309	-0.000219
1185	1.1781e+02	-3.5848	-8.362927	0.000811	8.108177	1.373562	-0.000162
1186	1.1791e+02	-3.6050	-8.536524	0.000872	8.716290	1.476580	-0.000174
1187	1.1801e+02	-3.6258	-8.738380	0.001014	10.135221	1.716953	-0.000203
1188	1.1811e+02	-3.6451	-8.879680	0.000709	7.094655	1.201867	-0.000142
1189	1.1821e+02	-3.6657	-9.053277	0.000872	8.716290	1.476580	-0.000174
1190	1.1831e+02	-3.6852	-9.259171	0.001034	10.337926	1.751292	-0.000207
1191	1.1841e+02	-3.7047	-9.444879	0.000932	9.324403	1.579597	-0.000187
1192	1.1850e+02	-3.7244	-9.634624	0.000953	9.527108	1.613936	-0.000191
1193	1.1860e+02	-3.7456	-9.836481	0.001014	10.135221	1.716953	-0.000203
1194	1.1870e+02	-3.7646	-10.002004	0.000831	8.310881	1.407901	-0.000166
1195	1.1880e+02	-3.7833	-10.179638	0.000892	8.918995	1.510919	-0.000179
1196	1.1890e+02	-3.8036	-10.373420	0.000973	9.729812	1.648275	-0.000195
1197	1.1900e+02	-3.8235	-10.534906	0.000811	8.108177	1.373562	-0.000162
1198	1.1910e+02	-3.8438	-10.720614	0.000932	9.324403	1.579597	-0.000187
1199	1.1920e+02	-3.8647	-10.942656	0.001115	11.148743	1.888648	-0.000223
1200	1.1930e+02	-3.8840	-11.104142	0.000811	8.108177	1.373562	-0.000162
1201	1.1940e+02	-3.9038	-11.273702	0.000851	8.513586	1.442240	-0.000170
1202	1.1950e+02	-3.9234	-11.463447	0.000953	9.527108	1.613936	-0.000191
1203	1.1960e+02	-3.9431	-11.637044	0.000872	8.716290	1.476580	-0.000174
1204	1.1970e+02	-3.9646	-11.810641	0.000872	8.716290	1.476580	-0.000174
1205	1.1980e+02	-3.9832	-11.996349	0.000932	9.324403	1.579597	-0.000187
1206	1.1990e+02	-4.0042	-12.173983	0.000892	8.918995	1.510919	-0.000179
1207	1.2000e+02	-4.0227	-12.351617	0.000892	8.918995	1.510919	-0.000179
1208	1.2010e+02	-4.0431	-12.517139	0.000831	8.310881	1.407901	-0.000166
1209	1.2020e+02	-4.0627	-12.678625	0.000811	8.108177	1.373562	-0.000162
1210	1.2030e+02	-4.0829	-12.908742	0.001155	11.554152	1.957326	-0.000231
1211	1.2039e+02	-4.1035	-13.058116	0.000750	7.500064	1.270545	-0.000150
1212	1.2049e+02	-4.1228	-13.231712	0.000872	8.716290	1.476580	-0.000174
1213	1.2059e+02	-4.1436	-13.437606	0.001034	10.337926	1.751292	-0.000207
1214	1.2069e+02	-4.1624	-13.643500	0.001034	10.337926	1.751292	-0.000207
1215	1.2079e+02	-4.1820	-13.764614	0.000608	6.081133	1.030172	-0.000122
1216	1.2089e+02	-4.2020	-13.934174	0.000851	8.513586	1.442240	-0.000170
1217	1.2099e+02	-4.2221	-14.131994	0.000993	9.932517	1.682614	-0.000199
1218	1.2109e+02	-4.2422	-14.313665	0.000912	9.121699	1.545258	-0.000183
1219	1.2119e+02	-4.2629	-14.487262	0.000872	8.716290	1.476580	-0.000174
1220	1.2129e+02	-4.2825	-14.648747	0.000811	8.108177	1.373562	-0.000162
1221	1.2139e+02	-4.3023	-14.858678	0.001054	10.540630	1.785631	-0.000211
1222	1.2149e+02	-4.3221	-14.983829	0.000628	6.283837	1.064511	-0.000126
1223	1.2159e+02	-4.3422	-15.222020	0.001196	11.959561	2.026004	-0.000239
1224	1.2169e+02	-4.3622	-15.387543	0.000831	8.310881	1.407901	-0.000166
1225	1.2179e+02	-4.3823	-15.540954	0.000770	7.702768	1.304884	-0.000154
1226	1.2189e+02	-4.4019	-15.714551	0.000872	8.716290	1.476580	-0.000174
1227	1.2199e+02	-4.4220	-15.912371	0.000993	9.932517	1.682614	-0.000199
1228	1.2209e+02	-4.4417	-16.114227	0.001014	10.135221	1.716953	-0.000203
1229	1.2219e+02	-4.4611	-16.275713	0.000811	8.108177	1.373562	-0.000162
1230	1.2229e+02	-4.4821	-16.457384	0.000912	9.121699	1.545258	-0.000183
1231	1.2239e+02	-4.5012	-16.630981	0.000872	8.716290	1.476580	-0.000174
1232	1.2248e+02	-4.5216	-16.816689	0.000932	9.324403	1.579597	-0.000187
1233	1.2258e+02	-4.5410	-17.030657	0.001074	10.743334	1.819970	-0.000215
1234	1.2268e+02	-4.5614	-17.175994	0.000730	7.297359	1.236206	-0.000146
1235	1.2278e+02	-4.5810	-17.361702	0.000932	9.324403	1.579597	-0.000187
1236	1.2288e+02	-4.6011	-17.515113	0.000770	7.702768	1.304884	-0.000154
1237	1.2298e+02	-4.6214	-17.708896	0.000973	9.729812	1.648275	-0.000195
1238	1.2308e+02	-4.6416	-17.906716	0.000993	9.932517	1.682614	-0.000199
1239	1.2318e+02	-4.6603	-18.068201	0.000811	8.108177	1.373562	-0.000162
1240	1.2328e+02	-4.6803	-18.261984	0.000973	9.729812	1.648275	-0.000195
1241	1.2338e+02	-4.7008	-18.439617	0.000892	8.918995	1.510919	-0.000179
1242	1.2348e+02	-4.7204	-18.609177	0.000851	8.513586	1.442240	-0.000170
1243	1.2358e+02	-4.7407	-18.798923	0.000953	9.527108	1.613936	-0.000191
1244	1.2368e+02	-4.7597	-18.980594	0.000912	9.121699	1.545258	-0.000183
1245	1.2378e+02	-4.7804	-19.154191	0.000872	8.716290	1.476580	-0.000174
1246	1.2388e+02	-4.8008	-19.339899	0.000932	9.324403	1.579597	-0.000187
1247	1.2398e+02	-4.8207	-19.505421	0.000831	8.310881	1.407901	-0.000166
1248	1.2408e+02	-4.8400	-19.670944	0.000831	8.310881	1.407901	-0.000166
1249	1.2418e+02	-4.8598	-19.856652	0.000932	9.324403	1.579597	-0.000187
1250	1.2428e+02	-4.8807	-20.042360	0.000932	9.324403	1.579597	-0.000187
1251	1.2438e+02	-4.8998	-20.187697	0.000730	7.297359	1.236206	-0.000146
1252	1.2447e+02	-4.9199	-20.389554	0.001014	10.135221	1.716953	-0.000203
1253	1.2457e+02	-4.9397	-20.551039	0.000811	8.108177	1.373562	-0.000162
1254	1.2467e+02	-4.9604	-20.740785	0.000953	9.527108	1.613936	-0.000191
1255	1.2477e+02	-4.9796	-20.865936	0.000628	6.283837	1.064511	-0.000126
1256	1.2487e+02	-5.0012	-21.079904	0.001074	10.743334	1.819970	-0.000215
1257	1.2497e+02	-5.0198	-21.253501	0.000872	8.716290	1.476580	-0.000174
1258	1.2507e+02	-5.0391	-21.443246	0.000953	9.527108	1.613936	-0.000191
1259	1.2517e+02	-5.0598	-21.608769	0.000831	8.310881	1.407901	-0.000166
1260	1.2527e+02	-5.0789	-21.782366	0.000872	8.716290	1.476580	-0.000174
1261	1.2537e+02	-5.0993	-21.947888	0.000831	8.310881	1.407901	-0.000166
1262	1.2547e+02	-5.1184	-22.113411	0.000831	8.310881	1.407901	-0.000166
1263	1.2557e+02	-5.1389	-22.331416	0.001095	10.946039	1.854309	-0.000219
1264	1.2567e+02	-5.1585	-22.476753	0.000730	7.297359	1.236206	-0.000146
1265	1.2577e+02	-5.1791	-22.666499	0.000953	9.527108	1.613936	-0.000191
1266	1.2587e+02	-5.1991	-22.823947	0.000791	7.905473	1.339223	-0.000158
1267	1.2597e+02	-5.2182	-22.989469	0.000831	8.310881	1.407901	-0.000166
1268	1.2607e+02	-5.2390	-23.159029	0.000851	8.513586	1.442240	-0.000170
1269	1.2617e+02	-5.2583	-23.368960	0.001054	10.540630	1.785631	-0.000211
1270	1.2627e+02	-5.2789	-23.550631	0.000912	9.121699	1.545258	-0.000183
1271	1.2636e+02	-5.2981	-23.756525	0.001034	10.337926	1.751292	-0.000207
1272	1.2646e+02	-5.3182	-23.909936	0.000770	7.702768	1.304884	-0.000154
1273	1.2656e+02	-5.3384	-24.099682	0.000953	9.527108	1.613936	-0.000191
1274	1.2666e+02	-5.3576	-24.289427	0.000953	9.527108	1.613936	-0.000191
1275	1.2676e+02	-5.3773	-24.467061	0.000892	8.918995	1.510919	-0.000179
1276	1.2686e+02	-5.3976	-24.624509	0.000791	7.905473	1.339223	-0.000158
1277	1.2696e+02	-5.4178	-24.846552	0.001115	11.148743	1.888648	-0.000223
1278	1.2706e+02	-5.4381	-25.008037	0.000811	8.108177	1.373562	-0.000162
1279	1.2716e+02	-5.4570	-25.193746	0.000932	9.324403	1.579597	-0.000187
1280	1.2726e+02	-5.4782	-25.383491	0.000953	9.527108	1.613936	-0.000191
1281	1.2736e+02	-5.4967	-25.540939	0.000791	7.905473	1.339223	-0.000158
1282	1.2746e+02	-5.5164	-25.734722	0.000973	9.729812	1.648275	-0.000195
1283	1.2756e+02	-5.5385	-25.920430	0.000932	9.324403	1.579597	-0.000187
1284	1.2766e+02	-5.5560	-26.114213	0.000973	9.729812	1.648275	-0.000195
1285	1.2776e+02	-5.5775	-26.312032	0.000993	9.932517	1.682614	-0.000199
1286	1.2786e+02	-5.5968	-26.501778	0.000953	9.527108	1.613936	-0.000191
1287	1.2796e+02	-5.6166	-26.663263	0.000811	8.108177	1.373562	-0.000162
1288	1.2806e+02	-5.6372	-26.816674	0.000770	7.702768	1.304884	-0.000154
1289	1.2816e+02	-5.6573	-27.054865	0.001196	11.959561	2.026004	-0.000239
1290	1.2826e+02	-5.6759	-27.212313	0.000791	7.905473	1.339223	-0.000158
1291	1.2835e+02	-5.6964	-27.406096	0.000973	9.729812	1.648275	-0.000195
1292	1.2845e+02	-5.7163	-27.587767	0.000912	9.121699	1.545258	-0.000183
1293	1.2855e+02	-5.7373	-27.789624	0.001014	10.135221	1.716953	-0.000203
1294	1.2865e+02	-5.7567	-27.947072	0.000791	7.905473	1.339223	-0.000158
1295	1.2875e+02	-5.7764	-28.181226	0.001176	11.756857	1.991665	-0.000235
1296	1.2885e+02	-5.7956	-28.383083	0.001014	10.135221	1.716953	-0.000203
1297	1.2895e+02	-5.8152	-28.532457	0.000750	7.500064	1.270545	-0.000150
1298	1.2905e+02	-5.8362	-28.734314	0.001014	10.135221	1.716953	-0.000203
1299	1.2915e+02	-5.8556	-28.936170	0.001014	10.135221	1.716953	-0.000203
1300	1.2925e+02	-5.8754	-29.129953	0.000973	9.729812	1.648275	-0.000195
1301	1.2935e+02	-5.8955	-29.323735	0.000973	9.729812	1.648275	-0.000195
1302	1.2945e+02	-5.9158	-29.517518	0.000973	9.729812	1.648275	-0.000195
1303	1.2955e+02	-5.9349	-29.687078	0.000851	8.513586	1.442240	-0.000170
1304	1.2965e+02	-5.9552	-29.925269	0.001196	11.959561	2.026004	-0.000239
1305	1.2975e+02	-5.9752	-30.086754	0.000811	8.108177	1.373562	-0.000162
1306	1.2985e+02	-5.9961	-30.316871	0.001155	11.554152	1.957326	-0.000231
1307	1.2995e+02	-6.0155	-30.466245	0.000750	7.500064	1.270545	-0.000150
1308	1.3005e+02	-6.0347	-30.680213	0.001074	10.743334	1.819970	-0.000215
1309	1.3015e+02	-6.0561	-30.845736	0.000831	8.310881	1.407901	-0.000166
1310	1.3025e+02	-6.0760	-31.055667	0.001054	10.540630	1.785631	-0.000211
1311	1.3034e+02	-6.0958	-31.233301	0.000892	8.918995	1.510919	-0.000179
1312	1.3044e+02	-6.1151	-31.447269	0.001074	10.743334	1.819970	-0.000215
1313	1.3054e+02	-6.1342	-31.661237	0.001074	10.743334	1.819970	-0.000215
1314	1.3064e+02	-6.1554	-31.826760	0.000831	8.310881	1.407901	-0.000166
1315	1.3074e+02	-6.1748	-32.085136	0.001297	12.973083	2.197700	-0.000260
1316	1.3084e+02	-6.1951	-32.250659	0.000831	8.310881	1.407901	-0.000166
1317	1.3094e+02	-6.2146	-32.440404	0.000953	9.527108	1.613936	-0.000191
1318	1.3104e+02	-6.2350	-32.650335	0.001054	10.540630	1.785631	-0.000211
1319	1.3114e+02	-6.2547	-32.803746	0.000770	7.702768	1.304884	-0.000154
1320	1.3124e+02	-6.2749	-33.054049	0.001257	12.567674	2.129022	-0.000252
1321	1.3134e+02	-6.2944	-33.251869	0.000993	9.932517	1.682614	-0.000199
1322	1.3144e+02	-6.3145	-33.441614	0.000953	9.527108	1.613936	-0.000191
1323	1.3154e+02	-6.3344	-33.695953	0.001277	12.770379	2.163361	-0.000256
1324	1.3164e+02	-6.3541	-33.857439	0.000811	8.108177	1.373562	-0.000162
1325	1.3174e+02	-6.3735	-34.059296	0.001014	10.135221	1.716953	-0.000203
1326	1.3184e+02	-6.3950	-34.301524	0.001216	12.162265	2.060344	-0.000243
1327	1.3194e+02	-6.4142	-34.543752	0.001216	12.162265	2.060344	-0.000243
1328	1.3204e+02	-6.4340	-34.701200	0.000791	7.905473	1.339223	-0.000158
1329	1.3214e+02	-6.4542	-34.911131	0.001054	10.540630	1.785631	-0.000211
1330	1.3224e+02	-6.4755	-35.161434	0.001257	12.567674	2.129022	-0.000252
1331	1.3234e+02	-6.4934	-35.330993	0.000851	8.513586	1.442240	-0.000170
1332	1.3243e+02	-6.5147	-35.593407	0.001318	13.175788	2.232039	-0.000264
1333	1.3253e+02	-6.5329	-35.787190	0.000973	9.729812	1.648275	-0.000195
1334	1.3263e+02	-6.5527	-35.964824	0.000892	8.918995	1.510919	-0.000179
1335	1.3273e+02	-6.5736	-36.223200	0.001297	12.973083	2.197700	-0.000260
1336	1.3283e+02	-6.5933	-36.408909	0.000932	9.324403	1.579597	-0.000187
1337	1.3293e+02	-6.6139	-36.663248	0.001277	12.770379	2.163361	-0.000256
1338	1.3303e+02	-6.6329	-36.873179	0.001054	10.540630	1.785631	-0.000211
1339	1.3313e+02	-6.6533	-37.050813	0.000892	8.918995	1.510919	-0.000179
1340	1.3323e+02	-6.6732	-37.293041	0.001216	12.162265	2.060344	-0.000243
1341	1.3333e+02	-6.6925	-37.515084	0.001115	11.148743	1.888648	-0.000223
1342	1.3343e+02	-6.7122	-37.749238	0.001176	11.756857	1.991665	-0.000235
1343	1.3353e+02	-6.7325	-37.983392	0.001176	11.756857	1.991665	-0.000235
1344	1.3363e+02	-6.7528	-38.209471	0.001135	11.351448	1.922987	-0.000227
1345	1.3373e+02	-6.7720	-38.431514	0.001115	11.148743	1.888648	-0.000223
1346	1.3383e+02	-6.7930	-38.697965	0.001338	13.378492	2.266378	-0.000268
1347	1.3393e+02	-6.8137	-38.867524	0.000851	8.513586	1.442240	-0.000170
1348	1.3403e+02	-6.8330	-39.109752	0.001216	12.162265	2.060344	-0.000243
1349	1.3413e+02	-6.8518	-39.368129	0.001297	12.973083	2.197700	-0.000260
1350	1.3423e+02	-6.8713	-39.561912	0.000973	9.729812	1.648275	-0.000195
1351	1.3432e+02	-6.8918	-39.796066	0.001176	11.756857	1.991665	-0.000235
1352	1.3442e+02	-6.9117	-40.046368	0.001257	12.567674	2.129022	-0.000252
1353	1.3452e+02	-6.9320	-40.272448	0.001135	11.351448	1.922987	-0.000227
1354	1.3462e+02	-6.9516	-40.494490	0.001115	11.148743	1.888648	-0.000223
1355	1.3472e+02	-6.9727	-40.740755	0.001236	12.364970	2.094683	-0.000248
1356	1.3482e+02	-6.9926	-41.003169	0.001318	13.175788	2.232039	-0.000264
1357	1.3492e+02	-7.0112	-41.180803	0.000892	8.918995	1.510919	-0.000179
1358	1.3502e+02	-7.0322	-41.435143	0.001277	12.770379	2.163361	-0.000256
1359	1.3512e+02	-7.0513	-41.697556	0.001318	13.175788	2.232039	-0.000264
1360	1.3522e+02	-7.0712	-41.923636	0.001135	11.351448	1.922987	-0.000227
1361	1.3532e+02	-7.0906	-42.157790	0.001176	11.756857	1.991665	-0.000235
1362	1.3542e+02	-7.1115	-42.363684	0.001034	10.337926	1.751292	-0.000207
1363	1.3552e+02	-7.1316	-42.642246	0.001399	13.986605	2.369395	-0.000280
1364	1.3562e+02	-7.1513	-42.872363	0.001155	11.554152	1.957326	-0.000231
1365	1.3572e+02	-7.1716	-43.110554	0.001196	11.959561	2.026004	-0.000239
1366	1.3582e+02	-7.1912	-43.340671	0.001155	11.554152	1.957326	-0.000231
1367	1.3592e+02	-7.2116	-43.611159	0.001358	13.581196	2.300717	-0.000272
1368	1.3602e+02	-7.2310	-43.837238	0.001135	11.351448	1.922987	-0.000227
1369	1.3612e+02	-7.2514	-44.099652	0.001318	13.175788	2.232039	-0.000264
1370	1.3622e+02	-7.2704	-44.329769	0.001155	11.554152	1.957326	-0.000231
1371	1.3631e+02	-7.2919	-44.576034	0.001236	12.364970	2.094683	-0.000248
1372	1.3641e+02	-7.3103	-44.874782	0.001500	15.000127	2.541090	-0.000300
1373	1.3651e+02	-7.3305	-45.133159	0.001297	12.973083	2.197700	-0.000260
1374	1.3661e+02	-7.3499	-45.351164	0.001095	10.946039	1.854309	-0.000219
1375	1.3671e+02	-7.3698	-45.577244	0.001135	11.351448	1.922987	-0.000227
1376	1.3681e+02	-7.3912	-45.875992	0.001500	15.000127	2.541090	-0.000300
1377	1.3691e+02	-7.4106	-46.081886	0.001034	10.337926	1.751292	-0.000207
1378	1.3701e+02	-7.4303	-46.364485	0.001419	14.189310	2.403734	-0.000284
1379	1.3711e+02	-7.4507	-46.622862	0.001297	12.973083	2.197700	-0.000260
1380	1.3721e+02	-7.4692	-46.848942	0.001135	11.351448	1.922987	-0.000227
1381	1.3731e+02	-7.4902	-47.163838	0.001581	15.810945	2.678447	-0.000316
1382	1.3741e+02	-7.5101	-47.406066	0.001216	12.162265	2.060344	-0.000243
1383	1.3751e+02	-7.5302	-47.615997	0.001054	10.540630	1.785631	-0.000211
1384	1.3761e+02	-7.5506	-47.926857	0.001561	15.608241	2.644108	-0.000312
1385	1.3771e+02	-7.5691	-48.205419	0.001399	13.986605	2.369395	-0.000280
1386	1.3781e+02	-7.5883	-48.447647	0.001216	12.162265	2.060344	-0.000243
1387	1.3791e+02	-7.6086	-48.689876	0.001216	12.162265	2.060344	-0.000243
1388	1.3801e+02	-7.6292	-48.992661	0.001520	15.202832	2.575429	-0.000304
1389	1.3811e+02	-7.6485	-49.238926	0.001236	12.364970	2.094683	-0.000248
1390	1.3821e+02	-7.6682	-49.517488	0.001399	13.986605	2.369395	-0.000280
1391	1.3831e+02	-7.6878	-49.792014	0.001378	13.783901	2.335056	-0.000276
1392	1.3840e+02	-7.7090	-50.050390	0.001297	12.973083	2.197700	-0.000260
1393	1.3850e+02	-7.7290	-50.304730	0.001277	12.770379	2.163361	-0.000256
1394	1.3860e+02	-7.7478	-50.575218	0.001358	13.581196	2.300717	-0.000272
1395	1.3870e+02	-7.7686	-50.914337	0.001703	17.027172	2.884481	-0.000341
1396	1.3880e+02	-7.7881	-51.148491	0.001176	11.756857	1.991665	-0.000235
1397	1.3890e+02	-7.8082	-51.451276	0.001520	15.202832	2.575429	-0.000304
1398	1.3900e+02	-7.8291	-51.705616	0.001277	12.770379	2.163361	-0.000256
1399	1.3910e+02	-7.8468	-52.024550	0.001601	16.013649	2.712786	-0.000321
1400	1.3920e+02	-7.8665	-52.274852	0.001257	12.567674	2.129022	-0.000252
1401	1.3930e+02	-7.8870	-52.545340	0.001358	13.581196	2.300717	-0.000272
1402	1.3940e+02	-7.9074	-52.872348	0.001642	16.419058	2.781464	-0.000329
1403	1.3950e+02	-7.9282	-53.175133	0.001520	15.202832	2.575429	-0.000304
1404	1.3960e+02	-7.9474	-53.425436	0.001257	12.567674	2.129022	-0.000252
1405	1.3970e+02	-7.9678	-53.699961	0.001378	13.783901	2.335056	-0.000276
1406	1.3980e+02	-7.9872	-54.002746	0.001520	15.202832	2.575429	-0.000304
1407	1.3990e+02	-8.0069	-54.277271	0.001378	13.783901	2.335056	-0.000276
1408	1.4000e+02	-8.0276	-54.608317	0.001662	16.621763	2.815803	-0.000333
1409	1.4010e+02	-8.0461	-54.866693	0.001297	12.973083	2.197700	-0.000260
1410	1.4020e+02	-8.0667	-55.189664	0.001622	16.216354	2.747125	-0.000325
1411	1.4029e+02	-8.0868	-55.484375	0.001480	14.797423	2.506751	-0.000296
1412	1.4039e+02	-8.1073	-55.775049	0.001459	14.594718	2.472412	-0.000292
1413	1.4049e+02	-8.1262	-56.102057	0.001642	16.419058	2.781464	-0.000329
1414	1.4059e+02	-8.1465	-56.388693	0.001439	14.392014	2.438073	-0.000288
1415	1.4069e+02	-8.1671	-56.703590	0.001581	15.810945	2.678447	-0.000316
1416	1.4079e+02	-8.1863	-56.990227	0.001439	14.392014	2.438073	-0.000288
1417	1.4089e+02	-8.2059	-57.284938	0.001480	14.797423	2.506751	-0.000296
1418	1.4099e+02	-8.2277	-57.563500	0.001399	13.986605	2.369395	-0.000280
1419	1.4109e+02	-8.2468	-57.902619	0.001703	17.027172	2.884481	-0.000341
1420	1.4119e+02	-8.2664	-58.193293	0.001459	14.594718	2.472412	-0.000292
1421	1.4129e+02	-8.2858	-58.488004	0.001480	14.797423	2.506751	-0.000296
1422	1.4139e+02	-8.3057	-58.851346	0.001824	18.243398	3.090515	-0.000365
1423	1.4149e+02	-8.3252	-59.109723	0.001297	12.973083	2.197700	-0.000260
1424	1.4159e+02	-8.3459	-59.436731	0.001642	16.419058	2.781464	-0.000329
1425	1.4169e+02	-8.3662	-59.747590	0.001561	15.608241	2.644108	-0.000312
1426	1.4179e+02	-8.3858	-60.074598	0.001642	16.419058	2.781464	-0.000329
1427	1.4189e+02	-8.4052	-60.381421	0.001541	15.405536	2.609768	-0.000308
1428	1.4199e+02	-8.4268	-60.732651	0.001764	17.635285	2.987498	-0.000353
1429	1.4209e+02	-8.4453	-61.035437	0.001520	15.202832	2.575429	-0.000304
1430	1.4219e+02	-8.4653	-61.374556	0.001703	17.027172	2.884481	-0.000341
1431	1.4228e+02	-8.4858	-61.669267	0.001480	14.797423	2.506751	-0.000296
1432	1.4238e+02	-8.5054	-61.963978	0.001480	14.797423	2.506751	-0.000296
1433	1.4248e+02	-8.5257	-62.311172	0.001743	17.432580	2.953159	-0.000349
1434	1.4258e+02	-8.5452	-62.654328	0.001723	17.229876	2.918820	-0.000345
1435	1.4268e+02	-8.5654	-62.973262	0.001601	16.013649	2.712786	-0.000321
1436	1.4278e+02	-8.5843	-63.296233	0.001622	16.216354	2.747125	-0.000325
1437	1.4288e+02	-8.6050	-63.635352	0.001703	17.027172	2.884481	-0.000341
1438	1.4298e+02	-8.6246	-63.982546	0.001743	17.432580	2.953159	-0.000349
1439	1.4308e+02	-8.6436	-64.313591	0.001662	16.621763	2.815803	-0.000333
1440	1.4318e+02	-8.6642	-64.685007	0.001865	18.648807	3.159193	-0.000373
1441	1.4328e+02	-8.6842	-65.020090	0.001682	16.824467	2.850142	-0.000337
1442	1.4338e+02	-8.7042	-65.334986	0.001581	15.810945	2.678447	-0.000316
1443	1.4348e+02	-8.7241	-65.694291	0.001804	18.040694	3.056176	-0.000361
1444	1.4358e+02	-8.7437	-66.045522	0.001764	17.635285	2.987498	-0.000353
1445	1.4368e+02	-8.7651	-66.400790	0.001784	17.837989	3.021837	-0.000357
1446	1.4378e+02	-8.7840	-66.764132	0.001824	18.243398	3.090515	-0.000365
1447	1.4388e+02	-8.8034	-67.099215	0.001682	16.824467	2.850142	-0.000337
1448	1.4398e+02	-8.8239	-67.458520	0.001804	18.040694	3.056176	-0.000361
1449	1.4408e+02	-8.8438	-67.833973	0.001885	18.851511	3.193532	-0.000377
1450	1.4418e+02	-8.8644	-68.160981	0.001642	16.419058	2.781464	-0.000329
1451	1.4428e+02	-8.8829	-68.520286	0.001804	18.040694	3.056176	-0.000361
1452	1.4437e+02	-8.9041	-68.879591	0.001804	18.040694	3.056176	-0.000361
1453	1.4447e+02	-8.9233	-69.234859	0.001784	17.837989	3.021837	-0.000357
1454	1.4457e+02	-8.9432	-69.590127	0.001784	17.837989	3.021837	-0.000357
1455	1.4467e+02	-8.9630	-69.969618	0.001905	19.054216	3.227872	-0.000381
1456	1.4477e+02	-8.9822	-70.276440	0.001541	15.405536	2.609768	-0.000308
1457	1.4487e+02	-9.0034	-70.732637	0.002291	22.905600	3.880314	-0.000458
1458	1.4497e+02	-9.0224	-71.059645	0.001642	16.419058	2.781464	-0.000329
1459	1.4507e+02	-9.0428	-71.451247	0.001966	19.662329	3.330889	-0.000394
1460	1.4517e+02	-9.0631	-71.830738	0.001905	19.054216	3.227872	-0.000381
1461	1.4527e+02	-9.0830	-72.202154	0.001865	18.648807	3.159193	-0.000373
1462	1.4537e+02	-9.1025	-72.569533	0.001845	18.446103	3.124854	-0.000369
1463	1.4547e+02	-9.1230	-72.973247	0.002027	20.270442	3.433906	-0.000406
1464	1.4557e+02	-9.1434	-73.344664	0.001865	18.648807	3.159193	-0.000373
1465	1.4567e+02	-9.1617	-73.744340	0.002007	20.067738	3.399567	-0.000402
1466	1.4577e+02	-9.1816	-74.135942	0.001966	19.662329	3.330889	-0.000394
1467	1.4587e+02	-9.2020	-74.535619	0.002007	20.067738	3.399567	-0.000402
1468	1.4597e+02	-9.2223	-74.911072	0.001885	18.851511	3.193532	-0.000377
1469	1.4607e+02	-9.2421	-75.318823	0.002047	20.473147	3.468245	-0.000410
1470	1.4617e+02	-9.2622	-75.738685	0.002108	21.081260	3.571262	-0.000422
1471	1.4626e+02	-9.2821	-76.134324	0.001987	19.865033	3.365228	-0.000398
1472	1.4636e+02	-9.3019	-76.562261	0.002149	21.486669	3.639940	-0.000430
1473	1.4646e+02	-9.3211	-76.961937	0.002007	20.067738	3.399567	-0.000402
1474	1.4656e+02	-9.3422	-77.333354	0.001865	18.648807	3.159193	-0.000373
1475	1.4666e+02	-9.3616	-77.753216	0.002108	21.081260	3.571262	-0.000422
1476	1.4676e+02	-9.3822	-78.169041	0.002088	20.878556	3.536923	-0.000418
1477	1.4686e+02	-9.4016	-78.601014	0.002169	21.689373	3.674279	-0.000434
1478	1.4696e+02	-9.4224	-79.020876	0.002108	21.081260	3.571262	-0.000422
1479	1.4706e+02	-9.4420	-79.408441	0.001946	19.459625	3.296550	-0.000390
1480	1.4716e+02	-9.4615	-79.848489	0.002209	22.094782	3.742957	-0.000442
1481	1.4726e+02	-9.4812	-80.264314	0.002088	20.878556	3.536923	-0.000418
1482	1.4736e+02	-9.5007	-80.696288	0.002169	21.689373	3.674279	-0.000434
1483	1.4746e+02	-9.5203	-81.100001	0.002027	20.270442	3.433906	-0.000406
1484	1.4756e+02	-9.5399	-81.507752	0.002047	20.473147	3.468245	-0.000410
1485	1.4766e+02	-9.5604	-81.951837	0.002230	22.297487	3.777296	-0.000446
1486	1.4776e+02	-9.5798	-82.371699	0.002108	21.081260	3.571262	-0.000422
1487	1.4786e+02	-9.6004	-82.831933	0.002311	23.108304	3.914653	-0.000463
1488	1.4796e+02	-9.6210	-83.280055	0.002250	22.500191	3.811636	-0.000450
1489	1.4806e+02	-9.6401	-83.728177	0.002250	22.500191	3.811636	-0.000450
1490	1.4816e+02	-9.6603	-84.164187	0.002189	21.892078	3.708618	-0.000438
1491	1.4825e+02	-9.6802	-84.616347	0.002270	22.702895	3.845975	-0.000454
1492	1.4835e+02	-9.7000	-85.028134	0.002068	20.675851	3.502584	-0.000414
1493	1.4845e+02	-9.7202	-85.508553	0.002412	24.121826	4.086348	-0.000483
1494	1.4855e+02	-9.7399	-85.952638	0.002230	22.297487	3.777296	-0.000446
1495	1.4865e+02	-9.7603	-86.420946	0.002351	23.513713	3.983331	-0.000471
1496	1.4875e+02	-9.7792	-86.941737	0.002615	26.148871	4.429739	-0.000523
1497	1.4885e+02	-9.7998	-87.333339	0.001966	19.662329	3.330889	-0.000394
1498	1.4895e+02	-9.8199	-87.813758	0.002412	24.121826	4.086348	-0.000483
1499	1.4905e+02	-9.8396	-88.286103	0.002372	23.716418	4.017670	-0.000475
1500	1.4915e+02	-9.8603	-88.774596	0.002453	24.527235	4.155026	-0.000491
1501	1.4925e+02	-9.8785	-89.263090	0.002453	24.527235	4.155026	-0.000491
1502	1.4935e+02	-9.8989	-89.735435	0.002372	23.716418	4.017670	-0.000475
1503	1.4945e+02	-9.9186	-90.215854	0.002412	24.121826	4.086348	-0.000483
1504	1.4955e+02	-9.9385	-90.748756	0.002676	26.756984	4.532756	-0.000536
1505	1.4965e+02	-9.9600	-91.192841	0.002230	22.297487	3.777296	-0.000446
1506	1.4975e+02	-9.9794	-91.665185	0.002372	23.716418	4.017670	-0.000475
1507	1.4985e+02	-9.9994	-92.181939	0.002595	25.946166	4.395400	-0.000519
1508	1.4995e+02	-9.9789	-92.472613	-0.001459	-14.594718	-2.472412	-0.000292
1509	1.5005e+02	-9.9594	-92.730989	-0.001297	-12.973083	-2.197700	-0.000260
1510	1.5015e+02	-9.9390	-92.961106	-0.001155	-11.554152	-1.957326	-0.000231
1511	1.5025e+02	-9.9197	-93.150851	-0.000953	-9.527108	-1.613936	-0.000191
1512	1.5034e+02	-9.8988	-93.389042	-0.001196	-11.959561	-2.026004	-0.000239
1513	1.5044e+02	-9.8793	-93.522268	-0.000669	-6.689246	-1.133189	-0.000134
1514	1.5054e+02	-9.8599	-93.724125	-0.001014	-10.135221	-1.716953	-0.000203
1515	1.5064e+02	-9.8397	-93.877536	-0.000770	-7.702768	-1.304884	-0.000154
1516	1.5074e+02	-9.8201	-94.063244	-0.000932	-9.324403	-1.579597	-0.000187
1517	1.5084e+02	-9.8003	-94.228767	-0.000831	-8.310881	-1.407901	-0.000166
1518	1.5094e+02	-9.7797	-94.353918	-0.000628	-6.283837	-1.064511	-0.000126
1519	1.5104e+02	-9.7610	-94.466958	-0.000568	-5.675724	-0.961494	-0.000114
1520	1.5114e+02	-9.7407	-94.588072	-0.000608	-6.081133	-1.030172	-0.000122
1521	1.5124e+02	-9.7214	-94.705149	-0.000588	-5.878428	-0.995833	-0.000118
1522	1.5134e+02	-9.6996	-94.785891	-0.000405	-4.054088	-0.686781	-0.000081
1523	1.5144e+02	-9.6791	-94.919117	-0.000669	-6.689246	-1.133189	-0.000134
1524	1.5154e+02	-9.6602	-94.987748	-0.000345	-3.445975	-0.583764	-0.000069
1525	1.5164e+02	-9.6406	-95.052342	-0.000324	-3.243271	-0.549425	-0.000065
1526	1.5174e+02	-9.6213	-95.149234	-0.000486	-4.864906	-0.824137	-0.000097
1527	1.5184e+02	-9.6008	-95.205754	-0.000284	-2.837862	-0.480747	-0.000057
1528	1.5194e+02	-9.5809	-95.270348	-0.000324	-3.243271	-0.549425	-0.000065
1529	1.5204e+02	-9.5605	-95.330905	-0.000304	-3.040566	-0.515086	-0.000061
1530	1.5214e+02	-9.5409	-95.399536	-0.000345	-3.445975	-0.583764	-0.000069
1531	1.5224e+02	-9.5210	-95.423759	-0.000122	-1.216227	-0.206034	-0.000024
1532	1.5233e+02	-9.5004	-95.540836	-0.000588	-5.878428	-0.995833	-0.000118
1533	1.5243e+02	-9.4804	-95.565059	-0.000122	-1.216227	-0.206034	-0.000024
1534	1.5253e+02	-9.4600	-95.544873	0.000101	1.013522	0.171695	0.000020
1535	1.5263e+02	-9.4406	-95.581207	-0.000182	-1.824340	-0.309052	-0.000037
1536	1.5273e+02	-9.4209	-95.641764	-0.000304	-3.040566	-0.515086	-0.000061
1537	1.5283e+02	-9.4006	-95.653876	-0.000061	-0.608113	-0.103017	-0.000012
1538	1.5293e+02	-9.3818	-95.665987	-0.000061	-0.608113	-0.103017	-0.000012
1539	1.5303e+02	-9.3610	-95.738655	-0.000365	-3.648680	-0.618103	-0.000073
1540	1.5313e+02	-9.3410	-95.726544	0.000061	0.608113	0.103017	0.000012
1541	1.5323e+02	-9.3219	-95.738655	-0.000061	-0.608113	-0.103017	-0.000012
1542	1.5333e+02	-9.3027	-95.754804	-0.000081	-0.810818	-0.137356	-0.000016
1543	1.5343e+02	-9.2812	-95.746730	0.000041	0.405409	0.068678	0.000008
1544	1.5353e+02	-9.2622	-95.766915	-0.000101	-1.013522	-0.171695	-0.000020
1545	1.5363e+02	-9.2415	-95.779027	-0.000061	-0.608113	-0.103017	-0.000012
1546	1.5373e+02	-9.2225	-95.779027	0.000000	0.000000	0.000000	0.000000
1547	1.5383e+02	-9.2021	-95.766915	0.000061	0.608113	0.103017	0.000012
1548	1.5393e+02	-9.1816	-95.734618	0.000162	1.621635	0.274712	0.000032
1549	1.5403e+02	-9.1623	-95.698284	0.000182	1.824340	0.309052	0.000037
1550	1.5413e+02	-9.1425	-95.718470	-0.000101	-1.013522	-0.171695	-0.000020
1551	1.5422e+02	-9.1227	-95.694247	0.000122	1.216227	0.206034	0.000024
1552	1.5432e+02	-9.1024	-95.657913	0.000182	1.824340	0.309052	0.000037
1553	1.5442e+02	-9.0832	-95.665987	-0.000041	-0.405409	-0.068678	-0.000008
1554	1.5452e+02	-9.0637	-95.633690	0.000162	1.621635	0.274712	0.000032
1555	1.5462e+02	-9.0428	-95.617541	0.000081	0.810818	0.137356	0.000016
1556	1.5472e+02	-9.0227	-95.585244	0.000162	1.621635	0.274712	0.000032
1557	1.5482e+02	-9.0038	-95.548910	0.000182	1.824340	0.309052	0.000037
1558	1.5492e+02	-8.9835	-95.532762	0.000081	0.810818	0.137356	0.000016
1559	1.5502e+02	-8.9624	-95.484316	0.000243	2.432453	0.412069	0.000049
1560	1.5512e+02	-8.9432	-95.476242	0.000041	0.405409	0.068678	0.000008
1561	1.5522e+02	-8.9229	-95.472205	0.000020	0.202704	0.034339	0.000004
1562	1.5532e+02	-8.9023	-95.391462	0.000405	4.054088	0.686781	0.000081
1563	1.5542e+02	-8.8829	-95.355128	0.000182	1.824340	0.309052	0.000037
1564	1.5552e+02	-8.8642	-95.318793	0.000182	1.824340	0.309052	0.000037
1565	1.5562e+02	-8.8444	-95.250162	0.000345	3.445975	0.583764	0.000069
1566	1.5572e+02	-8.8240	-95.217865	0.000162	1.621635	0.274712	0.000032
1567	1.5582e+02	-8.8037	-95.173456	0.000223	2.229749	0.377730	0.000045
1568	1.5592e+02	-8.7827	-95.161345	0.000061	0.608113	0.103017	0.000012
1569	1.5602e+02	-8.7643	-95.052342	0.000547	5.473019	0.927155	0.000110
1570	1.5612e+02	-8.7448	-95.011971	0.000203	2.027044	0.343391	0.000041
1571	1.5622e+02	-8.7237	-94.959488	0.000264	2.635158	0.446408	0.000053
1572	1.5631e+02	-8.7048	-94.931228	0.000142	1.418931	0.240373	0.000028
1573	1.5641e+02	-8.6845	-94.874708	0.000284	2.837862	0.480747	0.000057
1574	1.5651e+02	-8.6653	-94.806077	0.000345	3.445975	0.583764	0.000069
1575	1.5661e+02	-8.6456	-94.781854	0.000122	1.216227	0.206034	0.000024
1576	1.5671e+02	-8.6243	-94.709186	0.000365	3.648680	0.618103	0.000073
1577	1.5681e+02	-8.6047	-94.616332	0.000466	4.662202	0.789798	0.000093
1578	1.5691e+02	-8.5849	-94.600183	0.000081	0.810818	0.137356	0.000016
1579	1.5701e+02	-8.5653	-94.523478	0.000385	3.851384	0.652442	0.000077
1580	1.5711e+02	-8.5457	-94.470995	0.000264	2.635158	0.446408	0.000053
1581	1.5721e+02	-8.5246	-94.386215	0.000426	4.256793	0.721120	0.000085
1582	1.5731e+02	-8.5056	-94.325658	0.000304	3.040566	0.515086	0.000061
1583	1.5741e+02	-8.4853	-94.252990	0.000365	3.648680	0.618103	0.000073
1584	1.5751e+02	-8.4653	-94.180321	0.000365	3.648680	0.618103	0.000073
1585	1.5761e+02	-8.4451	-94.119764	0.000304	3.040566	0.515086	0.000061
1586	1.5771e+02	-8.4251	-94.087467	0.000162	1.621635	0.274712	0.000032
1587	1.5781e+02	-8.4056	-93.978464	0.000547	5.473019	0.927155	0.000110
1588	1.5791e+02	-8.3871	-93.885610	0.000466	4.662202	0.789798	0.000093
1589	1.5801e+02	-8.3650	-93.829090	0.000284	2.837862	0.480747	0.000057
1590	1.5811e+02	-8.3469	-93.720088	0.000547	5.473019	0.927155	0.000110
1591	1.5821e+02	-8.3258	-93.671642	0.000243	2.432453	0.412069	0.000049
1592	1.5830e+02	-8.3055	-93.607048	0.000324	3.243271	0.549425	0.000065
1593	1.5840e+02	-8.2858	-93.518231	0.000446	4.459497	0.755459	0.000089
1594	1.5850e+02	-8.2666	-93.465748	0.000264	2.635158	0.446408	0.000053
1595	1.5860e+02	-8.2458	-93.348671	0.000588	5.878428	0.995833	0.000118
1596	1.5870e+02	-8.2270	-93.300225	0.000243	2.432453	0.412069	0.000049
1597	1.5880e+02	-8.2056	-93.195260	0.000527	5.270315	0.892816	0.000105
1598	1.5890e+02	-8.1859	-93.090294	0.000527	5.270315	0.892816	0.000105
1599	1.5900e+02	-8.1670	-93.009552	0.000405	4.054088	0.686781	0.000081
1600	1.5910e+02	-8.1460	-92.916698	0.000466	4.662202	0.789798	0.000093
1601	1.5920e+02	-8.1264	-92.856141	0.000304	3.040566	0.515086	0.000061
1602	1.5930e+02	-8.1067	-92.767324	0.000446	4.459497	0.755459	0.000089
1603	1.5940e+02	-8.0861	-92.662358	0.000527	5.270315	0.892816	0.000105
1604	1.5950e+02	-8.0673	-92.601801	0.000304	3.040566	0.515086	0.000061
1605	1.5960e+02	-8.0475	-92.472613	0.000649	6.486542	1.098850	0.000130
1606	1.5970e+02	-8.0269	-92.387833	0.000426	4.256793	0.721120	0.000085
1607	1.5980e+02	-8.0081	-92.290942	0.000486	4.864906	0.824137	0.000097
1608	1.5990e+02	-7.9864	-92.266719	0.000122	1.216227	0.206034	0.000024
1609	1.6000e+02	-7.9666	-92.145605	0.000608	6.081133	1.030172	0.000122
1610	1.6010e+02	-7.9474	-92.048713	0.000486	4.864906	0.824137	0.000097
1611	1.6019e+02	-7.9271	-91.951822	0.000486	4.864906	0.824137	0.000097
1612	1.6029e+02	-7.9070	-91.871079	0.000405	4.054088	0.686781	0.000081
1613	1.6039e+02	-7.8877	-91.749965	0.000608	6.081133	1.030172	0.000122
1614	1.6049e+02	-7.8683	-91.697483	0.000264	2.635158	0.446408	0.000053
1615	1.6059e+02	-7.8473	-91.572331	0.000628	6.283837	1.064511	0.000126
1616	1.6069e+02	-7.8271	-91.487552	0.000426	4.256793	0.721120	0.000085
1617	1.6079e+02	-7.8086	-91.451217	0.000182	1.824340	0.309052	0.000037
1618	1.6089e+02	-7.7886	-91.293769	0.000791	7.905473	1.339223	0.000158
1619	1.6099e+02	-7.7692	-91.200915	0.000466	4.662202	0.789798	0.000093
1620	1.6109e+02	-7.7486	-91.112098	0.000446	4.459497	0.755459	0.000089
1621	1.6119e+02	-7.7283	-91.031355	0.000405	4.054088	0.686781	0.000081
1622	1.6129e+02	-7.7081	-90.966761	0.000324	3.243271	0.549425	0.000065
1623	1.6139e+02	-7.6883	-90.821424	0.000730	7.297359	1.236206	0.000146
1624	1.6149e+02	-7.6688	-90.777016	0.000223	2.229749	0.377730	0.000045
1625	1.6159e+02	-7.6480	-90.635716	0.000709	7.094655	1.201867	0.000142
1626	1.6169e+02	-7.6286	-90.530750	0.000527	5.270315	0.892816	0.000105
1627	1.6179e+02	-7.6089	-90.413673	0.000588	5.878428	0.995833	0.000118
1628	1.6189e+02	-7.5882	-90.353116	0.000304	3.040566	0.515086	0.000061
1629	1.6199e+02	-7.5687	-90.276411	0.000385	3.851384	0.652442	0.000077
1630	1.6209e+02	-7.5491	-90.147222	0.000649	6.486542	1.098850	0.000130
1631	1.6219e+02	-7.5298	-90.046294	0.000507	5.067611	0.858476	0.000101
1632	1.6228e+02	-7.5102	-89.965551	0.000405	4.054088	0.686781	0.000081
1633	1.6238e+02	-7.4902	-89.844437	0.000608	6.081133	1.030172	0.000122
1634	1.6248e+02	-7.4696	-89.727360	0.000588	5.878428	0.995833	0.000118
1635	1.6258e+02	-7.4500	-89.638543	0.000446	4.459497	0.755459	0.000089
1636	1.6268e+02	-7.4298	-89.545689	0.000466	4.662202	0.789798	0.000093
1637	1.6278e+02	-7.4097	-89.452835	0.000466	4.662202	0.789798	0.000093
1638	1.6288e+02	-7.3907	-89.311535	0.000709	7.094655	1.201867	0.000142
1639	1.6298e+02	-7.3693	-89.246941	0.000324	3.243271	0.549425	0.000065
1640	1.6308e+02	-7.3502	-89.129864	0.000588	5.878428	0.995833	0.000118
1641	1.6318e+02	-7.3309	-89.041047	0.000446	4.459497	0.755459	0.000089
1642	1.6328e+02	-7.3107	-88.948193	0.000466	4.662202	0.789798	0.000093
1643	1.6338e+02	-7.2908	-88.798819	0.000750	7.500064	1.270545	0.000150
1644	1.6348e+02	-7.2709	-88.746336	0.000264	2.635158	0.446408	0.000053
1645	1.6358e+02	-7.2507	-88.617148	0.000649	6.486542	1.098850	0.000130
1646	1.6368e+02	-7.2310	-88.520257	0.000486	4.864906	0.824137	0.000097
1647	1.6378e+02	-7.2107	-88.451625	0.000345	3.445975	0.583764	0.000069
1648	1.6388e+02	-7.1919	-88.306289	0.000730	7.297359	1.236206	0.000146
1649	1.6398e+02	-7.1700	-88.160952	0.000730	7.297359	1.236206	0.000146
1650	1.6408e+02	-7.1510	-88.076172	0.000426	4.256793	0.721120	0.000085
1651	1.6418e+02	-7.1323	-87.942946	0.000669	6.689246	1.133189	0.000134
1652	1.6427e+02	-7.1115	-87.846055	0.000486	4.864906	0.824137	0.000097
1653	1.6437e+02	-7.0914	-87.753201	0.000466	4.662202	0.789798	0.000093
1654	1.6447e+02	-7.0715	-87.628050	0.000628	6.283837	1.064511	0.000126
1655	1.6457e+02	-7.0517	-87.502899	0.000628	6.283837	1.064511	0.000126
1656	1.6467e+02	-7.0313	-87.414082	0.000446	4.459497	0.755459	0.000089
1657	1.6477e+02	-7.0112	-87.301042	0.000568	5.675724	0.961494	0.000114
1658	1.6487e+02	-6.9920	-87.204151	0.000486	4.864906	0.824137	0.000097
1659	1.6497e+02	-6.9724	-87.062851	0.000709	7.094655	1.201867	0.000142
1660	1.6507e+02	-6.9515	-86.974034	0.000446	4.459497	0.755459	0.000089
1661	1.6517e+02	-6.9321	-86.848883	0.000628	6.283837	1.064511	0.000126
1662	1.6527e+02	-6.9131	-86.711620	0.000689	6.891950	1.167528	0.000138
1663	1.6537e+02	-6.8921	-86.614729	0.000486	4.864906	0.824137	0.000097
1664	1.6547e+02	-6.8719	-86.489577	0.000628	6.283837	1.064511	0.000126
1665	1.6557e+02	-6.8526	-86.388649	0.000507	5.067611	0.858476	0.000101
1666	1.6567e+02	-6.8320	-86.251386	0.000689	6.891950	1.167528	0.000138
1667	1.6577e+02	-6.8126	-86.198904	0.000264	2.635158	0.446408	0.000053
1668	1.6587e+02	-6.7928	-86.065678	0.000669	6.689246	1.133189	0.000134
1669	1.6597e+02	-6.7723	-85.936490	0.000649	6.486542	1.098850	0.000130
1670	1.6607e+02	-6.7528	-85.839599	0.000486	4.864906	0.824137	0.000097
1671	1.6616e+02	-6.7331	-85.762893	0.000385	3.851384	0.652442	0.000077
1672	1.6626e+02	-6.7136	-85.605445	0.000791	7.905473	1.339223	0.000158
1673	1.6636e+02	-6.6925	-85.504516	0.000507	5.067611	0.858476	0.000101
1674	1.6646e+02	-6.6731	-85.415699	0.000446	4.459497	0.755459	0.000089
1675	1.6656e+02	-6.6531	-85.282474	0.000669	6.689246	1.133189	0.000134
1676	1.6666e+02	-6.6333	-85.201731	0.000405	4.054088	0.686781	0.000081
1677	1.6676e+02	-6.6127	-85.036209	0.000831	8.310881	1.407901	0.000166
1678	1.6686e+02	-6.5936	-84.947392	0.000446	4.459497	0.755459	0.000089
1679	1.6696e+02	-6.5732	-84.814166	0.000669	6.689246	1.133189	0.000134
1680	1.6706e+02	-6.5530	-84.701126	0.000568	5.675724	0.961494	0.000114
1681	1.6716e+02	-6.5335	-84.604235	0.000486	4.864906	0.824137	0.000097
1682	1.6726e+02	-6.5140	-84.503307	0.000507	5.067611	0.858476	0.000101
1683	1.6736e+02	-6.4948	-84.357970	0.000730	7.297359	1.236206	0.000146
1684	1.6746e+02	-6.4737	-84.257041	0.000507	5.067611	0.858476	0.000101
1685	1.6756e+02	-6.4537	-84.119779	0.000689	6.891950	1.167528	0.000138
1686	1.6766e+02	-6.4336	-84.039036	0.000405	4.054088	0.686781	0.000081
1687	1.6776e+02	-6.4133	-83.921959	0.000588	5.878428	0.995833	0.000118
1688	1.6786e+02	-6.3942	-83.841216	0.000405	4.054088	0.686781	0.000081
1689	1.6796e+02	-6.3733	-83.679731	0.000811	8.108177	1.373562	0.000162
1690	1.6806e+02	-6.3535	-83.554580	0.000628	6.283837	1.064511	0.000126
1691	1.6816e+02	-6.3347	-83.433466	0.000608	6.081133	1.030172	0.000122
1692	1.6825e+02	-6.3140	-83.320426	0.000568	5.675724	0.961494	0.000114
1693	1.6835e+02	-6.2950	-83.191238	0.000649	6.486542	1.098850	0.000130
1694	1.6845e+02	-6.2739	-83.062049	0.000649	6.486542	1.098850	0.000130
1695	1.6855e+02	-6.2552	-82.949009	0.000568	5.675724	0.961494	0.000114
1696	1.6865e+02	-6.2350	-82.799635	0.000750	7.500064	1.270545	0.000150
1697	1.6875e+02	-6.2146	-82.771375	0.000142	1.418931	0.240373	0.000028
1698	1.6885e+02	-6.1960	-82.597779	0.000872	8.716290	1.476580	0.000174
1699	1.6895e+02	-6.1760	-82.472627	0.000628	6.283837	1.064511	0.000126
1700	1.6905e+02	-6.1557	-82.367662	0.000527	5.270315	0.892816	0.000105
1701	1.6915e+02	-6.1343	-82.242511	0.000628	6.283837	1.064511	0.000126
1702	1.6925e+02	-6.1157	-82.105248	0.000689	6.891950	1.167528	0.000138
1703	1.6935e+02	-6.0958	-81.980097	0.000628	6.283837	1.064511	0.000126
1704	1.6945e+02	-6.0751	-81.875131	0.000527	5.270315	0.892816	0.000105
1705	1.6955e+02	-6.0552	-81.762092	0.000568	5.675724	0.961494	0.000114
1706	1.6965e+02	-6.0356	-81.653089	0.000547	5.473019	0.927155	0.000110
1707	1.6975e+02	-6.0155	-81.463343	0.000953	9.527108	1.613936	0.000191
1708	1.6985e+02	-5.9962	-81.394712	0.000345	3.445975	0.583764	0.000069
1709	1.6995e+02	-5.9753	-81.257450	0.000689	6.891950	1.167528	0.000138
1710	1.7005e+02	-5.9554	-81.116150	0.000709	7.094655	1.201867	0.000142
1711	1.7015e+02	-5.9357	-80.978887	0.000689	6.891950	1.167528	0.000138
1712	1.7024e+02	-5.9170	-80.853736	0.000628	6.283837	1.064511	0.000126
1713	1.7034e+02	-5.8955	-80.696288	0.000791	7.905473	1.339223	0.000158
1714	1.7044e+02	-5.8771	-80.635731	0.000304	3.040566	0.515086	0.000061
1715	1.7054e+02	-5.8561	-80.474245	0.000811	8.108177	1.373562	0.000162
1716	1.7064e+02	-5.8366	-80.401577	0.000365	3.648680	0.618103	0.000073
1717	1.7074e+02	-5.8166	-80.288537	0.000568	5.675724	0.961494	0.000114
1718	1.7084e+02	-5.7970	-80.147237	0.000709	7.094655	1.201867	0.000142
1719	1.7094e+02	-5.7769	-79.985752	0.000811	8.108177	1.373562	0.000162
1720	1.7104e+02	-5.7561	-79.872712	0.000568	5.675724	0.961494	0.000114
1721	1.7114e+02	-5.7365	-79.735449	0.000689	6.891950	1.167528	0.000138
1722	1.7124e+02	-5.7164	-79.618372	0.000588	5.878428	0.995833	0.000118
1723	1.7134e+02	-5.6967	-79.464961	0.000770	7.702768	1.304884	0.000154
1724	1.7144e+02	-5.6758	-79.335773	0.000649	6.486542	1.098850	0.000130
1725	1.7154e+02	-5.6567	-79.250993	0.000426	4.256793	0.721120	0.000085
1726	1.7164e+02	-5.6379	-79.113730	0.000689	6.891950	1.167528	0.000138
1727	1.7174e+02	-5.6175	-78.952245	0.000811	8.108177	1.373562	0.000162
1728	1.7184e+02	-5.5974	-78.831131	0.000608	6.081133	1.030172	0.000122
1729	1.7194e+02	-5.5769	-78.697906	0.000669	6.689246	1.133189	0.000134
1730	1.7204e+02	-5.5568	-78.576791	0.000608	6.081133	1.030172	0.000122
1731	1.7213e+02	-5.5376	-78.479900	0.000486	4.864906	0.824137	0.000097
1732	1.7223e+02	-5.5174	-78.298229	0.000912	9.121699	1.545258	0.000183
1733	1.7233e+02	-5.4971	-78.185189	0.000568	5.675724	0.961494	0.000114
1734	1.7243e+02	-5.4775	-78.047927	0.000689	6.891950	1.167528	0.000138
1735	1.7253e+02	-5.4580	-77.910664	0.000689	6.891950	1.167528	0.000138
1736	1.7263e+02	-5.4382	-77.765327	0.000730	7.297359	1.236206	0.000146
1737	1.7273e+02	-5.4178	-77.619990	0.000730	7.297359	1.236206	0.000146
1738	1.7283e+02	-5.3983	-77.515025	0.000527	5.270315	0.892816	0.000105
1739	1.7293e+02	-5.3781	-77.418133	0.000486	4.864906	0.824137	0.000097
1740	1.7303e+02	-5.3580	-77.272797	0.000730	7.297359	1.236206	0.000146
1741	1.7313e+02	-5.3378	-77.107274	0.000831	8.310881	1.407901	0.000166
1742	1.7323e+02	-5.3183	-76.998271	0.000547	5.473019	0.927155	0.000110
1743	1.7333e+02	-5.2980	-76.877157	0.000608	6.081133	1.030172	0.000122
1744	1.7343e+02	-5.2786	-76.711635	0.000831	8.310881	1.407901	0.000166
1745	1.7353e+02	-5.2591	-76.618781	0.000466	4.662202	0.789798	0.000093
1746	1.7363e+02	-5.2392	-76.473444	0.000730	7.297359	1.236206	0.000146
1747	1.7373e+02	-5.2192	-76.324070	0.000750	7.500064	1.270545	0.000150
1748	1.7383e+02	-5.1996	-76.259476	0.000324	3.243271	0.549425	0.000065
1749	1.7393e+02	-5.1787	-76.081842	0.000892	8.918995	1.510919	0.000179
1750	1.7403e+02	-5.1584	-75.908245	0.000872	8.716290	1.476580	0.000174
1751	1.7413e+02	-5.1382	-75.839613	0.000345	3.445975	0.583764	0.000069
1752	1.7422e+02	-5.1194	-75.674091	0.000831	8.310881	1.407901	0.000166
1753	1.7432e+02	-5.0989	-75.536828	0.000689	6.891950	1.167528	0.000138
1754	1.7442e+02	-5.0781	-75.363231	0.000872	8.716290	1.476580	0.000174
1755	1.7452e+02	-5.0592	-75.234043	0.000649	6.486542	1.098850	0.000130
1756	1.7462e+02	-5.0393	-75.088706	0.000730	7.297359	1.236206	0.000146
1757	1.7472e+02	-5.0191	-74.951444	0.000689	6.891950	1.167528	0.000138
1758	1.7482e+02	-4.9998	-74.826292	0.000628	6.283837	1.064511	0.000126
1759	1.7492e+02	-4.9796	-74.701141	0.000628	6.283837	1.064511	0.000126
1760	1.7502e+02	-4.9602	-74.567916	0.000669	6.689246	1.133189	0.000134
1761	1.7512e+02	-4.9402	-74.426616	0.000709	7.094655	1.201867	0.000142
1762	1.7522e+02	-4.9200	-74.273205	0.000770	7.702768	1.304884	0.000154
1763	1.7532e+02	-4.9001	-74.099608	0.000872	8.716290	1.476580	0.000174
1764	1.7542e+02	-4.8801	-73.970420	0.000649	6.486542	1.098850	0.000130
1765	1.7552e+02	-4.8602	-73.837194	0.000669	6.689246	1.133189	0.000134
1766	1.7562e+02	-4.8402	-73.708006	0.000649	6.486542	1.098850	0.000130
1767	1.7572e+02	-4.8201	-73.550557	0.000791	7.905473	1.339223	0.000158
1768	1.7582e+02	-4.8001	-73.445592	0.000527	5.270315	0.892816	0.000105
1769	1.7592e+02	-4.7801	-73.271995	0.000872	8.716290	1.476580	0.000174
1770	1.7602e+02	-4.7607	-73.126658	0.000730	7.297359	1.236206	0.000146
1771	1.7612e+02	-4.7403	-72.989396	0.000689	6.891950	1.167528	0.000138
1772	1.7621e+02	-4.7206	-72.827910	0.000811	8.108177	1.373562	0.000162
1773	1.7631e+02	-4.7003	-72.686610	0.000709	7.094655	1.201867	0.000142
1774	1.7641e+02	-4.6811	-72.605868	0.000405	4.054088	0.686781	0.000081
1775	1.7651e+02	-4.6609	-72.371714	0.001176	11.756857	1.991665	0.000235
1776	1.7661e+02	-4.6423	-72.262711	0.000547	5.473019	0.927155	0.000110
1777	1.7671e+02	-4.6211	-72.133523	0.000649	6.486542	1.098850	0.000130
1778	1.7681e+02	-4.6014	-71.955889	0.000892	8.918995	1.510919	0.000179
1779	1.7691e+02	-4.5809	-71.806515	0.000750	7.500064	1.270545	0.000150
1780	1.7701e+02	-4.5615	-71.665215	0.000709	7.094655	1.201867	0.000142
1781	1.7711e+02	-4.5407	-71.548138	0.000588	5.878428	0.995833	0.000118
1782	1.7721e+02	-4.5217	-71.439135	0.000547	5.473019	0.927155	0.000110
1783	1.7731e+02	-4.5008	-71.289761	0.000750	7.500064	1.270545	0.000150
1784	1.7741e+02	-4.4809	-71.140387	0.000750	7.500064	1.270545	0.000150
1785	1.7751e+02	-4.4606	-70.914308	0.001135	11.351448	1.922987	0.000227
1786	1.7761e+02	-4.4426	-70.809342	0.000527	5.270315	0.892816	0.000105
1787	1.7771e+02	-4.4221	-70.680154	0.000649	6.486542	1.098850	0.000130
1788	1.7781e+02	-4.4019	-70.506557	0.000872	8.716290	1.476580	0.000174
1789	1.7791e+02	-4.3808	-70.373332	0.000669	6.689246	1.133189	0.000134
1790	1.7801e+02	-4.3616	-70.244143	0.000649	6.486542	1.098850	0.000130
1791	1.7810e+02	-4.3421	-70.102844	0.000709	7.094655	1.201867	0.000142
1792	1.7820e+02	-4.3207	-69.973655	0.000649	6.486542	1.098850	0.000130
1793	1.7830e+02	-4.3023	-69.800058	0.000872	8.716290	1.476580	0.000174
1794	1.7840e+02	-4.2825	-69.687019	0.000568	5.675724	0.961494	0.000114
1795	1.7850e+02	-4.2624	-69.517459	0.000851	8.513586	1.442240	0.000170
1796	1.7860e+02	-4.2424	-69.347899	0.000851	8.513586	1.442240	0.000170
1797	1.7870e+02	-4.2223	-69.222748	0.000628	6.283837	1.064511	0.000126
1798	1.7880e+02	-4.2027	-69.049151	0.000872	8.716290	1.476580	0.000174
1799	1.7890e+02	-4.1824	-68.944186	0.000527	5.270315	0.892816	0.000105
1800	1.7900e+02	-4.1628	-68.734255	0.001054	10.540630	1.785631	0.000211
1801	1.7910e+02	-4.1428	-68.629289	0.000527	5.270315	0.892816	0.000105
1802	1.7920e+02	-4.1232	-68.479915	0.000750	7.500064	1.270545	0.000150
1803	1.7930e+02	-4.1035	-68.278058	0.001014	10.135221	1.716953	0.000203
1804	1.7940e+02	-4.0825	-68.169056	0.000547	5.473019	0.927155	0.000110
1805	1.7950e+02	-4.0636	-68.019681	0.000750	7.500064	1.270545	0.000150
1806	1.7960e+02	-4.0430	-67.813788	0.001034	10.337926	1.751292	0.000207
1807	1.7970e+02	-4.0231	-67.724971	0.000446	4.459497	0.755459	0.000089
1808	1.7980e+02	-4.0042	-67.611931	0.000568	5.675724	0.961494	0.000114
1809	1.7990e+02	-3.9835	-67.393925	0.001095	10.946039	1.854309	0.000219
1810	1.8000e+02	-3.9642	-67.236477	0.000791	7.905473	1.339223	0.000158
1811	1.8009e+02	-3.9433	-67.111326	0.000628	6.283837	1.064511	0.000126
1812	1.8019e+02	-3.9233	-66.933692	0.000892	8.918995	1.510919	0.000179
1813	1.8029e+02	-3.9046	-66.800466	0.000669	6.689246	1.133189	0.000134
1814	1.8039e+02	-3.8836	-66.626870	0.000872	8.716290	1.476580	0.000174
1815	1.8049e+02	-3.8636	-66.501718	0.000628	6.283837	1.064511	0.000126
1816	1.8059e+02	-3.8438	-66.332159	0.000851	8.513586	1.442240	0.000170
1817	1.8069e+02	-3.8235	-66.202970	0.000649	6.486542	1.098850	0.000130
1818	1.8079e+02	-3.8043	-66.009188	0.000973	9.729812	1.648275	0.000195
1819	1.8089e+02	-3.7849	-65.815405	0.000973	9.729812	1.648275	0.000195
1820	1.8099e+02	-3.7655	-65.742737	0.000365	3.648680	0.618103	0.000073
1821	1.8109e+02	-3.7437	-65.573177	0.000851	8.513586	1.442240	0.000170
1822	1.8119e+02	-3.7246	-65.403618	0.000851	8.513586	1.442240	0.000170
1823	1.8129e+02	-3.7051	-65.258281	0.000730	7.297359	1.236206	0.000146
1824	1.8139e+02	-3.6857	-65.088721	0.000851	8.513586	1.442240	0.000170
1825	1.8149e+02	-3.6646	-64.959533	0.000649	6.486542	1.098850	0.000130
1826	1.8159e+02	-3.6443	-64.777861	0.000912	9.121699	1.545258	0.000183
1827	1.8169e+02	-3.6243	-64.636562	0.000709	7.094655	1.201867	0.000142
1828	1.8179e+02	-3.6057	-64.483151	0.000770	7.702768	1.304884	0.000154
1829	1.8189e+02	-3.5854	-64.329739	0.000770	7.702768	1.304884	0.000154
1830	1.8199e+02	-3.5647	-64.148068	0.000912	9.121699	1.545258	0.000183
1831	1.8209e+02	-3.5451	-64.022917	0.000628	6.283837	1.064511	0.000126
1832	1.8218e+02	-3.5257	-63.897766	0.000628	6.283837	1.064511	0.000126
1833	1.8228e+02	-3.5049	-63.675723	0.001115	11.148743	1.888648	0.000223
1834	1.8238e+02	-3.4858	-63.542498	0.000669	6.689246	1.133189	0.000134
1835	1.8248e+02	-3.4653	-63.381013	0.000811	8.108177	1.373562	0.000162
1836	1.8258e+02	-3.4460	-63.231638	0.000750	7.500064	1.270545	0.000150
1837	1.8268e+02	-3.4262	-63.041893	0.000953	9.527108	1.613936	0.000191
1838	1.8278e+02	-3.4056	-62.904631	0.000689	6.891950	1.167528	0.000138
1839	1.8288e+02	-3.3868	-62.763331	0.000709	7.094655	1.201867	0.000142
1840	1.8298e+02	-3.3665	-62.581660	0.000912	9.121699	1.545258	0.000183
1841	1.8308e+02	-3.3459	-62.436323	0.000730	7.297359	1.236206	0.000146
1842	1.8318e+02	-3.3263	-62.246577	0.000953	9.527108	1.613936	0.000191
1843	1.8328e+02	-3.3057	-62.145649	0.000507	5.067611	0.858476	0.000101
1844	1.8338e+02	-3.2863	-61.963978	0.000912	9.121699	1.545258	0.000183
1845	1.8348e+02	-3.2670	-61.798455	0.000831	8.310881	1.407901	0.000166
1846	1.8358e+02	-3.2470	-61.636970	0.000811	8.108177	1.373562	0.000162
1847	1.8368e+02	-3.2272	-61.479522	0.000791	7.905473	1.339223	0.000158
1848	1.8378e+02	-3.2065	-61.354370	0.000628	6.283837	1.064511	0.000126
1849	1.8388e+02	-3.1866	-61.172699	0.000912	9.121699	1.545258	0.000183
1850	1.8398e+02	-3.1664	-61.055622	0.000588	5.878428	0.995833	0.000118
1851	1.8407e+02	-3.1473	-60.865877	0.000953	9.527108	1.613936	0.000191
1852	1.8417e+02	-3.1273	-60.708429	0.000791	7.905473	1.339223	0.000158
1853	1.8427e+02	-3.1069	-60.583277	0.000628	6.283837	1.064511	0.000126
1854	1.8437e+02	-3.0875	-60.409681	0.000872	8.716290	1.476580	0.000174
1855	1.8447e+02	-3.0669	-60.252232	0.000791	7.905473	1.339223	0.000158
1856	1.8457e+02	-3.0469	-60.066524	0.000932	9.324403	1.579597	0.000187
1857	1.8467e+02	-3.0267	-59.917150	0.000750	7.500064	1.270545	0.000150
1858	1.8477e+02	-3.0073	-59.755665	0.000811	8.108177	1.373562	0.000162
1859	1.8487e+02	-2.9870	-59.573994	0.000912	9.121699	1.545258	0.000183
1860	1.8497e+02	-2.9677	-59.464991	0.000547	5.473019	0.927155	0.000110
1861	1.8507e+02	-2.9469	-59.242948	0.001115	11.148743	1.888648	0.000223
1862	1.8517e+02	-2.9280	-59.129909	0.000568	5.675724	0.961494	0.000114
1863	1.8527e+02	-2.9083	-58.992646	0.000689	6.891950	1.167528	0.000138
1864	1.8537e+02	-2.8865	-58.786752	0.001034	10.337926	1.751292	0.000207
1865	1.8547e+02	-2.8683	-58.649489	0.000689	6.891950	1.167528	0.000138
1866	1.8557e+02	-2.8485	-58.447633	0.001014	10.135221	1.716953	0.000203
1867	1.8567e+02	-2.8278	-58.294221	0.000770	7.702768	1.304884	0.000154
1868	1.8577e+02	-2.8082	-58.112550	0.000912	9.121699	1.545258	0.000183
1869	1.8587e+02	-2.7875	-57.947028	0.000831	8.310881	1.407901	0.000166
1870	1.8597e+02	-2.7689	-57.761320	0.000932	9.324403	1.579597	0.000187
1871	1.8606e+02	-2.7486	-57.615983	0.000730	7.297359	1.236206	0.000146
1872	1.8616e+02	-2.7287	-57.458534	0.000791	7.905473	1.339223	0.000158
1873	1.8626e+02	-2.7077	-57.276863	0.000912	9.121699	1.545258	0.000183
1874	1.8636e+02	-2.6885	-57.127489	0.000750	7.500064	1.270545	0.000150
1875	1.8646e+02	-2.6681	-56.945818	0.000912	9.121699	1.545258	0.000183
1876	1.8656e+02	-2.6493	-56.800481	0.000730	7.297359	1.236206	0.000146
1877	1.8666e+02	-2.6280	-56.651107	0.000750	7.500064	1.270545	0.000150
1878	1.8676e+02	-2.6079	-56.497696	0.000770	7.702768	1.304884	0.000154
1879	1.8686e+02	-2.5885	-56.336211	0.000811	8.108177	1.373562	0.000162
1880	1.8696e+02	-2.5689	-56.150502	0.000932	9.324403	1.579597	0.000187
1881	1.8706e+02	-2.5487	-55.948646	0.001014	10.135221	1.716953	0.000203
1882	1.8716e+02	-2.5285	-55.787160	0.000811	8.108177	1.373562	0.000162
1883	1.8726e+02	-2.5101	-55.641823	0.000730	7.297359	1.236206	0.000146
1884	1.8736e+02	-2.4895	-55.427855	0.001074	10.743334	1.819970	0.000215
1885	1.8746e+02	-2.4695	-55.290593	0.000689	6.891950	1.167528	0.000138
1886	1.8756e+02	-2.4503	-55.129107	0.000811	8.108177	1.373562	0.000162
1887	1.8766e+02	-2.4300	-54.971659	0.000791	7.905473	1.339223	0.000158
1888	1.8776e+02	-2.4102	-54.773839	0.000993	9.932517	1.682614	0.000199
1889	1.8786e+02	-2.3901	-54.576019	0.000993	9.932517	1.682614	0.000199
1890	1.8796e+02	-2.3695	-54.454905	0.000608	6.081133	1.030172	0.000122
1891	1.8806e+02	-2.3505	-54.261123	0.000973	9.729812	1.648275	0.000195
1892	1.8815e+02	-2.3297	-54.087526	0.000872	8.716290	1.476580	0.000174
1893	1.8825e+02	-2.3097	-53.926041	0.000811	8.108177	1.373562	0.000162
1894	1.8835e+02	-2.2904	-53.772629	0.000770	7.702768	1.304884	0.000154
1895	1.8845e+02	-2.2699	-53.590958	0.000912	9.121699	1.545258	0.000183
1896	1.8855e+02	-2.2508	-53.421399	0.000851	8.513586	1.442240	0.000170
1897	1.8865e+02	-2.2304	-53.263950	0.000791	7.905473	1.339223	0.000158
1898	1.8875e+02	-2.2115	-53.066131	0.000993	9.932517	1.682614	0.000199
1899	1.8885e+02	-2.1919	-52.916757	0.000750	7.500064	1.270545	0.000150
1900	1.8895e+02	-2.1704	-52.747197	0.000851	8.513586	1.442240	0.000170
1901	1.8905e+02	-2.1519	-52.577637	0.000851	8.513586	1.442240	0.000170
1902	1.8915e+02	-2.1317	-52.371743	0.001034	10.337926	1.751292	0.000207
1903	1.8925e+02	-2.1105	-52.222369	0.000750	7.500064	1.270545	0.000150
1904	1.8935e+02	-2.0907	-52.056847	0.000831	8.310881	1.407901	0.000166
1905	1.8945e+02	-2.0706	-51.875176	0.000912	9.121699	1.545258	0.000183
1906	1.8955e+02	-2.0515	-51.701579	0.000872	8.716290	1.476580	0.000174
1907	1.8965e+02	-2.0316	-51.568353	0.000669	6.689246	1.133189	0.000134
1908	1.8975e+02	-2.0113	-51.366497	0.001014	10.135221	1.716953	0.000203
1909	1.8985e+02	-1.9914	-51.180788	0.000932	9.324403	1.579597	0.000187
1910	1.8995e+02	-1.9720	-50.991043	0.000953	9.527108	1.613936	0.000191
1911	1.9004e+02	-1.9521	-50.910300	0.000405	4.054088	0.686781	0.000081
1912	1.9014e+02	-1.9319	-50.676146	0.001176	11.756857	1.991665	0.000235
1913	1.9024e+02	-1.9112	-50.502550	0.000872	8.716290	1.476580	0.000174
1914	1.9034e+02	-1.8922	-50.349138	0.000770	7.702768	1.304884	0.000154
1915	1.9044e+02	-1.8722	-50.167467	0.000912	9.121699	1.545258	0.000183
1916	1.9054e+02	-1.8520	-49.977722	0.000953	9.527108	1.613936	0.000191
1917	1.9064e+02	-1.8329	-49.808162	0.000851	8.513586	1.442240	0.000170
1918	1.9074e+02	-1.8127	-49.606305	0.001014	10.135221	1.716953	0.000203
1919	1.9084e+02	-1.7924	-49.448857	0.000791	7.905473	1.339223	0.000158
1920	1.9094e+02	-1.7722	-49.267186	0.000912	9.121699	1.545258	0.000183
1921	1.9104e+02	-1.7520	-49.101663	0.000831	8.310881	1.407901	0.000166
1922	1.9114e+02	-1.7322	-48.899807	0.001014	10.135221	1.716953	0.000203
1923	1.9124e+02	-1.7125	-48.685838	0.001074	10.743334	1.819970	0.000215
1924	1.9134e+02	-1.6931	-48.552613	0.000669	6.689246	1.133189	0.000134
1925	1.9144e+02	-1.6723	-48.374979	0.000892	8.918995	1.510919	0.000179
1926	1.9154e+02	-1.6533	-48.185234	0.000953	9.527108	1.613936	0.000191
1927	1.9164e+02	-1.6325	-48.003562	0.000912	9.121699	1.545258	0.000183
1928	1.9174e+02	-1.6124	-47.834003	0.000851	8.513586	1.442240	0.000170
1929	1.9184e+02	-1.5936	-47.632146	0.001014	10.135221	1.716953	0.000203
1930	1.9194e+02	-1.5730	-47.502958	0.000649	6.486542	1.098850	0.000130
1931	1.9203e+02	-1.5536	-47.248618	0.001277	12.770379	2.163361	0.000256
1932	1.9213e+02	-1.5335	-47.087133	0.000811	8.108177	1.373562	0.000162
1933	1.9223e+02	-1.5134	-46.929684	0.000791	7.905473	1.339223	0.000158
1934	1.9233e+02	-1.4933	-46.719753	0.001054	10.540630	1.785631	0.000211
1935	1.9243e+02	-1.4731	-46.574416	0.000730	7.297359	1.236206	0.000146
1936	1.9253e+02	-1.4540	-46.396782	0.000892	8.918995	1.510919	0.000179
1937	1.9263e+02	-1.4343	-46.186851	0.001054	10.540630	1.785631	0.000211
1938	1.9273e+02	-1.4127	-45.989032	0.000993	9.932517	1.682614	0.000199
1939	1.9283e+02	-1.3937	-45.811398	0.000892	8.918995	1.510919	0.000179
1940	1.9293e+02	-1.3733	-45.678172	0.000669	6.689246	1.133189	0.000134
1941	1.9303e+02	-1.3546	-45.468241	0.001054	10.540630	1.785631	0.000211
1942	1.9313e+02	-1.3341	-45.278496	0.000953	9.527108	1.613936	0.000191
1943	1.9323e+02	-1.3132	-45.104899	0.000872	8.716290	1.476580	0.000174
1944	1.9333e+02	-1.2947	-44.955525	0.000750	7.500064	1.270545	0.000150
1945	1.9343e+02	-1.2743	-44.725408	0.001155	11.554152	1.957326	0.000231
1946	1.9353e+02	-1.2540	-44.588146	0.000689	6.891950	1.167528	0.000138
1947	1.9363e+02	-1.2338	-44.370140	0.001095	10.946039	1.854309	0.000219
1948	1.9373e+02	-1.2155	-44.172321	0.000993	9.932517	1.682614	0.000199
1949	1.9383e+02	-1.1945	-44.026984	0.000730	7.297359	1.236206	0.000146
1950	1.9393e+02	-1.1747	-43.817053	0.001054	10.540630	1.785631	0.000211
1951	1.9403e+02	-1.1552	-43.671716	0.000730	7.297359	1.236206	0.000146
1952	1.9412e+02	-1.1345	-43.477933	0.000973	9.729812	1.648275	0.000195
1953	1.9422e+02	-1.1150	-43.284151	0.000973	9.729812	1.648275	0.000195
1954	1.9432e+02	-1.0951	-43.118628	0.000831	8.310881	1.407901	0.000166
1955	1.9442e+02	-1.0754	-42.961180	0.000791	7.905473	1.339223	0.000158
1956	1.9452e+02	-1.0555	-42.751249	0.001054	10.540630	1.785631	0.000211
1957	1.9462e+02	-1.0350	-42.537281	0.001074	10.743334	1.819970	0.000215
1958	1.9472e+02	-1.0154	-42.367721	0.000851	8.513586	1.442240	0.000170
1959	1.9482e+02	-0.9949	-42.169901	0.000993	9.932517	1.682614	0.000199
1960	1.9492e+02	-0.9753	-42.008416	0.000811	8.108177	1.373562	0.000162
1961	1.9502e+02	-0.9552	-41.806559	0.001014	10.135221	1.716953	0.000203
1962	1.9512e+02	-0.9351	-41.669297	0.000689	6.891950	1.167528	0.000138
1963	1.9522e+02	-0.9160	-41.431106	0.001196	11.959561	2.026004	0.000239
1964	1.9532e+02	-0.8960	-41.249434	0.000912	9.121699	1.545258	0.000183
1965	1.9542e+02	-0.8764	-41.083912	0.000831	8.310881	1.407901	0.000166
1966	1.9552e+02	-0.8560	-40.894166	0.000953	9.527108	1.613936	0.000191
1967	1.9562e+02	-0.8367	-40.704421	0.000953	9.527108	1.613936	0.000191
1968	1.9572e+02	-0.8168	-40.518713	0.000932	9.324403	1.579597	0.000187
1969	1.9582e+02	-0.7964	-40.324930	0.000973	9.729812	1.648275	0.000195
1970	1.9592e+02	-0.7764	-40.151333	0.000872	8.716290	1.476580	0.000174
1971	1.9601e+02	-0.7564	-39.957551	0.000973	9.729812	1.648275	0.000195
1972	1.9611e+02	-0.7359	-39.808177	0.000750	7.500064	1.270545	0.000150
1973	1.9621e+02	-0.7165	-39.606320	0.001014	10.135221	1.716953	0.000203
1974	1.9631e+02	-0.6963	-39.404463	0.001014	10.135221	1.716953	0.000203
1975	1.9641e+02	-0.6774	-39.226829	0.000892	8.918995	1.510919	0.000179
1976	1.9651e+02	-0.6564	-39.069381	0.000791	7.905473	1.339223	0.000158
1977	1.9661e+02	-0.6375	-38.839264	0.001155	11.554152	1.957326	0.000231
1978	1.9671e+02	-0.6170	-38.669705	0.000851	8.513586	1.442240	0.000170
1979	1.9681e+02	-0.5978	-38.431514	0.001196	11.959561	2.026004	0.000239
1980	1.9691e+02	-0.5773	-38.286177	0.000730	7.297359	1.236206	0.000146
1981	1.9701e+02	-0.5572	-38.052023	0.001176	11.756857	1.991665	0.000235
1982	1.9711e+02	-0.5379	-37.898612	0.000770	7.702768	1.304884	0.000154
1983	1.9721e+02	-0.5173	-37.729052	0.000851	8.513586	1.442240	0.000170
1984	1.9731e+02	-0.4979	-37.511047	0.001095	10.946039	1.854309	0.000219
1985	1.9741e+02	-0.4783	-37.321301	0.000953	9.527108	1.613936	0.000191
1986	1.9751e+02	-0.4581	-37.155779	0.000831	8.310881	1.407901	0.000166
1987	1.9761e+02	-0.4371	-36.974108	0.000912	9.121699	1.545258	0.000183
1988	1.9771e+02	-0.4173	-36.748028	0.001135	11.351448	1.922987	0.000227
1989	1.9781e+02	-0.3981	-36.602691	0.000730	7.297359	1.236206	0.000146
1990	1.9791e+02	-0.3783	-36.388723	0.001074	10.743334	1.819970	0.000215
1991	1.9800e+02	-0.3582	-36.243386	0.000730	7.297359	1.236206	0.000146
1992	1.9810e+02	-0.3371	-36.049604	0.000973	9.729812	1.648275	0.000195
1993	1.9820e+02	-0.3181	-35.819487	0.001155	11.554152	1.957326	0.000231
1994	1.9830e+02	-0.2984	-35.662039	0.000791	7.905473	1.339223	0.000158
1995	1.9840e+02	-0.2785	-35.460182	0.001014	10.135221	1.716953	0.000203
1996	1.9850e+02	-0.2585	-35.270436	0.000953	9.527108	1.613936	0.000191
1997	1.9860e+02	-0.2389	-35.080691	0.000953	9.527108	1.613936	0.000191
1998	1.9870e+02	-0.2178	-34.886908	0.000973	9.729812	1.648275	0.000195
1999	1.9880e+02	-0.1987	-34.681015	0.001034	10.337926	1.751292	0.000207
2000	1.9890e+02	-0.1788	-34.539715	0.000709	7.094655	1.201867	0.000142
2001	1.9900e+02	-0.1599	-34.349969	0.000953	9.527108	1.613936	0.000191
2002	1.9910e+02	-0.1382	-34.160224	0.000953	9.527108	1.613936	0.000191
2003	1.9920e+02	-0.1187	-33.970479	0.000953	9.527108	1.613936	0.000191
2004	1.9930e+02	-0.0995	-33.788808	0.000912	9.121699	1.545258	0.000183
2005	1.9940e+02	-0.0790	-33.566765	0.001115	11.148743	1.888648	0.000223
2006	1.9950e+02	-0.0579	-33.457762	0.000547	5.473019	0.927155	0.000110
2007	1.9960e+02	-0.0389	-33.235720	0.001115	11.148743	1.888648	0.000223
2008	1.9970e+02	-0.0195	-33.021752	0.001074	10.743334	1.819970	0.000215
2009	1.9980e+02	-0.0006	-32.856229	0.001074	10.743334	1.819970	0.000166

Smooth data before PMax, +/-Pr and +/-Vc Calc.

PMax (uC/cm2):	7.83e+01
Pr (uC/cm2):	8.08e+00
-Pr (uC/cm2):	-5.03e+01
PLoss (uC/cm2):	-5.04e+01
-Vc:	-8.52e-01
C (Max-Eff) (nF):	7.83e-01
K (Eff):	1.33e+03
Vert. (+/-Pr) Shift (uC/cm2):	-2.11e+01
Offset (uC/cm2):	-1.75e+01

A (Loop Area - uC/cm2·Volts):	-1.26e-01



Hysteresis Version: 5.48.1 - Radiant Technologies, Inc., 1999 - 9/12/24

