»»»»»»»»»»»»»»»»»»»»»»»»»»»»»»»»»»»» Hysteresis ««««««««««««««««««««««««««««««««««««
»»»  Executed Version:	5.48.1
»»»  Vision Version:	5.48.4 (R)
»»»  Vision Compiled:	9/18/24
»»»  Driver Version:	5.47.0
»»»  Windows Version:	Windows 8 or 8.1
»»»  Processor Information:	x86 (AMD or Intel) - 32 Processors
»»»  Tester Name:	PMF21124-494 (100V)
»»»  Tester S/N:	PMF21124-494
»»»  Internal Amp Type:	100V RevK 270k
»»»  Internal Amp S/N:	iAB2-596/K     
»»»  Execution Count:	1
»»»»»»»»»»»»»»»»»»»»»»»»»»»»»»»»»»»»»»»»»»««««««««««««««««««««««««««««««««««««««««««

Stored:	7/9/2025 - 14:27:8
Configured:	07/09/25 02:06:30 PM
Executed:	07/09/25 02:26:38 PM

»»»»»»»»»»»»»»»»»»»»»»»»»»»»»»»»»»» Sample Info ««««««««««««««««««««««««««««««««««««
Sample Name:	
Lot Name:	
Wafer Name:	
Die Row/Column:	0/0
Capacitor Number:	0
Sample Area (cm2):	1.00e-04
Sample Thickness (microns):	1.50e-01

Amplifier:	Internal

»»»»»»»»»»»»»»»»»»»»»»»»»»»»»»»»»»» Tester Info «««««««««««««««««««««««««««««««««««
Tester Name:	PMF21124-494 (100V)
Tester Serial Number:	PMF21124-494
Return Signal Amp. Level:	0.19 [Index: 3]

»»»»»»»»»»»»»»»»»»»»»»»»»»»»»»»» Hysteresis Info ««««««««««««««««««««««««««««««««««
Task Name:	Hyst-900
Volts:	10.00
Field:	666.67 (kV/cm)
DCBias:	0.00
DCField:	0.00 (kV/cm)
Hysteresis Period (ms):	2.00e+02
Preset:	Enabled
Preset Delay (ms):	1.00e+03
Profile:	Standard Bipolar

»»»»»»»»»»»»»»»»»»»»»»»»»»»»»»»»»»»»»» Data «««««««««««««««««««««««««««««««««««««««
Points:	2009

Valid Data

Point	Time (ms)	Drive Voltage	Measured Polarization (uC/cm2)	Capacitance (uF)	Normalized Capacitance (uF/cm2)	Dielectric Constant	Instantaneous Current (mA)
   1	0.0000e+00	0.0001	4.781987	0.000871	8.714611	1.476295	0.000174
   2	9.9500e-02	0.0198	4.955584	0.000871	8.714611	1.476295	0.000174
   3	1.9900e-01	0.0397	5.064587	0.000547	5.471965	0.926976	0.000110
   4	2.9850e-01	0.0607	5.217998	0.000770	7.701284	1.304633	0.000154
   5	3.9800e-01	0.0797	5.391595	0.000871	8.714611	1.476295	0.000174
   6	4.9750e-01	0.1006	5.508672	0.000588	5.877296	0.995641	0.000118
   7	5.9700e-01	0.1186	5.670157	0.000811	8.106615	1.373298	0.000162
   8	6.9650e-01	0.1392	5.795308	0.000628	6.282627	1.064306	0.000126
   9	7.9600e-01	0.1601	5.956794	0.000811	8.106615	1.373298	0.000162
  10	8.9550e-01	0.1792	6.114242	0.000790	7.903950	1.338965	0.000158
  11	9.9500e-01	0.1991	6.251505	0.000689	6.890623	1.167303	0.000138
  12	1.0945e+00	0.2192	6.400879	0.000750	7.498619	1.270300	0.000150
  13	1.1940e+00	0.2387	6.550253	0.000750	7.498619	1.270300	0.000150
  14	1.2935e+00	0.2582	6.699627	0.000750	7.498619	1.270300	0.000150
  15	1.3930e+00	0.2782	6.869186	0.000851	8.511946	1.441963	0.000170
  16	1.4925e+00	0.2991	7.034709	0.000831	8.309280	1.407630	0.000166
  17	1.5920e+00	0.3188	7.171972	0.000689	6.890623	1.167303	0.000138
  18	1.6915e+00	0.3384	7.305197	0.000669	6.687957	1.132971	0.000134
  19	1.7910e+00	0.3595	7.454571	0.000750	7.498619	1.270300	0.000150
  20	1.8905e+00	0.3799	7.620094	0.000831	8.309280	1.407630	0.000166
  21	1.9900e+00	0.3992	7.757356	0.000689	6.890623	1.167303	0.000138
  22	2.0895e+00	0.4180	7.926916	0.000851	8.511946	1.441963	0.000170
  23	2.1890e+00	0.4386	8.048030	0.000608	6.079961	1.029973	0.000122
  24	2.2885e+00	0.4578	8.233738	0.000932	9.322607	1.579292	0.000187
  25	2.3880e+00	0.4778	8.362927	0.000649	6.485292	1.098638	0.000130
  26	2.4875e+00	0.4976	8.552672	0.000953	9.525273	1.613625	0.000191
  27	2.5870e+00	0.5172	8.681860	0.000649	6.485292	1.098638	0.000130
  28	2.6865e+00	0.5389	8.839309	0.000790	7.903950	1.338965	0.000158
  29	2.7860e+00	0.5584	9.020980	0.000912	9.119942	1.544960	0.000183
  30	2.8855e+00	0.5777	9.138057	0.000588	5.877296	0.995641	0.000118
  31	2.9850e+00	0.5985	9.283394	0.000730	7.295953	1.235968	0.000146
  32	3.0845e+00	0.6178	9.473139	0.000953	9.525273	1.613625	0.000191
  33	3.1840e+00	0.6379	9.630587	0.000790	7.903950	1.338965	0.000158
  34	3.2835e+00	0.6574	9.783998	0.000770	7.701284	1.304633	0.000154
  35	3.3830e+00	0.6776	9.961632	0.000892	8.917276	1.510628	0.000179
  36	3.4825e+00	0.6971	10.066598	0.000527	5.269300	0.892644	0.000105
  37	3.5820e+00	0.7180	10.276529	0.001054	10.538599	1.785287	0.000211
  38	3.6815e+00	0.7378	10.405717	0.000649	6.485292	1.098638	0.000130
  39	3.7810e+00	0.7578	10.567203	0.000811	8.106615	1.373298	0.000162
  40	3.8805e+00	0.7770	10.760985	0.000973	9.727938	1.647957	0.000195
  41	3.9800e+00	0.7974	10.890174	0.000649	6.485292	1.098638	0.000130
  42	4.0795e+00	0.8166	11.055696	0.000831	8.309280	1.407630	0.000166
  43	4.1790e+00	0.8374	11.229293	0.000871	8.714611	1.476295	0.000174
  44	4.2785e+00	0.8573	11.362519	0.000669	6.687957	1.132971	0.000134
  45	4.3780e+00	0.8771	11.544190	0.000912	9.119942	1.544960	0.000183
  46	4.4775e+00	0.8958	11.705675	0.000811	8.106615	1.373298	0.000162
  47	4.5770e+00	0.9162	11.851012	0.000730	7.295953	1.235968	0.000146
  48	4.6765e+00	0.9362	12.040757	0.000953	9.525273	1.613625	0.000191
  49	4.7760e+00	0.9575	12.178020	0.000689	6.890623	1.167303	0.000138
  50	4.8755e+00	0.9764	12.355654	0.000892	8.917276	1.510628	0.000179
  51	4.9750e+00	0.9965	12.533288	0.000892	8.917276	1.510628	0.000179
  52	5.0745e+00	1.0157	12.686699	0.000770	7.701284	1.304633	0.000154
  53	5.1740e+00	1.0365	12.811850	0.000628	6.282627	1.064306	0.000126
  54	5.2735e+00	1.0560	13.009670	0.000993	9.930603	1.682290	0.000199
  55	5.3730e+00	1.0764	13.175192	0.000831	8.309280	1.407630	0.000166
  56	5.4725e+00	1.0963	13.336678	0.000811	8.106615	1.373298	0.000162
  57	5.5720e+00	1.1163	13.469903	0.000669	6.687957	1.132971	0.000134
  58	5.6715e+00	1.1359	13.687909	0.001094	10.943930	1.853952	0.000219
  59	5.7710e+00	1.1555	13.784800	0.000486	4.863969	0.823979	0.000097
  60	5.8705e+00	1.1758	13.982620	0.000993	9.930603	1.682290	0.000199
  61	5.9700e+00	1.1958	14.127957	0.000730	7.295953	1.235968	0.000146
  62	6.0695e+00	1.2163	14.313665	0.000932	9.322607	1.579292	0.000187
  63	6.1690e+00	1.2352	14.463039	0.000750	7.498619	1.270300	0.000150
  64	6.2685e+00	1.2560	14.632598	0.000851	8.511946	1.441963	0.000170
  65	6.3680e+00	1.2749	14.786010	0.000770	7.701284	1.304633	0.000154
  66	6.4675e+00	1.2953	14.943458	0.000790	7.903950	1.338965	0.000158
  67	6.5670e+00	1.3150	15.104943	0.000811	8.106615	1.373298	0.000162
  68	6.6665e+00	1.3346	15.278540	0.000871	8.714611	1.476295	0.000174
  69	6.7660e+00	1.3546	15.435988	0.000790	7.903950	1.338965	0.000158
  70	6.8655e+00	1.3741	15.593437	0.000790	7.903950	1.338965	0.000158
  71	6.9650e+00	1.3943	15.771071	0.000892	8.917276	1.510628	0.000179
  72	7.0645e+00	1.4138	15.924482	0.000770	7.701284	1.304633	0.000154
  73	7.1640e+00	1.4348	16.049633	0.000628	6.282627	1.064306	0.000126
  74	7.2635e+00	1.4536	16.215156	0.000831	8.309280	1.407630	0.000166
  75	7.3630e+00	1.4741	16.404901	0.000953	9.525273	1.613625	0.000191
  76	7.4625e+00	1.4940	16.558312	0.000770	7.701284	1.304633	0.000154
  77	7.5620e+00	1.5141	16.731909	0.000871	8.714611	1.476295	0.000174
  78	7.6615e+00	1.5337	16.905506	0.000871	8.714611	1.476295	0.000174
  79	7.7610e+00	1.5537	17.099288	0.000973	9.727938	1.647957	0.000195
  80	7.8605e+00	1.5736	17.236551	0.000689	6.890623	1.167303	0.000138
  81	7.9600e+00	1.5928	17.414185	0.000892	8.917276	1.510628	0.000179
  82	8.0595e+00	1.6139	17.531262	0.000588	5.877296	0.995641	0.000118
  83	8.1590e+00	1.6341	17.737156	0.001034	10.335934	1.750955	0.000207
  84	8.2585e+00	1.6528	17.882493	0.000730	7.295953	1.235968	0.000146
  85	8.3580e+00	1.6735	18.068201	0.000932	9.322607	1.579292	0.000187
  86	8.4575e+00	1.6932	18.201426	0.000669	6.687957	1.132971	0.000134
  87	8.5570e+00	1.7126	18.395209	0.000973	9.727938	1.647957	0.000195
  88	8.6565e+00	1.7342	18.528434	0.000669	6.687957	1.132971	0.000134
  89	8.7560e+00	1.7532	18.726254	0.000993	9.930603	1.682290	0.000199
  90	8.8555e+00	1.7730	18.883702	0.000790	7.903950	1.338965	0.000158
  91	8.9550e+00	1.7928	19.065374	0.000912	9.119942	1.544960	0.000183
  92	9.0545e+00	1.8127	19.218785	0.000770	7.701284	1.304633	0.000154
  93	9.1540e+00	1.8339	19.396419	0.000892	8.917276	1.510628	0.000179
  94	9.2535e+00	1.8523	19.565978	0.000851	8.511946	1.441963	0.000170
  95	9.3530e+00	1.8729	19.751687	0.000932	9.322607	1.579292	0.000187
  96	9.4525e+00	1.8919	19.905098	0.000770	7.701284	1.304633	0.000154
  97	9.5520e+00	1.9128	20.054472	0.000750	7.498619	1.270300	0.000150
  98	9.6515e+00	1.9308	20.183660	0.000649	6.485292	1.098638	0.000130
  99	9.7510e+00	1.9514	20.381480	0.000993	9.930603	1.682290	0.000199
 100	9.8505e+00	1.9721	20.518742	0.000689	6.890623	1.167303	0.000138
 101	9.9500e+00	1.9922	20.708488	0.000953	9.525273	1.613625	0.000191
 102	1.0050e+01	2.0121	20.906307	0.000993	9.930603	1.682290	0.000199
 103	1.0149e+01	2.0323	21.063756	0.000790	7.903950	1.338965	0.000158
 104	1.0248e+01	2.0525	21.229278	0.000831	8.309280	1.407630	0.000166
 105	1.0348e+01	2.0727	21.423061	0.000973	9.727938	1.647957	0.000195
 106	1.0447e+01	2.0919	21.548212	0.000628	6.282627	1.064306	0.000126
 107	1.0547e+01	2.1118	21.737957	0.000953	9.525273	1.613625	0.000191
 108	1.0646e+01	2.1319	21.907517	0.000851	8.511946	1.441963	0.000170
 109	1.0746e+01	2.1523	22.089188	0.000912	9.119942	1.544960	0.000183
 110	1.0845e+01	2.1718	22.238562	0.000750	7.498619	1.270300	0.000150
 111	1.0945e+01	2.1916	22.420233	0.000912	9.119942	1.544960	0.000183
 112	1.1044e+01	2.2116	22.565570	0.000730	7.295953	1.235968	0.000146
 113	1.1144e+01	2.2308	22.718981	0.000770	7.701284	1.304633	0.000154
 114	1.1243e+01	2.2520	22.884504	0.000831	8.309280	1.407630	0.000166
 115	1.1343e+01	2.2710	23.082324	0.000993	9.930603	1.682290	0.000199
 116	1.1443e+01	2.2919	23.219586	0.000689	6.890623	1.167303	0.000138
 117	1.1542e+01	2.3114	23.413369	0.000973	9.727938	1.647957	0.000195
 118	1.1642e+01	2.3309	23.570817	0.000790	7.903950	1.338965	0.000158
 119	1.1741e+01	2.3519	23.744414	0.000871	8.714611	1.476295	0.000174
 120	1.1841e+01	2.3710	23.869565	0.000628	6.282627	1.064306	0.000126
 121	1.1940e+01	2.3918	24.039125	0.000851	8.511946	1.441963	0.000170
 122	1.2040e+01	2.4114	24.196573	0.000790	7.903950	1.338965	0.000158
 123	1.2139e+01	2.4303	24.349984	0.000770	7.701284	1.304633	0.000154
 124	1.2239e+01	2.4512	24.499358	0.000750	7.498619	1.270300	0.000150
 125	1.2338e+01	2.4703	24.709289	0.001054	10.538599	1.785287	0.000211
 126	1.2438e+01	2.4911	24.882886	0.000871	8.714611	1.476295	0.000174
 127	1.2537e+01	2.5115	25.004000	0.000608	6.079961	1.029973	0.000122
 128	1.2636e+01	2.5294	25.205857	0.001013	10.133269	1.716622	0.000203
 129	1.2736e+01	2.5503	25.363305	0.000790	7.903950	1.338965	0.000158
 130	1.2835e+01	2.5703	25.500568	0.000689	6.890623	1.167303	0.000138
 131	1.2935e+01	2.5906	25.690313	0.000953	9.525273	1.613625	0.000191
 132	1.3034e+01	2.6090	25.795279	0.000527	5.269300	0.892644	0.000105
 133	1.3134e+01	2.6307	25.964838	0.000851	8.511946	1.441963	0.000170
 134	1.3233e+01	2.6496	26.154584	0.000953	9.525273	1.613625	0.000191
 135	1.3333e+01	2.6688	26.307995	0.000770	7.701284	1.304633	0.000154
 136	1.3432e+01	2.6896	26.481592	0.000871	8.714611	1.476295	0.000174
 137	1.3532e+01	2.7085	26.606743	0.000628	6.282627	1.064306	0.000126
 138	1.3632e+01	2.7291	26.756117	0.000750	7.498619	1.270300	0.000150
 139	1.3731e+01	2.7505	26.941825	0.000932	9.322607	1.579292	0.000187
 140	1.3831e+01	2.7696	27.119459	0.000892	8.917276	1.510628	0.000179
 141	1.3930e+01	2.7904	27.284982	0.000831	8.309280	1.407630	0.000166
 142	1.4030e+01	2.8086	27.422245	0.000689	6.890623	1.167303	0.000138
 143	1.4129e+01	2.8291	27.595841	0.000871	8.714611	1.476295	0.000174
 144	1.4229e+01	2.8490	27.733104	0.000689	6.890623	1.167303	0.000138
 145	1.4328e+01	2.8694	27.914775	0.000912	9.119942	1.544960	0.000183
 146	1.4428e+01	2.8892	28.064149	0.000750	7.498619	1.270300	0.000150
 147	1.4527e+01	2.9088	28.229672	0.000831	8.309280	1.407630	0.000166
 148	1.4627e+01	2.9296	28.403268	0.000871	8.714611	1.476295	0.000174
 149	1.4726e+01	2.9486	28.548605	0.000730	7.295953	1.235968	0.000146
 150	1.4825e+01	2.9691	28.697979	0.000750	7.498619	1.270300	0.000150
 151	1.4925e+01	2.9883	28.883688	0.000932	9.322607	1.579292	0.000187
 152	1.5024e+01	3.0086	29.033062	0.000750	7.498619	1.270300	0.000150
 153	1.5124e+01	3.0285	29.178399	0.000730	7.295953	1.235968	0.000146
 154	1.5223e+01	3.0483	29.400441	0.001115	11.146596	1.888284	0.000223
 155	1.5323e+01	3.0690	29.513481	0.000567	5.674630	0.961308	0.000114
 156	1.5422e+01	3.0877	29.650743	0.000689	6.890623	1.167303	0.000138
 157	1.5522e+01	3.1079	29.792043	0.000709	7.093288	1.201636	0.000142
 158	1.5621e+01	3.1281	29.985826	0.000973	9.727938	1.647957	0.000195
 159	1.5721e+01	3.1489	30.143274	0.000790	7.903950	1.338965	0.000158
 160	1.5820e+01	3.1678	30.296685	0.000770	7.701284	1.304633	0.000154
 161	1.5920e+01	3.1884	30.433948	0.000689	6.890623	1.167303	0.000138
 162	1.6020e+01	3.2073	30.587359	0.000770	7.701284	1.304633	0.000154
 163	1.6119e+01	3.2278	30.769030	0.000912	9.119942	1.544960	0.000183
 164	1.6218e+01	3.2475	30.878033	0.000547	5.471965	0.926976	0.000110
 165	1.6318e+01	3.2674	31.075852	0.000993	9.930603	1.682290	0.000199
 166	1.6418e+01	3.2884	31.201004	0.000628	6.282627	1.064306	0.000126
 167	1.6517e+01	3.3074	31.350378	0.000750	7.498619	1.270300	0.000150
 168	1.6616e+01	3.3270	31.515900	0.000831	8.309280	1.407630	0.000166
 169	1.6716e+01	3.3469	31.673348	0.000790	7.903950	1.338965	0.000158
 170	1.6816e+01	3.3669	31.802537	0.000649	6.485292	1.098638	0.000130
 171	1.6915e+01	3.3875	31.996319	0.000973	9.727938	1.647957	0.000195
 172	1.7015e+01	3.4066	32.153768	0.000790	7.903950	1.338965	0.000158
 173	1.7114e+01	3.4274	32.270845	0.000588	5.877296	0.995641	0.000118
 174	1.7213e+01	3.4472	32.395996	0.000628	6.282627	1.064306	0.000126
 175	1.7313e+01	3.4667	32.569593	0.000871	8.714611	1.476295	0.000174
 176	1.7413e+01	3.4869	32.763375	0.000973	9.727938	1.647957	0.000195
 177	1.7512e+01	3.5056	32.868341	0.000527	5.269300	0.892644	0.000105
 178	1.7611e+01	3.5265	33.025789	0.000790	7.903950	1.338965	0.000158
 179	1.7711e+01	3.5466	33.195349	0.000851	8.511946	1.441963	0.000170
 180	1.7811e+01	3.5655	33.344723	0.000750	7.498619	1.270300	0.000150
 181	1.7910e+01	3.5860	33.461800	0.000588	5.877296	0.995641	0.000118
 182	1.8009e+01	3.6066	33.631359	0.000851	8.511946	1.441963	0.000170
 183	1.8109e+01	3.6266	33.740362	0.000547	5.471965	0.926976	0.000110
 184	1.8209e+01	3.6465	33.869550	0.000649	6.485292	1.098638	0.000130
 185	1.8308e+01	3.6668	34.087556	0.001094	10.943930	1.853952	0.000219
 186	1.8407e+01	3.6868	34.192521	0.000527	5.269300	0.892644	0.000105
 187	1.8507e+01	3.7058	34.337858	0.000730	7.295953	1.235968	0.000146
 188	1.8607e+01	3.7258	34.519529	0.000912	9.119942	1.544960	0.000183
 189	1.8706e+01	3.7460	34.636606	0.000588	5.877296	0.995641	0.000118
 190	1.8805e+01	3.7652	34.822314	0.000932	9.322607	1.579292	0.000187
 191	1.8905e+01	3.7853	34.927280	0.000527	5.269300	0.892644	0.000105
 192	1.9005e+01	3.8045	35.084728	0.000790	7.903950	1.338965	0.000158
 193	1.9104e+01	3.8249	35.230065	0.000730	7.295953	1.235968	0.000146
 194	1.9203e+01	3.8450	35.375402	0.000730	7.295953	1.235968	0.000146
 195	1.9303e+01	3.8648	35.512665	0.000689	6.890623	1.167303	0.000138
 196	1.9402e+01	3.8848	35.662039	0.000750	7.498619	1.270300	0.000150
 197	1.9502e+01	3.9043	35.799301	0.000689	6.890623	1.167303	0.000138
 198	1.9602e+01	3.9251	35.997121	0.000993	9.930603	1.682290	0.000199
 199	1.9701e+01	3.9440	36.110161	0.000567	5.674630	0.961308	0.000114
 200	1.9800e+01	3.9658	36.255497	0.000730	7.295953	1.235968	0.000146
 201	1.9900e+01	3.9849	36.412946	0.000790	7.903950	1.338965	0.000158
 202	2.0000e+01	4.0046	36.542134	0.000649	6.485292	1.098638	0.000130
 203	2.0099e+01	4.0246	36.699582	0.000790	7.903950	1.338965	0.000158
 204	2.0198e+01	4.0443	36.812622	0.000567	5.674630	0.961308	0.000114
 205	2.0298e+01	4.0640	36.986219	0.000871	8.714611	1.476295	0.000174
 206	2.0398e+01	4.0832	37.127519	0.000709	7.093288	1.201636	0.000142
 207	2.0497e+01	4.1033	37.305153	0.000892	8.917276	1.510628	0.000179
 208	2.0596e+01	4.1239	37.385896	0.000405	4.053307	0.686649	0.000081
 209	2.0696e+01	4.1434	37.555455	0.000851	8.511946	1.441963	0.000170
 210	2.0796e+01	4.1640	37.684644	0.000649	6.485292	1.098638	0.000130
 211	2.0895e+01	4.1839	37.846129	0.000811	8.106615	1.373298	0.000162
 212	2.0994e+01	4.2043	38.003577	0.000790	7.903950	1.338965	0.000158
 213	2.1094e+01	4.2237	38.169100	0.000831	8.309280	1.407630	0.000166
 214	2.1194e+01	4.2443	38.282140	0.000567	5.674630	0.961308	0.000114
 215	2.1293e+01	4.2647	38.415365	0.000669	6.687957	1.132971	0.000134
 216	2.1392e+01	4.2840	38.564739	0.000750	7.498619	1.270300	0.000150
 217	2.1492e+01	4.3041	38.758522	0.000973	9.727938	1.647957	0.000195
 218	2.1591e+01	4.3238	38.847339	0.000446	4.458638	0.755314	0.000089
 219	2.1691e+01	4.3435	38.996713	0.000750	7.498619	1.270300	0.000150
 220	2.1791e+01	4.3629	39.190495	0.000973	9.727938	1.647957	0.000195
 221	2.1890e+01	4.3832	39.271238	0.000405	4.053307	0.686649	0.000081
 222	2.1989e+01	4.4038	39.444835	0.000871	8.714611	1.476295	0.000174
 223	2.2089e+01	4.4222	39.545763	0.000507	5.066634	0.858311	0.000101
 224	2.2189e+01	4.4427	39.747620	0.001013	10.133269	1.716622	0.000203
 225	2.2288e+01	4.4631	39.844511	0.000486	4.863969	0.823979	0.000097
 226	2.2387e+01	4.4830	39.989848	0.000730	7.295953	1.235968	0.000146
 227	2.2487e+01	4.5028	40.114999	0.000628	6.282627	1.064306	0.000126
 228	2.2587e+01	4.5234	40.236113	0.000608	6.079961	1.029973	0.000122
 229	2.2686e+01	4.5428	40.429896	0.000973	9.727938	1.647957	0.000195
 230	2.2785e+01	4.5628	40.522750	0.000466	4.661304	0.789646	0.000093
 231	2.2885e+01	4.5824	40.676161	0.000770	7.701284	1.304633	0.000154
 232	2.2985e+01	4.6027	40.793238	0.000588	5.877296	0.995641	0.000118
 233	2.3084e+01	4.6220	40.958761	0.000831	8.309280	1.407630	0.000166
 234	2.3183e+01	4.6412	41.096023	0.000689	6.890623	1.167303	0.000138
 235	2.3283e+01	4.6621	41.237323	0.000709	7.093288	1.201636	0.000142
 236	2.3383e+01	4.6828	41.406883	0.000851	8.511946	1.441963	0.000170
 237	2.3482e+01	4.7031	41.532034	0.000628	6.282627	1.064306	0.000126
 238	2.3581e+01	4.7233	41.661222	0.000649	6.485292	1.098638	0.000130
 239	2.3681e+01	4.7411	41.741965	0.000405	4.053307	0.686649	0.000081
 240	2.3780e+01	4.7618	41.923636	0.000912	9.119942	1.544960	0.000183
 241	2.3880e+01	4.7813	42.056862	0.000669	6.687957	1.132971	0.000134
 242	2.3980e+01	4.8020	42.173938	0.000588	5.877296	0.995641	0.000118
 243	2.4079e+01	4.8219	42.355610	0.000912	9.119942	1.544960	0.000183
 244	2.4178e+01	4.8418	42.496909	0.000709	7.093288	1.201636	0.000142
 245	2.4278e+01	4.8613	42.613986	0.000588	5.877296	0.995641	0.000118
 246	2.4378e+01	4.8814	42.775472	0.000811	8.106615	1.373298	0.000162
 247	2.4477e+01	4.9010	42.912734	0.000689	6.890623	1.167303	0.000138
 248	2.4576e+01	4.9215	43.045960	0.000669	6.687957	1.132971	0.000134
 249	2.4676e+01	4.9413	43.203408	0.000790	7.903950	1.338965	0.000158
 250	2.4776e+01	4.9610	43.324522	0.000608	6.079961	1.029973	0.000122
 251	2.4875e+01	4.9815	43.445636	0.000608	6.079961	1.029973	0.000122
 252	2.4974e+01	5.0008	43.582899	0.000689	6.890623	1.167303	0.000138
 253	2.5074e+01	5.0211	43.740347	0.000790	7.903950	1.338965	0.000158
 254	2.5174e+01	5.0405	43.845313	0.000527	5.269300	0.892644	0.000105
 255	2.5273e+01	5.0597	44.031021	0.000932	9.322607	1.579292	0.000187
 256	2.5372e+01	5.0799	44.148098	0.000588	5.877296	0.995641	0.000118
 257	2.5472e+01	5.1009	44.269212	0.000608	6.079961	1.029973	0.000122
 258	2.5572e+01	5.1201	44.454920	0.000932	9.322607	1.579292	0.000187
 259	2.5671e+01	5.1403	44.539700	0.000426	4.255973	0.720981	0.000085
 260	2.5770e+01	5.1598	44.705223	0.000831	8.309280	1.407630	0.000166
 261	2.5870e+01	5.1799	44.874782	0.000851	8.511946	1.441963	0.000170
 262	2.5970e+01	5.2001	45.008008	0.000669	6.687957	1.132971	0.000134
 263	2.6069e+01	5.2190	45.121048	0.000567	5.674630	0.961308	0.000114
 264	2.6169e+01	5.2401	45.278496	0.000790	7.903950	1.338965	0.000158
 265	2.6268e+01	5.2605	45.403647	0.000628	6.282627	1.064306	0.000126
 266	2.6367e+01	5.2792	45.540910	0.000689	6.890623	1.167303	0.000138
 267	2.6467e+01	5.2995	45.698358	0.000790	7.903950	1.338965	0.000158
 268	2.6567e+01	5.3190	45.839658	0.000709	7.093288	1.201636	0.000142
 269	2.6666e+01	5.3402	45.972883	0.000669	6.687957	1.132971	0.000134
 270	2.6765e+01	5.3591	46.057663	0.000426	4.255973	0.720981	0.000085
 271	2.6865e+01	5.3796	46.255483	0.000993	9.930603	1.682290	0.000199
 272	2.6965e+01	5.3989	46.380634	0.000628	6.282627	1.064306	0.000126
 273	2.7064e+01	5.4186	46.517897	0.000689	6.890623	1.167303	0.000138
 274	2.7163e+01	5.4388	46.630936	0.000567	5.674630	0.961308	0.000114
 275	2.7263e+01	5.4589	46.780310	0.000750	7.498619	1.270300	0.000150
 276	2.7363e+01	5.4781	46.909499	0.000649	6.485292	1.098638	0.000130
 277	2.7462e+01	5.4995	47.079058	0.000851	8.511946	1.441963	0.000170
 278	2.7561e+01	5.5193	47.192098	0.000567	5.674630	0.961308	0.000114
 279	2.7661e+01	5.5386	47.341472	0.000750	7.498619	1.270300	0.000150
 280	2.7761e+01	5.5575	47.438363	0.000486	4.863969	0.823979	0.000097
 281	2.7860e+01	5.5792	47.603886	0.000831	8.309280	1.407630	0.000166
 282	2.7959e+01	5.5981	47.757297	0.000770	7.701284	1.304633	0.000154
 283	2.8059e+01	5.6182	47.838040	0.000405	4.053307	0.686649	0.000081
 284	2.8159e+01	5.6384	48.027785	0.000953	9.525273	1.613625	0.000191
 285	2.8258e+01	5.6582	48.108528	0.000405	4.053307	0.686649	0.000081
 286	2.8358e+01	5.6777	48.310385	0.001013	10.133269	1.716622	0.000203
 287	2.8457e+01	5.6982	48.419387	0.000547	5.471965	0.926976	0.000110
 288	2.8556e+01	5.7173	48.540502	0.000608	6.079961	1.029973	0.000122
 289	2.8656e+01	5.7384	48.677764	0.000689	6.890623	1.167303	0.000138
 290	2.8756e+01	5.7574	48.762544	0.000426	4.255973	0.720981	0.000085
 291	2.8855e+01	5.7777	48.952289	0.000953	9.525273	1.613625	0.000191
 292	2.8954e+01	5.7970	49.101663	0.000750	7.498619	1.270300	0.000150
 293	2.9054e+01	5.8183	49.178369	0.000385	3.850642	0.652316	0.000077
 294	2.9154e+01	5.8378	49.307557	0.000649	6.485292	1.098638	0.000130
 295	2.9253e+01	5.8581	49.465006	0.000790	7.903950	1.338965	0.000158
 296	2.9352e+01	5.8767	49.598231	0.000669	6.687957	1.132971	0.000134
 297	2.9452e+01	5.8978	49.687048	0.000446	4.458638	0.755314	0.000089
 298	2.9552e+01	5.9176	49.860645	0.000871	8.714611	1.476295	0.000174
 299	2.9651e+01	5.9371	50.005982	0.000730	7.295953	1.235968	0.000146
 300	2.9750e+01	5.9576	50.127096	0.000608	6.079961	1.029973	0.000122
 301	2.9850e+01	5.9763	50.236099	0.000547	5.471965	0.926976	0.000110
 302	2.9950e+01	5.9969	50.389510	0.000770	7.701284	1.304633	0.000154
 303	3.0049e+01	6.0171	50.538884	0.000750	7.498619	1.270300	0.000150
 304	3.0148e+01	6.0368	50.672109	0.000669	6.687957	1.132971	0.000134
 305	3.0248e+01	6.0567	50.781112	0.000547	5.471965	0.926976	0.000110
 306	3.0348e+01	6.0769	50.910300	0.000649	6.485292	1.098638	0.000130
 307	3.0447e+01	6.0975	51.031414	0.000608	6.079961	1.029973	0.000122
 308	3.0547e+01	6.1172	51.148491	0.000588	5.877296	0.995641	0.000118
 309	3.0646e+01	6.1370	51.293828	0.000730	7.295953	1.235968	0.000146
 310	3.0745e+01	6.1573	51.439165	0.000730	7.295953	1.235968	0.000146
 311	3.0845e+01	6.1758	51.540093	0.000507	5.066634	0.858311	0.000101
 312	3.0945e+01	6.1965	51.673319	0.000669	6.687957	1.132971	0.000134
 313	3.1044e+01	6.2157	51.842879	0.000851	8.511946	1.441963	0.000170
 314	3.1143e+01	6.2371	51.927658	0.000426	4.255973	0.720981	0.000085
 315	3.1243e+01	6.2561	52.036661	0.000547	5.471965	0.926976	0.000110
 316	3.1343e+01	6.2754	52.202184	0.000831	8.309280	1.407630	0.000166
 317	3.1442e+01	6.2972	52.315223	0.000567	5.674630	0.961308	0.000114
 318	3.1541e+01	6.3151	52.460560	0.000730	7.295953	1.235968	0.000146
 319	3.1641e+01	6.3355	52.565526	0.000527	5.269300	0.892644	0.000105
 320	3.1741e+01	6.3554	52.710863	0.000730	7.295953	1.235968	0.000146
 321	3.1840e+01	6.3759	52.844088	0.000669	6.687957	1.132971	0.000134
 322	3.1939e+01	6.3947	52.969239	0.000628	6.282627	1.064306	0.000126
 323	3.2039e+01	6.4145	53.126688	0.000790	7.903950	1.338965	0.000158
 324	3.2139e+01	6.4349	53.199356	0.000365	3.647977	0.617984	0.000073
 325	3.2238e+01	6.4545	53.340656	0.000709	7.093288	1.201636	0.000142
 326	3.2337e+01	6.4758	53.502141	0.000811	8.106615	1.373298	0.000162
 327	3.2437e+01	6.4950	53.582884	0.000405	4.053307	0.686649	0.000081
 328	3.2536e+01	6.5139	53.708035	0.000628	6.282627	1.064306	0.000126
 329	3.2636e+01	6.5337	53.849335	0.000709	7.093288	1.201636	0.000142
 330	3.2736e+01	6.5549	54.002746	0.000770	7.701284	1.304633	0.000154
 331	3.2835e+01	6.5742	54.144046	0.000709	7.093288	1.201636	0.000142
 332	3.2934e+01	6.5936	54.236900	0.000466	4.661304	0.789646	0.000093
 333	3.3034e+01	6.6141	54.337828	0.000507	5.066634	0.858311	0.000101
 334	3.3133e+01	6.6349	54.471054	0.000669	6.687957	1.132971	0.000134
 335	3.3233e+01	6.6533	54.620428	0.000750	7.498619	1.270300	0.000150
 336	3.3333e+01	6.6729	54.725393	0.000527	5.269300	0.892644	0.000105
 337	3.3432e+01	6.6943	54.878805	0.000770	7.701284	1.304633	0.000154
 338	3.3532e+01	6.7129	54.987807	0.000547	5.471965	0.926976	0.000110
 339	3.3631e+01	6.7333	55.116996	0.000649	6.485292	1.098638	0.000130
 340	3.3730e+01	6.7535	55.238110	0.000608	6.079961	1.029973	0.000122
 341	3.3830e+01	6.7730	55.343075	0.000527	5.269300	0.892644	0.000105
 342	3.3929e+01	6.7936	55.484375	0.000709	7.093288	1.201636	0.000142
 343	3.4029e+01	6.8133	55.577229	0.000466	4.661304	0.789646	0.000093
 344	3.4129e+01	6.8330	55.702380	0.000628	6.282627	1.064306	0.000126
 345	3.4228e+01	6.8530	55.839643	0.000689	6.890623	1.167303	0.000138
 346	3.4328e+01	6.8725	55.924423	0.000426	4.255973	0.720981	0.000085
 347	3.4427e+01	6.8932	56.069760	0.000730	7.295953	1.235968	0.000146
 348	3.4526e+01	6.9132	56.162614	0.000466	4.661304	0.789646	0.000093
 349	3.4626e+01	6.9314	56.316025	0.000770	7.701284	1.304633	0.000154
 350	3.4725e+01	6.9521	56.416953	0.000507	5.066634	0.858311	0.000101
 351	3.4825e+01	6.9723	56.566327	0.000750	7.498619	1.270300	0.000150
 352	3.4925e+01	6.9927	56.683404	0.000588	5.877296	0.995641	0.000118
 353	3.5024e+01	7.0131	56.804518	0.000608	6.079961	1.029973	0.000122
 354	3.5123e+01	7.0318	56.913521	0.000547	5.471965	0.926976	0.000110
 355	3.5223e+01	7.0528	57.026561	0.000567	5.674630	0.961308	0.000114
 356	3.5322e+01	7.0728	57.147675	0.000608	6.079961	1.029973	0.000122
 357	3.5422e+01	7.0936	57.256678	0.000547	5.471965	0.926976	0.000110
 358	3.5522e+01	7.1121	57.397977	0.000709	7.093288	1.201636	0.000142
 359	3.5621e+01	7.1314	57.490831	0.000466	4.661304	0.789646	0.000093
 360	3.5721e+01	7.1513	57.648280	0.000790	7.903950	1.338965	0.000158
 361	3.5820e+01	7.1717	57.716911	0.000345	3.445311	0.583652	0.000069
 362	3.5919e+01	7.1914	57.862248	0.000730	7.295953	1.235968	0.000146
 363	3.6019e+01	7.2121	57.995473	0.000669	6.687957	1.132971	0.000134
 364	3.6118e+01	7.2311	58.104476	0.000547	5.471965	0.926976	0.000110
 365	3.6218e+01	7.2521	58.245776	0.000709	7.093288	1.201636	0.000142
 366	3.6318e+01	7.2710	58.318444	0.000365	3.647977	0.617984	0.000073
 367	3.6417e+01	7.2918	58.463781	0.000730	7.295953	1.235968	0.000146
 368	3.6517e+01	7.3105	58.572784	0.000547	5.471965	0.926976	0.000110
 369	3.6616e+01	7.3307	58.685824	0.000567	5.674630	0.961308	0.000114
 370	3.6715e+01	7.3514	58.810975	0.000628	6.282627	1.064306	0.000126
 371	3.6815e+01	7.3712	58.940163	0.000649	6.485292	1.098638	0.000130
 372	3.6914e+01	7.3910	59.085500	0.000730	7.295953	1.235968	0.000146
 373	3.7014e+01	7.4113	59.202577	0.000588	5.877296	0.995641	0.000118
 374	3.7114e+01	7.4317	59.279283	0.000385	3.850642	0.652316	0.000077
 375	3.7213e+01	7.4512	59.412508	0.000669	6.687957	1.132971	0.000134
 376	3.7313e+01	7.4705	59.505362	0.000466	4.661304	0.789646	0.000093
 377	3.7412e+01	7.4903	59.634551	0.000649	6.485292	1.098638	0.000130
 378	3.7511e+01	7.5105	59.747590	0.000567	5.674630	0.961308	0.000114
 379	3.7611e+01	7.5297	59.888890	0.000709	7.093288	1.201636	0.000142
 380	3.7711e+01	7.5517	59.929261	0.000203	2.026654	0.343324	0.000041
 381	3.7810e+01	7.5701	60.090747	0.000811	8.106615	1.373298	0.000162
 382	3.7910e+01	7.5901	60.223972	0.000669	6.687957	1.132971	0.000134
 383	3.8009e+01	7.6096	60.296641	0.000365	3.647977	0.617984	0.000073
 384	3.8108e+01	7.6305	60.429866	0.000669	6.687957	1.132971	0.000134
 385	3.8208e+01	7.6510	60.571166	0.000709	7.093288	1.201636	0.000142
 386	3.8307e+01	7.6704	60.672094	0.000507	5.066634	0.858311	0.000101
 387	3.8407e+01	7.6907	60.837617	0.000831	8.309280	1.407630	0.000166
 388	3.8507e+01	7.7102	60.922397	0.000426	4.255973	0.720981	0.000085
 389	3.8606e+01	7.7306	61.027362	0.000527	5.269300	0.892644	0.000105
 390	3.8706e+01	7.7491	61.168662	0.000709	7.093288	1.201636	0.000142
 391	3.8805e+01	7.7693	61.305925	0.000689	6.890623	1.167303	0.000138
 392	3.8904e+01	7.7899	61.406853	0.000507	5.066634	0.858311	0.000101
 393	3.9004e+01	7.8101	61.523930	0.000588	5.877296	0.995641	0.000118
 394	3.9103e+01	7.8292	61.616784	0.000466	4.661304	0.789646	0.000093
 395	3.9203e+01	7.8493	61.713675	0.000486	4.863969	0.823979	0.000097
 396	3.9303e+01	7.8688	61.838827	0.000628	6.282627	1.064306	0.000126
 397	3.9402e+01	7.8894	61.943792	0.000527	5.269300	0.892644	0.000105
 398	3.9502e+01	7.9092	62.044721	0.000507	5.066634	0.858311	0.000101
 399	3.9601e+01	7.9290	62.181983	0.000689	6.890623	1.167303	0.000138
 400	3.9700e+01	7.9482	62.286949	0.000527	5.269300	0.892644	0.000105
 401	3.9800e+01	7.9684	62.428248	0.000709	7.093288	1.201636	0.000142
 402	3.9900e+01	7.9884	62.513028	0.000426	4.255973	0.720981	0.000085
 403	3.9999e+01	8.0090	62.646254	0.000669	6.687957	1.132971	0.000134
 404	4.0099e+01	8.0282	62.767368	0.000608	6.079961	1.029973	0.000122
 405	4.0198e+01	8.0486	62.884445	0.000588	5.877296	0.995641	0.000118
 406	4.0297e+01	8.0685	62.969225	0.000426	4.255973	0.720981	0.000085
 407	4.0397e+01	8.0892	63.098413	0.000649	6.485292	1.098638	0.000130
 408	4.0496e+01	8.1077	63.154933	0.000284	2.837315	0.480654	0.000057
 409	4.0596e+01	8.1281	63.308344	0.000770	7.701284	1.304633	0.000154
 410	4.0696e+01	8.1475	63.421384	0.000567	5.674630	0.961308	0.000114
 411	4.0795e+01	8.1683	63.526349	0.000527	5.269300	0.892644	0.000105
 412	4.0895e+01	8.1889	63.651501	0.000628	6.282627	1.064306	0.000126
 413	4.0994e+01	8.2081	63.784726	0.000669	6.687957	1.132971	0.000134
 414	4.1093e+01	8.2287	63.901803	0.000588	5.877296	0.995641	0.000118
 415	4.1193e+01	8.2481	64.014843	0.000567	5.674630	0.961308	0.000114
 416	4.1292e+01	8.2674	64.111734	0.000486	4.863969	0.823979	0.000097
 417	4.1392e+01	8.2876	64.240922	0.000649	6.485292	1.098638	0.000130
 418	4.1492e+01	8.3071	64.313591	0.000365	3.647977	0.617984	0.000073
 419	4.1591e+01	8.3273	64.438742	0.000628	6.282627	1.064306	0.000126
 420	4.1691e+01	8.3477	64.580042	0.000709	7.093288	1.201636	0.000142
 421	4.1790e+01	8.3657	64.705193	0.000628	6.282627	1.064306	0.000126
 422	4.1889e+01	8.3872	64.822270	0.000588	5.877296	0.995641	0.000118
 423	4.1989e+01	8.4071	64.927236	0.000527	5.269300	0.892644	0.000105
 424	4.2089e+01	8.4270	65.024127	0.000486	4.863969	0.823979	0.000097
 425	4.2188e+01	8.4473	65.137167	0.000567	5.674630	0.961308	0.000114
 426	4.2288e+01	8.4668	65.286541	0.000750	7.498619	1.270300	0.000150
 427	4.2387e+01	8.4866	65.383432	0.000486	4.863969	0.823979	0.000097
 428	4.2486e+01	8.5073	65.496472	0.000567	5.674630	0.961308	0.000114
 429	4.2586e+01	8.5266	65.613549	0.000588	5.877296	0.995641	0.000118
 430	4.2685e+01	8.5476	65.726588	0.000567	5.674630	0.961308	0.000114
 431	4.2785e+01	8.5666	65.847702	0.000608	6.079961	1.029973	0.000122
 432	4.2885e+01	8.5859	65.956705	0.000547	5.471965	0.926976	0.000110
 433	4.2984e+01	8.6051	66.053596	0.000486	4.863969	0.823979	0.000097
 434	4.3084e+01	8.6260	66.182785	0.000649	6.485292	1.098638	0.000130
 435	4.3183e+01	8.6459	66.336196	0.000770	7.701284	1.304633	0.000154
 436	4.3282e+01	8.6666	66.412901	0.000385	3.850642	0.652316	0.000077
 437	4.3382e+01	8.6868	66.542090	0.000649	6.485292	1.098638	0.000130
 438	4.3481e+01	8.7052	66.683390	0.000709	7.093288	1.201636	0.000142
 439	4.3581e+01	8.7258	66.800466	0.000588	5.877296	0.995641	0.000118
 440	4.3681e+01	8.7454	66.913506	0.000567	5.674630	0.961308	0.000114
 441	4.3780e+01	8.7662	67.006360	0.000466	4.661304	0.789646	0.000093
 442	4.3880e+01	8.7858	67.123437	0.000588	5.877296	0.995641	0.000118
 443	4.3979e+01	8.8055	67.252626	0.000649	6.485292	1.098638	0.000130
 444	4.4078e+01	8.8262	67.357591	0.000527	5.269300	0.892644	0.000105
 445	4.4178e+01	8.8450	67.466594	0.000547	5.471965	0.926976	0.000110
 446	4.4278e+01	8.8645	67.587708	0.000608	6.079961	1.029973	0.000122
 447	4.4377e+01	8.8844	67.704785	0.000588	5.877296	0.995641	0.000118
 448	4.4477e+01	8.9051	67.769379	0.000324	3.242646	0.549319	0.000065
 449	4.4576e+01	8.9249	67.934902	0.000831	8.309280	1.407630	0.000166
 450	4.4675e+01	8.9440	68.039867	0.000527	5.269300	0.892644	0.000105
 451	4.4775e+01	8.9645	68.132721	0.000466	4.661304	0.789646	0.000093
 452	4.4874e+01	8.9844	68.249798	0.000588	5.877296	0.995641	0.000118
 453	4.4974e+01	9.0041	68.407247	0.000790	7.903950	1.338965	0.000158
 454	4.5074e+01	9.0244	68.471841	0.000324	3.242646	0.549319	0.000065
 455	4.5173e+01	9.0438	68.605066	0.000669	6.687957	1.132971	0.000134
 456	4.5273e+01	9.0639	68.718106	0.000567	5.674630	0.961308	0.000114
 457	4.5372e+01	9.0830	68.810960	0.000466	4.661304	0.789646	0.000093
 458	4.5471e+01	9.1040	68.952260	0.000709	7.093288	1.201636	0.000142
 459	4.5571e+01	9.1235	69.065300	0.000567	5.674630	0.961308	0.000114
 460	4.5670e+01	9.1442	69.158154	0.000466	4.661304	0.789646	0.000093
 461	4.5770e+01	9.1634	69.311565	0.000770	7.701284	1.304633	0.000154
 462	4.5870e+01	9.1833	69.412493	0.000507	5.066634	0.858311	0.000101
 463	4.5969e+01	9.2020	69.497273	0.000426	4.255973	0.720981	0.000085
 464	4.6069e+01	9.2227	69.626462	0.000649	6.485292	1.098638	0.000130
 465	4.6168e+01	9.2439	69.723353	0.000486	4.863969	0.823979	0.000097
 466	4.6267e+01	9.2623	69.852541	0.000649	6.485292	1.098638	0.000130
 467	4.6367e+01	9.2829	69.945395	0.000466	4.661304	0.789646	0.000093
 468	4.6467e+01	9.3029	70.086695	0.000709	7.093288	1.201636	0.000142
 469	4.6566e+01	9.3220	70.195698	0.000547	5.471965	0.926976	0.000110
 470	4.6666e+01	9.3427	70.300663	0.000527	5.269300	0.892644	0.000105
 471	4.6765e+01	9.3624	70.421777	0.000608	6.079961	1.029973	0.000122
 472	4.6864e+01	9.3827	70.514631	0.000466	4.661304	0.789646	0.000093
 473	4.6964e+01	9.4021	70.627671	0.000567	5.674630	0.961308	0.000114
 474	4.7063e+01	9.4225	70.728600	0.000507	5.066634	0.858311	0.000101
 475	4.7163e+01	9.4428	70.845676	0.000588	5.877296	0.995641	0.000118
 476	4.7263e+01	9.4624	70.962753	0.000588	5.877296	0.995641	0.000118
 477	4.7362e+01	9.4827	71.087905	0.000628	6.282627	1.064306	0.000126
 478	4.7462e+01	9.5020	71.253427	0.000831	8.309280	1.407630	0.000166
 479	4.7561e+01	9.5223	71.281687	0.000142	1.418658	0.240327	0.000028
 480	4.7660e+01	9.5422	71.414913	0.000669	6.687957	1.132971	0.000134
 481	4.7760e+01	9.5615	71.527952	0.000567	5.674630	0.961308	0.000114
 482	4.7859e+01	9.5815	71.632918	0.000527	5.269300	0.892644	0.000105
 483	4.7959e+01	9.6021	71.741921	0.000547	5.471965	0.926976	0.000110
 484	4.8059e+01	9.6217	71.883220	0.000709	7.093288	1.201636	0.000142
 485	4.8158e+01	9.6412	71.959926	0.000385	3.850642	0.652316	0.000077
 486	4.8258e+01	9.6616	72.081040	0.000608	6.079961	1.029973	0.000122
 487	4.8357e+01	9.6812	72.173894	0.000466	4.661304	0.789646	0.000093
 488	4.8456e+01	9.7016	72.303083	0.000649	6.485292	1.098638	0.000130
 489	4.8556e+01	9.7211	72.412085	0.000547	5.471965	0.926976	0.000110
 490	4.8656e+01	9.7414	72.545311	0.000669	6.687957	1.132971	0.000134
 491	4.8755e+01	9.7622	72.646239	0.000507	5.066634	0.858311	0.000101
 492	4.8855e+01	9.7803	72.751205	0.000527	5.269300	0.892644	0.000105
 493	4.8954e+01	9.8005	72.856170	0.000527	5.269300	0.892644	0.000105
 494	4.9053e+01	9.8205	72.997470	0.000709	7.093288	1.201636	0.000142
 495	4.9153e+01	9.8403	73.082250	0.000426	4.255973	0.720981	0.000085
 496	4.9252e+01	9.8596	73.199327	0.000588	5.877296	0.995641	0.000118
 497	4.9352e+01	9.8809	73.308329	0.000547	5.471965	0.926976	0.000110
 498	4.9452e+01	9.9004	73.397146	0.000446	4.458638	0.755314	0.000089
 499	4.9551e+01	9.9198	73.522297	0.000628	6.282627	1.064306	0.000126
 500	4.9651e+01	9.9399	73.639374	0.000588	5.877296	0.995641	0.000118
 501	4.9750e+01	9.9599	73.760489	0.000608	6.079961	1.029973	0.000122
 502	4.9849e+01	9.9793	73.905825	0.000730	7.295953	1.235968	0.000146
 503	4.9949e+01	9.9999	73.938122	0.000162	1.621323	0.274660	0.000032
 504	5.0048e+01	9.9805	73.901788	0.000182	1.823988	0.308992	-0.000037
 505	5.0148e+01	9.9595	73.800860	0.000507	5.066634	0.858311	-0.000101
 506	5.0248e+01	9.9401	73.788748	0.000061	0.607996	0.102997	-0.000012
 507	5.0347e+01	9.9200	73.675709	0.000567	5.674630	0.961308	-0.000114
 508	5.0447e+01	9.9010	73.639374	0.000182	1.823988	0.308992	-0.000037
 509	5.0546e+01	9.8804	73.550557	0.000446	4.458638	0.755314	-0.000089
 510	5.0645e+01	9.8606	73.481926	0.000345	3.445311	0.583652	-0.000069
 511	5.0745e+01	9.8405	73.380998	0.000507	5.066634	0.858311	-0.000101
 512	5.0844e+01	9.8205	73.320441	0.000304	3.039981	0.514987	-0.000061
 513	5.0944e+01	9.8008	73.227587	0.000466	4.661304	0.789646	-0.000093
 514	5.1044e+01	9.7803	73.150881	0.000385	3.850642	0.652316	-0.000077
 515	5.1143e+01	9.7610	73.078213	0.000365	3.647977	0.617984	-0.000073
 516	5.1242e+01	9.7414	73.017656	0.000304	3.039981	0.514987	-0.000061
 517	5.1342e+01	9.7202	72.936913	0.000405	4.053307	0.686649	-0.000081
 518	5.1441e+01	9.7007	72.835984	0.000507	5.066634	0.858311	-0.000101
 519	5.1541e+01	9.6810	72.718907	0.000588	5.877296	0.995641	-0.000118
 520	5.1641e+01	9.6618	72.674499	0.000223	2.229319	0.377657	-0.000045
 521	5.1740e+01	9.6410	72.585682	0.000446	4.458638	0.755314	-0.000089
 522	5.1840e+01	9.6206	72.500902	0.000426	4.255973	0.720981	-0.000085
 523	5.1939e+01	9.6006	72.379788	0.000608	6.079961	1.029973	-0.000122
 524	5.2038e+01	9.5815	72.307120	0.000365	3.647977	0.617984	-0.000073
 525	5.2138e+01	9.5609	72.222340	0.000426	4.255973	0.720981	-0.000085
 526	5.2237e+01	9.5423	72.169857	0.000263	2.634650	0.446322	-0.000053
 527	5.2337e+01	9.5216	72.089114	0.000405	4.053307	0.686649	-0.000081
 528	5.2437e+01	9.5026	71.988186	0.000507	5.066634	0.858311	-0.000101
 529	5.2536e+01	9.4816	71.907443	0.000405	4.053307	0.686649	-0.000081
 530	5.2636e+01	9.4616	71.834775	0.000365	3.647977	0.617984	-0.000073
 531	5.2735e+01	9.4422	71.717698	0.000588	5.877296	0.995641	-0.000118
 532	5.2834e+01	9.4218	71.653104	0.000324	3.242646	0.549319	-0.000065
 533	5.2934e+01	9.4012	71.560250	0.000466	4.661304	0.789646	-0.000093
 534	5.3033e+01	9.3819	71.463358	0.000486	4.863969	0.823979	-0.000097
 535	5.3133e+01	9.3623	71.382616	0.000405	4.053307	0.686649	-0.000081
 536	5.3233e+01	9.3432	71.301873	0.000405	4.053307	0.686649	-0.000081
 537	5.3332e+01	9.3229	71.209019	0.000466	4.661304	0.789646	-0.000093
 538	5.3431e+01	9.3038	71.108090	0.000507	5.066634	0.858311	-0.000101
 539	5.3531e+01	9.2831	71.063682	0.000223	2.229319	0.377657	-0.000045
 540	5.3630e+01	9.2631	70.954679	0.000547	5.471965	0.926976	-0.000110
 541	5.3730e+01	9.2440	70.869899	0.000426	4.255973	0.720981	-0.000085
 542	5.3830e+01	9.2229	70.764934	0.000527	5.269300	0.892644	-0.000105
 543	5.3929e+01	9.2034	70.696302	0.000345	3.445311	0.583652	-0.000069
 544	5.4029e+01	9.1828	70.595374	0.000507	5.066634	0.858311	-0.000101
 545	5.4128e+01	9.1631	70.546928	0.000243	2.431984	0.411989	-0.000049
 546	5.4227e+01	9.1430	70.401592	0.000730	7.295953	1.235968	-0.000146
 547	5.4327e+01	9.1225	70.341035	0.000304	3.039981	0.514987	-0.000061
 548	5.4426e+01	9.1039	70.248180	0.000466	4.661304	0.789646	-0.000093
 549	5.4526e+01	9.0839	70.171475	0.000385	3.850642	0.652316	-0.000077
 550	5.4626e+01	9.0644	70.070546	0.000507	5.066634	0.858311	-0.000101
 551	5.4725e+01	9.0440	69.981729	0.000446	4.458638	0.755314	-0.000089
 552	5.4825e+01	9.0235	69.929247	0.000263	2.634650	0.446322	-0.000053
 553	5.4924e+01	9.0039	69.836393	0.000466	4.661304	0.789646	-0.000093
 554	5.5023e+01	8.9844	69.751613	0.000426	4.255973	0.720981	-0.000085
 555	5.5123e+01	8.9645	69.622424	0.000649	6.485292	1.098638	-0.000130
 556	5.5222e+01	8.9451	69.529570	0.000466	4.661304	0.789646	-0.000093
 557	5.5322e+01	8.9245	69.424605	0.000527	5.269300	0.892644	-0.000105
 558	5.5422e+01	8.9040	69.384233	0.000203	2.026654	0.343324	-0.000041
 559	5.5521e+01	8.8841	69.271194	0.000567	5.674630	0.961308	-0.000114
 560	5.5620e+01	8.8650	69.182377	0.000446	4.458638	0.755314	-0.000089
 561	5.5720e+01	8.8444	69.065300	0.000588	5.877296	0.995641	-0.000118
 562	5.5819e+01	8.8247	69.004743	0.000304	3.039981	0.514987	-0.000061
 563	5.5919e+01	8.8051	68.887666	0.000588	5.877296	0.995641	-0.000118
 564	5.6019e+01	8.7847	68.847294	0.000203	2.026654	0.343324	-0.000041
 565	5.6118e+01	8.7667	68.738292	0.000547	5.471965	0.926976	-0.000110
 566	5.6218e+01	8.7451	68.637363	0.000507	5.066634	0.858311	-0.000101
 567	5.6317e+01	8.7258	68.544509	0.000466	4.661304	0.789646	-0.000093
 568	5.6416e+01	8.7057	68.403209	0.000709	7.093288	1.201636	-0.000142
 569	5.6516e+01	8.6865	68.350727	0.000263	2.634650	0.446322	-0.000053
 570	5.6615e+01	8.6662	68.261910	0.000446	4.458638	0.755314	-0.000089
 571	5.6715e+01	8.6462	68.189241	0.000365	3.647977	0.617984	-0.000073
 572	5.6815e+01	8.6256	68.060053	0.000649	6.485292	1.098638	-0.000130
 573	5.6914e+01	8.6065	67.955087	0.000527	5.269300	0.892644	-0.000105
 574	5.7014e+01	8.5864	67.874345	0.000405	4.053307	0.686649	-0.000081
 575	5.7113e+01	8.5668	67.801676	0.000365	3.647977	0.617984	-0.000073
 576	5.7212e+01	8.5461	67.648265	0.000770	7.701284	1.304633	-0.000154
 577	5.7312e+01	8.5276	67.595782	0.000263	2.634650	0.446322	-0.000053
 578	5.7411e+01	8.5065	67.486780	0.000547	5.471965	0.926976	-0.000110
 579	5.7511e+01	8.4861	67.389888	0.000486	4.863969	0.823979	-0.000097
 580	5.7611e+01	8.4669	67.321257	0.000345	3.445311	0.583652	-0.000069
 581	5.7710e+01	8.4473	67.236477	0.000426	4.255973	0.720981	-0.000085
 582	5.7809e+01	8.4274	67.127474	0.000547	5.471965	0.926976	-0.000110
 583	5.7909e+01	8.4064	67.046732	0.000405	4.053307	0.686649	-0.000081
 584	5.8008e+01	8.3868	66.933692	0.000567	5.674630	0.961308	-0.000114
 585	5.8108e+01	8.3677	66.848912	0.000426	4.255973	0.720981	-0.000085
 586	5.8208e+01	8.3474	66.756058	0.000466	4.661304	0.789646	-0.000093
 587	5.8307e+01	8.3277	66.634944	0.000608	6.079961	1.029973	-0.000122
 588	5.8407e+01	8.3068	66.529978	0.000527	5.269300	0.892644	-0.000105
 589	5.8506e+01	8.2873	66.445199	0.000426	4.255973	0.720981	-0.000085
 590	5.8605e+01	8.2676	66.348307	0.000486	4.863969	0.823979	-0.000097
 591	5.8705e+01	8.2478	66.263527	0.000426	4.255973	0.720981	-0.000085
 592	5.8804e+01	8.2275	66.174710	0.000446	4.458638	0.755314	-0.000089
 593	5.8904e+01	8.2080	66.077819	0.000486	4.863969	0.823979	-0.000097
 594	5.9004e+01	8.1876	66.005151	0.000365	3.647977	0.617984	-0.000073
 595	5.9103e+01	8.1670	65.936519	0.000345	3.445311	0.583652	-0.000069
 596	5.9203e+01	8.1487	65.835591	0.000507	5.066634	0.858311	-0.000101
 597	5.9302e+01	8.1287	65.714477	0.000608	6.079961	1.029973	-0.000122
 598	5.9401e+01	8.1081	65.629697	0.000426	4.255973	0.720981	-0.000085
 599	5.9501e+01	8.0885	65.504546	0.000628	6.282627	1.064306	-0.000126
 600	5.9600e+01	8.0686	65.472249	0.000162	1.621323	0.274660	-0.000032
 601	5.9700e+01	8.0486	65.314801	0.000790	7.903950	1.338965	-0.000158
 602	5.9800e+01	8.0276	65.254244	0.000304	3.039981	0.514987	-0.000061
 603	5.9899e+01	8.0088	65.125055	0.000649	6.485292	1.098638	-0.000130
 604	5.9998e+01	7.9893	65.064498	0.000304	3.039981	0.514987	-0.000061
 605	6.0098e+01	7.9694	64.983755	0.000405	4.053307	0.686649	-0.000081
 606	6.0197e+01	7.9501	64.911087	0.000365	3.647977	0.617984	-0.000073
 607	6.0297e+01	7.9297	64.789973	0.000608	6.079961	1.029973	-0.000122
 608	6.0397e+01	7.9090	64.676933	0.000567	5.674630	0.961308	-0.000114
 609	6.0496e+01	7.8893	64.608302	0.000345	3.445311	0.583652	-0.000069
 610	6.0596e+01	7.8688	64.511411	0.000486	4.863969	0.823979	-0.000097
 611	6.0695e+01	7.8486	64.390296	0.000608	6.079961	1.029973	-0.000122
 612	6.0794e+01	7.8296	64.329739	0.000304	3.039981	0.514987	-0.000061
 613	6.0894e+01	7.8091	64.212662	0.000588	5.877296	0.995641	-0.000118
 614	6.0993e+01	7.7897	64.115771	0.000486	4.863969	0.823979	-0.000097
 615	6.1093e+01	7.7697	64.006769	0.000547	5.471965	0.926976	-0.000110
 616	6.1193e+01	7.7494	63.946212	0.000304	3.039981	0.514987	-0.000061
 617	6.1292e+01	7.7299	63.853357	0.000466	4.661304	0.789646	-0.000093
 618	6.1392e+01	7.7100	63.728206	0.000628	6.282627	1.064306	-0.000126
 619	6.1491e+01	7.6896	63.639389	0.000446	4.458638	0.755314	-0.000089
 620	6.1590e+01	7.6702	63.550572	0.000446	4.458638	0.755314	-0.000089
 621	6.1690e+01	7.6508	63.441570	0.000547	5.471965	0.926976	-0.000110
 622	6.1789e+01	7.6310	63.296233	0.000730	7.295953	1.235968	-0.000146
 623	6.1889e+01	7.6098	63.243750	0.000263	2.634650	0.446322	-0.000053
 624	6.1989e+01	7.5901	63.167044	0.000385	3.850642	0.652316	-0.000077
 625	6.2088e+01	7.5708	63.041893	0.000628	6.282627	1.064306	-0.000126
 626	6.2188e+01	7.5510	62.957113	0.000426	4.255973	0.720981	-0.000085
 627	6.2287e+01	7.5301	62.844073	0.000567	5.674630	0.961308	-0.000114
 628	6.2386e+01	7.5120	62.763331	0.000405	4.053307	0.686649	-0.000081
 629	6.2486e+01	7.4909	62.622031	0.000709	7.093288	1.201636	-0.000142
 630	6.2586e+01	7.4714	62.577623	0.000223	2.229319	0.377657	-0.000045
 631	6.2685e+01	7.4512	62.460546	0.000588	5.877296	0.995641	-0.000118
 632	6.2785e+01	7.4314	62.319246	0.000709	7.093288	1.201636	-0.000142
 633	6.2884e+01	7.4102	62.274837	0.000223	2.229319	0.377657	-0.000045
 634	6.2983e+01	7.3916	62.177946	0.000486	4.863969	0.823979	-0.000097
 635	6.3083e+01	7.3721	62.028572	0.000750	7.498619	1.270300	-0.000150
 636	6.3182e+01	7.3507	61.976089	0.000263	2.634650	0.446322	-0.000053
 637	6.3282e+01	7.3313	61.887272	0.000446	4.458638	0.755314	-0.000089
 638	6.3382e+01	7.3110	61.721750	0.000831	8.309280	1.407630	-0.000166
 639	6.3481e+01	7.2915	61.657156	0.000324	3.242646	0.549319	-0.000065
 640	6.3581e+01	7.2709	61.548153	0.000547	5.471965	0.926976	-0.000110
 641	6.3680e+01	7.2511	61.459336	0.000446	4.458638	0.755314	-0.000089
 642	6.3779e+01	7.2315	61.338222	0.000608	6.079961	1.029973	-0.000122
 643	6.3879e+01	7.2122	61.229219	0.000547	5.471965	0.926976	-0.000110
 644	6.3978e+01	7.1915	61.104068	0.000628	6.282627	1.064306	-0.000126
 645	6.4078e+01	7.1714	61.075808	0.000142	1.418658	0.240327	-0.000028
 646	6.4177e+01	7.1520	60.954694	0.000608	6.079961	1.029973	-0.000122
 647	6.4277e+01	7.1310	60.869914	0.000426	4.255973	0.720981	-0.000085
 648	6.4376e+01	7.1127	60.704392	0.000831	8.309280	1.407630	-0.000166
 649	6.4476e+01	7.0922	60.643834	0.000304	3.039981	0.514987	-0.000061
 650	6.4576e+01	7.0727	60.538869	0.000527	5.269300	0.892644	-0.000105
 651	6.4675e+01	7.0525	60.409681	0.000649	6.485292	1.098638	-0.000130
 652	6.4775e+01	7.0324	60.320864	0.000446	4.458638	0.755314	-0.000089
 653	6.4874e+01	7.0132	60.236084	0.000426	4.255973	0.720981	-0.000085
 654	6.4974e+01	6.9924	60.123044	0.000567	5.674630	0.961308	-0.000114
 655	6.5073e+01	6.9732	60.030190	0.000466	4.661304	0.789646	-0.000093
 656	6.5172e+01	6.9523	59.925224	0.000527	5.269300	0.892644	-0.000105
 657	6.5272e+01	6.9328	59.800073	0.000628	6.282627	1.064306	-0.000126
 658	6.5371e+01	6.9128	59.743553	0.000284	2.837315	0.480654	-0.000057
 659	6.5471e+01	6.8941	59.626476	0.000588	5.877296	0.995641	-0.000118
 660	6.5570e+01	6.8730	59.509399	0.000588	5.877296	0.995641	-0.000118
 661	6.5670e+01	6.8539	59.408471	0.000507	5.066634	0.858311	-0.000101
 662	6.5769e+01	6.8327	59.319654	0.000446	4.458638	0.755314	-0.000089
 663	6.5869e+01	6.8143	59.194503	0.000628	6.282627	1.064306	-0.000126
 664	6.5969e+01	6.7936	59.081463	0.000567	5.674630	0.961308	-0.000114
 665	6.6068e+01	6.7736	58.988609	0.000466	4.661304	0.789646	-0.000093
 666	6.6168e+01	6.7533	58.887680	0.000507	5.066634	0.858311	-0.000101
 667	6.6267e+01	6.7338	58.786752	0.000507	5.066634	0.858311	-0.000101
 668	6.6367e+01	6.7136	58.657564	0.000649	6.485292	1.098638	-0.000130
 669	6.6466e+01	6.6943	58.540487	0.000588	5.877296	0.995641	-0.000118
 670	6.6566e+01	6.6736	58.475893	0.000324	3.242646	0.549319	-0.000065
 671	6.6665e+01	6.6538	58.354779	0.000608	6.079961	1.029973	-0.000122
 672	6.6764e+01	6.6344	58.249813	0.000527	5.269300	0.892644	-0.000105
 673	6.6864e+01	6.6154	58.120625	0.000649	6.485292	1.098638	-0.000130
 674	6.6963e+01	6.5942	58.035845	0.000426	4.255973	0.720981	-0.000085
 675	6.7063e+01	6.5742	57.918768	0.000588	5.877296	0.995641	-0.000118
 676	6.7162e+01	6.5546	57.781505	0.000689	6.890623	1.167303	-0.000138
 677	6.7262e+01	6.5345	57.664428	0.000588	5.877296	0.995641	-0.000118
 678	6.7362e+01	6.5153	57.599834	0.000324	3.242646	0.549319	-0.000065
 679	6.7461e+01	6.4947	57.450460	0.000750	7.498619	1.270300	-0.000150
 680	6.7561e+01	6.4744	57.381829	0.000345	3.445311	0.583652	-0.000069
 681	6.7660e+01	6.4553	57.264752	0.000588	5.877296	0.995641	-0.000118
 682	6.7760e+01	6.4342	57.127489	0.000689	6.890623	1.167303	-0.000138
 683	6.7859e+01	6.4147	57.030598	0.000486	4.863969	0.823979	-0.000097
 684	6.7959e+01	6.3946	56.917558	0.000567	5.674630	0.961308	-0.000114
 685	6.8058e+01	6.3744	56.812593	0.000527	5.269300	0.892644	-0.000105
 686	6.8157e+01	6.3555	56.687441	0.000628	6.282627	1.064306	-0.000126
 687	6.8257e+01	6.3348	56.590550	0.000486	4.863969	0.823979	-0.000097
 688	6.8356e+01	6.3152	56.441176	0.000750	7.498619	1.270300	-0.000150
 689	6.8456e+01	6.2963	56.360433	0.000405	4.053307	0.686649	-0.000081
 690	6.8555e+01	6.2756	56.275654	0.000426	4.255973	0.720981	-0.000085
 691	6.8655e+01	6.2558	56.146465	0.000649	6.485292	1.098638	-0.000130
 692	6.8754e+01	6.2363	56.069760	0.000385	3.850642	0.652316	-0.000077
 693	6.8854e+01	6.2162	55.916349	0.000770	7.701284	1.304633	-0.000154
 694	6.8954e+01	6.1965	55.787160	0.000649	6.485292	1.098638	-0.000130
 695	6.9053e+01	6.1767	55.674120	0.000567	5.674630	0.961308	-0.000114
 696	6.9153e+01	6.1573	55.601452	0.000365	3.647977	0.617984	-0.000073
 697	6.9252e+01	6.1372	55.448041	0.000770	7.701284	1.304633	-0.000154
 698	6.9352e+01	6.1160	55.339038	0.000547	5.471965	0.926976	-0.000110
 699	6.9451e+01	6.0964	55.225998	0.000567	5.674630	0.961308	-0.000114
 700	6.9550e+01	6.0772	55.129107	0.000486	4.863969	0.823979	-0.000097
 701	6.9650e+01	6.0549	54.999919	0.000649	6.485292	1.098638	-0.000130
 702	6.9749e+01	6.0366	54.870730	0.000649	6.485292	1.098638	-0.000130
 703	6.9849e+01	6.0171	54.798062	0.000365	3.647977	0.617984	-0.000073
 704	6.9948e+01	5.9966	54.689059	0.000547	5.471965	0.926976	-0.000110
 705	7.0048e+01	5.9771	54.531611	0.000790	7.903950	1.338965	-0.000158
 706	7.0147e+01	5.9573	54.406460	0.000628	6.282627	1.064306	-0.000126
 707	7.0247e+01	5.9383	54.309569	0.000486	4.863969	0.823979	-0.000097
 708	7.0347e+01	5.9180	54.224789	0.000426	4.255973	0.720981	-0.000085
 709	7.0446e+01	5.8968	54.083489	0.000709	7.093288	1.201636	-0.000142
 710	7.0546e+01	5.8775	53.998709	0.000426	4.255973	0.720981	-0.000085
 711	7.0645e+01	5.8581	53.853372	0.000730	7.295953	1.235968	-0.000146
 712	7.0745e+01	5.8382	53.748407	0.000527	5.269300	0.892644	-0.000105
 713	7.0844e+01	5.8170	53.643441	0.000527	5.269300	0.892644	-0.000105
 714	7.0944e+01	5.7980	53.538476	0.000527	5.269300	0.892644	-0.000105
 715	7.1043e+01	5.7780	53.421399	0.000588	5.877296	0.995641	-0.000118
 716	7.1142e+01	5.7571	53.276062	0.000730	7.295953	1.235968	-0.000146
 717	7.1242e+01	5.7369	53.203393	0.000365	3.647977	0.617984	-0.000073
 718	7.1341e+01	5.7177	53.066131	0.000689	6.890623	1.167303	-0.000138
 719	7.1441e+01	5.6976	52.908682	0.000790	7.903950	1.338965	-0.000158
 720	7.1540e+01	5.6776	52.848125	0.000304	3.039981	0.514987	-0.000061
 721	7.1640e+01	5.6585	52.739123	0.000547	5.471965	0.926976	-0.000110
 722	7.1740e+01	5.6377	52.618009	0.000608	6.079961	1.029973	-0.000122
 723	7.1839e+01	5.6182	52.480746	0.000689	6.890623	1.167303	-0.000138
 724	7.1939e+01	5.5985	52.367706	0.000567	5.674630	0.961308	-0.000114
 725	7.2038e+01	5.5785	52.250629	0.000588	5.877296	0.995641	-0.000118
 726	7.2138e+01	5.5587	52.121441	0.000649	6.485292	1.098638	-0.000130
 727	7.2237e+01	5.5395	52.048773	0.000365	3.647977	0.617984	-0.000073
 728	7.2337e+01	5.5175	51.939770	0.000547	5.471965	0.926976	-0.000110
 729	7.2436e+01	5.4992	51.798470	0.000709	7.093288	1.201636	-0.000142
 730	7.2535e+01	5.4790	51.649096	0.000750	7.498619	1.270300	-0.000150
 731	7.2635e+01	5.4594	51.532019	0.000588	5.877296	0.995641	-0.000118
 732	7.2734e+01	5.4394	51.447239	0.000426	4.255973	0.720981	-0.000085
 733	7.2834e+01	5.4194	51.342274	0.000527	5.269300	0.892644	-0.000105
 734	7.2933e+01	5.3989	51.209048	0.000669	6.687957	1.132971	-0.000134
 735	7.3033e+01	5.3795	51.091971	0.000588	5.877296	0.995641	-0.000118
 736	7.3132e+01	5.3594	50.962783	0.000649	6.485292	1.098638	-0.000130
 737	7.3232e+01	5.3391	50.837632	0.000628	6.282627	1.064306	-0.000126
 738	7.3332e+01	5.3197	50.756889	0.000405	4.053307	0.686649	-0.000081
 739	7.3431e+01	5.2990	50.623664	0.000669	6.687957	1.132971	-0.000134
 740	7.3531e+01	5.2785	50.502550	0.000608	6.079961	1.029973	-0.000122
 741	7.3630e+01	5.2593	50.381435	0.000608	6.079961	1.029973	-0.000122
 742	7.3730e+01	5.2393	50.248210	0.000669	6.687957	1.132971	-0.000134
 743	7.3829e+01	5.2197	50.147282	0.000507	5.066634	0.858311	-0.000101
 744	7.3928e+01	5.2006	50.030205	0.000588	5.877296	0.995641	-0.000118
 745	7.4028e+01	5.1809	49.892942	0.000689	6.890623	1.167303	-0.000138
 746	7.4127e+01	5.1598	49.755679	0.000689	6.890623	1.167303	-0.000138
 747	7.4227e+01	5.1402	49.638602	0.000588	5.877296	0.995641	-0.000118
 748	7.4326e+01	5.1194	49.529600	0.000547	5.471965	0.926976	-0.000110
 749	7.4426e+01	5.1011	49.428671	0.000507	5.066634	0.858311	-0.000101
 750	7.4525e+01	5.0800	49.267186	0.000811	8.106615	1.373298	-0.000162
 751	7.4625e+01	5.0613	49.186443	0.000405	4.053307	0.686649	-0.000081
 752	7.4725e+01	5.0411	49.069366	0.000588	5.877296	0.995641	-0.000118
 753	7.4824e+01	5.0211	48.948252	0.000608	6.079961	1.029973	-0.000122
 754	7.4924e+01	5.0005	48.806953	0.000709	7.093288	1.201636	-0.000142
 755	7.5023e+01	4.9816	48.726210	0.000405	4.053307	0.686649	-0.000081
 756	7.5123e+01	4.9615	48.592984	0.000669	6.687957	1.132971	-0.000134
 757	7.5222e+01	4.9415	48.439573	0.000770	7.701284	1.304633	-0.000154
 758	7.5322e+01	4.9210	48.362868	0.000385	3.850642	0.652316	-0.000077
 759	7.5421e+01	4.9017	48.241754	0.000608	6.079961	1.029973	-0.000122
 760	7.5520e+01	4.8821	48.128714	0.000567	5.674630	0.961308	-0.000114
 761	7.5620e+01	4.8620	47.995488	0.000669	6.687957	1.132971	-0.000134
 762	7.5719e+01	4.8417	47.902634	0.000466	4.661304	0.789646	-0.000093
 763	7.5819e+01	4.8240	47.745186	0.000790	7.903950	1.338965	-0.000158
 764	7.5918e+01	4.8012	47.644257	0.000507	5.066634	0.858311	-0.000101
 765	7.6018e+01	4.7817	47.555440	0.000446	4.458638	0.755314	-0.000089
 766	7.6118e+01	4.7623	47.410104	0.000730	7.295953	1.235968	-0.000146
 767	7.6217e+01	4.7428	47.288989	0.000608	6.079961	1.029973	-0.000122
 768	7.6317e+01	4.7224	47.159801	0.000649	6.485292	1.098638	-0.000130
 769	7.6416e+01	4.7022	47.034650	0.000628	6.282627	1.064306	-0.000126
 770	7.6516e+01	4.6819	46.889313	0.000730	7.295953	1.235968	-0.000146
 771	7.6615e+01	4.6624	46.760125	0.000649	6.485292	1.098638	-0.000130
 772	7.6715e+01	4.6429	46.659196	0.000507	5.066634	0.858311	-0.000101
 773	7.6814e+01	4.6227	46.546156	0.000567	5.674630	0.961308	-0.000114
 774	7.6913e+01	4.6020	46.421005	0.000628	6.282627	1.064306	-0.000126
 775	7.7013e+01	4.5831	46.316040	0.000527	5.269300	0.892644	-0.000105
 776	7.7112e+01	4.5618	46.207037	0.000547	5.471965	0.926976	-0.000110
 777	7.7212e+01	4.5426	46.073812	0.000669	6.687957	1.132971	-0.000134
 778	7.7311e+01	4.5228	45.960772	0.000567	5.674630	0.961308	-0.000114
 779	7.7411e+01	4.5027	45.835621	0.000628	6.282627	1.064306	-0.000126
 780	7.7510e+01	4.4834	45.698358	0.000689	6.890623	1.167303	-0.000138
 781	7.7610e+01	4.4631	45.589355	0.000547	5.471965	0.926976	-0.000110
 782	7.7710e+01	4.4433	45.460167	0.000649	6.485292	1.098638	-0.000130
 783	7.7809e+01	4.4231	45.335016	0.000628	6.282627	1.064306	-0.000126
 784	7.7909e+01	4.4032	45.193716	0.000709	7.093288	1.201636	-0.000142
 785	7.8008e+01	4.3839	45.076639	0.000588	5.877296	0.995641	-0.000118
 786	7.8108e+01	4.3630	44.963599	0.000567	5.674630	0.961308	-0.000114
 787	7.8207e+01	4.3432	44.834411	0.000649	6.485292	1.098638	-0.000130
 788	7.8306e+01	4.3241	44.701185	0.000669	6.687957	1.132971	-0.000134
 789	7.8406e+01	4.3044	44.580071	0.000608	6.079961	1.029973	-0.000122
 790	7.8505e+01	4.2834	44.446846	0.000669	6.687957	1.132971	-0.000134
 791	7.8605e+01	4.2635	44.362066	0.000426	4.255973	0.720981	-0.000085
 792	7.8704e+01	4.2432	44.240952	0.000608	6.079961	1.029973	-0.000122
 793	7.8804e+01	4.2240	44.123875	0.000588	5.877296	0.995641	-0.000118
 794	7.8903e+01	4.2040	43.970464	0.000770	7.701284	1.304633	-0.000154
 795	7.9003e+01	4.1836	43.853387	0.000588	5.877296	0.995641	-0.000118
 796	7.9103e+01	4.1637	43.728236	0.000628	6.282627	1.064306	-0.000126
 797	7.9202e+01	4.1438	43.582899	0.000730	7.295953	1.235968	-0.000146
 798	7.9302e+01	4.1238	43.465822	0.000588	5.877296	0.995641	-0.000118
 799	7.9401e+01	4.1039	43.324522	0.000709	7.093288	1.201636	-0.000142
 800	7.9501e+01	4.0839	43.187260	0.000689	6.890623	1.167303	-0.000138
 801	7.9600e+01	4.0654	43.058071	0.000649	6.485292	1.098638	-0.000130
 802	7.9700e+01	4.0440	42.953106	0.000527	5.269300	0.892644	-0.000105
 803	7.9799e+01	4.0249	42.836029	0.000588	5.877296	0.995641	-0.000118
 804	7.9898e+01	4.0040	42.666469	0.000851	8.511946	1.441963	-0.000170
 805	7.9998e+01	3.9848	42.569578	0.000486	4.863969	0.823979	-0.000097
 806	8.0097e+01	3.9645	42.420204	0.000750	7.498619	1.270300	-0.000150
 807	8.0197e+01	3.9446	42.327350	0.000466	4.661304	0.789646	-0.000093
 808	8.0296e+01	3.9251	42.149716	0.000892	8.917276	1.510628	-0.000179
 809	8.0396e+01	3.9054	42.004379	0.000730	7.295953	1.235968	-0.000146
 810	8.0496e+01	3.8850	41.891339	0.000567	5.674630	0.961308	-0.000114
 811	8.0595e+01	3.8653	41.774262	0.000588	5.877296	0.995641	-0.000118
 812	8.0695e+01	3.8451	41.653148	0.000608	6.079961	1.029973	-0.000122
 813	8.0794e+01	3.8247	41.552220	0.000507	5.066634	0.858311	-0.000101
 814	8.0894e+01	3.8055	41.402846	0.000750	7.498619	1.270300	-0.000150
 815	8.0993e+01	3.7859	41.269620	0.000669	6.687957	1.132971	-0.000134
 816	8.1093e+01	3.7664	41.144469	0.000628	6.282627	1.064306	-0.000126
 817	8.1192e+01	3.7464	40.995095	0.000750	7.498619	1.270300	-0.000150
 818	8.1291e+01	3.7262	40.902241	0.000466	4.661304	0.789646	-0.000093
 819	8.1391e+01	3.7054	40.764978	0.000689	6.890623	1.167303	-0.000138
 820	8.1490e+01	3.6855	40.631753	0.000669	6.687957	1.132971	-0.000134
 821	8.1590e+01	3.6671	40.502564	0.000649	6.485292	1.098638	-0.000130
 822	8.1689e+01	3.6460	40.337042	0.000831	8.309280	1.407630	-0.000166
 823	8.1789e+01	3.6271	40.191705	0.000730	7.295953	1.235968	-0.000146
 824	8.1888e+01	3.6058	40.106925	0.000426	4.255973	0.720981	-0.000085
 825	8.1988e+01	3.5856	39.997922	0.000547	5.471965	0.926976	-0.000110
 826	8.2088e+01	3.5661	39.836437	0.000811	8.106615	1.373298	-0.000162
 827	8.2187e+01	3.5477	39.678989	0.000790	7.903950	1.338965	-0.000158
 828	8.2287e+01	3.5259	39.594209	0.000426	4.255973	0.720981	-0.000085
 829	8.2386e+01	3.5071	39.436760	0.000790	7.903950	1.338965	-0.000158
 830	8.2486e+01	3.4868	39.319684	0.000588	5.877296	0.995641	-0.000118
 831	8.2585e+01	3.4661	39.194532	0.000628	6.282627	1.064306	-0.000126
 832	8.2684e+01	3.4460	39.033047	0.000811	8.106615	1.373298	-0.000162
 833	8.2784e+01	3.4281	38.911933	0.000608	6.079961	1.029973	-0.000122
 834	8.2883e+01	3.4064	38.742373	0.000851	8.511946	1.441963	-0.000170
 835	8.2983e+01	3.3869	38.637408	0.000527	5.269300	0.892644	-0.000105
 836	8.3082e+01	3.3676	38.500145	0.000689	6.890623	1.167303	-0.000138
 837	8.3182e+01	3.3479	38.350771	0.000750	7.498619	1.270300	-0.000150
 838	8.3281e+01	3.3270	38.245805	0.000527	5.269300	0.892644	-0.000105
 839	8.3381e+01	3.3073	38.128728	0.000588	5.877296	0.995641	-0.000118
 840	8.3481e+01	3.2877	37.959169	0.000851	8.511946	1.441963	-0.000170
 841	8.3580e+01	3.2681	37.765386	0.000973	9.727938	1.647957	-0.000195
 842	8.3680e+01	3.2470	37.684644	0.000405	4.053307	0.686649	-0.000081
 843	8.3779e+01	3.2265	37.523158	0.000811	8.106615	1.373298	-0.000162
 844	8.3879e+01	3.2079	37.393970	0.000649	6.485292	1.098638	-0.000130
 845	8.3978e+01	3.1869	37.260744	0.000669	6.687957	1.132971	-0.000134
 846	8.4078e+01	3.1681	37.119445	0.000709	7.093288	1.201636	-0.000142
 847	8.4177e+01	3.1487	36.978145	0.000709	7.093288	1.201636	-0.000142
 848	8.4276e+01	3.1277	36.840882	0.000689	6.890623	1.167303	-0.000138
 849	8.4376e+01	3.1087	36.687471	0.000770	7.701284	1.304633	-0.000154
 850	8.4475e+01	3.0875	36.554246	0.000669	6.687957	1.132971	-0.000134
 851	8.4575e+01	3.0685	36.421020	0.000669	6.687957	1.132971	-0.000134
 852	8.4674e+01	3.0486	36.247423	0.000871	8.714611	1.476295	-0.000174
 853	8.4774e+01	3.0286	36.126309	0.000608	6.079961	1.029973	-0.000122
 854	8.4874e+01	3.0083	35.972898	0.000770	7.701284	1.304633	-0.000154
 855	8.4973e+01	2.9882	35.815450	0.000790	7.903950	1.338965	-0.000158
 856	8.5073e+01	2.9687	35.678187	0.000689	6.890623	1.167303	-0.000138
 857	8.5172e+01	2.9485	35.597444	0.000405	4.053307	0.686649	-0.000081
 858	8.5272e+01	2.9279	35.411736	0.000932	9.322607	1.579292	-0.000187
 859	8.5371e+01	2.9091	35.290622	0.000608	6.079961	1.029973	-0.000122
 860	8.5471e+01	2.8899	35.141248	0.000750	7.498619	1.270300	-0.000150
 861	8.5570e+01	2.8688	34.987837	0.000770	7.701284	1.304633	-0.000154
 862	8.5669e+01	2.8488	34.866723	0.000608	6.079961	1.029973	-0.000122
 863	8.5769e+01	2.8292	34.709275	0.000790	7.903950	1.338965	-0.000158
 864	8.5868e+01	2.8083	34.567975	0.000709	7.093288	1.201636	-0.000142
 865	8.5968e+01	2.7898	34.370155	0.000993	9.930603	1.682290	-0.000199
 866	8.6067e+01	2.7702	34.277301	0.000466	4.661304	0.789646	-0.000093
 867	8.6167e+01	2.7489	34.131964	0.000730	7.295953	1.235968	-0.000146
 868	8.6266e+01	2.7294	33.978553	0.000770	7.701284	1.304633	-0.000154
 869	8.6366e+01	2.7091	33.869550	0.000547	5.471965	0.926976	-0.000110
 870	8.6466e+01	2.6889	33.675768	0.000973	9.727938	1.647957	-0.000195
 871	8.6565e+01	2.6701	33.558691	0.000588	5.877296	0.995641	-0.000118
 872	8.6665e+01	2.6499	33.425465	0.000669	6.687957	1.132971	-0.000134
 873	8.6764e+01	2.6305	33.300314	0.000628	6.282627	1.064306	-0.000126
 874	8.6864e+01	2.6099	33.114606	0.000932	9.322607	1.579292	-0.000187
 875	8.6963e+01	2.5906	33.013677	0.000507	5.066634	0.858311	-0.000101
 876	8.7063e+01	2.5706	32.840081	0.000871	8.714611	1.476295	-0.000174
 877	8.7162e+01	2.5515	32.686670	0.000770	7.701284	1.304633	-0.000154
 878	8.7261e+01	2.5306	32.545370	0.000709	7.093288	1.201636	-0.000142
 879	8.7361e+01	2.5106	32.371773	0.000871	8.714611	1.476295	-0.000174
 880	8.7460e+01	2.4902	32.278919	0.000466	4.661304	0.789646	-0.000093
 881	8.7560e+01	2.4712	32.113396	0.000831	8.309280	1.407630	-0.000166
 882	8.7659e+01	2.4506	31.968059	0.000730	7.295953	1.235968	-0.000146
 883	8.7759e+01	2.4282	31.806574	0.000811	8.106615	1.373298	-0.000162
 884	8.7859e+01	2.4110	31.685460	0.000608	6.079961	1.029973	-0.000122
 885	8.7958e+01	2.3913	31.495714	0.000953	9.525273	1.613625	-0.000191
 886	8.8058e+01	2.3717	31.386712	0.000547	5.471965	0.926976	-0.000110
 887	8.8157e+01	2.3515	31.233301	0.000770	7.701284	1.304633	-0.000154
 888	8.8257e+01	2.3311	31.104112	0.000649	6.485292	1.098638	-0.000130
 889	8.8356e+01	2.3113	30.938590	0.000831	8.309280	1.407630	-0.000166
 890	8.8456e+01	2.2911	30.809401	0.000649	6.485292	1.098638	-0.000130
 891	8.8555e+01	2.2703	30.655990	0.000770	7.701284	1.304633	-0.000154
 892	8.8654e+01	2.2519	30.506616	0.000750	7.498619	1.270300	-0.000150
 893	8.8754e+01	2.2320	30.373391	0.000669	6.687957	1.132971	-0.000134
 894	8.8853e+01	2.2116	30.199794	0.000871	8.714611	1.476295	-0.000174
 895	8.8953e+01	2.1917	30.066568	0.000669	6.687957	1.132971	-0.000134
 896	8.9052e+01	2.1715	29.901046	0.000831	8.309280	1.407630	-0.000166
 897	8.9152e+01	2.1527	29.743598	0.000790	7.903950	1.338965	-0.000158
 898	8.9251e+01	2.1325	29.618446	0.000628	6.282627	1.064306	-0.000126
 899	8.9351e+01	2.1111	29.444850	0.000871	8.714611	1.476295	-0.000174
 900	8.9451e+01	2.0924	29.291438	0.000770	7.701284	1.304633	-0.000154
 901	8.9550e+01	2.0722	29.182436	0.000547	5.471965	0.926976	-0.000110
 902	8.9650e+01	2.0523	29.024987	0.000790	7.903950	1.338965	-0.000158
 903	8.9749e+01	2.0319	28.859465	0.000831	8.309280	1.407630	-0.000166
 904	8.9849e+01	2.0125	28.697979	0.000811	8.106615	1.373298	-0.000162
 905	8.9948e+01	1.9921	28.568791	0.000649	6.485292	1.098638	-0.000130
 906	9.0047e+01	1.9724	28.415380	0.000770	7.701284	1.304633	-0.000154
 907	9.0147e+01	1.9524	28.257932	0.000790	7.903950	1.338965	-0.000158
 908	9.0246e+01	1.9327	28.124706	0.000669	6.687957	1.132971	-0.000134
 909	9.0346e+01	1.9131	27.943035	0.000912	9.119942	1.544960	-0.000183
 910	9.0445e+01	1.8923	27.801735	0.000709	7.093288	1.201636	-0.000142
 911	9.0545e+01	1.8730	27.632176	0.000851	8.511946	1.441963	-0.000170
 912	9.0644e+01	1.8531	27.502987	0.000649	6.485292	1.098638	-0.000130
 913	9.0744e+01	1.8336	27.361687	0.000709	7.093288	1.201636	-0.000142
 914	9.0844e+01	1.8130	27.200202	0.000811	8.106615	1.373298	-0.000162
 915	9.0943e+01	1.7924	27.046791	0.000770	7.701284	1.304633	-0.000154
 916	9.1043e+01	1.7741	26.881268	0.000831	8.309280	1.407630	-0.000166
 917	9.1142e+01	1.7530	26.735931	0.000730	7.295953	1.235968	-0.000146
 918	9.1242e+01	1.7336	26.602706	0.000669	6.687957	1.132971	-0.000134
 919	9.1341e+01	1.7133	26.461406	0.000709	7.093288	1.201636	-0.000142
 920	9.1441e+01	1.6924	26.299921	0.000811	8.106615	1.373298	-0.000162
 921	9.1540e+01	1.6739	26.158621	0.000709	7.093288	1.201636	-0.000142
 922	9.1639e+01	1.6540	26.005210	0.000770	7.701284	1.304633	-0.000154
 923	9.1739e+01	1.6331	25.807390	0.000993	9.930603	1.682290	-0.000199
 924	9.1838e+01	1.6136	25.694350	0.000567	5.674630	0.961308	-0.000114
 925	9.1938e+01	1.5937	25.540939	0.000770	7.701284	1.304633	-0.000154
 926	9.2037e+01	1.5746	25.355231	0.000932	9.322607	1.579292	-0.000187
 927	9.2137e+01	1.5536	25.226043	0.000649	6.485292	1.098638	-0.000130
 928	9.2237e+01	1.5342	25.084743	0.000709	7.093288	1.201636	-0.000142
 929	9.2336e+01	1.5134	24.907109	0.000892	8.917276	1.510628	-0.000179
 930	9.2436e+01	1.4938	24.794069	0.000567	5.674630	0.961308	-0.000114
 931	9.2535e+01	1.4740	24.608361	0.000932	9.322607	1.579292	-0.000187
 932	9.2635e+01	1.4539	24.471098	0.000689	6.890623	1.167303	-0.000138
 933	9.2734e+01	1.4354	24.337873	0.000669	6.687957	1.132971	-0.000134
 934	9.2834e+01	1.4144	24.144090	0.000973	9.727938	1.647957	-0.000195
 935	9.2933e+01	1.3948	24.022976	0.000608	6.079961	1.029973	-0.000122
 936	9.3032e+01	1.3747	23.857454	0.000831	8.309280	1.407630	-0.000166
 937	9.3132e+01	1.3543	23.712117	0.000730	7.295953	1.235968	-0.000146
 938	9.3231e+01	1.3341	23.554668	0.000790	7.903950	1.338965	-0.000158
 939	9.3331e+01	1.3145	23.433554	0.000608	6.079961	1.029973	-0.000122
 940	9.3430e+01	1.2947	23.251883	0.000912	9.119942	1.544960	-0.000183
 941	9.3530e+01	1.2754	23.110584	0.000709	7.093288	1.201636	-0.000142
 942	9.3629e+01	1.2560	22.981395	0.000649	6.485292	1.098638	-0.000130
 943	9.3729e+01	1.2356	22.819910	0.000811	8.106615	1.373298	-0.000162
 944	9.3829e+01	1.2163	22.646313	0.000871	8.714611	1.476295	-0.000174
 945	9.3928e+01	1.1961	22.500976	0.000730	7.295953	1.235968	-0.000146
 946	9.4028e+01	1.1753	22.343528	0.000790	7.903950	1.338965	-0.000158
 947	9.4127e+01	1.1564	22.206265	0.000689	6.890623	1.167303	-0.000138
 948	9.4227e+01	1.1359	22.036705	0.000851	8.511946	1.441963	-0.000170
 949	9.4326e+01	1.1149	21.863109	0.000871	8.714611	1.476295	-0.000174
 950	9.4425e+01	1.0965	21.729883	0.000669	6.687957	1.132971	-0.000134
 951	9.4525e+01	1.0760	21.604732	0.000628	6.282627	1.064306	-0.000126
 952	9.4624e+01	1.0565	21.390764	0.001074	10.741265	1.819620	-0.000215
 953	9.4724e+01	1.0359	21.205055	0.000932	9.322607	1.579292	-0.000187
 954	9.4823e+01	1.0160	21.128350	0.000385	3.850642	0.652316	-0.000077
 955	9.4923e+01	0.9967	20.954753	0.000871	8.714611	1.476295	-0.000174
 956	9.5022e+01	0.9751	20.797305	0.000790	7.903950	1.338965	-0.000158
 957	9.5122e+01	0.9570	20.656005	0.000709	7.093288	1.201636	-0.000142
 958	9.5222e+01	0.9364	20.458185	0.000993	9.930603	1.682290	-0.000199
 959	9.5321e+01	0.9165	20.328997	0.000649	6.485292	1.098638	-0.000130
 960	9.5421e+01	0.8965	20.183660	0.000730	7.295953	1.235968	-0.000146
 961	9.5520e+01	0.8772	20.010063	0.000871	8.714611	1.476295	-0.000174
 962	9.5620e+01	0.8566	19.856652	0.000770	7.701284	1.304633	-0.000154
 963	9.5719e+01	0.8360	19.695167	0.000811	8.106615	1.373298	-0.000162
 964	9.5819e+01	0.8168	19.517533	0.000892	8.917276	1.510628	-0.000179
 965	9.5918e+01	0.7973	19.372196	0.000730	7.295953	1.235968	-0.000146
 966	9.6017e+01	0.7766	19.234933	0.000689	6.890623	1.167303	-0.000138
 967	9.6117e+01	0.7574	19.033076	0.001013	10.133269	1.716622	-0.000203
 968	9.6216e+01	0.7377	18.879665	0.000770	7.701284	1.304633	-0.000154
 969	9.6316e+01	0.7179	18.730291	0.000750	7.498619	1.270300	-0.000150
 970	9.6415e+01	0.6983	18.601103	0.000649	6.485292	1.098638	-0.000130
 971	9.6515e+01	0.6771	18.427506	0.000871	8.714611	1.476295	-0.000174
 972	9.6615e+01	0.6575	18.241798	0.000932	9.322607	1.579292	-0.000187
 973	9.6714e+01	0.6375	18.112609	0.000649	6.485292	1.098638	-0.000130
 974	9.6814e+01	0.6174	17.943050	0.000851	8.511946	1.441963	-0.000170
 975	9.6913e+01	0.5980	17.757342	0.000932	9.322607	1.579292	-0.000187
 976	9.7013e+01	0.5774	17.595856	0.000811	8.106615	1.373298	-0.000162
 977	9.7112e+01	0.5589	17.458593	0.000689	6.890623	1.167303	-0.000138
 978	9.7212e+01	0.5379	17.301145	0.000790	7.903950	1.338965	-0.000158
 979	9.7311e+01	0.5178	17.107363	0.000973	9.727938	1.647957	-0.000195
 980	9.7410e+01	0.4987	16.978174	0.000649	6.485292	1.098638	-0.000130
 981	9.7510e+01	0.4784	16.784392	0.000973	9.727938	1.647957	-0.000195
 982	9.7609e+01	0.4588	16.635018	0.000750	7.498619	1.270300	-0.000150
 983	9.7709e+01	0.4379	16.481607	0.000770	7.701284	1.304633	-0.000154
 984	9.7808e+01	0.4186	16.336270	0.000730	7.295953	1.235968	-0.000146
 985	9.7908e+01	0.3986	16.166710	0.000851	8.511946	1.441963	-0.000170
 986	9.8007e+01	0.3790	16.025410	0.000709	7.093288	1.201636	-0.000142
 987	9.8107e+01	0.3594	15.855851	0.000851	8.511946	1.441963	-0.000170
 988	9.8207e+01	0.3398	15.742811	0.000567	5.674630	0.961308	-0.000114
 989	9.8306e+01	0.3182	15.488471	0.001277	12.767919	2.162944	-0.000256
 990	9.8406e+01	0.2990	15.326986	0.000811	8.106615	1.373298	-0.000162
 991	9.8505e+01	0.2795	15.209909	0.000588	5.877296	0.995641	-0.000118
 992	9.8605e+01	0.2589	15.060535	0.000750	7.498619	1.270300	-0.000150
 993	9.8704e+01	0.2395	14.923272	0.000689	6.890623	1.167303	-0.000138
 994	9.8803e+01	0.2188	14.664896	0.001297	12.970584	2.197276	-0.000260
 995	9.8903e+01	0.1992	14.551856	0.000567	5.674630	0.961308	-0.000114
 996	9.9002e+01	0.1792	14.382296	0.000851	8.511946	1.441963	-0.000170
 997	9.9102e+01	0.1593	14.204662	0.000892	8.917276	1.510628	-0.000179
 998	9.9201e+01	0.1392	14.059325	0.000730	7.295953	1.235968	-0.000146
 999	9.9301e+01	0.1196	13.913988	0.000730	7.295953	1.235968	-0.000146
1000	9.9400e+01	0.0996	13.748466	0.000831	8.309280	1.407630	-0.000166
1001	9.9500e+01	0.0797	13.582943	0.000831	8.309280	1.407630	-0.000166
1002	9.9600e+01	0.0597	13.413383	0.000851	8.511946	1.441963	-0.000170
1003	9.9699e+01	0.0396	13.223638	0.000953	9.525273	1.613625	-0.000191
1004	9.9799e+01	0.0204	13.094450	0.000649	6.485292	1.098638	-0.000130
1005	9.9898e+01	0.0001	12.916816	0.000892	8.917276	1.510628	-0.000179
1006	9.9998e+01	-0.0183	12.759368	0.000790	7.903950	1.338965	-0.000158
1007	1.0010e+02	-0.0385	12.605956	0.000770	7.701284	1.304633	-0.000154
1008	1.0020e+02	-0.0584	12.391988	0.001074	10.741265	1.819620	-0.000215
1009	1.0030e+02	-0.0782	12.270874	0.000608	6.079961	1.029973	-0.000122
1010	1.0040e+02	-0.0980	12.081129	0.000953	9.525273	1.613625	-0.000191
1011	1.0050e+02	-0.1177	11.947903	0.000669	6.687957	1.132971	-0.000134
1012	1.0059e+02	-0.1376	11.770269	0.000892	8.917276	1.510628	-0.000179
1013	1.0069e+02	-0.1582	11.584561	0.000932	9.322607	1.579292	-0.000187
1014	1.0079e+02	-0.1783	11.402890	0.000912	9.119942	1.544960	-0.000183
1015	1.0089e+02	-0.1977	11.221219	0.000912	9.119942	1.544960	-0.000183
1016	1.0099e+02	-0.2174	11.063770	0.000790	7.903950	1.338965	-0.000158
1017	1.0109e+02	-0.2379	10.890174	0.000871	8.714611	1.476295	-0.000174
1018	1.0119e+02	-0.2570	10.724651	0.000831	8.309280	1.407630	-0.000166
1019	1.0129e+02	-0.2778	10.587388	0.000689	6.890623	1.167303	-0.000138
1020	1.0139e+02	-0.2982	10.421866	0.000831	8.309280	1.407630	-0.000166
1021	1.0149e+02	-0.3168	10.224046	0.000993	9.930603	1.682290	-0.000199
1022	1.0159e+02	-0.3374	10.034301	0.000953	9.525273	1.613625	-0.000191
1023	1.0169e+02	-0.3568	9.893001	0.000709	7.093288	1.201636	-0.000142
1024	1.0179e+02	-0.3770	9.683070	0.001054	10.538599	1.785287	-0.000211
1025	1.0189e+02	-0.3961	9.509473	0.000871	8.714611	1.476295	-0.000174
1026	1.0199e+02	-0.4169	9.360099	0.000750	7.498619	1.270300	-0.000150
1027	1.0209e+02	-0.4362	9.178428	0.000912	9.119942	1.544960	-0.000183
1028	1.0219e+02	-0.4566	9.029054	0.000750	7.498619	1.270300	-0.000150
1029	1.0229e+02	-0.4768	8.855457	0.000871	8.714611	1.476295	-0.000174
1030	1.0239e+02	-0.4968	8.673786	0.000912	9.119942	1.544960	-0.000183
1031	1.0248e+02	-0.5167	8.512301	0.000811	8.106615	1.373298	-0.000162
1032	1.0258e+02	-0.5362	8.286221	0.001135	11.349261	1.922617	-0.000227
1033	1.0268e+02	-0.5566	8.157033	0.000649	6.485292	1.098638	-0.000130
1034	1.0278e+02	-0.5759	7.967287	0.000953	9.525273	1.613625	-0.000191
1035	1.0288e+02	-0.5960	7.862322	0.000527	5.269300	0.892644	-0.000105
1036	1.0298e+02	-0.6160	7.664502	0.000993	9.930603	1.682290	-0.000199
1037	1.0308e+02	-0.6361	7.503017	0.000811	8.106615	1.373298	-0.000162
1038	1.0318e+02	-0.6554	7.317309	0.000932	9.322607	1.579292	-0.000187
1039	1.0328e+02	-0.6766	7.115452	0.001013	10.133269	1.716622	-0.000203
1040	1.0338e+02	-0.6965	6.970115	0.000730	7.295953	1.235968	-0.000146
1041	1.0348e+02	-0.7158	6.780369	0.000953	9.525273	1.613625	-0.000191
1042	1.0358e+02	-0.7359	6.635033	0.000730	7.295953	1.235968	-0.000146
1043	1.0368e+02	-0.7554	6.457399	0.000892	8.917276	1.510628	-0.000179
1044	1.0378e+02	-0.7767	6.303987	0.000770	7.701284	1.304633	-0.000154
1045	1.0388e+02	-0.7957	6.150576	0.000770	7.701284	1.304633	-0.000154
1046	1.0398e+02	-0.8158	5.968905	0.000912	9.119942	1.544960	-0.000183
1047	1.0408e+02	-0.8348	5.791271	0.000892	8.917276	1.510628	-0.000179
1048	1.0418e+02	-0.8559	5.613637	0.000892	8.917276	1.510628	-0.000179
1049	1.0428e+02	-0.8752	5.423892	0.000953	9.525273	1.613625	-0.000191
1050	1.0438e+02	-0.8956	5.314889	0.000547	5.471965	0.926976	-0.000110
1051	1.0447e+02	-0.9146	5.092847	0.001115	11.146596	1.888284	-0.000223
1052	1.0457e+02	-0.9355	4.951547	0.000709	7.093288	1.201636	-0.000142
1053	1.0467e+02	-0.9560	4.769876	0.000912	9.119942	1.544960	-0.000183
1054	1.0477e+02	-0.9757	4.572056	0.000993	9.930603	1.682290	-0.000199
1055	1.0487e+02	-0.9949	4.410571	0.000811	8.106615	1.373298	-0.000162
1056	1.0497e+02	-1.0147	4.257160	0.000770	7.701284	1.304633	-0.000154
1057	1.0507e+02	-1.0351	4.107786	0.000750	7.498619	1.270300	-0.000150
1058	1.0517e+02	-1.0551	3.897855	0.001054	10.538599	1.785287	-0.000211
1059	1.0527e+02	-1.0748	3.756555	0.000709	7.093288	1.201636	-0.000142
1060	1.0537e+02	-1.0947	3.562772	0.000973	9.727938	1.647957	-0.000195
1061	1.0547e+02	-1.1146	3.409361	0.000770	7.701284	1.304633	-0.000154
1062	1.0557e+02	-1.1340	3.227690	0.000912	9.119942	1.544960	-0.000183
1063	1.0567e+02	-1.1551	3.017759	0.001054	10.538599	1.785287	-0.000211
1064	1.0577e+02	-1.1733	2.920868	0.000486	4.863969	0.823979	-0.000097
1065	1.0587e+02	-1.1945	2.755345	0.000831	8.309280	1.407630	-0.000166
1066	1.0597e+02	-1.2150	2.541377	0.001074	10.741265	1.819620	-0.000215
1067	1.0607e+02	-1.2337	2.375854	0.000831	8.309280	1.407630	-0.000166
1068	1.0617e+02	-1.2543	2.238592	0.000689	6.890623	1.167303	-0.000138
1069	1.0627e+02	-1.2740	2.040772	0.000993	9.930603	1.682290	-0.000199
1070	1.0637e+02	-1.2935	1.915621	0.000628	6.282627	1.064306	-0.000126
1071	1.0647e+02	-1.3123	1.705690	0.001054	10.538599	1.785287	-0.000211
1072	1.0656e+02	-1.3335	1.524019	0.000912	9.119942	1.544960	-0.000183
1073	1.0666e+02	-1.3528	1.326199	0.000993	9.930603	1.682290	-0.000199
1074	1.0676e+02	-1.3727	1.180862	0.000730	7.295953	1.235968	-0.000146
1075	1.0686e+02	-1.3927	1.023414	0.000790	7.903950	1.338965	-0.000158
1076	1.0696e+02	-1.4127	0.837706	0.000932	9.322607	1.579292	-0.000187
1077	1.0706e+02	-1.4329	0.660072	0.000892	8.917276	1.510628	-0.000179
1078	1.0716e+02	-1.4532	0.486475	0.000871	8.714611	1.476295	-0.000174
1079	1.0726e+02	-1.4724	0.316915	0.000851	8.511946	1.441963	-0.000170
1080	1.0736e+02	-1.4926	0.147355	0.000851	8.511946	1.441963	-0.000170
1081	1.0746e+02	-1.5126	-0.046427	0.000973	9.727938	1.647957	-0.000195
1082	1.0756e+02	-1.5327	-0.195801	0.000750	7.498619	1.270300	-0.000150
1083	1.0766e+02	-1.5524	-0.312878	0.000588	5.877296	0.995641	-0.000118
1084	1.0776e+02	-1.5721	-0.538958	0.001135	11.349261	1.922617	-0.000227
1085	1.0786e+02	-1.5923	-0.716592	0.000892	8.917276	1.510628	-0.000179
1086	1.0796e+02	-1.6119	-0.874040	0.000790	7.903950	1.338965	-0.000158
1087	1.0806e+02	-1.6325	-1.011303	0.000689	6.890623	1.167303	-0.000138
1088	1.0816e+02	-1.6528	-1.180862	0.000851	8.511946	1.441963	-0.000170
1089	1.0826e+02	-1.6721	-1.415016	0.001175	11.754592	1.991282	-0.000235
1090	1.0836e+02	-1.6919	-1.552279	0.000689	6.890623	1.167303	-0.000138
1091	1.0845e+02	-1.7121	-1.701653	0.000750	7.498619	1.270300	-0.000150
1092	1.0855e+02	-1.7327	-1.899472	0.000993	9.930603	1.682290	-0.000199
1093	1.0865e+02	-1.7520	-2.056921	0.000790	7.903950	1.338965	-0.000158
1094	1.0875e+02	-1.7716	-2.230517	0.000871	8.714611	1.476295	-0.000174
1095	1.0885e+02	-1.7916	-2.428337	0.000993	9.930603	1.682290	-0.000199
1096	1.0895e+02	-1.8123	-2.585785	0.000790	7.903950	1.338965	-0.000158
1097	1.0905e+02	-1.8310	-2.735159	0.000750	7.498619	1.270300	-0.000150
1098	1.0915e+02	-1.8510	-2.896645	0.000811	8.106615	1.373298	-0.000162
1099	1.0925e+02	-1.8719	-3.037945	0.000709	7.093288	1.201636	-0.000142
1100	1.0935e+02	-1.8918	-3.223653	0.000932	9.322607	1.579292	-0.000187
1101	1.0945e+02	-1.9113	-3.389175	0.000831	8.309280	1.407630	-0.000166
1102	1.0955e+02	-1.9312	-3.550661	0.000811	8.106615	1.373298	-0.000162
1103	1.0965e+02	-1.9507	-3.736369	0.000932	9.322607	1.579292	-0.000187
1104	1.0975e+02	-1.9710	-3.881706	0.000730	7.295953	1.235968	-0.000146
1105	1.0985e+02	-1.9911	-4.051266	0.000851	8.511946	1.441963	-0.000170
1106	1.0995e+02	-2.0119	-4.241011	0.000953	9.525273	1.613625	-0.000191
1107	1.1005e+02	-2.0312	-4.366162	0.000628	6.282627	1.064306	-0.000126
1108	1.1015e+02	-2.0507	-4.495351	0.000649	6.485292	1.098638	-0.000130
1109	1.1025e+02	-2.0707	-4.672985	0.000892	8.917276	1.510628	-0.000179
1110	1.1035e+02	-2.0908	-4.919250	0.001236	12.362588	2.094279	-0.000248
1111	1.1044e+02	-2.1111	-5.028253	0.000547	5.471965	0.926976	-0.000110
1112	1.1054e+02	-2.1308	-5.185701	0.000790	7.903950	1.338965	-0.000158
1113	1.1064e+02	-2.1495	-5.363335	0.000892	8.917276	1.510628	-0.000179
1114	1.1074e+02	-2.1707	-5.516746	0.000770	7.701284	1.304633	-0.000154
1115	1.1084e+02	-2.1903	-5.674194	0.000790	7.903950	1.338965	-0.000158
1116	1.1094e+02	-2.2098	-5.847791	0.000871	8.714611	1.476295	-0.000174
1117	1.1104e+02	-2.2302	-6.013314	0.000831	8.309280	1.407630	-0.000166
1118	1.1114e+02	-2.2507	-6.194985	0.000912	9.119942	1.544960	-0.000183
1119	1.1124e+02	-2.2697	-6.356470	0.000811	8.106615	1.373298	-0.000162
1120	1.1134e+02	-2.2903	-6.501807	0.000730	7.295953	1.235968	-0.000146
1121	1.1144e+02	-2.3096	-6.711738	0.001054	10.538599	1.785287	-0.000211
1122	1.1154e+02	-2.3306	-6.844964	0.000669	6.687957	1.132971	-0.000134
1123	1.1164e+02	-2.3495	-7.054895	0.001054	10.538599	1.785287	-0.000211
1124	1.1174e+02	-2.3694	-7.171972	0.000588	5.877296	0.995641	-0.000118
1125	1.1184e+02	-2.3899	-7.349606	0.000892	8.917276	1.510628	-0.000179
1126	1.1194e+02	-2.4097	-7.539351	0.000953	9.525273	1.613625	-0.000191
1127	1.1204e+02	-2.4294	-7.656428	0.000588	5.877296	0.995641	-0.000118
1128	1.1214e+02	-2.4496	-7.846173	0.000953	9.525273	1.613625	-0.000191
1129	1.1224e+02	-2.4705	-8.011696	0.000831	8.309280	1.407630	-0.000166
1130	1.1234e+02	-2.4899	-8.185293	0.000871	8.714611	1.476295	-0.000174
1131	1.1244e+02	-2.5085	-8.334667	0.000750	7.498619	1.270300	-0.000150
1132	1.1253e+02	-2.5282	-8.455781	0.000608	6.079961	1.029973	-0.000122
1133	1.1263e+02	-2.5486	-8.673786	0.001094	10.943930	1.853952	-0.000219
1134	1.1273e+02	-2.5682	-8.831234	0.000790	7.903950	1.338965	-0.000158
1135	1.1283e+02	-2.5883	-9.000794	0.000851	8.511946	1.441963	-0.000170
1136	1.1293e+02	-2.6080	-9.138057	0.000689	6.890623	1.167303	-0.000138
1137	1.1303e+02	-2.6270	-9.331839	0.000973	9.727938	1.647957	-0.000195
1138	1.1313e+02	-2.6485	-9.489288	0.000790	7.903950	1.338965	-0.000158
1139	1.1323e+02	-2.6677	-9.650773	0.000811	8.106615	1.373298	-0.000162
1140	1.1333e+02	-2.6877	-9.804184	0.000770	7.701284	1.304633	-0.000154
1141	1.1343e+02	-2.7084	-9.977781	0.000871	8.714611	1.476295	-0.000174
1142	1.1353e+02	-2.7285	-10.131192	0.000770	7.701284	1.304633	-0.000154
1143	1.1363e+02	-2.7470	-10.320938	0.000953	9.525273	1.613625	-0.000191
1144	1.1373e+02	-2.7686	-10.454163	0.000669	6.687957	1.132971	-0.000134
1145	1.1383e+02	-2.7877	-10.647946	0.000973	9.727938	1.647957	-0.000195
1146	1.1393e+02	-2.8088	-10.825579	0.000892	8.917276	1.510628	-0.000179
1147	1.1403e+02	-2.8289	-10.974954	0.000750	7.498619	1.270300	-0.000150
1148	1.1413e+02	-2.8474	-11.104142	0.000649	6.485292	1.098638	-0.000130
1149	1.1423e+02	-2.8671	-11.301961	0.000993	9.930603	1.682290	-0.000199
1150	1.1433e+02	-2.8873	-11.439224	0.000689	6.890623	1.167303	-0.000138
1151	1.1442e+02	-2.9066	-11.604747	0.000831	8.309280	1.407630	-0.000166
1152	1.1452e+02	-2.9277	-11.774306	0.000851	8.511946	1.441963	-0.000170
1153	1.1462e+02	-2.9471	-11.939829	0.000831	8.309280	1.407630	-0.000166
1154	1.1472e+02	-2.9675	-12.085166	0.000730	7.295953	1.235968	-0.000146
1155	1.1482e+02	-2.9877	-12.246651	0.000811	8.106615	1.373298	-0.000162
1156	1.1492e+02	-3.0070	-12.408137	0.000811	8.106615	1.373298	-0.000162
1157	1.1502e+02	-3.0272	-12.605956	0.000993	9.930603	1.682290	-0.000199
1158	1.1512e+02	-3.0473	-12.755330	0.000750	7.498619	1.270300	-0.000150
1159	1.1522e+02	-3.0673	-12.920853	0.000831	8.309280	1.407630	-0.000166
1160	1.1532e+02	-3.0875	-13.078301	0.000790	7.903950	1.338965	-0.000158
1161	1.1542e+02	-3.1067	-13.215564	0.000689	6.890623	1.167303	-0.000138
1162	1.1552e+02	-3.1262	-13.397235	0.000912	9.119942	1.544960	-0.000183
1163	1.1562e+02	-3.1465	-13.566795	0.000851	8.511946	1.441963	-0.000170
1164	1.1572e+02	-3.1657	-13.716169	0.000750	7.498619	1.270300	-0.000150
1165	1.1582e+02	-3.1854	-13.881691	0.000831	8.309280	1.407630	-0.000166
1166	1.1592e+02	-3.2063	-14.043177	0.000811	8.106615	1.373298	-0.000162
1167	1.1602e+02	-3.2254	-14.156216	0.000567	5.674630	0.961308	-0.000114
1168	1.1612e+02	-3.2462	-14.354036	0.000993	9.930603	1.682290	-0.000199
1169	1.1622e+02	-3.2653	-14.471113	0.000588	5.877296	0.995641	-0.000118
1170	1.1632e+02	-3.2866	-14.664896	0.000973	9.727938	1.647957	-0.000195
1171	1.1642e+02	-3.3070	-14.850604	0.000932	9.322607	1.579292	-0.000187
1172	1.1651e+02	-3.3255	-14.991904	0.000709	7.093288	1.201636	-0.000142
1173	1.1661e+02	-3.3459	-15.149352	0.000790	7.903950	1.338965	-0.000158
1174	1.1671e+02	-3.3659	-15.298726	0.000750	7.498619	1.270300	-0.000150
1175	1.1681e+02	-3.3858	-15.431951	0.000669	6.687957	1.132971	-0.000134
1176	1.1691e+02	-3.4054	-15.637845	0.001034	10.335934	1.750955	-0.000207
1177	1.1701e+02	-3.4254	-15.767034	0.000649	6.485292	1.098638	-0.000130
1178	1.1711e+02	-3.4460	-15.940630	0.000871	8.714611	1.476295	-0.000174
1179	1.1721e+02	-3.4659	-16.094042	0.000770	7.701284	1.304633	-0.000154
1180	1.1731e+02	-3.4859	-16.299936	0.001034	10.335934	1.750955	-0.000207
1181	1.1741e+02	-3.5046	-16.437198	0.000689	6.890623	1.167303	-0.000138
1182	1.1751e+02	-3.5249	-16.590609	0.000770	7.701284	1.304633	-0.000154
1183	1.1761e+02	-3.5458	-16.748058	0.000790	7.903950	1.338965	-0.000158
1184	1.1771e+02	-3.5648	-16.913580	0.000831	8.309280	1.407630	-0.000166
1185	1.1781e+02	-3.5840	-17.075066	0.000811	8.106615	1.373298	-0.000162
1186	1.1791e+02	-3.6050	-17.248662	0.000871	8.714611	1.476295	-0.000174
1187	1.1801e+02	-3.6246	-17.393999	0.000730	7.295953	1.235968	-0.000146
1188	1.1811e+02	-3.6441	-17.519151	0.000628	6.282627	1.064306	-0.000126
1189	1.1821e+02	-3.6656	-17.749267	0.001155	11.551926	1.956949	-0.000231
1190	1.1831e+02	-3.6848	-17.886530	0.000689	6.890623	1.167303	-0.000138
1191	1.1841e+02	-3.7039	-18.048015	0.000811	8.106615	1.373298	-0.000162
1192	1.1850e+02	-3.7242	-18.217575	0.000851	8.511946	1.441963	-0.000170
1193	1.1860e+02	-3.7442	-18.322541	0.000527	5.269300	0.892644	-0.000105
1194	1.1870e+02	-3.7657	-18.508249	0.000932	9.322607	1.579292	-0.000187
1195	1.1880e+02	-3.7837	-18.714143	0.001034	10.335934	1.750955	-0.000207
1196	1.1890e+02	-3.8035	-18.851405	0.000689	6.890623	1.167303	-0.000138
1197	1.1900e+02	-3.8242	-19.008854	0.000790	7.903950	1.338965	-0.000158
1198	1.1910e+02	-3.8439	-19.146116	0.000689	6.890623	1.167303	-0.000138
1199	1.1920e+02	-3.8638	-19.307602	0.000811	8.106615	1.373298	-0.000162
1200	1.1930e+02	-3.8838	-19.481199	0.000871	8.714611	1.476295	-0.000174
1201	1.1940e+02	-3.9029	-19.650758	0.000851	8.511946	1.441963	-0.000170
1202	1.1950e+02	-3.9233	-19.792058	0.000709	7.093288	1.201636	-0.000142
1203	1.1960e+02	-3.9429	-19.933358	0.000709	7.093288	1.201636	-0.000142
1204	1.1970e+02	-3.9632	-20.123103	0.000953	9.525273	1.613625	-0.000191
1205	1.1980e+02	-3.9838	-20.252291	0.000649	6.485292	1.098638	-0.000130
1206	1.1990e+02	-4.0032	-20.438000	0.000932	9.322607	1.579292	-0.000187
1207	1.2000e+02	-4.0231	-20.643894	0.001034	10.335934	1.750955	-0.000207
1208	1.2010e+02	-4.0430	-20.789230	0.000730	7.295953	1.235968	-0.000146
1209	1.2020e+02	-4.0628	-20.894196	0.000527	5.269300	0.892644	-0.000105
1210	1.2030e+02	-4.0824	-21.035496	0.000709	7.093288	1.201636	-0.000142
1211	1.2039e+02	-4.1024	-21.164684	0.000649	6.485292	1.098638	-0.000130
1212	1.2049e+02	-4.1223	-21.350392	0.000932	9.322607	1.579292	-0.000187
1213	1.2059e+02	-4.1425	-21.540138	0.000953	9.525273	1.613625	-0.000191
1214	1.2069e+02	-4.1624	-21.632992	0.000466	4.661304	0.789646	-0.000093
1215	1.2079e+02	-4.1818	-21.822737	0.000953	9.525273	1.613625	-0.000191
1216	1.2089e+02	-4.2037	-22.000371	0.000892	8.917276	1.510628	-0.000179
1217	1.2099e+02	-4.2218	-22.137634	0.000689	6.890623	1.167303	-0.000138
1218	1.2109e+02	-4.2421	-22.287008	0.000750	7.498619	1.270300	-0.000150
1219	1.2119e+02	-4.2619	-22.480790	0.000973	9.727938	1.647957	-0.000195
1220	1.2129e+02	-4.2834	-22.593830	0.000567	5.674630	0.961308	-0.000114
1221	1.2139e+02	-4.3027	-22.743204	0.000750	7.498619	1.270300	-0.000150
1222	1.2149e+02	-4.3217	-22.896615	0.000770	7.701284	1.304633	-0.000154
1223	1.2159e+02	-4.3417	-23.058101	0.000811	8.106615	1.373298	-0.000162
1224	1.2169e+02	-4.3619	-23.215549	0.000790	7.903950	1.338965	-0.000158
1225	1.2179e+02	-4.3828	-23.356849	0.000709	7.093288	1.201636	-0.000142
1226	1.2189e+02	-4.4023	-23.534483	0.000892	8.917276	1.510628	-0.000179
1227	1.2199e+02	-4.4217	-23.667708	0.000669	6.687957	1.132971	-0.000134
1228	1.2209e+02	-4.4424	-23.796897	0.000649	6.485292	1.098638	-0.000130
1229	1.2219e+02	-4.4608	-23.990679	0.000973	9.727938	1.647957	-0.000195
1230	1.2229e+02	-4.4823	-24.152165	0.000811	8.106615	1.373298	-0.000162
1231	1.2239e+02	-4.5016	-24.265204	0.000567	5.674630	0.961308	-0.000114
1232	1.2248e+02	-4.5227	-24.434764	0.000851	8.511946	1.441963	-0.000170
1233	1.2258e+02	-4.5415	-24.604324	0.000851	8.511946	1.441963	-0.000170
1234	1.2268e+02	-4.5618	-24.737549	0.000669	6.687957	1.132971	-0.000134
1235	1.2278e+02	-4.5813	-24.878849	0.000709	7.093288	1.201636	-0.000142
1236	1.2288e+02	-4.6004	-25.032260	0.000770	7.701284	1.304633	-0.000154
1237	1.2298e+02	-4.6211	-25.181634	0.000750	7.498619	1.270300	-0.000150
1238	1.2308e+02	-4.6410	-25.298711	0.000588	5.877296	0.995641	-0.000118
1239	1.2318e+02	-4.6613	-25.496531	0.000993	9.930603	1.682290	-0.000199
1240	1.2328e+02	-4.6802	-25.645905	0.000750	7.498619	1.270300	-0.000150
1241	1.2338e+02	-4.7002	-25.823539	0.000892	8.917276	1.510628	-0.000179
1242	1.2348e+02	-4.7218	-25.985024	0.000811	8.106615	1.373298	-0.000162
1243	1.2358e+02	-4.7411	-26.081915	0.000486	4.863969	0.823979	-0.000097
1244	1.2368e+02	-4.7610	-26.255512	0.000871	8.714611	1.476295	-0.000174
1245	1.2378e+02	-4.7800	-26.392775	0.000689	6.890623	1.167303	-0.000138
1246	1.2388e+02	-4.8004	-26.517926	0.000628	6.282627	1.064306	-0.000126
1247	1.2398e+02	-4.8196	-26.707671	0.000953	9.525273	1.613625	-0.000191
1248	1.2408e+02	-4.8405	-26.861083	0.000770	7.701284	1.304633	-0.000154
1249	1.2418e+02	-4.8604	-27.018531	0.000790	7.903950	1.338965	-0.000158
1250	1.2428e+02	-4.8808	-27.087162	0.000345	3.445311	0.583652	-0.000069
1251	1.2438e+02	-4.9001	-27.276908	0.000953	9.525273	1.613625	-0.000191
1252	1.2447e+02	-4.9200	-27.418207	0.000709	7.093288	1.201636	-0.000142
1253	1.2457e+02	-4.9399	-27.603916	0.000932	9.322607	1.579292	-0.000187
1254	1.2467e+02	-4.9599	-27.737141	0.000669	6.687957	1.132971	-0.000134
1255	1.2477e+02	-4.9796	-27.862292	0.000628	6.282627	1.064306	-0.000126
1256	1.2487e+02	-4.9997	-28.023778	0.000811	8.106615	1.373298	-0.000162
1257	1.2497e+02	-5.0203	-28.209486	0.000932	9.322607	1.579292	-0.000187
1258	1.2507e+02	-5.0397	-28.290229	0.000405	4.053307	0.686649	-0.000081
1259	1.2517e+02	-5.0584	-28.419417	0.000649	6.485292	1.098638	-0.000130
1260	1.2527e+02	-5.0796	-28.629348	0.001054	10.538599	1.785287	-0.000211
1261	1.2537e+02	-5.0986	-28.746425	0.000588	5.877296	0.995641	-0.000118
1262	1.2547e+02	-5.1181	-28.907910	0.000811	8.106615	1.373298	-0.000162
1263	1.2557e+02	-5.1392	-29.061322	0.000770	7.701284	1.304633	-0.000154
1264	1.2567e+02	-5.1584	-29.218770	0.000790	7.903950	1.338965	-0.000158
1265	1.2577e+02	-5.1794	-29.299513	0.000405	4.053307	0.686649	-0.000081
1266	1.2587e+02	-5.1987	-29.477147	0.000892	8.917276	1.510628	-0.000179
1267	1.2597e+02	-5.2182	-29.602298	0.000628	6.282627	1.064306	-0.000126
1268	1.2607e+02	-5.2389	-29.751672	0.000750	7.498619	1.270300	-0.000150
1269	1.2617e+02	-5.2588	-29.925269	0.000871	8.714611	1.476295	-0.000174
1270	1.2627e+02	-5.2783	-30.026197	0.000507	5.066634	0.858311	-0.000101
1271	1.2636e+02	-5.2982	-30.155385	0.000649	6.485292	1.098638	-0.000130
1272	1.2646e+02	-5.3192	-30.308797	0.000770	7.701284	1.304633	-0.000154
1273	1.2656e+02	-5.3392	-30.506616	0.000993	9.930603	1.682290	-0.000199
1274	1.2666e+02	-5.3581	-30.631767	0.000628	6.282627	1.064306	-0.000126
1275	1.2676e+02	-5.3778	-30.728659	0.000486	4.863969	0.823979	-0.000097
1276	1.2686e+02	-5.3986	-30.922441	0.000973	9.727938	1.647957	-0.000195
1277	1.2696e+02	-5.4179	-31.035481	0.000567	5.674630	0.961308	-0.000114
1278	1.2706e+02	-5.4379	-31.168706	0.000669	6.687957	1.132971	-0.000134
1279	1.2716e+02	-5.4582	-31.314043	0.000730	7.295953	1.235968	-0.000146
1280	1.2726e+02	-5.4784	-31.439195	0.000628	6.282627	1.064306	-0.000126
1281	1.2736e+02	-5.4974	-31.580494	0.000709	7.093288	1.201636	-0.000142
1282	1.2746e+02	-5.5171	-31.709683	0.000649	6.485292	1.098638	-0.000130
1283	1.2756e+02	-5.5383	-31.875205	0.000831	8.309280	1.407630	-0.000166
1284	1.2766e+02	-5.5574	-32.036691	0.000811	8.106615	1.373298	-0.000162
1285	1.2776e+02	-5.5778	-32.165879	0.000649	6.485292	1.098638	-0.000130
1286	1.2786e+02	-5.5966	-32.319290	0.000770	7.701284	1.304633	-0.000154
1287	1.2796e+02	-5.6177	-32.448478	0.000649	6.485292	1.098638	-0.000130
1288	1.2806e+02	-5.6372	-32.561518	0.000567	5.674630	0.961308	-0.000114
1289	1.2816e+02	-5.6567	-32.735115	0.000871	8.714611	1.476295	-0.000174
1290	1.2826e+02	-5.6770	-32.884489	0.000750	7.498619	1.270300	-0.000150
1291	1.2835e+02	-5.6967	-33.021752	0.000689	6.890623	1.167303	-0.000138
1292	1.2845e+02	-5.7175	-33.159014	0.000689	6.890623	1.167303	-0.000138
1293	1.2855e+02	-5.7365	-33.284166	0.000628	6.282627	1.064306	-0.000126
1294	1.2865e+02	-5.7571	-33.469874	0.000932	9.322607	1.579292	-0.000187
1295	1.2875e+02	-5.7774	-33.586951	0.000588	5.877296	0.995641	-0.000118
1296	1.2885e+02	-5.7962	-33.716139	0.000649	6.485292	1.098638	-0.000130
1297	1.2895e+02	-5.8167	-33.897810	0.000912	9.119942	1.544960	-0.000183
1298	1.2905e+02	-5.8366	-33.982590	0.000426	4.255973	0.720981	-0.000085
1299	1.2915e+02	-5.8566	-34.115816	0.000669	6.687957	1.132971	-0.000134
1300	1.2925e+02	-5.8765	-34.337858	0.001115	11.146596	1.888284	-0.000223
1301	1.2935e+02	-5.8963	-34.454935	0.000588	5.877296	0.995641	-0.000118
1302	1.2945e+02	-5.9167	-34.576049	0.000608	6.079961	1.029973	-0.000122
1303	1.2955e+02	-5.9357	-34.745609	0.000851	8.511946	1.441963	-0.000170
1304	1.2965e+02	-5.9558	-34.882871	0.000689	6.890623	1.167303	-0.000138
1305	1.2975e+02	-5.9753	-35.032245	0.000750	7.498619	1.270300	-0.000150
1306	1.2985e+02	-5.9953	-35.185657	0.000770	7.701284	1.304633	-0.000154
1307	1.2995e+02	-6.0159	-35.322919	0.000689	6.890623	1.167303	-0.000138
1308	1.3005e+02	-6.0359	-35.444033	0.000608	6.079961	1.029973	-0.000122
1309	1.3015e+02	-6.0561	-35.593407	0.000750	7.498619	1.270300	-0.000150
1310	1.3025e+02	-6.0759	-35.754893	0.000811	8.106615	1.373298	-0.000162
1311	1.3034e+02	-6.0961	-35.863895	0.000547	5.471965	0.926976	-0.000110
1312	1.3044e+02	-6.1153	-36.037492	0.000871	8.714611	1.476295	-0.000174
1313	1.3054e+02	-6.1356	-36.182829	0.000730	7.295953	1.235968	-0.000146
1314	1.3064e+02	-6.1554	-36.275683	0.000466	4.661304	0.789646	-0.000093
1315	1.3074e+02	-6.1758	-36.445243	0.000851	8.511946	1.441963	-0.000170
1316	1.3084e+02	-6.1960	-36.594617	0.000750	7.498619	1.270300	-0.000150
1317	1.3094e+02	-6.2149	-36.739954	0.000730	7.295953	1.235968	-0.000146
1318	1.3104e+02	-6.2354	-36.909513	0.000851	8.511946	1.441963	-0.000170
1319	1.3114e+02	-6.2544	-37.046776	0.000689	6.890623	1.167303	-0.000138
1320	1.3124e+02	-6.2743	-37.159816	0.000567	5.674630	0.961308	-0.000114
1321	1.3134e+02	-6.2943	-37.321301	0.000811	8.106615	1.373298	-0.000162
1322	1.3144e+02	-6.3150	-37.478750	0.000790	7.903950	1.338965	-0.000158
1323	1.3154e+02	-6.3344	-37.611975	0.000669	6.687957	1.132971	-0.000134
1324	1.3164e+02	-6.3538	-37.720978	0.000547	5.471965	0.926976	-0.000110
1325	1.3174e+02	-6.3754	-37.890537	0.000851	8.511946	1.441963	-0.000170
1326	1.3184e+02	-6.3942	-38.039911	0.000750	7.498619	1.270300	-0.000150
1327	1.3194e+02	-6.4142	-38.156988	0.000588	5.877296	0.995641	-0.000118
1328	1.3204e+02	-6.4340	-38.302325	0.000730	7.295953	1.235968	-0.000146
1329	1.3214e+02	-6.4537	-38.479959	0.000892	8.917276	1.510628	-0.000179
1330	1.3224e+02	-6.4743	-38.637408	0.000790	7.903950	1.338965	-0.000158
1331	1.3234e+02	-6.4940	-38.746410	0.000547	5.471965	0.926976	-0.000110
1332	1.3243e+02	-6.5149	-38.895784	0.000750	7.498619	1.270300	-0.000150
1333	1.3253e+02	-6.5341	-39.065344	0.000851	8.511946	1.441963	-0.000170
1334	1.3263e+02	-6.5546	-39.170309	0.000527	5.269300	0.892644	-0.000105
1335	1.3273e+02	-6.5746	-39.335832	0.000831	8.309280	1.407630	-0.000166
1336	1.3283e+02	-6.5939	-39.485206	0.000750	7.498619	1.270300	-0.000150
1337	1.3293e+02	-6.6132	-39.687063	0.001013	10.133269	1.716622	-0.000203
1338	1.3303e+02	-6.6330	-39.771843	0.000426	4.255973	0.720981	-0.000085
1339	1.3313e+02	-6.6527	-39.929291	0.000790	7.903950	1.338965	-0.000158
1340	1.3323e+02	-6.6738	-40.086739	0.000790	7.903950	1.338965	-0.000158
1341	1.3333e+02	-6.6934	-40.248225	0.000811	8.106615	1.373298	-0.000162
1342	1.3343e+02	-6.7125	-40.385487	0.000689	6.890623	1.167303	-0.000138
1343	1.3353e+02	-6.7329	-40.542936	0.000790	7.903950	1.338965	-0.000158
1344	1.3363e+02	-6.7535	-40.672124	0.000649	6.485292	1.098638	-0.000130
1345	1.3373e+02	-6.7720	-40.813424	0.000709	7.093288	1.201636	-0.000142
1346	1.3383e+02	-6.7926	-40.995095	0.000912	9.119942	1.544960	-0.000183
1347	1.3393e+02	-6.8134	-41.164655	0.000851	8.511946	1.441963	-0.000170
1348	1.3403e+02	-6.8332	-41.273657	0.000547	5.471965	0.926976	-0.000110
1349	1.3413e+02	-6.8530	-41.435143	0.000811	8.106615	1.373298	-0.000162
1350	1.3423e+02	-6.8723	-41.580480	0.000730	7.295953	1.235968	-0.000146
1351	1.3432e+02	-6.8924	-41.770225	0.000953	9.525273	1.613625	-0.000191
1352	1.3442e+02	-6.9138	-41.911525	0.000709	7.093288	1.201636	-0.000142
1353	1.3452e+02	-6.9316	-42.085122	0.000871	8.714611	1.476295	-0.000174
1354	1.3462e+02	-6.9516	-42.238533	0.000770	7.701284	1.304633	-0.000154
1355	1.3472e+02	-6.9724	-42.371758	0.000669	6.687957	1.132971	-0.000134
1356	1.3482e+02	-6.9917	-42.545355	0.000871	8.714611	1.476295	-0.000174
1357	1.3492e+02	-7.0110	-42.735100	0.000953	9.525273	1.613625	-0.000191
1358	1.3502e+02	-7.0309	-42.840066	0.000527	5.269300	0.892644	-0.000105
1359	1.3512e+02	-7.0512	-42.993477	0.000770	7.701284	1.304633	-0.000154
1360	1.3522e+02	-7.0714	-43.150925	0.000790	7.903950	1.338965	-0.000158
1361	1.3532e+02	-7.0926	-43.340671	0.000953	9.525273	1.613625	-0.000191
1362	1.3542e+02	-7.1117	-43.477933	0.000689	6.890623	1.167303	-0.000138
1363	1.3552e+02	-7.1307	-43.651530	0.000871	8.714611	1.476295	-0.000174
1364	1.3562e+02	-7.1509	-43.845313	0.000973	9.727938	1.647957	-0.000195
1365	1.3572e+02	-7.1709	-43.982575	0.000689	6.890623	1.167303	-0.000138
1366	1.3582e+02	-7.1918	-44.135986	0.000770	7.701284	1.304633	-0.000154
1367	1.3592e+02	-7.2115	-44.273249	0.000689	6.890623	1.167303	-0.000138
1368	1.3602e+02	-7.2311	-44.462994	0.000953	9.525273	1.613625	-0.000191
1369	1.3612e+02	-7.2502	-44.604294	0.000709	7.093288	1.201636	-0.000142
1370	1.3622e+02	-7.2708	-44.773854	0.000851	8.511946	1.441963	-0.000170
1371	1.3631e+02	-7.2911	-44.955525	0.000912	9.119942	1.544960	-0.000183
1372	1.3641e+02	-7.3108	-45.153345	0.000993	9.930603	1.682290	-0.000199
1373	1.3651e+02	-7.3312	-45.278496	0.000628	6.282627	1.064306	-0.000126
1374	1.3661e+02	-7.3506	-45.427870	0.000750	7.498619	1.270300	-0.000150
1375	1.3671e+02	-7.3706	-45.573207	0.000730	7.295953	1.235968	-0.000146
1376	1.3681e+02	-7.3914	-45.791212	0.001094	10.943930	1.853952	-0.000219
1377	1.3691e+02	-7.4107	-45.900215	0.000547	5.471965	0.926976	-0.000110
1378	1.3701e+02	-7.4301	-46.065737	0.000831	8.309280	1.407630	-0.000166
1379	1.3711e+02	-7.4507	-46.259520	0.000973	9.727938	1.647957	-0.000195
1380	1.3721e+02	-7.4700	-46.408894	0.000750	7.498619	1.270300	-0.000150
1381	1.3731e+02	-7.4910	-46.578454	0.000851	8.511946	1.441963	-0.000170
1382	1.3741e+02	-7.5104	-46.739939	0.000811	8.106615	1.373298	-0.000162
1383	1.3751e+02	-7.5313	-46.905462	0.000831	8.309280	1.407630	-0.000166
1384	1.3761e+02	-7.5494	-47.115393	0.001054	10.538599	1.785287	-0.000211
1385	1.3771e+02	-7.5696	-47.256692	0.000709	7.093288	1.201636	-0.000142
1386	1.3781e+02	-7.5893	-47.458549	0.001013	10.133269	1.716622	-0.000203
1387	1.3791e+02	-7.6086	-47.587738	0.000649	6.485292	1.098638	-0.000130
1388	1.3801e+02	-7.6299	-47.773446	0.000932	9.322607	1.579292	-0.000187
1389	1.3811e+02	-7.6495	-47.943005	0.000851	8.511946	1.441963	-0.000170
1390	1.3821e+02	-7.6696	-48.092379	0.000750	7.498619	1.270300	-0.000150
1391	1.3831e+02	-7.6884	-48.265976	0.000871	8.714611	1.476295	-0.000174
1392	1.3840e+02	-7.7097	-48.471870	0.001034	10.335934	1.750955	-0.000207
1393	1.3850e+02	-7.7290	-48.588947	0.000588	5.877296	0.995641	-0.000118
1394	1.3860e+02	-7.7472	-48.782730	0.000973	9.727938	1.647957	-0.000195
1395	1.3870e+02	-7.7689	-48.948252	0.000831	8.309280	1.407630	-0.000166
1396	1.3880e+02	-7.7890	-49.150109	0.001013	10.133269	1.716622	-0.000203
1397	1.3890e+02	-7.8088	-49.287372	0.000689	6.890623	1.167303	-0.000138
1398	1.3900e+02	-7.8294	-49.481154	0.000973	9.727938	1.647957	-0.000195
1399	1.3910e+02	-7.8496	-49.662825	0.000912	9.119942	1.544960	-0.000183
1400	1.3920e+02	-7.8693	-49.852571	0.000953	9.525273	1.613625	-0.000191
1401	1.3930e+02	-7.8876	-50.030205	0.000892	8.917276	1.510628	-0.000179
1402	1.3940e+02	-7.9077	-50.211876	0.000912	9.119942	1.544960	-0.000183
1403	1.3950e+02	-7.9279	-50.353175	0.000709	7.093288	1.201636	-0.000142
1404	1.3960e+02	-7.9479	-50.526772	0.000871	8.714611	1.476295	-0.000174
1405	1.3970e+02	-7.9671	-50.704406	0.000892	8.917276	1.510628	-0.000179
1406	1.3980e+02	-7.9877	-50.878003	0.000871	8.714611	1.476295	-0.000174
1407	1.3990e+02	-8.0090	-51.083897	0.001034	10.335934	1.750955	-0.000207
1408	1.4000e+02	-8.0273	-51.253457	0.000851	8.511946	1.441963	-0.000170
1409	1.4010e+02	-8.0469	-51.451276	0.000993	9.930603	1.682290	-0.000199
1410	1.4020e+02	-8.0676	-51.661207	0.001054	10.538599	1.785287	-0.000211
1411	1.4029e+02	-8.0878	-51.838841	0.000892	8.917276	1.510628	-0.000179
1412	1.4039e+02	-8.1079	-51.984178	0.000730	7.295953	1.235968	-0.000146
1413	1.4049e+02	-8.1277	-52.190072	0.001034	10.335934	1.750955	-0.000207
1414	1.4059e+02	-8.1482	-52.387892	0.000993	9.930603	1.682290	-0.000199
1415	1.4069e+02	-8.1677	-52.601860	0.001074	10.741265	1.819620	-0.000215
1416	1.4079e+02	-8.1876	-52.722974	0.000608	6.079961	1.029973	-0.000122
1417	1.4089e+02	-8.2069	-52.924831	0.001013	10.133269	1.716622	-0.000203
1418	1.4099e+02	-8.2271	-53.142836	0.001094	10.943930	1.853952	-0.000219
1419	1.4109e+02	-8.2477	-53.328545	0.000932	9.322607	1.579292	-0.000187
1420	1.4119e+02	-8.2666	-53.510216	0.000912	9.119942	1.544960	-0.000183
1421	1.4129e+02	-8.2864	-53.683812	0.000871	8.714611	1.476295	-0.000174
1422	1.4139e+02	-8.3066	-53.889706	0.001034	10.335934	1.750955	-0.000207
1423	1.4149e+02	-8.3267	-54.075415	0.000932	9.322607	1.579292	-0.000187
1424	1.4159e+02	-8.3472	-54.265160	0.000953	9.525273	1.613625	-0.000191
1425	1.4169e+02	-8.3662	-54.434720	0.000851	8.511946	1.441963	-0.000170
1426	1.4179e+02	-8.3865	-54.632539	0.000993	9.930603	1.682290	-0.000199
1427	1.4189e+02	-8.4061	-54.810173	0.000892	8.917276	1.510628	-0.000179
1428	1.4199e+02	-8.4259	-55.040290	0.001155	11.551926	1.956949	-0.000231
1429	1.4209e+02	-8.4457	-55.254258	0.001074	10.741265	1.819620	-0.000215
1430	1.4219e+02	-8.4671	-55.431892	0.000892	8.917276	1.510628	-0.000179
1431	1.4228e+02	-8.4858	-55.609526	0.000892	8.917276	1.510628	-0.000179
1432	1.4238e+02	-8.5059	-55.791197	0.000912	9.119942	1.544960	-0.000183
1433	1.4248e+02	-8.5268	-55.993054	0.001013	10.133269	1.716622	-0.000203
1434	1.4258e+02	-8.5464	-56.211059	0.001094	10.943930	1.853952	-0.000219
1435	1.4268e+02	-8.5660	-56.400805	0.000953	9.525273	1.613625	-0.000191
1436	1.4278e+02	-8.5846	-56.570365	0.000851	8.511946	1.441963	-0.000170
1437	1.4288e+02	-8.6055	-56.812593	0.001216	12.159922	2.059947	-0.000243
1438	1.4298e+02	-8.6256	-56.998301	0.000932	9.322607	1.579292	-0.000187
1439	1.4308e+02	-8.6453	-57.155749	0.000790	7.903950	1.338965	-0.000158
1440	1.4318e+02	-8.6650	-57.381829	0.001135	11.349261	1.922617	-0.000227
1441	1.4328e+02	-8.6850	-57.551389	0.000851	8.511946	1.441963	-0.000170
1442	1.4338e+02	-8.7048	-57.785542	0.001175	11.754592	1.991282	-0.000235
1443	1.4348e+02	-8.7257	-57.955102	0.000851	8.511946	1.441963	-0.000170
1444	1.4358e+02	-8.7448	-58.189256	0.001175	11.754592	1.991282	-0.000235
1445	1.4368e+02	-8.7651	-58.391113	0.001013	10.133269	1.716622	-0.000203
1446	1.4378e+02	-8.7854	-58.617192	0.001135	11.349261	1.922617	-0.000227
1447	1.4388e+02	-8.8055	-58.835198	0.001094	10.943930	1.853952	-0.000219
1448	1.4398e+02	-8.8247	-59.037054	0.001013	10.133269	1.716622	-0.000203
1449	1.4408e+02	-8.8449	-59.226800	0.000953	9.525273	1.613625	-0.000191
1450	1.4418e+02	-8.8649	-59.404434	0.000892	8.917276	1.510628	-0.000179
1451	1.4428e+02	-8.8843	-59.654736	0.001257	12.565253	2.128612	-0.000252
1452	1.4437e+02	-8.9044	-59.860630	0.001034	10.335934	1.750955	-0.000207
1453	1.4447e+02	-8.9236	-60.038264	0.000892	8.917276	1.510628	-0.000179
1454	1.4457e+02	-8.9435	-60.248195	0.001054	10.538599	1.785287	-0.000211
1455	1.4467e+02	-8.9639	-60.486386	0.001196	11.957257	2.025614	-0.000239
1456	1.4477e+02	-8.9835	-60.704392	0.001094	10.943930	1.853952	-0.000219
1457	1.4487e+02	-9.0039	-60.910285	0.001034	10.335934	1.750955	-0.000207
1458	1.4497e+02	-9.0240	-61.164625	0.001277	12.767919	2.162944	-0.000256
1459	1.4507e+02	-9.0433	-61.350333	0.000932	9.322607	1.579292	-0.000187
1460	1.4517e+02	-9.0646	-61.600636	0.001257	12.565253	2.128612	-0.000252
1461	1.4527e+02	-9.0837	-61.830752	0.001155	11.551926	1.956949	-0.000231
1462	1.4537e+02	-9.1034	-62.044721	0.001074	10.741265	1.819620	-0.000215
1463	1.4547e+02	-9.1223	-62.250615	0.001034	10.335934	1.750955	-0.000207
1464	1.4557e+02	-9.1438	-62.468620	0.001094	10.943930	1.853952	-0.000219
1465	1.4567e+02	-9.1635	-62.710848	0.001216	12.159922	2.059947	-0.000243
1466	1.4577e+02	-9.1823	-62.928853	0.001094	10.943930	1.853952	-0.000219
1467	1.4587e+02	-9.2026	-63.126673	0.000993	9.930603	1.682290	-0.000199
1468	1.4597e+02	-9.2232	-63.352753	0.001135	11.349261	1.922617	-0.000227
1469	1.4607e+02	-9.2424	-63.623241	0.001358	13.578580	2.300274	-0.000272
1470	1.4617e+02	-9.2638	-63.865469	0.001216	12.159922	2.059947	-0.000243
1471	1.4626e+02	-9.2828	-64.055214	0.000953	9.525273	1.613625	-0.000191
1472	1.4636e+02	-9.3024	-64.301479	0.001236	12.362588	2.094279	-0.000248
1473	1.4646e+02	-9.3219	-64.535633	0.001175	11.754592	1.991282	-0.000235
1474	1.4656e+02	-9.3428	-64.761713	0.001135	11.349261	1.922617	-0.000227
1475	1.4666e+02	-9.3623	-65.020090	0.001297	12.970584	2.197276	-0.000260
1476	1.4676e+02	-9.3829	-65.294615	0.001378	13.781245	2.334606	-0.000276
1477	1.4686e+02	-9.4025	-65.488397	0.000973	9.727938	1.647957	-0.000195
1478	1.4696e+02	-9.4223	-65.730626	0.001216	12.159922	2.059947	-0.000243
1479	1.4706e+02	-9.4427	-65.968817	0.001196	11.957257	2.025614	-0.000239
1480	1.4716e+02	-9.4624	-66.174710	0.001034	10.335934	1.750955	-0.000207
1481	1.4726e+02	-9.4820	-66.433087	0.001297	12.970584	2.197276	-0.000260
1482	1.4736e+02	-9.5026	-66.671278	0.001196	11.957257	2.025614	-0.000239
1483	1.4746e+02	-9.5212	-66.945803	0.001378	13.781245	2.334606	-0.000276
1484	1.4756e+02	-9.5423	-67.196106	0.001257	12.565253	2.128612	-0.000252
1485	1.4766e+02	-9.5612	-67.454482	0.001297	12.970584	2.197276	-0.000260
1486	1.4776e+02	-9.5822	-67.668451	0.001074	10.741265	1.819620	-0.000215
1487	1.4786e+02	-9.6022	-67.955087	0.001439	14.389242	2.437604	-0.000288
1488	1.4796e+02	-9.6211	-68.144833	0.000953	9.525273	1.613625	-0.000191
1489	1.4806e+02	-9.6404	-68.383024	0.001196	11.957257	2.025614	-0.000239
1490	1.4816e+02	-9.6609	-68.665623	0.001419	14.186576	2.403271	-0.000284
1491	1.4825e+02	-9.6811	-68.964371	0.001500	14.997238	2.540601	-0.000300
1492	1.4835e+02	-9.7011	-69.170265	0.001034	10.335934	1.750955	-0.000207
1493	1.4845e+02	-9.7214	-69.424605	0.001277	12.767919	2.162944	-0.000256
1494	1.4855e+02	-9.7409	-69.687019	0.001317	13.173249	2.231609	-0.000264
1495	1.4865e+02	-9.7614	-69.921172	0.001175	11.754592	1.991282	-0.000235
1496	1.4875e+02	-9.7804	-70.227995	0.001540	15.402568	2.609266	-0.000308
1497	1.4885e+02	-9.8010	-70.474260	0.001236	12.362588	2.094279	-0.000248
1498	1.4895e+02	-9.8206	-70.728600	0.001277	12.767919	2.162944	-0.000256
1499	1.4905e+02	-9.8410	-70.995051	0.001338	13.375915	2.265941	-0.000268
1500	1.4915e+02	-9.8605	-71.200944	0.001034	10.335934	1.750955	-0.000207
1501	1.4925e+02	-9.8808	-71.511804	0.001561	15.605234	2.643598	-0.000312
1502	1.4935e+02	-9.9005	-71.778255	0.001338	13.375915	2.265941	-0.000268
1503	1.4945e+02	-9.9200	-72.077003	0.001500	14.997238	2.540601	-0.000300
1504	1.4955e+02	-9.9400	-72.335380	0.001297	12.970584	2.197276	-0.000260
1505	1.4965e+02	-9.9609	-72.597793	0.001317	13.173249	2.231609	-0.000264
1506	1.4975e+02	-9.9793	-72.888467	0.001459	14.591907	2.471936	-0.000292
1507	1.4985e+02	-10.0000	-73.126658	0.001196	11.957257	2.025614	-0.000239
1508	1.4995e+02	-9.9806	-73.235661	-0.000547	-5.471965	-0.926976	-0.000110
1509	1.5005e+02	-9.9605	-73.336589	-0.000507	-5.066634	-0.858311	-0.000101
1510	1.5015e+02	-9.9409	-73.376961	-0.000203	-2.026654	-0.343324	-0.000041
1511	1.5025e+02	-9.9193	-73.449629	-0.000365	-3.647977	-0.617984	-0.000073
1512	1.5034e+02	-9.9005	-73.574780	-0.000628	-6.282627	-1.064306	-0.000126
1513	1.5044e+02	-9.8804	-73.582855	-0.000041	-0.405331	-0.068665	-0.000008
1514	1.5054e+02	-9.8616	-73.635337	-0.000263	-2.634650	-0.446322	-0.000053
1515	1.5064e+02	-9.8398	-73.699931	-0.000324	-3.242646	-0.549319	-0.000065
1516	1.5074e+02	-9.8206	-73.744340	-0.000223	-2.229319	-0.377657	-0.000045
1517	1.5084e+02	-9.8004	-73.776637	-0.000162	-1.621323	-0.274660	-0.000032
1518	1.5094e+02	-9.7800	-73.812971	-0.000182	-1.823988	-0.308992	-0.000037
1519	1.5104e+02	-9.7617	-73.792786	0.000101	1.013327	0.171662	0.000020
1520	1.5114e+02	-9.7408	-73.861417	-0.000345	-3.445311	-0.583652	-0.000069
1521	1.5124e+02	-9.7217	-73.845268	0.000081	0.810661	0.137330	0.000016
1522	1.5134e+02	-9.7000	-73.905825	-0.000304	-3.039981	-0.514987	-0.000061
1523	1.5144e+02	-9.6815	-73.877565	0.000142	1.418658	0.240327	0.000028
1524	1.5154e+02	-9.6619	-73.905825	-0.000142	-1.418658	-0.240327	-0.000028
1525	1.5164e+02	-9.6405	-73.901788	0.000020	0.202665	0.034332	0.000004
1526	1.5174e+02	-9.6207	-73.905825	-0.000020	-0.202665	-0.034332	-0.000004
1527	1.5184e+02	-9.6016	-73.917937	-0.000061	-0.607996	-0.102997	-0.000012
1528	1.5194e+02	-9.5813	-73.926011	-0.000041	-0.405331	-0.068665	-0.000008
1529	1.5204e+02	-9.5612	-73.921974	0.000020	0.202665	0.034332	0.000004
1530	1.5214e+02	-9.5419	-73.926011	-0.000020	-0.202665	-0.034332	-0.000004
1531	1.5224e+02	-9.5222	-73.938122	-0.000061	-0.607996	-0.102997	-0.000012
1532	1.5233e+02	-9.5015	-73.926011	0.000061	0.607996	0.102997	0.000012
1533	1.5243e+02	-9.4823	-73.905825	0.000101	1.013327	0.171662	0.000020
1534	1.5253e+02	-9.4626	-73.877565	0.000142	1.418658	0.240327	0.000028
1535	1.5263e+02	-9.4424	-73.869491	0.000041	0.405331	0.068665	0.000008
1536	1.5273e+02	-9.4223	-73.817008	0.000263	2.634650	0.446322	0.000053
1537	1.5283e+02	-9.4025	-73.788748	0.000142	1.418658	0.240327	0.000028
1538	1.5293e+02	-9.3829	-73.780674	0.000041	0.405331	0.068665	0.000008
1539	1.5303e+02	-9.3631	-73.776637	0.000020	0.202665	0.034332	0.000004
1540	1.5313e+02	-9.3420	-73.732229	0.000223	2.229319	0.377657	0.000045
1541	1.5323e+02	-9.3225	-73.687820	0.000223	2.229319	0.377657	0.000045
1542	1.5333e+02	-9.3018	-73.679746	0.000041	0.405331	0.068665	0.000008
1543	1.5343e+02	-9.2833	-73.655523	0.000122	1.215992	0.205995	0.000024
1544	1.5353e+02	-9.2622	-73.566706	0.000446	4.458638	0.755314	0.000089
1545	1.5363e+02	-9.2430	-73.534409	0.000162	1.621323	0.274660	0.000032
1546	1.5373e+02	-9.2223	-73.490000	0.000223	2.229319	0.377657	0.000045
1547	1.5383e+02	-9.2029	-73.469815	0.000101	1.013327	0.171662	0.000020
1548	1.5393e+02	-9.1829	-73.433481	0.000182	1.823988	0.308992	0.000037
1549	1.5403e+02	-9.1632	-73.405221	0.000142	1.418658	0.240327	0.000028
1550	1.5413e+02	-9.1440	-73.372923	0.000162	1.621323	0.274660	0.000032
1551	1.5422e+02	-9.1237	-73.312366	0.000304	3.039981	0.514987	0.000061
1552	1.5432e+02	-9.1032	-73.251809	0.000304	3.039981	0.514987	0.000061
1553	1.5442e+02	-9.0833	-73.223549	0.000142	1.418658	0.240327	0.000028
1554	1.5452e+02	-9.0643	-73.154918	0.000345	3.445311	0.583652	0.000069
1555	1.5462e+02	-9.0436	-73.146844	0.000041	0.405331	0.068665	0.000008
1556	1.5472e+02	-9.0239	-73.037841	0.000547	5.471965	0.926976	0.000110
1557	1.5482e+02	-9.0039	-73.025730	0.000061	0.607996	0.102997	0.000012
1558	1.5492e+02	-8.9838	-72.957098	0.000345	3.445311	0.583652	0.000069
1559	1.5502e+02	-8.9633	-72.900579	0.000284	2.837315	0.480654	0.000057
1560	1.5512e+02	-8.9440	-72.848096	0.000263	2.634650	0.446322	0.000053
1561	1.5522e+02	-8.9246	-72.807724	0.000203	2.026654	0.343324	0.000041
1562	1.5532e+02	-8.9050	-72.771390	0.000182	1.823988	0.308992	0.000037
1563	1.5542e+02	-8.8838	-72.694685	0.000385	3.850642	0.652316	0.000077
1564	1.5552e+02	-8.8640	-72.638165	0.000284	2.837315	0.480654	0.000057
1565	1.5562e+02	-8.8437	-72.630090	0.000041	0.405331	0.068665	0.000008
1566	1.5572e+02	-8.8248	-72.496865	0.000669	6.687957	1.132971	0.000134
1567	1.5582e+02	-8.8048	-72.484754	0.000061	0.607996	0.102997	0.000012
1568	1.5592e+02	-8.7857	-72.399974	0.000426	4.255973	0.720981	0.000085
1569	1.5602e+02	-8.7650	-72.355565	0.000223	2.229319	0.377657	0.000045
1570	1.5612e+02	-8.7457	-72.274823	0.000405	4.053307	0.686649	0.000081
1571	1.5622e+02	-8.7249	-72.214266	0.000304	3.039981	0.514987	0.000061
1572	1.5631e+02	-8.7048	-72.121411	0.000466	4.661304	0.789646	0.000093
1573	1.5641e+02	-8.6850	-72.064891	0.000284	2.837315	0.480654	0.000057
1574	1.5651e+02	-8.6647	-72.064891	0.000000	0.000000	0.000000	0.000000
1575	1.5661e+02	-8.6450	-71.939740	0.000628	6.282627	1.064306	0.000126
1576	1.5671e+02	-8.6261	-71.907443	0.000162	1.621323	0.274660	0.000032
1577	1.5681e+02	-8.6050	-71.830738	0.000385	3.850642	0.652316	0.000077
1578	1.5691e+02	-8.5860	-71.733846	0.000486	4.863969	0.823979	0.000097
1579	1.5701e+02	-8.5666	-71.693475	0.000203	2.026654	0.343324	0.000041
1580	1.5711e+02	-8.5449	-71.632918	0.000304	3.039981	0.514987	0.000061
1581	1.5721e+02	-8.5266	-71.576398	0.000284	2.837315	0.480654	0.000057
1582	1.5731e+02	-8.5059	-71.515841	0.000304	3.039981	0.514987	0.000061
1583	1.5741e+02	-8.4859	-71.406838	0.000547	5.471965	0.926976	0.000110
1584	1.5751e+02	-8.4656	-71.342244	0.000324	3.242646	0.549319	0.000065
1585	1.5761e+02	-8.4454	-71.301873	0.000203	2.026654	0.343324	0.000041
1586	1.5771e+02	-8.4264	-71.221130	0.000405	4.053307	0.686649	0.000081
1587	1.5781e+02	-8.4059	-71.148462	0.000365	3.647977	0.617984	0.000073
1588	1.5791e+02	-8.3855	-71.100016	0.000243	2.431984	0.411989	0.000049
1589	1.5801e+02	-8.3665	-70.999088	0.000507	5.066634	0.858311	0.000101
1590	1.5811e+02	-8.3463	-70.853751	0.000730	7.295953	1.235968	0.000146
1591	1.5821e+02	-8.3263	-70.825491	0.000142	1.418658	0.240327	0.000028
1592	1.5830e+02	-8.3063	-70.781082	0.000223	2.229319	0.377657	0.000045
1593	1.5840e+02	-8.2866	-70.708414	0.000365	3.647977	0.617984	0.000073
1594	1.5850e+02	-8.2668	-70.655931	0.000263	2.634650	0.446322	0.000053
1595	1.5860e+02	-8.2472	-70.550966	0.000527	5.269300	0.892644	0.000105
1596	1.5870e+02	-8.2268	-70.498483	0.000263	2.634650	0.446322	0.000053
1597	1.5880e+02	-8.2065	-70.393517	0.000527	5.269300	0.892644	0.000105
1598	1.5890e+02	-8.1879	-70.284515	0.000547	5.471965	0.926976	0.000110
1599	1.5900e+02	-8.1674	-70.244143	0.000203	2.026654	0.343324	0.000041
1600	1.5910e+02	-8.1481	-70.143215	0.000507	5.066634	0.858311	0.000101
1601	1.5920e+02	-8.1279	-70.030175	0.000567	5.674630	0.961308	0.000114
1602	1.5930e+02	-8.1071	-69.961544	0.000345	3.445311	0.583652	0.000069
1603	1.5940e+02	-8.0886	-69.888875	0.000365	3.647977	0.617984	0.000073
1604	1.5950e+02	-8.0670	-69.824281	0.000324	3.242646	0.549319	0.000065
1605	1.5960e+02	-8.0476	-69.731427	0.000466	4.661304	0.789646	0.000093
1606	1.5970e+02	-8.0280	-69.658759	0.000365	3.647977	0.617984	0.000073
1607	1.5980e+02	-8.0088	-69.505347	0.000770	7.701284	1.304633	0.000154
1608	1.5990e+02	-7.9877	-69.481125	0.000122	1.215992	0.205995	0.000024
1609	1.6000e+02	-7.9675	-69.339825	0.000709	7.093288	1.201636	0.000142
1610	1.6010e+02	-7.9489	-69.287342	0.000263	2.634650	0.446322	0.000053
1611	1.6019e+02	-7.9276	-69.190451	0.000486	4.863969	0.823979	0.000097
1612	1.6029e+02	-7.9080	-69.154117	0.000182	1.823988	0.308992	0.000037
1613	1.6039e+02	-7.8877	-69.053188	0.000507	5.066634	0.858311	0.000101
1614	1.6049e+02	-7.8683	-68.964371	0.000446	4.458638	0.755314	0.000089
1615	1.6059e+02	-7.8476	-68.827109	0.000689	6.890623	1.167303	0.000138
1616	1.6069e+02	-7.8280	-68.770589	0.000284	2.837315	0.480654	0.000057
1617	1.6079e+02	-7.8085	-68.661586	0.000547	5.471965	0.926976	0.000110
1618	1.6089e+02	-7.7899	-68.576806	0.000426	4.255973	0.720981	0.000085
1619	1.6099e+02	-7.7692	-68.483952	0.000466	4.661304	0.789646	0.000093
1620	1.6109e+02	-7.7487	-68.419358	0.000324	3.242646	0.549319	0.000065
1621	1.6119e+02	-7.7281	-68.318430	0.000507	5.066634	0.858311	0.000101
1622	1.6129e+02	-7.7094	-68.241724	0.000385	3.850642	0.652316	0.000077
1623	1.6139e+02	-7.6889	-68.116573	0.000628	6.282627	1.064306	0.000126
1624	1.6149e+02	-7.6691	-68.060053	0.000284	2.837315	0.480654	0.000057
1625	1.6159e+02	-7.6486	-67.975273	0.000426	4.255973	0.720981	0.000085
1626	1.6169e+02	-7.6292	-67.866270	0.000547	5.471965	0.926976	0.000110
1627	1.6179e+02	-7.6091	-67.805713	0.000304	3.039981	0.514987	0.000061
1628	1.6189e+02	-7.5902	-67.708822	0.000486	4.863969	0.823979	0.000097
1629	1.6199e+02	-7.5697	-67.615968	0.000466	4.661304	0.789646	0.000093
1630	1.6209e+02	-7.5510	-67.539262	0.000385	3.850642	0.652316	0.000077
1631	1.6219e+02	-7.5305	-67.438334	0.000507	5.066634	0.858311	0.000101
1632	1.6228e+02	-7.5104	-67.365665	0.000365	3.647977	0.617984	0.000073
1633	1.6238e+02	-7.4907	-67.264737	0.000507	5.066634	0.858311	0.000101
1634	1.6248e+02	-7.4697	-67.192069	0.000365	3.647977	0.617984	0.000073
1635	1.6258e+02	-7.4493	-67.062880	0.000649	6.485292	1.098638	0.000130
1636	1.6268e+02	-7.4311	-66.978100	0.000426	4.255973	0.720981	0.000085
1637	1.6278e+02	-7.4097	-66.905432	0.000365	3.647977	0.617984	0.000073
1638	1.6288e+02	-7.3911	-66.824689	0.000405	4.053307	0.686649	0.000081
1639	1.6298e+02	-7.3711	-66.679352	0.000730	7.295953	1.235968	0.000146
1640	1.6308e+02	-7.3511	-66.610721	0.000345	3.445311	0.583652	0.000069
1641	1.6318e+02	-7.3312	-66.509793	0.000507	5.066634	0.858311	0.000101
1642	1.6328e+02	-7.3105	-66.433087	0.000385	3.850642	0.652316	0.000077
1643	1.6338e+02	-7.2913	-66.328122	0.000527	5.269300	0.892644	0.000105
1644	1.6348e+02	-7.2717	-66.251416	0.000385	3.850642	0.652316	0.000077
1645	1.6358e+02	-7.2504	-66.138376	0.000567	5.674630	0.961308	0.000114
1646	1.6368e+02	-7.2319	-66.069745	0.000345	3.445311	0.583652	0.000069
1647	1.6378e+02	-7.2104	-65.928445	0.000709	7.093288	1.201636	0.000142
1648	1.6388e+02	-7.1915	-65.875962	0.000263	2.634650	0.446322	0.000053
1649	1.6398e+02	-7.1715	-65.754848	0.000608	6.079961	1.029973	0.000122
1650	1.6408e+02	-7.1517	-65.653920	0.000507	5.066634	0.858311	0.000101
1651	1.6418e+02	-7.1310	-65.569140	0.000426	4.255973	0.720981	0.000085
1652	1.6427e+02	-7.1120	-65.476286	0.000466	4.661304	0.789646	0.000093
1653	1.6437e+02	-7.0908	-65.403618	0.000365	3.647977	0.617984	0.000073
1654	1.6447e+02	-7.0717	-65.294615	0.000547	5.471965	0.926976	0.000110
1655	1.6457e+02	-7.0526	-65.161389	0.000669	6.687957	1.132971	0.000134
1656	1.6467e+02	-7.0325	-65.108907	0.000263	2.634650	0.446322	0.000053
1657	1.6477e+02	-7.0120	-64.959533	0.000750	7.498619	1.270300	0.000150
1658	1.6487e+02	-6.9925	-64.907050	0.000263	2.634650	0.446322	0.000053
1659	1.6497e+02	-6.9718	-64.777861	0.000649	6.485292	1.098638	0.000130
1660	1.6507e+02	-6.9521	-64.697119	0.000405	4.053307	0.686649	0.000081
1661	1.6517e+02	-6.9327	-64.592153	0.000527	5.269300	0.892644	0.000105
1662	1.6527e+02	-6.9135	-64.515448	0.000385	3.850642	0.652316	0.000077
1663	1.6537e+02	-6.8922	-64.410482	0.000527	5.269300	0.892644	0.000105
1664	1.6547e+02	-6.8716	-64.297442	0.000567	5.674630	0.961308	0.000114
1665	1.6557e+02	-6.8529	-64.192477	0.000527	5.269300	0.892644	0.000105
1666	1.6567e+02	-6.8320	-64.135957	0.000284	2.837315	0.480654	0.000057
1667	1.6577e+02	-6.8127	-63.970434	0.000831	8.309280	1.407630	0.000166
1668	1.6587e+02	-6.7931	-63.885654	0.000426	4.255973	0.720981	0.000085
1669	1.6597e+02	-6.7731	-63.804912	0.000405	4.053307	0.686649	0.000081
1670	1.6607e+02	-6.7532	-63.695909	0.000547	5.471965	0.926976	0.000110
1671	1.6616e+02	-6.7339	-63.594981	0.000507	5.066634	0.858311	0.000101
1672	1.6626e+02	-6.7132	-63.465792	0.000649	6.485292	1.098638	0.000130
1673	1.6636e+02	-6.6937	-63.385050	0.000405	4.053307	0.686649	0.000081
1674	1.6646e+02	-6.6739	-63.320455	0.000324	3.242646	0.549319	0.000065
1675	1.6656e+02	-6.6527	-63.187230	0.000669	6.687957	1.132971	0.000134
1676	1.6666e+02	-6.6327	-63.098413	0.000446	4.458638	0.755314	0.000089
1677	1.6676e+02	-6.6127	-63.045930	0.000263	2.634650	0.446322	0.000053
1678	1.6686e+02	-6.5936	-62.888482	0.000790	7.903950	1.338965	0.000158
1679	1.6696e+02	-6.5742	-62.795628	0.000466	4.661304	0.789646	0.000093
1680	1.6706e+02	-6.5533	-62.686625	0.000547	5.471965	0.926976	0.000110
1681	1.6716e+02	-6.5342	-62.601845	0.000426	4.255973	0.720981	0.000085
1682	1.6726e+02	-6.5140	-62.488806	0.000567	5.674630	0.961308	0.000114
1683	1.6736e+02	-6.4932	-62.428248	0.000304	3.039981	0.514987	0.000061
1684	1.6746e+02	-6.4738	-62.331357	0.000486	4.863969	0.823979	0.000097
1685	1.6756e+02	-6.4532	-62.169872	0.000811	8.106615	1.373298	0.000162
1686	1.6766e+02	-6.4352	-62.149686	0.000101	1.013327	0.171662	0.000020
1687	1.6776e+02	-6.4139	-62.020498	0.000649	6.485292	1.098638	0.000130
1688	1.6786e+02	-6.3940	-61.935718	0.000426	4.255973	0.720981	0.000085
1689	1.6796e+02	-6.3744	-61.778270	0.000790	7.903950	1.338965	0.000158
1690	1.6806e+02	-6.3550	-61.701564	0.000385	3.850642	0.652316	0.000077
1691	1.6816e+02	-6.3345	-61.620821	0.000405	4.053307	0.686649	0.000081
1692	1.6825e+02	-6.3141	-61.483559	0.000689	6.890623	1.167303	0.000138
1693	1.6835e+02	-6.2952	-61.398779	0.000426	4.255973	0.720981	0.000085
1694	1.6845e+02	-6.2747	-61.297850	0.000507	5.066634	0.858311	0.000101
1695	1.6855e+02	-6.2550	-61.192885	0.000527	5.269300	0.892644	0.000105
1696	1.6865e+02	-6.2347	-61.116179	0.000385	3.850642	0.652316	0.000077
1697	1.6875e+02	-6.2149	-60.978917	0.000689	6.890623	1.167303	0.000138
1698	1.6885e+02	-6.1952	-60.873951	0.000527	5.269300	0.892644	0.000105
1699	1.6895e+02	-6.1752	-60.768986	0.000527	5.269300	0.892644	0.000105
1700	1.6905e+02	-6.1551	-60.668057	0.000507	5.066634	0.858311	0.000101
1701	1.6915e+02	-6.1356	-60.559055	0.000547	5.471965	0.926976	0.000110
1702	1.6925e+02	-6.1153	-60.470238	0.000446	4.458638	0.755314	0.000089
1703	1.6935e+02	-6.0953	-60.353161	0.000588	5.877296	0.995641	0.000118
1704	1.6945e+02	-6.0764	-60.292604	0.000304	3.039981	0.514987	0.000061
1705	1.6955e+02	-6.0559	-60.159378	0.000669	6.687957	1.132971	0.000134
1706	1.6965e+02	-6.0361	-60.066524	0.000466	4.661304	0.789646	0.000093
1707	1.6975e+02	-6.0153	-59.937336	0.000649	6.485292	1.098638	0.000130
1708	1.6985e+02	-5.9953	-59.864667	0.000365	3.647977	0.617984	0.000073
1709	1.6995e+02	-5.9766	-59.747590	0.000588	5.877296	0.995641	0.000118
1710	1.7005e+02	-5.9566	-59.642625	0.000527	5.269300	0.892644	0.000105
1711	1.7015e+02	-5.9362	-59.513436	0.000649	6.485292	1.098638	0.000130
1712	1.7024e+02	-5.9172	-59.428657	0.000426	4.255973	0.720981	0.000085
1713	1.7034e+02	-5.8959	-59.303505	0.000628	6.282627	1.064306	0.000126
1714	1.7044e+02	-5.8765	-59.198540	0.000527	5.269300	0.892644	0.000105
1715	1.7054e+02	-5.8563	-59.093574	0.000527	5.269300	0.892644	0.000105
1716	1.7064e+02	-5.8359	-58.996683	0.000486	4.863969	0.823979	0.000097
1717	1.7074e+02	-5.8177	-58.839235	0.000790	7.903950	1.338965	0.000158
1718	1.7084e+02	-5.7963	-58.746381	0.000466	4.661304	0.789646	0.000093
1719	1.7094e+02	-5.7764	-58.633341	0.000567	5.674630	0.961308	0.000114
1720	1.7104e+02	-5.7568	-58.544524	0.000446	4.458638	0.755314	0.000089
1721	1.7114e+02	-5.7376	-58.411298	0.000669	6.687957	1.132971	0.000134
1722	1.7124e+02	-5.7174	-58.346704	0.000324	3.242646	0.549319	0.000065
1723	1.7134e+02	-5.6970	-58.241739	0.000527	5.269300	0.892644	0.000105
1724	1.7144e+02	-5.6766	-58.144847	0.000486	4.863969	0.823979	0.000097
1725	1.7154e+02	-5.6573	-57.983362	0.000811	8.106615	1.373298	0.000162
1726	1.7164e+02	-5.6389	-57.898582	0.000426	4.255973	0.720981	0.000085
1727	1.7174e+02	-5.6173	-57.761320	0.000689	6.890623	1.167303	0.000138
1728	1.7184e+02	-5.5974	-57.684614	0.000385	3.850642	0.652316	0.000077
1729	1.7194e+02	-5.5765	-57.519091	0.000831	8.309280	1.407630	0.000166
1730	1.7204e+02	-5.5571	-57.462572	0.000284	2.837315	0.480654	0.000057
1731	1.7213e+02	-5.5383	-57.313198	0.000750	7.498619	1.270300	0.000150
1732	1.7223e+02	-5.5171	-57.167861	0.000730	7.295953	1.235968	0.000146
1733	1.7233e+02	-5.4976	-57.131526	0.000182	1.823988	0.308992	0.000037
1734	1.7243e+02	-5.4785	-57.014449	0.000588	5.877296	0.995641	0.000118
1735	1.7253e+02	-5.4582	-56.857001	0.000790	7.903950	1.338965	0.000158
1736	1.7263e+02	-5.4382	-56.752036	0.000527	5.269300	0.892644	0.000105
1737	1.7273e+02	-5.4175	-56.683404	0.000345	3.445311	0.583652	0.000069
1738	1.7283e+02	-5.3973	-56.582476	0.000507	5.066634	0.858311	0.000101
1739	1.7293e+02	-5.3781	-56.437139	0.000730	7.295953	1.235968	0.000146
1740	1.7303e+02	-5.3583	-56.303914	0.000669	6.687957	1.132971	0.000134
1741	1.7313e+02	-5.3375	-56.207022	0.000486	4.863969	0.823979	0.000097
1742	1.7323e+02	-5.3179	-56.093983	0.000567	5.674630	0.961308	0.000114
1743	1.7333e+02	-5.2985	-55.989017	0.000527	5.269300	0.892644	0.000105
1744	1.7343e+02	-5.2783	-55.867903	0.000608	6.079961	1.029973	0.000122
1745	1.7353e+02	-5.2583	-55.750826	0.000588	5.877296	0.995641	0.000118
1746	1.7363e+02	-5.2388	-55.629712	0.000608	6.079961	1.029973	0.000122
1747	1.7373e+02	-5.2181	-55.532821	0.000486	4.863969	0.823979	0.000097
1748	1.7383e+02	-5.1984	-55.439967	0.000466	4.661304	0.789646	0.000093
1749	1.7393e+02	-5.1787	-55.294630	0.000730	7.295953	1.235968	0.000146
1750	1.7403e+02	-5.1588	-55.181590	0.000567	5.674630	0.961308	0.000114
1751	1.7413e+02	-5.1394	-55.040290	0.000709	7.093288	1.201636	0.000142
1752	1.7422e+02	-5.1187	-54.923213	0.000588	5.877296	0.995641	0.000118
1753	1.7432e+02	-5.0992	-54.830359	0.000466	4.661304	0.789646	0.000093
1754	1.7442e+02	-5.0784	-54.709245	0.000608	6.079961	1.029973	0.000122
1755	1.7452e+02	-5.0586	-54.567945	0.000709	7.093288	1.201636	0.000142
1756	1.7462e+02	-5.0388	-54.450868	0.000588	5.877296	0.995641	0.000118
1757	1.7472e+02	-5.0201	-54.345903	0.000527	5.269300	0.892644	0.000105
1758	1.7482e+02	-5.0000	-54.253049	0.000466	4.661304	0.789646	0.000093
1759	1.7492e+02	-4.9795	-54.140009	0.000567	5.674630	0.961308	0.000114
1760	1.7502e+02	-4.9594	-53.990635	0.000750	7.498619	1.270300	0.000150
1761	1.7512e+02	-4.9405	-53.865484	0.000628	6.282627	1.064306	0.000126
1762	1.7522e+02	-4.9199	-53.736295	0.000649	6.485292	1.098638	0.000130
1763	1.7532e+02	-4.9002	-53.647478	0.000446	4.458638	0.755314	0.000089
1764	1.7542e+02	-4.8801	-53.490030	0.000790	7.903950	1.338965	0.000158
1765	1.7552e+02	-4.8602	-53.397176	0.000466	4.661304	0.789646	0.000093
1766	1.7562e+02	-4.8405	-53.308359	0.000446	4.458638	0.755314	0.000089
1767	1.7572e+02	-4.8209	-53.142836	0.000831	8.309280	1.407630	0.000166
1768	1.7582e+02	-4.8006	-53.021722	0.000608	6.079961	1.029973	0.000122
1769	1.7592e+02	-4.7803	-52.908682	0.000567	5.674630	0.961308	0.000114
1770	1.7602e+02	-4.7611	-52.803717	0.000527	5.269300	0.892644	0.000105
1771	1.7612e+02	-4.7408	-52.630120	0.000871	8.714611	1.476295	0.000174
1772	1.7621e+02	-4.7218	-52.529192	0.000507	5.066634	0.858311	0.000101
1773	1.7631e+02	-4.7009	-52.416152	0.000567	5.674630	0.961308	0.000114
1774	1.7641e+02	-4.6814	-52.291001	0.000628	6.282627	1.064306	0.000126
1775	1.7651e+02	-4.6616	-52.145664	0.000730	7.295953	1.235968	0.000146
1776	1.7661e+02	-4.6416	-52.020513	0.000628	6.282627	1.064306	0.000126
1777	1.7671e+02	-4.6219	-51.883250	0.000689	6.890623	1.167303	0.000138
1778	1.7681e+02	-4.6017	-51.754062	0.000649	6.485292	1.098638	0.000130
1779	1.7691e+02	-4.5822	-51.645059	0.000547	5.471965	0.926976	0.000110
1780	1.7701e+02	-4.5615	-51.495685	0.000750	7.498619	1.270300	0.000150
1781	1.7711e+02	-4.5415	-51.382645	0.000567	5.674630	0.961308	0.000114
1782	1.7721e+02	-4.5213	-51.205011	0.000892	8.917276	1.510628	0.000179
1783	1.7731e+02	-4.5017	-51.096008	0.000547	5.471965	0.926976	0.000110
1784	1.7741e+02	-4.4818	-50.999117	0.000486	4.863969	0.823979	0.000097
1785	1.7751e+02	-4.4603	-50.894152	0.000527	5.269300	0.892644	0.000105
1786	1.7761e+02	-4.4424	-50.740741	0.000770	7.701284	1.304633	0.000154
1787	1.7771e+02	-4.4214	-50.603478	0.000689	6.890623	1.167303	0.000138
1788	1.7781e+02	-4.4023	-50.490438	0.000567	5.674630	0.961308	0.000114
1789	1.7791e+02	-4.3822	-50.337027	0.000770	7.701284	1.304633	0.000154
1790	1.7801e+02	-4.3616	-50.219950	0.000588	5.877296	0.995641	0.000118
1791	1.7810e+02	-4.3423	-50.106910	0.000567	5.674630	0.961308	0.000114
1792	1.7820e+02	-4.3211	-49.941388	0.000831	8.309280	1.407630	0.000166
1793	1.7830e+02	-4.3018	-49.844496	0.000486	4.863969	0.823979	0.000097
1794	1.7840e+02	-4.2835	-49.707234	0.000689	6.890623	1.167303	0.000138
1795	1.7850e+02	-4.2621	-49.569971	0.000689	6.890623	1.167303	0.000138
1796	1.7860e+02	-4.2432	-49.424634	0.000730	7.295953	1.235968	0.000146
1797	1.7870e+02	-4.2223	-49.331780	0.000466	4.661304	0.789646	0.000093
1798	1.7880e+02	-4.2030	-49.210666	0.000608	6.079961	1.029973	0.000122
1799	1.7890e+02	-4.1827	-49.061292	0.000750	7.498619	1.270300	0.000150
1800	1.7900e+02	-4.1632	-48.944215	0.000588	5.877296	0.995641	0.000118
1801	1.7910e+02	-4.1434	-48.802915	0.000709	7.093288	1.201636	0.000142
1802	1.7920e+02	-4.1235	-48.701987	0.000507	5.066634	0.858311	0.000101
1803	1.7930e+02	-4.1026	-48.548576	0.000770	7.701284	1.304633	0.000154
1804	1.7940e+02	-4.0822	-48.403239	0.000730	7.295953	1.235968	0.000146
1805	1.7950e+02	-4.0622	-48.278088	0.000628	6.282627	1.064306	0.000126
1806	1.7960e+02	-4.0434	-48.112565	0.000831	8.309280	1.407630	0.000166
1807	1.7970e+02	-4.0233	-47.983377	0.000649	6.485292	1.098638	0.000130
1808	1.7980e+02	-4.0039	-47.882448	0.000507	5.066634	0.858311	0.000101
1809	1.7990e+02	-3.9837	-47.745186	0.000689	6.890623	1.167303	0.000138
1810	1.8000e+02	-3.9629	-47.648295	0.000486	4.863969	0.823979	0.000097
1811	1.8009e+02	-3.9442	-47.494883	0.000770	7.701284	1.304633	0.000154
1812	1.8019e+02	-3.9236	-47.365695	0.000649	6.485292	1.098638	0.000130
1813	1.8029e+02	-3.9041	-47.248618	0.000588	5.877296	0.995641	0.000118
1814	1.8039e+02	-3.8837	-47.095207	0.000770	7.701284	1.304633	0.000154
1815	1.8049e+02	-3.8634	-46.949870	0.000730	7.295953	1.235968	0.000146
1816	1.8059e+02	-3.8440	-46.808570	0.000709	7.093288	1.201636	0.000142
1817	1.8069e+02	-3.8232	-46.679382	0.000649	6.485292	1.098638	0.000130
1818	1.8079e+02	-3.8049	-46.578454	0.000507	5.066634	0.858311	0.000101
1819	1.8089e+02	-3.7839	-46.425042	0.000770	7.701284	1.304633	0.000154
1820	1.8099e+02	-3.7640	-46.295854	0.000649	6.485292	1.098638	0.000130
1821	1.8109e+02	-3.7457	-46.142443	0.000770	7.701284	1.304633	0.000154
1822	1.8119e+02	-3.7251	-46.025366	0.000588	5.877296	0.995641	0.000118
1823	1.8129e+02	-3.7038	-45.839658	0.000932	9.322607	1.579292	0.000187
1824	1.8139e+02	-3.6851	-45.726618	0.000567	5.674630	0.961308	0.000114
1825	1.8149e+02	-3.6649	-45.617615	0.000547	5.471965	0.926976	0.000110
1826	1.8159e+02	-3.6452	-45.480353	0.000689	6.890623	1.167303	0.000138
1827	1.8169e+02	-3.6246	-45.310793	0.000851	8.511946	1.441963	0.000170
1828	1.8179e+02	-3.6057	-45.173530	0.000689	6.890623	1.167303	0.000138
1829	1.8189e+02	-3.5849	-45.076639	0.000486	4.863969	0.823979	0.000097
1830	1.8199e+02	-3.5648	-44.931302	0.000730	7.295953	1.235968	0.000146
1831	1.8209e+02	-3.5455	-44.741557	0.000953	9.525273	1.613625	0.000191
1832	1.8218e+02	-3.5255	-44.632554	0.000547	5.471965	0.926976	0.000110
1833	1.8228e+02	-3.5049	-44.467032	0.000831	8.309280	1.407630	0.000166
1834	1.8238e+02	-3.4853	-44.321695	0.000730	7.295953	1.235968	0.000146
1835	1.8248e+02	-3.4654	-44.180395	0.000709	7.093288	1.201636	0.000142
1836	1.8258e+02	-3.4460	-44.091578	0.000446	4.458638	0.755314	0.000089
1837	1.8268e+02	-3.4259	-43.954315	0.000689	6.890623	1.167303	0.000138
1838	1.8278e+02	-3.4059	-43.780719	0.000871	8.714611	1.476295	0.000174
1839	1.8288e+02	-3.3861	-43.659604	0.000608	6.079961	1.029973	0.000122
1840	1.8298e+02	-3.3653	-43.506193	0.000770	7.701284	1.304633	0.000154
1841	1.8308e+02	-3.3447	-43.372968	0.000669	6.687957	1.132971	0.000134
1842	1.8318e+02	-3.3268	-43.231668	0.000709	7.093288	1.201636	0.000142
1843	1.8328e+02	-3.3060	-43.126703	0.000527	5.269300	0.892644	0.000105
1844	1.8338e+02	-3.2865	-42.945031	0.000912	9.119942	1.544960	0.000183
1845	1.8348e+02	-3.2659	-42.840066	0.000527	5.269300	0.892644	0.000105
1846	1.8358e+02	-3.2463	-42.698766	0.000709	7.093288	1.201636	0.000142
1847	1.8368e+02	-3.2257	-42.533244	0.000831	8.309280	1.407630	0.000166
1848	1.8378e+02	-3.2051	-42.436352	0.000486	4.863969	0.823979	0.000097
1849	1.8388e+02	-3.1866	-42.278904	0.000790	7.903950	1.338965	0.000158
1850	1.8398e+02	-3.1664	-42.125493	0.000770	7.701284	1.304633	0.000154
1851	1.8407e+02	-3.1462	-41.988230	0.000689	6.890623	1.167303	0.000138
1852	1.8417e+02	-3.1261	-41.850968	0.000689	6.890623	1.167303	0.000138
1853	1.8427e+02	-3.1069	-41.713705	0.000689	6.890623	1.167303	0.000138
1854	1.8437e+02	-3.0882	-41.572405	0.000709	7.093288	1.201636	0.000142
1855	1.8447e+02	-3.0663	-41.423031	0.000750	7.498619	1.270300	0.000150
1856	1.8457e+02	-3.0479	-41.334214	0.000446	4.458638	0.755314	0.000089
1857	1.8467e+02	-3.0272	-41.144469	0.000953	9.525273	1.613625	0.000191
1858	1.8477e+02	-3.0075	-41.023355	0.000608	6.079961	1.029973	0.000122
1859	1.8487e+02	-2.9874	-40.869944	0.000770	7.701284	1.304633	0.000154
1860	1.8497e+02	-2.9672	-40.732681	0.000689	6.890623	1.167303	0.000138
1861	1.8507e+02	-2.9475	-40.583307	0.000750	7.498619	1.270300	0.000150
1862	1.8517e+02	-2.9276	-40.458156	0.000628	6.282627	1.064306	0.000126
1863	1.8527e+02	-2.9076	-40.300708	0.000790	7.903950	1.338965	0.000158
1864	1.8537e+02	-2.8870	-40.175556	0.000628	6.282627	1.064306	0.000126
1865	1.8547e+02	-2.8668	-40.026182	0.000750	7.498619	1.270300	0.000150
1866	1.8557e+02	-2.8474	-39.860660	0.000831	8.309280	1.407630	0.000166
1867	1.8567e+02	-2.8282	-39.723397	0.000689	6.890623	1.167303	0.000138
1868	1.8577e+02	-2.8081	-39.622469	0.000507	5.066634	0.858311	0.000101
1869	1.8587e+02	-2.7879	-39.432723	0.000953	9.525273	1.613625	0.000191
1870	1.8597e+02	-2.7676	-39.327758	0.000527	5.269300	0.892644	0.000105
1871	1.8606e+02	-2.7478	-39.174347	0.000770	7.701284	1.304633	0.000154
1872	1.8616e+02	-2.7283	-39.000750	0.000871	8.714611	1.476295	0.000174
1873	1.8626e+02	-2.7084	-38.879636	0.000608	6.079961	1.029973	0.000122
1874	1.8636e+02	-2.6880	-38.766596	0.000567	5.674630	0.961308	0.000114
1875	1.8646e+02	-2.6677	-38.556665	0.001054	10.538599	1.785287	0.000211
1876	1.8656e+02	-2.6483	-38.427477	0.000649	6.485292	1.098638	0.000130
1877	1.8666e+02	-2.6288	-38.322511	0.000527	5.269300	0.892644	0.000105
1878	1.8676e+02	-2.6077	-38.156988	0.000831	8.309280	1.407630	0.000166
1879	1.8686e+02	-2.5881	-37.971280	0.000932	9.322607	1.579292	0.000187
1880	1.8696e+02	-2.5689	-37.846129	0.000628	6.282627	1.064306	0.000126
1881	1.8706e+02	-2.5478	-37.704829	0.000709	7.093288	1.201636	0.000142
1882	1.8716e+02	-2.5279	-37.543344	0.000811	8.106615	1.373298	0.000162
1883	1.8726e+02	-2.5096	-37.369747	0.000871	8.714611	1.476295	0.000174
1884	1.8736e+02	-2.4893	-37.272856	0.000486	4.863969	0.823979	0.000097
1885	1.8746e+02	-2.4698	-37.079073	0.000973	9.727938	1.647957	0.000195
1886	1.8756e+02	-2.4496	-37.002368	0.000385	3.850642	0.652316	0.000077
1887	1.8766e+02	-2.4301	-36.820696	0.000912	9.119942	1.544960	0.000183
1888	1.8776e+02	-2.4101	-36.659211	0.000811	8.106615	1.373298	0.000162
1889	1.8786e+02	-2.3891	-36.509837	0.000750	7.498619	1.270300	0.000150
1890	1.8796e+02	-2.3708	-36.348352	0.000811	8.106615	1.373298	0.000162
1891	1.8806e+02	-2.3505	-36.215126	0.000669	6.687957	1.132971	0.000134
1892	1.8815e+02	-2.3299	-36.061715	0.000770	7.701284	1.304633	0.000154
1893	1.8825e+02	-2.3093	-35.892155	0.000851	8.511946	1.441963	0.000170
1894	1.8835e+02	-2.2901	-35.734707	0.000790	7.903950	1.338965	0.000158
1895	1.8845e+02	-2.2703	-35.605519	0.000649	6.485292	1.098638	0.000130
1896	1.8855e+02	-2.2499	-35.448070	0.000790	7.903950	1.338965	0.000158
1897	1.8865e+02	-2.2297	-35.274474	0.000871	8.714611	1.476295	0.000174
1898	1.8875e+02	-2.2106	-35.133174	0.000709	7.093288	1.201636	0.000142
1899	1.8885e+02	-2.1909	-35.012060	0.000608	6.079961	1.029973	0.000122
1900	1.8895e+02	-2.1703	-34.838463	0.000871	8.714611	1.476295	0.000174
1901	1.8905e+02	-2.1507	-34.701200	0.000689	6.890623	1.167303	0.000138
1902	1.8915e+02	-2.1301	-34.563938	0.000689	6.890623	1.167303	0.000138
1903	1.8925e+02	-2.1114	-34.426675	0.000689	6.890623	1.167303	0.000138
1904	1.8935e+02	-2.0898	-34.196558	0.001155	11.551926	1.956949	0.000231
1905	1.8945e+02	-2.0709	-34.071407	0.000628	6.282627	1.064306	0.000126
1906	1.8955e+02	-2.0508	-33.922033	0.000750	7.498619	1.270300	0.000150
1907	1.8965e+02	-2.0306	-33.748436	0.000871	8.714611	1.476295	0.000174
1908	1.8975e+02	-2.0111	-33.631359	0.000588	5.877296	0.995641	0.000118
1909	1.8985e+02	-1.9903	-33.469874	0.000811	8.106615	1.373298	0.000162
1910	1.8995e+02	-1.9709	-33.284166	0.000932	9.322607	1.579292	0.000187
1911	1.9004e+02	-1.9519	-33.150940	0.000669	6.687957	1.132971	0.000134
1912	1.9014e+02	-1.9315	-33.005603	0.000730	7.295953	1.235968	0.000146
1913	1.9024e+02	-1.9115	-32.836044	0.000851	8.511946	1.441963	0.000170
1914	1.9034e+02	-1.8919	-32.686670	0.000750	7.498619	1.270300	0.000150
1915	1.9044e+02	-1.8715	-32.537295	0.000750	7.498619	1.270300	0.000150
1916	1.9054e+02	-1.8515	-32.412144	0.000628	6.282627	1.064306	0.000126
1917	1.9064e+02	-1.8318	-32.230473	0.000912	9.119942	1.544960	0.000183
1918	1.9074e+02	-1.8121	-32.077062	0.000770	7.701284	1.304633	0.000154
1919	1.9084e+02	-1.7923	-31.899428	0.000892	8.917276	1.510628	0.000179
1920	1.9094e+02	-1.7714	-31.737943	0.000811	8.106615	1.373298	0.000162
1921	1.9104e+02	-1.7525	-31.604717	0.000669	6.687957	1.132971	0.000134
1922	1.9114e+02	-1.7318	-31.451306	0.000770	7.701284	1.304633	0.000154
1923	1.9124e+02	-1.7119	-31.281746	0.000851	8.511946	1.441963	0.000170
1924	1.9134e+02	-1.6913	-31.136409	0.000730	7.295953	1.235968	0.000146
1925	1.9144e+02	-1.6721	-30.954738	0.000912	9.119942	1.544960	0.000183
1926	1.9154e+02	-1.6525	-30.813439	0.000709	7.093288	1.201636	0.000142
1927	1.9164e+02	-1.6323	-30.623693	0.000953	9.525273	1.613625	0.000191
1928	1.9174e+02	-1.6119	-30.474319	0.000750	7.498619	1.270300	0.000150
1929	1.9184e+02	-1.5927	-30.316871	0.000790	7.903950	1.338965	0.000158
1930	1.9194e+02	-1.5736	-30.179608	0.000689	6.890623	1.167303	0.000138
1931	1.9203e+02	-1.5527	-29.977751	0.001013	10.133269	1.716622	0.000203
1932	1.9213e+02	-1.5334	-29.816266	0.000811	8.106615	1.373298	0.000162
1933	1.9223e+02	-1.5123	-29.666892	0.000750	7.498619	1.270300	0.000150
1934	1.9233e+02	-1.4926	-29.505407	0.000811	8.106615	1.373298	0.000162
1935	1.9243e+02	-1.4726	-29.335847	0.000851	8.511946	1.441963	0.000170
1936	1.9253e+02	-1.4538	-29.133990	0.001013	10.133269	1.716622	0.000203
1937	1.9263e+02	-1.4333	-29.004802	0.000649	6.485292	1.098638	0.000130
1938	1.9273e+02	-1.4128	-28.859465	0.000730	7.295953	1.235968	0.000146
1939	1.9283e+02	-1.3932	-28.689905	0.000851	8.511946	1.441963	0.000170
1940	1.9293e+02	-1.3731	-28.516308	0.000871	8.714611	1.476295	0.000174
1941	1.9303e+02	-1.3530	-28.338674	0.000892	8.917276	1.510628	0.000179
1942	1.9313e+02	-1.3336	-28.181226	0.000790	7.903950	1.338965	0.000158
1943	1.9323e+02	-1.3130	-28.007629	0.000871	8.714611	1.476295	0.000174
1944	1.9333e+02	-1.2926	-27.858255	0.000750	7.498619	1.270300	0.000150
1945	1.9343e+02	-1.2732	-27.700807	0.000790	7.903950	1.338965	0.000158
1946	1.9353e+02	-1.2536	-27.519136	0.000912	9.119942	1.544960	0.000183
1947	1.9363e+02	-1.2334	-27.357650	0.000811	8.106615	1.373298	0.000162
1948	1.9373e+02	-1.2146	-27.135608	0.001115	11.146596	1.888284	0.000223
1949	1.9383e+02	-1.1938	-27.014494	0.000608	6.079961	1.029973	0.000122
1950	1.9393e+02	-1.1740	-26.824748	0.000953	9.525273	1.613625	0.000191
1951	1.9403e+02	-1.1546	-26.659226	0.000831	8.309280	1.407630	0.000166
1952	1.9412e+02	-1.1345	-26.517926	0.000709	7.093288	1.201636	0.000142
1953	1.9422e+02	-1.1142	-26.348366	0.000851	8.511946	1.441963	0.000170
1954	1.9432e+02	-1.0940	-26.158621	0.000953	9.525273	1.613625	0.000191
1955	1.9442e+02	-1.0738	-26.021358	0.000689	6.890623	1.167303	0.000138
1956	1.9452e+02	-1.0552	-25.855836	0.000831	8.309280	1.407630	0.000166
1957	1.9462e+02	-1.0342	-25.658016	0.000993	9.930603	1.682290	0.000199
1958	1.9472e+02	-1.0167	-25.512679	0.000730	7.295953	1.235968	0.000146
1959	1.9482e+02	-0.9950	-25.343120	0.000851	8.511946	1.441963	0.000170
1960	1.9492e+02	-0.9750	-25.133189	0.001054	10.538599	1.785287	0.000211
1961	1.9502e+02	-0.9549	-25.008037	0.000628	6.282627	1.064306	0.000126
1962	1.9512e+02	-0.9357	-24.822329	0.000932	9.322607	1.579292	0.000187
1963	1.9522e+02	-0.9149	-24.644695	0.000892	8.917276	1.510628	0.000179
1964	1.9532e+02	-0.8947	-24.515507	0.000649	6.485292	1.098638	0.000130
1965	1.9542e+02	-0.8761	-24.345947	0.000851	8.511946	1.441963	0.000170
1966	1.9552e+02	-0.8568	-24.172350	0.000871	8.714611	1.476295	0.000174
1967	1.9562e+02	-0.8354	-23.990679	0.000912	9.119942	1.544960	0.000183
1968	1.9572e+02	-0.8147	-23.845342	0.000730	7.295953	1.235968	0.000146
1969	1.9582e+02	-0.7956	-23.643485	0.001013	10.133269	1.716622	0.000203
1970	1.9592e+02	-0.7753	-23.473926	0.000851	8.511946	1.441963	0.000170
1971	1.9601e+02	-0.7561	-23.292255	0.000912	9.119942	1.544960	0.000183
1972	1.9611e+02	-0.7365	-23.098472	0.000973	9.727938	1.647957	0.000195
1973	1.9621e+02	-0.7169	-22.985432	0.000567	5.674630	0.961308	0.000114
1974	1.9631e+02	-0.6959	-22.811835	0.000871	8.714611	1.476295	0.000174
1975	1.9641e+02	-0.6757	-22.646313	0.000831	8.309280	1.407630	0.000166
1976	1.9651e+02	-0.6564	-22.448493	0.000993	9.930603	1.682290	0.000199
1977	1.9661e+02	-0.6371	-22.315268	0.000669	6.687957	1.132971	0.000134
1978	1.9671e+02	-0.6158	-22.093225	0.001115	11.146596	1.888284	0.000223
1979	1.9681e+02	-0.5960	-21.968074	0.000628	6.282627	1.064306	0.000126
1980	1.9691e+02	-0.5758	-21.778329	0.000953	9.525273	1.613625	0.000191
1981	1.9701e+02	-0.5560	-21.604732	0.000871	8.714611	1.476295	0.000174
1982	1.9711e+02	-0.5362	-21.439209	0.000831	8.309280	1.407630	0.000166
1983	1.9721e+02	-0.5167	-21.253501	0.000932	9.322607	1.579292	0.000187
1984	1.9731e+02	-0.4961	-21.132387	0.000608	6.079961	1.029973	0.000122
1985	1.9741e+02	-0.4767	-20.926493	0.001034	10.335934	1.750955	0.000207
1986	1.9751e+02	-0.4570	-20.756933	0.000851	8.511946	1.441963	0.000170
1987	1.9761e+02	-0.4366	-20.583337	0.000871	8.714611	1.476295	0.000174
1988	1.9771e+02	-0.4175	-20.413777	0.000851	8.511946	1.441963	0.000170
1989	1.9781e+02	-0.3967	-20.244217	0.000851	8.511946	1.441963	0.000170
1990	1.9791e+02	-0.3775	-20.050435	0.000973	9.727938	1.647957	0.000195
1991	1.9800e+02	-0.3571	-19.860689	0.000953	9.525273	1.613625	0.000191
1992	1.9810e+02	-0.3368	-19.695167	0.000831	8.309280	1.407630	0.000166
1993	1.9820e+02	-0.3174	-19.533681	0.000811	8.106615	1.373298	0.000162
1994	1.9830e+02	-0.2969	-19.352010	0.000912	9.119942	1.544960	0.000183
1995	1.9840e+02	-0.2778	-19.162265	0.000953	9.525273	1.613625	0.000191
1996	1.9850e+02	-0.2576	-19.029039	0.000669	6.687957	1.132971	0.000134
1997	1.9860e+02	-0.2375	-18.871591	0.000790	7.903950	1.338965	0.000158
1998	1.9870e+02	-0.2164	-18.677808	0.000973	9.727938	1.647957	0.000195
1999	1.9880e+02	-0.1975	-18.504212	0.000871	8.714611	1.476295	0.000174
2000	1.9890e+02	-0.1778	-18.326578	0.000892	8.917276	1.510628	0.000179
2001	1.9900e+02	-0.1578	-18.148944	0.000892	8.917276	1.510628	0.000179
2002	1.9910e+02	-0.1367	-17.983421	0.000831	8.309280	1.407630	0.000166
2003	1.9920e+02	-0.1181	-17.838084	0.000730	7.295953	1.235968	0.000146
2004	1.9930e+02	-0.0979	-17.652376	0.000932	9.322607	1.579292	0.000187
2005	1.9940e+02	-0.0778	-17.507039	0.000730	7.295953	1.235968	0.000146
2006	1.9950e+02	-0.0584	-17.309219	0.000993	9.930603	1.682290	0.000199
2007	1.9960e+02	-0.0381	-17.151771	0.000790	7.903950	1.338965	0.000158
2008	1.9970e+02	-0.0172	-16.949914	0.001013	10.133269	1.716622	0.000203
2009	1.9980e+02	0.0000	-16.764206	0.001013	10.133269	1.716622	0.000187

Smooth data before PMax, +/-Pr and +/-Vc Calc.

PMax (uC/cm2):	6.92e+01
Pr (uC/cm2):	8.15e+00
-Pr (uC/cm2):	-2.16e+01
PLoss (uC/cm2):	-2.17e+01
-Vc:	-9.54e-01
C (Max-Eff) (nF):	6.92e-01
K (Eff):	1.17e+03
Vert. (+/-Pr) Shift (uC/cm2):	-6.73e+00
Offset (uC/cm2):	-4.78e+00

A (Loop Area - uC/cm2·Volts):	-3.27e-02



Hysteresis Version: 5.48.1 - Radiant Technologies, Inc., 1999 - 9/12/24

