»»»»»»»»»»»»»»»»»»»»»»»»»»»»»»»»»»»» Hysteresis ««««««««««««««««««««««««««««««««««««
»»»  Executed Version:	5.48.1
»»»  Vision Version:	5.48.4 (R)
»»»  Vision Compiled:	9/18/24
»»»  Driver Version:	5.47.0
»»»  Windows Version:	Windows 8 or 8.1
»»»  Processor Information:	x86 (AMD or Intel) - 32 Processors
»»»  Tester Name:	PMF21124-494 (100V)
»»»  Tester S/N:	PMF21124-494
»»»  Internal Amp Type:	100V RevK 270k
»»»  Internal Amp S/N:	iAB2-596/K     
»»»  Execution Count:	1
»»»»»»»»»»»»»»»»»»»»»»»»»»»»»»»»»»»»»»»»»»««««««««««««««««««««««««««««««««««««««««««

Stored:	7/9/2025 - 14:11:15
Configured:	07/09/25 02:06:30 PM
Executed:	07/09/25 02:10:44 PM

»»»»»»»»»»»»»»»»»»»»»»»»»»»»»»»»»»» Sample Info ««««««««««««««««««««««««««««««««««««
Sample Name:	
Lot Name:	
Wafer Name:	
Die Row/Column:	0/0
Capacitor Number:	0
Sample Area (cm2):	1.00e-04
Sample Thickness (microns):	1.50e-01

Amplifier:	Internal

»»»»»»»»»»»»»»»»»»»»»»»»»»»»»»»»»»» Tester Info «««««««««««««««««««««««««««««««««««
Tester Name:	PMF21124-494 (100V)
Tester Serial Number:	PMF21124-494
Return Signal Amp. Level:	0.19 [Index: 3]

»»»»»»»»»»»»»»»»»»»»»»»»»»»»»»»» Hysteresis Info ««««««««««««««««««««««««««««««««««
Task Name:	Hyst-900
Volts:	10.00
Field:	666.67 (kV/cm)
DCBias:	0.00
DCField:	0.00 (kV/cm)
Hysteresis Period (ms):	2.00e+02
Preset:	Enabled
Preset Delay (ms):	1.00e+03
Profile:	Standard Bipolar

»»»»»»»»»»»»»»»»»»»»»»»»»»»»»»»»»»»»»» Data «««««««««««««««««««««««««««««««««««««««
Points:	2009

Valid Data

Point	Time (ms)	Drive Voltage	Measured Polarization (uC/cm2)	Capacitance (uF)	Normalized Capacitance (uF/cm2)	Dielectric Constant	Instantaneous Current (mA)
   1	0.0000e+00	0.0008	8.447707	0.000790	7.903829	1.338945	0.000158
   2	9.9500e-02	0.0205	8.605155	0.000790	7.903829	1.338945	0.000158
   3	1.9900e-01	0.0408	8.758566	0.000770	7.701167	1.304613	0.000154
   4	2.9850e-01	0.0600	8.924089	0.000831	8.309154	1.407609	0.000166
   5	3.9800e-01	0.0800	9.061351	0.000689	6.890518	1.167285	0.000138
   6	4.9750e-01	0.0999	9.222837	0.000811	8.106491	1.373277	0.000162
   7	5.9700e-01	0.1202	9.384322	0.000811	8.106491	1.373277	0.000162
   8	6.9650e-01	0.1399	9.549845	0.000831	8.309154	1.407609	0.000166
   9	7.9600e-01	0.1605	9.731516	0.000912	9.119803	1.544936	0.000183
  10	8.9550e-01	0.1790	9.856667	0.000628	6.282531	1.064290	0.000126
  11	9.9500e-01	0.2004	10.026227	0.000851	8.511816	1.441941	0.000170
  12	1.0945e+00	0.2194	10.127155	0.000507	5.066557	0.858298	0.000101
  13	1.1940e+00	0.2395	10.333049	0.001034	10.335776	1.750928	0.000207
  14	1.2935e+00	0.2597	10.490497	0.000790	7.903829	1.338945	0.000158
  15	1.3930e+00	0.2798	10.611611	0.000608	6.079868	1.029958	0.000122
  16	1.4925e+00	0.2996	10.813468	0.001013	10.133114	1.716596	0.000203
  17	1.5920e+00	0.3194	10.978991	0.000831	8.309154	1.407609	0.000166
  18	1.6915e+00	0.3385	11.104142	0.000628	6.282531	1.064290	0.000126
  19	1.7910e+00	0.3588	11.269664	0.000831	8.309154	1.407609	0.000166
  20	1.8905e+00	0.3789	11.415001	0.000730	7.295842	1.235949	0.000146
  21	1.9900e+00	0.3989	11.556301	0.000709	7.093180	1.201617	0.000142
  22	2.0895e+00	0.4182	11.762195	0.001034	10.335776	1.750928	0.000207
  23	2.1890e+00	0.4386	11.883309	0.000608	6.079868	1.029958	0.000122
  24	2.2885e+00	0.4585	12.060943	0.000892	8.917140	1.510604	0.000179
  25	2.3880e+00	0.4798	12.218391	0.000790	7.903829	1.338945	0.000158
  26	2.4875e+00	0.4983	12.367765	0.000750	7.498504	1.270281	0.000150
  27	2.5870e+00	0.5195	12.541362	0.000871	8.714478	1.476273	0.000174
  28	2.6865e+00	0.5396	12.718996	0.000892	8.917140	1.510604	0.000179
  29	2.7860e+00	0.5590	12.848184	0.000649	6.485193	1.098621	0.000130
  30	2.8855e+00	0.5778	13.041967	0.000973	9.727790	1.647932	0.000195
  31	2.9850e+00	0.5990	13.207490	0.000831	8.309154	1.407609	0.000166
  32	3.0845e+00	0.6184	13.360901	0.000770	7.701167	1.304613	0.000154
  33	3.1840e+00	0.6389	13.502200	0.000709	7.093180	1.201617	0.000142
  34	3.2835e+00	0.6574	13.671760	0.000851	8.511816	1.441941	0.000170
  35	3.3830e+00	0.6782	13.841320	0.000851	8.511816	1.441941	0.000170
  36	3.4825e+00	0.6973	13.994731	0.000770	7.701167	1.304613	0.000154
  37	3.5820e+00	0.7172	14.160254	0.000831	8.309154	1.407609	0.000166
  38	3.6815e+00	0.7375	14.313665	0.000770	7.701167	1.304613	0.000154
  39	3.7810e+00	0.7583	14.511484	0.000993	9.930452	1.682264	0.000199
  40	3.8805e+00	0.7774	14.636636	0.000628	6.282531	1.064290	0.000126
  41	3.9800e+00	0.7980	14.834455	0.000993	9.930452	1.682264	0.000199
  42	4.0795e+00	0.8178	14.967681	0.000669	6.687855	1.132953	0.000134
  43	4.1790e+00	0.8376	15.121092	0.000770	7.701167	1.304613	0.000154
  44	4.2785e+00	0.8588	15.306800	0.000932	9.322465	1.579268	0.000187
  45	4.3780e+00	0.8779	15.492508	0.000932	9.322465	1.579268	0.000187
  46	4.4775e+00	0.8964	15.629771	0.000689	6.890518	1.167285	0.000138
  47	4.5770e+00	0.9174	15.835665	0.001034	10.335776	1.750928	0.000207
  48	4.6765e+00	0.9370	15.960816	0.000628	6.282531	1.064290	0.000126
  49	4.7760e+00	0.9576	16.102116	0.000709	7.093180	1.201617	0.000142
  50	4.8755e+00	0.9766	16.360493	0.001297	12.970386	2.197243	0.000260
  51	4.9750e+00	0.9968	16.497755	0.000689	6.890518	1.167285	0.000138
  52	5.0745e+00	1.0175	16.675389	0.000892	8.917140	1.510604	0.000179
  53	5.1740e+00	1.0361	16.812652	0.000689	6.890518	1.167285	0.000138
  54	5.2735e+00	1.0577	16.998360	0.000932	9.322465	1.579268	0.000187
  55	5.3730e+00	1.0767	17.139660	0.000709	7.093180	1.201617	0.000142
  56	5.4725e+00	1.0967	17.317294	0.000892	8.917140	1.510604	0.000179
  57	5.5720e+00	1.1160	17.486853	0.000851	8.511816	1.441941	0.000170
  58	5.6715e+00	1.1369	17.632190	0.000730	7.295842	1.235949	0.000146
  59	5.7710e+00	1.1572	17.854233	0.001115	11.146425	1.888256	0.000223
  60	5.8705e+00	1.1759	18.023793	0.000851	8.511816	1.441941	0.000170
  61	5.9700e+00	1.1968	18.152981	0.000649	6.485193	1.098621	0.000130
  62	6.0695e+00	1.2160	18.334652	0.000912	9.119803	1.544936	0.000183
  63	6.1690e+00	1.2361	18.488063	0.000770	7.701167	1.304613	0.000154
  64	6.2685e+00	1.2560	18.685883	0.000993	9.930452	1.682264	0.000199
  65	6.3680e+00	1.2759	18.859480	0.000871	8.714478	1.476273	0.000174
  66	6.4675e+00	1.2955	19.012891	0.000770	7.701167	1.304613	0.000154
  67	6.5670e+00	1.3148	19.210710	0.000993	9.930452	1.682264	0.000199
  68	6.6665e+00	1.3351	19.335862	0.000628	6.282531	1.064290	0.000126
  69	6.7660e+00	1.3545	19.541756	0.001034	10.335776	1.750928	0.000207
  70	6.8655e+00	1.3749	19.707278	0.000831	8.309154	1.407609	0.000166
  71	6.9650e+00	1.3950	19.872801	0.000831	8.309154	1.407609	0.000166
  72	7.0645e+00	1.4146	20.042360	0.000851	8.511816	1.441941	0.000170
  73	7.1640e+00	1.4350	20.236143	0.000973	9.727790	1.647932	0.000195
  74	7.2635e+00	1.4542	20.377443	0.000709	7.093180	1.201617	0.000142
  75	7.3630e+00	1.4754	20.542965	0.000831	8.309154	1.407609	0.000166
  76	7.4625e+00	1.4938	20.720599	0.000892	8.917140	1.510604	0.000179
  77	7.5620e+00	1.5143	20.857862	0.000689	6.890518	1.167285	0.000138
  78	7.6615e+00	1.5343	21.035496	0.000892	8.917140	1.510604	0.000179
  79	7.7610e+00	1.5546	21.237353	0.001013	10.133114	1.716596	0.000203
  80	7.8605e+00	1.5752	21.423061	0.000932	9.322465	1.579268	0.000187
  81	7.9600e+00	1.5945	21.568398	0.000730	7.295842	1.235949	0.000146
  82	8.0595e+00	1.6138	21.725846	0.000790	7.903829	1.338945	0.000158
  83	8.1590e+00	1.6344	21.927703	0.001013	10.133114	1.716596	0.000203
  84	8.2585e+00	1.6541	22.105337	0.000892	8.917140	1.510604	0.000179
  85	8.3580e+00	1.6738	22.282971	0.000892	8.917140	1.510604	0.000179
  86	8.4575e+00	1.6943	22.436382	0.000770	7.701167	1.304613	0.000154
  87	8.5570e+00	1.7143	22.642276	0.001034	10.335776	1.750928	0.000207
  88	8.6565e+00	1.7337	22.791650	0.000750	7.498504	1.270281	0.000150
  89	8.7560e+00	1.7546	22.936987	0.000730	7.295842	1.235949	0.000146
  90	8.8555e+00	1.7730	23.118658	0.000912	9.119803	1.544936	0.000183
  91	8.9550e+00	1.7937	23.308403	0.000953	9.525127	1.613600	0.000191
  92	9.0545e+00	1.8139	23.486037	0.000892	8.917140	1.510604	0.000179
  93	9.1540e+00	1.8337	23.659634	0.000871	8.714478	1.476273	0.000174
  94	9.2535e+00	1.8536	23.833231	0.000871	8.714478	1.476273	0.000174
  95	9.3530e+00	1.8746	23.974531	0.000709	7.093180	1.201617	0.000142
  96	9.4525e+00	1.8938	24.140053	0.000831	8.309154	1.407609	0.000166
  97	9.5520e+00	1.9135	24.341910	0.001013	10.133114	1.716596	0.000203
  98	9.6515e+00	1.9331	24.487247	0.000730	7.295842	1.235949	0.000146
  99	9.7510e+00	1.9535	24.681029	0.000973	9.727790	1.647932	0.000195
 100	9.8505e+00	1.9727	24.862700	0.000912	9.119803	1.544936	0.000183
 101	9.9500e+00	1.9920	25.012074	0.000750	7.498504	1.270281	0.000150
 102	1.0050e+01	2.0116	25.173560	0.000811	8.106491	1.373277	0.000162
 103	1.0149e+01	2.0325	25.375417	0.001013	10.133114	1.716596	0.000203
 104	1.0248e+01	2.0529	25.540939	0.000831	8.309154	1.407609	0.000166
 105	1.0348e+01	2.0729	25.690313	0.000750	7.498504	1.270281	0.000150
 106	1.0447e+01	2.0927	25.835650	0.000730	7.295842	1.235949	0.000146
 107	1.0547e+01	2.1133	26.041544	0.001034	10.335776	1.750928	0.000207
 108	1.0646e+01	2.1315	26.223215	0.000912	9.119803	1.544936	0.000183
 109	1.0746e+01	2.1520	26.372589	0.000750	7.498504	1.270281	0.000150
 110	1.0845e+01	2.1722	26.570409	0.000993	9.930452	1.682264	0.000199
 111	1.0945e+01	2.1937	26.711709	0.000709	7.093180	1.201617	0.000142
 112	1.1044e+01	2.2118	26.905491	0.000973	9.727790	1.647932	0.000195
 113	1.1144e+01	2.2318	27.075051	0.000851	8.511816	1.441941	0.000170
 114	1.1243e+01	2.2520	27.232499	0.000790	7.903829	1.338945	0.000158
 115	1.1343e+01	2.2720	27.406096	0.000871	8.714478	1.476273	0.000174
 116	1.1443e+01	2.2906	27.535284	0.000649	6.485193	1.098621	0.000130
 117	1.1542e+01	2.3116	27.708881	0.000871	8.714478	1.476273	0.000174
 118	1.1642e+01	2.3322	27.902664	0.000973	9.727790	1.647932	0.000195
 119	1.1741e+01	2.3521	28.096446	0.000973	9.727790	1.647932	0.000195
 120	1.1841e+01	2.3715	28.257932	0.000811	8.106491	1.373277	0.000162
 121	1.1940e+01	2.3921	28.435566	0.000892	8.917140	1.510604	0.000179
 122	1.2040e+01	2.4108	28.633385	0.000993	9.930452	1.682264	0.000199
 123	1.2139e+01	2.4322	28.762574	0.000649	6.485193	1.098621	0.000130
 124	1.2239e+01	2.4519	28.924059	0.000811	8.106491	1.373277	0.000162
 125	1.2338e+01	2.4718	29.073433	0.000750	7.498504	1.270281	0.000150
 126	1.2438e+01	2.4914	29.283364	0.001054	10.538439	1.785260	0.000211
 127	1.2537e+01	2.5116	29.428701	0.000730	7.295842	1.235949	0.000146
 128	1.2636e+01	2.5305	29.582112	0.000770	7.701167	1.304613	0.000154
 129	1.2736e+01	2.5515	29.767820	0.000932	9.322465	1.579268	0.000187
 130	1.2835e+01	2.5716	29.921232	0.000770	7.701167	1.304613	0.000154
 131	1.2935e+01	2.5900	30.094828	0.000871	8.714478	1.476273	0.000174
 132	1.3034e+01	2.6101	30.248240	0.000770	7.701167	1.304613	0.000154
 133	1.3134e+01	2.6309	30.446059	0.000993	9.930452	1.682264	0.000199
 134	1.3233e+01	2.6501	30.567173	0.000608	6.079868	1.029958	0.000122
 135	1.3333e+01	2.6705	30.752881	0.000932	9.322465	1.579268	0.000187
 136	1.3432e+01	2.6898	30.926478	0.000871	8.714478	1.476273	0.000174
 137	1.3532e+01	2.7097	31.096038	0.000851	8.511816	1.441941	0.000170
 138	1.3632e+01	2.7302	31.209078	0.000567	5.674544	0.961294	0.000114
 139	1.3731e+01	2.7496	31.414972	0.001034	10.335776	1.750928	0.000207
 140	1.3831e+01	2.7702	31.564346	0.000750	7.498504	1.270281	0.000150
 141	1.3930e+01	2.7902	31.750054	0.000932	9.322465	1.579268	0.000187
 142	1.4030e+01	2.8097	31.895391	0.000730	7.295842	1.235949	0.000146
 143	1.4129e+01	2.8294	32.032654	0.000689	6.890518	1.167285	0.000138
 144	1.4229e+01	2.8492	32.214325	0.000912	9.119803	1.544936	0.000183
 145	1.4328e+01	2.8704	32.400033	0.000932	9.322465	1.579268	0.000187
 146	1.4428e+01	2.8884	32.525184	0.000628	6.282531	1.064290	0.000126
 147	1.4527e+01	2.9093	32.723004	0.000993	9.930452	1.682264	0.000199
 148	1.4627e+01	2.9293	32.880452	0.000790	7.903829	1.338945	0.000158
 149	1.4726e+01	2.9485	33.025789	0.000730	7.295842	1.235949	0.000146
 150	1.4825e+01	2.9693	33.187274	0.000811	8.106491	1.373277	0.000162
 151	1.4925e+01	2.9888	33.340685	0.000770	7.701167	1.304613	0.000154
 152	1.5024e+01	3.0093	33.554654	0.001074	10.741101	1.819592	0.000215
 153	1.5124e+01	3.0285	33.675768	0.000608	6.079868	1.029958	0.000122
 154	1.5223e+01	3.0491	33.833216	0.000790	7.903829	1.338945	0.000158
 155	1.5323e+01	3.0688	34.043147	0.001054	10.538439	1.785260	0.000211
 156	1.5422e+01	3.0894	34.176373	0.000669	6.687855	1.132953	0.000134
 157	1.5522e+01	3.1077	34.325747	0.000750	7.498504	1.270281	0.000150
 158	1.5621e+01	3.1291	34.479158	0.000770	7.701167	1.304613	0.000154
 159	1.5721e+01	3.1493	34.660829	0.000912	9.119803	1.544936	0.000183
 160	1.5820e+01	3.1686	34.838463	0.000892	8.917140	1.510604	0.000179
 161	1.5920e+01	3.1887	34.959577	0.000608	6.079868	1.029958	0.000122
 162	1.6020e+01	3.2085	35.141248	0.000912	9.119803	1.544936	0.000183
 163	1.6119e+01	3.2285	35.306771	0.000831	8.309154	1.407609	0.000166
 164	1.6218e+01	3.2482	35.444033	0.000689	6.890518	1.167285	0.000138
 165	1.6318e+01	3.2676	35.585333	0.000709	7.093180	1.201617	0.000142
 166	1.6418e+01	3.2876	35.746818	0.000811	8.106491	1.373277	0.000162
 167	1.6517e+01	3.3085	35.916378	0.000851	8.511816	1.441941	0.000170
 168	1.6616e+01	3.3282	36.081901	0.000831	8.309154	1.407609	0.000166
 169	1.6716e+01	3.3477	36.207052	0.000628	6.282531	1.064290	0.000126
 170	1.6816e+01	3.3675	36.388723	0.000912	9.119803	1.544936	0.000183
 171	1.6915e+01	3.3891	36.558283	0.000851	8.511816	1.441941	0.000170
 172	1.7015e+01	3.4075	36.703620	0.000730	7.295842	1.235949	0.000146
 173	1.7114e+01	3.4277	36.840882	0.000689	6.890518	1.167285	0.000138
 174	1.7213e+01	3.4479	36.998330	0.000790	7.903829	1.338945	0.000158
 175	1.7313e+01	3.4687	37.167890	0.000851	8.511816	1.441941	0.000170
 176	1.7413e+01	3.4869	37.297079	0.000649	6.485193	1.098621	0.000130
 177	1.7512e+01	3.5076	37.458564	0.000811	8.106491	1.373277	0.000162
 178	1.7611e+01	3.5275	37.636198	0.000892	8.917140	1.510604	0.000179
 179	1.7711e+01	3.5467	37.765386	0.000649	6.485193	1.098621	0.000130
 180	1.7811e+01	3.5679	37.938983	0.000871	8.714478	1.476273	0.000174
 181	1.7910e+01	3.5876	38.068171	0.000649	6.485193	1.098621	0.000130
 182	1.8009e+01	3.6071	38.249843	0.000912	9.119803	1.544936	0.000183
 183	1.8109e+01	3.6269	38.391142	0.000709	7.093180	1.201617	0.000142
 184	1.8209e+01	3.6468	38.572813	0.000912	9.119803	1.544936	0.000183
 185	1.8308e+01	3.6678	38.762559	0.000953	9.525127	1.613600	0.000191
 186	1.8407e+01	3.6863	38.899821	0.000689	6.890518	1.167285	0.000138
 187	1.8507e+01	3.7062	39.053233	0.000770	7.701167	1.304613	0.000154
 188	1.8607e+01	3.7269	39.178384	0.000628	6.282531	1.064290	0.000126
 189	1.8706e+01	3.7466	39.351981	0.000871	8.714478	1.476273	0.000174
 190	1.8805e+01	3.7664	39.517503	0.000831	8.309154	1.407609	0.000166
 191	1.8905e+01	3.7858	39.670914	0.000770	7.701167	1.304613	0.000154
 192	1.9005e+01	3.8059	39.767806	0.000486	4.863895	0.823966	0.000097
 193	1.9104e+01	3.8271	39.965625	0.000993	9.930452	1.682264	0.000199
 194	1.9203e+01	3.8470	40.114999	0.000750	7.498504	1.270281	0.000150
 195	1.9303e+01	3.8659	40.288596	0.000871	8.714478	1.476273	0.000174
 196	1.9402e+01	3.8853	40.417784	0.000649	6.485193	1.098621	0.000130
 197	1.9502e+01	3.9063	40.567158	0.000750	7.498504	1.270281	0.000150
 198	1.9602e+01	3.9254	40.744792	0.000892	8.917140	1.510604	0.000179
 199	1.9701e+01	3.9458	40.898204	0.000770	7.701167	1.304613	0.000154
 200	1.9800e+01	3.9660	41.035466	0.000689	6.890518	1.167285	0.000138
 201	1.9900e+01	3.9866	41.180803	0.000730	7.295842	1.235949	0.000146
 202	2.0000e+01	4.0057	41.362474	0.000912	9.119803	1.544936	0.000183
 203	2.0099e+01	4.0258	41.499737	0.000689	6.890518	1.167285	0.000138
 204	2.0198e+01	4.0450	41.657185	0.000790	7.903829	1.338945	0.000158
 205	2.0298e+01	4.0664	41.798485	0.000709	7.093180	1.201617	0.000142
 206	2.0398e+01	4.0838	41.951896	0.000770	7.701167	1.304613	0.000154
 207	2.0497e+01	4.1051	42.109344	0.000790	7.903829	1.338945	0.000158
 208	2.0596e+01	4.1247	42.282941	0.000871	8.714478	1.476273	0.000174
 209	2.0696e+01	4.1460	42.420204	0.000689	6.890518	1.167285	0.000138
 210	2.0796e+01	4.1647	42.549392	0.000649	6.485193	1.098621	0.000130
 211	2.0895e+01	4.1854	42.714915	0.000831	8.309154	1.407609	0.000166
 212	2.0994e+01	4.2048	42.896586	0.000912	9.119803	1.544936	0.000183
 213	2.1094e+01	4.2247	43.045960	0.000750	7.498504	1.270281	0.000150
 214	2.1194e+01	4.2452	43.171111	0.000628	6.282531	1.064290	0.000126
 215	2.1293e+01	4.2660	43.356819	0.000932	9.322465	1.579268	0.000187
 216	2.1392e+01	4.2846	43.457748	0.000507	5.066557	0.858298	0.000101
 217	2.1492e+01	4.3045	43.647493	0.000953	9.525127	1.613600	0.000191
 218	2.1591e+01	4.3240	43.792830	0.000730	7.295842	1.235949	0.000146
 219	2.1691e+01	4.3456	43.938167	0.000730	7.295842	1.235949	0.000146
 220	2.1791e+01	4.3645	44.091578	0.000770	7.701167	1.304613	0.000154
 221	2.1890e+01	4.3847	44.257101	0.000831	8.309154	1.407609	0.000166
 222	2.1989e+01	4.4042	44.370140	0.000567	5.674544	0.961294	0.000114
 223	2.2089e+01	4.4244	44.580071	0.001054	10.538439	1.785260	0.000211
 224	2.2189e+01	4.4437	44.745594	0.000831	8.309154	1.407609	0.000166
 225	2.2288e+01	4.4637	44.866708	0.000608	6.079868	1.029958	0.000122
 226	2.2387e+01	4.4842	45.020119	0.000770	7.701167	1.304613	0.000154
 227	2.2487e+01	4.5046	45.193716	0.000871	8.714478	1.476273	0.000174
 228	2.2587e+01	4.5240	45.302719	0.000547	5.471882	0.926962	0.000110
 229	2.2686e+01	4.5438	45.488427	0.000932	9.322465	1.579268	0.000187
 230	2.2785e+01	4.5629	45.637801	0.000750	7.498504	1.270281	0.000150
 231	2.2885e+01	4.5841	45.807361	0.000851	8.511816	1.441941	0.000170
 232	2.2985e+01	4.6038	45.984995	0.000892	8.917140	1.510604	0.000179
 233	2.3084e+01	4.6233	46.093997	0.000547	5.471882	0.926962	0.000110
 234	2.3183e+01	4.6426	46.259520	0.000831	8.309154	1.407609	0.000166
 235	2.3283e+01	4.6636	46.408894	0.000750	7.498504	1.270281	0.000150
 236	2.3383e+01	4.6825	46.546156	0.000689	6.890518	1.167285	0.000138
 237	2.3482e+01	4.7039	46.679382	0.000669	6.687855	1.132953	0.000134
 238	2.3581e+01	4.7233	46.836830	0.000790	7.903829	1.338945	0.000158
 239	2.3681e+01	4.7436	46.982167	0.000730	7.295842	1.235949	0.000146
 240	2.3780e+01	4.7631	47.123467	0.000709	7.093180	1.201617	0.000142
 241	2.3880e+01	4.7839	47.329361	0.001034	10.335776	1.750928	0.000207
 242	2.3980e+01	4.8026	47.446438	0.000588	5.877206	0.995626	0.000118
 243	2.4079e+01	4.8235	47.599849	0.000770	7.701167	1.304613	0.000154
 244	2.4178e+01	4.8418	47.777483	0.000892	8.917140	1.510604	0.000179
 245	2.4278e+01	4.8617	47.890523	0.000567	5.674544	0.961294	0.000114
 246	2.4378e+01	4.8827	48.072194	0.000912	9.119803	1.544936	0.000183
 247	2.4477e+01	4.9026	48.213494	0.000709	7.093180	1.201617	0.000142
 248	2.4576e+01	4.9221	48.350756	0.000689	6.890518	1.167285	0.000138
 249	2.4676e+01	4.9422	48.488019	0.000689	6.890518	1.167285	0.000138
 250	2.4776e+01	4.9630	48.706024	0.001094	10.943763	1.853924	0.000219
 251	2.4875e+01	4.9828	48.831175	0.000628	6.282531	1.064290	0.000126
 252	2.4974e+01	5.0030	48.940178	0.000547	5.471882	0.926962	0.000110
 253	2.5074e+01	5.0216	49.121849	0.000912	9.119803	1.544936	0.000183
 254	2.5174e+01	5.0414	49.226815	0.000527	5.269219	0.892630	0.000105
 255	2.5273e+01	5.0622	49.408486	0.000912	9.119803	1.544936	0.000183
 256	2.5372e+01	5.0808	49.545748	0.000689	6.890518	1.167285	0.000138
 257	2.5472e+01	5.1025	49.711271	0.000831	8.309154	1.407609	0.000166
 258	2.5572e+01	5.1211	49.884868	0.000871	8.714478	1.476273	0.000174
 259	2.5671e+01	5.1421	49.993870	0.000547	5.471882	0.926962	0.000110
 260	2.5770e+01	5.1614	50.175542	0.000912	9.119803	1.544936	0.000183
 261	2.5870e+01	5.1803	50.276470	0.000507	5.066557	0.858298	0.000101
 262	2.5970e+01	5.2005	50.458141	0.000912	9.119803	1.544936	0.000183
 263	2.6069e+01	5.2218	50.603478	0.000730	7.295842	1.235949	0.000146
 264	2.6169e+01	5.2413	50.773038	0.000851	8.511816	1.441941	0.000170
 265	2.6268e+01	5.2615	50.886077	0.000567	5.674544	0.961294	0.000114
 266	2.6367e+01	5.2801	51.031414	0.000730	7.295842	1.235949	0.000146
 267	2.6467e+01	5.3008	51.172714	0.000709	7.093180	1.201617	0.000142
 268	2.6567e+01	5.3210	51.370534	0.000993	9.930452	1.682264	0.000199
 269	2.6666e+01	5.3402	51.491648	0.000608	6.079868	1.029958	0.000122
 270	2.6765e+01	5.3609	51.657170	0.000831	8.309154	1.407609	0.000166
 271	2.6865e+01	5.3811	51.802507	0.000730	7.295842	1.235949	0.000146
 272	2.6965e+01	5.4005	51.919584	0.000588	5.877206	0.995626	0.000118
 273	2.7064e+01	5.4195	52.089144	0.000851	8.511816	1.441941	0.000170
 274	2.7163e+01	5.4406	52.218332	0.000649	6.485193	1.098621	0.000130
 275	2.7263e+01	5.4598	52.367706	0.000750	7.498504	1.270281	0.000150
 276	2.7363e+01	5.4803	52.488820	0.000608	6.079868	1.029958	0.000122
 277	2.7462e+01	5.5004	52.658380	0.000851	8.511816	1.441941	0.000170
 278	2.7561e+01	5.5196	52.799680	0.000709	7.093180	1.201617	0.000142
 279	2.7661e+01	5.5407	52.961165	0.000811	8.106491	1.373277	0.000162
 280	2.7761e+01	5.5596	53.058056	0.000486	4.863895	0.823966	0.000097
 281	2.7860e+01	5.5804	53.219542	0.000811	8.106491	1.373277	0.000162
 282	2.7959e+01	5.5987	53.397176	0.000892	8.917140	1.510604	0.000179
 283	2.8059e+01	5.6207	53.526364	0.000649	6.485193	1.098621	0.000130
 284	2.8159e+01	5.6402	53.635367	0.000547	5.471882	0.926962	0.000110
 285	2.8258e+01	5.6603	53.784741	0.000750	7.498504	1.270281	0.000150
 286	2.8358e+01	5.6780	53.950263	0.000831	8.309154	1.407609	0.000166
 287	2.8457e+01	5.6994	54.115786	0.000831	8.309154	1.407609	0.000166
 288	2.8556e+01	5.7192	54.208640	0.000466	4.661232	0.789634	0.000093
 289	2.8656e+01	5.7397	54.378200	0.000851	8.511816	1.441941	0.000170
 290	2.8756e+01	5.7589	54.551797	0.000871	8.714478	1.476273	0.000174
 291	2.8855e+01	5.7800	54.668874	0.000588	5.877206	0.995626	0.000118
 292	2.8954e+01	5.7989	54.814210	0.000730	7.295842	1.235949	0.000146
 293	2.9054e+01	5.8188	54.943399	0.000649	6.485193	1.098621	0.000130
 294	2.9154e+01	5.8385	55.104884	0.000811	8.106491	1.373277	0.000162
 295	2.9253e+01	5.8584	55.250221	0.000730	7.295842	1.235949	0.000146
 296	2.9352e+01	5.8776	55.407669	0.000790	7.903829	1.338945	0.000158
 297	2.9452e+01	5.8990	55.532821	0.000628	6.282531	1.064290	0.000126
 298	2.9552e+01	5.9183	55.662009	0.000649	6.485193	1.098621	0.000130
 299	2.9651e+01	5.9386	55.799272	0.000689	6.890518	1.167285	0.000138
 300	2.9750e+01	5.9582	55.920386	0.000608	6.079868	1.029958	0.000122
 301	2.9850e+01	5.9789	56.069760	0.000750	7.498504	1.270281	0.000150
 302	2.9950e+01	5.9988	56.190874	0.000608	6.079868	1.029958	0.000122
 303	3.0049e+01	6.0181	56.364471	0.000871	8.714478	1.476273	0.000174
 304	3.0148e+01	6.0368	56.465399	0.000507	5.066557	0.858298	0.000101
 305	3.0248e+01	6.0586	56.622847	0.000790	7.903829	1.338945	0.000158
 306	3.0348e+01	6.0775	56.764147	0.000709	7.093180	1.201617	0.000142
 307	3.0447e+01	6.0986	56.889298	0.000628	6.282531	1.064290	0.000126
 308	3.0547e+01	6.1169	57.018487	0.000649	6.485193	1.098621	0.000130
 309	3.0646e+01	6.1376	57.135564	0.000588	5.877206	0.995626	0.000118
 310	3.0745e+01	6.1590	57.305123	0.000851	8.511816	1.441941	0.000170
 311	3.0845e+01	6.1779	57.462572	0.000790	7.903829	1.338945	0.000158
 312	3.0945e+01	6.1977	57.571574	0.000547	5.471882	0.926962	0.000110
 313	3.1044e+01	6.2185	57.720948	0.000750	7.498504	1.270281	0.000150
 314	3.1143e+01	6.2371	57.842062	0.000608	6.079868	1.029958	0.000122
 315	3.1243e+01	6.2582	57.967213	0.000628	6.282531	1.064290	0.000126
 316	3.1343e+01	6.2777	58.116588	0.000750	7.498504	1.270281	0.000150
 317	3.1442e+01	6.2981	58.241739	0.000628	6.282531	1.064290	0.000126
 318	3.1541e+01	6.3152	58.395150	0.000770	7.701167	1.304613	0.000154
 319	3.1641e+01	6.3375	58.548561	0.000770	7.701167	1.304613	0.000154
 320	3.1741e+01	6.3555	58.665638	0.000588	5.877206	0.995626	0.000118
 321	3.1840e+01	6.3769	58.786752	0.000608	6.079868	1.029958	0.000122
 322	3.1939e+01	6.3964	58.911903	0.000628	6.282531	1.064290	0.000126
 323	3.2039e+01	6.4159	59.045129	0.000669	6.687855	1.132953	0.000134
 324	3.2139e+01	6.4373	59.166243	0.000608	6.079868	1.029958	0.000122
 325	3.2238e+01	6.4561	59.311580	0.000730	7.295842	1.235949	0.000146
 326	3.2337e+01	6.4749	59.424619	0.000567	5.674544	0.961294	0.000114
 327	3.2437e+01	6.4959	59.557845	0.000669	6.687855	1.132953	0.000134
 328	3.2536e+01	6.5149	59.711256	0.000770	7.701167	1.304613	0.000154
 329	3.2636e+01	6.5359	59.840444	0.000649	6.485193	1.098621	0.000130
 330	3.2736e+01	6.5560	59.973670	0.000669	6.687855	1.132953	0.000134
 331	3.2835e+01	6.5765	60.078635	0.000527	5.269219	0.892630	0.000105
 332	3.2934e+01	6.5954	60.203787	0.000628	6.282531	1.064290	0.000126
 333	3.3034e+01	6.6160	60.345086	0.000709	7.093180	1.201617	0.000142
 334	3.3133e+01	6.6348	60.470238	0.000628	6.282531	1.064290	0.000126
 335	3.3233e+01	6.6555	60.619612	0.000750	7.498504	1.270281	0.000150
 336	3.3333e+01	6.6759	60.773023	0.000770	7.701167	1.304613	0.000154
 337	3.3432e+01	6.6961	60.890100	0.000588	5.877206	0.995626	0.000118
 338	3.3532e+01	6.7153	61.011214	0.000608	6.079868	1.029958	0.000122
 339	3.3631e+01	6.7348	61.160588	0.000750	7.498504	1.270281	0.000150
 340	3.3730e+01	6.7544	61.237293	0.000385	3.850583	0.652306	0.000077
 341	3.3830e+01	6.7757	61.378593	0.000709	7.093180	1.201617	0.000142
 342	3.3929e+01	6.7937	61.544116	0.000831	8.309154	1.407609	0.000166
 343	3.4029e+01	6.8163	61.608710	0.000324	3.242597	0.549311	0.000065
 344	3.4129e+01	6.8356	61.778270	0.000851	8.511816	1.441941	0.000170
 345	3.4228e+01	6.8554	61.915532	0.000689	6.890518	1.167285	0.000138
 346	3.4328e+01	6.8755	62.032609	0.000588	5.877206	0.995626	0.000118
 347	3.4427e+01	6.8948	62.145649	0.000567	5.674544	0.961294	0.000114
 348	3.4526e+01	6.9143	62.278874	0.000669	6.687855	1.132953	0.000134
 349	3.4626e+01	6.9344	62.404026	0.000628	6.282531	1.064290	0.000126
 350	3.4725e+01	6.9549	62.537251	0.000669	6.687855	1.132953	0.000134
 351	3.4825e+01	6.9744	62.658365	0.000608	6.079868	1.029958	0.000122
 352	3.4925e+01	6.9941	62.815814	0.000790	7.903829	1.338945	0.000158
 353	3.5024e+01	7.0144	62.916742	0.000507	5.066557	0.858298	0.000101
 354	3.5123e+01	7.0341	63.041893	0.000628	6.282531	1.064290	0.000126
 355	3.5223e+01	7.0544	63.154933	0.000567	5.674544	0.961294	0.000114
 356	3.5322e+01	7.0739	63.312381	0.000790	7.903829	1.338945	0.000158
 357	3.5422e+01	7.0953	63.405235	0.000466	4.661232	0.789634	0.000093
 358	3.5522e+01	7.1133	63.530387	0.000628	6.282531	1.064290	0.000126
 359	3.5621e+01	7.1343	63.663612	0.000669	6.687855	1.132953	0.000134
 360	3.5721e+01	7.1529	63.829135	0.000831	8.309154	1.407609	0.000166
 361	3.5820e+01	7.1743	63.978509	0.000750	7.498504	1.270281	0.000150
 362	3.5919e+01	7.1935	64.051177	0.000365	3.647921	0.617975	0.000073
 363	3.6019e+01	7.2134	64.200551	0.000750	7.498504	1.270281	0.000150
 364	3.6118e+01	7.2334	64.317628	0.000588	5.877206	0.995626	0.000118
 365	3.6218e+01	7.2540	64.450853	0.000669	6.687855	1.132953	0.000134
 366	3.6318e+01	7.2735	64.580042	0.000649	6.485193	1.098621	0.000130
 367	3.6417e+01	7.2930	64.693082	0.000567	5.674544	0.961294	0.000114
 368	3.6517e+01	7.3130	64.814196	0.000608	6.079868	1.029958	0.000122
 369	3.6616e+01	7.3333	64.931273	0.000588	5.877206	0.995626	0.000118
 370	3.6715e+01	7.3537	65.068535	0.000689	6.890518	1.167285	0.000138
 371	3.6815e+01	7.3734	65.189649	0.000608	6.079868	1.029958	0.000122
 372	3.6914e+01	7.3931	65.339023	0.000750	7.498504	1.270281	0.000150
 373	3.7014e+01	7.4133	65.460137	0.000608	6.079868	1.029958	0.000122
 374	3.7114e+01	7.4328	65.561066	0.000507	5.066557	0.858298	0.000101
 375	3.7213e+01	7.4523	65.698328	0.000689	6.890518	1.167285	0.000138
 376	3.7313e+01	7.4725	65.807331	0.000547	5.471882	0.926962	0.000110
 377	3.7412e+01	7.4932	65.924408	0.000588	5.877206	0.995626	0.000118
 378	3.7511e+01	7.5127	66.045522	0.000608	6.079868	1.029958	0.000122
 379	3.7611e+01	7.5323	66.207008	0.000811	8.106491	1.373277	0.000162
 380	3.7711e+01	7.5517	66.299862	0.000466	4.661232	0.789634	0.000093
 381	3.7810e+01	7.5726	66.441161	0.000709	7.093180	1.201617	0.000142
 382	3.7910e+01	7.5921	66.562275	0.000608	6.079868	1.029958	0.000122
 383	3.8009e+01	7.6122	66.683390	0.000608	6.079868	1.029958	0.000122
 384	3.8108e+01	7.6324	66.800466	0.000588	5.877206	0.995626	0.000118
 385	3.8208e+01	7.6519	66.933692	0.000669	6.687855	1.132953	0.000134
 386	3.8307e+01	7.6714	67.095177	0.000811	8.106491	1.373277	0.000162
 387	3.8407e+01	7.6910	67.188032	0.000466	4.661232	0.789634	0.000093
 388	3.8507e+01	7.7117	67.345480	0.000790	7.903829	1.338945	0.000158
 389	3.8606e+01	7.7325	67.466594	0.000608	6.079868	1.029958	0.000122
 390	3.8706e+01	7.7514	67.575597	0.000547	5.471882	0.926962	0.000110
 391	3.8805e+01	7.7720	67.700748	0.000628	6.282531	1.064290	0.000126
 392	3.8904e+01	7.7923	67.805713	0.000527	5.269219	0.892630	0.000105
 393	3.9004e+01	7.8112	67.963162	0.000790	7.903829	1.338945	0.000158
 394	3.9103e+01	7.8301	68.080239	0.000588	5.877206	0.995626	0.000118
 395	3.9203e+01	7.8506	68.205390	0.000628	6.282531	1.064290	0.000126
 396	3.9303e+01	7.8716	68.330541	0.000628	6.282531	1.064290	0.000126
 397	3.9402e+01	7.8909	68.479915	0.000750	7.498504	1.270281	0.000150
 398	3.9502e+01	7.9110	68.576806	0.000486	4.863895	0.823966	0.000097
 399	3.9601e+01	7.9308	68.697920	0.000608	6.079868	1.029958	0.000122
 400	3.9700e+01	7.9501	68.831146	0.000669	6.687855	1.132953	0.000134
 401	3.9800e+01	7.9717	68.936111	0.000527	5.269219	0.892630	0.000105
 402	3.9900e+01	7.9894	69.045114	0.000547	5.471882	0.926962	0.000110
 403	3.9999e+01	8.0108	69.202562	0.000790	7.903829	1.338945	0.000158
 404	4.0099e+01	8.0303	69.315602	0.000567	5.674544	0.961294	0.000114
 405	4.0198e+01	8.0505	69.477087	0.000811	8.106491	1.373277	0.000162
 406	4.0297e+01	8.0694	69.590127	0.000567	5.674544	0.961294	0.000114
 407	4.0397e+01	8.0901	69.731427	0.000709	7.093180	1.201617	0.000142
 408	4.0496e+01	8.1103	69.820244	0.000446	4.458570	0.755302	0.000089
 409	4.0596e+01	8.1304	69.896950	0.000385	3.850583	0.652306	0.000077
 410	4.0696e+01	8.1503	70.070546	0.000871	8.714478	1.476273	0.000174
 411	4.0795e+01	8.1701	70.199735	0.000649	6.485193	1.098621	0.000130
 412	4.0895e+01	8.1899	70.336997	0.000689	6.890518	1.167285	0.000138
 413	4.0994e+01	8.2098	70.482334	0.000730	7.295842	1.235949	0.000146
 414	4.1093e+01	8.2299	70.591337	0.000547	5.471882	0.926962	0.000110
 415	4.1193e+01	8.2494	70.712451	0.000608	6.079868	1.029958	0.000122
 416	4.1292e+01	8.2693	70.845676	0.000669	6.687855	1.132953	0.000134
 417	4.1392e+01	8.2897	70.966791	0.000608	6.079868	1.029958	0.000122
 418	4.1492e+01	8.3102	71.071756	0.000527	5.269219	0.892630	0.000105
 419	4.1591e+01	8.3291	71.209019	0.000689	6.890518	1.167285	0.000138
 420	4.1691e+01	8.3486	71.330133	0.000608	6.079868	1.029958	0.000122
 421	4.1790e+01	8.3697	71.483544	0.000770	7.701167	1.304613	0.000154
 422	4.1889e+01	8.3892	71.584472	0.000507	5.066557	0.858298	0.000101
 423	4.1989e+01	8.4093	71.705586	0.000608	6.079868	1.029958	0.000122
 424	4.2089e+01	8.4298	71.834775	0.000649	6.485193	1.098621	0.000130
 425	4.2188e+01	8.4490	71.963963	0.000649	6.485193	1.098621	0.000130
 426	4.2288e+01	8.4684	72.052780	0.000446	4.458570	0.755302	0.000089
 427	4.2387e+01	8.4893	72.214266	0.000811	8.106491	1.373277	0.000162
 428	4.2486e+01	8.5082	72.307120	0.000466	4.661232	0.789634	0.000093
 429	4.2586e+01	8.5284	72.432271	0.000628	6.282531	1.064290	0.000126
 430	4.2685e+01	8.5485	72.617979	0.000932	9.322465	1.579268	0.000187
 431	4.2785e+01	8.5686	72.682573	0.000324	3.242597	0.549311	0.000065
 432	4.2885e+01	8.5888	72.835984	0.000770	7.701167	1.304613	0.000154
 433	4.2984e+01	8.6077	72.957098	0.000608	6.079868	1.029958	0.000122
 434	4.3084e+01	8.6285	73.033804	0.000385	3.850583	0.652306	0.000077
 435	4.3183e+01	8.6480	73.162992	0.000649	6.485193	1.098621	0.000130
 436	4.3282e+01	8.6681	73.312366	0.000750	7.498504	1.270281	0.000150
 437	4.3382e+01	8.6877	73.413295	0.000507	5.066557	0.858298	0.000101
 438	4.3481e+01	8.7078	73.518260	0.000527	5.269219	0.892630	0.000105
 439	4.3581e+01	8.7286	73.635337	0.000588	5.877206	0.995626	0.000118
 440	4.3681e+01	8.7469	73.776637	0.000709	7.093180	1.201617	0.000142
 441	4.3780e+01	8.7676	73.917937	0.000709	7.093180	1.201617	0.000142
 442	4.3880e+01	8.7878	74.006754	0.000446	4.458570	0.755302	0.000089
 443	4.3979e+01	8.8070	74.152091	0.000730	7.295842	1.235949	0.000146
 444	4.4078e+01	8.8280	74.293390	0.000709	7.093180	1.201617	0.000142
 445	4.4178e+01	8.8482	74.390282	0.000486	4.863895	0.823966	0.000097
 446	4.4278e+01	8.8671	74.491210	0.000507	5.066557	0.858298	0.000101
 447	4.4377e+01	8.8860	74.620398	0.000649	6.485193	1.098621	0.000130
 448	4.4477e+01	8.9062	74.717290	0.000486	4.863895	0.823966	0.000097
 449	4.4576e+01	8.9271	74.870701	0.000770	7.701167	1.304613	0.000154
 450	4.4675e+01	8.9465	74.999889	0.000649	6.485193	1.098621	0.000130
 451	4.4775e+01	8.9672	75.121003	0.000608	6.079868	1.029958	0.000122
 452	4.4874e+01	8.9861	75.209820	0.000446	4.458570	0.755302	0.000089
 453	4.4974e+01	9.0069	75.375343	0.000831	8.309154	1.407609	0.000166
 454	4.5074e+01	9.0270	75.439937	0.000324	3.242597	0.549311	0.000065
 455	4.5173e+01	9.0466	75.597385	0.000790	7.903829	1.338945	0.000158
 456	4.5273e+01	9.0664	75.674091	0.000385	3.850583	0.652306	0.000077
 457	4.5372e+01	9.0844	75.803279	0.000649	6.485193	1.098621	0.000130
 458	4.5471e+01	9.1058	75.936505	0.000669	6.687855	1.132953	0.000134
 459	4.5571e+01	9.1253	76.081842	0.000730	7.295842	1.235949	0.000146
 460	4.5670e+01	9.1451	76.206993	0.000628	6.282531	1.064290	0.000126
 461	4.5770e+01	9.1650	76.291773	0.000426	4.255908	0.720970	0.000085
 462	4.5870e+01	9.1851	76.400775	0.000547	5.471882	0.926962	0.000110
 463	4.5969e+01	9.2059	76.517852	0.000588	5.877206	0.995626	0.000118
 464	4.6069e+01	9.2248	76.667226	0.000750	7.498504	1.270281	0.000150
 465	4.6168e+01	9.2449	76.756043	0.000446	4.458570	0.755302	0.000089
 466	4.6267e+01	9.2645	76.861009	0.000527	5.269219	0.892630	0.000105
 467	4.6367e+01	9.2852	76.990197	0.000649	6.485193	1.098621	0.000130
 468	4.6467e+01	9.3035	77.123423	0.000669	6.687855	1.132953	0.000134
 469	4.6566e+01	9.3246	77.204165	0.000405	4.053246	0.686638	0.000081
 470	4.6666e+01	9.3444	77.325279	0.000608	6.079868	1.029958	0.000122
 471	4.6765e+01	9.3645	77.414096	0.000446	4.458570	0.755302	0.000089
 472	4.6864e+01	9.3841	77.559433	0.000730	7.295842	1.235949	0.000146
 473	4.6964e+01	9.4061	77.644213	0.000426	4.255908	0.720970	0.000085
 474	4.7063e+01	9.4244	77.773401	0.000649	6.485193	1.098621	0.000130
 475	4.7163e+01	9.4439	77.914701	0.000709	7.093180	1.201617	0.000142
 476	4.7263e+01	9.4640	78.027741	0.000567	5.674544	0.961294	0.000114
 477	4.7362e+01	9.4833	78.128669	0.000507	5.066557	0.858298	0.000101
 478	4.7462e+01	9.5037	78.245746	0.000588	5.877206	0.995626	0.000118
 479	4.7561e+01	9.5245	78.354749	0.000547	5.471882	0.926962	0.000110
 480	4.7660e+01	9.5434	78.467789	0.000567	5.674544	0.961294	0.000114
 481	4.7760e+01	9.5629	78.601014	0.000669	6.687855	1.132953	0.000134
 482	4.7859e+01	9.5837	78.701943	0.000507	5.066557	0.858298	0.000101
 483	4.7959e+01	9.6038	78.794797	0.000466	4.661232	0.789634	0.000093
 484	4.8059e+01	9.6230	78.911874	0.000588	5.877206	0.995626	0.000118
 485	4.8158e+01	9.6435	79.012802	0.000507	5.066557	0.858298	0.000101
 486	4.8258e+01	9.6636	79.141990	0.000649	6.485193	1.098621	0.000130
 487	4.8357e+01	9.6832	79.238882	0.000486	4.863895	0.823966	0.000097
 488	4.8456e+01	9.7031	79.335773	0.000486	4.863895	0.823966	0.000097
 489	4.8556e+01	9.7231	79.456887	0.000608	6.079868	1.029958	0.000122
 490	4.8656e+01	9.7430	79.590113	0.000669	6.687855	1.132953	0.000134
 491	4.8755e+01	9.7637	79.711227	0.000608	6.079868	1.029958	0.000122
 492	4.8855e+01	9.7826	79.791969	0.000405	4.053246	0.686638	0.000081
 493	4.8954e+01	9.8025	79.921158	0.000649	6.485193	1.098621	0.000130
 494	4.9053e+01	9.8223	80.014012	0.000466	4.661232	0.789634	0.000093
 495	4.9153e+01	9.8421	80.127052	0.000567	5.674544	0.961294	0.000114
 496	4.9252e+01	9.8626	80.280463	0.000770	7.701167	1.304613	0.000154
 497	4.9352e+01	9.8815	80.349094	0.000345	3.445259	0.583643	0.000069
 498	4.9452e+01	9.9035	80.445985	0.000486	4.863895	0.823966	0.000097
 499	4.9551e+01	9.9218	80.554988	0.000547	5.471882	0.926962	0.000110
 500	4.9651e+01	9.9419	80.655916	0.000507	5.066557	0.858298	0.000101
 501	4.9750e+01	9.9621	80.772993	0.000588	5.877206	0.995626	0.000118
 502	4.9849e+01	9.9816	80.890070	0.000588	5.877206	0.995626	0.000118
 503	4.9949e+01	9.9999	80.982924	0.000466	4.661232	0.789634	0.000093
 504	5.0048e+01	9.9822	80.946590	0.000182	1.823961	0.308987	-0.000037
 505	5.0148e+01	9.9627	80.861810	0.000426	4.255908	0.720970	-0.000085
 506	5.0248e+01	9.9419	80.777030	0.000426	4.255908	0.720970	-0.000085
 507	5.0347e+01	9.9215	80.676102	0.000507	5.066557	0.858298	-0.000101
 508	5.0447e+01	9.9029	80.559025	0.000588	5.877206	0.995626	-0.000118
 509	5.0546e+01	9.8820	80.474245	0.000426	4.255908	0.720970	-0.000085
 510	5.0645e+01	9.8614	80.361205	0.000567	5.674544	0.961294	-0.000114
 511	5.0745e+01	9.8415	80.276426	0.000426	4.255908	0.720970	-0.000085
 512	5.0844e+01	9.8223	80.179534	0.000486	4.863895	0.823966	-0.000097
 513	5.0944e+01	9.8034	80.066495	0.000567	5.674544	0.961294	-0.000114
 514	5.1044e+01	9.7823	79.969603	0.000486	4.863895	0.823966	-0.000097
 515	5.1143e+01	9.7619	79.929232	0.000203	2.026623	0.343319	-0.000041
 516	5.1242e+01	9.7427	79.787932	0.000709	7.093180	1.201617	-0.000142
 517	5.1342e+01	9.7234	79.715264	0.000365	3.647921	0.617975	-0.000073
 518	5.1441e+01	9.7021	79.622410	0.000466	4.661232	0.789634	-0.000093
 519	5.1541e+01	9.6838	79.533593	0.000446	4.458570	0.755302	-0.000089
 520	5.1641e+01	9.6636	79.428627	0.000527	5.269219	0.892630	-0.000105
 521	5.1740e+01	9.6423	79.331736	0.000486	4.863895	0.823966	-0.000097
 522	5.1840e+01	9.6233	79.182362	0.000750	7.498504	1.270281	-0.000150
 523	5.1939e+01	9.6032	79.109693	0.000365	3.647921	0.617975	-0.000073
 524	5.2038e+01	9.5831	79.016839	0.000466	4.661232	0.789634	-0.000093
 525	5.2138e+01	9.5635	78.972431	0.000223	2.229285	0.377651	-0.000045
 526	5.2237e+01	9.5428	78.863428	0.000547	5.471882	0.926962	-0.000110
 527	5.2337e+01	9.5238	78.722128	0.000709	7.093180	1.201617	-0.000142
 528	5.2437e+01	9.5043	78.645423	0.000385	3.850583	0.652306	-0.000077
 529	5.2536e+01	9.4842	78.524309	0.000608	6.079868	1.029958	-0.000122
 530	5.2636e+01	9.4646	78.435492	0.000446	4.458570	0.755302	-0.000089
 531	5.2735e+01	9.4445	78.326489	0.000547	5.471882	0.926962	-0.000110
 532	5.2834e+01	9.4250	78.237672	0.000446	4.458570	0.755302	-0.000089
 533	5.2934e+01	9.4045	78.112521	0.000628	6.282531	1.064290	-0.000126
 534	5.3033e+01	9.3859	78.064075	0.000243	2.431947	0.411983	-0.000049
 535	5.3133e+01	9.3639	77.946998	0.000588	5.877206	0.995626	-0.000118
 536	5.3233e+01	9.3438	77.837996	0.000547	5.471882	0.926962	-0.000110
 537	5.3332e+01	9.3243	77.712844	0.000628	6.282531	1.064290	-0.000126
 538	5.3431e+01	9.3047	77.640176	0.000365	3.647921	0.617975	-0.000073
 539	5.3531e+01	9.2858	77.555396	0.000426	4.255908	0.720970	-0.000085
 540	5.3630e+01	9.2651	77.418133	0.000689	6.890518	1.167285	-0.000138
 541	5.3730e+01	9.2455	77.341428	0.000385	3.850583	0.652306	-0.000077
 542	5.3830e+01	9.2260	77.232425	0.000547	5.471882	0.926962	-0.000110
 543	5.3929e+01	9.2065	77.103237	0.000649	6.485193	1.098621	-0.000130
 544	5.4029e+01	9.1866	77.030568	0.000365	3.647921	0.617975	-0.000073
 545	5.4128e+01	9.1653	76.913492	0.000588	5.877206	0.995626	-0.000118
 546	5.4227e+01	9.1451	76.812563	0.000507	5.066557	0.858298	-0.000101
 547	5.4327e+01	9.1250	76.731820	0.000405	4.053246	0.686638	-0.000081
 548	5.4426e+01	9.1058	76.598595	0.000669	6.687855	1.132953	-0.000134
 549	5.4526e+01	9.0850	76.517852	0.000405	4.053246	0.686638	-0.000081
 550	5.4626e+01	9.0661	76.404812	0.000567	5.674544	0.961294	-0.000114
 551	5.4725e+01	9.0462	76.291773	0.000567	5.674544	0.961294	-0.000114
 552	5.4825e+01	9.0264	76.259476	0.000162	1.621298	0.274655	-0.000032
 553	5.4924e+01	9.0063	76.146436	0.000567	5.674544	0.961294	-0.000114
 554	5.5023e+01	8.9864	75.980913	0.000831	8.309154	1.407609	-0.000166
 555	5.5123e+01	8.9660	75.916319	0.000324	3.242597	0.549311	-0.000065
 556	5.5222e+01	8.9465	75.811353	0.000527	5.269219	0.892630	-0.000105
 557	5.5322e+01	8.9263	75.714462	0.000486	4.863895	0.823966	-0.000097
 558	5.5422e+01	8.9062	75.621608	0.000466	4.661232	0.789634	-0.000093
 559	5.5521e+01	8.8860	75.512605	0.000547	5.471882	0.926962	-0.000110
 560	5.5620e+01	8.8665	75.419751	0.000466	4.661232	0.789634	-0.000093
 561	5.5720e+01	8.8467	75.302674	0.000588	5.877206	0.995626	-0.000118
 562	5.5819e+01	8.8280	75.230006	0.000365	3.647921	0.617975	-0.000073
 563	5.5919e+01	8.8070	75.112929	0.000588	5.877206	0.995626	-0.000118
 564	5.6019e+01	8.7884	74.967592	0.000730	7.295842	1.235949	-0.000146
 565	5.6118e+01	8.7679	74.902998	0.000324	3.242597	0.549311	-0.000065
 566	5.6218e+01	8.7475	74.806107	0.000486	4.863895	0.823966	-0.000097
 567	5.6317e+01	8.7276	74.664807	0.000709	7.093180	1.201617	-0.000142
 568	5.6416e+01	8.7066	74.575990	0.000446	4.458570	0.755302	-0.000089
 569	5.6516e+01	8.6877	74.491210	0.000426	4.255908	0.720970	-0.000085
 570	5.6615e+01	8.6687	74.410467	0.000405	4.053246	0.686638	-0.000081
 571	5.6715e+01	8.6480	74.269168	0.000709	7.093180	1.201617	-0.000142
 572	5.6815e+01	8.6279	74.196499	0.000365	3.647921	0.617975	-0.000073
 573	5.6914e+01	8.6077	74.083459	0.000567	5.674544	0.961294	-0.000114
 574	5.7014e+01	8.5876	73.966382	0.000588	5.877206	0.995626	-0.000118
 575	5.7113e+01	8.5686	73.897751	0.000345	3.445259	0.583643	-0.000069
 576	5.7212e+01	8.5482	73.760489	0.000689	6.890518	1.167285	-0.000138
 577	5.7312e+01	8.5281	73.631300	0.000649	6.485193	1.098621	-0.000130
 578	5.7411e+01	8.5091	73.518260	0.000567	5.674544	0.961294	-0.000114
 579	5.7511e+01	8.4887	73.445592	0.000365	3.647921	0.617975	-0.000073
 580	5.7611e+01	8.4679	73.348701	0.000486	4.863895	0.823966	-0.000097
 581	5.7710e+01	8.4490	73.243735	0.000527	5.269219	0.892630	-0.000105
 582	5.7809e+01	8.4289	73.158955	0.000426	4.255908	0.720970	-0.000085
 583	5.7909e+01	8.4087	73.021693	0.000689	6.890518	1.167285	-0.000138
 584	5.8008e+01	8.3898	72.965173	0.000284	2.837272	0.480647	-0.000057
 585	5.8108e+01	8.3691	72.819836	0.000730	7.295842	1.235949	-0.000146
 586	5.8208e+01	8.3489	72.731019	0.000446	4.458570	0.755302	-0.000089
 587	5.8307e+01	8.3285	72.609905	0.000608	6.079868	1.029958	-0.000122
 588	5.8407e+01	8.3099	72.521088	0.000446	4.458570	0.755302	-0.000089
 589	5.8506e+01	8.2891	72.424197	0.000486	4.863895	0.823966	-0.000097
 590	5.8605e+01	8.2690	72.299045	0.000628	6.282531	1.064290	-0.000126
 591	5.8705e+01	8.2500	72.218303	0.000405	4.053246	0.686638	-0.000081
 592	5.8804e+01	8.2290	72.133523	0.000426	4.255908	0.720970	-0.000085
 593	5.8904e+01	8.2085	71.992223	0.000709	7.093180	1.201617	-0.000142
 594	5.9004e+01	8.1896	71.879183	0.000567	5.674544	0.961294	-0.000114
 595	5.9103e+01	8.1701	71.818626	0.000304	3.039934	0.514979	-0.000061
 596	5.9203e+01	8.1509	71.685401	0.000669	6.687855	1.132953	-0.000134
 597	5.9302e+01	8.1304	71.596584	0.000446	4.458570	0.755302	-0.000089
 598	5.9401e+01	8.1103	71.483544	0.000567	5.674544	0.961294	-0.000114
 599	5.9501e+01	8.0910	71.374541	0.000547	5.471882	0.926962	-0.000110
 600	5.9600e+01	8.0700	71.297836	0.000385	3.850583	0.652306	-0.000077
 601	5.9700e+01	8.0511	71.164610	0.000669	6.687855	1.132953	-0.000134
 602	5.9800e+01	8.0303	71.083868	0.000405	4.053246	0.686638	-0.000081
 603	5.9899e+01	8.0108	70.995051	0.000446	4.458570	0.755302	-0.000089
 604	5.9998e+01	7.9906	70.849714	0.000730	7.295842	1.235949	-0.000146
 605	6.0098e+01	7.9705	70.724562	0.000628	6.282531	1.064290	-0.000126
 606	6.0197e+01	7.9507	70.651894	0.000365	3.647921	0.617975	-0.000073
 607	6.0297e+01	7.9317	70.530780	0.000608	6.079868	1.029958	-0.000122
 608	6.0397e+01	7.9113	70.433889	0.000486	4.863895	0.823966	-0.000097
 609	6.0496e+01	7.8912	70.292589	0.000709	7.093180	1.201617	-0.000142
 610	6.0596e+01	7.8716	70.179549	0.000567	5.674544	0.961294	-0.000114
 611	6.0695e+01	7.8509	70.102844	0.000385	3.850583	0.652306	-0.000077
 612	6.0794e+01	7.8307	70.009989	0.000466	4.661232	0.789634	-0.000093
 613	6.0894e+01	7.8103	69.872727	0.000689	6.890518	1.167285	-0.000138
 614	6.0993e+01	7.7920	69.783910	0.000446	4.458570	0.755302	-0.000089
 615	6.1093e+01	7.7715	69.699130	0.000426	4.255908	0.720970	-0.000085
 616	6.1193e+01	7.7511	69.586090	0.000567	5.674544	0.961294	-0.000114
 617	6.1292e+01	7.7312	69.428642	0.000790	7.903829	1.338945	-0.000158
 618	6.1392e+01	7.7117	69.335788	0.000466	4.661232	0.789634	-0.000093
 619	6.1491e+01	7.6913	69.242934	0.000466	4.661232	0.789634	-0.000093
 620	6.1590e+01	7.6723	69.121820	0.000608	6.079868	1.029958	-0.000122
 621	6.1690e+01	7.6516	69.033003	0.000446	4.458570	0.755302	-0.000089
 622	6.1789e+01	7.6322	68.928037	0.000527	5.269219	0.892630	-0.000105
 623	6.1889e+01	7.6122	68.823071	0.000527	5.269219	0.892630	-0.000105
 624	6.1989e+01	7.5915	68.726180	0.000486	4.863895	0.823966	-0.000097
 625	6.2088e+01	7.5723	68.552583	0.000871	8.714478	1.476273	-0.000174
 626	6.2188e+01	7.5518	68.492026	0.000304	3.039934	0.514979	-0.000061
 627	6.2287e+01	7.5327	68.391098	0.000507	5.066557	0.858298	-0.000101
 628	6.2386e+01	7.5121	68.245761	0.000730	7.295842	1.235949	-0.000146
 629	6.2486e+01	7.4920	68.112536	0.000669	6.687855	1.132953	-0.000134
 630	6.2586e+01	7.4722	68.023719	0.000446	4.458570	0.755302	-0.000089
 631	6.2685e+01	7.4534	67.910679	0.000567	5.674544	0.961294	-0.000114
 632	6.2785e+01	7.4328	67.817825	0.000466	4.661232	0.789634	-0.000093
 633	6.2884e+01	7.4133	67.704785	0.000567	5.674544	0.961294	-0.000114
 634	6.2983e+01	7.3937	67.571559	0.000669	6.687855	1.132953	-0.000134
 635	6.3083e+01	7.3730	67.438334	0.000669	6.687855	1.132953	-0.000134
 636	6.3182e+01	7.3534	67.353554	0.000426	4.255908	0.720970	-0.000085
 637	6.3282e+01	7.3336	67.216291	0.000689	6.890518	1.167285	-0.000138
 638	6.3382e+01	7.3129	67.111326	0.000527	5.269219	0.892630	-0.000105
 639	6.3481e+01	7.2936	67.014435	0.000486	4.863895	0.823966	-0.000097
 640	6.3581e+01	7.2717	66.881209	0.000669	6.687855	1.132953	-0.000134
 641	6.3680e+01	7.2543	66.731835	0.000750	7.498504	1.270281	-0.000150
 642	6.3779e+01	7.2332	66.659167	0.000365	3.647921	0.617975	-0.000073
 643	6.3879e+01	7.2143	66.501718	0.000790	7.903829	1.338945	-0.000158
 644	6.3978e+01	7.1935	66.429050	0.000365	3.647921	0.617975	-0.000073
 645	6.4078e+01	7.1734	66.307936	0.000608	6.079868	1.029958	-0.000122
 646	6.4177e+01	7.1548	66.194896	0.000567	5.674544	0.961294	-0.000114
 647	6.4277e+01	7.1337	66.081856	0.000567	5.674544	0.961294	-0.000114
 648	6.4376e+01	7.1142	65.948631	0.000669	6.687855	1.132953	-0.000134
 649	6.4476e+01	7.0947	65.823480	0.000628	6.282531	1.064290	-0.000126
 650	6.4576e+01	7.0745	65.698328	0.000628	6.282531	1.064290	-0.000126
 651	6.4675e+01	7.0547	65.625660	0.000365	3.647921	0.617975	-0.000073
 652	6.4775e+01	7.0345	65.496472	0.000649	6.485193	1.098621	-0.000130
 653	6.4874e+01	7.0153	65.375358	0.000608	6.079868	1.029958	-0.000122
 654	6.4974e+01	6.9949	65.246169	0.000649	6.485193	1.098621	-0.000130
 655	6.5073e+01	6.9750	65.121018	0.000628	6.282531	1.064290	-0.000126
 656	6.5172e+01	6.9552	65.028164	0.000466	4.661232	0.789634	-0.000093
 657	6.5272e+01	6.9344	64.890901	0.000689	6.890518	1.167285	-0.000138
 658	6.5371e+01	6.9149	64.781899	0.000547	5.471882	0.926962	-0.000110
 659	6.5471e+01	6.8945	64.676933	0.000527	5.269219	0.892630	-0.000105
 660	6.5570e+01	6.8746	64.531596	0.000730	7.295842	1.235949	-0.000146
 661	6.5670e+01	6.8545	64.422594	0.000547	5.471882	0.926962	-0.000110
 662	6.5769e+01	6.8359	64.301479	0.000608	6.079868	1.029958	-0.000122
 663	6.5869e+01	6.8151	64.172291	0.000649	6.485193	1.098621	-0.000130
 664	6.5969e+01	6.7956	64.035029	0.000689	6.890518	1.167285	-0.000138
 665	6.6068e+01	6.7754	63.897766	0.000689	6.890518	1.167285	-0.000138
 666	6.6168e+01	6.7547	63.788763	0.000547	5.471882	0.926962	-0.000110
 667	6.6267e+01	6.7358	63.671686	0.000588	5.877206	0.995626	-0.000118
 668	6.6367e+01	6.7156	63.558646	0.000567	5.674544	0.961294	-0.000114
 669	6.6466e+01	6.6961	63.449644	0.000547	5.471882	0.926962	-0.000110
 670	6.6566e+01	6.6759	63.292196	0.000790	7.903829	1.338945	-0.000158
 671	6.6665e+01	6.6558	63.154933	0.000689	6.890518	1.167285	-0.000138
 672	6.6764e+01	6.6348	63.058042	0.000486	4.863895	0.823966	-0.000097
 673	6.6864e+01	6.6161	62.932890	0.000628	6.282531	1.064290	-0.000126
 674	6.6963e+01	6.5965	62.840036	0.000466	4.661232	0.789634	-0.000093
 675	6.7063e+01	6.5752	62.678551	0.000811	8.106491	1.373277	-0.000162
 676	6.7162e+01	6.5563	62.601845	0.000385	3.850583	0.652306	-0.000077
 677	6.7262e+01	6.5356	62.472657	0.000649	6.485193	1.098621	-0.000130
 678	6.7362e+01	6.5154	62.323283	0.000750	7.498504	1.270281	-0.000150
 679	6.7461e+01	6.4965	62.181983	0.000709	7.093180	1.201617	-0.000142
 680	6.7561e+01	6.4770	62.093166	0.000446	4.458570	0.755302	-0.000089
 681	6.7660e+01	6.4556	61.947829	0.000730	7.295842	1.235949	-0.000146
 682	6.7760e+01	6.4367	61.838827	0.000547	5.471882	0.926962	-0.000110
 683	6.7859e+01	6.4172	61.677341	0.000811	8.106491	1.373277	-0.000162
 684	6.7959e+01	6.3961	61.584487	0.000466	4.661232	0.789634	-0.000093
 685	6.8058e+01	6.3775	61.431076	0.000770	7.701167	1.304613	-0.000154
 686	6.8157e+01	6.3561	61.309962	0.000608	6.079868	1.029958	-0.000122
 687	6.8257e+01	6.3371	61.196922	0.000567	5.674544	0.961294	-0.000114
 688	6.8356e+01	6.3177	61.063697	0.000669	6.687855	1.132953	-0.000134
 689	6.8456e+01	6.2969	60.962768	0.000507	5.066557	0.858298	-0.000101
 690	6.8555e+01	6.2756	60.813394	0.000750	7.498504	1.270281	-0.000150
 691	6.8655e+01	6.2582	60.728614	0.000426	4.255908	0.720970	-0.000085
 692	6.8754e+01	6.2383	60.591352	0.000689	6.890518	1.167285	-0.000138
 693	6.8854e+01	6.2173	60.470238	0.000608	6.079868	1.029958	-0.000122
 694	6.8954e+01	6.1974	60.353161	0.000588	5.877206	0.995626	-0.000118
 695	6.9053e+01	6.1785	60.195712	0.000790	7.903829	1.338945	-0.000158
 696	6.9153e+01	6.1578	60.054413	0.000709	7.093180	1.201617	-0.000142
 697	6.9252e+01	6.1376	59.965596	0.000446	4.458570	0.755302	-0.000089
 698	6.9352e+01	6.1178	59.816222	0.000750	7.498504	1.270281	-0.000150
 699	6.9451e+01	6.0976	59.691070	0.000628	6.282531	1.064290	-0.000126
 700	6.9550e+01	6.0784	59.561882	0.000649	6.485193	1.098621	-0.000130
 701	6.9650e+01	6.0586	59.420582	0.000709	7.093180	1.201617	-0.000142
 702	6.9749e+01	6.0381	59.303505	0.000588	5.877206	0.995626	-0.000118
 703	6.9849e+01	6.0186	59.190466	0.000567	5.674544	0.961294	-0.000114
 704	6.9948e+01	5.9994	59.045129	0.000730	7.295842	1.235949	-0.000146
 705	7.0048e+01	5.9786	58.952275	0.000466	4.661232	0.789634	-0.000093
 706	7.0147e+01	5.9588	58.798863	0.000770	7.701167	1.304613	-0.000154
 707	7.0247e+01	5.9386	58.665638	0.000669	6.687855	1.132953	-0.000134
 708	7.0347e+01	5.9185	58.564710	0.000507	5.066557	0.858298	-0.000101
 709	7.0446e+01	5.8994	58.411298	0.000770	7.701167	1.304613	-0.000154
 710	7.0546e+01	5.8788	58.261924	0.000750	7.498504	1.270281	-0.000150
 711	7.0645e+01	5.8599	58.160996	0.000507	5.066557	0.858298	-0.000101
 712	7.0745e+01	5.8392	58.072179	0.000446	4.458570	0.755302	-0.000089
 713	7.0844e+01	5.8196	57.910694	0.000811	8.106491	1.373277	-0.000162
 714	7.0944e+01	5.7998	57.777468	0.000669	6.687855	1.132953	-0.000134
 715	7.1043e+01	5.7787	57.660391	0.000588	5.877206	0.995626	-0.000118
 716	7.1142e+01	5.7604	57.547351	0.000567	5.674544	0.961294	-0.000114
 717	7.1242e+01	5.7400	57.397977	0.000750	7.498504	1.270281	-0.000150
 718	7.1341e+01	5.7201	57.301086	0.000486	4.863895	0.823966	-0.000097
 719	7.1441e+01	5.6988	57.147675	0.000770	7.701167	1.304613	-0.000154
 720	7.1540e+01	5.6796	57.014449	0.000669	6.687855	1.132953	-0.000134
 721	7.1640e+01	5.6597	56.917558	0.000486	4.863895	0.823966	-0.000097
 722	7.1740e+01	5.6399	56.784333	0.000669	6.687855	1.132953	-0.000134
 723	7.1839e+01	5.6207	56.663219	0.000608	6.079868	1.029958	-0.000122
 724	7.1939e+01	5.6010	56.501733	0.000811	8.106491	1.373277	-0.000162
 725	7.2038e+01	5.5804	56.408879	0.000466	4.661232	0.789634	-0.000093
 726	7.2138e+01	5.5605	56.243357	0.000831	8.309154	1.407609	-0.000166
 727	7.2237e+01	5.5407	56.170688	0.000365	3.647921	0.617975	-0.000073
 728	7.2337e+01	5.5199	56.021314	0.000750	7.498504	1.270281	-0.000150
 729	7.2436e+01	5.5013	55.867903	0.000770	7.701167	1.304613	-0.000154
 730	7.2535e+01	5.4809	55.762937	0.000527	5.269219	0.892630	-0.000105
 731	7.2635e+01	5.4595	55.621638	0.000709	7.093180	1.201617	-0.000142
 732	7.2734e+01	5.4403	55.488412	0.000669	6.687855	1.132953	-0.000134
 733	7.2834e+01	5.4205	55.359224	0.000649	6.485193	1.098621	-0.000130
 734	7.2933e+01	5.4003	55.262333	0.000486	4.863895	0.823966	-0.000097
 735	7.3033e+01	5.3802	55.112959	0.000750	7.498504	1.270281	-0.000150
 736	7.3132e+01	5.3609	54.971659	0.000709	7.093180	1.201617	-0.000142
 737	7.3232e+01	5.3408	54.834396	0.000689	6.890518	1.167285	-0.000138
 738	7.3332e+01	5.3216	54.721356	0.000567	5.674544	0.961294	-0.000114
 739	7.3431e+01	5.2999	54.576019	0.000730	7.295842	1.235949	-0.000146
 740	7.3531e+01	5.2810	54.446831	0.000649	6.485193	1.098621	-0.000130
 741	7.3630e+01	5.2624	54.353977	0.000466	4.661232	0.789634	-0.000093
 742	7.3730e+01	5.2422	54.196529	0.000790	7.903829	1.338945	-0.000158
 743	7.3829e+01	5.2215	54.079452	0.000588	5.877206	0.995626	-0.000118
 744	7.3928e+01	5.2023	53.938152	0.000709	7.093180	1.201617	-0.000142
 745	7.4028e+01	5.1818	53.825112	0.000567	5.674544	0.961294	-0.000114
 746	7.4127e+01	5.1617	53.683812	0.000709	7.093180	1.201617	-0.000142
 747	7.4227e+01	5.1427	53.534438	0.000750	7.498504	1.270281	-0.000150
 748	7.4326e+01	5.1220	53.433510	0.000507	5.066557	0.858298	-0.000101
 749	7.4426e+01	5.1025	53.312396	0.000608	6.079868	1.029958	-0.000122
 750	7.4525e+01	5.0817	53.134762	0.000892	8.917140	1.510604	-0.000179
 751	7.4625e+01	5.0616	53.025759	0.000547	5.471882	0.926962	-0.000110
 752	7.4725e+01	5.0417	52.888497	0.000689	6.890518	1.167285	-0.000138
 753	7.4824e+01	5.0227	52.771420	0.000588	5.877206	0.995626	-0.000118
 754	7.4924e+01	5.0027	52.634157	0.000689	6.890518	1.167285	-0.000138
 755	7.5023e+01	4.9828	52.533229	0.000507	5.066557	0.858298	-0.000101
 756	7.5123e+01	4.9633	52.400003	0.000669	6.687855	1.132953	-0.000134
 757	7.5222e+01	4.9427	52.230444	0.000851	8.511816	1.441941	-0.000170
 758	7.5322e+01	4.9224	52.105292	0.000628	6.282531	1.064290	-0.000126
 759	7.5421e+01	4.9032	51.976104	0.000649	6.485193	1.098621	-0.000130
 760	7.5520e+01	4.8833	51.867101	0.000547	5.471882	0.926962	-0.000110
 761	7.5620e+01	4.8626	51.709653	0.000790	7.903829	1.338945	-0.000158
 762	7.5719e+01	4.8431	51.628910	0.000405	4.053246	0.686638	-0.000081
 763	7.5819e+01	4.8235	51.463388	0.000831	8.309154	1.407609	-0.000166
 764	7.5918e+01	4.8034	51.326125	0.000689	6.890518	1.167285	-0.000138
 765	7.6018e+01	4.7826	51.188863	0.000689	6.890518	1.167285	-0.000138
 766	7.6118e+01	4.7636	51.051600	0.000689	6.890518	1.167285	-0.000138
 767	7.6217e+01	4.7436	50.930486	0.000608	6.079868	1.029958	-0.000122
 768	7.6317e+01	4.7240	50.809372	0.000608	6.079868	1.029958	-0.000122
 769	7.6416e+01	4.7033	50.659998	0.000750	7.498504	1.270281	-0.000150
 770	7.6516e+01	4.6832	50.534847	0.000628	6.282531	1.064290	-0.000126
 771	7.6615e+01	4.6639	50.405658	0.000649	6.485193	1.098621	-0.000130
 772	7.6715e+01	4.6430	50.288581	0.000588	5.877206	0.995626	-0.000118
 773	7.6814e+01	4.6227	50.098836	0.000953	9.525127	1.613600	-0.000191
 774	7.6913e+01	4.6041	49.981759	0.000588	5.877206	0.995626	-0.000118
 775	7.7013e+01	4.5840	49.844496	0.000689	6.890518	1.167285	-0.000138
 776	7.7112e+01	4.5641	49.723382	0.000608	6.079868	1.029958	-0.000122
 777	7.7212e+01	4.5446	49.594194	0.000649	6.485193	1.098621	-0.000130
 778	7.7311e+01	4.5249	49.436746	0.000790	7.903829	1.338945	-0.000158
 779	7.7411e+01	4.5049	49.315632	0.000608	6.079868	1.029958	-0.000122
 780	7.7510e+01	4.4842	49.129923	0.000932	9.322465	1.579268	-0.000187
 781	7.7610e+01	4.4647	49.061292	0.000345	3.445259	0.583643	-0.000069
 782	7.7710e+01	4.4451	48.907881	0.000770	7.701167	1.304613	-0.000154
 783	7.7809e+01	4.4241	48.770618	0.000689	6.890518	1.167285	-0.000138
 784	7.7909e+01	4.4047	48.625281	0.000730	7.295842	1.235949	-0.000146
 785	7.8008e+01	4.3847	48.479945	0.000730	7.295842	1.235949	-0.000146
 786	7.8108e+01	4.3645	48.362868	0.000588	5.877206	0.995626	-0.000118
 787	7.8207e+01	4.3456	48.213494	0.000750	7.498504	1.270281	-0.000150
 788	7.8306e+01	4.3249	48.080268	0.000669	6.687855	1.132953	-0.000134
 789	7.8406e+01	4.3047	47.922820	0.000790	7.903829	1.338945	-0.000158
 790	7.8505e+01	4.2863	47.821891	0.000507	5.066557	0.858298	-0.000101
 791	7.8605e+01	4.2651	47.636183	0.000932	9.322465	1.579268	-0.000187
 792	7.8704e+01	4.2458	47.527180	0.000547	5.471882	0.926962	-0.000110
 793	7.8804e+01	4.2254	47.406066	0.000608	6.079868	1.029958	-0.000122
 794	7.8903e+01	4.2052	47.272841	0.000669	6.687855	1.132953	-0.000134
 795	7.9003e+01	4.1857	47.119430	0.000770	7.701167	1.304613	-0.000154
 796	7.9103e+01	4.1656	46.961981	0.000790	7.903829	1.338945	-0.000158
 797	7.9202e+01	4.1454	46.848942	0.000567	5.674544	0.961294	-0.000114
 798	7.9302e+01	4.1262	46.699568	0.000750	7.498504	1.270281	-0.000150
 799	7.9401e+01	4.1058	46.538082	0.000811	8.106491	1.373277	-0.000162
 800	7.9501e+01	4.0850	46.384671	0.000770	7.701167	1.304613	-0.000154
 801	7.9600e+01	4.0658	46.259520	0.000628	6.282531	1.064290	-0.000126
 802	7.9700e+01	4.0459	46.126294	0.000669	6.687855	1.132953	-0.000134
 803	7.9799e+01	4.0264	45.989032	0.000689	6.890518	1.167285	-0.000138
 804	7.9898e+01	4.0066	45.827546	0.000811	8.106491	1.373277	-0.000162
 805	7.9998e+01	3.9858	45.698358	0.000649	6.485193	1.098621	-0.000130
 806	8.0097e+01	3.9666	45.540910	0.000790	7.903829	1.338945	-0.000158
 807	8.0197e+01	3.9458	45.383461	0.000790	7.903829	1.338945	-0.000158
 808	8.0296e+01	3.9269	45.226013	0.000790	7.903829	1.338945	-0.000158
 809	8.0396e+01	3.9065	45.068565	0.000790	7.903829	1.338945	-0.000158
 810	8.0496e+01	3.8860	44.951488	0.000588	5.877206	0.995626	-0.000118
 811	8.0595e+01	3.8668	44.810188	0.000709	7.093180	1.201617	-0.000142
 812	8.0695e+01	3.8470	44.693111	0.000588	5.877206	0.995626	-0.000118
 813	8.0794e+01	3.8274	44.555849	0.000689	6.890518	1.167285	-0.000138
 814	8.0894e+01	3.8070	44.374177	0.000912	9.119803	1.544936	-0.000183
 815	8.0993e+01	3.7876	44.228841	0.000730	7.295842	1.235949	-0.000146
 816	8.1093e+01	3.7670	44.099652	0.000649	6.485193	1.098621	-0.000130
 817	8.1192e+01	3.7481	43.917981	0.000912	9.119803	1.544936	-0.000183
 818	8.1291e+01	3.7267	43.776681	0.000709	7.093180	1.201617	-0.000142
 819	8.1391e+01	3.7069	43.655567	0.000608	6.079868	1.029958	-0.000122
 820	8.1490e+01	3.6883	43.494082	0.000811	8.106491	1.373277	-0.000162
 821	8.1590e+01	3.6681	43.352782	0.000709	7.093180	1.201617	-0.000142
 822	8.1689e+01	3.6474	43.215520	0.000689	6.890518	1.167285	-0.000138
 823	8.1789e+01	3.6282	43.066145	0.000750	7.498504	1.270281	-0.000150
 824	8.1888e+01	3.6077	42.912734	0.000770	7.701167	1.304613	-0.000154
 825	8.1988e+01	3.5885	42.771435	0.000709	7.093180	1.201617	-0.000142
 826	8.2088e+01	3.5677	42.605912	0.000831	8.309154	1.407609	-0.000166
 827	8.2187e+01	3.5476	42.448464	0.000790	7.903829	1.338945	-0.000158
 828	8.2287e+01	3.5284	42.323313	0.000628	6.282531	1.064290	-0.000126
 829	8.2386e+01	3.5079	42.145679	0.000892	8.917140	1.510604	-0.000179
 830	8.2486e+01	3.4884	41.980156	0.000831	8.309154	1.407609	-0.000166
 831	8.2585e+01	3.4679	41.826745	0.000770	7.701167	1.304613	-0.000154
 832	8.2684e+01	3.4489	41.685445	0.000709	7.093180	1.201617	-0.000142
 833	8.2784e+01	3.4295	41.548182	0.000689	6.890518	1.167285	-0.000138
 834	8.2883e+01	3.4081	41.386697	0.000811	8.106491	1.373277	-0.000162
 835	8.2983e+01	3.3886	41.221174	0.000831	8.309154	1.407609	-0.000166
 836	8.3082e+01	3.3685	41.075838	0.000730	7.295842	1.235949	-0.000146
 837	8.3182e+01	3.3488	40.882055	0.000973	9.727790	1.647932	-0.000195
 838	8.3281e+01	3.3284	40.785164	0.000486	4.863895	0.823966	-0.000097
 839	8.3381e+01	3.3083	40.603493	0.000912	9.119803	1.544936	-0.000183
 840	8.3481e+01	3.2894	40.442007	0.000811	8.106491	1.373277	-0.000162
 841	8.3580e+01	3.2687	40.308782	0.000669	6.687855	1.132953	-0.000134
 842	8.3680e+01	3.2500	40.175556	0.000669	6.687855	1.132953	-0.000134
 843	8.3779e+01	3.2299	39.997922	0.000892	8.917140	1.510604	-0.000179
 844	8.3879e+01	3.2085	39.852585	0.000730	7.295842	1.235949	-0.000146
 845	8.3978e+01	3.1895	39.670914	0.000912	9.119803	1.544936	-0.000183
 846	8.4078e+01	3.1691	39.529615	0.000709	7.093180	1.201617	-0.000142
 847	8.4177e+01	3.1499	39.347943	0.000912	9.119803	1.544936	-0.000183
 848	8.4276e+01	3.1300	39.210681	0.000689	6.890518	1.167285	-0.000138
 849	8.4376e+01	3.1100	39.061307	0.000750	7.498504	1.270281	-0.000150
 850	8.4475e+01	3.0889	38.936156	0.000628	6.282531	1.064290	-0.000126
 851	8.4575e+01	3.0691	38.782744	0.000770	7.701167	1.304613	-0.000154
 852	8.4674e+01	3.0495	38.645482	0.000689	6.890518	1.167285	-0.000138
 853	8.4774e+01	3.0291	38.447662	0.000993	9.930452	1.682264	-0.000199
 854	8.4874e+01	3.0096	38.326548	0.000608	6.079868	1.029958	-0.000122
 855	8.4973e+01	2.9891	38.132766	0.000973	9.727790	1.647932	-0.000195
 856	8.5073e+01	2.9697	37.991466	0.000709	7.093180	1.201617	-0.000142
 857	8.5172e+01	2.9490	37.829980	0.000811	8.106491	1.373277	-0.000162
 858	8.5272e+01	2.9296	37.712903	0.000588	5.877206	0.995626	-0.000118
 859	8.5371e+01	2.9099	37.507010	0.001034	10.335776	1.750928	-0.000207
 860	8.5471e+01	2.8901	37.381858	0.000628	6.282531	1.064290	-0.000126
 861	8.5570e+01	2.8701	37.212299	0.000851	8.511816	1.441941	-0.000170
 862	8.5669e+01	2.8503	37.046776	0.000831	8.309154	1.407609	-0.000166
 863	8.5769e+01	2.8312	36.889328	0.000790	7.903829	1.338945	-0.000158
 864	8.5868e+01	2.8104	36.752065	0.000689	6.890518	1.167285	-0.000138
 865	8.5968e+01	2.7905	36.546171	0.001034	10.335776	1.750928	-0.000207
 866	8.6067e+01	2.7721	36.425057	0.000608	6.079868	1.029958	-0.000122
 867	8.6167e+01	2.7502	36.259535	0.000831	8.309154	1.407609	-0.000166
 868	8.6266e+01	2.7312	36.089975	0.000851	8.511816	1.441941	-0.000170
 869	8.6366e+01	2.7103	35.904267	0.000932	9.322465	1.579268	-0.000187
 870	8.6466e+01	2.6904	35.795264	0.000547	5.471882	0.926962	-0.000110
 871	8.6565e+01	2.6705	35.641853	0.000770	7.701167	1.304613	-0.000154
 872	8.6665e+01	2.6504	35.439996	0.001013	10.133114	1.716596	-0.000203
 873	8.6764e+01	2.6308	35.290622	0.000750	7.498504	1.270281	-0.000150
 874	8.6864e+01	2.6113	35.133174	0.000790	7.903829	1.338945	-0.000158
 875	8.6963e+01	2.5909	34.979763	0.000770	7.701167	1.304613	-0.000154
 876	8.7063e+01	2.5717	34.785980	0.000973	9.727790	1.647932	-0.000195
 877	8.7162e+01	2.5520	34.664866	0.000608	6.079868	1.029958	-0.000122
 878	8.7261e+01	2.5313	34.531641	0.000669	6.687855	1.132953	-0.000134
 879	8.7361e+01	2.5115	34.366118	0.000831	8.309154	1.407609	-0.000166
 880	8.7460e+01	2.4920	34.176373	0.000953	9.525127	1.613600	-0.000191
 881	8.7560e+01	2.4725	34.031036	0.000730	7.295842	1.235949	-0.000146
 882	8.7659e+01	2.4522	33.849365	0.000912	9.119803	1.544936	-0.000183
 883	8.7759e+01	2.4326	33.716139	0.000669	6.687855	1.132953	-0.000134
 884	8.7859e+01	2.4125	33.578877	0.000689	6.890518	1.167285	-0.000138
 885	8.7958e+01	2.3913	33.413354	0.000831	8.309154	1.407609	-0.000166
 886	8.8058e+01	2.3727	33.247831	0.000831	8.309154	1.407609	-0.000166
 887	8.8157e+01	2.3518	33.041937	0.001034	10.335776	1.750928	-0.000207
 888	8.8257e+01	2.3322	32.920823	0.000608	6.079868	1.029958	-0.000122
 889	8.8356e+01	2.3134	32.767412	0.000770	7.701167	1.304613	-0.000154
 890	8.8456e+01	2.2926	32.561518	0.001034	10.335776	1.750928	-0.000207
 891	8.8555e+01	2.2717	32.452516	0.000547	5.471882	0.926962	-0.000110
 892	8.8654e+01	2.2527	32.286993	0.000831	8.309154	1.407609	-0.000166
 893	8.8754e+01	2.2324	32.109359	0.000892	8.917140	1.510604	-0.000179
 894	8.8853e+01	2.2128	31.972096	0.000689	6.890518	1.167285	-0.000138
 895	8.8953e+01	2.1935	31.810611	0.000811	8.106491	1.373277	-0.000162
 896	8.9052e+01	2.1741	31.624903	0.000932	9.322465	1.579268	-0.000187
 897	8.9152e+01	2.1520	31.467455	0.000790	7.903829	1.338945	-0.000158
 898	8.9251e+01	2.1334	31.318080	0.000750	7.498504	1.270281	-0.000150
 899	8.9351e+01	2.1139	31.152558	0.000831	8.309154	1.407609	-0.000166
 900	8.9451e+01	2.0930	30.991072	0.000811	8.106491	1.373277	-0.000162
 901	8.9550e+01	2.0731	30.837661	0.000770	7.701167	1.304613	-0.000154
 902	8.9650e+01	2.0530	30.664064	0.000871	8.714478	1.476273	-0.000174
 903	8.9749e+01	2.0329	30.510653	0.000770	7.701167	1.304613	-0.000154
 904	8.9849e+01	2.0135	30.328982	0.000912	9.119803	1.544936	-0.000183
 905	8.9948e+01	1.9929	30.195757	0.000669	6.687855	1.132953	-0.000134
 906	9.0047e+01	1.9733	30.001974	0.000973	9.727790	1.647932	-0.000195
 907	9.0147e+01	1.9537	29.856637	0.000730	7.295842	1.235949	-0.000146
 908	9.0246e+01	1.9329	29.679003	0.000892	8.917140	1.510604	-0.000179
 909	9.0346e+01	1.9131	29.525592	0.000770	7.701167	1.304613	-0.000154
 910	9.0445e+01	1.8935	29.388330	0.000689	6.890518	1.167285	-0.000138
 911	9.0545e+01	1.8736	29.214733	0.000871	8.714478	1.476273	-0.000174
 912	9.0644e+01	1.8537	29.053247	0.000811	8.106491	1.373277	-0.000162
 913	9.0744e+01	1.8348	28.907910	0.000730	7.295842	1.235949	-0.000146
 914	9.0844e+01	1.8135	28.726239	0.000912	9.119803	1.544936	-0.000183
 915	9.0943e+01	1.7944	28.597051	0.000649	6.485193	1.098621	-0.000130
 916	9.1043e+01	1.7749	28.435566	0.000811	8.106491	1.373277	-0.000162
 917	9.1142e+01	1.7538	28.241783	0.000973	9.727790	1.647932	-0.000195
 918	9.1242e+01	1.7346	28.112595	0.000649	6.485193	1.098621	-0.000130
 919	9.1341e+01	1.7125	27.922849	0.000953	9.525127	1.613600	-0.000191
 920	9.1441e+01	1.6949	27.777512	0.000730	7.295842	1.235949	-0.000146
 921	9.1540e+01	1.6743	27.579693	0.000993	9.930452	1.682264	-0.000199
 922	9.1639e+01	1.6546	27.454542	0.000628	6.282531	1.064290	-0.000126
 923	9.1739e+01	1.6341	27.280945	0.000871	8.714478	1.476273	-0.000174
 924	9.1838e+01	1.6148	27.119459	0.000811	8.106491	1.373277	-0.000162
 925	9.1938e+01	1.5942	26.945862	0.000871	8.714478	1.476273	-0.000174
 926	9.2037e+01	1.5752	26.808600	0.000689	6.890518	1.167285	-0.000138
 927	9.2137e+01	1.5554	26.606743	0.001013	10.133114	1.716596	-0.000203
 928	9.2237e+01	1.5360	26.453332	0.000770	7.701167	1.304613	-0.000154
 929	9.2336e+01	1.5149	26.291846	0.000811	8.106491	1.373277	-0.000162
 930	9.2436e+01	1.4950	26.126324	0.000831	8.309154	1.407609	-0.000166
 931	9.2535e+01	1.4754	26.005210	0.000608	6.079868	1.029958	-0.000122
 932	9.2635e+01	1.4551	25.807390	0.000993	9.930452	1.682264	-0.000199
 933	9.2734e+01	1.4350	25.658016	0.000750	7.498504	1.270281	-0.000150
 934	9.2834e+01	1.4153	25.504605	0.000770	7.701167	1.304613	-0.000154
 935	9.2933e+01	1.3949	25.322934	0.000912	9.119803	1.544936	-0.000183
 936	9.3032e+01	1.3755	25.141263	0.000912	9.119803	1.544936	-0.000183
 937	9.3132e+01	1.3555	25.004000	0.000689	6.890518	1.167285	-0.000138
 938	9.3231e+01	1.3359	24.806181	0.000993	9.930452	1.682264	-0.000199
 939	9.3331e+01	1.3154	24.660844	0.000730	7.295842	1.235949	-0.000146
 940	9.3430e+01	1.2951	24.503395	0.000790	7.903829	1.338945	-0.000158
 941	9.3530e+01	1.2756	24.337873	0.000831	8.309154	1.407609	-0.000166
 942	9.3629e+01	1.2566	24.184462	0.000770	7.701167	1.304613	-0.000154
 943	9.3729e+01	1.2359	23.990679	0.000973	9.727790	1.647932	-0.000195
 944	9.3829e+01	1.2164	23.841305	0.000750	7.498504	1.270281	-0.000150
 945	9.3928e+01	1.1971	23.691931	0.000750	7.498504	1.270281	-0.000150
 946	9.4028e+01	1.1762	23.514297	0.000892	8.917140	1.510604	-0.000179
 947	9.4127e+01	1.1573	23.320515	0.000973	9.727790	1.647932	-0.000195
 948	9.4227e+01	1.1369	23.163066	0.000790	7.903829	1.338945	-0.000158
 949	9.4326e+01	1.1177	23.017729	0.000730	7.295842	1.235949	-0.000146
 950	9.4425e+01	1.0968	22.840095	0.000892	8.917140	1.510604	-0.000179
 951	9.4525e+01	1.0768	22.642276	0.000993	9.930452	1.682264	-0.000199
 952	9.4624e+01	1.0578	22.464642	0.000892	8.917140	1.510604	-0.000179
 953	9.4724e+01	1.0365	22.351602	0.000567	5.674544	0.961294	-0.000114
 954	9.4823e+01	1.0183	22.141671	0.001054	10.538439	1.785260	-0.000211
 955	9.4923e+01	0.9969	22.000371	0.000709	7.093180	1.201617	-0.000142
 956	9.5022e+01	0.9775	21.822737	0.000892	8.917140	1.510604	-0.000179
 957	9.5122e+01	0.9573	21.649140	0.000871	8.714478	1.476273	-0.000174
 958	9.5222e+01	0.9373	21.487655	0.000811	8.106491	1.373277	-0.000162
 959	9.5321e+01	0.9187	21.318095	0.000851	8.511816	1.441941	-0.000170
 960	9.5421e+01	0.8970	21.164684	0.000770	7.701167	1.304613	-0.000154
 961	9.5520e+01	0.8780	20.966864	0.000993	9.930452	1.682264	-0.000199
 962	9.5620e+01	0.8581	20.797305	0.000851	8.511816	1.441941	-0.000170
 963	9.5719e+01	0.8385	20.611597	0.000932	9.322465	1.579268	-0.000187
 964	9.5819e+01	0.8178	20.482408	0.000649	6.485193	1.098621	-0.000130
 965	9.5918e+01	0.7972	20.324960	0.000790	7.903829	1.338945	-0.000158
 966	9.6017e+01	0.7783	20.155400	0.000851	8.511816	1.441941	-0.000170
 967	9.6117e+01	0.7583	19.949506	0.001034	10.335776	1.750928	-0.000207
 968	9.6216e+01	0.7386	19.767835	0.000912	9.119803	1.544936	-0.000183
 969	9.6316e+01	0.7176	19.578090	0.000953	9.525127	1.613600	-0.000191
 970	9.6415e+01	0.6983	19.416604	0.000811	8.106491	1.373277	-0.000162
 971	9.6515e+01	0.6791	19.259156	0.000790	7.903829	1.338945	-0.000158
 972	9.6615e+01	0.6577	19.069411	0.000953	9.525127	1.613600	-0.000191
 973	9.6714e+01	0.6386	18.932148	0.000689	6.890518	1.167285	-0.000138
 974	9.6814e+01	0.6188	18.730291	0.001013	10.133114	1.716596	-0.000203
 975	9.6913e+01	0.5983	18.576880	0.000770	7.701167	1.304613	-0.000154
 976	9.7013e+01	0.5791	18.383098	0.000973	9.727790	1.647932	-0.000195
 977	9.7112e+01	0.5584	18.189315	0.000973	9.727790	1.647932	-0.000195
 978	9.7212e+01	0.5399	18.060127	0.000649	6.485193	1.098621	-0.000130
 979	9.7311e+01	0.5190	17.854233	0.001034	10.335776	1.750928	-0.000207
 980	9.7410e+01	0.4993	17.684673	0.000851	8.511816	1.441941	-0.000170
 981	9.7510e+01	0.4792	17.503002	0.000912	9.119803	1.544936	-0.000183
 982	9.7609e+01	0.4599	17.301145	0.001013	10.133114	1.716596	-0.000203
 983	9.7709e+01	0.4397	17.151771	0.000750	7.498504	1.270281	-0.000150
 984	9.7808e+01	0.4193	16.957989	0.000973	9.727790	1.647932	-0.000195
 985	9.7908e+01	0.4001	16.824763	0.000669	6.687855	1.132953	-0.000134
 986	9.8007e+01	0.3795	16.614832	0.001054	10.538439	1.785260	-0.000211
 987	9.8107e+01	0.3593	16.457384	0.000790	7.903829	1.338945	-0.000158
 988	9.8207e+01	0.3393	16.255527	0.001013	10.133114	1.716596	-0.000203
 989	9.8306e+01	0.3206	16.081930	0.000871	8.714478	1.476273	-0.000174
 990	9.8406e+01	0.2997	15.920445	0.000811	8.106491	1.373277	-0.000162
 991	9.8505e+01	0.2798	15.738774	0.000912	9.119803	1.544936	-0.000183
 992	9.8605e+01	0.2603	15.577288	0.000811	8.106491	1.373277	-0.000162
 993	9.8704e+01	0.2398	15.395617	0.000912	9.119803	1.544936	-0.000183
 994	9.8803e+01	0.2189	15.209909	0.000932	9.322465	1.579268	-0.000187
 995	9.8903e+01	0.2004	15.012089	0.000993	9.930452	1.682264	-0.000199
 996	9.9002e+01	0.1795	14.882901	0.000649	6.485193	1.098621	-0.000130
 997	9.9102e+01	0.1605	14.685081	0.000993	9.930452	1.682264	-0.000199
 998	9.9201e+01	0.1405	14.479187	0.001034	10.335776	1.750928	-0.000207
 999	9.9301e+01	0.1205	14.333850	0.000730	7.295842	1.235949	-0.000146
1000	9.9400e+01	0.1010	14.119882	0.001074	10.741101	1.819592	-0.000215
1001	9.9500e+01	0.0802	13.897840	0.001115	11.146425	1.888256	-0.000223
1002	9.9600e+01	0.0610	13.748466	0.000750	7.498504	1.270281	-0.000150
1003	9.9699e+01	0.0399	13.603129	0.000730	7.295842	1.235949	-0.000146
1004	9.9799e+01	0.0205	13.413383	0.000953	9.525127	1.613600	-0.000191
1005	9.9898e+01	0.0004	13.239787	0.000871	8.714478	1.476273	-0.000174
1006	9.9998e+01	-0.0168	13.062153	0.000892	8.917140	1.510604	-0.000179
1007	1.0010e+02	-0.0377	12.864333	0.000993	9.930452	1.682264	-0.000199
1008	1.0020e+02	-0.0566	12.710922	0.000770	7.701167	1.304613	-0.000154
1009	1.0030e+02	-0.0778	12.509065	0.001013	10.133114	1.716596	-0.000203
1010	1.0040e+02	-0.0972	12.307208	0.001013	10.133114	1.716596	-0.000203
1011	1.0050e+02	-0.1181	12.133611	0.000871	8.714478	1.476273	-0.000174
1012	1.0059e+02	-0.1373	11.976163	0.000790	7.903829	1.338945	-0.000158
1013	1.0069e+02	-0.1574	11.762195	0.001074	10.741101	1.819592	-0.000215
1014	1.0079e+02	-0.1770	11.592635	0.000851	8.511816	1.441941	-0.000170
1015	1.0089e+02	-0.1968	11.415001	0.000892	8.917140	1.510604	-0.000179
1016	1.0099e+02	-0.2166	11.209107	0.001034	10.335776	1.750928	-0.000207
1017	1.0109e+02	-0.2368	11.023399	0.000932	9.322465	1.579268	-0.000187
1018	1.0119e+02	-0.2569	10.882099	0.000709	7.093180	1.201617	-0.000142
1019	1.0129e+02	-0.2768	10.672168	0.001054	10.538439	1.785260	-0.000211
1020	1.0139e+02	-0.2959	10.502609	0.000851	8.511816	1.441941	-0.000170
1021	1.0149e+02	-0.3163	10.316900	0.000932	9.322465	1.579268	-0.000187
1022	1.0159e+02	-0.3363	10.135229	0.000912	9.119803	1.544936	-0.000183
1023	1.0169e+02	-0.3559	9.973744	0.000811	8.106491	1.373277	-0.000162
1024	1.0179e+02	-0.3767	9.771887	0.001013	10.133114	1.716596	-0.000203
1025	1.0189e+02	-0.3966	9.574067	0.000993	9.930452	1.682264	-0.000199
1026	1.0199e+02	-0.4161	9.420656	0.000770	7.701167	1.304613	-0.000154
1027	1.0209e+02	-0.4356	9.287431	0.000669	6.687855	1.132953	-0.000134
1028	1.0219e+02	-0.4556	9.065388	0.001115	11.146425	1.888256	-0.000223
1029	1.0229e+02	-0.4765	8.875643	0.000953	9.525127	1.613600	-0.000191
1030	1.0239e+02	-0.4955	8.714157	0.000811	8.106491	1.373277	-0.000162
1031	1.0248e+02	-0.5160	8.504226	0.001054	10.538439	1.785260	-0.000211
1032	1.0258e+02	-0.5367	8.362927	0.000709	7.093180	1.201617	-0.000142
1033	1.0268e+02	-0.5563	8.189330	0.000871	8.714478	1.476273	-0.000174
1034	1.0278e+02	-0.5764	7.955176	0.001175	11.754412	1.991251	-0.000235
1035	1.0288e+02	-0.5960	7.801765	0.000770	7.701167	1.304613	-0.000154
1036	1.0298e+02	-0.6148	7.607982	0.000973	9.727790	1.647932	-0.000195
1037	1.0308e+02	-0.6358	7.438423	0.000851	8.511816	1.441941	-0.000170
1038	1.0318e+02	-0.6552	7.248677	0.000953	9.525127	1.613600	-0.000191
1039	1.0328e+02	-0.6758	7.042783	0.001034	10.335776	1.750928	-0.000207
1040	1.0338e+02	-0.6950	6.865149	0.000892	8.917140	1.510604	-0.000179
1041	1.0348e+02	-0.7159	6.691552	0.000871	8.714478	1.476273	-0.000174
1042	1.0358e+02	-0.7346	6.513919	0.000892	8.917140	1.510604	-0.000179
1043	1.0368e+02	-0.7547	6.352433	0.000811	8.106491	1.373277	-0.000162
1044	1.0378e+02	-0.7744	6.134428	0.001094	10.943763	1.853924	-0.000219
1045	1.0388e+02	-0.7949	5.964868	0.000851	8.511816	1.441941	-0.000170
1046	1.0398e+02	-0.8148	5.771086	0.000973	9.727790	1.647932	-0.000195
1047	1.0408e+02	-0.8350	5.601526	0.000851	8.511816	1.441941	-0.000170
1048	1.0418e+02	-0.8542	5.456189	0.000730	7.295842	1.235949	-0.000146
1049	1.0428e+02	-0.8736	5.250295	0.001034	10.335776	1.750928	-0.000207
1050	1.0438e+02	-0.8954	5.040364	0.001054	10.538439	1.785260	-0.000211
1051	1.0447e+02	-0.9151	4.903101	0.000689	6.890518	1.167285	-0.000138
1052	1.0457e+02	-0.9343	4.705282	0.000993	9.930452	1.682264	-0.000199
1053	1.0467e+02	-0.9550	4.511499	0.000973	9.727790	1.647932	-0.000195
1054	1.0477e+02	-0.9744	4.329828	0.000912	9.119803	1.544936	-0.000183
1055	1.0487e+02	-0.9952	4.168343	0.000811	8.106491	1.373277	-0.000162
1056	1.0497e+02	-1.0149	3.974560	0.000973	9.727790	1.647932	-0.000195
1057	1.0507e+02	-1.0336	3.800963	0.000871	8.714478	1.476273	-0.000174
1058	1.0517e+02	-1.0538	3.627366	0.000871	8.714478	1.476273	-0.000174
1059	1.0527e+02	-1.0740	3.433584	0.000973	9.727790	1.647932	-0.000195
1060	1.0537e+02	-1.0938	3.276136	0.000790	7.903829	1.338945	-0.000158
1061	1.0547e+02	-1.1139	3.074279	0.001013	10.133114	1.716596	-0.000203
1062	1.0557e+02	-1.1340	2.896645	0.000892	8.917140	1.510604	-0.000179
1063	1.0567e+02	-1.1546	2.731122	0.000831	8.309154	1.407609	-0.000166
1064	1.0577e+02	-1.1732	2.553488	0.000892	8.917140	1.510604	-0.000179
1065	1.0587e+02	-1.1935	2.347594	0.001034	10.335776	1.750928	-0.000207
1066	1.0597e+02	-1.2139	2.186109	0.000811	8.106491	1.373277	-0.000162
1067	1.0607e+02	-1.2340	2.012512	0.000871	8.714478	1.476273	-0.000174
1068	1.0617e+02	-1.2532	1.826804	0.000932	9.322465	1.579268	-0.000187
1069	1.0627e+02	-1.2723	1.616873	0.001054	10.538439	1.785260	-0.000211
1070	1.0637e+02	-1.2936	1.471536	0.000730	7.295842	1.235949	-0.000146
1071	1.0647e+02	-1.3129	1.318125	0.000770	7.701167	1.304613	-0.000154
1072	1.0656e+02	-1.3327	1.132417	0.000932	9.322465	1.579268	-0.000187
1073	1.0666e+02	-1.3519	0.914411	0.001094	10.943763	1.853924	-0.000219
1074	1.0676e+02	-1.3722	0.756963	0.000790	7.903829	1.338945	-0.000158
1075	1.0686e+02	-1.3925	0.559143	0.000993	9.930452	1.682264	-0.000199
1076	1.0696e+02	-1.4127	0.393621	0.000831	8.309154	1.407609	-0.000166
1077	1.0706e+02	-1.4322	0.224061	0.000851	8.511816	1.441941	-0.000170
1078	1.0716e+02	-1.4523	0.038353	0.000932	9.322465	1.579268	-0.000187
1079	1.0726e+02	-1.4719	-0.147355	0.000932	9.322465	1.579268	-0.000187
1080	1.0736e+02	-1.4922	-0.320952	0.000871	8.714478	1.476273	-0.000174
1081	1.0746e+02	-1.5118	-0.522809	0.001013	10.133114	1.716596	-0.000203
1082	1.0756e+02	-1.5320	-0.692369	0.000851	8.511816	1.441941	-0.000170
1083	1.0766e+02	-1.5514	-0.870003	0.000892	8.917140	1.510604	-0.000179
1084	1.0776e+02	-1.5723	-1.007265	0.000689	6.890518	1.167285	-0.000138
1085	1.0786e+02	-1.5920	-1.237382	0.001155	11.551750	1.956919	-0.000231
1086	1.0796e+02	-1.6120	-1.374645	0.000689	6.890518	1.167285	-0.000138
1087	1.0806e+02	-1.6318	-1.564390	0.000953	9.525127	1.613600	-0.000191
1088	1.0816e+02	-1.6513	-1.705690	0.000709	7.093180	1.201617	-0.000142
1089	1.0826e+02	-1.6718	-1.911584	0.001034	10.335776	1.750928	-0.000207
1090	1.0836e+02	-1.6913	-2.089218	0.000892	8.917140	1.510604	-0.000179
1091	1.0845e+02	-1.7123	-2.250703	0.000811	8.106491	1.373277	-0.000162
1092	1.0855e+02	-1.7313	-2.432374	0.000912	9.119803	1.544936	-0.000183
1093	1.0865e+02	-1.7511	-2.593860	0.000811	8.106491	1.373277	-0.000162
1094	1.0875e+02	-1.7719	-2.771494	0.000892	8.917140	1.510604	-0.000179
1095	1.0885e+02	-1.7912	-2.941053	0.000851	8.511816	1.441941	-0.000170
1096	1.0895e+02	-1.8113	-3.138873	0.000993	9.930452	1.682264	-0.000199
1097	1.0905e+02	-1.8311	-3.316507	0.000892	8.917140	1.510604	-0.000179
1098	1.0915e+02	-1.8512	-3.469918	0.000770	7.701167	1.304613	-0.000154
1099	1.0925e+02	-1.8712	-3.695998	0.001135	11.349088	1.922588	-0.000227
1100	1.0935e+02	-1.8904	-3.849409	0.000770	7.701167	1.304613	-0.000154
1101	1.0945e+02	-1.9104	-3.994746	0.000730	7.295842	1.235949	-0.000146
1102	1.0955e+02	-1.9312	-4.176417	0.000912	9.119803	1.544936	-0.000183
1103	1.0965e+02	-1.9517	-4.370199	0.000973	9.727790	1.647932	-0.000195
1104	1.0975e+02	-1.9705	-4.519573	0.000750	7.498504	1.270281	-0.000150
1105	1.0985e+02	-1.9912	-4.737579	0.001094	10.943763	1.853924	-0.000219
1106	1.0995e+02	-2.0103	-4.927324	0.000953	9.525127	1.613600	-0.000191
1107	1.1005e+02	-2.0294	-5.080735	0.000770	7.701167	1.304613	-0.000154
1108	1.1015e+02	-2.0505	-5.254332	0.000871	8.714478	1.476273	-0.000174
1109	1.1025e+02	-2.0703	-5.440040	0.000932	9.322465	1.579268	-0.000187
1110	1.1035e+02	-2.0905	-5.649971	0.001054	10.538439	1.785260	-0.000211
1111	1.1044e+02	-2.1091	-5.819531	0.000851	8.511816	1.441941	-0.000170
1112	1.1054e+02	-2.1304	-5.956794	0.000689	6.890518	1.167285	-0.000138
1113	1.1064e+02	-2.1500	-6.158651	0.001013	10.133114	1.716596	-0.000203
1114	1.1074e+02	-2.1697	-6.316099	0.000790	7.903829	1.338945	-0.000158
1115	1.1084e+02	-2.1904	-6.513919	0.000993	9.930452	1.682264	-0.000199
1116	1.1094e+02	-2.2098	-6.675404	0.000811	8.106491	1.373277	-0.000162
1117	1.1104e+02	-2.2293	-6.849001	0.000871	8.714478	1.476273	-0.000174
1118	1.1114e+02	-2.2496	-7.075080	0.001135	11.349088	1.922588	-0.000227
1119	1.1124e+02	-2.2699	-7.204269	0.000649	6.485193	1.098621	-0.000130
1120	1.1134e+02	-2.2903	-7.377866	0.000871	8.714478	1.476273	-0.000174
1121	1.1144e+02	-2.3092	-7.555500	0.000892	8.917140	1.510604	-0.000179
1122	1.1154e+02	-2.3291	-7.733134	0.000892	8.917140	1.510604	-0.000179
1123	1.1164e+02	-2.3492	-7.858285	0.000628	6.282531	1.064290	-0.000126
1124	1.1174e+02	-2.3691	-8.080327	0.001115	11.146425	1.888256	-0.000223
1125	1.1184e+02	-2.3894	-8.270073	0.000953	9.525127	1.613600	-0.000191
1126	1.1194e+02	-2.4094	-8.415409	0.000730	7.295842	1.235949	-0.000146
1127	1.1204e+02	-2.4286	-8.609192	0.000973	9.727790	1.647932	-0.000195
1128	1.1214e+02	-2.4491	-8.754529	0.000730	7.295842	1.235949	-0.000146
1129	1.1224e+02	-2.4682	-8.952348	0.000993	9.930452	1.682264	-0.000199
1130	1.1234e+02	-2.4899	-9.166317	0.001074	10.741101	1.819592	-0.000215
1131	1.1244e+02	-2.5090	-9.287431	0.000608	6.079868	1.029958	-0.000122
1132	1.1253e+02	-2.5280	-9.509473	0.001115	11.146425	1.888256	-0.000223
1133	1.1263e+02	-2.5479	-9.683070	0.000871	8.714478	1.476273	-0.000174
1134	1.1273e+02	-2.5677	-9.836481	0.000770	7.701167	1.304613	-0.000154
1135	1.1283e+02	-2.5884	-10.026227	0.000953	9.525127	1.613600	-0.000191
1136	1.1293e+02	-2.6083	-10.195786	0.000851	8.511816	1.441941	-0.000170
1137	1.1303e+02	-2.6279	-10.377457	0.000912	9.119803	1.544936	-0.000183
1138	1.1313e+02	-2.6471	-10.542980	0.000831	8.309154	1.407609	-0.000166
1139	1.1323e+02	-2.6678	-10.720614	0.000892	8.917140	1.510604	-0.000179
1140	1.1333e+02	-2.6880	-10.890174	0.000851	8.511816	1.441941	-0.000170
1141	1.1343e+02	-2.7075	-11.120290	0.001155	11.551750	1.956919	-0.000231
1142	1.1353e+02	-2.7277	-11.253516	0.000669	6.687855	1.132953	-0.000134
1143	1.1363e+02	-2.7475	-11.423076	0.000851	8.511816	1.441941	-0.000170
1144	1.1373e+02	-2.7664	-11.620895	0.000993	9.930452	1.682264	-0.000199
1145	1.1383e+02	-2.7887	-11.774306	0.000770	7.701167	1.304613	-0.000154
1146	1.1393e+02	-2.8079	-11.980200	0.001034	10.335776	1.750928	-0.000207
1147	1.1403e+02	-2.8278	-12.137649	0.000790	7.903829	1.338945	-0.000158
1148	1.1413e+02	-2.8471	-12.311245	0.000871	8.714478	1.476273	-0.000174
1149	1.1423e+02	-2.8665	-12.476768	0.000831	8.309154	1.407609	-0.000166
1150	1.1433e+02	-2.8867	-12.666513	0.000953	9.525127	1.613600	-0.000191
1151	1.1442e+02	-2.9062	-12.832036	0.000831	8.309154	1.407609	-0.000166
1152	1.1452e+02	-2.9272	-13.001596	0.000851	8.511816	1.441941	-0.000170
1153	1.1462e+02	-2.9463	-13.183267	0.000912	9.119803	1.544936	-0.000183
1154	1.1472e+02	-2.9674	-13.364938	0.000912	9.119803	1.544936	-0.000183
1155	1.1482e+02	-2.9849	-13.546609	0.000912	9.119803	1.544936	-0.000183
1156	1.1492e+02	-3.0063	-13.724243	0.000892	8.917140	1.510604	-0.000179
1157	1.1502e+02	-3.0264	-13.897840	0.000871	8.714478	1.476273	-0.000174
1158	1.1512e+02	-3.0463	-14.079511	0.000912	9.119803	1.544936	-0.000183
1159	1.1522e+02	-3.0670	-14.281368	0.001013	10.133114	1.716596	-0.000203
1160	1.1532e+02	-3.0853	-14.430742	0.000750	7.498504	1.270281	-0.000150
1161	1.1542e+02	-3.1067	-14.616450	0.000932	9.322465	1.579268	-0.000187
1162	1.1552e+02	-3.1260	-14.773898	0.000790	7.903829	1.338945	-0.000158
1163	1.1562e+02	-3.1469	-14.951532	0.000892	8.917140	1.510604	-0.000179
1164	1.1572e+02	-3.1659	-15.096869	0.000730	7.295842	1.235949	-0.000146
1165	1.1582e+02	-3.1866	-15.290652	0.000973	9.727790	1.647932	-0.000195
1166	1.1592e+02	-3.2062	-15.468286	0.000892	8.917140	1.510604	-0.000179
1167	1.1602e+02	-3.2262	-15.645920	0.000892	8.917140	1.510604	-0.000179
1168	1.1612e+02	-3.2458	-15.847776	0.001013	10.133114	1.716596	-0.000203
1169	1.1622e+02	-3.2657	-16.013299	0.000831	8.309154	1.407609	-0.000166
1170	1.1632e+02	-3.2858	-16.162673	0.000750	7.498504	1.270281	-0.000150
1171	1.1642e+02	-3.3054	-16.376641	0.001074	10.741101	1.819592	-0.000215
1172	1.1651e+02	-3.3258	-16.558312	0.000912	9.119803	1.544936	-0.000183
1173	1.1661e+02	-3.3456	-16.711723	0.000770	7.701167	1.304613	-0.000154
1174	1.1671e+02	-3.3655	-16.925692	0.001074	10.741101	1.819592	-0.000215
1175	1.1681e+02	-3.3856	-17.054880	0.000649	6.485193	1.098621	-0.000130
1176	1.1691e+02	-3.4050	-17.232514	0.000892	8.917140	1.510604	-0.000179
1177	1.1701e+02	-3.4256	-17.377851	0.000730	7.295842	1.235949	-0.000146
1178	1.1711e+02	-3.4451	-17.599893	0.001115	11.146425	1.888256	-0.000223
1179	1.1721e+02	-3.4650	-17.797713	0.000993	9.930452	1.682264	-0.000199
1180	1.1731e+02	-3.4851	-17.930938	0.000669	6.687855	1.132953	-0.000134
1181	1.1741e+02	-3.5046	-18.104535	0.000871	8.714478	1.476273	-0.000174
1182	1.1751e+02	-3.5248	-18.266021	0.000811	8.106491	1.373277	-0.000162
1183	1.1761e+02	-3.5449	-18.447692	0.000912	9.119803	1.544936	-0.000183
1184	1.1771e+02	-3.5648	-18.649549	0.001013	10.133114	1.716596	-0.000203
1185	1.1781e+02	-3.5846	-18.806997	0.000790	7.903829	1.338945	-0.000158
1186	1.1791e+02	-3.6041	-19.000779	0.000973	9.727790	1.647932	-0.000195
1187	1.1801e+02	-3.6241	-19.158228	0.000790	7.903829	1.338945	-0.000158
1188	1.1811e+02	-3.6447	-19.323750	0.000831	8.309154	1.407609	-0.000166
1189	1.1821e+02	-3.6652	-19.485236	0.000811	8.106491	1.373277	-0.000162
1190	1.1831e+02	-3.6853	-19.654795	0.000851	8.511816	1.441941	-0.000170
1191	1.1841e+02	-3.7042	-19.852615	0.000993	9.930452	1.682264	-0.000199
1192	1.1850e+02	-3.7238	-20.018138	0.000831	8.309154	1.407609	-0.000166
1193	1.1860e+02	-3.7445	-20.187697	0.000851	8.511816	1.441941	-0.000170
1194	1.1870e+02	-3.7640	-20.369368	0.000912	9.119803	1.544936	-0.000183
1195	1.1880e+02	-3.7836	-20.518742	0.000750	7.498504	1.270281	-0.000150
1196	1.1890e+02	-3.8037	-20.688302	0.000851	8.511816	1.441941	-0.000170
1197	1.1900e+02	-3.8242	-20.825565	0.000689	6.890518	1.167285	-0.000138
1198	1.1910e+02	-3.8440	-21.003199	0.000892	8.917140	1.510604	-0.000179
1199	1.1920e+02	-3.8632	-21.188907	0.000932	9.322465	1.579268	-0.000187
1200	1.1930e+02	-3.8834	-21.354429	0.000831	8.309154	1.407609	-0.000166
1201	1.1940e+02	-3.9038	-21.548212	0.000973	9.727790	1.647932	-0.000195
1202	1.1950e+02	-3.9227	-21.709697	0.000811	8.106491	1.373277	-0.000162
1203	1.1960e+02	-3.9423	-21.883294	0.000871	8.714478	1.476273	-0.000174
1204	1.1970e+02	-3.9639	-22.040743	0.000790	7.903829	1.338945	-0.000158
1205	1.1980e+02	-3.9828	-22.238562	0.000993	9.930452	1.682264	-0.000199
1206	1.1990e+02	-4.0038	-22.383899	0.000730	7.295842	1.235949	-0.000146
1207	1.2000e+02	-4.0233	-22.517125	0.000669	6.687855	1.132953	-0.000134
1208	1.2010e+02	-4.0429	-22.710907	0.000973	9.727790	1.647932	-0.000195
1209	1.2020e+02	-4.0628	-22.860281	0.000750	7.498504	1.270281	-0.000150
1210	1.2030e+02	-4.0836	-23.074249	0.001074	10.741101	1.819592	-0.000215
1211	1.2039e+02	-4.1028	-23.223623	0.000750	7.498504	1.270281	-0.000150
1212	1.2049e+02	-4.1220	-23.372997	0.000750	7.498504	1.270281	-0.000150
1213	1.2059e+02	-4.1425	-23.558706	0.000932	9.322465	1.579268	-0.000187
1214	1.2069e+02	-4.1629	-23.720191	0.000811	8.106491	1.373277	-0.000162
1215	1.2079e+02	-4.1818	-23.889751	0.000851	8.511816	1.441941	-0.000170
1216	1.2089e+02	-4.2024	-24.063348	0.000871	8.714478	1.476273	-0.000174
1217	1.2099e+02	-4.2224	-24.208684	0.000730	7.295842	1.235949	-0.000146
1218	1.2109e+02	-4.2422	-24.390356	0.000912	9.119803	1.544936	-0.000183
1219	1.2119e+02	-4.2621	-24.535692	0.000730	7.295842	1.235949	-0.000146
1220	1.2129e+02	-4.2824	-24.721401	0.000932	9.322465	1.579268	-0.000187
1221	1.2139e+02	-4.3024	-24.850589	0.000649	6.485193	1.098621	-0.000130
1222	1.2149e+02	-4.3225	-25.052446	0.001013	10.133114	1.716596	-0.000203
1223	1.2159e+02	-4.3433	-25.169523	0.000588	5.877206	0.995626	-0.000118
1224	1.2169e+02	-4.3625	-25.351194	0.000912	9.119803	1.544936	-0.000183
1225	1.2179e+02	-4.3822	-25.508642	0.000790	7.903829	1.338945	-0.000158
1226	1.2189e+02	-4.4012	-25.674165	0.000831	8.309154	1.407609	-0.000166
1227	1.2199e+02	-4.4212	-25.859873	0.000932	9.322465	1.579268	-0.000187
1228	1.2209e+02	-4.4415	-26.017321	0.000790	7.903829	1.338945	-0.000158
1229	1.2219e+02	-4.4617	-26.166695	0.000750	7.498504	1.270281	-0.000150
1230	1.2229e+02	-4.4824	-26.279735	0.000567	5.674544	0.961294	-0.000114
1231	1.2239e+02	-4.5004	-26.477555	0.000993	9.930452	1.682264	-0.000199
1232	1.2248e+02	-4.5215	-26.626929	0.000750	7.498504	1.270281	-0.000150
1233	1.2258e+02	-4.5416	-26.792451	0.000831	8.309154	1.407609	-0.000166
1234	1.2268e+02	-4.5609	-26.978160	0.000932	9.322465	1.579268	-0.000187
1235	1.2278e+02	-4.5813	-27.123496	0.000730	7.295842	1.235949	-0.000146
1236	1.2288e+02	-4.6007	-27.289019	0.000831	8.309154	1.407609	-0.000166
1237	1.2298e+02	-4.6213	-27.450504	0.000811	8.106491	1.373277	-0.000162
1238	1.2308e+02	-4.6411	-27.587767	0.000689	6.890518	1.167285	-0.000138
1239	1.2318e+02	-4.6609	-27.737141	0.000750	7.498504	1.270281	-0.000150
1240	1.2328e+02	-4.6808	-27.886515	0.000750	7.498504	1.270281	-0.000150
1241	1.2338e+02	-4.7006	-28.096446	0.001054	10.538439	1.785260	-0.000211
1242	1.2348e+02	-4.7226	-28.237746	0.000709	7.093180	1.201617	-0.000142
1243	1.2358e+02	-4.7409	-28.403268	0.000831	8.309154	1.407609	-0.000166
1244	1.2368e+02	-4.7607	-28.552643	0.000750	7.498504	1.270281	-0.000150
1245	1.2378e+02	-4.7797	-28.697979	0.000730	7.295842	1.235949	-0.000146
1246	1.2388e+02	-4.8004	-28.859465	0.000811	8.106491	1.373277	-0.000162
1247	1.2398e+02	-4.8206	-28.992690	0.000669	6.687855	1.132953	-0.000134
1248	1.2408e+02	-4.8410	-29.162250	0.000851	8.511816	1.441941	-0.000170
1249	1.2418e+02	-4.8605	-29.303550	0.000709	7.093180	1.201617	-0.000142
1250	1.2428e+02	-4.8798	-29.485221	0.000912	9.119803	1.544936	-0.000183
1251	1.2438e+02	-4.8999	-29.650743	0.000831	8.309154	1.407609	-0.000166
1252	1.2447e+02	-4.9200	-29.792043	0.000709	7.093180	1.201617	-0.000142
1253	1.2457e+02	-4.9390	-29.941417	0.000750	7.498504	1.270281	-0.000150
1254	1.2467e+02	-4.9602	-30.123088	0.000912	9.119803	1.544936	-0.000183
1255	1.2477e+02	-4.9799	-30.276499	0.000770	7.701167	1.304613	-0.000154
1256	1.2487e+02	-4.9994	-30.413762	0.000689	6.890518	1.167285	-0.000138
1257	1.2497e+02	-5.0201	-30.542950	0.000649	6.485193	1.098621	-0.000130
1258	1.2507e+02	-5.0390	-30.744807	0.001013	10.133114	1.716596	-0.000203
1259	1.2517e+02	-5.0597	-30.817476	0.000365	3.647921	0.617975	-0.000073
1260	1.2527e+02	-5.0784	-30.995110	0.000892	8.917140	1.510604	-0.000179
1261	1.2537e+02	-5.0995	-31.192929	0.000993	9.930452	1.682264	-0.000199
1262	1.2547e+02	-5.1190	-31.318080	0.000628	6.282531	1.064290	-0.000126
1263	1.2557e+02	-5.1385	-31.467455	0.000750	7.498504	1.270281	-0.000150
1264	1.2567e+02	-5.1587	-31.645088	0.000892	8.917140	1.510604	-0.000179
1265	1.2577e+02	-5.1781	-31.750054	0.000527	5.269219	0.892630	-0.000105
1266	1.2587e+02	-5.1987	-31.935762	0.000932	9.322465	1.579268	-0.000187
1267	1.2597e+02	-5.2184	-32.105322	0.000851	8.511816	1.441941	-0.000170
1268	1.2607e+02	-5.2380	-32.218362	0.000567	5.674544	0.961294	-0.000114
1269	1.2617e+02	-5.2588	-32.432330	0.001074	10.741101	1.819592	-0.000215
1270	1.2627e+02	-5.2782	-32.529221	0.000486	4.863895	0.823966	-0.000097
1271	1.2636e+02	-5.2975	-32.662447	0.000669	6.687855	1.132953	-0.000134
1272	1.2646e+02	-5.3189	-32.811821	0.000750	7.498504	1.270281	-0.000150
1273	1.2656e+02	-5.3375	-33.013677	0.001013	10.133114	1.716596	-0.000203
1274	1.2666e+02	-5.3583	-33.150940	0.000689	6.890518	1.167285	-0.000138
1275	1.2676e+02	-5.3784	-33.320500	0.000851	8.511816	1.441941	-0.000170
1276	1.2686e+02	-5.3976	-33.445651	0.000628	6.282531	1.064290	-0.000126
1277	1.2696e+02	-5.4175	-33.623285	0.000892	8.917140	1.510604	-0.000179
1278	1.2706e+02	-5.4376	-33.756510	0.000669	6.687855	1.132953	-0.000134
1279	1.2716e+02	-5.4578	-33.893773	0.000689	6.890518	1.167285	-0.000138
1280	1.2726e+02	-5.4782	-34.047184	0.000770	7.701167	1.304613	-0.000154
1281	1.2736e+02	-5.4980	-34.200595	0.000770	7.701167	1.304613	-0.000154
1282	1.2746e+02	-5.5168	-34.378229	0.000892	8.917140	1.510604	-0.000179
1283	1.2756e+02	-5.5383	-34.515492	0.000689	6.890518	1.167285	-0.000138
1284	1.2766e+02	-5.5579	-34.660829	0.000730	7.295842	1.235949	-0.000146
1285	1.2776e+02	-5.5780	-34.790017	0.000649	6.485193	1.098621	-0.000130
1286	1.2786e+02	-5.5974	-34.999948	0.001054	10.538439	1.785260	-0.000211
1287	1.2796e+02	-5.6171	-35.145285	0.000730	7.295842	1.235949	-0.000146
1288	1.2806e+02	-5.6371	-35.290622	0.000730	7.295842	1.235949	-0.000146
1289	1.2816e+02	-5.6572	-35.419810	0.000649	6.485193	1.098621	-0.000130
1290	1.2826e+02	-5.6769	-35.569184	0.000750	7.498504	1.270281	-0.000150
1291	1.2835e+02	-5.6976	-35.714521	0.000730	7.295842	1.235949	-0.000146
1292	1.2845e+02	-5.7175	-35.867932	0.000770	7.701167	1.304613	-0.000154
1293	1.2855e+02	-5.7365	-36.049604	0.000912	9.119803	1.544936	-0.000183
1294	1.2865e+02	-5.7561	-36.186866	0.000689	6.890518	1.167285	-0.000138
1295	1.2875e+02	-5.7770	-36.344314	0.000790	7.903829	1.338945	-0.000158
1296	1.2885e+02	-5.7962	-36.525986	0.000912	9.119803	1.544936	-0.000183
1297	1.2895e+02	-5.8157	-36.643063	0.000588	5.877206	0.995626	-0.000118
1298	1.2905e+02	-5.8362	-36.804548	0.000811	8.106491	1.373277	-0.000162
1299	1.2915e+02	-5.8574	-36.970071	0.000831	8.309154	1.407609	-0.000166
1300	1.2925e+02	-5.8771	-37.143667	0.000871	8.714478	1.476273	-0.000174
1301	1.2935e+02	-5.8963	-37.297079	0.000770	7.701167	1.304613	-0.000154
1302	1.2945e+02	-5.9166	-37.442415	0.000730	7.295842	1.235949	-0.000146
1303	1.2955e+02	-5.9357	-37.607938	0.000831	8.309154	1.407609	-0.000166
1304	1.2965e+02	-5.9555	-37.745201	0.000689	6.890518	1.167285	-0.000138
1305	1.2975e+02	-5.9766	-37.898612	0.000770	7.701167	1.304613	-0.000154
1306	1.2985e+02	-5.9961	-38.023763	0.000628	6.282531	1.064290	-0.000126
1307	1.2995e+02	-6.0156	-38.189286	0.000831	8.309154	1.407609	-0.000166
1308	1.3005e+02	-6.0355	-38.334622	0.000730	7.295842	1.235949	-0.000146
1309	1.3015e+02	-6.0558	-38.520331	0.000932	9.322465	1.579268	-0.000187
1310	1.3025e+02	-6.0760	-38.673742	0.000770	7.701167	1.304613	-0.000154
1311	1.3034e+02	-6.0960	-38.843302	0.000851	8.511816	1.441941	-0.000170
1312	1.3044e+02	-6.1154	-38.980564	0.000689	6.890518	1.167285	-0.000138
1313	1.3054e+02	-6.1346	-39.166272	0.000932	9.322465	1.579268	-0.000187
1314	1.3064e+02	-6.1554	-39.299498	0.000669	6.687855	1.132953	-0.000134
1315	1.3074e+02	-6.1746	-39.428686	0.000649	6.485193	1.098621	-0.000130
1316	1.3084e+02	-6.1957	-39.626506	0.000993	9.930452	1.682264	-0.000199
1317	1.3094e+02	-6.2152	-39.723397	0.000486	4.863895	0.823966	-0.000097
1318	1.3104e+02	-6.2363	-39.965625	0.001216	12.159737	2.059915	-0.000243
1319	1.3114e+02	-6.2553	-40.098851	0.000669	6.687855	1.132953	-0.000134
1320	1.3124e+02	-6.2750	-40.224002	0.000628	6.282531	1.064290	-0.000126
1321	1.3134e+02	-6.2939	-40.397599	0.000871	8.714478	1.476273	-0.000174
1322	1.3144e+02	-6.3144	-40.615604	0.001094	10.943763	1.853924	-0.000219
1323	1.3154e+02	-6.3354	-40.724607	0.000547	5.471882	0.926962	-0.000110
1324	1.3164e+02	-6.3541	-40.869944	0.000730	7.295842	1.235949	-0.000146
1325	1.3174e+02	-6.3736	-41.075838	0.001034	10.335776	1.750928	-0.000207
1326	1.3184e+02	-6.3937	-41.225212	0.000750	7.498504	1.270281	-0.000150
1327	1.3194e+02	-6.4139	-41.366511	0.000709	7.093180	1.201617	-0.000142
1328	1.3204e+02	-6.4346	-41.503774	0.000689	6.890518	1.167285	-0.000138
1329	1.3214e+02	-6.4532	-41.677371	0.000871	8.714478	1.476273	-0.000174
1330	1.3224e+02	-6.4746	-41.859042	0.000912	9.119803	1.544936	-0.000183
1331	1.3234e+02	-6.4935	-42.032639	0.000871	8.714478	1.476273	-0.000174
1332	1.3243e+02	-6.5143	-42.182013	0.000750	7.498504	1.270281	-0.000150
1333	1.3253e+02	-6.5347	-42.375795	0.000973	9.727790	1.647932	-0.000195
1334	1.3263e+02	-6.5530	-42.488835	0.000567	5.674544	0.961294	-0.000114
1335	1.3273e+02	-6.5741	-42.674543	0.000932	9.322465	1.579268	-0.000187
1336	1.3283e+02	-6.5929	-42.852177	0.000892	8.917140	1.510604	-0.000179
1337	1.3293e+02	-6.6125	-43.005588	0.000770	7.701167	1.304613	-0.000154
1338	1.3303e+02	-6.6333	-43.235705	0.001155	11.551750	1.956919	-0.000231
1339	1.3313e+02	-6.6534	-43.328559	0.000466	4.661232	0.789634	-0.000093
1340	1.3323e+02	-6.6730	-43.498119	0.000851	8.511816	1.441941	-0.000170
1341	1.3333e+02	-6.6928	-43.647493	0.000750	7.498504	1.270281	-0.000150
1342	1.3343e+02	-6.7145	-43.853387	0.001034	10.335776	1.750928	-0.000207
1343	1.3353e+02	-6.7331	-43.994687	0.000709	7.093180	1.201617	-0.000142
1344	1.3363e+02	-6.7542	-44.180395	0.000932	9.322465	1.579268	-0.000187
1345	1.3373e+02	-6.7725	-44.341880	0.000811	8.106491	1.373277	-0.000162
1346	1.3383e+02	-6.7926	-44.531626	0.000953	9.525127	1.613600	-0.000191
1347	1.3393e+02	-6.8143	-44.672926	0.000709	7.093180	1.201617	-0.000142
1348	1.3403e+02	-6.8329	-44.842485	0.000851	8.511816	1.441941	-0.000170
1349	1.3413e+02	-6.8530	-45.012045	0.000851	8.511816	1.441941	-0.000170
1350	1.3423e+02	-6.8729	-45.209865	0.000993	9.930452	1.682264	-0.000199
1351	1.3432e+02	-6.8921	-45.367313	0.000790	7.903829	1.338945	-0.000158
1352	1.3442e+02	-6.9135	-45.496501	0.000649	6.485193	1.098621	-0.000130
1353	1.3452e+02	-6.9324	-45.706432	0.001054	10.538439	1.785260	-0.000211
1354	1.3462e+02	-6.9531	-45.888103	0.000912	9.119803	1.544936	-0.000183
1355	1.3472e+02	-6.9727	-46.029403	0.000709	7.093180	1.201617	-0.000142
1356	1.3482e+02	-6.9920	-46.239334	0.001054	10.538439	1.785260	-0.000211
1357	1.3492e+02	-7.0129	-46.384671	0.000730	7.295842	1.235949	-0.000146
1358	1.3502e+02	-7.0334	-46.534045	0.000750	7.498504	1.270281	-0.000150
1359	1.3512e+02	-7.0508	-46.699568	0.000831	8.309154	1.407609	-0.000166
1360	1.3522e+02	-7.0721	-46.901424	0.001013	10.133114	1.716596	-0.000203
1361	1.3532e+02	-7.0920	-47.058873	0.000790	7.903829	1.338945	-0.000158
1362	1.3542e+02	-7.1124	-47.204210	0.000730	7.295842	1.235949	-0.000146
1363	1.3552e+02	-7.1320	-47.402029	0.000993	9.930452	1.682264	-0.000199
1364	1.3562e+02	-7.1515	-47.587738	0.000932	9.322465	1.579268	-0.000187
1365	1.3572e+02	-7.1713	-47.753260	0.000831	8.309154	1.407609	-0.000166
1366	1.3582e+02	-7.1912	-47.943005	0.000953	9.525127	1.613600	-0.000191
1367	1.3592e+02	-7.2113	-48.108528	0.000831	8.309154	1.407609	-0.000166
1368	1.3602e+02	-7.2308	-48.318459	0.001054	10.538439	1.785260	-0.000211
1369	1.3612e+02	-7.2516	-48.471870	0.000770	7.701167	1.304613	-0.000154
1370	1.3622e+02	-7.2711	-48.645467	0.000871	8.714478	1.476273	-0.000174
1371	1.3631e+02	-7.2913	-48.790804	0.000730	7.295842	1.235949	-0.000146
1372	1.3641e+02	-7.3096	-49.000735	0.001054	10.538439	1.785260	-0.000211
1373	1.3651e+02	-7.3322	-49.198555	0.000993	9.930452	1.682264	-0.000199
1374	1.3661e+02	-7.3509	-49.331780	0.000669	6.687855	1.132953	-0.000134
1375	1.3671e+02	-7.3706	-49.569971	0.001196	11.957075	2.025583	-0.000239
1376	1.3681e+02	-7.3901	-49.723382	0.000770	7.701167	1.304613	-0.000154
1377	1.3691e+02	-7.4109	-49.880831	0.000790	7.903829	1.338945	-0.000158
1378	1.3701e+02	-7.4310	-50.074613	0.000973	9.727790	1.647932	-0.000195
1379	1.3711e+02	-7.4509	-50.300693	0.001135	11.349088	1.922588	-0.000227
1380	1.3721e+02	-7.4701	-50.466215	0.000831	8.309154	1.407609	-0.000166
1381	1.3731e+02	-7.4908	-50.655961	0.000953	9.525127	1.613600	-0.000191
1382	1.3741e+02	-7.5107	-50.809372	0.000770	7.701167	1.304613	-0.000154
1383	1.3751e+02	-7.5305	-50.987006	0.000892	8.917140	1.510604	-0.000179
1384	1.3761e+02	-7.5494	-51.184825	0.000993	9.930452	1.682264	-0.000199
1385	1.3771e+02	-7.5696	-51.362459	0.000892	8.917140	1.510604	-0.000179
1386	1.3781e+02	-7.5891	-51.519908	0.000790	7.903829	1.338945	-0.000158
1387	1.3791e+02	-7.6093	-51.713690	0.000973	9.727790	1.647932	-0.000195
1388	1.3801e+02	-7.6291	-51.903436	0.000953	9.525127	1.613600	-0.000191
1389	1.3811e+02	-7.6495	-52.089144	0.000932	9.322465	1.579268	-0.000187
1390	1.3821e+02	-7.6697	-52.311186	0.001115	11.146425	1.888256	-0.000223
1391	1.3831e+02	-7.6886	-52.412115	0.000507	5.066557	0.858298	-0.000101
1392	1.3840e+02	-7.7100	-52.690677	0.001398	13.983697	2.368902	-0.000280
1393	1.3850e+02	-7.7295	-52.831977	0.000709	7.093180	1.201617	-0.000142
1394	1.3860e+02	-7.7484	-53.058056	0.001135	11.349088	1.922588	-0.000227
1395	1.3870e+02	-7.7684	-53.154948	0.000486	4.863895	0.823966	-0.000097
1396	1.3880e+02	-7.7881	-53.405250	0.001257	12.565061	2.128579	-0.000252
1397	1.3890e+02	-7.8107	-53.590958	0.000932	9.322465	1.579268	-0.000187
1398	1.3900e+02	-7.8290	-53.780704	0.000953	9.525127	1.613600	-0.000191
1399	1.3910e+02	-7.8485	-53.978523	0.000993	9.930452	1.682264	-0.000199
1400	1.3920e+02	-7.8677	-54.144046	0.000831	8.309154	1.407609	-0.000166
1401	1.3930e+02	-7.8882	-54.337828	0.000973	9.727790	1.647932	-0.000195
1402	1.3940e+02	-7.9080	-54.547760	0.001054	10.538439	1.785260	-0.000211
1403	1.3950e+02	-7.9272	-54.737505	0.000953	9.525127	1.613600	-0.000191
1404	1.3960e+02	-7.9489	-54.947436	0.001054	10.538439	1.785260	-0.000211
1405	1.3970e+02	-7.9684	-55.125070	0.000892	8.917140	1.510604	-0.000179
1406	1.3980e+02	-7.9886	-55.318852	0.000973	9.727790	1.647932	-0.000195
1407	1.3990e+02	-8.0084	-55.516672	0.000993	9.930452	1.682264	-0.000199
1408	1.4000e+02	-8.0267	-55.766975	0.001257	12.565061	2.128579	-0.000252
1409	1.4010e+02	-8.0478	-55.892126	0.000628	6.282531	1.064290	-0.000126
1410	1.4020e+02	-8.0682	-56.142428	0.001257	12.565061	2.128579	-0.000252
1411	1.4029e+02	-8.0881	-56.283728	0.000709	7.093180	1.201617	-0.000142
1412	1.4039e+02	-8.1079	-56.509807	0.001135	11.349088	1.922588	-0.000227
1413	1.4049e+02	-8.1279	-56.719739	0.001054	10.538439	1.785260	-0.000211
1414	1.4059e+02	-8.1474	-56.901410	0.000912	9.119803	1.544936	-0.000183
1415	1.4069e+02	-8.1671	-57.123452	0.001115	11.146425	1.888256	-0.000223
1416	1.4079e+02	-8.1879	-57.337420	0.001074	10.741101	1.819592	-0.000215
1417	1.4089e+02	-8.2071	-57.519091	0.000912	9.119803	1.544936	-0.000183
1418	1.4099e+02	-8.2272	-57.700763	0.000912	9.119803	1.544936	-0.000183
1419	1.4109e+02	-8.2483	-57.918768	0.001094	10.943763	1.853924	-0.000219
1420	1.4119e+02	-8.2666	-58.112550	0.000973	9.727790	1.647932	-0.000195
1421	1.4129e+02	-8.2867	-58.334593	0.001115	11.146425	1.888256	-0.000223
1422	1.4139e+02	-8.3069	-58.508190	0.000871	8.714478	1.476273	-0.000174
1423	1.4149e+02	-8.3264	-58.718121	0.001054	10.538439	1.785260	-0.000211
1424	1.4159e+02	-8.3466	-58.936126	0.001094	10.943763	1.853924	-0.000219
1425	1.4169e+02	-8.3661	-59.142020	0.001034	10.335776	1.750928	-0.000207
1426	1.4179e+02	-8.3862	-59.347914	0.001034	10.335776	1.750928	-0.000207
1427	1.4189e+02	-8.4064	-59.513436	0.000831	8.309154	1.407609	-0.000166
1428	1.4199e+02	-8.4265	-59.767776	0.001277	12.767724	2.162911	-0.000256
1429	1.4209e+02	-8.4457	-59.949447	0.000912	9.119803	1.544936	-0.000183
1430	1.4219e+02	-8.4668	-60.187638	0.001196	11.957075	2.025583	-0.000239
1431	1.4228e+02	-8.4854	-60.357198	0.000851	8.511816	1.441941	-0.000170
1432	1.4238e+02	-8.5059	-60.635760	0.001398	13.983697	2.368902	-0.000280
1433	1.4248e+02	-8.5260	-60.861840	0.001135	11.349088	1.922588	-0.000227
1434	1.4258e+02	-8.5468	-61.019288	0.000790	7.903829	1.338945	-0.000158
1435	1.4268e+02	-8.5663	-61.261516	0.001216	12.159737	2.059915	-0.000243
1436	1.4278e+02	-8.5858	-61.463373	0.001013	10.133114	1.716596	-0.000203
1437	1.4288e+02	-8.6060	-61.709638	0.001236	12.362399	2.094247	-0.000248
1438	1.4298e+02	-8.6249	-61.919569	0.001054	10.538439	1.785260	-0.000211
1439	1.4308e+02	-8.6456	-62.133538	0.001074	10.741101	1.819592	-0.000215
1440	1.4318e+02	-8.6646	-62.371729	0.001196	11.957075	2.025583	-0.000239
1441	1.4328e+02	-8.6865	-62.573585	0.001013	10.133114	1.716596	-0.000203
1442	1.4338e+02	-8.7048	-62.795628	0.001115	11.146425	1.888256	-0.000223
1443	1.4348e+02	-8.7262	-63.021707	0.001135	11.349088	1.922588	-0.000227
1444	1.4358e+02	-8.7451	-63.219527	0.000993	9.930452	1.682264	-0.000199
1445	1.4368e+02	-8.7653	-63.494052	0.001378	13.781035	2.334571	-0.000276
1446	1.4378e+02	-8.7848	-63.716095	0.001115	11.146425	1.888256	-0.000223
1447	1.4388e+02	-8.8052	-63.905840	0.000953	9.525127	1.613600	-0.000191
1448	1.4398e+02	-8.8257	-64.200551	0.001479	14.794347	2.506230	-0.000296
1449	1.4408e+02	-8.8440	-64.370111	0.000851	8.511816	1.441941	-0.000170
1450	1.4418e+02	-8.8647	-64.620413	0.001257	12.565061	2.128579	-0.000252
1451	1.4428e+02	-8.8840	-64.842456	0.001115	11.146425	1.888256	-0.000223
1452	1.4437e+02	-8.9056	-65.125055	0.001419	14.186360	2.403234	-0.000284
1453	1.4447e+02	-8.9252	-65.322875	0.000993	9.930452	1.682264	-0.000199
1454	1.4457e+02	-8.9429	-65.573177	0.001257	12.565061	2.128579	-0.000252
1455	1.4467e+02	-8.9647	-65.847702	0.001378	13.781035	2.334571	-0.000276
1456	1.4477e+02	-8.9835	-66.053596	0.001034	10.335776	1.750928	-0.000207
1457	1.4487e+02	-9.0045	-66.303899	0.001257	12.565061	2.128579	-0.000252
1458	1.4497e+02	-9.0244	-66.509793	0.001034	10.335776	1.750928	-0.000207
1459	1.4507e+02	-9.0433	-66.756058	0.001236	12.362399	2.094247	-0.000248
1460	1.4517e+02	-9.0637	-66.994249	0.001196	11.957075	2.025583	-0.000239
1461	1.4527e+02	-9.0839	-67.220329	0.001135	11.349088	1.922588	-0.000227
1462	1.4537e+02	-9.1034	-67.482742	0.001317	13.173048	2.231575	-0.000264
1463	1.4547e+02	-9.1238	-67.708822	0.001135	11.349088	1.922588	-0.000227
1464	1.4557e+02	-9.1431	-67.955087	0.001236	12.362399	2.094247	-0.000248
1465	1.4567e+02	-9.1629	-68.221538	0.001338	13.375711	2.265907	-0.000268
1466	1.4577e+02	-9.1818	-68.479915	0.001297	12.970386	2.197243	-0.000260
1467	1.4587e+02	-9.2035	-68.750403	0.001358	13.578373	2.300239	-0.000272
1468	1.4597e+02	-9.2242	-68.984557	0.001175	11.754412	1.991251	-0.000235
1469	1.4607e+02	-9.2435	-69.242934	0.001297	12.970386	2.197243	-0.000260
1470	1.4617e+02	-9.2627	-69.497273	0.001277	12.767724	2.162911	-0.000256
1471	1.4626e+02	-9.2834	-69.763724	0.001338	13.375711	2.265907	-0.000268
1472	1.4636e+02	-9.3030	-70.030175	0.001338	13.375711	2.265907	-0.000268
1473	1.4646e+02	-9.3216	-70.280477	0.001257	12.565061	2.128579	-0.000252
1474	1.4656e+02	-9.3414	-70.530780	0.001257	12.565061	2.128579	-0.000252
1475	1.4666e+02	-9.3628	-70.821454	0.001459	14.591684	2.471898	-0.000292
1476	1.4676e+02	-9.3832	-71.075793	0.001277	12.767724	2.162911	-0.000256
1477	1.4686e+02	-9.4025	-71.378578	0.001520	15.199671	2.574894	-0.000304
1478	1.4696e+02	-9.4232	-71.576398	0.000993	9.930452	1.682264	-0.000199
1479	1.4706e+02	-9.4424	-71.911480	0.001682	16.820969	2.849549	-0.000337
1480	1.4716e+02	-9.4632	-72.153708	0.001216	12.159737	2.059915	-0.000243
1481	1.4726e+02	-9.4830	-72.412085	0.001297	12.970386	2.197243	-0.000260
1482	1.4736e+02	-9.5013	-72.718907	0.001540	15.402333	2.609226	-0.000308
1483	1.4746e+02	-9.5233	-72.993433	0.001378	13.781035	2.334571	-0.000276
1484	1.4756e+02	-9.5416	-73.231624	0.001196	11.957075	2.025583	-0.000239
1485	1.4766e+02	-9.5612	-73.554595	0.001621	16.212983	2.746554	-0.000325
1486	1.4776e+02	-9.5819	-73.833157	0.001398	13.983697	2.368902	-0.000280
1487	1.4786e+02	-9.6002	-74.091534	0.001297	12.970386	2.197243	-0.000260
1488	1.4796e+02	-9.6222	-74.394319	0.001520	15.199671	2.574894	-0.000304
1489	1.4806e+02	-9.6417	-74.689030	0.001479	14.794347	2.506230	-0.000296
1490	1.4816e+02	-9.6613	-74.947406	0.001297	12.970386	2.197243	-0.000260
1491	1.4825e+02	-9.6814	-75.234043	0.001439	14.389022	2.437566	-0.000288
1492	1.4835e+02	-9.7009	-75.557014	0.001621	16.212983	2.746554	-0.000325
1493	1.4845e+02	-9.7217	-75.803279	0.001236	12.362399	2.094247	-0.000248
1494	1.4855e+02	-9.7421	-76.118176	0.001581	15.807658	2.677890	-0.000316
1495	1.4865e+02	-9.7620	-76.408850	0.001459	14.591684	2.471898	-0.000292
1496	1.4875e+02	-9.7809	-76.715672	0.001540	15.402333	2.609226	-0.000308
1497	1.4885e+02	-9.8007	-77.014420	0.001500	14.997009	2.540562	-0.000300
1498	1.4895e+02	-9.8215	-77.297019	0.001419	14.186360	2.403234	-0.000284
1499	1.4905e+02	-9.8410	-77.628065	0.001662	16.618307	2.815217	-0.000333
1500	1.4915e+02	-9.8602	-77.898553	0.001358	13.578373	2.300239	-0.000272
1501	1.4925e+02	-9.8816	-78.241709	0.001723	17.226294	2.918213	-0.000345
1502	1.4935e+02	-9.8999	-78.536420	0.001479	14.794347	2.506230	-0.000296
1503	1.4945e+02	-9.9207	-78.851317	0.001581	15.807658	2.677890	-0.000316
1504	1.4955e+02	-9.9402	-79.174288	0.001621	16.212983	2.746554	-0.000325
1505	1.4965e+02	-9.9609	-79.477073	0.001520	15.199671	2.574894	-0.000304
1506	1.4975e+02	-9.9799	-79.779858	0.001520	15.199671	2.574894	-0.000304
1507	1.4985e+02	-10.0000	-80.090717	0.001560	15.604996	2.643558	-0.000312
1508	1.4995e+02	-9.9799	-80.244128	-0.000770	-7.701167	-1.304613	-0.000154
1509	1.5005e+02	-9.9609	-80.328908	-0.000426	-4.255908	-0.720970	-0.000085
1510	1.5015e+02	-9.9402	-80.345057	-0.000081	-0.810649	-0.137328	-0.000016
1511	1.5025e+02	-9.9210	-80.490394	-0.000730	-7.295842	-1.235949	-0.000146
1512	1.5034e+02	-9.9005	-80.579211	-0.000446	-4.458570	-0.755302	-0.000089
1513	1.5044e+02	-9.8804	-80.619582	-0.000203	-2.026623	-0.343319	-0.000041
1514	1.5054e+02	-9.8607	-80.651879	-0.000162	-1.621298	-0.274655	-0.000032
1515	1.5064e+02	-9.8407	-80.708399	-0.000284	-2.837272	-0.480647	-0.000057
1516	1.5074e+02	-9.8212	-80.797216	-0.000446	-4.458570	-0.755302	-0.000089
1517	1.5084e+02	-9.8007	-80.805290	-0.000041	-0.405325	-0.068664	-0.000008
1518	1.5094e+02	-9.7806	-80.845662	-0.000203	-2.026623	-0.343319	-0.000041
1519	1.5104e+02	-9.7610	-80.821439	0.000122	1.215974	0.205992	0.000024
1520	1.5114e+02	-9.7403	-80.910256	-0.000446	-4.458570	-0.755302	-0.000089
1521	1.5124e+02	-9.7205	-80.930442	-0.000101	-1.013311	-0.171660	-0.000020
1522	1.5134e+02	-9.7021	-80.926404	0.000020	0.202662	0.034332	0.000004
1523	1.5144e+02	-9.6814	-80.946590	-0.000101	-1.013311	-0.171660	-0.000020
1524	1.5154e+02	-9.6613	-80.922367	0.000122	1.215974	0.205992	0.000024
1525	1.5164e+02	-9.6411	-80.950627	-0.000142	-1.418636	-0.240323	-0.000028
1526	1.5174e+02	-9.6222	-80.982924	-0.000162	-1.621298	-0.274655	-0.000032
1527	1.5184e+02	-9.6014	-80.946590	0.000182	1.823961	0.308987	0.000037
1528	1.5194e+02	-9.5818	-80.942553	0.000020	0.202662	0.034332	0.000004
1529	1.5204e+02	-9.5618	-80.934479	0.000041	0.405325	0.068664	0.000008
1530	1.5214e+02	-9.5416	-80.946590	-0.000061	-0.607987	-0.102996	-0.000012
1531	1.5224e+02	-9.5221	-80.898144	0.000243	2.431947	0.411983	0.000049
1532	1.5233e+02	-9.5020	-80.902182	-0.000020	-0.202662	-0.034332	-0.000004
1533	1.5243e+02	-9.4818	-80.922367	-0.000101	-1.013311	-0.171660	-0.000020
1534	1.5253e+02	-9.4621	-80.849699	0.000365	3.647921	0.617975	0.000073
1535	1.5263e+02	-9.4427	-80.841625	0.000041	0.405325	0.068664	0.000008
1536	1.5273e+02	-9.4220	-80.821439	0.000101	1.013311	0.171660	0.000020
1537	1.5283e+02	-9.4025	-80.789142	0.000162	1.621298	0.274655	0.000032
1538	1.5293e+02	-9.3823	-80.801253	-0.000061	-0.607987	-0.102996	-0.000012
1539	1.5303e+02	-9.3634	-80.724548	0.000385	3.850583	0.652306	0.000077
1540	1.5313e+02	-9.3433	-80.700325	0.000122	1.215974	0.205992	0.000024
1541	1.5323e+02	-9.3231	-80.684176	0.000081	0.810649	0.137328	0.000016
1542	1.5333e+02	-9.3030	-80.668028	0.000081	0.810649	0.137328	0.000016
1543	1.5343e+02	-9.2834	-80.607471	0.000304	3.039934	0.514979	0.000061
1544	1.5353e+02	-9.2621	-80.579211	0.000142	1.418636	0.240323	0.000028
1545	1.5363e+02	-9.2438	-80.502505	0.000385	3.850583	0.652306	0.000077
1546	1.5373e+02	-9.2233	-80.478282	0.000122	1.215974	0.205992	0.000024
1547	1.5383e+02	-9.2032	-80.450022	0.000142	1.418636	0.240323	0.000028
1548	1.5393e+02	-9.1833	-80.421762	0.000142	1.418636	0.240323	0.000028
1549	1.5403e+02	-9.1644	-80.272388	0.000750	7.498504	1.270281	0.000150
1550	1.5413e+02	-9.1431	-80.308723	-0.000182	-1.823961	-0.308987	-0.000037
1551	1.5422e+02	-9.1235	-80.195683	0.000567	5.674544	0.961294	0.000114
1552	1.5432e+02	-9.1040	-80.167423	0.000142	1.418636	0.240323	0.000028
1553	1.5442e+02	-9.0836	-80.131089	0.000182	1.823961	0.308987	0.000037
1554	1.5452e+02	-9.0637	-80.034197	0.000486	4.863895	0.823966	0.000097
1555	1.5462e+02	-9.0439	-80.050346	-0.000081	-0.810649	-0.137328	-0.000016
1556	1.5472e+02	-9.0231	-79.937306	0.000567	5.674544	0.961294	0.000114
1557	1.5482e+02	-9.0036	-79.913083	0.000122	1.215974	0.205992	0.000024
1558	1.5492e+02	-8.9838	-79.820229	0.000466	4.661232	0.789634	0.000093
1559	1.5502e+02	-8.9636	-79.775821	0.000223	2.229285	0.377651	0.000045
1560	1.5512e+02	-8.9441	-79.695078	0.000405	4.053246	0.686638	0.000081
1561	1.5522e+02	-8.9252	-79.642595	0.000263	2.634610	0.446315	0.000053
1562	1.5532e+02	-8.9044	-79.594150	0.000243	2.431947	0.411983	0.000049
1563	1.5542e+02	-8.8840	-79.489184	0.000527	5.269219	0.892630	0.000105
1564	1.5552e+02	-8.8644	-79.408441	0.000405	4.053246	0.686638	0.000081
1565	1.5562e+02	-8.8452	-79.359996	0.000243	2.431947	0.411983	0.000049
1566	1.5572e+02	-8.8254	-79.323662	0.000182	1.823961	0.308987	0.000037
1567	1.5582e+02	-8.8043	-79.250993	0.000365	3.647921	0.617975	0.000073
1568	1.5592e+02	-8.7854	-79.170250	0.000405	4.053246	0.686638	0.000081
1569	1.5602e+02	-8.7653	-79.109693	0.000304	3.039934	0.514979	0.000061
1570	1.5612e+02	-8.7448	-79.032988	0.000385	3.850583	0.652306	0.000077
1571	1.5622e+02	-8.7250	-78.952245	0.000405	4.053246	0.686638	0.000081
1572	1.5631e+02	-8.7042	-78.879577	0.000365	3.647921	0.617975	0.000073
1573	1.5641e+02	-8.6850	-78.774611	0.000527	5.269219	0.892630	0.000105
1574	1.5651e+02	-8.6652	-78.701943	0.000365	3.647921	0.617975	0.000073
1575	1.5661e+02	-8.6462	-78.613126	0.000446	4.458570	0.755302	0.000089
1576	1.5671e+02	-8.6267	-78.544494	0.000345	3.445259	0.583643	0.000069
1577	1.5681e+02	-8.6060	-78.443566	0.000507	5.066557	0.858298	0.000101
1578	1.5691e+02	-8.5858	-78.407232	0.000182	1.823961	0.308987	0.000037
1579	1.5701e+02	-8.5657	-78.330526	0.000385	3.850583	0.652306	0.000077
1580	1.5711e+02	-8.5452	-78.221523	0.000547	5.471882	0.926962	0.000110
1581	1.5721e+02	-8.5272	-78.136744	0.000426	4.255908	0.720970	0.000085
1582	1.5731e+02	-8.5046	-78.031778	0.000527	5.269219	0.892630	0.000105
1583	1.5741e+02	-8.4862	-77.971221	0.000304	3.039934	0.514979	0.000061
1584	1.5751e+02	-8.4656	-77.922775	0.000243	2.431947	0.411983	0.000049
1585	1.5761e+02	-8.4467	-77.809736	0.000567	5.674544	0.961294	0.000114
1586	1.5771e+02	-8.4265	-77.704770	0.000527	5.269219	0.892630	0.000105
1587	1.5781e+02	-8.4070	-77.595767	0.000547	5.471882	0.926962	0.000110
1588	1.5791e+02	-8.3868	-77.547322	0.000243	2.431947	0.411983	0.000049
1589	1.5801e+02	-8.3667	-77.474653	0.000365	3.647921	0.617975	0.000073
1590	1.5811e+02	-8.3466	-77.389874	0.000426	4.255908	0.720970	0.000085
1591	1.5821e+02	-8.3264	-77.297019	0.000466	4.661232	0.789634	0.000093
1592	1.5830e+02	-8.3066	-77.192054	0.000527	5.269219	0.892630	0.000105
1593	1.5840e+02	-8.2867	-77.103237	0.000446	4.458570	0.755302	0.000089
1594	1.5850e+02	-8.2677	-76.982123	0.000608	6.079868	1.029958	0.000122
1595	1.5860e+02	-8.2477	-76.913492	0.000345	3.445259	0.583643	0.000069
1596	1.5870e+02	-8.2275	-76.836786	0.000385	3.850583	0.652306	0.000077
1597	1.5880e+02	-8.2074	-76.743932	0.000466	4.661232	0.789634	0.000093
1598	1.5890e+02	-8.1879	-76.622818	0.000608	6.079868	1.029958	0.000122
1599	1.5900e+02	-8.1665	-76.562261	0.000304	3.039934	0.514979	0.000061
1600	1.5910e+02	-8.1470	-76.420961	0.000709	7.093180	1.201617	0.000142
1601	1.5920e+02	-8.1268	-76.332144	0.000446	4.458570	0.755302	0.000089
1602	1.5930e+02	-8.1073	-76.263513	0.000345	3.445259	0.583643	0.000069
1603	1.5940e+02	-8.0872	-76.154510	0.000547	5.471882	0.926962	0.000110
1604	1.5950e+02	-8.0670	-76.077804	0.000385	3.850583	0.652306	0.000077
1605	1.5960e+02	-8.0481	-76.025322	0.000263	2.634610	0.446315	0.000053
1606	1.5970e+02	-8.0283	-75.855762	0.000851	8.511816	1.441941	0.000170
1607	1.5980e+02	-8.0084	-75.779056	0.000385	3.850583	0.652306	0.000077
1608	1.5990e+02	-7.9877	-75.661979	0.000588	5.877206	0.995626	0.000118
1609	1.6000e+02	-7.9675	-75.581237	0.000405	4.053246	0.686638	0.000081
1610	1.6010e+02	-7.9474	-75.456086	0.000628	6.282531	1.064290	0.000126
1611	1.6019e+02	-7.9285	-75.403603	0.000263	2.634610	0.446315	0.000053
1612	1.6029e+02	-7.9092	-75.282489	0.000608	6.079868	1.029958	0.000122
1613	1.6039e+02	-7.8885	-75.197709	0.000426	4.255908	0.720970	0.000085
1614	1.6049e+02	-7.8693	-75.092743	0.000527	5.269219	0.892630	0.000105
1615	1.6059e+02	-7.8485	-74.999889	0.000466	4.661232	0.789634	0.000093
1616	1.6069e+02	-7.8284	-74.919146	0.000405	4.053246	0.686638	0.000081
1617	1.6079e+02	-7.8088	-74.785921	0.000669	6.687855	1.132953	0.000134
1618	1.6089e+02	-7.7899	-74.697104	0.000446	4.458570	0.755302	0.000089
1619	1.6099e+02	-7.7689	-74.584064	0.000567	5.674544	0.961294	0.000114
1620	1.6109e+02	-7.7490	-74.483136	0.000507	5.066557	0.858298	0.000101
1621	1.6119e+02	-7.7301	-74.410467	0.000365	3.647921	0.617975	0.000073
1622	1.6129e+02	-7.7094	-74.285316	0.000628	6.282531	1.064290	0.000126
1623	1.6139e+02	-7.6892	-74.160165	0.000628	6.282531	1.064290	0.000126
1624	1.6149e+02	-7.6688	-74.051162	0.000547	5.471882	0.926962	0.000110
1625	1.6159e+02	-7.6498	-73.970420	0.000405	4.053246	0.686638	0.000081
1626	1.6169e+02	-7.6294	-73.893714	0.000385	3.850583	0.652306	0.000077
1627	1.6179e+02	-7.6086	-73.740303	0.000770	7.701167	1.304613	0.000154
1628	1.6189e+02	-7.5897	-73.675709	0.000324	3.242597	0.549311	0.000065
1629	1.6199e+02	-7.5690	-73.582855	0.000466	4.661232	0.789634	0.000093
1630	1.6209e+02	-7.5500	-73.469815	0.000567	5.674544	0.961294	0.000114
1631	1.6219e+02	-7.5302	-73.364849	0.000527	5.269219	0.892630	0.000105
1632	1.6228e+02	-7.5101	-73.247772	0.000588	5.877206	0.995626	0.000118
1633	1.6238e+02	-7.4921	-73.142807	0.000527	5.269219	0.892630	0.000105
1634	1.6248e+02	-7.4710	-73.017656	0.000628	6.282531	1.064290	0.000126
1635	1.6258e+02	-7.4496	-72.904616	0.000567	5.674544	0.961294	0.000114
1636	1.6268e+02	-7.4310	-72.819836	0.000426	4.255908	0.720970	0.000085
1637	1.6278e+02	-7.4115	-72.718907	0.000507	5.066557	0.858298	0.000101
1638	1.6288e+02	-7.3907	-72.613942	0.000527	5.269219	0.892630	0.000105
1639	1.6298e+02	-7.3718	-72.492828	0.000608	6.079868	1.029958	0.000122
1640	1.6308e+02	-7.3517	-72.408048	0.000426	4.255908	0.720970	0.000085
1641	1.6318e+02	-7.3315	-72.303083	0.000527	5.269219	0.892630	0.000105
1642	1.6328e+02	-7.3108	-72.222340	0.000405	4.053246	0.686638	0.000081
1643	1.6338e+02	-7.2910	-72.089114	0.000669	6.687855	1.132953	0.000134
1644	1.6348e+02	-7.2705	-71.992223	0.000486	4.863895	0.823966	0.000097
1645	1.6358e+02	-7.2522	-71.871109	0.000608	6.079868	1.029958	0.000122
1646	1.6368e+02	-7.2318	-71.758069	0.000567	5.674544	0.961294	0.000114
1647	1.6378e+02	-7.2113	-71.665215	0.000466	4.661232	0.789634	0.000093
1648	1.6388e+02	-7.1918	-71.527952	0.000689	6.890518	1.167285	0.000138
1649	1.6398e+02	-7.1710	-71.447210	0.000405	4.053246	0.686638	0.000081
1650	1.6408e+02	-7.1521	-71.289761	0.000790	7.903829	1.338945	0.000158
1651	1.6418e+02	-7.1313	-71.221130	0.000345	3.445259	0.583643	0.000069
1652	1.6427e+02	-7.1124	-71.100016	0.000608	6.079868	1.029958	0.000122
1653	1.6437e+02	-7.0923	-70.999088	0.000507	5.066557	0.858298	0.000101
1654	1.6447e+02	-7.0718	-70.882011	0.000588	5.877206	0.995626	0.000118
1655	1.6457e+02	-7.0520	-70.793194	0.000446	4.458570	0.755302	0.000089
1656	1.6467e+02	-7.0325	-70.684191	0.000547	5.471882	0.926962	0.000110
1657	1.6477e+02	-7.0123	-70.575188	0.000547	5.471882	0.926962	0.000110
1658	1.6487e+02	-6.9925	-70.490409	0.000426	4.255908	0.720970	0.000085
1659	1.6497e+02	-6.9727	-70.381406	0.000547	5.471882	0.926962	0.000110
1660	1.6507e+02	-6.9522	-70.264329	0.000588	5.877206	0.995626	0.000118
1661	1.6517e+02	-6.9323	-70.147252	0.000588	5.877206	0.995626	0.000118
1662	1.6527e+02	-6.9122	-70.058435	0.000446	4.458570	0.755302	0.000089
1663	1.6537e+02	-6.8933	-69.913098	0.000730	7.295842	1.235949	0.000146
1664	1.6547e+02	-6.8732	-69.763724	0.000750	7.498504	1.270281	0.000150
1665	1.6557e+02	-6.8530	-69.687019	0.000385	3.850583	0.652306	0.000077
1666	1.6567e+02	-6.8326	-69.626462	0.000304	3.039934	0.514979	0.000061
1667	1.6577e+02	-6.8134	-69.428642	0.000993	9.930452	1.682264	0.000199
1668	1.6587e+02	-6.7926	-69.351936	0.000385	3.850583	0.652306	0.000077
1669	1.6597e+02	-6.7722	-69.238896	0.000567	5.674544	0.961294	0.000114
1670	1.6607e+02	-6.7535	-69.170265	0.000345	3.445259	0.583643	0.000069
1671	1.6616e+02	-6.7334	-69.016854	0.000770	7.701167	1.304613	0.000154
1672	1.6626e+02	-6.7136	-68.903814	0.000567	5.674544	0.961294	0.000114
1673	1.6636e+02	-6.6931	-68.806923	0.000486	4.863895	0.823966	0.000097
1674	1.6646e+02	-6.6736	-68.693883	0.000567	5.674544	0.961294	0.000114
1675	1.6656e+02	-6.6537	-68.596992	0.000486	4.863895	0.823966	0.000097
1676	1.6666e+02	-6.6333	-68.483952	0.000567	5.674544	0.961294	0.000114
1677	1.6676e+02	-6.6141	-68.350727	0.000669	6.687855	1.132953	0.000134
1678	1.6686e+02	-6.5942	-68.269984	0.000405	4.053246	0.686638	0.000081
1679	1.6696e+02	-6.5738	-68.124647	0.000730	7.295842	1.235949	0.000146
1680	1.6706e+02	-6.5536	-68.003533	0.000608	6.079868	1.029958	0.000122
1681	1.6716e+02	-6.5338	-67.894530	0.000547	5.471882	0.926962	0.000110
1682	1.6726e+02	-6.5137	-67.801676	0.000466	4.661232	0.789634	0.000093
1683	1.6736e+02	-6.4941	-67.656339	0.000730	7.295842	1.235949	0.000146
1684	1.6746e+02	-6.4732	-67.571559	0.000426	4.255908	0.720970	0.000085
1685	1.6756e+02	-6.4543	-67.478705	0.000466	4.661232	0.789634	0.000093
1686	1.6766e+02	-6.4343	-67.353554	0.000628	6.282531	1.064290	0.000126
1687	1.6776e+02	-6.4142	-67.212254	0.000709	7.093180	1.201617	0.000142
1688	1.6786e+02	-6.3940	-67.119400	0.000466	4.661232	0.789634	0.000093
1689	1.6796e+02	-6.3745	-67.018472	0.000507	5.066557	0.858298	0.000101
1690	1.6806e+02	-6.3549	-66.861024	0.000790	7.903829	1.338945	0.000158
1691	1.6816e+02	-6.3342	-66.719724	0.000709	7.093180	1.201617	0.000142
1692	1.6825e+02	-6.3144	-66.618795	0.000507	5.066557	0.858298	0.000101
1693	1.6835e+02	-6.2949	-66.497681	0.000608	6.079868	1.029958	0.000122
1694	1.6845e+02	-6.2741	-66.380604	0.000588	5.877206	0.995626	0.000118
1695	1.6855e+02	-6.2546	-66.243342	0.000689	6.890518	1.167285	0.000138
1696	1.6865e+02	-6.2357	-66.162599	0.000405	4.053246	0.686638	0.000081
1697	1.6875e+02	-6.2152	-66.033411	0.000649	6.485193	1.098621	0.000130
1698	1.6885e+02	-6.1951	-65.900185	0.000669	6.687855	1.132953	0.000134
1699	1.6895e+02	-6.1743	-65.795220	0.000527	5.269219	0.892630	0.000105
1700	1.6905e+02	-6.1557	-65.670068	0.000628	6.282531	1.064290	0.000126
1701	1.6915e+02	-6.1353	-65.565103	0.000527	5.269219	0.892630	0.000105
1702	1.6925e+02	-6.1156	-65.431877	0.000669	6.687855	1.132953	0.000134
1703	1.6935e+02	-6.0959	-65.339023	0.000466	4.661232	0.789634	0.000093
1704	1.6945e+02	-6.0748	-65.189649	0.000750	7.498504	1.270281	0.000150
1705	1.6955e+02	-6.0553	-65.072572	0.000588	5.877206	0.995626	0.000118
1706	1.6965e+02	-6.0358	-64.991830	0.000405	4.053246	0.686638	0.000081
1707	1.6975e+02	-6.0159	-64.834381	0.000790	7.903829	1.338945	0.000158
1708	1.6985e+02	-5.9961	-64.693082	0.000709	7.093180	1.201617	0.000142
1709	1.6995e+02	-5.9763	-64.588116	0.000527	5.269219	0.892630	0.000105
1710	1.7005e+02	-5.9564	-64.499299	0.000446	4.458570	0.755302	0.000089
1711	1.7015e+02	-5.9369	-64.357999	0.000709	7.093180	1.201617	0.000142
1712	1.7024e+02	-5.9161	-64.220737	0.000689	6.890518	1.167285	0.000138
1713	1.7034e+02	-5.8965	-64.099623	0.000608	6.079868	1.029958	0.000122
1714	1.7044e+02	-5.8759	-63.998694	0.000507	5.066557	0.858298	0.000101
1715	1.7054e+02	-5.8563	-63.845283	0.000770	7.701167	1.304613	0.000154
1716	1.7064e+02	-5.8362	-63.740318	0.000527	5.269219	0.892630	0.000105
1717	1.7074e+02	-5.8160	-63.611129	0.000649	6.485193	1.098621	0.000130
1718	1.7084e+02	-5.7965	-63.506164	0.000527	5.269219	0.892630	0.000105
1719	1.7094e+02	-5.7770	-63.376975	0.000649	6.485193	1.098621	0.000130
1720	1.7104e+02	-5.7562	-63.227601	0.000750	7.498504	1.270281	0.000150
1721	1.7114e+02	-5.7367	-63.098413	0.000649	6.485193	1.098621	0.000130
1722	1.7124e+02	-5.7166	-62.969225	0.000649	6.485193	1.098621	0.000130
1723	1.7134e+02	-5.6973	-62.856185	0.000567	5.674544	0.961294	0.000114
1724	1.7144e+02	-5.6769	-62.698737	0.000790	7.903829	1.338945	0.000158
1725	1.7154e+02	-5.6567	-62.589734	0.000547	5.471882	0.926962	0.000110
1726	1.7164e+02	-5.6369	-62.452471	0.000689	6.890518	1.167285	0.000138
1727	1.7174e+02	-5.6168	-62.335394	0.000588	5.877206	0.995626	0.000118
1728	1.7184e+02	-5.5965	-62.206206	0.000649	6.485193	1.098621	0.000130
1729	1.7194e+02	-5.5768	-62.060869	0.000730	7.295842	1.235949	0.000146
1730	1.7204e+02	-5.5573	-61.955904	0.000527	5.269219	0.892630	0.000105
1731	1.7213e+02	-5.5382	-61.814604	0.000709	7.093180	1.201617	0.000142
1732	1.7223e+02	-5.5170	-61.685416	0.000649	6.485193	1.098621	0.000130
1733	1.7233e+02	-5.4977	-61.564301	0.000608	6.079868	1.029958	0.000122
1734	1.7243e+02	-5.4778	-61.410890	0.000770	7.701167	1.304613	0.000154
1735	1.7253e+02	-5.4578	-61.309962	0.000507	5.066557	0.858298	0.000101
1736	1.7263e+02	-5.4376	-61.160588	0.000750	7.498504	1.270281	0.000150
1737	1.7273e+02	-5.4175	-61.027362	0.000669	6.687855	1.132953	0.000134
1738	1.7283e+02	-5.3978	-60.886063	0.000709	7.093180	1.201617	0.000142
1739	1.7293e+02	-5.3781	-60.728614	0.000790	7.903829	1.338945	0.000158
1740	1.7303e+02	-5.3577	-60.635760	0.000466	4.661232	0.789634	0.000093
1741	1.7313e+02	-5.3394	-60.510609	0.000628	6.282531	1.064290	0.000126
1742	1.7323e+02	-5.3191	-60.349124	0.000811	8.106491	1.373277	0.000162
1743	1.7333e+02	-5.2982	-60.244158	0.000527	5.269219	0.892630	0.000105
1744	1.7343e+02	-5.2771	-60.082673	0.000811	8.106491	1.373277	0.000162
1745	1.7353e+02	-5.2600	-59.961559	0.000608	6.079868	1.029958	0.000122
1746	1.7363e+02	-5.2390	-59.812185	0.000750	7.498504	1.270281	0.000150
1747	1.7373e+02	-5.2184	-59.674922	0.000689	6.890518	1.167285	0.000138
1748	1.7383e+02	-5.1984	-59.553808	0.000608	6.079868	1.029958	0.000122
1749	1.7393e+02	-5.1791	-59.448842	0.000527	5.269219	0.892630	0.000105
1750	1.7403e+02	-5.1599	-59.311580	0.000689	6.890518	1.167285	0.000138
1751	1.7413e+02	-5.1392	-59.174317	0.000689	6.890518	1.167285	0.000138
1752	1.7422e+02	-5.1184	-59.016869	0.000790	7.903829	1.338945	0.000158
1753	1.7432e+02	-5.0995	-58.899792	0.000588	5.877206	0.995626	0.000118
1754	1.7442e+02	-5.0793	-58.718121	0.000912	9.119803	1.544936	0.000183
1755	1.7452e+02	-5.0592	-58.597007	0.000608	6.079868	1.029958	0.000122
1756	1.7462e+02	-5.0391	-58.459744	0.000689	6.890518	1.167285	0.000138
1757	1.7472e+02	-5.0189	-58.302296	0.000790	7.903829	1.338945	0.000158
1758	1.7482e+02	-5.0005	-58.169070	0.000669	6.687855	1.132953	0.000134
1759	1.7492e+02	-4.9792	-58.056030	0.000567	5.674544	0.961294	0.000114
1760	1.7502e+02	-4.9602	-57.890508	0.000831	8.309154	1.407609	0.000166
1761	1.7512e+02	-4.9402	-57.729022	0.000811	8.106491	1.373277	0.000162
1762	1.7522e+02	-4.9200	-57.615983	0.000567	5.674544	0.961294	0.000114
1763	1.7532e+02	-4.9005	-57.470646	0.000730	7.295842	1.235949	0.000146
1764	1.7542e+02	-4.8810	-57.317235	0.000770	7.701167	1.304613	0.000154
1765	1.7552e+02	-4.8601	-57.163823	0.000770	7.701167	1.304613	0.000154
1766	1.7562e+02	-4.8398	-57.058858	0.000527	5.269219	0.892630	0.000105
1767	1.7572e+02	-4.8209	-56.885261	0.000871	8.714478	1.476273	0.000174
1768	1.7582e+02	-4.8003	-56.764147	0.000608	6.079868	1.029958	0.000122
1769	1.7592e+02	-4.7803	-56.634959	0.000649	6.485193	1.098621	0.000130
1770	1.7602e+02	-4.7607	-56.501733	0.000669	6.687855	1.132953	0.000134
1771	1.7612e+02	-4.7409	-56.352359	0.000750	7.498504	1.270281	0.000150
1772	1.7621e+02	-4.7217	-56.231245	0.000608	6.079868	1.029958	0.000122
1773	1.7631e+02	-4.6997	-56.041500	0.000953	9.525127	1.613600	0.000191
1774	1.7641e+02	-4.6808	-55.908274	0.000669	6.687855	1.132953	0.000134
1775	1.7651e+02	-4.6602	-55.762937	0.000730	7.295842	1.235949	0.000146
1776	1.7661e+02	-4.6411	-55.605489	0.000790	7.903829	1.338945	0.000158
1777	1.7671e+02	-4.6210	-55.528784	0.000385	3.850583	0.652306	0.000077
1778	1.7681e+02	-4.5999	-55.367298	0.000811	8.106491	1.373277	0.000162
1779	1.7691e+02	-4.5819	-55.230035	0.000689	6.890518	1.167285	0.000138
1780	1.7701e+02	-4.5612	-55.056439	0.000871	8.714478	1.476273	0.000174
1781	1.7711e+02	-4.5410	-54.915139	0.000709	7.093180	1.201617	0.000142
1782	1.7721e+02	-4.5218	-54.757691	0.000790	7.903829	1.338945	0.000158
1783	1.7731e+02	-4.5013	-54.608317	0.000750	7.498504	1.270281	0.000150
1784	1.7741e+02	-4.4806	-54.527574	0.000405	4.053246	0.686638	0.000081
1785	1.7751e+02	-4.4614	-54.345903	0.000912	9.119803	1.544936	0.000183
1786	1.7761e+02	-4.4409	-54.204603	0.000709	7.093180	1.201617	0.000142
1787	1.7771e+02	-4.4214	-54.039080	0.000831	8.309154	1.407609	0.000166
1788	1.7781e+02	-4.4009	-53.930078	0.000547	5.471882	0.926962	0.000110
1789	1.7791e+02	-4.3817	-53.744370	0.000932	9.322465	1.579268	0.000187
1790	1.7801e+02	-4.3613	-53.594995	0.000750	7.498504	1.270281	0.000150
1791	1.7810e+02	-4.3422	-53.494067	0.000507	5.066557	0.858298	0.000101
1792	1.7820e+02	-4.3210	-53.320470	0.000871	8.714478	1.476273	0.000174
1793	1.7830e+02	-4.3021	-53.187245	0.000669	6.687855	1.132953	0.000134
1794	1.7840e+02	-4.2825	-53.013648	0.000871	8.714478	1.476273	0.000174
1795	1.7850e+02	-4.2624	-52.904645	0.000547	5.471882	0.926962	0.000110
1796	1.7860e+02	-4.2424	-52.735086	0.000851	8.511816	1.441941	0.000170
1797	1.7870e+02	-4.2227	-52.585712	0.000750	7.498504	1.270281	0.000150
1798	1.7880e+02	-4.2023	-52.448449	0.000689	6.890518	1.167285	0.000138
1799	1.7890e+02	-4.1815	-52.303112	0.000730	7.295842	1.235949	0.000146
1800	1.7900e+02	-4.1620	-52.133552	0.000851	8.511816	1.441941	0.000170
1801	1.7910e+02	-4.1423	-52.004364	0.000649	6.485193	1.098621	0.000130
1802	1.7920e+02	-4.1229	-51.822693	0.000912	9.119803	1.544936	0.000183
1803	1.7930e+02	-4.1022	-51.681393	0.000709	7.093180	1.201617	0.000142
1804	1.7940e+02	-4.0829	-51.536056	0.000730	7.295842	1.235949	0.000146
1805	1.7950e+02	-4.0625	-51.414942	0.000608	6.079868	1.029958	0.000122
1806	1.7960e+02	-4.0433	-51.257494	0.000790	7.903829	1.338945	0.000158
1807	1.7970e+02	-4.0196	-51.136380	0.000608	6.079868	1.029958	0.000122
1808	1.7980e+02	-4.0018	-51.007191	0.000649	6.485193	1.098621	0.000130
1809	1.7990e+02	-3.9837	-50.805335	0.001013	10.133114	1.716596	0.000203
1810	1.8000e+02	-3.9633	-50.664035	0.000709	7.093180	1.201617	0.000142
1811	1.8009e+02	-3.9429	-50.526772	0.000689	6.890518	1.167285	0.000138
1812	1.8019e+02	-3.9240	-50.365287	0.000811	8.106491	1.373277	0.000162
1813	1.8029e+02	-3.9037	-50.228024	0.000689	6.890518	1.167285	0.000138
1814	1.8039e+02	-3.8824	-50.090762	0.000689	6.890518	1.167285	0.000138
1815	1.8049e+02	-3.8632	-49.921202	0.000851	8.511816	1.441941	0.000170
1816	1.8059e+02	-3.8434	-49.779902	0.000709	7.093180	1.201617	0.000142
1817	1.8069e+02	-3.8232	-49.650714	0.000649	6.485193	1.098621	0.000130
1818	1.8079e+02	-3.8031	-49.505377	0.000730	7.295842	1.235949	0.000146
1819	1.8089e+02	-3.7830	-49.311594	0.000973	9.727790	1.647932	0.000195
1820	1.8099e+02	-3.7640	-49.198555	0.000567	5.674544	0.961294	0.000114
1821	1.8109e+02	-3.7436	-49.041106	0.000790	7.903829	1.338945	0.000158
1822	1.8119e+02	-3.7241	-48.887695	0.000770	7.701167	1.304613	0.000154
1823	1.8129e+02	-3.7045	-48.738321	0.000750	7.498504	1.270281	0.000150
1824	1.8139e+02	-3.6841	-48.556650	0.000912	9.119803	1.544936	0.000183
1825	1.8149e+02	-3.6649	-48.451685	0.000527	5.269219	0.892630	0.000105
1826	1.8159e+02	-3.6447	-48.298273	0.000770	7.701167	1.304613	0.000154
1827	1.8169e+02	-3.6247	-48.120639	0.000892	8.917140	1.510604	0.000179
1828	1.8179e+02	-3.6050	-47.995488	0.000628	6.282531	1.064290	0.000126
1829	1.8189e+02	-3.5840	-47.834003	0.000811	8.106491	1.373277	0.000162
1830	1.8199e+02	-3.5646	-47.672517	0.000811	8.106491	1.373277	0.000162
1831	1.8209e+02	-3.5452	-47.539292	0.000669	6.687855	1.132953	0.000134
1832	1.8218e+02	-3.5252	-47.406066	0.000669	6.687855	1.132953	0.000134
1833	1.8228e+02	-3.5043	-47.196135	0.001054	10.538439	1.785260	0.000211
1834	1.8238e+02	-3.4848	-47.062910	0.000669	6.687855	1.132953	0.000134
1835	1.8248e+02	-3.4650	-46.945833	0.000588	5.877206	0.995626	0.000118
1836	1.8258e+02	-3.4457	-46.804533	0.000709	7.093180	1.201617	0.000142
1837	1.8268e+02	-3.4250	-46.630936	0.000871	8.714478	1.476273	0.000174
1838	1.8278e+02	-3.4058	-46.457340	0.000871	8.714478	1.476273	0.000174
1839	1.8288e+02	-3.3867	-46.344300	0.000567	5.674544	0.961294	0.000114
1840	1.8298e+02	-3.3652	-46.186851	0.000790	7.903829	1.338945	0.000158
1841	1.8308e+02	-3.3459	-46.021329	0.000831	8.309154	1.407609	0.000166
1842	1.8318e+02	-3.3257	-45.888103	0.000669	6.687855	1.132953	0.000134
1843	1.8328e+02	-3.3055	-45.750841	0.000689	6.890518	1.167285	0.000138
1844	1.8338e+02	-3.2858	-45.573207	0.000892	8.917140	1.510604	0.000179
1845	1.8348e+02	-3.2657	-45.407684	0.000831	8.309154	1.407609	0.000166
1846	1.8358e+02	-3.2465	-45.238125	0.000851	8.511816	1.441941	0.000170
1847	1.8368e+02	-3.2254	-45.108936	0.000649	6.485193	1.098621	0.000130
1848	1.8378e+02	-3.2060	-44.971674	0.000689	6.890518	1.167285	0.000138
1849	1.8388e+02	-3.1857	-44.785965	0.000932	9.322465	1.579268	0.000187
1850	1.8398e+02	-3.1667	-44.664851	0.000608	6.079868	1.029958	0.000122
1851	1.8407e+02	-3.1464	-44.539700	0.000628	6.282531	1.064290	0.000126
1852	1.8417e+02	-3.1253	-44.333806	0.001034	10.335776	1.750928	0.000207
1853	1.8427e+02	-3.1067	-44.240952	0.000466	4.661232	0.789634	0.000093
1854	1.8437e+02	-3.0859	-44.047169	0.000973	9.727790	1.647932	0.000195
1855	1.8447e+02	-3.0669	-43.881647	0.000831	8.309154	1.407609	0.000166
1856	1.8457e+02	-3.0469	-43.756496	0.000628	6.282531	1.064290	0.000126
1857	1.8467e+02	-3.0264	-43.562713	0.000973	9.727790	1.647932	0.000195
1858	1.8477e+02	-3.0072	-43.453711	0.000547	5.471882	0.926962	0.000110
1859	1.8487e+02	-2.9857	-43.280114	0.000871	8.714478	1.476273	0.000174
1860	1.8497e+02	-2.9666	-43.110554	0.000851	8.511816	1.441941	0.000170
1861	1.8507e+02	-2.9468	-42.953106	0.000790	7.903829	1.338945	0.000158
1862	1.8517e+02	-2.9266	-42.775472	0.000892	8.917140	1.510604	0.000179
1863	1.8527e+02	-2.9073	-42.642246	0.000669	6.687855	1.132953	0.000134
1864	1.8537e+02	-2.8864	-42.476724	0.000831	8.309154	1.407609	0.000166
1865	1.8547e+02	-2.8677	-42.307164	0.000851	8.511816	1.441941	0.000170
1866	1.8557e+02	-2.8473	-42.157790	0.000750	7.498504	1.270281	0.000150
1867	1.8567e+02	-2.8271	-42.036676	0.000608	6.079868	1.029958	0.000122
1868	1.8577e+02	-2.8076	-41.855005	0.000912	9.119803	1.544936	0.000183
1869	1.8587e+02	-2.7871	-41.713705	0.000709	7.093180	1.201617	0.000142
1870	1.8597e+02	-2.7672	-41.552220	0.000811	8.106491	1.373277	0.000162
1871	1.8606e+02	-2.7472	-41.370548	0.000912	9.119803	1.544936	0.000183
1872	1.8616e+02	-2.7277	-41.225212	0.000730	7.295842	1.235949	0.000146
1873	1.8626e+02	-2.7083	-41.067763	0.000790	7.903829	1.338945	0.000158
1874	1.8636e+02	-2.6863	-40.886092	0.000912	9.119803	1.544936	0.000183
1875	1.8646e+02	-2.6675	-40.740755	0.000730	7.295842	1.235949	0.000146
1876	1.8656e+02	-2.6483	-40.575233	0.000831	8.309154	1.407609	0.000166
1877	1.8666e+02	-2.6282	-40.429896	0.000730	7.295842	1.235949	0.000146
1878	1.8676e+02	-2.6077	-40.236113	0.000973	9.727790	1.647932	0.000195
1879	1.8686e+02	-2.5881	-40.102888	0.000669	6.687855	1.132953	0.000134
1880	1.8696e+02	-2.5681	-39.945440	0.000790	7.903829	1.338945	0.000158
1881	1.8706e+02	-2.5484	-39.787991	0.000790	7.903829	1.338945	0.000158
1882	1.8716e+02	-2.5281	-39.626506	0.000811	8.106491	1.373277	0.000162
1883	1.8726e+02	-2.5079	-39.533652	0.000466	4.661232	0.789634	0.000093
1884	1.8736e+02	-2.4890	-39.315646	0.001094	10.943763	1.853924	0.000219
1885	1.8746e+02	-2.4689	-39.174347	0.000709	7.093180	1.201617	0.000142
1886	1.8756e+02	-2.4496	-38.976527	0.000993	9.930452	1.682264	0.000199
1887	1.8766e+02	-2.4297	-38.835227	0.000709	7.093180	1.201617	0.000142
1888	1.8776e+02	-2.4093	-38.693927	0.000709	7.093180	1.201617	0.000142
1889	1.8786e+02	-2.3898	-38.496108	0.000993	9.930452	1.682264	0.000199
1890	1.8796e+02	-2.3688	-38.334622	0.000811	8.106491	1.373277	0.000162
1891	1.8806e+02	-2.3489	-38.189286	0.000730	7.295842	1.235949	0.000146
1892	1.8815e+02	-2.3290	-38.023763	0.000831	8.309154	1.407609	0.000166
1893	1.8825e+02	-2.3087	-37.805758	0.001094	10.943763	1.853924	0.000219
1894	1.8835e+02	-2.2891	-37.648309	0.000790	7.903829	1.338945	0.000158
1895	1.8845e+02	-2.2693	-37.490861	0.000790	7.903829	1.338945	0.000158
1896	1.8855e+02	-2.2495	-37.357636	0.000669	6.687855	1.132953	0.000134
1897	1.8865e+02	-2.2302	-37.151742	0.001034	10.335776	1.750928	0.000207
1898	1.8875e+02	-2.2090	-37.002368	0.000750	7.498504	1.270281	0.000150
1899	1.8885e+02	-2.1902	-36.844919	0.000790	7.903829	1.338945	0.000158
1900	1.8895e+02	-2.1695	-36.651137	0.000973	9.727790	1.647932	0.000195
1901	1.8905e+02	-2.1509	-36.477540	0.000871	8.714478	1.476273	0.000174
1902	1.8915e+02	-2.1295	-36.340277	0.000689	6.890518	1.167285	0.000138
1903	1.8925e+02	-2.1105	-36.142458	0.000993	9.930452	1.682264	0.000199
1904	1.8935e+02	-2.0898	-35.985009	0.000790	7.903829	1.338945	0.000158
1905	1.8945e+02	-2.0712	-35.815450	0.000851	8.511816	1.441941	0.000170
1906	1.8955e+02	-2.0508	-35.670113	0.000730	7.295842	1.235949	0.000146
1907	1.8965e+02	-2.0306	-35.500553	0.000851	8.511816	1.441941	0.000170
1908	1.8975e+02	-2.0105	-35.355216	0.000730	7.295842	1.235949	0.000146
1909	1.8985e+02	-1.9900	-35.137211	0.001094	10.943763	1.853924	0.000219
1910	1.8995e+02	-1.9704	-34.991874	0.000730	7.295842	1.235949	0.000146
1911	1.9004e+02	-1.9516	-34.826351	0.000831	8.309154	1.407609	0.000166
1912	1.9014e+02	-1.9307	-34.648717	0.000892	8.917140	1.510604	0.000179
1913	1.9024e+02	-1.9107	-34.479158	0.000851	8.511816	1.441941	0.000170
1914	1.9034e+02	-1.8909	-34.277301	0.001013	10.133114	1.716596	0.000203
1915	1.9044e+02	-1.8715	-34.144076	0.000669	6.687855	1.132953	0.000134
1916	1.9054e+02	-1.8506	-33.950293	0.000973	9.727790	1.647932	0.000195
1917	1.9064e+02	-1.8311	-33.768622	0.000912	9.119803	1.544936	0.000183
1918	1.9074e+02	-1.8114	-33.643471	0.000628	6.282531	1.064290	0.000126
1919	1.9084e+02	-1.7914	-33.477948	0.000831	8.309154	1.407609	0.000166
1920	1.9094e+02	-1.7715	-33.272054	0.001034	10.335776	1.750928	0.000207
1921	1.9104e+02	-1.7508	-33.138829	0.000669	6.687855	1.132953	0.000134
1922	1.9114e+02	-1.7313	-32.941009	0.000993	9.930452	1.682264	0.000199
1923	1.9124e+02	-1.7105	-32.795672	0.000730	7.295842	1.235949	0.000146
1924	1.9134e+02	-1.6914	-32.601890	0.000973	9.727790	1.647932	0.000195
1925	1.9144e+02	-1.6721	-32.400033	0.001013	10.133114	1.716596	0.000203
1926	1.9154e+02	-1.6513	-32.254696	0.000730	7.295842	1.235949	0.000146
1927	1.9164e+02	-1.6318	-32.056876	0.000993	9.930452	1.682264	0.000199
1928	1.9174e+02	-1.6116	-31.859057	0.000993	9.930452	1.682264	0.000199
1929	1.9184e+02	-1.5918	-31.729868	0.000649	6.485193	1.098621	0.000130
1930	1.9194e+02	-1.5722	-31.519937	0.001054	10.538439	1.785260	0.000211
1931	1.9203e+02	-1.5512	-31.402860	0.000588	5.877206	0.995626	0.000118
1932	1.9213e+02	-1.5317	-31.233301	0.000851	8.511816	1.441941	0.000170
1933	1.9223e+02	-1.5120	-31.003184	0.001155	11.551750	1.956919	0.000231
1934	1.9233e+02	-1.4923	-30.817476	0.000932	9.322465	1.579268	0.000187
1935	1.9243e+02	-1.4713	-30.647916	0.000851	8.511816	1.441941	0.000170
1936	1.9253e+02	-1.4520	-30.498542	0.000750	7.498504	1.270281	0.000150
1937	1.9263e+02	-1.4322	-30.304759	0.000973	9.727790	1.647932	0.000195
1938	1.9273e+02	-1.4124	-30.123088	0.000912	9.119803	1.544936	0.000183
1939	1.9283e+02	-1.3922	-29.997937	0.000628	6.282531	1.064290	0.000126
1940	1.9293e+02	-1.3718	-29.779932	0.001094	10.943763	1.853924	0.000219
1941	1.9303e+02	-1.3522	-29.626521	0.000770	7.701167	1.304613	0.000154
1942	1.9313e+02	-1.3329	-29.436775	0.000953	9.525127	1.613600	0.000191
1943	1.9323e+02	-1.3133	-29.242993	0.000973	9.727790	1.647932	0.000195
1944	1.9333e+02	-1.2927	-29.125916	0.000588	5.877206	0.995626	0.000118
1945	1.9343e+02	-1.2720	-28.920022	0.001034	10.335776	1.750928	0.000207
1946	1.9353e+02	-1.2534	-28.770648	0.000750	7.498504	1.270281	0.000150
1947	1.9363e+02	-1.2337	-28.564754	0.001034	10.335776	1.750928	0.000207
1948	1.9373e+02	-1.2132	-28.383083	0.000912	9.119803	1.544936	0.000183
1949	1.9383e+02	-1.1937	-28.213523	0.000851	8.511816	1.441941	0.000170
1950	1.9393e+02	-1.1731	-28.035889	0.000892	8.917140	1.510604	0.000179
1951	1.9403e+02	-1.1544	-27.858255	0.000892	8.917140	1.510604	0.000179
1952	1.9412e+02	-1.1344	-27.720993	0.000689	6.890518	1.167285	0.000138
1953	1.9422e+02	-1.1137	-27.486839	0.001175	11.754412	1.991251	0.000235
1954	1.9432e+02	-1.0944	-27.329390	0.000790	7.903829	1.338945	0.000158
1955	1.9442e+02	-1.0736	-27.155794	0.000871	8.714478	1.476273	0.000174
1956	1.9452e+02	-1.0547	-26.994308	0.000811	8.106491	1.373277	0.000162
1957	1.9462e+02	-1.0347	-26.796488	0.000993	9.930452	1.682264	0.000199
1958	1.9472e+02	-1.0139	-26.671337	0.000628	6.282531	1.064290	0.000126
1959	1.9482e+02	-0.9942	-26.449295	0.001115	11.146425	1.888256	0.000223
1960	1.9492e+02	-0.9730	-26.271661	0.000892	8.917140	1.510604	0.000179
1961	1.9502e+02	-0.9544	-26.118250	0.000770	7.701167	1.304613	0.000154
1962	1.9512e+02	-0.9349	-25.924467	0.000973	9.727790	1.647932	0.000195
1963	1.9522e+02	-0.9143	-25.734722	0.000953	9.525127	1.613600	0.000191
1964	1.9532e+02	-0.8949	-25.597459	0.000689	6.890518	1.167285	0.000138
1965	1.9542e+02	-0.8755	-25.411751	0.000932	9.322465	1.579268	0.000187
1966	1.9552e+02	-0.8551	-25.222006	0.000953	9.525127	1.613600	0.000191
1967	1.9562e+02	-0.8342	-24.979777	0.001216	12.159737	2.059915	0.000243
1968	1.9572e+02	-0.8148	-24.870775	0.000547	5.471882	0.926962	0.000110
1969	1.9582e+02	-0.7953	-24.668918	0.001013	10.133114	1.716596	0.000203
1970	1.9592e+02	-0.7752	-24.515507	0.000770	7.701167	1.304613	0.000154
1971	1.9601e+02	-0.7549	-24.305576	0.001054	10.538439	1.785260	0.000211
1972	1.9611e+02	-0.7353	-24.172350	0.000669	6.687855	1.132953	0.000134
1973	1.9621e+02	-0.7150	-23.958382	0.001074	10.741101	1.819592	0.000215
1974	1.9631e+02	-0.6956	-23.813045	0.000730	7.295842	1.235949	0.000146
1975	1.9641e+02	-0.6757	-23.619263	0.000973	9.727790	1.647932	0.000195
1976	1.9651e+02	-0.6537	-23.457777	0.000811	8.106491	1.373277	0.000162
1977	1.9661e+02	-0.6354	-23.304366	0.000770	7.701167	1.304613	0.000154
1978	1.9671e+02	-0.6159	-23.098472	0.001034	10.335776	1.750928	0.000207
1979	1.9681e+02	-0.5956	-22.941024	0.000790	7.903829	1.338945	0.000158
1980	1.9691e+02	-0.5761	-22.751278	0.000953	9.525127	1.613600	0.000191
1981	1.9701e+02	-0.5562	-22.605942	0.000730	7.295842	1.235949	0.000146
1982	1.9711e+02	-0.5367	-22.420233	0.000932	9.322465	1.579268	0.000187
1983	1.9721e+02	-0.5161	-22.218377	0.001013	10.133114	1.716596	0.000203
1984	1.9731e+02	-0.4961	-22.020557	0.000993	9.930452	1.682264	0.000199
1985	1.9741e+02	-0.4755	-21.903480	0.000588	5.877206	0.995626	0.000118
1986	1.9751e+02	-0.4568	-21.754106	0.000750	7.498504	1.270281	0.000150
1987	1.9761e+02	-0.4359	-21.528026	0.001135	11.349088	1.922588	0.000227
1988	1.9771e+02	-0.4161	-21.322132	0.001034	10.335776	1.750928	0.000207
1989	1.9781e+02	-0.3963	-21.192944	0.000649	6.485193	1.098621	0.000130
1990	1.9791e+02	-0.3773	-21.039533	0.000770	7.701167	1.304613	0.000154
1991	1.9800e+02	-0.3567	-20.849788	0.000953	9.525127	1.613600	0.000191
1992	1.9810e+02	-0.3363	-20.647931	0.001013	10.133114	1.716596	0.000203
1993	1.9820e+02	-0.3162	-20.486445	0.000811	8.106491	1.373277	0.000162
1994	1.9830e+02	-0.2966	-20.308811	0.000892	8.917140	1.510604	0.000179
1995	1.9840e+02	-0.2766	-20.175586	0.000669	6.687855	1.132953	0.000134
1996	1.9850e+02	-0.2574	-19.973729	0.001013	10.133114	1.716596	0.000203
1997	1.9860e+02	-0.2379	-19.783984	0.000953	9.525127	1.613600	0.000191
1998	1.9870e+02	-0.2159	-19.590201	0.000973	9.727790	1.647932	0.000195
1999	1.9880e+02	-0.1969	-19.444864	0.000730	7.295842	1.235949	0.000146
2000	1.9890e+02	-0.1769	-19.263193	0.000912	9.119803	1.544936	0.000183
2001	1.9900e+02	-0.1571	-19.065374	0.000993	9.930452	1.682264	0.000199
2002	1.9910e+02	-0.1363	-18.907925	0.000790	7.903829	1.338945	0.000158
2003	1.9920e+02	-0.1173	-18.754514	0.000770	7.701167	1.304613	0.000154
2004	1.9930e+02	-0.0975	-18.560732	0.000973	9.727790	1.647932	0.000195
2005	1.9940e+02	-0.0774	-18.423469	0.000689	6.890518	1.167285	0.000138
2006	1.9950e+02	-0.0575	-18.181241	0.001216	12.159737	2.059915	0.000243
2007	1.9960e+02	-0.0373	-18.064164	0.000588	5.877206	0.995626	0.000118
2008	1.9970e+02	-0.0177	-17.902678	0.000811	8.106491	1.373277	0.000162
2009	1.9980e+02	0.0013	-17.680636	0.000811	8.106491	1.373277	0.000223

Smooth data before PMax, +/-Pr and +/-Vc Calc.

PMax (uC/cm2):	7.25e+01
Pr (uC/cm2):	4.75e+00
-Pr (uC/cm2):	-2.63e+01
PLoss (uC/cm2):	-2.63e+01
-Vc:	-5.21e-01
C (Max-Eff) (nF):	7.25e-01
K (Eff):	1.23e+03
Vert. (+/-Pr) Shift (uC/cm2):	-1.08e+01
Offset (uC/cm2):	-8.49e+00

A (Loop Area - uC/cm2·Volts):	-2.29e-02



Hysteresis Version: 5.48.1 - Radiant Technologies, Inc., 1999 - 9/12/24

