»»»»»»»»»»»»»»»»»»»»»»»»»»»»»»»»»»»» Hysteresis ««««««««««««««««««««««««««««««««««««
»»»  Executed Version:	5.48.1
»»»  Vision Version:	5.48.4 (R)
»»»  Vision Compiled:	9/18/24
»»»  Driver Version:	5.47.0
»»»  Windows Version:	Windows 8 or 8.1
»»»  Processor Information:	x86 (AMD or Intel) - 32 Processors
»»»  Tester Name:	PMF21124-494 (100V)
»»»  Tester S/N:	PMF21124-494
»»»  Internal Amp Type:	100V RevK 270k
»»»  Internal Amp S/N:	iAB2-596/K     
»»»  Execution Count:	1
»»»»»»»»»»»»»»»»»»»»»»»»»»»»»»»»»»»»»»»»»»««««««««««««««««««««««««««««««««««««««««««

Stored:	7/9/2025 - 14:15:20
Configured:	07/09/25 02:06:30 PM
Executed:	07/09/25 02:14:42 PM

»»»»»»»»»»»»»»»»»»»»»»»»»»»»»»»»»»» Sample Info ««««««««««««««««««««««««««««««««««««
Sample Name:	
Lot Name:	
Wafer Name:	
Die Row/Column:	0/0
Capacitor Number:	0
Sample Area (cm2):	1.00e-04
Sample Thickness (microns):	1.50e-01

Amplifier:	Internal

»»»»»»»»»»»»»»»»»»»»»»»»»»»»»»»»»»» Tester Info «««««««««««««««««««««««««««««««««««
Tester Name:	PMF21124-494 (100V)
Tester Serial Number:	PMF21124-494
Return Signal Amp. Level:	0.19 [Index: 3]

»»»»»»»»»»»»»»»»»»»»»»»»»»»»»»»» Hysteresis Info ««««««««««««««««««««««««««««««««««
Task Name:	Hyst-900
Volts:	10.00
Field:	666.67 (kV/cm)
DCBias:	0.00
DCField:	0.00 (kV/cm)
Hysteresis Period (ms):	2.00e+02
Preset:	Enabled
Preset Delay (ms):	1.00e+03
Profile:	Standard Bipolar

»»»»»»»»»»»»»»»»»»»»»»»»»»»»»»»»»»»»»» Data «««««««««««««««««««««««««««««««««««««««
Points:	2009

Valid Data

Point	Time (ms)	Drive Voltage	Measured Polarization (uC/cm2)	Capacitance (uF)	Normalized Capacitance (uF/cm2)	Dielectric Constant	Instantaneous Current (mA)
   1	0.0000e+00	0.0012	2.137663	0.000750	7.499105	1.270383	0.000150
   2	9.9500e-02	0.0204	2.287037	0.000750	7.499105	1.270383	0.000150
   3	1.9900e-01	0.0398	2.468709	0.000912	9.120533	1.545060	0.000183
   4	2.9850e-01	0.0601	2.682677	0.001074	10.741961	1.819738	0.000215
   5	3.9800e-01	0.0800	2.836088	0.000770	7.701784	1.304717	0.000154
   6	4.9750e-01	0.0993	3.041982	0.001034	10.336604	1.751068	0.000207
   7	5.9700e-01	0.1193	3.247876	0.001034	10.336604	1.751068	0.000207
   8	6.9650e-01	0.1388	3.405324	0.000790	7.904462	1.339052	0.000158
   9	7.9600e-01	0.1593	3.574884	0.000851	8.512498	1.442056	0.000170
  10	8.9550e-01	0.1796	3.788852	0.001074	10.741961	1.819738	0.000215
  11	9.9500e-01	0.2007	3.946300	0.000790	7.904462	1.339052	0.000158
  12	1.0945e+00	0.2194	4.200640	0.001277	12.768747	2.163084	0.000256
  13	1.1940e+00	0.2395	4.309642	0.000547	5.472320	0.927036	0.000110
  14	1.2935e+00	0.2594	4.527648	0.001094	10.944640	1.854072	0.000219
  15	1.3930e+00	0.2789	4.705282	0.000892	8.917855	1.510725	0.000179
  16	1.4925e+00	0.2984	4.870804	0.000831	8.309819	1.407721	0.000166
  17	1.5920e+00	0.3192	5.088810	0.001094	10.944640	1.854072	0.000219
  18	1.6915e+00	0.3391	5.310852	0.001115	11.147318	1.888407	0.000223
  19	1.7910e+00	0.3584	5.448115	0.000689	6.891070	1.167379	0.000138
  20	1.8905e+00	0.3791	5.629786	0.000912	9.120533	1.545060	0.000183
  21	1.9900e+00	0.3992	5.811457	0.000912	9.120533	1.545060	0.000183
  22	2.0895e+00	0.4189	6.017351	0.001034	10.336604	1.751068	0.000207
  23	2.1890e+00	0.4390	6.178836	0.000811	8.107141	1.373387	0.000162
  24	2.2885e+00	0.4595	6.368582	0.000953	9.525890	1.613730	0.000191
  25	2.3880e+00	0.4790	6.606773	0.001196	11.958033	2.025746	0.000239
  26	2.4875e+00	0.4990	6.784407	0.000892	8.917855	1.510725	0.000179
  27	2.5870e+00	0.5191	6.953966	0.000851	8.512498	1.442056	0.000170
  28	2.6865e+00	0.5384	7.147749	0.000973	9.728569	1.648064	0.000195
  29	2.7860e+00	0.5585	7.325383	0.000892	8.917855	1.510725	0.000179
  30	2.8855e+00	0.5788	7.523202	0.000993	9.931247	1.682399	0.000199
  31	2.9850e+00	0.5982	7.737171	0.001074	10.741961	1.819738	0.000215
  32	3.0845e+00	0.6178	7.902693	0.000831	8.309819	1.407721	0.000166
  33	3.1840e+00	0.6380	8.096476	0.000973	9.728569	1.648064	0.000195
  34	3.2835e+00	0.6581	8.290258	0.000973	9.728569	1.648064	0.000195
  35	3.3830e+00	0.6780	8.504226	0.001074	10.741961	1.819738	0.000215
  36	3.4825e+00	0.6986	8.657638	0.000770	7.701784	1.304717	0.000154
  37	3.5820e+00	0.7182	8.875643	0.001094	10.944640	1.854072	0.000219
  38	3.6815e+00	0.7380	9.037128	0.000811	8.107141	1.373387	0.000162
  39	3.7810e+00	0.7584	9.275319	0.001196	11.958033	2.025746	0.000239
  40	3.8805e+00	0.7781	9.444879	0.000851	8.512498	1.442056	0.000170
  41	3.9800e+00	0.7977	9.650773	0.001034	10.336604	1.751068	0.000207
  42	4.0795e+00	0.8172	9.836481	0.000932	9.323212	1.579395	0.000187
  43	4.1790e+00	0.8377	10.062561	0.001135	11.349997	1.922742	0.000227
  44	4.2785e+00	0.8580	10.207898	0.000730	7.296427	1.236048	0.000146
  45	4.3780e+00	0.8774	10.442052	0.001176	11.755354	1.991411	0.000235
  46	4.4775e+00	0.8976	10.591426	0.000750	7.499105	1.270383	0.000150
  47	4.5770e+00	0.9184	10.817505	0.001135	11.349997	1.922742	0.000227
  48	4.6765e+00	0.9370	11.011288	0.000973	9.728569	1.648064	0.000195
  49	4.7760e+00	0.9576	11.209107	0.000993	9.931247	1.682399	0.000199
  50	4.8755e+00	0.9771	11.427113	0.001094	10.944640	1.854072	0.000219
  51	4.9750e+00	0.9966	11.600710	0.000872	8.715176	1.476391	0.000174
  52	5.0745e+00	1.0164	11.786418	0.000932	9.323212	1.579395	0.000187
  53	5.1740e+00	1.0367	12.004423	0.001094	10.944640	1.854072	0.000219
  54	5.2735e+00	1.0564	12.202243	0.000993	9.931247	1.682399	0.000199
  55	5.3730e+00	1.0773	12.396025	0.000973	9.728569	1.648064	0.000195
  56	5.4725e+00	1.0965	12.553474	0.000790	7.904462	1.339052	0.000158
  57	5.5720e+00	1.1163	12.751293	0.000993	9.931247	1.682399	0.000199
  58	5.6715e+00	1.1359	12.965261	0.001074	10.741961	1.819738	0.000215
  59	5.7710e+00	1.1567	13.155007	0.000953	9.525890	1.613730	0.000191
  60	5.8705e+00	1.1767	13.385124	0.001155	11.552675	1.957076	0.000231
  61	5.9700e+00	1.1962	13.546609	0.000811	8.107141	1.373387	0.000162
  62	6.0695e+00	1.2157	13.764614	0.001094	10.944640	1.854072	0.000219
  63	6.1690e+00	1.2360	13.954360	0.000953	9.525890	1.613730	0.000191
  64	6.2685e+00	1.2562	14.184476	0.001155	11.552675	1.957076	0.000231
  65	6.3680e+00	1.2759	14.345962	0.000811	8.107141	1.373387	0.000162
  66	6.4675e+00	1.2954	14.551856	0.001034	10.336604	1.751068	0.000207
  67	6.5670e+00	1.3152	14.729490	0.000892	8.917855	1.510725	0.000179
  68	6.6665e+00	1.3350	14.951532	0.001115	11.147318	1.888407	0.000223
  69	6.7660e+00	1.3554	15.125129	0.000872	8.715176	1.476391	0.000174
  70	6.8655e+00	1.3743	15.314874	0.000953	9.525890	1.613730	0.000191
  71	6.9650e+00	1.3948	15.561140	0.001236	12.363390	2.094415	0.000248
  72	7.0645e+00	1.4152	15.698402	0.000689	6.891070	1.167379	0.000138
  73	7.1640e+00	1.4352	15.944668	0.001236	12.363390	2.094415	0.000248
  74	7.2635e+00	1.4538	16.122302	0.000892	8.917855	1.510725	0.000179
  75	7.3630e+00	1.4736	16.303973	0.000912	9.120533	1.545060	0.000183
  76	7.4625e+00	1.4952	16.526015	0.001115	11.147318	1.888407	0.000223
  77	7.5620e+00	1.5141	16.756132	0.001155	11.552675	1.957076	0.000231
  78	7.6615e+00	1.5352	16.949914	0.000973	9.728569	1.648064	0.000195
  79	7.7610e+00	1.5542	17.143697	0.000973	9.728569	1.648064	0.000195
  80	7.8605e+00	1.5738	17.385925	0.001216	12.160711	2.060080	0.000243
  81	7.9600e+00	1.5948	17.531262	0.000730	7.296427	1.236048	0.000146
  82	8.0595e+00	1.6143	17.721007	0.000953	9.525890	1.613730	0.000191
  83	8.1590e+00	1.6335	17.922864	0.001013	10.133926	1.716734	0.000203
  84	8.2585e+00	1.6539	18.173167	0.001257	12.566068	2.128750	0.000252
  85	8.3580e+00	1.6738	18.350800	0.000892	8.917855	1.510725	0.000179
  86	8.4575e+00	1.6940	18.544583	0.000973	9.728569	1.648064	0.000195
  87	8.5570e+00	1.7138	18.726254	0.000912	9.120533	1.545060	0.000183
  88	8.6565e+00	1.7335	18.928111	0.001013	10.133926	1.716734	0.000203
  89	8.7560e+00	1.7534	19.129968	0.001013	10.133926	1.716734	0.000203
  90	8.8555e+00	1.7738	19.343936	0.001074	10.741961	1.819738	0.000215
  91	8.9550e+00	1.7937	19.565978	0.001115	11.147318	1.888407	0.000223
  92	9.0545e+00	1.8136	19.743612	0.000892	8.917855	1.510725	0.000179
  93	9.1540e+00	1.8331	19.945469	0.001013	10.133926	1.716734	0.000203
  94	9.2535e+00	1.8532	20.163474	0.001094	10.944640	1.854072	0.000219
  95	9.3530e+00	1.8740	20.353220	0.000953	9.525890	1.613730	0.000191
  96	9.4525e+00	1.8932	20.571225	0.001094	10.944640	1.854072	0.000219
  97	9.5520e+00	1.9131	20.736748	0.000831	8.309819	1.407721	0.000166
  98	9.6515e+00	1.9326	20.950716	0.001074	10.741961	1.819738	0.000215
  99	9.7510e+00	1.9530	21.156610	0.001034	10.336604	1.751068	0.000207
 100	9.8505e+00	1.9727	21.314058	0.000790	7.904462	1.339052	0.000158
 101	9.9500e+00	1.9926	21.515915	0.001013	10.133926	1.716734	0.000203
 102	1.0050e+01	2.0129	21.750069	0.001176	11.755354	1.991411	0.000235
 103	1.0149e+01	2.0325	21.964037	0.001074	10.741961	1.819738	0.000215
 104	1.0248e+01	2.0524	22.149745	0.000932	9.323212	1.579395	0.000187
 105	1.0348e+01	2.0727	22.387936	0.001196	11.958033	2.025746	0.000239
 106	1.0447e+01	2.0919	22.585756	0.000993	9.931247	1.682399	0.000199
 107	1.0547e+01	2.1128	22.763390	0.000892	8.917855	1.510725	0.000179
 108	1.0646e+01	2.1323	22.953135	0.000953	9.525890	1.613730	0.000191
 109	1.0746e+01	2.1525	23.207475	0.001277	12.768747	2.163084	0.000256
 110	1.0845e+01	2.1730	23.364923	0.000790	7.904462	1.339052	0.000158
 111	1.0945e+01	2.1917	23.599077	0.001176	11.755354	1.991411	0.000235
 112	1.1044e+01	2.2117	23.796897	0.000993	9.931247	1.682399	0.000199
 113	1.1144e+01	2.2314	23.934159	0.000689	6.891070	1.167379	0.000138
 114	1.1243e+01	2.2521	24.204647	0.001358	13.579461	2.300423	0.000272
 115	1.1343e+01	2.2720	24.358058	0.000770	7.701784	1.304717	0.000154
 116	1.1443e+01	2.2920	24.632584	0.001378	13.782139	2.334758	0.000276
 117	1.1542e+01	2.3113	24.822329	0.000953	9.525890	1.613730	0.000191
 118	1.1642e+01	2.3316	25.032260	0.001054	10.539283	1.785403	0.000211
 119	1.1741e+01	2.3520	25.201820	0.000851	8.512498	1.442056	0.000170
 120	1.1841e+01	2.3718	25.395602	0.000973	9.728569	1.648064	0.000195
 121	1.1940e+01	2.3907	25.585348	0.000953	9.525890	1.613730	0.000191
 122	1.2040e+01	2.4116	25.807390	0.001115	11.147318	1.888407	0.000223
 123	1.2139e+01	2.4323	25.989061	0.000912	9.120533	1.545060	0.000183
 124	1.2239e+01	2.4511	26.186881	0.000993	9.931247	1.682399	0.000199
 125	1.2338e+01	2.4718	26.396812	0.001054	10.539283	1.785403	0.000211
 126	1.2438e+01	2.4908	26.614817	0.001094	10.944640	1.854072	0.000219
 127	1.2537e+01	2.5108	26.780340	0.000831	8.309819	1.407721	0.000166
 128	1.2636e+01	2.5306	26.970085	0.000953	9.525890	1.613730	0.000191
 129	1.2736e+01	2.5504	27.155794	0.000932	9.323212	1.579395	0.000187
 130	1.2835e+01	2.5710	27.369762	0.001074	10.741961	1.819738	0.000215
 131	1.2935e+01	2.5904	27.587767	0.001094	10.944640	1.854072	0.000219
 132	1.3034e+01	2.6106	27.749252	0.000811	8.107141	1.373387	0.000162
 133	1.3134e+01	2.6295	27.971295	0.001115	11.147318	1.888407	0.000223
 134	1.3233e+01	2.6508	28.157003	0.000932	9.323212	1.579395	0.000187
 135	1.3333e+01	2.6701	28.334637	0.000892	8.917855	1.510725	0.000179
 136	1.3432e+01	2.6905	28.544568	0.001054	10.539283	1.785403	0.000211
 137	1.3532e+01	2.7106	28.734314	0.000953	9.525890	1.613730	0.000191
 138	1.3632e+01	2.7301	28.948282	0.001074	10.741961	1.819738	0.000215
 139	1.3731e+01	2.7499	29.154176	0.001034	10.336604	1.751068	0.000207
 140	1.3831e+01	2.7696	29.356033	0.001013	10.133926	1.716734	0.000203
 141	1.3930e+01	2.7898	29.521555	0.000831	8.309819	1.407721	0.000166
 142	1.4030e+01	2.8107	29.755709	0.001176	11.755354	1.991411	0.000235
 143	1.4129e+01	2.8294	29.913157	0.000790	7.904462	1.339052	0.000158
 144	1.4229e+01	2.8505	30.159423	0.001236	12.363390	2.094415	0.000248
 145	1.4328e+01	2.8698	30.333019	0.000872	8.715176	1.476391	0.000174
 146	1.4428e+01	2.8887	30.530839	0.000993	9.931247	1.682399	0.000199
 147	1.4527e+01	2.9082	30.716547	0.000932	9.323212	1.579395	0.000187
 148	1.4627e+01	2.9298	30.918404	0.001013	10.133926	1.716734	0.000203
 149	1.4726e+01	2.9494	31.075852	0.000790	7.904462	1.339052	0.000158
 150	1.4825e+01	2.9691	31.285783	0.001054	10.539283	1.785403	0.000211
 151	1.4925e+01	2.9891	31.471492	0.000932	9.323212	1.579395	0.000187
 152	1.5024e+01	3.0083	31.669311	0.000993	9.931247	1.682399	0.000199
 153	1.5124e+01	3.0299	31.871168	0.001013	10.133926	1.716734	0.000203
 154	1.5223e+01	3.0502	32.081099	0.001054	10.539283	1.785403	0.000211
 155	1.5323e+01	3.0688	32.230473	0.000750	7.499105	1.270383	0.000150
 156	1.5422e+01	3.0887	32.472701	0.001216	12.160711	2.060080	0.000243
 157	1.5522e+01	3.1094	32.662447	0.000953	9.525890	1.613730	0.000191
 158	1.5621e+01	3.1287	32.819895	0.000790	7.904462	1.339052	0.000158
 159	1.5721e+01	3.1496	33.013677	0.000973	9.728569	1.648064	0.000195
 160	1.5820e+01	3.1686	33.215534	0.001013	10.133926	1.716734	0.000203
 161	1.5920e+01	3.1879	33.401243	0.000932	9.323212	1.579395	0.000187
 162	1.6020e+01	3.2090	33.562728	0.000811	8.107141	1.373387	0.000162
 163	1.6119e+01	3.2290	33.796882	0.001176	11.755354	1.991411	0.000235
 164	1.6218e+01	3.2487	33.938182	0.000709	7.093748	1.201713	0.000142
 165	1.6318e+01	3.2681	34.168298	0.001155	11.552675	1.957076	0.000231
 166	1.6418e+01	3.2872	34.341895	0.000872	8.715176	1.476391	0.000174
 167	1.6517e+01	3.3086	34.499343	0.000790	7.904462	1.339052	0.000158
 168	1.6616e+01	3.3276	34.713312	0.001074	10.741961	1.819738	0.000215
 169	1.6716e+01	3.3477	34.923243	0.001054	10.539283	1.785403	0.000211
 170	1.6816e+01	3.3681	35.104914	0.000912	9.120533	1.545060	0.000183
 171	1.6915e+01	3.3875	35.258325	0.000770	7.701784	1.304717	0.000154
 172	1.7015e+01	3.4083	35.427885	0.000851	8.512498	1.442056	0.000170
 173	1.7114e+01	3.4258	35.641853	0.001074	10.741961	1.819738	0.000215
 174	1.7213e+01	3.4473	35.847747	0.001034	10.336604	1.751068	0.000207
 175	1.7313e+01	3.4673	36.065752	0.001094	10.944640	1.854072	0.000219
 176	1.7413e+01	3.4875	36.186866	0.000608	6.080356	1.030040	0.000122
 177	1.7512e+01	3.5076	36.412946	0.001135	11.349997	1.922742	0.000227
 178	1.7611e+01	3.5271	36.566357	0.000770	7.701784	1.304717	0.000154
 179	1.7711e+01	3.5468	36.804548	0.001196	11.958033	2.025746	0.000239
 180	1.7811e+01	3.5670	36.961996	0.000790	7.904462	1.339052	0.000158
 181	1.7910e+01	3.5872	37.119445	0.000790	7.904462	1.339052	0.000158
 182	1.8009e+01	3.6077	37.309190	0.000953	9.525890	1.613730	0.000191
 183	1.8109e+01	3.6271	37.502972	0.000973	9.728569	1.648064	0.000195
 184	1.8209e+01	3.6465	37.680606	0.000892	8.917855	1.510725	0.000179
 185	1.8308e+01	3.6675	37.866315	0.000932	9.323212	1.579395	0.000187
 186	1.8407e+01	3.6864	38.047986	0.000912	9.120533	1.545060	0.000183
 187	1.8507e+01	3.7066	38.249843	0.001013	10.133926	1.716734	0.000203
 188	1.8607e+01	3.7273	38.443625	0.000973	9.728569	1.648064	0.000195
 189	1.8706e+01	3.7468	38.588962	0.000730	7.296427	1.236048	0.000146
 190	1.8805e+01	3.7664	38.750447	0.000811	8.107141	1.373387	0.000162
 191	1.8905e+01	3.7859	38.944230	0.000973	9.728569	1.648064	0.000195
 192	1.9005e+01	3.8049	39.138012	0.000973	9.728569	1.648064	0.000195
 193	1.9104e+01	3.8268	39.299498	0.000811	8.107141	1.373387	0.000162
 194	1.9203e+01	3.8458	39.452909	0.000770	7.701784	1.304717	0.000154
 195	1.9303e+01	3.8665	39.662840	0.001054	10.539283	1.785403	0.000211
 196	1.9402e+01	3.8852	39.848548	0.000932	9.323212	1.579395	0.000187
 197	1.9502e+01	3.9060	40.022145	0.000872	8.715176	1.476391	0.000174
 198	1.9602e+01	3.9260	40.236113	0.001074	10.741961	1.819738	0.000215
 199	1.9701e+01	3.9455	40.377413	0.000709	7.093748	1.201713	0.000142
 200	1.9800e+01	3.9651	40.546973	0.000851	8.512498	1.442056	0.000170
 201	1.9900e+01	3.9863	40.720570	0.000872	8.715176	1.476391	0.000174
 202	2.0000e+01	4.0047	40.869944	0.000750	7.499105	1.270383	0.000150
 203	2.0099e+01	4.0263	41.112172	0.001216	12.160711	2.060080	0.000243
 204	2.0198e+01	4.0453	41.261546	0.000750	7.499105	1.270383	0.000150
 205	2.0298e+01	4.0658	41.451291	0.000953	9.525890	1.613730	0.000191
 206	2.0398e+01	4.0841	41.604702	0.000770	7.701784	1.304717	0.000154
 207	2.0497e+01	4.1054	41.806559	0.001013	10.133926	1.716734	0.000203
 208	2.0596e+01	4.1244	42.000342	0.000973	9.728569	1.648064	0.000195
 209	2.0696e+01	4.1457	42.149716	0.000750	7.499105	1.270383	0.000150
 210	2.0796e+01	4.1645	42.331387	0.000912	9.120533	1.545060	0.000183
 211	2.0895e+01	4.1844	42.504984	0.000872	8.715176	1.476391	0.000174
 212	2.0994e+01	4.2046	42.658395	0.000770	7.701784	1.304717	0.000154
 213	2.1094e+01	4.2245	42.844103	0.000932	9.323212	1.579395	0.000187
 214	2.1194e+01	4.2445	43.078257	0.001176	11.755354	1.991411	0.000235
 215	2.1293e+01	4.2651	43.191297	0.000567	5.674998	0.961371	0.000114
 216	2.1392e+01	4.2852	43.413339	0.001115	11.147318	1.888407	0.000223
 217	2.1492e+01	4.3049	43.595010	0.000912	9.120533	1.545060	0.000183
 218	2.1591e+01	4.3247	43.768607	0.000872	8.715176	1.476391	0.000174
 219	2.1691e+01	4.3446	43.926055	0.000790	7.904462	1.339052	0.000158
 220	2.1791e+01	4.3642	44.075429	0.000750	7.499105	1.270383	0.000150
 221	2.1890e+01	4.3845	44.289398	0.001074	10.741961	1.819738	0.000215
 222	2.1989e+01	4.4035	44.434735	0.000730	7.296427	1.236048	0.000146
 223	2.2089e+01	4.4247	44.604294	0.000851	8.512498	1.442056	0.000170
 224	2.2189e+01	4.4436	44.769817	0.000831	8.309819	1.407721	0.000166
 225	2.2288e+01	4.4637	44.967636	0.000993	9.931247	1.682399	0.000199
 226	2.2387e+01	4.4842	45.125085	0.000790	7.904462	1.339052	0.000158
 227	2.2487e+01	4.5036	45.318867	0.000973	9.728569	1.648064	0.000195
 228	2.2587e+01	4.5226	45.532835	0.001074	10.741961	1.819738	0.000215
 229	2.2686e+01	4.5429	45.637801	0.000527	5.269641	0.892701	0.000105
 230	2.2785e+01	4.5629	45.859843	0.001115	11.147318	1.888407	0.000223
 231	2.2885e+01	4.5840	46.025366	0.000831	8.309819	1.407721	0.000166
 232	2.2985e+01	4.6024	46.146480	0.000608	6.080356	1.030040	0.000122
 233	2.3084e+01	4.6224	46.356411	0.001054	10.539283	1.785403	0.000211
 234	2.3183e+01	4.6432	46.513859	0.000790	7.904462	1.339052	0.000158
 235	2.3283e+01	4.6630	46.691493	0.000892	8.917855	1.510725	0.000179
 236	2.3383e+01	4.6827	46.852979	0.000811	8.107141	1.373387	0.000162
 237	2.3482e+01	4.7029	47.042724	0.000953	9.525890	1.613730	0.000191
 238	2.3581e+01	4.7227	47.163838	0.000608	6.080356	1.030040	0.000122
 239	2.3681e+01	4.7424	47.361658	0.000993	9.931247	1.682399	0.000199
 240	2.3780e+01	4.7617	47.563515	0.001013	10.133926	1.716734	0.000203
 241	2.3880e+01	4.7826	47.712889	0.000750	7.499105	1.270383	0.000150
 242	2.3980e+01	4.8022	47.874374	0.000811	8.107141	1.373387	0.000162
 243	2.4079e+01	4.8222	48.052008	0.000892	8.917855	1.510725	0.000179
 244	2.4178e+01	4.8418	48.217531	0.000831	8.309819	1.407721	0.000166
 245	2.4278e+01	4.8626	48.407276	0.000953	9.525890	1.613730	0.000191
 246	2.4378e+01	4.8827	48.536464	0.000649	6.485713	1.098709	0.000130
 247	2.4477e+01	4.9020	48.750433	0.001074	10.741961	1.819738	0.000215
 248	2.4576e+01	4.9215	48.887695	0.000689	6.891070	1.167379	0.000138
 249	2.4676e+01	4.9422	49.081478	0.000973	9.728569	1.648064	0.000195
 250	2.4776e+01	4.9624	49.271223	0.000953	9.525890	1.613730	0.000191
 251	2.4875e+01	4.9813	49.412523	0.000709	7.093748	1.201713	0.000142
 252	2.4974e+01	5.0019	49.626491	0.001074	10.741961	1.819738	0.000215
 253	2.5074e+01	5.0219	49.775865	0.000750	7.499105	1.270383	0.000150
 254	2.5174e+01	5.0408	49.933313	0.000790	7.904462	1.339052	0.000158
 255	2.5273e+01	5.0606	50.119022	0.000932	9.323212	1.579395	0.000187
 256	2.5372e+01	5.0799	50.288581	0.000851	8.512498	1.442056	0.000170
 257	2.5472e+01	5.1012	50.450067	0.000811	8.107141	1.373387	0.000162
 258	2.5572e+01	5.1199	50.603478	0.000770	7.701784	1.304717	0.000154
 259	2.5671e+01	5.1409	50.773038	0.000851	8.512498	1.442056	0.000170
 260	2.5770e+01	5.1598	50.942597	0.000851	8.512498	1.442056	0.000170
 261	2.5870e+01	5.1808	51.140417	0.000993	9.931247	1.682399	0.000199
 262	2.5970e+01	5.2013	51.301902	0.000811	8.107141	1.373387	0.000162
 263	2.6069e+01	5.2200	51.451276	0.000750	7.499105	1.270383	0.000150
 264	2.6169e+01	5.2416	51.657170	0.001034	10.336604	1.751068	0.000207
 265	2.6268e+01	5.2610	51.790396	0.000669	6.688391	1.133044	0.000134
 266	2.6367e+01	5.2795	51.980141	0.000953	9.525890	1.613730	0.000191
 267	2.6467e+01	5.3005	52.161812	0.000912	9.120533	1.545060	0.000183
 268	2.6567e+01	5.3191	52.303112	0.000709	7.093748	1.201713	0.000142
 269	2.6666e+01	5.3408	52.448449	0.000730	7.296427	1.236048	0.000146
 270	2.6765e+01	5.3606	52.609934	0.000811	8.107141	1.373387	0.000162
 271	2.6865e+01	5.3796	52.823903	0.001074	10.741961	1.819738	0.000215
 272	2.6965e+01	5.3998	52.985388	0.000811	8.107141	1.373387	0.000162
 273	2.7064e+01	5.4198	53.146873	0.000811	8.107141	1.373387	0.000162
 274	2.7163e+01	5.4400	53.324507	0.000892	8.917855	1.510725	0.000179
 275	2.7263e+01	5.4594	53.457733	0.000669	6.688391	1.133044	0.000134
 276	2.7363e+01	5.4797	53.627293	0.000851	8.512498	1.442056	0.000170
 277	2.7462e+01	5.4995	53.837224	0.001054	10.539283	1.785403	0.000211
 278	2.7561e+01	5.5190	53.986598	0.000750	7.499105	1.270383	0.000150
 279	2.7661e+01	5.5395	54.160194	0.000872	8.715176	1.476391	0.000174
 280	2.7761e+01	5.5578	54.337828	0.000892	8.917855	1.510725	0.000179
 281	2.7860e+01	5.5796	54.483165	0.000730	7.296427	1.236048	0.000146
 282	2.7959e+01	5.5996	54.648688	0.000831	8.309819	1.407721	0.000166
 283	2.8059e+01	5.6203	54.838433	0.000953	9.525890	1.613730	0.000191
 284	2.8159e+01	5.6399	55.003956	0.000831	8.309819	1.407721	0.000166
 285	2.8258e+01	5.6596	55.173516	0.000851	8.512498	1.442056	0.000170
 286	2.8358e+01	5.6789	55.343075	0.000851	8.512498	1.442056	0.000170
 287	2.8457e+01	5.6988	55.488412	0.000730	7.296427	1.236048	0.000146
 288	2.8556e+01	5.7191	55.678158	0.000953	9.525890	1.613730	0.000191
 289	2.8656e+01	5.7391	55.807346	0.000649	6.485713	1.098709	0.000130
 290	2.8756e+01	5.7586	55.984980	0.000892	8.917855	1.510725	0.000179
 291	2.8855e+01	5.7789	56.142428	0.000790	7.904462	1.339052	0.000158
 292	2.8954e+01	5.7989	56.352359	0.001054	10.539283	1.785403	0.000211
 293	2.9054e+01	5.8184	56.473473	0.000608	6.080356	1.030040	0.000122
 294	2.9154e+01	5.8385	56.643033	0.000851	8.512498	1.442056	0.000170
 295	2.9253e+01	5.8591	56.792407	0.000750	7.499105	1.270383	0.000150
 296	2.9352e+01	5.8781	56.961967	0.000851	8.512498	1.442056	0.000170
 297	2.9452e+01	5.8978	57.139601	0.000892	8.917855	1.510725	0.000179
 298	2.9552e+01	5.9173	57.301086	0.000811	8.107141	1.373387	0.000162
 299	2.9651e+01	5.9385	57.454497	0.000770	7.701784	1.304717	0.000154
 300	2.9750e+01	5.9579	57.620020	0.000831	8.309819	1.407721	0.000166
 301	2.9850e+01	5.9777	57.797654	0.000892	8.917855	1.510725	0.000179
 302	2.9950e+01	5.9976	57.955102	0.000790	7.904462	1.339052	0.000158
 303	3.0049e+01	6.0183	58.076216	0.000608	6.080356	1.030040	0.000122
 304	3.0148e+01	6.0369	58.261924	0.000932	9.323212	1.579395	0.000187
 305	3.0248e+01	6.0577	58.366890	0.000527	5.269641	0.892701	0.000105
 306	3.0348e+01	6.0781	58.552598	0.000932	9.323212	1.579395	0.000187
 307	3.0447e+01	6.0979	58.794826	0.001216	12.160711	2.060080	0.000243
 308	3.0547e+01	6.1174	58.895755	0.000507	5.066963	0.858367	0.000101
 309	3.0646e+01	6.1376	59.037054	0.000709	7.093748	1.201713	0.000142
 310	3.0745e+01	6.1568	59.226800	0.000953	9.525890	1.613730	0.000191
 311	3.0845e+01	6.1773	59.360025	0.000669	6.688391	1.133044	0.000134
 312	3.0945e+01	6.1980	59.473065	0.000567	5.674998	0.961371	0.000114
 313	3.1044e+01	6.2176	59.695108	0.001115	11.147318	1.888407	0.000223
 314	3.1143e+01	6.2371	59.848519	0.000770	7.701784	1.304717	0.000154
 315	3.1243e+01	6.2566	59.993856	0.000730	7.296427	1.236048	0.000146
 316	3.1343e+01	6.2760	60.143230	0.000750	7.499105	1.270383	0.000150
 317	3.1442e+01	6.2975	60.320864	0.000892	8.917855	1.510725	0.000179
 318	3.1541e+01	6.3152	60.466201	0.000730	7.296427	1.236048	0.000146
 319	3.1641e+01	6.3369	60.627686	0.000811	8.107141	1.373387	0.000162
 320	3.1741e+01	6.3558	60.817431	0.000953	9.525890	1.613730	0.000191
 321	3.1840e+01	6.3766	60.930471	0.000567	5.674998	0.961371	0.000114
 322	3.1939e+01	6.3952	61.116179	0.000932	9.323212	1.579395	0.000187
 323	3.2039e+01	6.4152	61.249405	0.000669	6.688391	1.133044	0.000134
 324	3.2139e+01	6.4358	61.427039	0.000892	8.917855	1.510725	0.000179
 325	3.2238e+01	6.4559	61.564301	0.000689	6.891070	1.167379	0.000138
 326	3.2337e+01	6.4751	61.758084	0.000973	9.728569	1.648064	0.000195
 327	3.2437e+01	6.4944	61.871124	0.000567	5.674998	0.961371	0.000114
 328	3.2536e+01	6.5159	62.004349	0.000669	6.688391	1.133044	0.000134
 329	3.2636e+01	6.5350	62.169872	0.000831	8.309819	1.407721	0.000166
 330	3.2736e+01	6.5545	62.363654	0.000973	9.728569	1.648064	0.000195
 331	3.2835e+01	6.5740	62.508991	0.000730	7.296427	1.236048	0.000146
 332	3.2934e+01	6.5951	62.634142	0.000628	6.283034	1.064375	0.000126
 333	3.3034e+01	6.6152	62.787554	0.000770	7.701784	1.304717	0.000154
 334	3.3133e+01	6.6341	62.945002	0.000790	7.904462	1.339052	0.000158
 335	3.3233e+01	6.6546	63.118599	0.000872	8.715176	1.476391	0.000174
 336	3.3333e+01	6.6756	63.235676	0.000588	5.877677	0.995705	0.000118
 337	3.3432e+01	6.6949	63.409272	0.000872	8.715176	1.476391	0.000174
 338	3.3532e+01	6.7156	63.542498	0.000669	6.688391	1.133044	0.000134
 339	3.3631e+01	6.7348	63.659575	0.000588	5.877677	0.995705	0.000118
 340	3.3730e+01	6.7543	63.853357	0.000973	9.728569	1.648064	0.000195
 341	3.3830e+01	6.7747	64.002731	0.000750	7.499105	1.270383	0.000150
 342	3.3929e+01	6.7945	64.152105	0.000750	7.499105	1.270383	0.000150
 343	3.4029e+01	6.8136	64.309554	0.000790	7.904462	1.339052	0.000158
 344	3.4129e+01	6.8343	64.483151	0.000872	8.715176	1.476391	0.000174
 345	3.4228e+01	6.8542	64.592153	0.000547	5.472320	0.927036	0.000110
 346	3.4328e+01	6.8733	64.769787	0.000892	8.917855	1.510725	0.000179
 347	3.4427e+01	6.8941	64.903013	0.000669	6.688391	1.133044	0.000134
 348	3.4526e+01	6.9135	65.012015	0.000547	5.472320	0.927036	0.000110
 349	3.4626e+01	6.9338	65.217909	0.001034	10.336604	1.751068	0.000207
 350	3.4725e+01	6.9525	65.343060	0.000628	6.283034	1.064375	0.000126
 351	3.4825e+01	6.9730	65.472249	0.000649	6.485713	1.098709	0.000130
 352	3.4925e+01	6.9933	65.641809	0.000851	8.512498	1.442056	0.000170
 353	3.5024e+01	7.0132	65.791183	0.000750	7.499105	1.270383	0.000150
 354	3.5123e+01	7.0333	65.920371	0.000649	6.485713	1.098709	0.000130
 355	3.5223e+01	7.0535	66.102042	0.000912	9.120533	1.545060	0.000183
 356	3.5322e+01	7.0731	66.239305	0.000689	6.891070	1.167379	0.000138
 357	3.5422e+01	7.0940	66.328122	0.000446	4.458927	0.755363	0.000089
 358	3.5522e+01	7.1122	66.481533	0.000770	7.701784	1.304717	0.000154
 359	3.5621e+01	7.1323	66.659167	0.000892	8.917855	1.510725	0.000179
 360	3.5721e+01	7.1526	66.788355	0.000649	6.485713	1.098709	0.000130
 361	3.5820e+01	7.1725	66.937729	0.000750	7.499105	1.270383	0.000150
 362	3.5919e+01	7.1931	67.042695	0.000527	5.269641	0.892701	0.000105
 363	3.6019e+01	7.2125	67.224366	0.000912	9.120533	1.545060	0.000183
 364	3.6118e+01	7.2329	67.385851	0.000811	8.107141	1.373387	0.000162
 365	3.6218e+01	7.2529	67.502928	0.000588	5.877677	0.995705	0.000118
 366	3.6318e+01	7.2720	67.660376	0.000790	7.904462	1.339052	0.000158
 367	3.6417e+01	7.2926	67.801676	0.000709	7.093748	1.201713	0.000142
 368	3.6517e+01	7.3118	67.918753	0.000588	5.877677	0.995705	0.000118
 369	3.6616e+01	7.3335	68.080239	0.000811	8.107141	1.373387	0.000162
 370	3.6715e+01	7.3524	68.233650	0.000770	7.701784	1.304717	0.000154
 371	3.6815e+01	7.3712	68.370912	0.000689	6.891070	1.167379	0.000138
 372	3.6914e+01	7.3916	68.516249	0.000730	7.296427	1.236048	0.000146
 373	3.7014e+01	7.4117	68.657549	0.000709	7.093748	1.201713	0.000142
 374	3.7114e+01	7.4316	68.790774	0.000669	6.688391	1.133044	0.000134
 375	3.7213e+01	7.4525	68.932074	0.000709	7.093748	1.201713	0.000142
 376	3.7313e+01	7.4717	69.089522	0.000790	7.904462	1.339052	0.000158
 377	3.7412e+01	7.4908	69.202562	0.000567	5.674998	0.961371	0.000114
 378	3.7511e+01	7.5121	69.364048	0.000811	8.107141	1.373387	0.000162
 379	3.7611e+01	7.5317	69.541682	0.000892	8.917855	1.510725	0.000179
 380	3.7711e+01	7.5512	69.646647	0.000527	5.269641	0.892701	0.000105
 381	3.7810e+01	7.5710	69.824281	0.000892	8.917855	1.510725	0.000179
 382	3.7910e+01	7.5915	69.945395	0.000608	6.080356	1.030040	0.000122
 383	3.8009e+01	7.6107	70.086695	0.000709	7.093748	1.201713	0.000142
 384	3.8108e+01	7.6315	70.219920	0.000669	6.688391	1.133044	0.000134
 385	3.8208e+01	7.6514	70.381406	0.000811	8.107141	1.373387	0.000162
 386	3.8307e+01	7.6710	70.518669	0.000689	6.891070	1.167379	0.000138
 387	3.8407e+01	7.6912	70.664005	0.000730	7.296427	1.236048	0.000146
 388	3.8507e+01	7.7106	70.793194	0.000649	6.485713	1.098709	0.000130
 389	3.8606e+01	7.7303	70.926419	0.000669	6.688391	1.133044	0.000134
 390	3.8706e+01	7.7498	71.051570	0.000628	6.283034	1.064375	0.000126
 391	3.8805e+01	7.7707	71.204982	0.000770	7.701784	1.304717	0.000154
 392	3.8904e+01	7.7903	71.342244	0.000689	6.891070	1.167379	0.000138
 393	3.9004e+01	7.8112	71.515841	0.000872	8.715176	1.476391	0.000174
 394	3.9103e+01	7.8301	71.608695	0.000466	4.661606	0.789697	0.000093
 395	3.9203e+01	7.8503	71.745958	0.000689	6.891070	1.167379	0.000138
 396	3.9303e+01	7.8703	71.947815	0.001013	10.133926	1.716734	0.000203
 397	3.9402e+01	7.8898	72.052780	0.000527	5.269641	0.892701	0.000105
 398	3.9502e+01	7.9098	72.202154	0.000750	7.499105	1.270383	0.000150
 399	3.9601e+01	7.9296	72.327305	0.000628	6.283034	1.064375	0.000126
 400	3.9700e+01	7.9498	72.468605	0.000709	7.093748	1.201713	0.000142
 401	3.9800e+01	7.9699	72.593756	0.000628	6.283034	1.064375	0.000126
 402	3.9900e+01	7.9893	72.735056	0.000709	7.093748	1.201713	0.000142
 403	3.9999e+01	8.0089	72.860207	0.000628	6.283034	1.064375	0.000126
 404	4.0099e+01	8.0296	73.025730	0.000831	8.309819	1.407721	0.000166
 405	4.0198e+01	8.0501	73.122621	0.000486	4.864284	0.824032	0.000097
 406	4.0297e+01	8.0692	73.267958	0.000730	7.296427	1.236048	0.000146
 407	4.0397e+01	8.0889	73.453666	0.000932	9.323212	1.579395	0.000187
 408	4.0496e+01	8.1092	73.550557	0.000486	4.864284	0.824032	0.000097
 409	4.0596e+01	8.1284	73.695894	0.000730	7.296427	1.236048	0.000146
 410	4.0696e+01	8.1484	73.849305	0.000770	7.701784	1.304717	0.000154
 411	4.0795e+01	8.1686	73.982531	0.000669	6.688391	1.133044	0.000134
 412	4.0895e+01	8.1885	74.131905	0.000750	7.499105	1.270383	0.000150
 413	4.0994e+01	8.2095	74.293390	0.000811	8.107141	1.373387	0.000162
 414	4.1093e+01	8.2284	74.402393	0.000547	5.472320	0.927036	0.000110
 415	4.1193e+01	8.2485	74.547730	0.000730	7.296427	1.236048	0.000146
 416	4.1292e+01	8.2673	74.676918	0.000649	6.485713	1.098709	0.000130
 417	4.1392e+01	8.2879	74.826292	0.000750	7.499105	1.270383	0.000150
 418	4.1492e+01	8.3094	74.971629	0.000730	7.296427	1.236048	0.000146
 419	4.1591e+01	8.3283	75.100818	0.000649	6.485713	1.098709	0.000130
 420	4.1691e+01	8.3472	75.217895	0.000588	5.877677	0.995705	0.000118
 421	4.1790e+01	8.3681	75.375343	0.000790	7.904462	1.339052	0.000158
 422	4.1889e+01	8.3880	75.508568	0.000669	6.688391	1.133044	0.000134
 423	4.1989e+01	8.4072	75.661979	0.000770	7.701784	1.304717	0.000154
 424	4.2089e+01	8.4282	75.827502	0.000831	8.309819	1.407721	0.000166
 425	4.2188e+01	8.4478	75.944579	0.000588	5.877677	0.995705	0.000118
 426	4.2288e+01	8.4675	76.085879	0.000709	7.093748	1.201713	0.000142
 427	4.2387e+01	8.4875	76.182770	0.000486	4.864284	0.824032	0.000097
 428	4.2486e+01	8.5075	76.332144	0.000750	7.499105	1.270383	0.000150
 429	4.2586e+01	8.5278	76.501704	0.000851	8.512498	1.442056	0.000170
 430	4.2685e+01	8.5473	76.606669	0.000527	5.269641	0.892701	0.000105
 431	4.2785e+01	8.5682	76.764117	0.000790	7.904462	1.339052	0.000158
 432	4.2885e+01	8.5873	76.917529	0.000770	7.701784	1.304717	0.000154
 433	4.2984e+01	8.6070	77.062866	0.000730	7.296427	1.236048	0.000146
 434	4.3084e+01	8.6260	77.171868	0.000547	5.472320	0.927036	0.000110
 435	4.3183e+01	8.6475	77.321242	0.000750	7.499105	1.270383	0.000150
 436	4.3282e+01	8.6678	77.458505	0.000689	6.891070	1.167379	0.000138
 437	4.3382e+01	8.6877	77.595767	0.000689	6.891070	1.167379	0.000138
 438	4.3481e+01	8.7061	77.704770	0.000547	5.472320	0.927036	0.000110
 439	4.3581e+01	8.7267	77.858181	0.000770	7.701784	1.304717	0.000154
 440	4.3681e+01	8.7469	77.995444	0.000689	6.891070	1.167379	0.000138
 441	4.3780e+01	8.7676	78.156929	0.000811	8.107141	1.373387	0.000162
 442	4.3880e+01	8.7863	78.298229	0.000709	7.093748	1.201713	0.000142
 443	4.3979e+01	8.8065	78.431455	0.000669	6.688391	1.133044	0.000134
 444	4.4078e+01	8.8268	78.548531	0.000588	5.877677	0.995705	0.000118
 445	4.4178e+01	8.8451	78.689831	0.000709	7.093748	1.201713	0.000142
 446	4.4278e+01	8.8657	78.819020	0.000649	6.485713	1.098709	0.000130
 447	4.4377e+01	8.8854	78.952245	0.000669	6.688391	1.133044	0.000134
 448	4.4477e+01	8.9045	79.121805	0.000851	8.512498	1.442056	0.000170
 449	4.4576e+01	8.9258	79.259067	0.000689	6.891070	1.167379	0.000138
 450	4.4675e+01	8.9445	79.420553	0.000811	8.107141	1.373387	0.000162
 451	4.4775e+01	8.9654	79.525518	0.000527	5.269641	0.892701	0.000105
 452	4.4874e+01	8.9855	79.670855	0.000730	7.296427	1.236048	0.000146
 453	4.4974e+01	9.0041	79.787932	0.000588	5.877677	0.995705	0.000118
 454	4.5074e+01	9.0252	79.937306	0.000750	7.499105	1.270383	0.000150
 455	4.5173e+01	9.0446	80.106866	0.000851	8.512498	1.442056	0.000170
 456	4.5273e+01	9.0650	80.223943	0.000588	5.877677	0.995705	0.000118
 457	4.5372e+01	9.0849	80.345057	0.000608	6.080356	1.030040	0.000122
 458	4.5471e+01	9.1045	80.502505	0.000790	7.904462	1.339052	0.000158
 459	4.5571e+01	9.1249	80.595359	0.000466	4.661606	0.789697	0.000093
 460	4.5670e+01	9.1448	80.752808	0.000790	7.904462	1.339052	0.000158
 461	4.5770e+01	9.1651	80.914293	0.000811	8.107141	1.373387	0.000162
 462	4.5870e+01	9.1836	81.011184	0.000486	4.864284	0.824032	0.000097
 463	4.5969e+01	9.2049	81.160558	0.000750	7.499105	1.270383	0.000150
 464	4.6069e+01	9.2237	81.318007	0.000790	7.904462	1.339052	0.000158
 465	4.6168e+01	9.2437	81.386638	0.000345	3.445535	0.583689	0.000069
 466	4.6267e+01	9.2635	81.536012	0.000750	7.499105	1.270383	0.000150
 467	4.6367e+01	9.2843	81.697497	0.000811	8.107141	1.373387	0.000162
 468	4.6467e+01	9.3040	81.802463	0.000527	5.269641	0.892701	0.000105
 469	4.6566e+01	9.3238	81.947800	0.000730	7.296427	1.236048	0.000146
 470	4.6666e+01	9.3433	82.068914	0.000608	6.080356	1.030040	0.000122
 471	4.6765e+01	9.3633	82.218288	0.000750	7.499105	1.270383	0.000150
 472	4.6864e+01	9.3838	82.355550	0.000689	6.891070	1.167379	0.000138
 473	4.6964e+01	9.4033	82.492813	0.000689	6.891070	1.167379	0.000138
 474	4.7063e+01	9.4253	82.609890	0.000588	5.877677	0.995705	0.000118
 475	4.7163e+01	9.4436	82.783487	0.000872	8.715176	1.476391	0.000174
 476	4.7263e+01	9.4631	82.900564	0.000588	5.877677	0.995705	0.000118
 477	4.7362e+01	9.4827	83.049938	0.000750	7.499105	1.270383	0.000150
 478	4.7462e+01	9.5020	83.179126	0.000649	6.485713	1.098709	0.000130
 479	4.7561e+01	9.5223	83.284092	0.000527	5.269641	0.892701	0.000105
 480	4.7660e+01	9.5430	83.433466	0.000750	7.499105	1.270383	0.000150
 481	4.7760e+01	9.5628	83.546506	0.000567	5.674998	0.961371	0.000114
 482	4.7859e+01	9.5834	83.703954	0.000790	7.904462	1.339052	0.000158
 483	4.7959e+01	9.6025	83.821031	0.000588	5.877677	0.995705	0.000118
 484	4.8059e+01	9.6226	83.970405	0.000750	7.499105	1.270383	0.000150
 485	4.8158e+01	9.6426	84.111705	0.000709	7.093748	1.201713	0.000142
 486	4.8258e+01	9.6633	84.244930	0.000669	6.688391	1.133044	0.000134
 487	4.8357e+01	9.6828	84.366044	0.000608	6.080356	1.030040	0.000122
 488	4.8456e+01	9.7024	84.479084	0.000567	5.674998	0.961371	0.000114
 489	4.8556e+01	9.7218	84.596161	0.000588	5.877677	0.995705	0.000118
 490	4.8656e+01	9.7412	84.741498	0.000730	7.296427	1.236048	0.000146
 491	4.8755e+01	9.7625	84.854538	0.000567	5.674998	0.961371	0.000114
 492	4.8855e+01	9.7811	85.011986	0.000790	7.904462	1.339052	0.000158
 493	4.8954e+01	9.8022	85.173471	0.000811	8.107141	1.373387	0.000162
 494	4.9053e+01	9.8222	85.294585	0.000608	6.080356	1.030040	0.000122
 495	4.9153e+01	9.8414	85.403588	0.000547	5.472320	0.927036	0.000110
 496	4.9252e+01	9.8617	85.516628	0.000567	5.674998	0.961371	0.000114
 497	4.9352e+01	9.8821	85.641779	0.000628	6.283034	1.064375	0.000126
 498	4.9452e+01	9.9014	85.754819	0.000567	5.674998	0.961371	0.000114
 499	4.9551e+01	9.9209	85.896119	0.000709	7.093748	1.201713	0.000142
 500	4.9651e+01	9.9403	86.025307	0.000649	6.485713	1.098709	0.000130
 501	4.9750e+01	9.9603	86.154495	0.000649	6.485713	1.098709	0.000130
 502	4.9849e+01	9.9801	86.287721	0.000669	6.688391	1.133044	0.000134
 503	4.9949e+01	9.9999	86.420946	0.000669	6.688391	1.133044	0.000134
 504	5.0048e+01	9.9805	86.360389	0.000304	3.040178	0.515020	-0.000061
 505	5.0148e+01	9.9618	86.243312	0.000588	5.877677	0.995705	-0.000118
 506	5.0248e+01	9.9408	86.138347	0.000527	5.269641	0.892701	-0.000105
 507	5.0347e+01	9.9212	86.037418	0.000507	5.066963	0.858367	-0.000101
 508	5.0447e+01	9.9023	85.972824	0.000324	3.242856	0.549355	-0.000065
 509	5.0546e+01	9.8817	85.855747	0.000588	5.877677	0.995705	-0.000118
 510	5.0645e+01	9.8611	85.746745	0.000547	5.472320	0.927036	-0.000110
 511	5.0745e+01	9.8403	85.617556	0.000649	6.485713	1.098709	-0.000130
 512	5.0844e+01	9.8208	85.548925	0.000345	3.445535	0.583689	-0.000069
 513	5.0944e+01	9.8023	85.435885	0.000567	5.674998	0.961371	-0.000114
 514	5.1044e+01	9.7817	85.355142	0.000405	4.053570	0.686693	-0.000081
 515	5.1143e+01	9.7616	85.238065	0.000588	5.877677	0.995705	-0.000118
 516	5.1242e+01	9.7424	85.149248	0.000446	4.458927	0.755363	-0.000089
 517	5.1342e+01	9.7212	85.020060	0.000649	6.485713	1.098709	-0.000130
 518	5.1441e+01	9.7026	84.882797	0.000689	6.891070	1.167379	-0.000138
 519	5.1541e+01	9.6822	84.802055	0.000405	4.053570	0.686693	-0.000081
 520	5.1641e+01	9.6636	84.709201	0.000466	4.661606	0.789697	-0.000093
 521	5.1740e+01	9.6425	84.596161	0.000567	5.674998	0.961371	-0.000114
 522	5.1840e+01	9.6227	84.503307	0.000466	4.661606	0.789697	-0.000093
 523	5.1939e+01	9.6029	84.406415	0.000486	4.864284	0.824032	-0.000097
 524	5.2038e+01	9.5819	84.325673	0.000405	4.053570	0.686693	-0.000081
 525	5.2138e+01	9.5618	84.216670	0.000547	5.472320	0.927036	-0.000110
 526	5.2237e+01	9.5422	84.059222	0.000790	7.904462	1.339052	-0.000158
 527	5.2337e+01	9.5231	83.942145	0.000588	5.877677	0.995705	-0.000118
 528	5.2437e+01	9.5031	83.837179	0.000527	5.269641	0.892701	-0.000105
 529	5.2536e+01	9.4834	83.728177	0.000547	5.472320	0.927036	-0.000110
 530	5.2636e+01	9.4636	83.631285	0.000486	4.864284	0.824032	-0.000097
 531	5.2735e+01	9.4434	83.514208	0.000588	5.877677	0.995705	-0.000118
 532	5.2834e+01	9.4234	83.393094	0.000608	6.080356	1.030040	-0.000122
 533	5.2934e+01	9.4039	83.296203	0.000486	4.864284	0.824032	-0.000097
 534	5.3033e+01	9.3836	83.175089	0.000608	6.080356	1.030040	-0.000122
 535	5.3133e+01	9.3632	83.037826	0.000689	6.891070	1.167379	-0.000138
 536	5.3233e+01	9.3436	82.932861	0.000527	5.269641	0.892701	-0.000105
 537	5.3332e+01	9.3240	82.848081	0.000426	4.256249	0.721028	-0.000085
 538	5.3431e+01	9.3040	82.718893	0.000649	6.485713	1.098709	-0.000130
 539	5.3531e+01	9.2840	82.601816	0.000588	5.877677	0.995705	-0.000118
 540	5.3630e+01	9.2630	82.496850	0.000527	5.269641	0.892701	-0.000105
 541	5.3730e+01	9.2443	82.391885	0.000527	5.269641	0.892701	-0.000105
 542	5.3830e+01	9.2242	82.290956	0.000507	5.066963	0.858367	-0.000101
 543	5.3929e+01	9.2041	82.133508	0.000790	7.904462	1.339052	-0.000158
 544	5.4029e+01	9.1833	82.056802	0.000385	3.850892	0.652359	-0.000077
 545	5.4128e+01	9.1653	81.943763	0.000567	5.674998	0.961371	-0.000114
 546	5.4227e+01	9.1447	81.826686	0.000588	5.877677	0.995705	-0.000118
 547	5.4327e+01	9.1241	81.709609	0.000588	5.877677	0.995705	-0.000118
 548	5.4426e+01	9.1039	81.588495	0.000608	6.080356	1.030040	-0.000122
 549	5.4526e+01	9.0853	81.467381	0.000608	6.080356	1.030040	-0.000122
 550	5.4626e+01	9.0655	81.366452	0.000507	5.066963	0.858367	-0.000101
 551	5.4725e+01	9.0447	81.273598	0.000466	4.661606	0.789697	-0.000093
 552	5.4825e+01	9.0246	81.136335	0.000689	6.891070	1.167379	-0.000138
 553	5.4924e+01	9.0044	81.027333	0.000547	5.472320	0.927036	-0.000110
 554	5.5023e+01	8.9846	80.922367	0.000527	5.269641	0.892701	-0.000105
 555	5.5123e+01	8.9654	80.781068	0.000709	7.093748	1.201713	-0.000142
 556	5.5222e+01	8.9443	80.672065	0.000547	5.472320	0.927036	-0.000110
 557	5.5322e+01	8.9245	80.559025	0.000567	5.674998	0.961371	-0.000114
 558	5.5422e+01	8.9065	80.441948	0.000588	5.877677	0.995705	-0.000118
 559	5.5521e+01	8.8858	80.312760	0.000649	6.485713	1.098709	-0.000130
 560	5.5620e+01	8.8653	80.227980	0.000426	4.256249	0.721028	-0.000085
 561	5.5720e+01	8.8462	80.106866	0.000608	6.080356	1.030040	-0.000122
 562	5.5819e+01	8.8268	79.965566	0.000709	7.093748	1.201713	-0.000142
 563	5.5919e+01	8.8067	79.844452	0.000608	6.080356	1.030040	-0.000122
 564	5.6019e+01	8.7870	79.715264	0.000649	6.485713	1.098709	-0.000130
 565	5.6118e+01	8.7672	79.614335	0.000507	5.066963	0.858367	-0.000101
 566	5.6218e+01	8.7467	79.477073	0.000689	6.891070	1.167379	-0.000138
 567	5.6317e+01	8.7263	79.392293	0.000426	4.256249	0.721028	-0.000085
 568	5.6416e+01	8.7058	79.230807	0.000811	8.107141	1.373387	-0.000162
 569	5.6516e+01	8.6878	79.158139	0.000365	3.648213	0.618024	-0.000073
 570	5.6615e+01	8.6666	79.016839	0.000709	7.093748	1.201713	-0.000142
 571	5.6715e+01	8.6462	78.907837	0.000547	5.472320	0.927036	-0.000110
 572	5.6815e+01	8.6275	78.754425	0.000770	7.701784	1.304717	-0.000154
 573	5.6914e+01	8.6069	78.685794	0.000345	3.445535	0.583689	-0.000069
 574	5.7014e+01	8.5870	78.528346	0.000790	7.904462	1.339052	-0.000158
 575	5.7113e+01	8.5671	78.395120	0.000669	6.688391	1.133044	-0.000134
 576	5.7212e+01	8.5470	78.290155	0.000527	5.269641	0.892701	-0.000105
 577	5.7312e+01	8.5288	78.169041	0.000608	6.080356	1.030040	-0.000122
 578	5.7411e+01	8.5076	78.060038	0.000547	5.472320	0.927036	-0.000110
 579	5.7511e+01	8.4882	77.971221	0.000446	4.458927	0.755363	-0.000089
 580	5.7611e+01	8.4679	77.846070	0.000628	6.283034	1.064375	-0.000126
 581	5.7710e+01	8.4478	77.708807	0.000689	6.891070	1.167379	-0.000138
 582	5.7809e+01	8.4283	77.624027	0.000426	4.256249	0.721028	-0.000085
 583	5.7909e+01	8.4074	77.462542	0.000811	8.107141	1.373387	-0.000162
 584	5.8008e+01	8.3874	77.333354	0.000649	6.485713	1.098709	-0.000130
 585	5.8108e+01	8.3675	77.216277	0.000588	5.877677	0.995705	-0.000118
 586	5.8208e+01	8.3479	77.131497	0.000426	4.256249	0.721028	-0.000085
 587	5.8307e+01	8.3286	76.994234	0.000689	6.891070	1.167379	-0.000138
 588	5.8407e+01	8.3090	76.856972	0.000689	6.891070	1.167379	-0.000138
 589	5.8506e+01	8.2884	76.784303	0.000365	3.648213	0.618024	-0.000073
 590	5.8605e+01	8.2671	76.618781	0.000831	8.309819	1.407721	-0.000166
 591	5.8705e+01	8.2490	76.517852	0.000507	5.066963	0.858367	-0.000101
 592	5.8804e+01	8.2291	76.388664	0.000649	6.485713	1.098709	-0.000130
 593	5.8904e+01	8.2092	76.279661	0.000547	5.472320	0.927036	-0.000110
 594	5.9004e+01	8.1887	76.162584	0.000588	5.877677	0.995705	-0.000118
 595	5.9103e+01	8.1681	76.065693	0.000486	4.864284	0.824032	-0.000097
 596	5.9203e+01	8.1487	75.904208	0.000811	8.107141	1.373387	-0.000162
 597	5.9302e+01	8.1286	75.811353	0.000466	4.661606	0.789697	-0.000093
 598	5.9401e+01	8.1100	75.661979	0.000750	7.499105	1.270383	-0.000150
 599	5.9501e+01	8.0898	75.544902	0.000588	5.877677	0.995705	-0.000118
 600	5.9600e+01	8.0697	75.431863	0.000567	5.674998	0.961371	-0.000114
 601	5.9700e+01	8.0497	75.306711	0.000628	6.283034	1.064375	-0.000126
 602	5.9800e+01	8.0297	75.177523	0.000649	6.485713	1.098709	-0.000130
 603	5.9899e+01	8.0099	75.072558	0.000527	5.269641	0.892701	-0.000105
 604	5.9998e+01	7.9891	74.955481	0.000588	5.877677	0.995705	-0.000118
 605	6.0098e+01	7.9697	74.854552	0.000507	5.066963	0.858367	-0.000101
 606	6.0197e+01	7.9504	74.729401	0.000628	6.283034	1.064375	-0.000126
 607	6.0297e+01	7.9298	74.620398	0.000547	5.472320	0.927036	-0.000110
 608	6.0397e+01	7.9104	74.507359	0.000567	5.674998	0.961371	-0.000114
 609	6.0496e+01	7.8893	74.357985	0.000750	7.499105	1.270383	-0.000150
 610	6.0596e+01	7.8706	74.236871	0.000608	6.080356	1.030040	-0.000122
 611	6.0695e+01	7.8507	74.123831	0.000567	5.674998	0.961371	-0.000114
 612	6.0794e+01	7.8309	73.986568	0.000689	6.891070	1.167379	-0.000138
 613	6.0894e+01	7.8114	73.861417	0.000628	6.283034	1.064375	-0.000126
 614	6.0993e+01	7.7906	73.772600	0.000446	4.458927	0.755363	-0.000089
 615	6.1093e+01	7.7697	73.647449	0.000628	6.283034	1.064375	-0.000126
 616	6.1193e+01	7.7502	73.510186	0.000689	6.891070	1.167379	-0.000138
 617	6.1292e+01	7.7320	73.413295	0.000486	4.864284	0.824032	-0.000097
 618	6.1392e+01	7.7102	73.255847	0.000790	7.904462	1.339052	-0.000158
 619	6.1491e+01	7.6900	73.167030	0.000446	4.458927	0.755363	-0.000089
 620	6.1590e+01	7.6702	73.033804	0.000669	6.688391	1.133044	-0.000134
 621	6.1690e+01	7.6504	72.924801	0.000547	5.472320	0.927036	-0.000110
 622	6.1789e+01	7.6301	72.807724	0.000588	5.877677	0.995705	-0.000118
 623	6.1889e+01	7.6108	72.613942	0.000973	9.728569	1.648064	-0.000195
 624	6.1989e+01	7.5900	72.533199	0.000405	4.053570	0.686693	-0.000081
 625	6.2088e+01	7.5721	72.408048	0.000628	6.283034	1.064375	-0.000126
 626	6.2188e+01	7.5515	72.299045	0.000547	5.472320	0.927036	-0.000110
 627	6.2287e+01	7.5320	72.169857	0.000649	6.485713	1.098709	-0.000130
 628	6.2386e+01	7.5115	72.044706	0.000628	6.283034	1.064375	-0.000126
 629	6.2486e+01	7.4917	71.927629	0.000588	5.877677	0.995705	-0.000118
 630	6.2586e+01	7.4720	71.786329	0.000709	7.093748	1.201713	-0.000142
 631	6.2685e+01	7.4516	71.665215	0.000608	6.080356	1.030040	-0.000122
 632	6.2785e+01	7.4321	71.540064	0.000628	6.283034	1.064375	-0.000126
 633	6.2884e+01	7.4120	71.406838	0.000669	6.688391	1.133044	-0.000134
 634	6.2983e+01	7.3916	71.289761	0.000588	5.877677	0.995705	-0.000118
 635	6.3083e+01	7.3719	71.164610	0.000628	6.283034	1.064375	-0.000126
 636	6.3182e+01	7.3528	71.031385	0.000669	6.688391	1.133044	-0.000134
 637	6.3282e+01	7.3330	70.882011	0.000750	7.499105	1.270383	-0.000150
 638	6.3382e+01	7.3124	70.773008	0.000547	5.472320	0.927036	-0.000110
 639	6.3481e+01	7.2929	70.643820	0.000649	6.485713	1.098709	-0.000130
 640	6.3581e+01	7.2732	70.510594	0.000669	6.688391	1.133044	-0.000134
 641	6.3680e+01	7.2538	70.409666	0.000507	5.066963	0.858367	-0.000101
 642	6.3779e+01	7.2315	70.256255	0.000770	7.701784	1.304717	-0.000154
 643	6.3879e+01	7.2137	70.147252	0.000547	5.472320	0.927036	-0.000110
 644	6.3978e+01	7.1937	70.042286	0.000527	5.269641	0.892701	-0.000105
 645	6.4078e+01	7.1728	69.884838	0.000790	7.904462	1.339052	-0.000158
 646	6.4177e+01	7.1534	69.751613	0.000669	6.688391	1.133044	-0.000134
 647	6.4277e+01	7.1326	69.638573	0.000567	5.674998	0.961371	-0.000114
 648	6.4376e+01	7.1130	69.529570	0.000547	5.472320	0.927036	-0.000110
 649	6.4476e+01	7.0939	69.392308	0.000689	6.891070	1.167379	-0.000138
 650	6.4576e+01	7.0731	69.271194	0.000608	6.080356	1.030040	-0.000122
 651	6.4675e+01	7.0522	69.129894	0.000709	7.093748	1.201713	-0.000142
 652	6.4775e+01	7.0338	68.948223	0.000912	9.120533	1.545060	-0.000183
 653	6.4874e+01	7.0136	68.831146	0.000588	5.877677	0.995705	-0.000118
 654	6.4974e+01	6.9927	68.734255	0.000486	4.864284	0.824032	-0.000097
 655	6.5073e+01	6.9736	68.605066	0.000649	6.485713	1.098709	-0.000130
 656	6.5172e+01	6.9534	68.479915	0.000628	6.283034	1.064375	-0.000126
 657	6.5272e+01	6.9340	68.310355	0.000851	8.512498	1.442056	-0.000170
 658	6.5371e+01	6.9147	68.173093	0.000689	6.891070	1.167379	-0.000138
 659	6.5471e+01	6.8942	68.084276	0.000446	4.458927	0.755363	-0.000089
 660	6.5570e+01	6.8734	67.914716	0.000851	8.512498	1.442056	-0.000170
 661	6.5670e+01	6.8542	67.846085	0.000345	3.445535	0.583689	-0.000069
 662	6.5769e+01	6.8340	67.680562	0.000831	8.309819	1.407721	-0.000166
 663	6.5869e+01	6.8145	67.543299	0.000689	6.891070	1.167379	-0.000138
 664	6.5969e+01	6.7941	67.422185	0.000608	6.080356	1.030040	-0.000122
 665	6.6068e+01	6.7740	67.264737	0.000790	7.904462	1.339052	-0.000158
 666	6.6168e+01	6.7546	67.139586	0.000628	6.283034	1.064375	-0.000126
 667	6.6267e+01	6.7359	67.006360	0.000669	6.688391	1.133044	-0.000134
 668	6.6367e+01	6.7150	66.840838	0.000831	8.309819	1.407721	-0.000166
 669	6.6466e+01	6.6954	66.691464	0.000750	7.499105	1.270383	-0.000150
 670	6.6566e+01	6.6744	66.582461	0.000547	5.472320	0.927036	-0.000110
 671	6.6665e+01	6.6540	66.473458	0.000547	5.472320	0.927036	-0.000110
 672	6.6764e+01	6.6352	66.320047	0.000770	7.701784	1.304717	-0.000154
 673	6.6864e+01	6.6152	66.154525	0.000831	8.309819	1.407721	-0.000166
 674	6.6963e+01	6.5960	66.065708	0.000446	4.458927	0.755363	-0.000089
 675	6.7063e+01	6.5752	65.896148	0.000851	8.512498	1.442056	-0.000170
 676	6.7162e+01	6.5551	65.762923	0.000669	6.688391	1.133044	-0.000134
 677	6.7262e+01	6.5350	65.593363	0.000851	8.512498	1.442056	-0.000170
 678	6.7362e+01	6.5156	65.528769	0.000324	3.242856	0.549355	-0.000065
 679	6.7461e+01	6.4960	65.375358	0.000770	7.701784	1.304717	-0.000154
 680	6.7561e+01	6.4751	65.238095	0.000689	6.891070	1.167379	-0.000138
 681	6.7660e+01	6.4553	65.092758	0.000730	7.296427	1.236048	-0.000146
 682	6.7760e+01	6.4358	64.939347	0.000770	7.701784	1.304717	-0.000154
 683	6.7859e+01	6.4161	64.818233	0.000608	6.080356	1.030040	-0.000122
 684	6.7959e+01	6.3958	64.668859	0.000750	7.499105	1.270383	-0.000150
 685	6.8058e+01	6.3754	64.539670	0.000649	6.485713	1.098709	-0.000130
 686	6.8157e+01	6.3558	64.357999	0.000912	9.120533	1.545060	-0.000183
 687	6.8257e+01	6.3362	64.277257	0.000405	4.053570	0.686693	-0.000081
 688	6.8356e+01	6.3165	64.091548	0.000932	9.323212	1.579395	-0.000187
 689	6.8456e+01	6.2968	63.954286	0.000689	6.891070	1.167379	-0.000138
 690	6.8555e+01	6.2772	63.857395	0.000486	4.864284	0.824032	-0.000097
 691	6.8655e+01	6.2565	63.703983	0.000770	7.701784	1.304717	-0.000154
 692	6.8754e+01	6.2379	63.534424	0.000851	8.512498	1.442056	-0.000170
 693	6.8854e+01	6.2170	63.417347	0.000588	5.877677	0.995705	-0.000118
 694	6.8954e+01	6.1974	63.272010	0.000730	7.296427	1.236048	-0.000146
 695	6.9053e+01	6.1773	63.082264	0.000953	9.525890	1.613730	-0.000191
 696	6.9153e+01	6.1575	62.957113	0.000628	6.283034	1.064375	-0.000126
 697	6.9252e+01	6.1379	62.803702	0.000770	7.701784	1.304717	-0.000154
 698	6.9352e+01	6.1169	62.650291	0.000770	7.701784	1.304717	-0.000154
 699	6.9451e+01	6.0972	62.545325	0.000527	5.269641	0.892701	-0.000105
 700	6.9550e+01	6.0778	62.375766	0.000851	8.512498	1.442056	-0.000170
 701	6.9650e+01	6.0574	62.214280	0.000811	8.107141	1.373387	-0.000162
 702	6.9749e+01	6.0381	62.060869	0.000770	7.701784	1.304717	-0.000154
 703	6.9849e+01	6.0177	61.915532	0.000730	7.296427	1.236048	-0.000146
 704	6.9948e+01	5.9985	61.810567	0.000527	5.269641	0.892701	-0.000105
 705	7.0048e+01	5.9777	61.641007	0.000851	8.512498	1.442056	-0.000170
 706	7.0147e+01	5.9579	61.487596	0.000770	7.701784	1.304717	-0.000154
 707	7.0247e+01	5.9374	61.354370	0.000669	6.688391	1.133044	-0.000134
 708	7.0347e+01	5.9185	61.209033	0.000730	7.296427	1.236048	-0.000146
 709	7.0446e+01	5.8982	61.063697	0.000730	7.296427	1.236048	-0.000146
 710	7.0546e+01	5.8790	60.922397	0.000709	7.093748	1.201713	-0.000142
 711	7.0645e+01	5.8588	60.785134	0.000689	6.891070	1.167379	-0.000138
 712	7.0745e+01	5.8385	60.615575	0.000851	8.512498	1.442056	-0.000170
 713	7.0844e+01	5.8184	60.498498	0.000588	5.877677	0.995705	-0.000118
 714	7.0944e+01	5.7983	60.389495	0.000547	5.472320	0.927036	-0.000110
 715	7.1043e+01	5.7775	60.195712	0.000973	9.728569	1.648064	-0.000195
 716	7.1142e+01	5.7577	60.086710	0.000547	5.472320	0.927036	-0.000110
 717	7.1242e+01	5.7389	59.937336	0.000750	7.499105	1.270383	-0.000150
 718	7.1341e+01	5.7193	59.779887	0.000790	7.904462	1.339052	-0.000158
 719	7.1441e+01	5.6985	59.630513	0.000750	7.499105	1.270383	-0.000150
 720	7.1540e+01	5.6790	59.485177	0.000730	7.296427	1.236048	-0.000146
 721	7.1640e+01	5.6590	59.319654	0.000831	8.309819	1.407721	-0.000166
 722	7.1740e+01	5.6393	59.125871	0.000973	9.728569	1.648064	-0.000195
 723	7.1839e+01	5.6193	59.045129	0.000405	4.053570	0.686693	-0.000081
 724	7.1939e+01	5.5985	58.903829	0.000709	7.093748	1.201713	-0.000142
 725	7.2038e+01	5.5791	58.742344	0.000811	8.107141	1.373387	-0.000162
 726	7.2138e+01	5.5599	58.580858	0.000811	8.107141	1.373387	-0.000162
 727	7.2237e+01	5.5389	58.451670	0.000649	6.485713	1.098709	-0.000130
 728	7.2337e+01	5.5187	58.286147	0.000831	8.309819	1.407721	-0.000166
 729	7.2436e+01	5.4993	58.160996	0.000628	6.283034	1.064375	-0.000126
 730	7.2535e+01	5.4802	58.015659	0.000730	7.296427	1.236048	-0.000146
 731	7.2635e+01	5.4589	57.854174	0.000811	8.107141	1.373387	-0.000162
 732	7.2734e+01	5.4400	57.720948	0.000669	6.688391	1.133044	-0.000134
 733	7.2834e+01	5.4200	57.527166	0.000973	9.728569	1.648064	-0.000195
 734	7.2933e+01	5.3999	57.422200	0.000527	5.269641	0.892701	-0.000105
 735	7.3033e+01	5.3799	57.232455	0.000953	9.525890	1.613730	-0.000191
 736	7.3132e+01	5.3591	57.099229	0.000669	6.688391	1.133044	-0.000134
 737	7.3232e+01	5.3396	56.961967	0.000689	6.891070	1.167379	-0.000138
 738	7.3332e+01	5.3204	56.804518	0.000790	7.904462	1.339052	-0.000158
 739	7.3431e+01	5.3005	56.618810	0.000932	9.323212	1.579395	-0.000187
 740	7.3531e+01	5.2806	56.457325	0.000811	8.107141	1.373387	-0.000162
 741	7.3630e+01	5.2593	56.336211	0.000608	6.080356	1.030040	-0.000122
 742	7.3730e+01	5.2407	56.190874	0.000730	7.296427	1.236048	-0.000146
 743	7.3829e+01	5.2197	56.033425	0.000790	7.904462	1.339052	-0.000158
 744	7.3928e+01	5.2018	55.871940	0.000811	8.107141	1.373387	-0.000162
 745	7.4028e+01	5.1809	55.714492	0.000790	7.904462	1.339052	-0.000158
 746	7.4127e+01	5.1608	55.565118	0.000750	7.499105	1.270383	-0.000150
 747	7.4227e+01	5.1411	55.444004	0.000608	6.080356	1.030040	-0.000122
 748	7.4326e+01	5.1196	55.254258	0.000953	9.525890	1.613730	-0.000191
 749	7.4426e+01	5.1012	55.141218	0.000567	5.674998	0.961371	-0.000114
 750	7.4525e+01	5.0806	54.955510	0.000932	9.323212	1.579395	-0.000187
 751	7.4625e+01	5.0614	54.826322	0.000649	6.485713	1.098709	-0.000130
 752	7.4725e+01	5.0420	54.664836	0.000811	8.107141	1.373387	-0.000162
 753	7.4824e+01	5.0219	54.519500	0.000730	7.296427	1.236048	-0.000146
 754	7.4924e+01	5.0016	54.362051	0.000790	7.904462	1.339052	-0.000158
 755	7.5023e+01	4.9822	54.216714	0.000730	7.296427	1.236048	-0.000146
 756	7.5123e+01	4.9625	54.035043	0.000912	9.120533	1.545060	-0.000183
 757	7.5222e+01	4.9416	53.934115	0.000507	5.066963	0.858367	-0.000101
 758	7.5322e+01	4.9220	53.732258	0.001013	10.133926	1.716734	-0.000203
 759	7.5421e+01	4.9025	53.582884	0.000750	7.499105	1.270383	-0.000150
 760	7.5520e+01	4.8821	53.429473	0.000770	7.701784	1.304717	-0.000154
 761	7.5620e+01	4.8626	53.296247	0.000669	6.688391	1.133044	-0.000134
 762	7.5719e+01	4.8421	53.146873	0.000750	7.499105	1.270383	-0.000150
 763	7.5819e+01	4.8223	52.977314	0.000851	8.512498	1.442056	-0.000170
 764	7.5918e+01	4.8024	52.836014	0.000709	7.093748	1.201713	-0.000142
 765	7.6018e+01	4.7820	52.674529	0.000811	8.107141	1.373387	-0.000162
 766	7.6118e+01	4.7616	52.525155	0.000750	7.499105	1.270383	-0.000150
 767	7.6217e+01	4.7422	52.359632	0.000831	8.309819	1.407721	-0.000166
 768	7.6317e+01	4.7234	52.242555	0.000588	5.877677	0.995705	-0.000118
 769	7.6416e+01	4.7034	52.081070	0.000811	8.107141	1.373387	-0.000162
 770	7.6516e+01	4.6835	51.915547	0.000831	8.309819	1.407721	-0.000166
 771	7.6615e+01	4.6629	51.741950	0.000872	8.715176	1.476391	-0.000174
 772	7.6715e+01	4.6432	51.580465	0.000811	8.107141	1.373387	-0.000162
 773	7.6814e+01	4.6234	51.455314	0.000628	6.283034	1.064375	-0.000126
 774	7.6913e+01	4.6024	51.265568	0.000953	9.525890	1.613730	-0.000191
 775	7.7013e+01	4.5840	51.132343	0.000669	6.688391	1.133044	-0.000134
 776	7.7112e+01	4.5641	50.995080	0.000689	6.891070	1.167379	-0.000138
 777	7.7212e+01	4.5428	50.829558	0.000831	8.309819	1.407721	-0.000166
 778	7.7311e+01	4.5234	50.684221	0.000730	7.296427	1.236048	-0.000146
 779	7.7411e+01	4.5039	50.542921	0.000709	7.093748	1.201713	-0.000142
 780	7.7510e+01	4.4830	50.385473	0.000790	7.904462	1.339052	-0.000158
 781	7.7610e+01	4.4636	50.175542	0.001054	10.539283	1.785403	-0.000211
 782	7.7710e+01	4.4432	50.074613	0.000507	5.066963	0.858367	-0.000101
 783	7.7809e+01	4.4231	49.909091	0.000831	8.309819	1.407721	-0.000166
 784	7.7909e+01	4.4035	49.751642	0.000790	7.904462	1.339052	-0.000158
 785	7.8008e+01	4.3838	49.586120	0.000831	8.309819	1.407721	-0.000166
 786	7.8108e+01	4.3637	49.440783	0.000730	7.296427	1.236048	-0.000146
 787	7.8207e+01	4.3443	49.267186	0.000872	8.715176	1.476391	-0.000174
 788	7.8306e+01	4.3240	49.129923	0.000689	6.891070	1.167379	-0.000138
 789	7.8406e+01	4.3035	48.940178	0.000953	9.525890	1.613730	-0.000191
 790	7.8505e+01	4.2843	48.819064	0.000608	6.080356	1.030040	-0.000122
 791	7.8605e+01	4.2638	48.661616	0.000790	7.904462	1.339052	-0.000158
 792	7.8704e+01	4.2434	48.504167	0.000790	7.904462	1.339052	-0.000158
 793	7.8804e+01	4.2251	48.338645	0.000831	8.309819	1.407721	-0.000166
 794	7.8903e+01	4.2039	48.169085	0.000851	8.512498	1.442056	-0.000170
 795	7.9003e+01	4.1843	47.971265	0.000993	9.931247	1.682399	-0.000199
 796	7.9103e+01	4.1640	47.842077	0.000649	6.485713	1.098709	-0.000130
 797	7.9202e+01	4.1451	47.716926	0.000628	6.283034	1.064375	-0.000126
 798	7.9302e+01	4.1247	47.490846	0.001135	11.349997	1.922742	-0.000227
 799	7.9401e+01	4.1051	47.361658	0.000649	6.485713	1.098709	-0.000130
 800	7.9501e+01	4.0847	47.179987	0.000912	9.120533	1.545060	-0.000183
 801	7.9600e+01	4.0653	47.038687	0.000709	7.093748	1.201713	-0.000142
 802	7.9700e+01	4.0450	46.881239	0.000790	7.904462	1.339052	-0.000158
 803	7.9799e+01	4.0251	46.715716	0.000831	8.309819	1.407721	-0.000166
 804	7.9898e+01	4.0051	46.554231	0.000811	8.107141	1.373387	-0.000162
 805	7.9998e+01	3.9852	46.396782	0.000790	7.904462	1.339052	-0.000158
 806	8.0097e+01	3.9654	46.239334	0.000790	7.904462	1.339052	-0.000158
 807	8.0197e+01	3.9458	46.037477	0.001013	10.133926	1.716734	-0.000203
 808	8.0296e+01	3.9254	45.880029	0.000790	7.904462	1.339052	-0.000158
 809	8.0396e+01	3.9063	45.702395	0.000892	8.917855	1.510725	-0.000179
 810	8.0496e+01	3.8853	45.553021	0.000750	7.499105	1.270383	-0.000150
 811	8.0595e+01	3.8662	45.383461	0.000851	8.512498	1.442056	-0.000170
 812	8.0695e+01	3.8457	45.258310	0.000628	6.283034	1.064375	-0.000126
 813	8.0794e+01	3.8262	45.104899	0.000770	7.701784	1.304717	-0.000154
 814	8.0894e+01	3.8055	44.911117	0.000973	9.728569	1.648064	-0.000195
 815	8.0993e+01	3.7862	44.753668	0.000790	7.904462	1.339052	-0.000158
 816	8.1093e+01	3.7669	44.596220	0.000790	7.904462	1.339052	-0.000158
 817	8.1192e+01	3.7471	44.442809	0.000770	7.701784	1.304717	-0.000154
 818	8.1291e+01	3.7264	44.261138	0.000912	9.120533	1.545060	-0.000183
 819	8.1391e+01	3.7064	44.075429	0.000932	9.323212	1.579395	-0.000187
 820	8.1490e+01	3.6867	43.950278	0.000628	6.283034	1.064375	-0.000126
 821	8.1590e+01	3.6671	43.752459	0.000993	9.931247	1.682399	-0.000199
 822	8.1689e+01	3.6462	43.578862	0.000872	8.715176	1.476391	-0.000174
 823	8.1789e+01	3.6275	43.421413	0.000790	7.904462	1.339052	-0.000158
 824	8.1888e+01	3.6069	43.296262	0.000628	6.283034	1.064375	-0.000126
 825	8.1988e+01	3.5873	43.106517	0.000953	9.525890	1.613730	-0.000191
 826	8.2088e+01	3.5664	42.904660	0.001013	10.133926	1.716734	-0.000203
 827	8.2187e+01	3.5472	42.759323	0.000730	7.296427	1.236048	-0.000146
 828	8.2287e+01	3.5271	42.581689	0.000892	8.917855	1.510725	-0.000179
 829	8.2386e+01	3.5061	42.371758	0.001054	10.539283	1.785403	-0.000211
 830	8.2486e+01	3.4881	42.242570	0.000649	6.485713	1.098709	-0.000130
 831	8.2585e+01	3.4670	42.089159	0.000770	7.701784	1.304717	-0.000154
 832	8.2684e+01	3.4486	41.883265	0.001034	10.336604	1.751068	-0.000207
 833	8.2784e+01	3.4270	41.762151	0.000608	6.080356	1.030040	-0.000122
 834	8.2883e+01	3.4078	41.580480	0.000912	9.120533	1.545060	-0.000183
 835	8.2983e+01	3.3883	41.378623	0.001013	10.133926	1.716734	-0.000203
 836	8.3082e+01	3.3676	41.200989	0.000892	8.917855	1.510725	-0.000179
 837	8.3182e+01	3.3487	41.079875	0.000608	6.080356	1.030040	-0.000122
 838	8.3281e+01	3.3275	40.873981	0.001034	10.336604	1.751068	-0.000207
 839	8.3381e+01	3.3083	40.676161	0.000993	9.931247	1.682399	-0.000199
 840	8.3481e+01	3.2877	40.522750	0.000770	7.701784	1.304717	-0.000154
 841	8.3580e+01	3.2684	40.333005	0.000953	9.525890	1.613730	-0.000191
 842	8.3680e+01	3.2490	40.175556	0.000790	7.904462	1.339052	-0.000158
 843	8.3779e+01	3.2285	39.993885	0.000912	9.120533	1.545060	-0.000183
 844	8.3879e+01	3.2084	39.820288	0.000872	8.715176	1.476391	-0.000174
 845	8.3978e+01	3.1881	39.678989	0.000709	7.093748	1.201713	-0.000142
 846	8.4078e+01	3.1686	39.444835	0.001176	11.755354	1.991411	-0.000235
 847	8.4177e+01	3.1487	39.291424	0.000770	7.701784	1.304717	-0.000154
 848	8.4276e+01	3.1282	39.085530	0.001034	10.336604	1.751068	-0.000207
 849	8.4376e+01	3.1094	38.920007	0.000831	8.309819	1.407721	-0.000166
 850	8.4475e+01	3.0894	38.730262	0.000953	9.525890	1.613730	-0.000191
 851	8.4575e+01	3.0686	38.588962	0.000709	7.093748	1.201713	-0.000142
 852	8.4674e+01	3.0492	38.431514	0.000790	7.904462	1.339052	-0.000158
 853	8.4774e+01	3.0290	38.241768	0.000953	9.525890	1.613730	-0.000191
 854	8.4874e+01	3.0087	38.023763	0.001094	10.944640	1.854072	-0.000219
 855	8.4973e+01	2.9890	37.870352	0.000770	7.701784	1.304717	-0.000154
 856	8.5073e+01	2.9693	37.668495	0.001013	10.133926	1.716734	-0.000203
 857	8.5172e+01	2.9496	37.519121	0.000750	7.499105	1.270383	-0.000150
 858	8.5272e+01	2.9301	37.305153	0.001074	10.741961	1.819738	-0.000215
 859	8.5371e+01	2.9094	37.147704	0.000790	7.904462	1.339052	-0.000158
 860	8.5471e+01	2.8896	36.994293	0.000770	7.701784	1.304717	-0.000154
 861	8.5570e+01	2.8693	36.780325	0.001074	10.741961	1.819738	-0.000215
 862	8.5669e+01	2.8495	36.618840	0.000811	8.107141	1.373387	-0.000162
 863	8.5769e+01	2.8295	36.408909	0.001054	10.539283	1.785403	-0.000211
 864	8.5868e+01	2.8092	36.247423	0.000811	8.107141	1.373387	-0.000162
 865	8.5968e+01	2.7905	36.037492	0.001054	10.539283	1.785403	-0.000211
 866	8.6067e+01	2.7703	35.851784	0.000932	9.323212	1.579395	-0.000187
 867	8.6167e+01	2.7502	35.722596	0.000649	6.485713	1.098709	-0.000130
 868	8.6266e+01	2.7308	35.532850	0.000953	9.525890	1.613730	-0.000191
 869	8.6366e+01	2.7106	35.314845	0.001094	10.944640	1.854072	-0.000219
 870	8.6466e+01	2.6894	35.117025	0.000993	9.931247	1.682399	-0.000199
 871	8.6565e+01	2.6714	34.943428	0.000872	8.715176	1.476391	-0.000174
 872	8.6665e+01	2.6501	34.777906	0.000831	8.309819	1.407721	-0.000166
 873	8.6764e+01	2.6302	34.547789	0.001155	11.552675	1.957076	-0.000231
 874	8.6864e+01	2.6101	34.374192	0.000872	8.715176	1.476391	-0.000174
 875	8.6963e+01	2.5902	34.200595	0.000872	8.715176	1.476391	-0.000174
 876	8.7063e+01	2.5698	34.006813	0.000973	9.728569	1.648064	-0.000195
 877	8.7162e+01	2.5506	33.829179	0.000892	8.917855	1.510725	-0.000179
 878	8.7261e+01	2.5309	33.647508	0.000912	9.120533	1.545060	-0.000183
 879	8.7361e+01	2.5115	33.457762	0.000953	9.525890	1.613730	-0.000191
 880	8.7460e+01	2.4906	33.284166	0.000872	8.715176	1.476391	-0.000174
 881	8.7560e+01	2.4713	33.086346	0.000993	9.931247	1.682399	-0.000199
 882	8.7659e+01	2.4525	32.924861	0.000811	8.107141	1.373387	-0.000162
 883	8.7759e+01	2.4317	32.714929	0.001054	10.539283	1.785403	-0.000211
 884	8.7859e+01	2.4115	32.509036	0.001034	10.336604	1.751068	-0.000207
 885	8.7958e+01	2.3919	32.367736	0.000709	7.093748	1.201713	-0.000142
 886	8.8058e+01	2.3711	32.157805	0.001054	10.539283	1.785403	-0.000211
 887	8.8157e+01	2.3521	31.988245	0.000851	8.512498	1.442056	-0.000170
 888	8.8257e+01	2.3326	31.810611	0.000892	8.917855	1.510725	-0.000179
 889	8.8356e+01	2.3109	31.620866	0.000953	9.525890	1.613730	-0.000191
 890	8.8456e+01	2.2912	31.419009	0.001013	10.133926	1.716734	-0.000203
 891	8.8555e+01	2.2718	31.205041	0.001074	10.741961	1.819738	-0.000215
 892	8.8654e+01	2.2525	31.063741	0.000709	7.093748	1.201713	-0.000142
 893	8.8754e+01	2.2317	30.845736	0.001094	10.944640	1.854072	-0.000219
 894	8.8853e+01	2.2118	30.684250	0.000811	8.107141	1.373387	-0.000162
 895	8.8953e+01	2.1929	30.502579	0.000912	9.120533	1.545060	-0.000183
 896	8.9052e+01	2.1729	30.280537	0.001115	11.147318	1.888407	-0.000223
 897	8.9152e+01	2.1532	30.082717	0.000993	9.931247	1.682399	-0.000199
 898	8.9251e+01	2.1323	29.892972	0.000953	9.525890	1.613730	-0.000191
 899	8.9351e+01	2.1120	29.715338	0.000892	8.917855	1.510725	-0.000179
 900	8.9451e+01	2.0930	29.501369	0.001074	10.741961	1.819738	-0.000215
 901	8.9550e+01	2.0721	29.347958	0.000770	7.701784	1.304717	-0.000154
 902	8.9650e+01	2.0525	29.154176	0.000973	9.728569	1.648064	-0.000195
 903	8.9749e+01	2.0322	28.968467	0.000932	9.323212	1.579395	-0.000187
 904	8.9849e+01	2.0132	28.766611	0.001013	10.133926	1.716734	-0.000203
 905	8.9948e+01	1.9936	28.572828	0.000973	9.728569	1.648064	-0.000195
 906	9.0047e+01	1.9727	28.391157	0.000912	9.120533	1.545060	-0.000183
 907	9.0147e+01	1.9532	28.185263	0.001034	10.336604	1.751068	-0.000207
 908	9.0246e+01	1.9330	27.991481	0.000973	9.728569	1.648064	-0.000195
 909	9.0346e+01	1.9120	27.789624	0.001013	10.133926	1.716734	-0.000203
 910	9.0445e+01	1.8931	27.632176	0.000790	7.904462	1.339052	-0.000158
 911	9.0545e+01	1.8737	27.414170	0.001094	10.944640	1.854072	-0.000219
 912	9.0644e+01	1.8525	27.228462	0.000932	9.323212	1.579395	-0.000187
 913	9.0744e+01	1.8333	27.034679	0.000973	9.728569	1.648064	-0.000195
 914	9.0844e+01	1.8135	26.877231	0.000790	7.904462	1.339052	-0.000158
 915	9.0943e+01	1.7934	26.679412	0.000993	9.931247	1.682399	-0.000199
 916	9.1043e+01	1.7739	26.461406	0.001094	10.944640	1.854072	-0.000219
 917	9.1142e+01	1.7540	26.275698	0.000932	9.323212	1.579395	-0.000187
 918	9.1242e+01	1.7336	26.065767	0.001054	10.539283	1.785403	-0.000211
 919	9.1341e+01	1.7129	25.924467	0.000709	7.093748	1.201713	-0.000142
 920	9.1441e+01	1.6932	25.734722	0.000953	9.525890	1.613730	-0.000191
 921	9.1540e+01	1.6744	25.536902	0.000993	9.931247	1.682399	-0.000199
 922	9.1639e+01	1.6537	25.322934	0.001074	10.741961	1.819738	-0.000215
 923	9.1739e+01	1.6335	25.121077	0.001013	10.133926	1.716734	-0.000203
 924	9.1838e+01	1.6137	24.931332	0.000953	9.525890	1.613730	-0.000191
 925	9.1938e+01	1.5945	24.745624	0.000932	9.323212	1.579395	-0.000187
 926	9.2037e+01	1.5740	24.543767	0.001013	10.133926	1.716734	-0.000203
 927	9.2137e+01	1.5546	24.374207	0.000851	8.512498	1.442056	-0.000170
 928	9.2237e+01	1.5352	24.180425	0.000973	9.728569	1.648064	-0.000195
 929	9.2336e+01	1.5142	23.966456	0.001074	10.741961	1.819738	-0.000215
 930	9.2436e+01	1.4944	23.800934	0.000831	8.309819	1.407721	-0.000166
 931	9.2535e+01	1.4739	23.599077	0.001013	10.133926	1.716734	-0.000203
 932	9.2635e+01	1.4553	23.401257	0.000993	9.931247	1.682399	-0.000199
 933	9.2734e+01	1.4352	23.207475	0.000973	9.728569	1.648064	-0.000195
 934	9.2834e+01	1.4152	22.993507	0.001074	10.741961	1.819738	-0.000215
 935	9.2933e+01	1.3956	22.815873	0.000892	8.917855	1.510725	-0.000179
 936	9.3032e+01	1.3748	22.638239	0.000892	8.917855	1.510725	-0.000179
 937	9.3132e+01	1.3547	22.412159	0.001135	11.349997	1.922742	-0.000227
 938	9.3231e+01	1.3354	22.238562	0.000872	8.715176	1.476391	-0.000174
 939	9.3331e+01	1.3155	22.032668	0.001034	10.336604	1.751068	-0.000207
 940	9.3430e+01	1.2952	21.863109	0.000851	8.512498	1.442056	-0.000170
 941	9.3530e+01	1.2754	21.641066	0.001115	11.147318	1.888407	-0.000223
 942	9.3629e+01	1.2551	21.435172	0.001034	10.336604	1.751068	-0.000207
 943	9.3729e+01	1.2360	21.277724	0.000790	7.904462	1.339052	-0.000158
 944	9.3829e+01	1.2170	21.083941	0.000973	9.728569	1.648064	-0.000195
 945	9.3928e+01	1.1964	20.898233	0.000932	9.323212	1.579395	-0.000187
 946	9.4028e+01	1.1759	20.700413	0.000993	9.931247	1.682399	-0.000199
 947	9.4127e+01	1.1562	20.502594	0.000993	9.931247	1.682399	-0.000199
 948	9.4227e+01	1.1366	20.264403	0.001196	11.958033	2.025746	-0.000239
 949	9.4326e+01	1.1156	20.135214	0.000649	6.485713	1.098709	-0.000130
 950	9.4425e+01	1.0958	19.901061	0.001176	11.755354	1.991411	-0.000235
 951	9.4525e+01	1.0761	19.731501	0.000851	8.512498	1.442056	-0.000170
 952	9.4624e+01	1.0567	19.537718	0.000973	9.728569	1.648064	-0.000195
 953	9.4724e+01	1.0363	19.315676	0.001115	11.147318	1.888407	-0.000223
 954	9.4823e+01	1.0172	19.105745	0.001054	10.539283	1.785403	-0.000211
 955	9.4923e+01	0.9971	18.916000	0.000953	9.525890	1.613730	-0.000191
 956	9.5022e+01	0.9769	18.730291	0.000932	9.323212	1.579395	-0.000187
 957	9.5122e+01	0.9584	18.580917	0.000750	7.499105	1.270383	-0.000150
 958	9.5222e+01	0.9359	18.338689	0.001216	12.160711	2.060080	-0.000243
 959	9.5321e+01	0.9173	18.165092	0.000872	8.715176	1.476391	-0.000174
 960	9.5421e+01	0.8971	17.930938	0.001176	11.755354	1.991411	-0.000235
 961	9.5520e+01	0.8784	17.761379	0.000851	8.512498	1.442056	-0.000170
 962	9.5620e+01	0.8573	17.531262	0.001155	11.552675	1.957076	-0.000231
 963	9.5719e+01	0.8379	17.345554	0.000932	9.323212	1.579395	-0.000187
 964	9.5819e+01	0.8173	17.135623	0.001054	10.539283	1.785403	-0.000211
 965	9.5918e+01	0.7970	16.949914	0.000932	9.323212	1.579395	-0.000187
 966	9.6017e+01	0.7774	16.735946	0.001074	10.741961	1.819738	-0.000215
 967	9.6117e+01	0.7568	16.534089	0.001013	10.133926	1.716734	-0.000203
 968	9.6216e+01	0.7379	16.348381	0.000932	9.323212	1.579395	-0.000187
 969	9.6316e+01	0.7178	16.142487	0.001034	10.336604	1.751068	-0.000207
 970	9.6415e+01	0.6979	15.936593	0.001034	10.336604	1.751068	-0.000207
 971	9.6515e+01	0.6776	15.746848	0.000953	9.525890	1.613730	-0.000191
 972	9.6615e+01	0.6577	15.536917	0.001054	10.539283	1.785403	-0.000211
 973	9.6714e+01	0.6379	15.290652	0.001236	12.363390	2.094415	-0.000248
 974	9.6814e+01	0.6184	15.157426	0.000669	6.688391	1.133044	-0.000134
 975	9.6913e+01	0.5982	14.923272	0.001176	11.755354	1.991411	-0.000235
 976	9.7013e+01	0.5784	14.725453	0.000993	9.931247	1.682399	-0.000199
 977	9.7112e+01	0.5594	14.568004	0.000790	7.904462	1.339052	-0.000158
 978	9.7212e+01	0.5384	14.317702	0.001257	12.566068	2.128750	-0.000252
 979	9.7311e+01	0.5188	14.115845	0.001013	10.133926	1.716734	-0.000203
 980	9.7410e+01	0.4983	13.950323	0.000831	8.309819	1.407721	-0.000166
 981	9.7510e+01	0.4790	13.724243	0.001135	11.349997	1.922742	-0.000227
 982	9.7609e+01	0.4592	13.562758	0.000811	8.107141	1.373387	-0.000162
 983	9.7709e+01	0.4391	13.332641	0.001155	11.552675	1.957076	-0.000231
 984	9.7808e+01	0.4187	13.118673	0.001074	10.741961	1.819738	-0.000215
 985	9.7908e+01	0.3992	12.945076	0.000872	8.715176	1.476391	-0.000174
 986	9.8007e+01	0.3789	12.747256	0.000993	9.931247	1.682399	-0.000199
 987	9.8107e+01	0.3585	12.509065	0.001196	11.958033	2.025746	-0.000239
 988	9.8207e+01	0.3387	12.295097	0.001074	10.741961	1.819738	-0.000215
 989	9.8306e+01	0.3194	12.101314	0.000973	9.728569	1.648064	-0.000195
 990	9.8406e+01	0.2991	11.899458	0.001013	10.133926	1.716734	-0.000203
 991	9.8505e+01	0.2791	11.665304	0.001176	11.755354	1.991411	-0.000235
 992	9.8605e+01	0.2592	11.487670	0.000892	8.917855	1.510725	-0.000179
 993	9.8704e+01	0.2400	11.273702	0.001074	10.741961	1.819738	-0.000215
 994	9.8803e+01	0.2187	11.051659	0.001115	11.147318	1.888407	-0.000223
 995	9.8903e+01	0.2002	10.861914	0.000953	9.525890	1.613730	-0.000191
 996	9.9002e+01	0.1794	10.651983	0.001054	10.539283	1.785403	-0.000211
 997	9.9102e+01	0.1598	10.454163	0.000993	9.931247	1.682399	-0.000199
 998	9.9201e+01	0.1396	10.244232	0.001054	10.539283	1.785403	-0.000211
 999	9.9301e+01	0.1192	10.062561	0.000912	9.120533	1.545060	-0.000183
1000	9.9400e+01	0.0999	9.872815	0.000953	9.525890	1.613730	-0.000191
1001	9.9500e+01	0.0805	9.626550	0.001236	12.363390	2.094415	-0.000248
1002	9.9600e+01	0.0604	9.400471	0.001135	11.349997	1.922742	-0.000227
1003	9.9699e+01	0.0400	9.210725	0.000953	9.525890	1.613730	-0.000191
1004	9.9799e+01	0.0210	8.968497	0.001216	12.160711	2.060080	-0.000243
1005	9.9898e+01	0.0003	8.794900	0.000872	8.715176	1.476391	-0.000174
1006	9.9998e+01	-0.0181	8.633415	0.000811	8.107141	1.373387	-0.000162
1007	1.0010e+02	-0.0370	8.383112	0.001257	12.566068	2.128750	-0.000252
1008	1.0020e+02	-0.0581	8.185293	0.000993	9.931247	1.682399	-0.000199
1009	1.0030e+02	-0.0775	8.003622	0.000912	9.120533	1.545060	-0.000183
1010	1.0040e+02	-0.0974	7.745245	0.001297	12.971425	2.197419	-0.000260
1011	1.0050e+02	-0.1180	7.587797	0.000790	7.904462	1.339052	-0.000158
1012	1.0059e+02	-0.1378	7.349606	0.001196	11.958033	2.025746	-0.000239
1013	1.0069e+02	-0.1571	7.139675	0.001054	10.539283	1.785403	-0.000211
1014	1.0079e+02	-0.1768	6.901484	0.001196	11.958033	2.025746	-0.000239
1015	1.0089e+02	-0.1965	6.731924	0.000851	8.512498	1.442056	-0.000170
1016	1.0099e+02	-0.2169	6.509881	0.001115	11.147318	1.888407	-0.000223
1017	1.0109e+02	-0.2370	6.287839	0.001115	11.147318	1.888407	-0.000223
1018	1.0119e+02	-0.2566	6.081945	0.001034	10.336604	1.751068	-0.000207
1019	1.0129e+02	-0.2769	5.876051	0.001034	10.336604	1.751068	-0.000207
1020	1.0139e+02	-0.2971	5.662083	0.001074	10.741961	1.819738	-0.000215
1021	1.0149e+02	-0.3177	5.452152	0.001054	10.539283	1.785403	-0.000211
1022	1.0159e+02	-0.3362	5.278555	0.000872	8.715176	1.476391	-0.000174
1023	1.0169e+02	-0.3568	5.024215	0.001277	12.768747	2.163084	-0.000256
1024	1.0179e+02	-0.3765	4.798136	0.001135	11.349997	1.922742	-0.000227
1025	1.0189e+02	-0.3963	4.604353	0.000973	9.728569	1.648064	-0.000195
1026	1.0199e+02	-0.4169	4.426719	0.000892	8.917855	1.510725	-0.000179
1027	1.0209e+02	-0.4356	4.148157	0.001398	13.984818	2.369092	-0.000280
1028	1.0219e+02	-0.4565	4.010894	0.000689	6.891070	1.167379	-0.000138
1029	1.0229e+02	-0.4765	3.756555	0.001277	12.768747	2.163084	-0.000256
1030	1.0239e+02	-0.4957	3.506252	0.001257	12.566068	2.128750	-0.000252
1031	1.0248e+02	-0.5157	3.308433	0.000993	9.931247	1.682399	-0.000199
1032	1.0258e+02	-0.5363	3.130799	0.000892	8.917855	1.510725	-0.000179
1033	1.0268e+02	-0.5554	2.920868	0.001054	10.539283	1.785403	-0.000211
1034	1.0278e+02	-0.5756	2.658454	0.001317	13.174104	2.231754	-0.000264
1035	1.0288e+02	-0.5956	2.472746	0.000932	9.323212	1.579395	-0.000187
1036	1.0298e+02	-0.6165	2.258777	0.001074	10.741961	1.819738	-0.000215
1037	1.0308e+02	-0.6358	2.064995	0.000973	9.728569	1.648064	-0.000195
1038	1.0318e+02	-0.6552	1.851027	0.001074	10.741961	1.819738	-0.000215
1039	1.0328e+02	-0.6760	1.608799	0.001216	12.160711	2.060080	-0.000243
1040	1.0338e+02	-0.6953	1.378682	0.001155	11.552675	1.957076	-0.000231
1041	1.0348e+02	-0.7146	1.184899	0.000973	9.728569	1.648064	-0.000195
1042	1.0358e+02	-0.7356	0.991117	0.000973	9.728569	1.648064	-0.000195
1043	1.0368e+02	-0.7553	0.756963	0.001176	11.755354	1.991411	-0.000235
1044	1.0378e+02	-0.7754	0.563180	0.000973	9.728569	1.648064	-0.000195
1045	1.0388e+02	-0.7944	0.316915	0.001236	12.363390	2.094415	-0.000248
1046	1.0398e+02	-0.8154	0.086798	0.001155	11.552675	1.957076	-0.000231
1047	1.0408e+02	-0.8356	-0.074687	0.000811	8.107141	1.373387	-0.000162
1048	1.0418e+02	-0.8556	-0.345175	0.001358	13.579461	2.300423	-0.000272
1049	1.0428e+02	-0.8743	-0.530883	0.000932	9.323212	1.579395	-0.000187
1050	1.0438e+02	-0.8939	-0.728703	0.000993	9.931247	1.682399	-0.000199
1051	1.0447e+02	-0.9151	-0.962857	0.001176	11.755354	1.991411	-0.000235
1052	1.0457e+02	-0.9352	-1.152602	0.000953	9.525890	1.613730	-0.000191
1053	1.0467e+02	-0.9549	-1.362533	0.001054	10.539283	1.785403	-0.000211
1054	1.0477e+02	-0.9750	-1.600724	0.001196	11.958033	2.025746	-0.000239
1055	1.0487e+02	-0.9948	-1.774321	0.000872	8.715176	1.476391	-0.000174
1056	1.0497e+02	-1.0134	-2.008475	0.001176	11.755354	1.991411	-0.000235
1057	1.0507e+02	-1.0342	-2.218406	0.001054	10.539283	1.785403	-0.000211
1058	1.0517e+02	-1.0547	-2.444486	0.001135	11.349997	1.922742	-0.000227
1059	1.0527e+02	-1.0744	-2.670565	0.001135	11.349997	1.922742	-0.000227
1060	1.0537e+02	-1.0941	-2.832051	0.000811	8.107141	1.373387	-0.000162
1061	1.0547e+02	-1.1137	-3.114650	0.001419	14.187496	2.403427	-0.000284
1062	1.0557e+02	-1.1343	-3.296321	0.000912	9.120533	1.545060	-0.000183
1063	1.0567e+02	-1.1539	-3.530475	0.001176	11.755354	1.991411	-0.000235
1064	1.0577e+02	-1.1746	-3.712146	0.000912	9.120533	1.545060	-0.000183
1065	1.0587e+02	-1.1941	-3.962449	0.001257	12.566068	2.128750	-0.000252
1066	1.0597e+02	-1.2146	-4.176417	0.001074	10.741961	1.819738	-0.000215
1067	1.0607e+02	-1.2340	-4.341939	0.000831	8.309819	1.407721	-0.000166
1068	1.0617e+02	-1.2539	-4.596279	0.001277	12.768747	2.163084	-0.000256
1069	1.0627e+02	-1.2732	-4.794099	0.000993	9.931247	1.682399	-0.000199
1070	1.0637e+02	-1.2924	-5.004030	0.001054	10.539283	1.785403	-0.000211
1071	1.0647e+02	-1.3136	-5.209924	0.001034	10.336604	1.751068	-0.000207
1072	1.0656e+02	-1.3329	-5.427929	0.001094	10.944640	1.854072	-0.000219
1073	1.0666e+02	-1.3525	-5.670157	0.001216	12.160711	2.060080	-0.000243
1074	1.0676e+02	-1.3721	-5.843754	0.000872	8.715176	1.476391	-0.000174
1075	1.0686e+02	-1.3927	-6.098094	0.001277	12.768747	2.163084	-0.000256
1076	1.0696e+02	-1.4120	-6.283802	0.000932	9.323212	1.579395	-0.000187
1077	1.0706e+02	-1.4328	-6.489696	0.001034	10.336604	1.751068	-0.000207
1078	1.0716e+02	-1.4523	-6.735961	0.001236	12.363390	2.094415	-0.000248
1079	1.0726e+02	-1.4722	-6.962041	0.001135	11.349997	1.922742	-0.000227
1080	1.0736e+02	-1.4928	-7.103340	0.000709	7.093748	1.201713	-0.000142
1081	1.0746e+02	-1.5129	-7.353643	0.001257	12.566068	2.128750	-0.000252
1082	1.0756e+02	-1.5326	-7.547425	0.000973	9.728569	1.648064	-0.000195
1083	1.0766e+02	-1.5521	-7.745245	0.000993	9.931247	1.682399	-0.000199
1084	1.0776e+02	-1.5729	-7.987473	0.001216	12.160711	2.060080	-0.000243
1085	1.0786e+02	-1.5917	-8.169144	0.000912	9.120533	1.545060	-0.000183
1086	1.0796e+02	-1.6121	-8.375038	0.001034	10.336604	1.751068	-0.000207
1087	1.0806e+02	-1.6328	-8.580932	0.001034	10.336604	1.751068	-0.000207
1088	1.0816e+02	-1.6516	-8.827197	0.001236	12.363390	2.094415	-0.000248
1089	1.0826e+02	-1.6711	-9.008868	0.000912	9.120533	1.545060	-0.000183
1090	1.0836e+02	-1.6926	-9.234948	0.001135	11.349997	1.922742	-0.000227
1091	1.0845e+02	-1.7117	-9.456990	0.001115	11.147318	1.888407	-0.000223
1092	1.0855e+02	-1.7322	-9.654810	0.000993	9.931247	1.682399	-0.000199
1093	1.0865e+02	-1.7514	-9.852630	0.000993	9.931247	1.682399	-0.000199
1094	1.0875e+02	-1.7712	-10.050449	0.000993	9.931247	1.682399	-0.000199
1095	1.0885e+02	-1.7907	-10.296715	0.001236	12.363390	2.094415	-0.000248
1096	1.0895e+02	-1.8118	-10.490497	0.000973	9.728569	1.648064	-0.000195
1097	1.0905e+02	-1.8309	-10.680243	0.000953	9.525890	1.613730	-0.000191
1098	1.0915e+02	-1.8508	-10.910359	0.001155	11.552675	1.957076	-0.000231
1099	1.0925e+02	-1.8713	-11.116253	0.001034	10.336604	1.751068	-0.000207
1100	1.0935e+02	-1.8912	-11.326184	0.001054	10.539283	1.785403	-0.000211
1101	1.0945e+02	-1.9110	-11.544190	0.001094	10.944640	1.854072	-0.000219
1102	1.0955e+02	-1.9315	-11.762195	0.001094	10.944640	1.854072	-0.000219
1103	1.0965e+02	-1.9515	-11.980200	0.001094	10.944640	1.854072	-0.000219
1104	1.0975e+02	-1.9710	-12.125537	0.000730	7.296427	1.236048	-0.000146
1105	1.0985e+02	-1.9904	-12.335468	0.001054	10.539283	1.785403	-0.000211
1106	1.0995e+02	-2.0113	-12.581734	0.001236	12.363390	2.094415	-0.000248
1107	1.1005e+02	-2.0312	-12.767442	0.000932	9.323212	1.579395	-0.000187
1108	1.1015e+02	-2.0511	-12.969299	0.001013	10.133926	1.716734	-0.000203
1109	1.1025e+02	-2.0704	-13.146933	0.000892	8.917855	1.510725	-0.000179
1110	1.1035e+02	-2.0898	-13.393198	0.001236	12.363390	2.094415	-0.000248
1111	1.1044e+02	-2.1099	-13.586980	0.000973	9.728569	1.648064	-0.000195
1112	1.1054e+02	-2.1304	-13.809023	0.001115	11.147318	1.888407	-0.000223
1113	1.1064e+02	-2.1500	-14.006842	0.000993	9.931247	1.682399	-0.000199
1114	1.1074e+02	-2.1706	-14.200625	0.000973	9.728569	1.648064	-0.000195
1115	1.1084e+02	-2.1906	-14.414593	0.001074	10.741961	1.819738	-0.000215
1116	1.1094e+02	-2.2099	-14.608376	0.000973	9.728569	1.648064	-0.000195
1117	1.1104e+02	-2.2302	-14.761787	0.000770	7.701784	1.304717	-0.000154
1118	1.1114e+02	-2.2503	-14.991904	0.001155	11.552675	1.957076	-0.000231
1119	1.1124e+02	-2.2696	-15.213946	0.001115	11.147318	1.888407	-0.000223
1120	1.1134e+02	-2.2902	-15.411766	0.000993	9.931247	1.682399	-0.000199
1121	1.1144e+02	-2.3094	-15.637845	0.001135	11.349997	1.922742	-0.000227
1122	1.1154e+02	-2.3288	-15.835665	0.000993	9.931247	1.682399	-0.000199
1123	1.1164e+02	-2.3495	-16.029447	0.000973	9.728569	1.648064	-0.000195
1124	1.1174e+02	-2.3705	-16.251490	0.001115	11.147318	1.888407	-0.000223
1125	1.1184e+02	-2.3904	-16.437198	0.000932	9.323212	1.579395	-0.000187
1126	1.1194e+02	-2.4095	-16.614832	0.000892	8.917855	1.510725	-0.000179
1127	1.1204e+02	-2.4295	-16.820726	0.001034	10.336604	1.751068	-0.000207
1128	1.1214e+02	-2.4493	-17.022583	0.001013	10.133926	1.716734	-0.000203
1129	1.1224e+02	-2.4696	-17.220402	0.000993	9.931247	1.682399	-0.000199
1130	1.1234e+02	-2.4892	-17.454556	0.001176	11.755354	1.991411	-0.000235
1131	1.1244e+02	-2.5095	-17.636227	0.000912	9.120533	1.545060	-0.000183
1132	1.1253e+02	-2.5285	-17.866344	0.001155	11.552675	1.957076	-0.000231
1133	1.1263e+02	-2.5491	-18.060127	0.000973	9.728569	1.648064	-0.000195
1134	1.1273e+02	-2.5687	-18.221612	0.000811	8.107141	1.373387	-0.000162
1135	1.1283e+02	-2.5878	-18.459803	0.001196	11.958033	2.025746	-0.000239
1136	1.1293e+02	-2.6080	-18.617251	0.000790	7.904462	1.339052	-0.000158
1137	1.1303e+02	-2.6276	-18.831220	0.001074	10.741961	1.819738	-0.000215
1138	1.1313e+02	-2.6483	-19.041151	0.001054	10.539283	1.785403	-0.000211
1139	1.1323e+02	-2.6673	-19.271267	0.001155	11.552675	1.957076	-0.000231
1140	1.1333e+02	-2.6875	-19.452939	0.000912	9.120533	1.545060	-0.000183
1141	1.1343e+02	-2.7080	-19.687092	0.001176	11.755354	1.991411	-0.000235
1142	1.1353e+02	-2.7269	-19.868764	0.000912	9.120533	1.545060	-0.000183
1143	1.1363e+02	-2.7483	-20.050435	0.000912	9.120533	1.545060	-0.000183
1144	1.1373e+02	-2.7672	-20.232106	0.000912	9.120533	1.545060	-0.000183
1145	1.1383e+02	-2.7880	-20.405703	0.000872	8.715176	1.476391	-0.000174
1146	1.1393e+02	-2.8078	-20.688302	0.001419	14.187496	2.403427	-0.000284
1147	1.1403e+02	-2.8271	-20.849788	0.000811	8.107141	1.373387	-0.000162
1148	1.1413e+02	-2.8476	-21.003199	0.000770	7.701784	1.304717	-0.000154
1149	1.1423e+02	-2.8677	-21.225241	0.001115	11.147318	1.888407	-0.000223
1150	1.1433e+02	-2.8871	-21.451321	0.001135	11.349997	1.922742	-0.000227
1151	1.1442e+02	-2.9080	-21.661252	0.001054	10.539283	1.785403	-0.000211
1152	1.1452e+02	-2.9279	-21.867146	0.001034	10.336604	1.751068	-0.000207
1153	1.1462e+02	-2.9460	-22.056891	0.000953	9.525890	1.613730	-0.000191
1154	1.1472e+02	-2.9669	-22.238562	0.000912	9.120533	1.545060	-0.000183
1155	1.1482e+02	-2.9864	-22.436382	0.000993	9.931247	1.682399	-0.000199
1156	1.1492e+02	-3.0063	-22.642276	0.001034	10.336604	1.751068	-0.000207
1157	1.1502e+02	-3.0261	-22.799724	0.000790	7.904462	1.339052	-0.000158
1158	1.1512e+02	-3.0461	-23.025804	0.001135	11.349997	1.922742	-0.000227
1159	1.1522e+02	-3.0670	-23.223623	0.000993	9.931247	1.682399	-0.000199
1160	1.1532e+02	-3.0864	-23.457777	0.001176	11.755354	1.991411	-0.000235
1161	1.1542e+02	-3.1060	-23.623300	0.000831	8.309819	1.407721	-0.000166
1162	1.1552e+02	-3.1262	-23.800934	0.000892	8.917855	1.510725	-0.000179
1163	1.1562e+02	-3.1470	-24.047199	0.001236	12.363390	2.094415	-0.000248
1164	1.1572e+02	-3.1654	-24.220796	0.000872	8.715176	1.476391	-0.000174
1165	1.1582e+02	-3.1854	-24.394393	0.000872	8.715176	1.476391	-0.000174
1166	1.1592e+02	-3.2060	-24.632584	0.001196	11.958033	2.025746	-0.000239
1167	1.1602e+02	-3.2251	-24.785995	0.000770	7.701784	1.304717	-0.000154
1168	1.1612e+02	-3.2462	-24.975740	0.000953	9.525890	1.613730	-0.000191
1169	1.1622e+02	-3.2660	-25.197783	0.001115	11.147318	1.888407	-0.000223
1170	1.1632e+02	-3.2861	-25.411751	0.001074	10.741961	1.819738	-0.000215
1171	1.1642e+02	-3.3060	-25.585348	0.000872	8.715176	1.476391	-0.000174
1172	1.1651e+02	-3.3258	-25.779130	0.000973	9.728569	1.648064	-0.000195
1173	1.1661e+02	-3.3462	-25.989061	0.001054	10.539283	1.785403	-0.000211
1174	1.1671e+02	-3.3662	-26.186881	0.000993	9.931247	1.682399	-0.000199
1175	1.1681e+02	-3.3862	-26.404886	0.001094	10.944640	1.854072	-0.000219
1176	1.1691e+02	-3.4050	-26.626929	0.001115	11.147318	1.888407	-0.000223
1177	1.1701e+02	-3.4258	-26.760154	0.000669	6.688391	1.133044	-0.000134
1178	1.1711e+02	-3.4448	-26.909528	0.000750	7.499105	1.270383	-0.000150
1179	1.1721e+02	-3.4647	-27.147719	0.001196	11.958033	2.025746	-0.000239
1180	1.1731e+02	-3.4847	-27.349576	0.001013	10.133926	1.716734	-0.000203
1181	1.1741e+02	-3.5046	-27.571619	0.001115	11.147318	1.888407	-0.000223
1182	1.1751e+02	-3.5252	-27.745215	0.000872	8.715176	1.476391	-0.000174
1183	1.1761e+02	-3.5455	-27.943035	0.000993	9.931247	1.682399	-0.000199
1184	1.1771e+02	-3.5648	-28.148929	0.001034	10.336604	1.751068	-0.000207
1185	1.1781e+02	-3.5843	-28.334637	0.000932	9.323212	1.579395	-0.000187
1186	1.1791e+02	-3.6047	-28.516308	0.000912	9.120533	1.545060	-0.000183
1187	1.1801e+02	-3.6250	-28.718165	0.001013	10.133926	1.716734	-0.000203
1188	1.1811e+02	-3.6450	-28.867539	0.000750	7.499105	1.270383	-0.000150
1189	1.1821e+02	-3.6647	-29.093619	0.001135	11.349997	1.922742	-0.000227
1190	1.1831e+02	-3.6842	-29.303550	0.001054	10.539283	1.785403	-0.000211
1191	1.1841e+02	-3.7041	-29.497332	0.000973	9.728569	1.648064	-0.000195
1192	1.1850e+02	-3.7248	-29.683041	0.000932	9.323212	1.579395	-0.000187
1193	1.1860e+02	-3.7448	-29.880860	0.000993	9.931247	1.682399	-0.000199
1194	1.1870e+02	-3.7642	-30.066568	0.000932	9.323212	1.579395	-0.000187
1195	1.1880e+02	-3.7840	-30.256314	0.000953	9.525890	1.613730	-0.000191
1196	1.1890e+02	-3.8037	-30.458171	0.001013	10.133926	1.716734	-0.000203
1197	1.1900e+02	-3.8245	-30.672139	0.001074	10.741961	1.819738	-0.000215
1198	1.1910e+02	-3.8434	-30.833624	0.000811	8.107141	1.373387	-0.000162
1199	1.1920e+02	-3.8638	-31.027407	0.000973	9.728569	1.648064	-0.000195
1200	1.1930e+02	-3.8834	-31.237338	0.001054	10.539283	1.785403	-0.000211
1201	1.1940e+02	-3.9037	-31.439195	0.001013	10.133926	1.716734	-0.000203
1202	1.1950e+02	-3.9239	-31.604717	0.000831	8.309819	1.407721	-0.000166
1203	1.1960e+02	-3.9434	-31.798500	0.000973	9.728569	1.648064	-0.000195
1204	1.1970e+02	-3.9636	-32.008431	0.001054	10.539283	1.785403	-0.000211
1205	1.1980e+02	-3.9836	-32.198176	0.000953	9.525890	1.613730	-0.000191
1206	1.1990e+02	-4.0025	-32.359662	0.000811	8.107141	1.373387	-0.000162
1207	1.2000e+02	-4.0231	-32.557481	0.000993	9.931247	1.682399	-0.000199
1208	1.2010e+02	-4.0431	-32.763375	0.001034	10.336604	1.751068	-0.000207
1209	1.2020e+02	-4.0630	-32.961195	0.000993	9.931247	1.682399	-0.000199
1210	1.2030e+02	-4.0823	-33.106532	0.000730	7.296427	1.236048	-0.000146
1211	1.2039e+02	-4.1028	-33.368945	0.001317	13.174104	2.231754	-0.000264
1212	1.2049e+02	-4.1235	-33.494097	0.000628	6.283034	1.064375	-0.000126
1213	1.2059e+02	-4.1434	-33.744399	0.001257	12.566068	2.128750	-0.000252
1214	1.2069e+02	-4.1620	-33.893773	0.000750	7.499105	1.270383	-0.000150
1215	1.2079e+02	-4.1815	-34.091593	0.000993	9.931247	1.682399	-0.000199
1216	1.2089e+02	-4.2029	-34.261152	0.000851	8.512498	1.442056	-0.000170
1217	1.2099e+02	-4.2221	-34.463009	0.001013	10.133926	1.716734	-0.000203
1218	1.2109e+02	-4.2429	-34.628532	0.000831	8.309819	1.407721	-0.000166
1219	1.2119e+02	-4.2618	-34.826351	0.000993	9.931247	1.682399	-0.000199
1220	1.2129e+02	-4.2821	-34.991874	0.000831	8.309819	1.407721	-0.000166
1221	1.2139e+02	-4.3031	-35.234102	0.001216	12.160711	2.060080	-0.000243
1222	1.2149e+02	-4.3219	-35.371365	0.000689	6.891070	1.167379	-0.000138
1223	1.2159e+02	-4.3417	-35.557073	0.000932	9.323212	1.579395	-0.000187
1224	1.2169e+02	-4.3619	-35.734707	0.000892	8.917855	1.510725	-0.000179
1225	1.2179e+02	-4.3819	-35.932527	0.000993	9.931247	1.682399	-0.000199
1226	1.2189e+02	-4.4020	-36.130346	0.000993	9.931247	1.682399	-0.000199
1227	1.2199e+02	-4.4212	-36.332203	0.001013	10.133926	1.716734	-0.000203
1228	1.2209e+02	-4.4415	-36.477540	0.000730	7.296427	1.236048	-0.000146
1229	1.2219e+02	-4.4614	-36.651137	0.000872	8.715176	1.476391	-0.000174
1230	1.2229e+02	-4.4813	-36.840882	0.000953	9.525890	1.613730	-0.000191
1231	1.2239e+02	-4.5013	-37.042739	0.001013	10.133926	1.716734	-0.000203
1232	1.2248e+02	-4.5216	-37.256707	0.001074	10.741961	1.819738	-0.000215
1233	1.2258e+02	-4.5413	-37.414155	0.000790	7.904462	1.339052	-0.000158
1234	1.2268e+02	-4.5607	-37.575641	0.000811	8.107141	1.373387	-0.000162
1235	1.2278e+02	-4.5815	-37.753275	0.000892	8.917855	1.510725	-0.000179
1236	1.2288e+02	-4.6012	-37.963206	0.001054	10.539283	1.785403	-0.000211
1237	1.2298e+02	-4.6210	-38.136803	0.000872	8.715176	1.476391	-0.000174
1238	1.2308e+02	-4.6416	-38.326548	0.000953	9.525890	1.613730	-0.000191
1239	1.2318e+02	-4.6600	-38.520331	0.000973	9.728569	1.648064	-0.000195
1240	1.2328e+02	-4.6806	-38.681816	0.000811	8.107141	1.373387	-0.000162
1241	1.2338e+02	-4.7003	-38.867524	0.000932	9.323212	1.579395	-0.000187
1242	1.2348e+02	-4.7205	-39.041121	0.000872	8.715176	1.476391	-0.000174
1243	1.2358e+02	-4.7404	-39.234904	0.000973	9.728569	1.648064	-0.000195
1244	1.2368e+02	-4.7607	-39.444835	0.001054	10.539283	1.785403	-0.000211
1245	1.2378e+02	-4.7797	-39.557875	0.000567	5.674998	0.961371	-0.000114
1246	1.2388e+02	-4.8009	-39.743583	0.000932	9.323212	1.579395	-0.000187
1247	1.2398e+02	-4.8209	-39.953514	0.001054	10.539283	1.785403	-0.000211
1248	1.2408e+02	-4.8401	-40.102888	0.000750	7.499105	1.270383	-0.000150
1249	1.2418e+02	-4.8605	-40.280522	0.000892	8.917855	1.510725	-0.000179
1250	1.2428e+02	-4.8813	-40.446044	0.000831	8.309819	1.407721	-0.000166
1251	1.2438e+02	-4.8996	-40.603493	0.000790	7.904462	1.339052	-0.000158
1252	1.2447e+02	-4.9199	-40.825535	0.001115	11.147318	1.888407	-0.000223
1253	1.2457e+02	-4.9395	-40.991058	0.000831	8.309819	1.407721	-0.000166
1254	1.2467e+02	-4.9604	-41.152543	0.000811	8.107141	1.373387	-0.000162
1255	1.2477e+02	-4.9798	-41.326140	0.000872	8.715176	1.476391	-0.000174
1256	1.2487e+02	-4.9994	-41.491663	0.000831	8.309819	1.407721	-0.000166
1257	1.2497e+02	-5.0201	-41.697556	0.001034	10.336604	1.751068	-0.000207
1258	1.2507e+02	-5.0397	-41.826745	0.000649	6.485713	1.098709	-0.000130
1259	1.2517e+02	-5.0586	-42.016490	0.000953	9.525890	1.613730	-0.000191
1260	1.2527e+02	-5.0792	-42.210273	0.000973	9.728569	1.648064	-0.000195
1261	1.2537e+02	-5.0992	-42.351572	0.000709	7.093748	1.201713	-0.000142
1262	1.2547e+02	-5.1184	-42.545355	0.000973	9.728569	1.648064	-0.000195
1263	1.2557e+02	-5.1389	-42.670506	0.000628	6.283034	1.064375	-0.000126
1264	1.2567e+02	-5.1590	-42.924846	0.001277	12.768747	2.163084	-0.000256
1265	1.2577e+02	-5.1788	-43.025774	0.000507	5.066963	0.858367	-0.000101
1266	1.2587e+02	-5.1979	-43.227631	0.001013	10.133926	1.716734	-0.000203
1267	1.2597e+02	-5.2182	-43.385079	0.000790	7.904462	1.339052	-0.000158
1268	1.2607e+02	-5.2386	-43.566750	0.000912	9.120533	1.545060	-0.000183
1269	1.2617e+02	-5.2582	-43.716124	0.000750	7.499105	1.270383	-0.000150
1270	1.2627e+02	-5.2789	-43.946241	0.001155	11.552675	1.957076	-0.000231
1271	1.2636e+02	-5.2985	-44.119838	0.000872	8.715176	1.476391	-0.000174
1272	1.2646e+02	-5.3189	-44.216729	0.000486	4.864284	0.824032	-0.000097
1273	1.2656e+02	-5.3381	-44.414549	0.000993	9.931247	1.682399	-0.000199
1274	1.2666e+02	-5.3580	-44.596220	0.000912	9.120533	1.545060	-0.000183
1275	1.2676e+02	-5.3786	-44.749631	0.000770	7.701784	1.304717	-0.000154
1276	1.2686e+02	-5.3994	-44.927265	0.000892	8.917855	1.510725	-0.000179
1277	1.2696e+02	-5.4174	-45.076639	0.000750	7.499105	1.270383	-0.000150
1278	1.2706e+02	-5.4379	-45.270422	0.000973	9.728569	1.648064	-0.000195
1279	1.2716e+02	-5.4572	-45.395573	0.000628	6.283034	1.064375	-0.000126
1280	1.2726e+02	-5.4779	-45.585318	0.000953	9.525890	1.613730	-0.000191
1281	1.2736e+02	-5.4977	-45.742766	0.000790	7.904462	1.339052	-0.000158
1282	1.2746e+02	-5.5173	-45.924438	0.000912	9.120533	1.545060	-0.000183
1283	1.2756e+02	-5.5374	-46.061700	0.000689	6.891070	1.167379	-0.000138
1284	1.2766e+02	-5.5576	-46.243371	0.000912	9.120533	1.545060	-0.000183
1285	1.2776e+02	-5.5771	-46.384671	0.000709	7.093748	1.201713	-0.000142
1286	1.2786e+02	-5.5981	-46.574416	0.000953	9.525890	1.613730	-0.000191
1287	1.2796e+02	-5.6174	-46.735902	0.000811	8.107141	1.373387	-0.000162
1288	1.2806e+02	-5.6377	-46.893350	0.000790	7.904462	1.339052	-0.000158
1289	1.2816e+02	-5.6561	-47.083096	0.000953	9.525890	1.613730	-0.000191
1290	1.2826e+02	-5.6767	-47.208247	0.000628	6.283034	1.064375	-0.000126
1291	1.2835e+02	-5.6973	-47.361658	0.000770	7.701784	1.304717	-0.000154
1292	1.2845e+02	-5.7169	-47.543329	0.000912	9.120533	1.545060	-0.000183
1293	1.2855e+02	-5.7369	-47.696740	0.000770	7.701784	1.304717	-0.000154
1294	1.2865e+02	-5.7562	-47.882448	0.000932	9.323212	1.579395	-0.000187
1295	1.2875e+02	-5.7764	-48.043934	0.000811	8.107141	1.373387	-0.000162
1296	1.2885e+02	-5.7968	-48.237716	0.000973	9.728569	1.648064	-0.000195
1297	1.2895e+02	-5.8172	-48.370942	0.000669	6.688391	1.133044	-0.000134
1298	1.2905e+02	-5.8368	-48.508204	0.000689	6.891070	1.167379	-0.000138
1299	1.2915e+02	-5.8572	-48.677764	0.000851	8.512498	1.442056	-0.000170
1300	1.2925e+02	-5.8771	-48.863472	0.000932	9.323212	1.579395	-0.000187
1301	1.2935e+02	-5.8960	-49.024958	0.000811	8.107141	1.373387	-0.000162
1302	1.2945e+02	-5.9167	-49.194518	0.000851	8.512498	1.442056	-0.000170
1303	1.2955e+02	-5.9363	-49.339854	0.000730	7.296427	1.236048	-0.000146
1304	1.2965e+02	-5.9558	-49.509414	0.000851	8.512498	1.442056	-0.000170
1305	1.2975e+02	-5.9756	-49.727419	0.001094	10.944640	1.854072	-0.000219
1306	1.2985e+02	-5.9957	-49.860645	0.000669	6.688391	1.133044	-0.000134
1307	1.2995e+02	-6.0147	-49.989833	0.000649	6.485713	1.098709	-0.000130
1308	1.3005e+02	-6.0355	-50.167467	0.000892	8.917855	1.510725	-0.000179
1309	1.3015e+02	-6.0556	-50.304730	0.000689	6.891070	1.167379	-0.000138
1310	1.3025e+02	-6.0760	-50.466215	0.000811	8.107141	1.373387	-0.000162
1311	1.3034e+02	-6.0957	-50.655961	0.000953	9.525890	1.613730	-0.000191
1312	1.3044e+02	-6.1156	-50.805335	0.000750	7.499105	1.270383	-0.000150
1313	1.3054e+02	-6.1349	-50.982969	0.000892	8.917855	1.510725	-0.000179
1314	1.3064e+02	-6.1554	-51.140417	0.000790	7.904462	1.339052	-0.000158
1315	1.3074e+02	-6.1745	-51.289791	0.000750	7.499105	1.270383	-0.000150
1316	1.3084e+02	-6.1954	-51.443202	0.000770	7.701784	1.304717	-0.000154
1317	1.3094e+02	-6.2149	-51.612762	0.000851	8.512498	1.442056	-0.000170
1318	1.3104e+02	-6.2347	-51.758099	0.000730	7.296427	1.236048	-0.000146
1319	1.3114e+02	-6.2549	-51.927658	0.000851	8.512498	1.442056	-0.000170
1320	1.3124e+02	-6.2753	-52.089144	0.000811	8.107141	1.373387	-0.000162
1321	1.3134e+02	-6.2958	-52.250629	0.000811	8.107141	1.373387	-0.000162
1322	1.3144e+02	-6.3156	-52.400003	0.000750	7.499105	1.270383	-0.000150
1323	1.3154e+02	-6.3345	-52.553414	0.000770	7.701784	1.304717	-0.000154
1324	1.3164e+02	-6.3544	-52.727011	0.000872	8.715176	1.476391	-0.000174
1325	1.3174e+02	-6.3745	-52.860237	0.000669	6.688391	1.133044	-0.000134
1326	1.3184e+02	-6.3943	-53.029796	0.000851	8.512498	1.442056	-0.000170
1327	1.3194e+02	-6.4142	-53.171096	0.000709	7.093748	1.201713	-0.000142
1328	1.3204e+02	-6.4349	-53.348730	0.000892	8.917855	1.510725	-0.000179
1329	1.3214e+02	-6.4539	-53.518290	0.000851	8.512498	1.442056	-0.000170
1330	1.3224e+02	-6.4738	-53.683812	0.000831	8.309819	1.407721	-0.000166
1331	1.3234e+02	-6.4940	-53.861446	0.000892	8.917855	1.510725	-0.000179
1332	1.3243e+02	-6.5147	-54.026969	0.000831	8.309819	1.407721	-0.000166
1333	1.3253e+02	-6.5341	-54.168269	0.000709	7.093748	1.201713	-0.000142
1334	1.3263e+02	-6.5540	-54.329754	0.000811	8.107141	1.373387	-0.000162
1335	1.3273e+02	-6.5727	-54.475091	0.000730	7.296427	1.236048	-0.000146
1336	1.3283e+02	-6.5938	-54.668874	0.000973	9.728569	1.648064	-0.000195
1337	1.3293e+02	-6.6132	-54.818248	0.000750	7.499105	1.270383	-0.000150
1338	1.3303e+02	-6.6338	-55.016067	0.000993	9.931247	1.682399	-0.000199
1339	1.3313e+02	-6.6528	-55.112959	0.000486	4.864284	0.824032	-0.000097
1340	1.3323e+02	-6.6739	-55.306741	0.000973	9.728569	1.648064	-0.000195
1341	1.3333e+02	-6.6928	-55.484375	0.000892	8.917855	1.510725	-0.000179
1342	1.3343e+02	-6.7123	-55.670083	0.000932	9.323212	1.579395	-0.000187
1343	1.3353e+02	-6.7331	-55.750826	0.000405	4.053570	0.686693	-0.000081
1344	1.3363e+02	-6.7539	-55.940571	0.000953	9.525890	1.613730	-0.000191
1345	1.3373e+02	-6.7725	-56.114168	0.000872	8.715176	1.476391	-0.000174
1346	1.3383e+02	-6.7938	-56.263542	0.000750	7.499105	1.270383	-0.000150
1347	1.3393e+02	-6.8134	-56.437139	0.000872	8.715176	1.476391	-0.000174
1348	1.3403e+02	-6.8335	-56.582476	0.000730	7.296427	1.236048	-0.000146
1349	1.3413e+02	-6.8530	-56.752036	0.000851	8.512498	1.442056	-0.000170
1350	1.3423e+02	-6.8729	-56.897373	0.000730	7.296427	1.236048	-0.000146
1351	1.3432e+02	-6.8927	-57.083081	0.000932	9.323212	1.579395	-0.000187
1352	1.3442e+02	-6.9131	-57.260715	0.000892	8.917855	1.510725	-0.000179
1353	1.3452e+02	-6.9322	-57.389903	0.000649	6.485713	1.098709	-0.000130
1354	1.3462e+02	-6.9522	-57.587723	0.000993	9.931247	1.682399	-0.000199
1355	1.3472e+02	-6.9726	-57.729022	0.000709	7.093748	1.201713	-0.000142
1356	1.3482e+02	-6.9925	-57.870322	0.000709	7.093748	1.201713	-0.000142
1357	1.3492e+02	-7.0123	-58.080253	0.001054	10.539283	1.785403	-0.000211
1358	1.3502e+02	-7.0322	-58.217516	0.000689	6.891070	1.167379	-0.000138
1359	1.3512e+02	-7.0523	-58.387076	0.000851	8.512498	1.442056	-0.000170
1360	1.3522e+02	-7.0721	-58.580858	0.000973	9.728569	1.648064	-0.000195
1361	1.3532e+02	-7.0923	-58.754455	0.000872	8.715176	1.476391	-0.000174
1362	1.3542e+02	-7.1118	-58.907866	0.000770	7.701784	1.304717	-0.000154
1363	1.3552e+02	-7.1315	-59.105686	0.000993	9.931247	1.682399	-0.000199
1364	1.3562e+02	-7.1518	-59.226800	0.000608	6.080356	1.030040	-0.000122
1365	1.3572e+02	-7.1714	-59.392322	0.000831	8.309819	1.407721	-0.000166
1366	1.3582e+02	-7.1918	-59.594179	0.001013	10.133926	1.716734	-0.000203
1367	1.3592e+02	-7.2105	-59.771813	0.000892	8.917855	1.510725	-0.000179
1368	1.3602e+02	-7.2311	-59.856593	0.000426	4.256249	0.721028	-0.000085
1369	1.3612e+02	-7.2513	-60.070561	0.001074	10.741961	1.819738	-0.000215
1370	1.3622e+02	-7.2711	-60.228010	0.000790	7.904462	1.339052	-0.000158
1371	1.3631e+02	-7.2917	-60.409681	0.000912	9.120533	1.545060	-0.000183
1372	1.3641e+02	-7.3116	-60.563092	0.000770	7.701784	1.304717	-0.000154
1373	1.3651e+02	-7.3309	-60.720540	0.000790	7.904462	1.339052	-0.000158
1374	1.3661e+02	-7.3511	-60.882025	0.000811	8.107141	1.373387	-0.000162
1375	1.3671e+02	-7.3694	-61.063697	0.000912	9.120533	1.545060	-0.000183
1376	1.3681e+02	-7.3907	-61.217108	0.000770	7.701784	1.304717	-0.000154
1377	1.3691e+02	-7.4109	-61.451262	0.001176	11.755354	1.991411	-0.000235
1378	1.3701e+02	-7.4307	-61.572376	0.000608	6.080356	1.030040	-0.000122
1379	1.3711e+02	-7.4507	-61.737898	0.000831	8.309819	1.407721	-0.000166
1380	1.3721e+02	-7.4706	-61.895347	0.000790	7.904462	1.339052	-0.000158
1381	1.3731e+02	-7.4908	-62.081055	0.000932	9.323212	1.579395	-0.000187
1382	1.3741e+02	-7.5101	-62.238503	0.000790	7.904462	1.339052	-0.000158
1383	1.3751e+02	-7.5305	-62.436323	0.000993	9.931247	1.682399	-0.000199
1384	1.3761e+02	-7.5504	-62.573585	0.000689	6.891070	1.167379	-0.000138
1385	1.3771e+02	-7.5705	-62.731034	0.000790	7.904462	1.339052	-0.000158
1386	1.3781e+02	-7.5897	-62.928853	0.000993	9.931247	1.682399	-0.000199
1387	1.3791e+02	-7.6096	-63.078227	0.000750	7.499105	1.270383	-0.000150
1388	1.3801e+02	-7.6306	-63.223564	0.000730	7.296427	1.236048	-0.000146
1389	1.3811e+02	-7.6489	-63.417347	0.000973	9.728569	1.648064	-0.000195
1390	1.3821e+02	-7.6694	-63.586906	0.000851	8.512498	1.442056	-0.000170
1391	1.3831e+02	-7.6892	-63.764540	0.000892	8.917855	1.510725	-0.000179
1392	1.3840e+02	-7.7087	-63.934100	0.000851	8.512498	1.442056	-0.000170
1393	1.3850e+02	-7.7289	-64.095586	0.000811	8.107141	1.373387	-0.000162
1394	1.3860e+02	-7.7490	-64.317628	0.001115	11.147318	1.888407	-0.000223
1395	1.3870e+02	-7.7686	-64.462965	0.000730	7.296427	1.236048	-0.000146
1396	1.3880e+02	-7.7898	-64.616376	0.000770	7.701784	1.304717	-0.000154
1397	1.3890e+02	-7.8094	-64.822270	0.001034	10.336604	1.751068	-0.000207
1398	1.3900e+02	-7.8290	-64.967607	0.000730	7.296427	1.236048	-0.000146
1399	1.3910e+02	-7.8484	-65.129092	0.000811	8.107141	1.373387	-0.000162
1400	1.3920e+02	-7.8683	-65.330949	0.001013	10.133926	1.716734	-0.000203
1401	1.3930e+02	-7.8888	-65.512620	0.000912	9.120533	1.545060	-0.000183
1402	1.3940e+02	-7.9089	-65.653920	0.000709	7.093748	1.201713	-0.000142
1403	1.3950e+02	-7.9279	-65.835591	0.000912	9.120533	1.545060	-0.000183
1404	1.3960e+02	-7.9483	-65.989002	0.000770	7.701784	1.304717	-0.000154
1405	1.3970e+02	-7.9684	-66.194896	0.001034	10.336604	1.751068	-0.000207
1406	1.3980e+02	-7.9878	-66.344270	0.000750	7.499105	1.270383	-0.000150
1407	1.3990e+02	-8.0078	-66.513830	0.000851	8.512498	1.442056	-0.000170
1408	1.4000e+02	-8.0284	-66.707612	0.000973	9.728569	1.648064	-0.000195
1409	1.4010e+02	-8.0482	-66.897358	0.000953	9.525890	1.613730	-0.000191
1410	1.4020e+02	-8.0679	-67.054806	0.000790	7.904462	1.339052	-0.000158
1411	1.4029e+02	-8.0870	-67.256663	0.001013	10.133926	1.716734	-0.000203
1412	1.4039e+02	-8.1078	-67.430260	0.000872	8.715176	1.476391	-0.000174
1413	1.4049e+02	-8.1280	-67.587708	0.000790	7.904462	1.339052	-0.000158
1414	1.4059e+02	-8.1482	-67.753231	0.000831	8.309819	1.407721	-0.000166
1415	1.4069e+02	-8.1676	-67.938939	0.000932	9.323212	1.579395	-0.000187
1416	1.4079e+02	-8.1870	-68.136758	0.000993	9.931247	1.682399	-0.000199
1417	1.4089e+02	-8.2073	-68.274021	0.000689	6.891070	1.167379	-0.000138
1418	1.4099e+02	-8.2270	-68.455692	0.000912	9.120533	1.545060	-0.000183
1419	1.4109e+02	-8.2477	-68.613140	0.000790	7.904462	1.339052	-0.000158
1420	1.4119e+02	-8.2672	-68.847294	0.001176	11.755354	1.991411	-0.000235
1421	1.4129e+02	-8.2861	-69.012817	0.000831	8.309819	1.407721	-0.000166
1422	1.4139e+02	-8.3062	-69.166228	0.000770	7.701784	1.304717	-0.000154
1423	1.4149e+02	-8.3258	-69.376159	0.001054	10.539283	1.785403	-0.000211
1424	1.4159e+02	-8.3469	-69.497273	0.000608	6.080356	1.030040	-0.000122
1425	1.4169e+02	-8.3667	-69.715278	0.001094	10.944640	1.854072	-0.000219
1426	1.4179e+02	-8.3865	-69.896950	0.000912	9.120533	1.545060	-0.000183
1427	1.4189e+02	-8.4056	-70.062472	0.000831	8.309819	1.407721	-0.000166
1428	1.4199e+02	-8.4256	-70.256255	0.000973	9.728569	1.648064	-0.000195
1429	1.4209e+02	-8.4468	-70.401592	0.000730	7.296427	1.236048	-0.000146
1430	1.4219e+02	-8.4668	-70.635745	0.001176	11.755354	1.991411	-0.000235
1431	1.4228e+02	-8.4857	-70.781082	0.000730	7.296427	1.236048	-0.000146
1432	1.4238e+02	-8.5065	-70.991013	0.001054	10.539283	1.785403	-0.000211
1433	1.4248e+02	-8.5263	-71.172684	0.000912	9.120533	1.545060	-0.000183
1434	1.4258e+02	-8.5466	-71.346281	0.000872	8.715176	1.476391	-0.000174
1435	1.4268e+02	-8.5651	-71.560250	0.001074	10.741961	1.819738	-0.000215
1436	1.4278e+02	-8.5863	-71.705586	0.000730	7.296427	1.236048	-0.000146
1437	1.4288e+02	-8.6057	-71.907443	0.001013	10.133926	1.716734	-0.000203
1438	1.4298e+02	-8.6253	-72.117374	0.001054	10.539283	1.785403	-0.000211
1439	1.4308e+02	-8.6459	-72.262711	0.000730	7.296427	1.236048	-0.000146
1440	1.4318e+02	-8.6657	-72.456494	0.000973	9.728569	1.648064	-0.000195
1441	1.4328e+02	-8.6853	-72.666425	0.001054	10.539283	1.785403	-0.000211
1442	1.4338e+02	-8.7051	-72.819836	0.000770	7.701784	1.304717	-0.000154
1443	1.4348e+02	-8.7244	-72.985358	0.000831	8.309819	1.407721	-0.000166
1444	1.4358e+02	-8.7451	-73.199327	0.001074	10.741961	1.819738	-0.000215
1445	1.4368e+02	-8.7653	-73.344664	0.000730	7.296427	1.236048	-0.000146
1446	1.4378e+02	-8.7842	-73.582855	0.001196	11.958033	2.025746	-0.000239
1447	1.4388e+02	-8.8048	-73.708006	0.000628	6.283034	1.064375	-0.000126
1448	1.4398e+02	-8.8251	-73.909863	0.001013	10.133926	1.716734	-0.000203
1449	1.4408e+02	-8.8446	-74.127868	0.001094	10.944640	1.854072	-0.000219
1450	1.4418e+02	-8.8651	-74.301465	0.000872	8.715176	1.476391	-0.000174
1451	1.4428e+02	-8.8843	-74.511396	0.001054	10.539283	1.785403	-0.000211
1452	1.4437e+02	-8.9041	-74.713253	0.001013	10.133926	1.716734	-0.000203
1453	1.4447e+02	-8.9249	-74.915109	0.001013	10.133926	1.716734	-0.000203
1454	1.4457e+02	-8.9444	-75.088706	0.000872	8.715176	1.476391	-0.000174
1455	1.4467e+02	-8.9630	-75.298637	0.001054	10.539283	1.785403	-0.000211
1456	1.4477e+02	-8.9838	-75.488383	0.000953	9.525890	1.613730	-0.000191
1457	1.4487e+02	-9.0039	-75.641794	0.000770	7.701784	1.304717	-0.000154
1458	1.4497e+02	-9.0243	-75.831539	0.000953	9.525890	1.613730	-0.000191
1459	1.4507e+02	-9.0446	-76.045507	0.001074	10.741961	1.819738	-0.000215
1460	1.4517e+02	-9.0637	-76.243327	0.000993	9.931247	1.682399	-0.000199
1461	1.4527e+02	-9.0849	-76.441147	0.000993	9.931247	1.682399	-0.000199
1462	1.4537e+02	-9.1029	-76.643003	0.001013	10.133926	1.716734	-0.000203
1463	1.4547e+02	-9.1241	-76.848897	0.001034	10.336604	1.751068	-0.000207
1464	1.4557e+02	-9.1446	-77.038643	0.000953	9.525890	1.613730	-0.000191
1465	1.4567e+02	-9.1631	-77.224351	0.000932	9.323212	1.579395	-0.000187
1466	1.4577e+02	-9.1830	-77.474653	0.001257	12.566068	2.128750	-0.000252
1467	1.4587e+02	-9.2036	-77.652287	0.000892	8.917855	1.510725	-0.000179
1468	1.4597e+02	-9.2230	-77.842033	0.000953	9.525890	1.613730	-0.000191
1469	1.4607e+02	-9.2425	-78.072149	0.001155	11.552675	1.957076	-0.000231
1470	1.4617e+02	-9.2639	-78.290155	0.001094	10.944640	1.854072	-0.000219
1471	1.4626e+02	-9.2834	-78.443566	0.000770	7.701784	1.304717	-0.000154
1472	1.4636e+02	-9.3034	-78.673683	0.001155	11.552675	1.957076	-0.000231
1473	1.4646e+02	-9.3224	-78.843242	0.000851	8.512498	1.442056	-0.000170
1474	1.4656e+02	-9.3427	-79.089508	0.001236	12.363390	2.094415	-0.000248
1475	1.4666e+02	-9.3628	-79.295402	0.001034	10.336604	1.751068	-0.000207
1476	1.4676e+02	-9.3829	-79.481110	0.000932	9.323212	1.579395	-0.000187
1477	1.4686e+02	-9.4019	-79.707189	0.001135	11.349997	1.922742	-0.000227
1478	1.4696e+02	-9.4220	-79.913083	0.001034	10.336604	1.751068	-0.000207
1479	1.4706e+02	-9.4418	-80.135126	0.001115	11.147318	1.888407	-0.000223
1480	1.4716e+02	-9.4620	-80.324871	0.000953	9.525890	1.613730	-0.000191
1481	1.4726e+02	-9.4820	-80.550951	0.001135	11.349997	1.922742	-0.000227
1482	1.4736e+02	-9.5032	-80.728585	0.000892	8.917855	1.510725	-0.000179
1483	1.4746e+02	-9.5215	-80.990999	0.001317	13.174104	2.231754	-0.000264
1484	1.4756e+02	-9.5416	-81.156521	0.000831	8.309819	1.407721	-0.000166
1485	1.4766e+02	-9.5616	-81.374527	0.001094	10.944640	1.854072	-0.000219
1486	1.4776e+02	-9.5822	-81.628866	0.001277	12.768747	2.163084	-0.000256
1487	1.4786e+02	-9.6022	-81.822649	0.000973	9.728569	1.648064	-0.000195
1488	1.4796e+02	-9.6210	-82.056802	0.001176	11.755354	1.991411	-0.000235
1489	1.4806e+02	-9.6408	-82.246548	0.000953	9.525890	1.613730	-0.000191
1490	1.4816e+02	-9.6616	-82.496850	0.001257	12.566068	2.128750	-0.000252
1491	1.4825e+02	-9.6811	-82.670447	0.000872	8.715176	1.476391	-0.000174
1492	1.4835e+02	-9.7017	-82.928824	0.001297	12.971425	2.197419	-0.000260
1493	1.4845e+02	-9.7208	-83.130681	0.001013	10.133926	1.716734	-0.000203
1494	1.4855e+02	-9.7424	-83.360797	0.001155	11.552675	1.957076	-0.000231
1495	1.4865e+02	-9.7604	-83.558617	0.000993	9.931247	1.682399	-0.000199
1496	1.4875e+02	-9.7798	-83.796808	0.001196	11.958033	2.025746	-0.000239
1497	1.4885e+02	-9.8004	-84.018850	0.001115	11.147318	1.888407	-0.000223
1498	1.4895e+02	-9.8212	-84.236856	0.001094	10.944640	1.854072	-0.000219
1499	1.4905e+02	-9.8395	-84.507344	0.001358	13.579461	2.300423	-0.000272
1500	1.4915e+02	-9.8596	-84.721312	0.001074	10.741961	1.819738	-0.000215
1501	1.4925e+02	-9.8799	-84.975652	0.001277	12.768747	2.163084	-0.000256
1502	1.4935e+02	-9.8999	-85.193657	0.001094	10.944640	1.854072	-0.000219
1503	1.4945e+02	-9.9194	-85.435885	0.001216	12.160711	2.060080	-0.000243
1504	1.4955e+02	-9.9396	-85.694262	0.001297	12.971425	2.197419	-0.000260
1505	1.4965e+02	-9.9603	-85.888044	0.000973	9.728569	1.648064	-0.000195
1506	1.4975e+02	-9.9799	-86.093938	0.001034	10.336604	1.751068	-0.000207
1507	1.4985e+02	-9.9988	-86.344241	0.001257	12.566068	2.128750	-0.000252
1508	1.4995e+02	-9.9799	-86.348278	-0.000020	-0.202679	-0.034335	-0.000004
1509	1.5005e+02	-9.9606	-86.416909	-0.000345	-3.445535	-0.583689	-0.000069
1510	1.5015e+02	-9.9399	-86.376538	0.000203	2.026785	0.343347	0.000041
1511	1.5025e+02	-9.9197	-86.372501	0.000020	0.202679	0.034335	0.000004
1512	1.5034e+02	-9.9005	-86.368463	0.000020	0.202679	0.034335	0.000004
1513	1.5044e+02	-9.8810	-86.420946	-0.000263	-2.634821	-0.446351	-0.000053
1514	1.5054e+02	-9.8605	-86.328092	0.000466	4.661606	0.789697	0.000093
1515	1.5064e+02	-9.8395	-86.324055	0.000020	0.202679	0.034335	0.000004
1516	1.5074e+02	-9.8204	-86.392686	-0.000345	-3.445535	-0.583689	-0.000069
1517	1.5084e+02	-9.8007	-86.299832	0.000466	4.661606	0.789697	0.000093
1518	1.5094e+02	-9.7806	-86.243312	0.000284	2.837499	0.480685	0.000057
1519	1.5104e+02	-9.7614	-86.211015	0.000162	1.621428	0.274677	0.000032
1520	1.5114e+02	-9.7412	-86.146421	0.000324	3.242856	0.549355	0.000065
1521	1.5124e+02	-9.7205	-86.154495	-0.000041	-0.405357	-0.068669	-0.000008
1522	1.5134e+02	-9.7009	-86.134310	0.000101	1.013393	0.171673	0.000020
1523	1.5144e+02	-9.6808	-86.077790	0.000284	2.837499	0.480685	0.000057
1524	1.5154e+02	-9.6619	-86.045493	0.000162	1.621428	0.274677	0.000032
1525	1.5164e+02	-9.6422	-85.968787	0.000385	3.850892	0.652359	0.000077
1526	1.5174e+02	-9.6216	-85.900156	0.000345	3.445535	0.583689	0.000069
1527	1.5184e+02	-9.6011	-85.892081	0.000041	0.405357	0.068669	0.000008
1528	1.5194e+02	-9.5812	-85.835561	0.000284	2.837499	0.480685	0.000057
1529	1.5204e+02	-9.5622	-85.783079	0.000263	2.634821	0.446351	0.000053
1530	1.5214e+02	-9.5419	-85.750782	0.000162	1.621428	0.274677	0.000032
1531	1.5224e+02	-9.5215	-85.710410	0.000203	2.026785	0.343347	0.000041
1532	1.5233e+02	-9.5020	-85.633705	0.000385	3.850892	0.652359	0.000077
1533	1.5243e+02	-9.4821	-85.573148	0.000304	3.040178	0.515020	0.000061
1534	1.5253e+02	-9.4625	-85.520665	0.000263	2.634821	0.446351	0.000053
1535	1.5263e+02	-9.4427	-85.435885	0.000426	4.256249	0.721028	0.000085
1536	1.5273e+02	-9.4233	-85.411662	0.000122	1.216071	0.206008	0.000024
1537	1.5283e+02	-9.4022	-85.306697	0.000527	5.269641	0.892701	0.000105
1538	1.5293e+02	-9.3823	-85.250177	0.000284	2.837499	0.480685	0.000057
1539	1.5303e+02	-9.3634	-85.181546	0.000345	3.445535	0.583689	0.000069
1540	1.5313e+02	-9.3431	-85.133100	0.000243	2.432142	0.412016	0.000049
1541	1.5323e+02	-9.3225	-85.040246	0.000466	4.661606	0.789697	0.000093
1542	1.5333e+02	-9.3032	-84.987763	0.000263	2.634821	0.446351	0.000053
1543	1.5343e+02	-9.2834	-84.951429	0.000182	1.824107	0.309012	0.000037
1544	1.5353e+02	-9.2632	-84.838389	0.000567	5.674998	0.961371	0.000114
1545	1.5363e+02	-9.2432	-84.765721	0.000365	3.648213	0.618024	0.000073
1546	1.5373e+02	-9.2236	-84.721312	0.000223	2.229464	0.377681	0.000045
1547	1.5383e+02	-9.2023	-84.600198	0.000608	6.080356	1.030040	0.000122
1548	1.5393e+02	-9.1826	-84.519455	0.000405	4.053570	0.686693	0.000081
1549	1.5403e+02	-9.1634	-84.442750	0.000385	3.850892	0.652359	0.000077
1550	1.5413e+02	-9.1449	-84.362007	0.000405	4.053570	0.686693	0.000081
1551	1.5422e+02	-9.1232	-84.293376	0.000345	3.445535	0.583689	0.000069
1552	1.5432e+02	-9.1034	-84.196484	0.000486	4.864284	0.824032	0.000097
1553	1.5442e+02	-9.0843	-84.139964	0.000284	2.837499	0.480685	0.000057
1554	1.5452e+02	-9.0640	-84.034999	0.000527	5.269641	0.892701	0.000105
1555	1.5462e+02	-9.0430	-83.954256	0.000405	4.053570	0.686693	0.000081
1556	1.5472e+02	-9.0240	-83.893699	0.000304	3.040178	0.515020	0.000061
1557	1.5482e+02	-9.0031	-83.784697	0.000547	5.472320	0.927036	0.000110
1558	1.5492e+02	-8.9842	-83.716065	0.000345	3.445535	0.583689	0.000069
1559	1.5502e+02	-8.9630	-83.639360	0.000385	3.850892	0.652359	0.000077
1560	1.5512e+02	-8.9439	-83.538431	0.000507	5.066963	0.858367	0.000101
1561	1.5522e+02	-8.9236	-83.465763	0.000365	3.648213	0.618024	0.000073
1562	1.5532e+02	-8.9035	-83.389057	0.000385	3.850892	0.652359	0.000077
1563	1.5542e+02	-8.8842	-83.231609	0.000790	7.904462	1.339052	0.000158
1564	1.5552e+02	-8.8644	-83.171052	0.000304	3.040178	0.515020	0.000061
1565	1.5562e+02	-8.8443	-83.094346	0.000385	3.850892	0.652359	0.000077
1566	1.5572e+02	-8.8251	-83.021678	0.000365	3.648213	0.618024	0.000073
1567	1.5582e+02	-8.8052	-82.928824	0.000466	4.661606	0.789697	0.000093
1568	1.5592e+02	-8.7854	-82.819821	0.000547	5.472320	0.927036	0.000110
1569	1.5602e+02	-8.7646	-82.714856	0.000527	5.269641	0.892701	0.000105
1570	1.5612e+02	-8.7447	-82.642187	0.000365	3.648213	0.618024	0.000073
1571	1.5622e+02	-8.7250	-82.537222	0.000527	5.269641	0.892701	0.000105
1572	1.5631e+02	-8.7051	-82.468590	0.000345	3.445535	0.583689	0.000069
1573	1.5641e+02	-8.6859	-82.363625	0.000527	5.269641	0.892701	0.000105
1574	1.5651e+02	-8.6649	-82.278845	0.000426	4.256249	0.721028	0.000085
1575	1.5661e+02	-8.6456	-82.161768	0.000588	5.877677	0.995705	0.000118
1576	1.5671e+02	-8.6267	-82.056802	0.000527	5.269641	0.892701	0.000105
1577	1.5681e+02	-8.6063	-82.000283	0.000284	2.837499	0.480685	0.000057
1578	1.5691e+02	-8.5858	-81.867057	0.000669	6.688391	1.133044	0.000134
1579	1.5701e+02	-8.5651	-81.790351	0.000385	3.850892	0.652359	0.000077
1580	1.5711e+02	-8.5455	-81.701534	0.000446	4.458927	0.755363	0.000089
1581	1.5721e+02	-8.5266	-81.576383	0.000628	6.283034	1.064375	0.000126
1582	1.5731e+02	-8.5065	-81.455269	0.000608	6.080356	1.030040	0.000122
1583	1.5741e+02	-8.4860	-81.346267	0.000547	5.472320	0.927036	0.000110
1584	1.5751e+02	-8.4653	-81.249375	0.000486	4.864284	0.824032	0.000097
1585	1.5761e+02	-8.4467	-81.188818	0.000304	3.040178	0.515020	0.000061
1586	1.5771e+02	-8.4262	-81.063667	0.000628	6.283034	1.064375	0.000126
1587	1.5781e+02	-8.4058	-80.958702	0.000527	5.269641	0.892701	0.000105
1588	1.5791e+02	-8.3861	-80.894107	0.000324	3.242856	0.549355	0.000065
1589	1.5801e+02	-8.3670	-80.756845	0.000689	6.891070	1.167379	0.000138
1590	1.5811e+02	-8.3467	-80.651879	0.000527	5.269641	0.892701	0.000105
1591	1.5821e+02	-8.3258	-80.559025	0.000466	4.661606	0.789697	0.000093
1592	1.5830e+02	-8.3066	-80.441948	0.000588	5.877677	0.995705	0.000118
1593	1.5840e+02	-8.2880	-80.324871	0.000588	5.877677	0.995705	0.000118
1594	1.5850e+02	-8.2669	-80.236054	0.000446	4.458927	0.755363	0.000089
1595	1.5860e+02	-8.2463	-80.086680	0.000750	7.499105	1.270383	0.000150
1596	1.5870e+02	-8.2270	-79.985752	0.000507	5.066963	0.858367	0.000101
1597	1.5880e+02	-8.2068	-79.896935	0.000446	4.458927	0.755363	0.000089
1598	1.5890e+02	-8.1876	-79.804081	0.000466	4.661606	0.789697	0.000093
1599	1.5900e+02	-8.1677	-79.642595	0.000811	8.107141	1.373387	0.000162
1600	1.5910e+02	-8.1470	-79.590113	0.000263	2.634821	0.446351	0.000053
1601	1.5920e+02	-8.1262	-79.448813	0.000709	7.093748	1.201713	0.000142
1602	1.5930e+02	-8.1073	-79.351921	0.000486	4.864284	0.824032	0.000097
1603	1.5940e+02	-8.0873	-79.238882	0.000567	5.674998	0.961371	0.000114
1604	1.5950e+02	-8.0679	-79.129879	0.000547	5.472320	0.927036	0.000110
1605	1.5960e+02	-8.0482	-79.032988	0.000486	4.864284	0.824032	0.000097
1606	1.5970e+02	-8.0280	-78.879577	0.000770	7.701784	1.304717	0.000154
1607	1.5980e+02	-8.0081	-78.778648	0.000507	5.066963	0.858367	0.000101
1608	1.5990e+02	-7.9877	-78.665608	0.000567	5.674998	0.961371	0.000114
1609	1.6000e+02	-7.9675	-78.544494	0.000608	6.080356	1.030040	0.000122
1610	1.6010e+02	-7.9489	-78.483937	0.000304	3.040178	0.515020	0.000061
1611	1.6019e+02	-7.9283	-78.370898	0.000567	5.674998	0.961371	0.000114
1612	1.6029e+02	-7.9082	-78.229598	0.000709	7.093748	1.201713	0.000142
1613	1.6039e+02	-7.8885	-78.100409	0.000649	6.485713	1.098709	0.000130
1614	1.6049e+02	-7.8693	-77.967184	0.000669	6.688391	1.133044	0.000134
1615	1.6059e+02	-7.8482	-77.854144	0.000567	5.674998	0.961371	0.000114
1616	1.6069e+02	-7.8282	-77.745141	0.000547	5.472320	0.927036	0.000110
1617	1.6079e+02	-7.8073	-77.644213	0.000507	5.066963	0.858367	0.000101
1618	1.6089e+02	-7.7894	-77.490802	0.000770	7.701784	1.304717	0.000154
1619	1.6099e+02	-7.7695	-77.410059	0.000405	4.053570	0.686693	0.000081
1620	1.6109e+02	-7.7487	-77.260685	0.000750	7.499105	1.270383	0.000150
1621	1.6119e+02	-7.7292	-77.200128	0.000304	3.040178	0.515020	0.000061
1622	1.6129e+02	-7.7095	-77.074977	0.000628	6.283034	1.064375	0.000126
1623	1.6139e+02	-7.6901	-76.909454	0.000831	8.309819	1.407721	0.000166
1624	1.6149e+02	-7.6692	-76.812563	0.000486	4.864284	0.824032	0.000097
1625	1.6159e+02	-7.6495	-76.707598	0.000527	5.269641	0.892701	0.000105
1626	1.6169e+02	-7.6294	-76.566298	0.000709	7.093748	1.201713	0.000142
1627	1.6179e+02	-7.6080	-76.424998	0.000709	7.093748	1.201713	0.000142
1628	1.6189e+02	-7.5888	-76.332144	0.000466	4.661606	0.789697	0.000093
1629	1.6199e+02	-7.5691	-76.186807	0.000730	7.296427	1.236048	0.000146
1630	1.6209e+02	-7.5493	-76.061656	0.000628	6.283034	1.064375	0.000126
1631	1.6219e+02	-7.5296	-75.972839	0.000446	4.458927	0.755363	0.000089
1632	1.6228e+02	-7.5108	-75.871910	0.000507	5.066963	0.858367	0.000101
1633	1.6238e+02	-7.4899	-75.718499	0.000770	7.701784	1.304717	0.000154
1634	1.6248e+02	-7.4697	-75.589311	0.000649	6.485713	1.098709	0.000130
1635	1.6258e+02	-7.4500	-75.452048	0.000689	6.891070	1.167379	0.000138
1636	1.6268e+02	-7.4310	-75.359194	0.000466	4.661606	0.789697	0.000093
1637	1.6278e+02	-7.4107	-75.274414	0.000426	4.256249	0.721028	0.000085
1638	1.6288e+02	-7.3903	-75.149263	0.000628	6.283034	1.064375	0.000126
1639	1.6298e+02	-7.3715	-75.024112	0.000628	6.283034	1.064375	0.000126
1640	1.6308e+02	-7.3521	-74.894924	0.000649	6.485713	1.098709	0.000130
1641	1.6318e+02	-7.3309	-74.749587	0.000730	7.296427	1.236048	0.000146
1642	1.6328e+02	-7.3102	-74.640584	0.000547	5.472320	0.927036	0.000110
1643	1.6338e+02	-7.2916	-74.495247	0.000730	7.296427	1.236048	0.000146
1644	1.6348e+02	-7.2711	-74.390282	0.000527	5.269641	0.892701	0.000105
1645	1.6358e+02	-7.2504	-74.261093	0.000649	6.485713	1.098709	0.000130
1646	1.6368e+02	-7.2307	-74.127868	0.000669	6.688391	1.133044	0.000134
1647	1.6378e+02	-7.2115	-74.010791	0.000588	5.877677	0.995705	0.000118
1648	1.6388e+02	-7.1912	-73.917937	0.000466	4.661606	0.789697	0.000093
1649	1.6398e+02	-7.1710	-73.744340	0.000872	8.715176	1.476391	0.000174
1650	1.6408e+02	-7.1515	-73.663597	0.000405	4.053570	0.686693	0.000081
1651	1.6418e+02	-7.1313	-73.530372	0.000669	6.688391	1.133044	0.000134
1652	1.6427e+02	-7.1100	-73.344664	0.000932	9.323212	1.579395	0.000187
1653	1.6437e+02	-7.0918	-73.267958	0.000385	3.850892	0.652359	0.000077
1654	1.6447e+02	-7.0718	-73.122621	0.000730	7.296427	1.236048	0.000146
1655	1.6457e+02	-7.0518	-73.013618	0.000547	5.472320	0.927036	0.000110
1656	1.6467e+02	-7.0319	-72.924801	0.000446	4.458927	0.755363	0.000089
1657	1.6477e+02	-7.0119	-72.755242	0.000851	8.512498	1.442056	0.000170
1658	1.6487e+02	-6.9920	-72.658350	0.000486	4.864284	0.824032	0.000097
1659	1.6497e+02	-6.9720	-72.496865	0.000811	8.107141	1.373387	0.000162
1660	1.6507e+02	-6.9521	-72.379788	0.000588	5.877677	0.995705	0.000118
1661	1.6517e+02	-6.9324	-72.214266	0.000831	8.309819	1.407721	0.000166
1662	1.6527e+02	-6.9122	-72.145634	0.000345	3.445535	0.583689	0.000069
1663	1.6537e+02	-6.8925	-71.980112	0.000831	8.309819	1.407721	0.000166
1664	1.6547e+02	-6.8735	-71.875146	0.000527	5.269641	0.892701	0.000105
1665	1.6557e+02	-6.8524	-71.713661	0.000811	8.107141	1.373387	0.000162
1666	1.6567e+02	-6.8326	-71.608695	0.000527	5.269641	0.892701	0.000105
1667	1.6577e+02	-6.8121	-71.475470	0.000669	6.688391	1.133044	0.000134
1668	1.6587e+02	-6.7937	-71.382616	0.000466	4.661606	0.789697	0.000093
1669	1.6597e+02	-6.7735	-71.204982	0.000892	8.917855	1.510725	0.000179
1670	1.6607e+02	-6.7529	-71.104053	0.000507	5.066963	0.858367	0.000101
1671	1.6616e+02	-6.7340	-70.966791	0.000689	6.891070	1.167379	0.000138
1672	1.6626e+02	-6.7130	-70.837602	0.000649	6.485713	1.098709	0.000130
1673	1.6636e+02	-6.6931	-70.668043	0.000851	8.512498	1.442056	0.000170
1674	1.6646e+02	-6.6748	-70.555003	0.000567	5.674998	0.961371	0.000114
1675	1.6656e+02	-6.6525	-70.458111	0.000486	4.864284	0.824032	0.000097
1676	1.6666e+02	-6.6331	-70.320849	0.000689	6.891070	1.167379	0.000138
1677	1.6676e+02	-6.6132	-70.195698	0.000628	6.283034	1.064375	0.000126
1678	1.6686e+02	-6.5945	-70.070546	0.000628	6.283034	1.064375	0.000126
1679	1.6696e+02	-6.5727	-69.925210	0.000730	7.296427	1.236048	0.000146
1680	1.6706e+02	-6.5539	-69.848504	0.000385	3.850892	0.652359	0.000077
1681	1.6716e+02	-6.5347	-69.699130	0.000750	7.499105	1.270383	0.000150
1682	1.6726e+02	-6.5146	-69.578016	0.000608	6.080356	1.030040	0.000122
1683	1.6736e+02	-6.4938	-69.444790	0.000669	6.688391	1.133044	0.000134
1684	1.6746e+02	-6.4740	-69.279268	0.000831	8.309819	1.407721	0.000166
1685	1.6756e+02	-6.4536	-69.142005	0.000689	6.891070	1.167379	0.000138
1686	1.6766e+02	-6.4343	-69.004743	0.000689	6.891070	1.167379	0.000138
1687	1.6776e+02	-6.4138	-68.895740	0.000547	5.472320	0.927036	0.000110
1688	1.6786e+02	-6.3953	-68.762514	0.000669	6.688391	1.133044	0.000134
1689	1.6796e+02	-6.3742	-68.657549	0.000527	5.269641	0.892701	0.000105
1690	1.6806e+02	-6.3544	-68.516249	0.000709	7.093748	1.201713	0.000142
1691	1.6816e+02	-6.3347	-68.350727	0.000831	8.309819	1.407721	0.000166
1692	1.6825e+02	-6.3147	-68.221538	0.000649	6.485713	1.098709	0.000130
1693	1.6835e+02	-6.2949	-68.076201	0.000730	7.296427	1.236048	0.000146
1694	1.6845e+02	-6.2744	-67.955087	0.000608	6.080356	1.030040	0.000122
1695	1.6855e+02	-6.2549	-67.825899	0.000649	6.485713	1.098709	0.000130
1696	1.6865e+02	-6.2358	-67.712859	0.000567	5.674998	0.961371	0.000114
1697	1.6875e+02	-6.2152	-67.579634	0.000669	6.688391	1.133044	0.000134
1698	1.6885e+02	-6.1955	-67.466594	0.000567	5.674998	0.961371	0.000114
1699	1.6895e+02	-6.1743	-67.297034	0.000851	8.512498	1.442056	0.000170
1700	1.6905e+02	-6.1554	-67.188032	0.000547	5.472320	0.927036	0.000110
1701	1.6915e+02	-6.1357	-67.006360	0.000912	9.120533	1.545060	0.000183
1702	1.6925e+02	-6.1151	-66.897358	0.000547	5.472320	0.927036	0.000110
1703	1.6935e+02	-6.0968	-66.780281	0.000588	5.877677	0.995705	0.000118
1704	1.6945e+02	-6.0763	-66.663204	0.000588	5.877677	0.995705	0.000118
1705	1.6955e+02	-6.0551	-66.509793	0.000770	7.701784	1.304717	0.000154
1706	1.6965e+02	-6.0358	-66.376567	0.000669	6.688391	1.133044	0.000134
1707	1.6975e+02	-6.0147	-66.239305	0.000689	6.891070	1.167379	0.000138
1708	1.6985e+02	-5.9972	-66.102042	0.000689	6.891070	1.167379	0.000138
1709	1.6995e+02	-5.9756	-66.001114	0.000507	5.066963	0.858367	0.000101
1710	1.7005e+02	-5.9557	-65.819443	0.000912	9.120533	1.545060	0.000183
1711	1.7015e+02	-5.9360	-65.694291	0.000628	6.283034	1.064375	0.000126
1712	1.7024e+02	-5.9161	-65.593363	0.000507	5.066963	0.858367	0.000101
1713	1.7034e+02	-5.8960	-65.391506	0.001013	10.133926	1.716734	0.000203
1714	1.7044e+02	-5.8769	-65.326912	0.000324	3.242856	0.549355	0.000065
1715	1.7054e+02	-5.8572	-65.169464	0.000790	7.904462	1.339052	0.000158
1716	1.7064e+02	-5.8365	-65.028164	0.000709	7.093748	1.201713	0.000142
1717	1.7074e+02	-5.8163	-64.915124	0.000567	5.674998	0.961371	0.000114
1718	1.7084e+02	-5.7961	-64.725379	0.000953	9.525890	1.613730	0.000191
1719	1.7094e+02	-5.7762	-64.620413	0.000527	5.269641	0.892701	0.000105
1720	1.7104e+02	-5.7565	-64.487188	0.000669	6.688391	1.133044	0.000134
1721	1.7114e+02	-5.7370	-64.349925	0.000689	6.891070	1.167379	0.000138
1722	1.7124e+02	-5.7170	-64.212662	0.000689	6.891070	1.167379	0.000138
1723	1.7134e+02	-5.6972	-64.047140	0.000831	8.309819	1.407721	0.000166
1724	1.7144e+02	-5.6775	-63.893729	0.000770	7.701784	1.304717	0.000154
1725	1.7154e+02	-5.6567	-63.744355	0.000750	7.499105	1.270383	0.000150
1726	1.7164e+02	-5.6363	-63.635352	0.000547	5.472320	0.927036	0.000110
1727	1.7174e+02	-5.6177	-63.461755	0.000872	8.715176	1.476391	0.000174
1728	1.7184e+02	-5.5975	-63.348715	0.000567	5.674998	0.961371	0.000114
1729	1.7194e+02	-5.5768	-63.215490	0.000669	6.688391	1.133044	0.000134
1730	1.7204e+02	-5.5573	-63.070153	0.000730	7.296427	1.236048	0.000146
1731	1.7213e+02	-5.5373	-62.912705	0.000790	7.904462	1.339052	0.000158
1732	1.7223e+02	-5.5176	-62.771405	0.000709	7.093748	1.201713	0.000142
1733	1.7233e+02	-5.4974	-62.650291	0.000608	6.080356	1.030040	0.000122
1734	1.7243e+02	-5.4774	-62.492843	0.000790	7.904462	1.339052	0.000158
1735	1.7253e+02	-5.4572	-62.323283	0.000851	8.512498	1.442056	0.000170
1736	1.7263e+02	-5.4373	-62.226392	0.000486	4.864284	0.824032	0.000097
1737	1.7273e+02	-5.4184	-62.056832	0.000851	8.512498	1.442056	0.000170
1738	1.7283e+02	-5.3984	-61.927644	0.000649	6.485713	1.098709	0.000130
1739	1.7293e+02	-5.3775	-61.766158	0.000811	8.107141	1.373387	0.000162
1740	1.7303e+02	-5.3575	-61.632933	0.000669	6.688391	1.133044	0.000134
1741	1.7313e+02	-5.3391	-61.479522	0.000770	7.701784	1.304717	0.000154
1742	1.7323e+02	-5.3186	-61.318036	0.000811	8.107141	1.373387	0.000162
1743	1.7333e+02	-5.2985	-61.192885	0.000628	6.283034	1.064375	0.000126
1744	1.7343e+02	-5.2777	-61.035437	0.000790	7.904462	1.339052	0.000158
1745	1.7353e+02	-5.2583	-60.877988	0.000790	7.904462	1.339052	0.000158
1746	1.7363e+02	-5.2390	-60.736689	0.000709	7.093748	1.201713	0.000142
1747	1.7373e+02	-5.2180	-60.599426	0.000689	6.891070	1.167379	0.000138
1748	1.7383e+02	-5.1993	-60.425829	0.000872	8.715176	1.476391	0.000174
1749	1.7393e+02	-5.1788	-60.328938	0.000486	4.864284	0.824032	0.000097
1750	1.7403e+02	-5.1584	-60.191675	0.000689	6.891070	1.167379	0.000138
1751	1.7413e+02	-5.1385	-59.981744	0.001054	10.539283	1.785403	0.000211
1752	1.7422e+02	-5.1190	-59.868704	0.000567	5.674998	0.961371	0.000114
1753	1.7432e+02	-5.0994	-59.695108	0.000872	8.715176	1.476391	0.000174
1754	1.7442e+02	-5.0786	-59.545734	0.000750	7.499105	1.270383	0.000150
1755	1.7452e+02	-5.0587	-59.416545	0.000649	6.485713	1.098709	0.000130
1756	1.7462e+02	-5.0388	-59.299468	0.000588	5.877677	0.995705	0.000118
1757	1.7472e+02	-5.0201	-59.117797	0.000912	9.120533	1.545060	0.000183
1758	1.7482e+02	-5.0005	-58.915940	0.001013	10.133926	1.716734	0.000203
1759	1.7492e+02	-4.9791	-58.823086	0.000466	4.661606	0.789697	0.000093
1760	1.7502e+02	-4.9596	-58.649489	0.000872	8.715176	1.476391	0.000174
1761	1.7512e+02	-4.9402	-58.508190	0.000709	7.093748	1.201713	0.000142
1762	1.7522e+02	-4.9200	-58.330556	0.000892	8.917855	1.510725	0.000179
1763	1.7532e+02	-4.8999	-58.177145	0.000770	7.701784	1.304717	0.000154
1764	1.7542e+02	-4.8796	-58.019696	0.000790	7.904462	1.339052	0.000158
1765	1.7552e+02	-4.8599	-57.866285	0.000770	7.701784	1.304717	0.000154
1766	1.7562e+02	-4.8399	-57.716911	0.000750	7.499105	1.270383	0.000150
1767	1.7572e+02	-4.8206	-57.591760	0.000628	6.283034	1.064375	0.000126
1768	1.7582e+02	-4.8013	-57.373755	0.001094	10.944640	1.854072	0.000219
1769	1.7592e+02	-4.7803	-57.264752	0.000547	5.472320	0.927036	0.000110
1770	1.7602e+02	-4.7601	-57.155749	0.000547	5.472320	0.927036	0.000110
1771	1.7612e+02	-4.7400	-56.925632	0.001155	11.552675	1.957076	0.000231
1772	1.7621e+02	-4.7212	-56.800481	0.000628	6.283034	1.064375	0.000126
1773	1.7631e+02	-4.7008	-56.634959	0.000831	8.309819	1.407721	0.000166
1774	1.7641e+02	-4.6812	-56.497696	0.000689	6.891070	1.167379	0.000138
1775	1.7651e+02	-4.6606	-56.348322	0.000750	7.499105	1.270383	0.000150
1776	1.7661e+02	-4.6408	-56.174725	0.000872	8.715176	1.476391	0.000174
1777	1.7671e+02	-4.6207	-56.025351	0.000750	7.499105	1.270383	0.000150
1778	1.7681e+02	-4.6014	-55.815420	0.001054	10.539283	1.785403	0.000211
1779	1.7691e+02	-4.5818	-55.670083	0.000730	7.296427	1.236048	0.000146
1780	1.7701e+02	-4.5605	-55.516672	0.000770	7.701784	1.304717	0.000154
1781	1.7711e+02	-4.5412	-55.351150	0.000831	8.309819	1.407721	0.000166
1782	1.7721e+02	-4.5217	-55.197738	0.000770	7.701784	1.304717	0.000154
1783	1.7731e+02	-4.5013	-55.020104	0.000892	8.917855	1.510725	0.000179
1784	1.7741e+02	-4.4817	-54.866693	0.000770	7.701784	1.304717	0.000154
1785	1.7751e+02	-4.4614	-54.701171	0.000831	8.309819	1.407721	0.000166
1786	1.7761e+02	-4.4415	-54.523537	0.000892	8.917855	1.510725	0.000179
1787	1.7771e+02	-4.4211	-54.358014	0.000831	8.309819	1.407721	0.000166
1788	1.7781e+02	-4.4034	-54.228826	0.000649	6.485713	1.098709	0.000130
1789	1.7791e+02	-4.3820	-54.063303	0.000831	8.309819	1.407721	0.000166
1790	1.7801e+02	-4.3619	-53.869521	0.000973	9.728569	1.648064	0.000195
1791	1.7810e+02	-4.3422	-53.736295	0.000669	6.688391	1.133044	0.000134
1792	1.7820e+02	-4.3228	-53.538476	0.000993	9.931247	1.682399	0.000199
1793	1.7830e+02	-4.3018	-53.385064	0.000770	7.701784	1.304717	0.000154
1794	1.7840e+02	-4.2828	-53.223579	0.000811	8.107141	1.373387	0.000162
1795	1.7850e+02	-4.2627	-53.049982	0.000872	8.715176	1.476391	0.000174
1796	1.7860e+02	-4.2429	-52.844088	0.001034	10.336604	1.751068	0.000207
1797	1.7870e+02	-4.2230	-52.735086	0.000547	5.472320	0.927036	0.000110
1798	1.7880e+02	-4.2035	-52.553414	0.000912	9.120533	1.545060	0.000183
1799	1.7890e+02	-4.1815	-52.395966	0.000790	7.904462	1.339052	0.000158
1800	1.7900e+02	-4.1623	-52.234481	0.000811	8.107141	1.373387	0.000162
1801	1.7910e+02	-4.1426	-52.056847	0.000892	8.917855	1.510725	0.000179
1802	1.7920e+02	-4.1229	-51.887287	0.000851	8.512498	1.442056	0.000170
1803	1.7930e+02	-4.1030	-51.737913	0.000750	7.499105	1.270383	0.000150
1804	1.7940e+02	-4.0825	-51.560279	0.000892	8.917855	1.510725	0.000179
1805	1.7950e+02	-4.0631	-51.382645	0.000892	8.917855	1.510725	0.000179
1806	1.7960e+02	-4.0434	-51.225197	0.000790	7.904462	1.339052	0.000158
1807	1.7970e+02	-4.0222	-51.083897	0.000709	7.093748	1.201713	0.000142
1808	1.7980e+02	-4.0033	-50.914337	0.000851	8.512498	1.442056	0.000170
1809	1.7990e+02	-3.9836	-50.720555	0.000973	9.728569	1.648064	0.000195
1810	1.8000e+02	-3.9639	-50.530809	0.000953	9.525890	1.613730	0.000191
1811	1.8009e+02	-3.9429	-50.437955	0.000466	4.661606	0.789697	0.000093
1812	1.8019e+02	-3.9236	-50.223987	0.001074	10.741961	1.819738	0.000215
1813	1.8029e+02	-3.9035	-50.062502	0.000811	8.107141	1.373387	0.000162
1814	1.8039e+02	-3.8834	-49.905053	0.000790	7.904462	1.339052	0.000158
1815	1.8049e+02	-3.8632	-49.711271	0.000973	9.728569	1.648064	0.000195
1816	1.8059e+02	-3.8432	-49.509414	0.001013	10.133926	1.716734	0.000203
1817	1.8069e+02	-3.8232	-49.339854	0.000851	8.512498	1.442056	0.000170
1818	1.8079e+02	-3.8031	-49.182406	0.000790	7.904462	1.339052	0.000158
1819	1.8089e+02	-3.7830	-49.020921	0.000811	8.107141	1.373387	0.000162
1820	1.8099e+02	-3.7637	-48.847324	0.000872	8.715176	1.476391	0.000174
1821	1.8109e+02	-3.7444	-48.714098	0.000669	6.688391	1.133044	0.000134
1822	1.8119e+02	-3.7241	-48.528390	0.000932	9.323212	1.579395	0.000187
1823	1.8129e+02	-3.7045	-48.326533	0.001013	10.133926	1.716734	0.000203
1824	1.8139e+02	-3.6852	-48.189271	0.000689	6.891070	1.167379	0.000138
1825	1.8149e+02	-3.6652	-48.023748	0.000831	8.309819	1.407721	0.000166
1826	1.8159e+02	-3.6449	-47.817854	0.001034	10.336604	1.751068	0.000207
1827	1.8169e+02	-3.6246	-47.652332	0.000831	8.309819	1.407721	0.000166
1828	1.8179e+02	-3.6047	-47.462586	0.000953	9.525890	1.613730	0.000191
1829	1.8189e+02	-3.5847	-47.313212	0.000750	7.499105	1.270383	0.000150
1830	1.8199e+02	-3.5657	-47.115393	0.000993	9.931247	1.682399	0.000199
1831	1.8209e+02	-3.5450	-46.957944	0.000790	7.904462	1.339052	0.000158
1832	1.8218e+02	-3.5255	-46.772236	0.000932	9.323212	1.579395	0.000187
1833	1.8228e+02	-3.5044	-46.643048	0.000649	6.485713	1.098709	0.000130
1834	1.8238e+02	-3.4850	-46.429080	0.001074	10.741961	1.819738	0.000215
1835	1.8248e+02	-3.4644	-46.259520	0.000851	8.512498	1.442056	0.000170
1836	1.8258e+02	-3.4461	-46.057663	0.001013	10.133926	1.716734	0.000203
1837	1.8268e+02	-3.4250	-45.924438	0.000669	6.688391	1.133044	0.000134
1838	1.8278e+02	-3.4058	-45.771026	0.000770	7.701784	1.304717	0.000154
1839	1.8288e+02	-3.3853	-45.581281	0.000953	9.525890	1.613730	0.000191
1840	1.8298e+02	-3.3656	-45.403647	0.000892	8.917855	1.510725	0.000179
1841	1.8308e+02	-3.3454	-45.209865	0.000973	9.728569	1.648064	0.000195
1842	1.8318e+02	-3.3264	-45.040305	0.000851	8.512498	1.442056	0.000170
1843	1.8328e+02	-3.3060	-44.878819	0.000811	8.107141	1.373387	0.000162
1844	1.8338e+02	-3.2855	-44.685037	0.000973	9.728569	1.648064	0.000195
1845	1.8348e+02	-3.2657	-44.483180	0.001013	10.133926	1.716734	0.000203
1846	1.8358e+02	-3.2462	-44.321695	0.000811	8.107141	1.373387	0.000162
1847	1.8368e+02	-3.2256	-44.172321	0.000750	7.499105	1.270383	0.000150
1848	1.8378e+02	-3.2060	-43.990650	0.000912	9.120533	1.545060	0.000183
1849	1.8388e+02	-3.1856	-43.829164	0.000811	8.107141	1.373387	0.000162
1850	1.8398e+02	-3.1671	-43.603085	0.001135	11.349997	1.922742	0.000227
1851	1.8407e+02	-3.1467	-43.457748	0.000730	7.296427	1.236048	0.000146
1852	1.8417e+02	-3.1261	-43.280114	0.000892	8.917855	1.510725	0.000179
1853	1.8427e+02	-3.1064	-43.114591	0.000831	8.309819	1.407721	0.000166
1854	1.8437e+02	-3.0869	-42.920809	0.000973	9.728569	1.648064	0.000195
1855	1.8447e+02	-3.0664	-42.739137	0.000912	9.120533	1.545060	0.000183
1856	1.8457e+02	-3.0469	-42.545355	0.000973	9.728569	1.648064	0.000195
1857	1.8467e+02	-3.0260	-42.391944	0.000770	7.701784	1.304717	0.000154
1858	1.8477e+02	-3.0077	-42.246607	0.000730	7.296427	1.236048	0.000146
1859	1.8487e+02	-2.9868	-42.032639	0.001074	10.741961	1.819738	0.000215
1860	1.8497e+02	-2.9674	-41.830782	0.001013	10.133926	1.716734	0.000203
1861	1.8507e+02	-2.9466	-41.641037	0.000953	9.525890	1.613730	0.000191
1862	1.8517e+02	-2.9276	-41.503774	0.000689	6.891070	1.167379	0.000138
1863	1.8527e+02	-2.9076	-41.326140	0.000892	8.917855	1.510725	0.000179
1864	1.8537e+02	-2.8878	-41.132357	0.000973	9.728569	1.648064	0.000195
1865	1.8547e+02	-2.8674	-40.946649	0.000932	9.323212	1.579395	0.000187
1866	1.8557e+02	-2.8472	-40.769015	0.000892	8.917855	1.510725	0.000179
1867	1.8567e+02	-2.8267	-40.599456	0.000851	8.512498	1.442056	0.000170
1868	1.8577e+02	-2.8081	-40.425859	0.000872	8.715176	1.476391	0.000174
1869	1.8587e+02	-2.7879	-40.228039	0.000993	9.931247	1.682399	0.000199
1870	1.8597e+02	-2.7682	-40.106925	0.000608	6.080356	1.030040	0.000122
1871	1.8606e+02	-2.7472	-39.905068	0.001013	10.133926	1.716734	0.000203
1872	1.8616e+02	-2.7283	-39.703211	0.001013	10.133926	1.716734	0.000203
1873	1.8626e+02	-2.7069	-39.513466	0.000953	9.525890	1.613730	0.000191
1874	1.8636e+02	-2.6874	-39.384278	0.000649	6.485713	1.098709	0.000130
1875	1.8646e+02	-2.6675	-39.186458	0.000993	9.931247	1.682399	0.000199
1876	1.8656e+02	-2.6476	-38.956341	0.001155	11.552675	1.957076	0.000231
1877	1.8666e+02	-2.6286	-38.766596	0.000953	9.525890	1.613730	0.000191
1878	1.8676e+02	-2.6078	-38.613185	0.000770	7.701784	1.304717	0.000154
1879	1.8686e+02	-2.5880	-38.451699	0.000811	8.107141	1.373387	0.000162
1880	1.8696e+02	-2.5693	-38.237731	0.001074	10.741961	1.819738	0.000215
1881	1.8706e+02	-2.5488	-38.052023	0.000932	9.323212	1.579395	0.000187
1882	1.8716e+02	-2.5284	-37.854203	0.000993	9.931247	1.682399	0.000199
1883	1.8726e+02	-2.5089	-37.708866	0.000730	7.296427	1.236048	0.000146
1884	1.8736e+02	-2.4892	-37.535270	0.000872	8.715176	1.476391	0.000174
1885	1.8746e+02	-2.4689	-37.325338	0.001054	10.539283	1.785403	0.000211
1886	1.8756e+02	-2.4496	-37.103296	0.001115	11.147318	1.888407	0.000223
1887	1.8766e+02	-2.4294	-36.978145	0.000628	6.283034	1.064375	0.000126
1888	1.8776e+02	-2.4097	-36.735917	0.001216	12.160711	2.060080	0.000243
1889	1.8786e+02	-2.3891	-36.590580	0.000730	7.296427	1.236048	0.000146
1890	1.8796e+02	-2.3694	-36.392760	0.000993	9.931247	1.682399	0.000199
1891	1.8806e+02	-2.3499	-36.190903	0.001013	10.133926	1.716734	0.000203
1892	1.8815e+02	-2.3324	-35.993084	0.000993	9.931247	1.682399	0.000199
1893	1.8825e+02	-2.3090	-35.811413	0.000912	9.120533	1.545060	0.000183
1894	1.8835e+02	-2.2887	-35.629741	0.000912	9.120533	1.545060	0.000183
1895	1.8845e+02	-2.2705	-35.399625	0.001155	11.552675	1.957076	0.000231
1896	1.8855e+02	-2.2505	-35.242176	0.000790	7.904462	1.339052	0.000158
1897	1.8865e+02	-2.2301	-35.048394	0.000973	9.728569	1.648064	0.000195
1898	1.8875e+02	-2.2099	-34.911131	0.000689	6.891070	1.167379	0.000138
1899	1.8885e+02	-2.1910	-34.693126	0.001094	10.944640	1.854072	0.000219
1900	1.8895e+02	-2.1693	-34.450898	0.001216	12.160711	2.060080	0.000243
1901	1.8905e+02	-2.1495	-34.289412	0.000811	8.107141	1.373387	0.000162
1902	1.8915e+02	-2.1306	-34.123890	0.000831	8.309819	1.407721	0.000166
1903	1.8925e+02	-2.1114	-33.909922	0.001074	10.741961	1.819738	0.000215
1904	1.8935e+02	-2.0895	-33.720176	0.000953	9.525890	1.613730	0.000191
1905	1.8945e+02	-2.0703	-33.538505	0.000912	9.120533	1.545060	0.000183
1906	1.8955e+02	-2.0497	-33.352797	0.000932	9.323212	1.579395	0.000187
1907	1.8965e+02	-2.0305	-33.195349	0.000790	7.904462	1.339052	0.000158
1908	1.8975e+02	-2.0096	-33.005603	0.000953	9.525890	1.613730	0.000191
1909	1.8985e+02	-1.9906	-32.771449	0.001176	11.755354	1.991411	0.000235
1910	1.8995e+02	-1.9713	-32.565555	0.001034	10.336604	1.751068	0.000207
1911	1.9004e+02	-1.9511	-32.379847	0.000932	9.323212	1.579395	0.000187
1912	1.9014e+02	-1.9305	-32.198176	0.000912	9.120533	1.545060	0.000183
1913	1.9024e+02	-1.9110	-32.008431	0.000953	9.525890	1.613730	0.000191
1914	1.9034e+02	-1.8915	-31.822722	0.000932	9.323212	1.579395	0.000187
1915	1.9044e+02	-1.8718	-31.624903	0.000993	9.931247	1.682399	0.000199
1916	1.9054e+02	-1.8517	-31.390749	0.001176	11.755354	1.991411	0.000235
1917	1.9064e+02	-1.8317	-31.229264	0.000811	8.107141	1.373387	0.000162
1918	1.9074e+02	-1.8121	-31.015295	0.001074	10.741961	1.819738	0.000215
1919	1.9084e+02	-1.7918	-30.813439	0.001013	10.133926	1.716734	0.000203
1920	1.9094e+02	-1.7717	-30.615619	0.000993	9.931247	1.682399	0.000199
1921	1.9104e+02	-1.7501	-30.421836	0.000973	9.728569	1.648064	0.000195
1922	1.9114e+02	-1.7316	-30.219980	0.001013	10.133926	1.716734	0.000203
1923	1.9124e+02	-1.7123	-30.034271	0.000932	9.323212	1.579395	0.000187
1924	1.9134e+02	-1.6913	-29.816266	0.001094	10.944640	1.854072	0.000219
1925	1.9144e+02	-1.6716	-29.622483	0.000973	9.728569	1.648064	0.000195
1926	1.9154e+02	-1.6521	-29.424664	0.000993	9.931247	1.682399	0.000199
1927	1.9164e+02	-1.6331	-29.234918	0.000953	9.525890	1.613730	0.000191
1928	1.9174e+02	-1.6119	-29.020950	0.001074	10.741961	1.819738	0.000215
1929	1.9184e+02	-1.5924	-28.871576	0.000750	7.499105	1.270383	0.000150
1930	1.9194e+02	-1.5718	-28.625311	0.001236	12.363390	2.094415	0.000248
1931	1.9203e+02	-1.5521	-28.463826	0.000811	8.107141	1.373387	0.000162
1932	1.9213e+02	-1.5321	-28.245820	0.001094	10.944640	1.854072	0.000219
1933	1.9223e+02	-1.5127	-27.999555	0.001236	12.363390	2.094415	0.000248
1934	1.9233e+02	-1.4926	-27.821921	0.000892	8.917855	1.510725	0.000179
1935	1.9243e+02	-1.4724	-27.599878	0.001115	11.147318	1.888407	0.000223
1936	1.9253e+02	-1.4524	-27.418207	0.000912	9.120533	1.545060	0.000183
1937	1.9263e+02	-1.4329	-27.224425	0.000973	9.728569	1.648064	0.000195
1938	1.9273e+02	-1.4133	-27.066977	0.000790	7.904462	1.339052	0.000158
1939	1.9283e+02	-1.3934	-26.800526	0.001338	13.376782	2.266088	0.000268
1940	1.9293e+02	-1.3731	-26.598669	0.001013	10.133926	1.716734	0.000203
1941	1.9303e+02	-1.3531	-26.421035	0.000892	8.917855	1.510725	0.000179
1942	1.9313e+02	-1.3326	-26.162658	0.001297	12.971425	2.197419	0.000260
1943	1.9323e+02	-1.3133	-26.017321	0.000730	7.296427	1.236048	0.000146
1944	1.9333e+02	-1.2920	-25.799316	0.001094	10.944640	1.854072	0.000219
1945	1.9343e+02	-1.2733	-25.593422	0.001034	10.336604	1.751068	0.000207
1946	1.9353e+02	-1.2529	-25.403677	0.000953	9.525890	1.613730	0.000191
1947	1.9363e+02	-1.2340	-25.157411	0.001236	12.363390	2.094415	0.000248
1948	1.9373e+02	-1.2148	-24.963629	0.000973	9.728569	1.648064	0.000195
1949	1.9383e+02	-1.1939	-24.761772	0.001013	10.133926	1.716734	0.000203
1950	1.9393e+02	-1.1737	-24.543767	0.001094	10.944640	1.854072	0.000219
1951	1.9403e+02	-1.1533	-24.386318	0.000790	7.904462	1.339052	0.000158
1952	1.9412e+02	-1.1343	-24.164276	0.001115	11.147318	1.888407	0.000223
1953	1.9422e+02	-1.1139	-23.918011	0.001236	12.363390	2.094415	0.000248
1954	1.9432e+02	-1.0950	-23.736340	0.000912	9.120533	1.545060	0.000183
1955	1.9442e+02	-1.0742	-23.538520	0.000993	9.931247	1.682399	0.000199
1956	1.9452e+02	-1.0539	-23.352812	0.000932	9.323212	1.579395	0.000187
1957	1.9462e+02	-1.0343	-23.110584	0.001216	12.160711	2.060080	0.000243
1958	1.9472e+02	-1.0155	-22.892578	0.001094	10.944640	1.854072	0.000219
1959	1.9482e+02	-0.9947	-22.686684	0.001034	10.336604	1.751068	0.000207
1960	1.9492e+02	-0.9744	-22.472716	0.001074	10.741961	1.819738	0.000215
1961	1.9502e+02	-0.9547	-22.266822	0.001034	10.336604	1.751068	0.000207
1962	1.9512e+02	-0.9352	-22.073040	0.000973	9.728569	1.648064	0.000195
1963	1.9522e+02	-0.9148	-21.838886	0.001176	11.755354	1.991411	0.000235
1964	1.9532e+02	-0.8949	-21.628955	0.001054	10.539283	1.785403	0.000211
1965	1.9542e+02	-0.8757	-21.435172	0.000973	9.728569	1.648064	0.000195
1966	1.9552e+02	-0.8551	-21.205055	0.001155	11.552675	1.957076	0.000231
1967	1.9562e+02	-0.8348	-20.999162	0.001034	10.336604	1.751068	0.000207
1968	1.9572e+02	-0.8150	-20.801342	0.000993	9.931247	1.682399	0.000199
1969	1.9582e+02	-0.7943	-20.611597	0.000953	9.525890	1.613730	0.000191
1970	1.9592e+02	-0.7756	-20.397628	0.001074	10.741961	1.819738	0.000215
1971	1.9601e+02	-0.7555	-20.163474	0.001176	11.755354	1.991411	0.000235
1972	1.9611e+02	-0.7357	-19.965655	0.000993	9.931247	1.682399	0.000199
1973	1.9621e+02	-0.7152	-19.747649	0.001094	10.944640	1.854072	0.000219
1974	1.9631e+02	-0.6963	-19.541756	0.001034	10.336604	1.751068	0.000207
1975	1.9641e+02	-0.6766	-19.356047	0.000932	9.323212	1.579395	0.000187
1976	1.9651e+02	-0.6559	-19.113819	0.001216	12.160711	2.060080	0.000243
1977	1.9661e+02	-0.6360	-18.956371	0.000790	7.904462	1.339052	0.000158
1978	1.9671e+02	-0.6157	-18.693957	0.001317	13.174104	2.231754	0.000264
1979	1.9681e+02	-0.5949	-18.488063	0.001034	10.336604	1.751068	0.000207
1980	1.9691e+02	-0.5768	-18.266021	0.001115	11.147318	1.888407	0.000223
1981	1.9701e+02	-0.5563	-18.076275	0.000953	9.525890	1.613730	0.000191
1982	1.9711e+02	-0.5368	-17.882493	0.000973	9.728569	1.648064	0.000195
1983	1.9721e+02	-0.5159	-17.680636	0.001013	10.133926	1.716734	0.000203
1984	1.9731e+02	-0.4956	-17.438408	0.001216	12.160711	2.060080	0.000243
1985	1.9741e+02	-0.4759	-17.220402	0.001094	10.944640	1.854072	0.000219
1986	1.9751e+02	-0.4563	-17.026620	0.000973	9.728569	1.648064	0.000195
1987	1.9761e+02	-0.4353	-16.820726	0.001034	10.336604	1.751068	0.000207
1988	1.9771e+02	-0.4163	-16.566387	0.001277	12.768747	2.163084	0.000256
1989	1.9781e+02	-0.3967	-16.400864	0.000831	8.309819	1.407721	0.000166
1990	1.9791e+02	-0.3768	-16.142487	0.001297	12.971425	2.197419	0.000260
1991	1.9800e+02	-0.3569	-15.981002	0.000811	8.107141	1.373387	0.000162
1992	1.9810e+02	-0.3365	-15.754922	0.001135	11.349997	1.922742	0.000227
1993	1.9820e+02	-0.3172	-15.565177	0.000953	9.525890	1.613730	0.000191
1994	1.9830e+02	-0.2968	-15.351209	0.001074	10.741961	1.819738	0.000215
1995	1.9840e+02	-0.2758	-15.092832	0.001297	12.971425	2.197419	0.000260
1996	1.9850e+02	-0.2570	-14.919235	0.000872	8.715176	1.476391	0.000174
1997	1.9860e+02	-0.2373	-14.713341	0.001034	10.336604	1.751068	0.000207
1998	1.9870e+02	-0.2161	-14.483224	0.001155	11.552675	1.957076	0.000231
1999	1.9880e+02	-0.1978	-14.285405	0.000993	9.931247	1.682399	0.000199
2000	1.9890e+02	-0.1775	-14.075474	0.001054	10.539283	1.785403	0.000211
2001	1.9900e+02	-0.1567	-13.845357	0.001155	11.552675	1.957076	0.000231
2002	1.9910e+02	-0.1376	-13.651574	0.000973	9.728569	1.648064	0.000195
2003	1.9920e+02	-0.1180	-13.421458	0.001155	11.552675	1.957076	0.000231
2004	1.9930e+02	-0.0980	-13.191341	0.001155	11.552675	1.957076	0.000231
2005	1.9940e+02	-0.0776	-13.005633	0.000932	9.323212	1.579395	0.000187
2006	1.9950e+02	-0.0574	-12.787627	0.001094	10.944640	1.854072	0.000219
2007	1.9960e+02	-0.0381	-12.581734	0.001034	10.336604	1.751068	0.000207
2008	1.9970e+02	-0.0185	-12.391988	0.000953	9.525890	1.613730	0.000191
2009	1.9980e+02	0.0010	-12.173983	0.000953	9.525890	1.613730	0.000219

Smooth data before PMax, +/-Pr and +/-Vc Calc.

PMax (uC/cm2):	8.43e+01
Pr (uC/cm2):	6.68e+00
-Pr (uC/cm2):	-1.44e+01
PLoss (uC/cm2):	-1.44e+01
-Vc:	-6.31e-01
C (Max-Eff) (nF):	8.43e-01
K (Eff):	1.43e+03
Vert. (+/-Pr) Shift (uC/cm2):	-3.84e+00
Offset (uC/cm2):	-2.12e+00

A (Loop Area - uC/cm2·Volts):	-2.25e-04



Hysteresis Version: 5.48.1 - Radiant Technologies, Inc., 1999 - 9/12/24

