»»»»»»»»»»»»»»»»»»»»»»»»»»»»»»»»»»»» Hysteresis ««««««««««««««««««««««««««««««««««««
»»»  Executed Version:	5.48.1
»»»  Vision Version:	5.48.4 (R)
»»»  Vision Compiled:	9/18/24
»»»  Driver Version:	5.47.0
»»»  Windows Version:	Windows 8 or 8.1
»»»  Processor Information:	x86 (AMD or Intel) - 32 Processors
»»»  Tester Name:	PMF21124-494 (100V)
»»»  Tester S/N:	PMF21124-494
»»»  Internal Amp Type:	100V RevK 270k
»»»  Internal Amp S/N:	iAB2-596/K     
»»»  Execution Count:	1
»»»»»»»»»»»»»»»»»»»»»»»»»»»»»»»»»»»»»»»»»»««««««««««««««««««««««««««««««««««««««««««

Stored:	7/9/2025 - 15:54:11
Configured:	07/09/25 02:06:30 PM
Executed:	07/09/25 03:53:44 PM

»»»»»»»»»»»»»»»»»»»»»»»»»»»»»»»»»»» Sample Info ««««««««««««««««««««««««««««««««««««
Sample Name:	
Lot Name:	
Wafer Name:	
Die Row/Column:	0/0
Capacitor Number:	0
Sample Area (cm2):	1.00e-04
Sample Thickness (microns):	1.50e-01

Amplifier:	Internal

»»»»»»»»»»»»»»»»»»»»»»»»»»»»»»»»»»» Tester Info «««««««««««««««««««««««««««««««««««
Tester Name:	PMF21124-494 (100V)
Tester Serial Number:	PMF21124-494
Return Signal Amp. Level:	0.19 [Index: 3]

»»»»»»»»»»»»»»»»»»»»»»»»»»»»»»»» Hysteresis Info ««««««««««««««««««««««««««««««««««
Task Name:	Hyst-900
Volts:	10.00
Field:	666.67 (kV/cm)
DCBias:	0.00
DCField:	0.00 (kV/cm)
Hysteresis Period (ms):	2.00e+02
Preset:	Enabled
Preset Delay (ms):	1.00e+03
Profile:	Standard Bipolar

»»»»»»»»»»»»»»»»»»»»»»»»»»»»»»»»»»»»»» Data «««««««««««««««««««««««««««««««««««««««
Points:	2009

Valid Data

Point	Time (ms)	Drive Voltage	Measured Polarization (uC/cm2)	Capacitance (uF)	Normalized Capacitance (uF/cm2)	Dielectric Constant	Instantaneous Current (mA)
   1	0.0000e+00	0.0000	26.471499	0.000831	8.310406	1.407821	0.000166
   2	9.9500e-02	0.0194	26.637022	0.000831	8.310406	1.407821	0.000166
   3	1.9900e-01	0.0386	26.798507	0.000811	8.107713	1.373484	0.000162
   4	2.9850e-01	0.0595	26.988252	0.000953	9.526563	1.613843	0.000191
   5	3.9800e-01	0.0792	27.141664	0.000770	7.702327	1.304810	0.000154
   6	4.9750e-01	0.0987	27.307186	0.000831	8.310406	1.407821	0.000166
   7	5.9700e-01	0.1196	27.505006	0.000993	9.931948	1.682518	0.000199
   8	6.9650e-01	0.1385	27.702825	0.000993	9.931948	1.682518	0.000199
   9	7.9600e-01	0.1582	27.836051	0.000669	6.688863	1.133124	0.000134
  10	8.9550e-01	0.1785	28.074242	0.001196	11.958877	2.025889	0.000239
  11	9.9500e-01	0.1987	28.199393	0.000628	6.283478	1.064450	0.000126
  12	1.0945e+00	0.2174	28.445658	0.001236	12.364262	2.094563	0.000248
  13	1.1940e+00	0.2398	28.603107	0.000791	7.905020	1.339147	0.000158
  14	1.2935e+00	0.2577	28.760555	0.000791	7.905020	1.339147	0.000158
  15	1.3930e+00	0.2780	28.922040	0.000811	8.107713	1.373484	0.000162
  16	1.4925e+00	0.2981	29.111786	0.000953	9.526563	1.613843	0.000191
  17	1.5920e+00	0.3183	29.277308	0.000831	8.310406	1.407821	0.000166
  18	1.6915e+00	0.3363	29.475128	0.000993	9.931948	1.682518	0.000199
  19	1.7910e+00	0.3571	29.660836	0.000932	9.323870	1.579506	0.000187
  20	1.8905e+00	0.3782	29.842507	0.000912	9.121177	1.545169	0.000183
  21	1.9900e+00	0.3976	29.979770	0.000689	6.891556	1.167461	0.000138
  22	2.0895e+00	0.4182	30.177590	0.000993	9.931948	1.682518	0.000199
  23	2.1890e+00	0.4377	30.395595	0.001095	10.945412	1.854203	0.000219
  24	2.2885e+00	0.4575	30.573229	0.000892	8.918484	1.510832	0.000179
  25	2.3880e+00	0.4784	30.754900	0.000912	9.121177	1.545169	0.000183
  26	2.4875e+00	0.4979	30.928497	0.000872	8.715791	1.476495	0.000174
  27	2.5870e+00	0.5167	31.069797	0.000709	7.094249	1.201798	0.000142
  28	2.6865e+00	0.5375	31.287802	0.001095	10.945412	1.854203	0.000219
  29	2.7860e+00	0.5570	31.473510	0.000932	9.323870	1.579506	0.000187
  30	2.8855e+00	0.5776	31.643070	0.000851	8.513099	1.442158	0.000170
  31	2.9850e+00	0.5976	31.853001	0.001054	10.540027	1.785529	0.000211
  32	3.0845e+00	0.6167	32.014486	0.000811	8.107713	1.373484	0.000162
  33	3.1840e+00	0.6379	32.232492	0.001095	10.945412	1.854203	0.000219
  34	3.2835e+00	0.6565	32.418200	0.000932	9.323870	1.579506	0.000187
  35	3.3830e+00	0.6759	32.599871	0.000912	9.121177	1.545169	0.000183
  36	3.4825e+00	0.6963	32.765394	0.000831	8.310406	1.407821	0.000166
  37	3.5820e+00	0.7169	32.943028	0.000892	8.918484	1.510832	0.000179
  38	3.6815e+00	0.7367	33.181219	0.001196	11.958877	2.025889	0.000239
  39	3.7810e+00	0.7559	33.358853	0.000892	8.918484	1.510832	0.000179
  40	3.8805e+00	0.7766	33.496115	0.000689	6.891556	1.167461	0.000138
  41	3.9800e+00	0.7965	33.726232	0.001155	11.553491	1.957214	0.000231
  42	4.0795e+00	0.8160	33.895792	0.000851	8.513099	1.442158	0.000170
  43	4.1790e+00	0.8372	34.109760	0.001074	10.742720	1.819866	0.000215
  44	4.2785e+00	0.8559	34.287394	0.000892	8.918484	1.510832	0.000179
  45	4.3780e+00	0.8762	34.481176	0.000973	9.729255	1.648180	0.000195
  46	4.4775e+00	0.8961	34.662847	0.000912	9.121177	1.545169	0.000183
  47	4.5770e+00	0.9158	34.848556	0.000932	9.323870	1.579506	0.000187
  48	4.6765e+00	0.9361	35.026190	0.000892	8.918484	1.510832	0.000179
  49	4.7760e+00	0.9564	35.264381	0.001196	11.958877	2.025889	0.000239
  50	4.8755e+00	0.9763	35.417792	0.000770	7.702327	1.304810	0.000154
  51	4.9750e+00	0.9952	35.647909	0.001155	11.553491	1.957214	0.000231
  52	5.0745e+00	1.0155	35.829580	0.000912	9.121177	1.545169	0.000183
  53	5.1740e+00	1.0352	35.978954	0.000750	7.499634	1.270472	0.000150
  54	5.2735e+00	1.0560	36.184848	0.001034	10.337334	1.751192	0.000207
  55	5.3730e+00	1.0747	36.414964	0.001155	11.553491	1.957214	0.000231
  56	5.4725e+00	1.0957	36.588561	0.000872	8.715791	1.476495	0.000174
  57	5.5720e+00	1.1153	36.790418	0.001013	10.134641	1.716855	0.000203
  58	5.6715e+00	1.1346	36.996312	0.001034	10.337334	1.751192	0.000207
  59	5.7710e+00	1.1548	37.129537	0.000669	6.688863	1.133124	0.000134
  60	5.8705e+00	1.1753	37.375803	0.001236	12.364262	2.094563	0.000248
  61	5.9700e+00	1.1951	37.541325	0.000831	8.310406	1.407821	0.000166
  62	6.0695e+00	1.2147	37.747219	0.001034	10.337334	1.751192	0.000207
  63	6.1690e+00	1.2349	37.932927	0.000932	9.323870	1.579506	0.000187
  64	6.2685e+00	1.2548	38.130747	0.000993	9.931948	1.682518	0.000199
  65	6.3680e+00	1.2741	38.312418	0.000912	9.121177	1.545169	0.000183
  66	6.4675e+00	1.2945	38.490052	0.000892	8.918484	1.510832	0.000179
  67	6.5670e+00	1.3142	38.671723	0.000912	9.121177	1.545169	0.000183
  68	6.6665e+00	1.3334	38.901840	0.001155	11.553491	1.957214	0.000231
  69	6.7660e+00	1.3533	39.095622	0.000973	9.729255	1.648180	0.000195
  70	6.8655e+00	1.3732	39.309591	0.001074	10.742720	1.819866	0.000215
  71	6.9650e+00	1.3934	39.515485	0.001034	10.337334	1.751192	0.000207
  72	7.0645e+00	1.4121	39.709267	0.000973	9.729255	1.648180	0.000195
  73	7.1640e+00	1.4339	39.878827	0.000851	8.513099	1.442158	0.000170
  74	7.2635e+00	1.4540	40.096832	0.001095	10.945412	1.854203	0.000219
  75	7.3630e+00	1.4713	40.282540	0.000932	9.323870	1.579506	0.000187
  76	7.4625e+00	1.4925	40.520731	0.001196	11.958877	2.025889	0.000239
  77	7.5620e+00	1.5130	40.657994	0.000689	6.891556	1.167461	0.000138
  78	7.6615e+00	1.5330	40.888111	0.001155	11.553491	1.957214	0.000231
  79	7.7610e+00	1.5531	41.102079	0.001074	10.742720	1.819866	0.000215
  80	7.8605e+00	1.5736	41.320084	0.001095	10.945412	1.854203	0.000219
  81	7.9600e+00	1.5925	41.493681	0.000872	8.715791	1.476495	0.000174
  82	8.0595e+00	1.6122	41.667278	0.000872	8.715791	1.476495	0.000174
  83	8.1590e+00	1.6336	41.889320	0.001115	11.148105	1.888540	0.000223
  84	8.2585e+00	1.6529	42.087140	0.000993	9.931948	1.682518	0.000199
  85	8.3580e+00	1.6729	42.297071	0.001054	10.540027	1.785529	0.000211
  86	8.4575e+00	1.6920	42.519114	0.001115	11.148105	1.888540	0.000223
  87	8.5570e+00	1.7122	42.644265	0.000628	6.283478	1.064450	0.000126
  88	8.6565e+00	1.7332	42.910716	0.001338	13.377726	2.266248	0.000268
  89	8.7560e+00	1.7516	43.084313	0.000872	8.715791	1.476495	0.000174
  90	8.8555e+00	1.7722	43.298281	0.001074	10.742720	1.819866	0.000215
  91	8.9550e+00	1.7921	43.508212	0.001054	10.540027	1.785529	0.000211
  92	9.0545e+00	1.8118	43.669697	0.000811	8.107713	1.373484	0.000162
  93	9.1540e+00	1.8319	43.887703	0.001095	10.945412	1.854203	0.000219
  94	9.2535e+00	1.8520	44.113782	0.001135	11.350798	1.922877	0.000227
  95	9.3530e+00	1.8723	44.307565	0.000973	9.729255	1.648180	0.000195
  96	9.4525e+00	1.8923	44.553830	0.001236	12.364262	2.094563	0.000248
  97	9.5520e+00	1.9118	44.747613	0.000973	9.729255	1.648180	0.000195
  98	9.6515e+00	1.9311	44.921209	0.000872	8.715791	1.476495	0.000174
  99	9.7510e+00	1.9521	45.090769	0.000851	8.513099	1.442158	0.000170
 100	9.8505e+00	1.9721	45.320886	0.001155	11.553491	1.957214	0.000231
 101	9.9500e+00	1.9918	45.546965	0.001135	11.350798	1.922877	0.000227
 102	1.0050e+01	2.0101	45.732674	0.000932	9.323870	1.579506	0.000187
 103	1.0149e+01	2.0315	45.966828	0.001176	11.756184	1.991551	0.000235
 104	1.0248e+01	2.0513	46.116202	0.000750	7.499634	1.270472	0.000150
 105	1.0348e+01	2.0715	46.358430	0.001216	12.161569	2.060226	0.000243
 106	1.0447e+01	2.0910	46.552212	0.000973	9.729255	1.648180	0.000195
 107	1.0547e+01	2.1114	46.790403	0.001196	11.958877	2.025889	0.000239
 108	1.0646e+01	2.1310	46.968037	0.000892	8.918484	1.510832	0.000179
 109	1.0746e+01	2.1507	47.149708	0.000912	9.121177	1.545169	0.000183
 110	1.0845e+01	2.1705	47.379825	0.001155	11.553491	1.957214	0.000231
 111	1.0945e+01	2.1913	47.537273	0.000791	7.905020	1.339147	0.000158
 112	1.1044e+01	2.2102	47.795650	0.001297	12.972341	2.197574	0.000260
 113	1.1144e+01	2.2307	47.977321	0.000912	9.121177	1.545169	0.000183
 114	1.1243e+01	2.2504	48.150918	0.000872	8.715791	1.476495	0.000174
 115	1.1343e+01	2.2703	48.393146	0.001216	12.161569	2.060226	0.000243
 116	1.1443e+01	2.2912	48.578854	0.000932	9.323870	1.579506	0.000187
 117	1.1542e+01	2.3100	48.796860	0.001095	10.945412	1.854203	0.000219
 118	1.1642e+01	2.3303	48.998716	0.001013	10.134641	1.716855	0.000203
 119	1.1741e+01	2.3505	49.216722	0.001095	10.945412	1.854203	0.000219
 120	1.1841e+01	2.3698	49.402430	0.000932	9.323870	1.579506	0.000187
 121	1.1940e+01	2.3901	49.652732	0.001257	12.566955	2.128900	0.000252
 122	1.2040e+01	2.4088	49.866701	0.001074	10.742720	1.819866	0.000215
 123	1.2139e+01	2.4308	49.991852	0.000628	6.283478	1.064450	0.000126
 124	1.2239e+01	2.4503	50.201783	0.001054	10.540027	1.785529	0.000211
 125	1.2338e+01	2.4699	50.460160	0.001297	12.972341	2.197574	0.000260
 126	1.2438e+01	2.4895	50.645868	0.000932	9.323870	1.579506	0.000187
 127	1.2537e+01	2.5098	50.859836	0.001074	10.742720	1.819866	0.000215
 128	1.2636e+01	2.5282	51.037470	0.000892	8.918484	1.510832	0.000179
 129	1.2736e+01	2.5491	51.271624	0.001176	11.756184	1.991551	0.000235
 130	1.2835e+01	2.5688	51.469444	0.000993	9.931948	1.682518	0.000199
 131	1.2935e+01	2.5877	51.703597	0.001176	11.756184	1.991551	0.000235
 132	1.3034e+01	2.6086	51.873157	0.000851	8.513099	1.442158	0.000170
 133	1.3134e+01	2.6284	52.091162	0.001095	10.945412	1.854203	0.000219
 134	1.3233e+01	2.6495	52.293019	0.001013	10.134641	1.716855	0.000203
 135	1.3333e+01	2.6690	52.535247	0.001216	12.161569	2.060226	0.000243
 136	1.3432e+01	2.6885	52.696733	0.000811	8.107713	1.373484	0.000162
 137	1.3532e+01	2.7090	52.914738	0.001095	10.945412	1.854203	0.000219
 138	1.3632e+01	2.7278	53.124669	0.001054	10.540027	1.785529	0.000211
 139	1.3731e+01	2.7480	53.338637	0.001074	10.742720	1.819866	0.000215
 140	1.3831e+01	2.7688	53.556643	0.001095	10.945412	1.854203	0.000219
 141	1.3930e+01	2.7889	53.722165	0.000831	8.310406	1.407821	0.000166
 142	1.4030e+01	2.8083	53.940171	0.001095	10.945412	1.854203	0.000219
 143	1.4129e+01	2.8281	54.182399	0.001216	12.161569	2.060226	0.000243
 144	1.4229e+01	2.8477	54.364070	0.000912	9.121177	1.545169	0.000183
 145	1.4328e+01	2.8676	54.586112	0.001115	11.148105	1.888540	0.000223
 146	1.4428e+01	2.8880	54.739523	0.000770	7.702327	1.304810	0.000154
 147	1.4527e+01	2.9076	54.957529	0.001095	10.945412	1.854203	0.000219
 148	1.4627e+01	2.9275	55.171497	0.001074	10.742720	1.819866	0.000215
 149	1.4726e+01	2.9479	55.361242	0.000953	9.526563	1.613843	0.000191
 150	1.4825e+01	2.9669	55.579248	0.001095	10.945412	1.854203	0.000219
 151	1.4925e+01	2.9871	55.728622	0.000750	7.499634	1.270472	0.000150
 152	1.5024e+01	3.0074	56.019296	0.001459	14.593883	2.472271	0.000292
 153	1.5124e+01	3.0276	56.205004	0.000932	9.323870	1.579506	0.000187
 154	1.5223e+01	3.0476	56.418972	0.001074	10.742720	1.819866	0.000215
 155	1.5323e+01	3.0674	56.572383	0.000770	7.702327	1.304810	0.000154
 156	1.5422e+01	3.0872	56.790388	0.001095	10.945412	1.854203	0.000219
 157	1.5522e+01	3.1081	57.004357	0.001074	10.742720	1.819866	0.000215
 158	1.5621e+01	3.1264	57.198139	0.000973	9.729255	1.648180	0.000195
 159	1.5721e+01	3.1477	57.436330	0.001196	11.958877	2.025889	0.000239
 160	1.5820e+01	3.1670	57.618001	0.000912	9.121177	1.545169	0.000183
 161	1.5920e+01	3.1863	57.791598	0.000872	8.715791	1.476495	0.000174
 162	1.6020e+01	3.2068	58.021715	0.001155	11.553491	1.957214	0.000231
 163	1.6119e+01	3.2262	58.203386	0.000912	9.121177	1.545169	0.000183
 164	1.6218e+01	3.2462	58.421391	0.001095	10.945412	1.854203	0.000219
 165	1.6318e+01	3.2665	58.607100	0.000932	9.323870	1.579506	0.000187
 166	1.6418e+01	3.2863	58.845291	0.001196	11.958877	2.025889	0.000239
 167	1.6517e+01	3.3056	59.035036	0.000953	9.526563	1.613843	0.000191
 168	1.6616e+01	3.3260	59.220744	0.000932	9.323870	1.579506	0.000187
 169	1.6716e+01	3.3469	59.422601	0.001013	10.134641	1.716855	0.000203
 170	1.6816e+01	3.3655	59.652718	0.001155	11.553491	1.957214	0.000231
 171	1.6915e+01	3.3875	59.830352	0.000892	8.918484	1.510832	0.000179
 172	1.7015e+01	3.4064	59.991837	0.000811	8.107713	1.373484	0.000162
 173	1.7114e+01	3.4254	60.238102	0.001236	12.364262	2.094563	0.000248
 174	1.7213e+01	3.4454	60.435922	0.000993	9.931948	1.682518	0.000199
 175	1.7313e+01	3.4663	60.585296	0.000750	7.499634	1.270472	0.000150
 176	1.7413e+01	3.4850	60.831561	0.001236	12.364262	2.094563	0.000248
 177	1.7512e+01	3.5056	60.993047	0.000811	8.107713	1.373484	0.000162
 178	1.7611e+01	3.5250	61.251423	0.001297	12.972341	2.197574	0.000260
 179	1.7711e+01	3.5456	61.441169	0.000953	9.526563	1.613843	0.000191
 180	1.7811e+01	3.5659	61.614766	0.000872	8.715791	1.476495	0.000174
 181	1.7910e+01	3.5863	61.820660	0.001034	10.337334	1.751192	0.000207
 182	1.8009e+01	3.6046	62.022516	0.001013	10.134641	1.716855	0.000203
 183	1.8109e+01	3.6256	62.204187	0.000912	9.121177	1.545169	0.000183
 184	1.8209e+01	3.6450	62.426230	0.001115	11.148105	1.888540	0.000223
 185	1.8308e+01	3.6651	62.603864	0.000892	8.918484	1.510832	0.000179
 186	1.8407e+01	3.6846	62.789572	0.000932	9.323870	1.579506	0.000187
 187	1.8507e+01	3.7048	62.967206	0.000892	8.918484	1.510832	0.000179
 188	1.8607e+01	3.7253	63.225583	0.001297	12.972341	2.197574	0.000260
 189	1.8706e+01	3.7453	63.399180	0.000872	8.715791	1.476495	0.000174
 190	1.8805e+01	3.7650	63.560665	0.000811	8.107713	1.373484	0.000162
 191	1.8905e+01	3.7839	63.746373	0.000932	9.323870	1.579506	0.000187
 192	1.9005e+01	3.8029	63.948230	0.001013	10.134641	1.716855	0.000203
 193	1.9104e+01	3.8244	64.129901	0.000912	9.121177	1.545169	0.000183
 194	1.9203e+01	3.8436	64.331758	0.001013	10.134641	1.716855	0.000203
 195	1.9303e+01	3.8645	64.557838	0.001135	11.350798	1.922877	0.000227
 196	1.9402e+01	3.8838	64.715286	0.000791	7.905020	1.339147	0.000158
 197	1.9502e+01	3.9039	64.880808	0.000831	8.310406	1.407821	0.000166
 198	1.9602e+01	3.9236	65.094777	0.001074	10.742720	1.819866	0.000215
 199	1.9701e+01	3.9431	65.284522	0.000953	9.526563	1.613843	0.000191
 200	1.9800e+01	3.9637	65.482342	0.000993	9.931948	1.682518	0.000199
 201	1.9900e+01	3.9844	65.688236	0.001034	10.337334	1.751192	0.000207
 202	2.0000e+01	4.0037	65.898167	0.001054	10.540027	1.785529	0.000211
 203	2.0099e+01	4.0234	66.108098	0.001054	10.540027	1.785529	0.000211
 204	2.0198e+01	4.0427	66.269583	0.000811	8.107713	1.373484	0.000162
 205	2.0298e+01	4.0630	66.455291	0.000932	9.323870	1.579506	0.000187
 206	2.0398e+01	4.0833	66.620814	0.000831	8.310406	1.407821	0.000166
 207	2.0497e+01	4.1033	66.834782	0.001074	10.742720	1.819866	0.000215
 208	2.0596e+01	4.1239	67.052787	0.001095	10.945412	1.854203	0.000219
 209	2.0696e+01	4.1430	67.226384	0.000872	8.715791	1.476495	0.000174
 210	2.0796e+01	4.1627	67.395944	0.000851	8.513099	1.442158	0.000170
 211	2.0895e+01	4.1824	67.617986	0.001115	11.148105	1.888540	0.000223
 212	2.0994e+01	4.2025	67.791583	0.000872	8.715791	1.476495	0.000174
 213	2.1094e+01	4.2226	67.973254	0.000912	9.121177	1.545169	0.000183
 214	2.1194e+01	4.2422	68.163000	0.000953	9.526563	1.613843	0.000191
 215	2.1293e+01	4.2628	68.360819	0.000993	9.931948	1.682518	0.000199
 216	2.1392e+01	4.2830	68.526342	0.000831	8.310406	1.407821	0.000166
 217	2.1492e+01	4.3020	68.724162	0.000993	9.931948	1.682518	0.000199
 218	2.1591e+01	4.3217	68.913907	0.000953	9.526563	1.613843	0.000191
 219	2.1691e+01	4.3418	69.099615	0.000932	9.323870	1.579506	0.000187
 220	2.1791e+01	4.3626	69.248989	0.000750	7.499634	1.270472	0.000150
 221	2.1890e+01	4.3819	69.466995	0.001095	10.945412	1.854203	0.000219
 222	2.1989e+01	4.4012	69.656740	0.000953	9.526563	1.613843	0.000191
 223	2.2089e+01	4.4225	69.818225	0.000811	8.107713	1.373484	0.000162
 224	2.2189e+01	4.4411	70.020082	0.001013	10.134641	1.716855	0.000203
 225	2.2288e+01	4.4613	70.205790	0.000932	9.323870	1.579506	0.000187
 226	2.2387e+01	4.4811	70.415722	0.001054	10.540027	1.785529	0.000211
 227	2.2487e+01	4.5021	70.565096	0.000750	7.499634	1.270472	0.000150
 228	2.2587e+01	4.5223	70.742730	0.000892	8.918484	1.510832	0.000179
 229	2.2686e+01	4.5414	70.940549	0.000993	9.931948	1.682518	0.000199
 230	2.2785e+01	4.5611	71.154517	0.001074	10.742720	1.819866	0.000215
 231	2.2885e+01	4.5815	71.320040	0.000831	8.310406	1.407821	0.000166
 232	2.2985e+01	4.6018	71.513822	0.000973	9.729255	1.648180	0.000195
 233	2.3084e+01	4.6219	71.679345	0.000831	8.310406	1.407821	0.000166
 234	2.3183e+01	4.6415	71.901387	0.001115	11.148105	1.888540	0.000223
 235	2.3283e+01	4.6612	72.046724	0.000730	7.296942	1.236135	0.000146
 236	2.3383e+01	4.6815	72.240507	0.000973	9.729255	1.648180	0.000195
 237	2.3482e+01	4.6999	72.426215	0.000932	9.323870	1.579506	0.000187
 238	2.3581e+01	4.7208	72.559441	0.000669	6.688863	1.133124	0.000134
 239	2.3681e+01	4.7399	72.781483	0.001115	11.148105	1.888540	0.000223
 240	2.3780e+01	4.7607	72.971228	0.000953	9.526563	1.613843	0.000191
 241	2.3880e+01	4.7811	73.124640	0.000770	7.702327	1.304810	0.000154
 242	2.3980e+01	4.7998	73.302274	0.000892	8.918484	1.510832	0.000179
 243	2.4079e+01	4.8208	73.524316	0.001115	11.148105	1.888540	0.000223
 244	2.4178e+01	4.8402	73.714061	0.000953	9.526563	1.613843	0.000191
 245	2.4278e+01	4.8605	73.859398	0.000730	7.296942	1.236135	0.000146
 246	2.4378e+01	4.8803	74.049144	0.000953	9.526563	1.613843	0.000191
 247	2.4477e+01	4.8998	74.238889	0.000953	9.526563	1.613843	0.000191
 248	2.4576e+01	4.9198	74.424597	0.000932	9.323870	1.579506	0.000187
 249	2.4676e+01	4.9401	74.602231	0.000892	8.918484	1.510832	0.000179
 250	2.4776e+01	4.9598	74.771791	0.000851	8.513099	1.442158	0.000170
 251	2.4875e+01	4.9810	74.969611	0.000993	9.931948	1.682518	0.000199
 252	2.4974e+01	4.9999	75.127059	0.000791	7.905020	1.339147	0.000158
 253	2.5074e+01	5.0201	75.332953	0.001034	10.337334	1.751192	0.000207
 254	2.5174e+01	5.0394	75.490401	0.000791	7.905020	1.339147	0.000158
 255	2.5273e+01	5.0596	75.676109	0.000932	9.323870	1.579506	0.000187
 256	2.5372e+01	5.0787	75.861818	0.000932	9.323870	1.579506	0.000187
 257	2.5472e+01	5.0991	76.055600	0.000973	9.729255	1.648180	0.000195
 258	2.5572e+01	5.1196	76.229197	0.000872	8.715791	1.476495	0.000174
 259	2.5671e+01	5.1388	76.418942	0.000953	9.526563	1.613843	0.000191
 260	2.5770e+01	5.1553	76.584465	0.000831	8.310406	1.407821	0.000166
 261	2.5870e+01	5.1788	76.758062	0.000872	8.715791	1.476495	0.000174
 262	2.5970e+01	5.1981	76.935696	0.000892	8.918484	1.510832	0.000179
 263	2.6069e+01	5.2186	77.113330	0.000892	8.918484	1.510832	0.000179
 264	2.6169e+01	5.2390	77.347484	0.001176	11.756184	1.991551	0.000235
 265	2.6268e+01	5.2590	77.529155	0.000912	9.121177	1.545169	0.000183
 266	2.6367e+01	5.2778	77.690640	0.000811	8.107713	1.373484	0.000162
 267	2.6467e+01	5.2972	77.868274	0.000892	8.918484	1.510832	0.000179
 268	2.6567e+01	5.3175	78.029760	0.000811	8.107713	1.373484	0.000162
 269	2.6666e+01	5.3377	78.223542	0.000973	9.729255	1.648180	0.000195
 270	2.6765e+01	5.3580	78.409250	0.000932	9.323870	1.579506	0.000187
 271	2.6865e+01	5.3780	78.562661	0.000770	7.702327	1.304810	0.000154
 272	2.6965e+01	5.3980	78.772593	0.001054	10.540027	1.785529	0.000211
 273	2.7064e+01	5.4171	78.934078	0.000811	8.107713	1.373484	0.000162
 274	2.7163e+01	5.4372	79.107675	0.000872	8.715791	1.476495	0.000174
 275	2.7263e+01	5.4569	79.301457	0.000973	9.729255	1.648180	0.000195
 276	2.7363e+01	5.4785	79.491203	0.000953	9.526563	1.613843	0.000191
 277	2.7462e+01	5.4983	79.648651	0.000791	7.905020	1.339147	0.000158
 278	2.7561e+01	5.5172	79.830322	0.000912	9.121177	1.545169	0.000183
 279	2.7661e+01	5.5392	79.999882	0.000851	8.513099	1.442158	0.000170
 280	2.7761e+01	5.5569	80.165404	0.000831	8.310406	1.407821	0.000166
 281	2.7860e+01	5.5773	80.359187	0.000973	9.729255	1.648180	0.000195
 282	2.7959e+01	5.5972	80.557007	0.000993	9.931948	1.682518	0.000199
 283	2.8059e+01	5.6174	80.722529	0.000831	8.310406	1.407821	0.000166
 284	2.8159e+01	5.6377	80.900163	0.000892	8.918484	1.510832	0.000179
 285	2.8258e+01	5.6567	81.093946	0.000973	9.729255	1.648180	0.000195
 286	2.8358e+01	5.6762	81.279654	0.000932	9.323870	1.579506	0.000187
 287	2.8457e+01	5.6960	81.412879	0.000669	6.688863	1.133124	0.000134
 288	2.8556e+01	5.7163	81.618773	0.001034	10.337334	1.751192	0.000207
 289	2.8656e+01	5.7363	81.788333	0.000851	8.513099	1.442158	0.000170
 290	2.8756e+01	5.7559	81.957893	0.000851	8.513099	1.442158	0.000170
 291	2.8855e+01	5.7769	82.151675	0.000973	9.729255	1.648180	0.000195
 292	2.8954e+01	5.7964	82.309123	0.000791	7.905020	1.339147	0.000158
 293	2.9054e+01	5.8157	82.486757	0.000892	8.918484	1.510832	0.000179
 294	2.9154e+01	5.8360	82.688614	0.001013	10.134641	1.716855	0.000203
 295	2.9253e+01	5.8566	82.825877	0.000689	6.891556	1.167461	0.000138
 296	2.9352e+01	5.8758	83.019659	0.000973	9.729255	1.648180	0.000195
 297	2.9452e+01	5.8965	83.197293	0.000892	8.918484	1.510832	0.000179
 298	2.9552e+01	5.9161	83.370890	0.000872	8.715791	1.476495	0.000174
 299	2.9651e+01	5.9361	83.560636	0.000953	9.526563	1.613843	0.000191
 300	2.9750e+01	5.9566	83.722121	0.000811	8.107713	1.373484	0.000162
 301	2.9850e+01	5.9753	83.895718	0.000872	8.715791	1.476495	0.000174
 302	2.9950e+01	5.9957	84.109686	0.001074	10.742720	1.819866	0.000215
 303	3.0049e+01	6.0154	84.295394	0.000932	9.323870	1.579506	0.000187
 304	3.0148e+01	6.0350	84.436694	0.000709	7.094249	1.201798	0.000142
 305	3.0248e+01	6.0548	84.634514	0.000993	9.931948	1.682518	0.000199
 306	3.0348e+01	6.0753	84.791962	0.000791	7.905020	1.339147	0.000158
 307	3.0447e+01	6.0955	84.961522	0.000851	8.513099	1.442158	0.000170
 308	3.0547e+01	6.1161	85.135118	0.000872	8.715791	1.476495	0.000174
 309	3.0646e+01	6.1352	85.328901	0.000973	9.729255	1.648180	0.000195
 310	3.0745e+01	6.1549	85.454052	0.000628	6.283478	1.064450	0.000126
 311	3.0845e+01	6.1747	85.651872	0.000993	9.931948	1.682518	0.000199
 312	3.0945e+01	6.1950	85.841617	0.000953	9.526563	1.613843	0.000191
 313	3.1044e+01	6.2148	85.999065	0.000791	7.905020	1.339147	0.000158
 314	3.1143e+01	6.2347	86.184774	0.000932	9.323870	1.579506	0.000187
 315	3.1243e+01	6.2545	86.362408	0.000892	8.918484	1.510832	0.000179
 316	3.1343e+01	6.2754	86.507745	0.000730	7.296942	1.236135	0.000146
 317	3.1442e+01	6.2951	86.693453	0.000932	9.323870	1.579506	0.000187
 318	3.1541e+01	6.3140	86.842827	0.000750	7.499634	1.270472	0.000150
 319	3.1641e+01	6.3341	87.044684	0.001013	10.134641	1.716855	0.000203
 320	3.1741e+01	6.3536	87.206169	0.000811	8.107713	1.373484	0.000162
 321	3.1840e+01	6.3737	87.375729	0.000851	8.513099	1.442158	0.000170
 322	3.1939e+01	6.3938	87.589697	0.001074	10.742720	1.819866	0.000215
 323	3.2039e+01	6.4133	87.735034	0.000730	7.296942	1.236135	0.000146
 324	3.2139e+01	6.4340	87.892482	0.000791	7.905020	1.339147	0.000158
 325	3.2238e+01	6.4538	88.049930	0.000791	7.905020	1.339147	0.000158
 326	3.2337e+01	6.4739	88.255824	0.001034	10.337334	1.751192	0.000207
 327	3.2437e+01	6.4936	88.376938	0.000608	6.080785	1.030113	0.000122
 328	3.2536e+01	6.5130	88.607055	0.001155	11.553491	1.957214	0.000231
 329	3.2636e+01	6.5337	88.764503	0.000791	7.905020	1.339147	0.000158
 330	3.2736e+01	6.5525	88.881580	0.000588	5.878092	0.995776	0.000118
 331	3.2835e+01	6.5730	89.091511	0.001054	10.540027	1.785529	0.000211
 332	3.2934e+01	6.5926	89.265108	0.000872	8.715791	1.476495	0.000174
 333	3.3034e+01	6.6126	89.438705	0.000872	8.715791	1.476495	0.000174
 334	3.3133e+01	6.6325	89.628451	0.000953	9.526563	1.613843	0.000191
 335	3.3233e+01	6.6525	89.757639	0.000649	6.486170	1.098787	0.000130
 336	3.3333e+01	6.6724	89.935273	0.000892	8.918484	1.510832	0.000179
 337	3.3432e+01	6.6927	90.108870	0.000872	8.715791	1.476495	0.000174
 338	3.3532e+01	6.7124	90.286504	0.000892	8.918484	1.510832	0.000179
 339	3.3631e+01	6.7335	90.411655	0.000628	6.283478	1.064450	0.000126
 340	3.3730e+01	6.7513	90.633697	0.001115	11.148105	1.888540	0.000223
 341	3.3830e+01	6.7707	90.787108	0.000770	7.702327	1.304810	0.000154
 342	3.3929e+01	6.7910	90.976854	0.000953	9.526563	1.613843	0.000191
 343	3.4029e+01	6.8121	91.122191	0.000730	7.296942	1.236135	0.000146
 344	3.4129e+01	6.8316	91.295788	0.000872	8.715791	1.476495	0.000174
 345	3.4228e+01	6.8517	91.445162	0.000750	7.499634	1.270472	0.000150
 346	3.4328e+01	6.8719	91.606647	0.000811	8.107713	1.373484	0.000162
 347	3.4427e+01	6.8911	91.756021	0.000750	7.499634	1.270472	0.000150
 348	3.4526e+01	6.9122	91.945766	0.000953	9.526563	1.613843	0.000191
 349	3.4626e+01	6.9310	92.103215	0.000791	7.905020	1.339147	0.000158
 350	3.4725e+01	6.9508	92.248552	0.000730	7.296942	1.236135	0.000146
 351	3.4825e+01	6.9717	92.422148	0.000872	8.715791	1.476495	0.000174
 352	3.4925e+01	6.9903	92.636117	0.001074	10.742720	1.819866	0.000215
 353	3.5024e+01	7.0114	92.797602	0.000811	8.107713	1.373484	0.000162
 354	3.5123e+01	7.0303	92.951013	0.000770	7.702327	1.304810	0.000154
 355	3.5223e+01	7.0510	93.080202	0.000649	6.486170	1.098787	0.000130
 356	3.5322e+01	7.0704	93.249761	0.000851	8.513099	1.442158	0.000170
 357	3.5422e+01	7.0908	93.395098	0.000730	7.296942	1.236135	0.000146
 358	3.5522e+01	7.1102	93.592918	0.000993	9.931948	1.682518	0.000199
 359	3.5621e+01	7.1301	93.758440	0.000831	8.310406	1.407821	0.000166
 360	3.5721e+01	7.1502	93.867443	0.000547	5.472706	0.927102	0.000110
 361	3.5820e+01	7.1706	94.073337	0.001034	10.337334	1.751192	0.000207
 362	3.5919e+01	7.1912	94.222711	0.000750	7.499634	1.270472	0.000150
 363	3.6019e+01	7.2105	94.404382	0.000912	9.121177	1.545169	0.000183
 364	3.6118e+01	7.2299	94.509348	0.000527	5.270013	0.892764	0.000105
 365	3.6218e+01	7.2506	94.707167	0.000993	9.931948	1.682518	0.000199
 366	3.6318e+01	7.2706	94.852504	0.000730	7.296942	1.236135	0.000146
 367	3.6417e+01	7.2900	95.038212	0.000932	9.323870	1.579506	0.000187
 368	3.6517e+01	7.3098	95.191624	0.000770	7.702327	1.304810	0.000154
 369	3.6616e+01	7.3304	95.353109	0.000811	8.107713	1.373484	0.000162
 370	3.6715e+01	7.3495	95.490372	0.000689	6.891556	1.167461	0.000138
 371	3.6815e+01	7.3690	95.635708	0.000730	7.296942	1.236135	0.000146
 372	3.6914e+01	7.3889	95.821417	0.000932	9.323870	1.579506	0.000187
 373	3.7014e+01	7.4099	95.958679	0.000689	6.891556	1.167461	0.000138
 374	3.7114e+01	7.4291	96.124202	0.000831	8.310406	1.407821	0.000166
 375	3.7213e+01	7.4500	96.297799	0.000872	8.715791	1.476495	0.000174
 376	3.7313e+01	7.4693	96.467358	0.000851	8.513099	1.442158	0.000170
 377	3.7412e+01	7.4895	96.612695	0.000730	7.296942	1.236135	0.000146
 378	3.7511e+01	7.5088	96.782255	0.000851	8.513099	1.442158	0.000170
 379	3.7611e+01	7.5283	96.947778	0.000831	8.310406	1.407821	0.000166
 380	3.7711e+01	7.5490	97.056780	0.000547	5.472706	0.927102	0.000110
 381	3.7810e+01	7.5692	97.254600	0.000993	9.931948	1.682518	0.000199
 382	3.7910e+01	7.5872	97.383788	0.000649	6.486170	1.098787	0.000130
 383	3.8009e+01	7.6084	97.537199	0.000770	7.702327	1.304810	0.000154
 384	3.8108e+01	7.6292	97.682536	0.000730	7.296942	1.236135	0.000146
 385	3.8208e+01	7.6495	97.856133	0.000872	8.715791	1.476495	0.000174
 386	3.8307e+01	7.6682	97.997433	0.000709	7.094249	1.201798	0.000142
 387	3.8407e+01	7.6885	98.142770	0.000730	7.296942	1.236135	0.000146
 388	3.8507e+01	7.7082	98.332515	0.000953	9.526563	1.613843	0.000191
 389	3.8606e+01	7.7295	98.498038	0.000831	8.310406	1.407821	0.000166
 390	3.8706e+01	7.7471	98.615115	0.000588	5.878092	0.995776	0.000118
 391	3.8805e+01	7.7674	98.808897	0.000973	9.729255	1.648180	0.000195
 392	3.8904e+01	7.7872	98.942123	0.000669	6.688863	1.133124	0.000134
 393	3.9004e+01	7.8076	99.087460	0.000730	7.296942	1.236135	0.000146
 394	3.9103e+01	7.8274	99.228759	0.000709	7.094249	1.201798	0.000142
 395	3.9203e+01	7.8476	99.398319	0.000851	8.513099	1.442158	0.000170
 396	3.9303e+01	7.8676	99.519433	0.000608	6.080785	1.030113	0.000122
 397	3.9402e+01	7.8883	99.697067	0.000892	8.918484	1.510832	0.000179
 398	3.9502e+01	7.9080	99.866627	0.000851	8.513099	1.442158	0.000170
 399	3.9601e+01	7.9278	99.995815	0.000649	6.486170	1.098787	0.000130
 400	3.9700e+01	7.9476	100.149226	0.000770	7.702327	1.304810	0.000154
 401	3.9800e+01	7.9685	100.282452	0.000669	6.688863	1.133124	0.000134
 402	3.9900e+01	7.9864	100.476234	0.000973	9.729255	1.648180	0.000195
 403	3.9999e+01	8.0062	100.597348	0.000608	6.080785	1.030113	0.000122
 404	4.0099e+01	8.0264	100.754797	0.000791	7.905020	1.339147	0.000158
 405	4.0198e+01	8.0473	100.924356	0.000851	8.513099	1.442158	0.000170
 406	4.0297e+01	8.0666	101.089879	0.000831	8.310406	1.407821	0.000166
 407	4.0397e+01	8.0863	101.231179	0.000709	7.094249	1.201798	0.000142
 408	4.0496e+01	8.1055	101.352293	0.000608	6.080785	1.030113	0.000122
 409	4.0596e+01	8.1273	101.501667	0.000750	7.499634	1.270472	0.000150
 410	4.0696e+01	8.1464	101.711598	0.001054	10.540027	1.785529	0.000211
 411	4.0795e+01	8.1667	101.824638	0.000568	5.675399	0.961439	0.000114
 412	4.0895e+01	8.1876	102.002272	0.000892	8.918484	1.510832	0.000179
 413	4.0994e+01	8.2063	102.139534	0.000689	6.891556	1.167461	0.000138
 414	4.1093e+01	8.2264	102.256611	0.000588	5.878092	0.995776	0.000118
 415	4.1193e+01	8.2461	102.446356	0.000953	9.526563	1.613843	0.000191
 416	4.1292e+01	8.2664	102.607842	0.000811	8.107713	1.373484	0.000162
 417	4.1392e+01	8.2856	102.732993	0.000628	6.283478	1.064450	0.000126
 418	4.1492e+01	8.3060	102.886404	0.000770	7.702327	1.304810	0.000154
 419	4.1591e+01	8.3252	103.047890	0.000811	8.107713	1.373484	0.000162
 420	4.1691e+01	8.3462	103.189189	0.000709	7.094249	1.201798	0.000142
 421	4.1790e+01	8.3660	103.318378	0.000649	6.486170	1.098787	0.000130
 422	4.1889e+01	8.3860	103.504086	0.000932	9.323870	1.579506	0.000187
 423	4.1989e+01	8.4052	103.649423	0.000730	7.296942	1.236135	0.000146
 424	4.2089e+01	8.4244	103.790723	0.000709	7.094249	1.201798	0.000142
 425	4.2188e+01	8.4454	103.960282	0.000851	8.513099	1.442158	0.000170
 426	4.2288e+01	8.4658	104.093508	0.000669	6.688863	1.133124	0.000134
 427	4.2387e+01	8.4857	104.254993	0.000811	8.107713	1.373484	0.000162
 428	4.2486e+01	8.5046	104.448776	0.000973	9.729255	1.648180	0.000195
 429	4.2586e+01	8.5249	104.537593	0.000446	4.459242	0.755416	0.000089
 430	4.2685e+01	8.5449	104.707153	0.000851	8.513099	1.442158	0.000170
 431	4.2785e+01	8.5645	104.872675	0.000831	8.310406	1.407821	0.000166
 432	4.2885e+01	8.5841	105.005901	0.000669	6.688863	1.133124	0.000134
 433	4.2984e+01	8.6045	105.151237	0.000730	7.296942	1.236135	0.000146
 434	4.3084e+01	8.6237	105.296574	0.000730	7.296942	1.236135	0.000146
 435	4.3183e+01	8.6444	105.405577	0.000547	5.472706	0.927102	0.000110
 436	4.3282e+01	8.6645	105.583211	0.000892	8.918484	1.510832	0.000179
 437	4.3382e+01	8.6843	105.768919	0.000932	9.323870	1.579506	0.000187
 438	4.3481e+01	8.7045	105.918293	0.000750	7.499634	1.270472	0.000150
 439	4.3581e+01	8.7234	106.067667	0.000750	7.499634	1.270472	0.000150
 440	4.3681e+01	8.7443	106.221078	0.000770	7.702327	1.304810	0.000154
 441	4.3780e+01	8.7652	106.374490	0.000770	7.702327	1.304810	0.000154
 442	4.3880e+01	8.7831	106.499641	0.000628	6.283478	1.064450	0.000126
 443	4.3979e+01	8.8040	106.665163	0.000831	8.310406	1.407821	0.000166
 444	4.4078e+01	8.8245	106.782240	0.000588	5.878092	0.995776	0.000118
 445	4.4178e+01	8.8428	106.980060	0.000993	9.931948	1.682518	0.000199
 446	4.4278e+01	8.8618	107.121360	0.000709	7.094249	1.201798	0.000142
 447	4.4377e+01	8.8819	107.274771	0.000770	7.702327	1.304810	0.000154
 448	4.4477e+01	8.9021	107.428182	0.000770	7.702327	1.304810	0.000154
 449	4.4576e+01	8.9238	107.537185	0.000547	5.472706	0.927102	0.000110
 450	4.4675e+01	8.9425	107.694633	0.000791	7.905020	1.339147	0.000158
 451	4.4775e+01	8.9629	107.884378	0.000953	9.526563	1.613843	0.000191
 452	4.4874e+01	8.9832	108.057975	0.000872	8.715791	1.476495	0.000174
 453	4.4974e+01	9.0025	108.162941	0.000527	5.270013	0.892764	0.000105
 454	4.5074e+01	9.0209	108.288092	0.000628	6.283478	1.064450	0.000126
 455	4.5173e+01	9.0424	108.453614	0.000831	8.310406	1.407821	0.000166
 456	4.5273e+01	9.0625	108.607026	0.000770	7.702327	1.304810	0.000154
 457	4.5372e+01	9.0820	108.768511	0.000811	8.107713	1.373484	0.000162
 458	4.5471e+01	9.1021	108.938071	0.000851	8.513099	1.442158	0.000170
 459	4.5571e+01	9.1212	109.047073	0.000547	5.472706	0.927102	0.000110
 460	4.5670e+01	9.1419	109.236819	0.000953	9.526563	1.613843	0.000191
 461	4.5770e+01	9.1608	109.353896	0.000588	5.878092	0.995776	0.000118
 462	4.5870e+01	9.1805	109.495195	0.000709	7.094249	1.201798	0.000142
 463	4.5969e+01	9.2017	109.660718	0.000831	8.310406	1.407821	0.000166
 464	4.6069e+01	9.2210	109.769721	0.000547	5.472706	0.927102	0.000110
 465	4.6168e+01	9.2420	109.955429	0.000932	9.323870	1.579506	0.000187
 466	4.6267e+01	9.2609	110.088654	0.000669	6.688863	1.133124	0.000134
 467	4.6367e+01	9.2822	110.242066	0.000770	7.702327	1.304810	0.000154
 468	4.6467e+01	9.3018	110.399514	0.000791	7.905020	1.339147	0.000158
 469	4.6566e+01	9.3213	110.585222	0.000932	9.323870	1.579506	0.000187
 470	4.6666e+01	9.3410	110.678076	0.000466	4.661935	0.789753	0.000093
 471	4.6765e+01	9.3604	110.827450	0.000750	7.499634	1.270472	0.000150
 472	4.6864e+01	9.3799	110.984899	0.000791	7.905020	1.339147	0.000158
 473	4.6964e+01	9.3999	111.118124	0.000669	6.688863	1.133124	0.000134
 474	4.7063e+01	9.4208	111.324018	0.001034	10.337334	1.751192	0.000207
 475	4.7163e+01	9.4410	111.449169	0.000628	6.283478	1.064450	0.000126
 476	4.7263e+01	9.4598	111.590469	0.000709	7.094249	1.201798	0.000142
 477	4.7362e+01	9.4805	111.731769	0.000709	7.094249	1.201798	0.000142
 478	4.7462e+01	9.5003	111.889217	0.000791	7.905020	1.339147	0.000158
 479	4.7561e+01	9.5216	112.018405	0.000649	6.486170	1.098787	0.000130
 480	4.7660e+01	9.5391	112.183928	0.000831	8.310406	1.407821	0.000166
 481	4.7760e+01	9.5597	112.321191	0.000689	6.891556	1.167461	0.000138
 482	4.7859e+01	9.5801	112.506899	0.000932	9.323870	1.579506	0.000187
 483	4.7959e+01	9.5996	112.636087	0.000649	6.486170	1.098787	0.000130
 484	4.8059e+01	9.6194	112.793535	0.000791	7.905020	1.339147	0.000158
 485	4.8158e+01	9.6400	112.930798	0.000689	6.891556	1.167461	0.000138
 486	4.8258e+01	9.6598	113.076135	0.000730	7.296942	1.236135	0.000146
 487	4.8357e+01	9.6809	113.221472	0.000730	7.296942	1.236135	0.000146
 488	4.8456e+01	9.6992	113.362772	0.000709	7.094249	1.201798	0.000142
 489	4.8556e+01	9.7195	113.504071	0.000709	7.094249	1.201798	0.000142
 490	4.8656e+01	9.7388	113.653445	0.000750	7.499634	1.270472	0.000150
 491	4.8755e+01	9.7589	113.802819	0.000750	7.499634	1.270472	0.000150
 492	4.8855e+01	9.7787	113.980453	0.000892	8.918484	1.510832	0.000179
 493	4.8954e+01	9.7987	114.105604	0.000628	6.283478	1.064450	0.000126
 494	4.9053e+01	9.8193	114.287276	0.000912	9.121177	1.545169	0.000183
 495	4.9153e+01	9.8379	114.408390	0.000608	6.080785	1.030113	0.000122
 496	4.9252e+01	9.8584	114.553727	0.000730	7.296942	1.236135	0.000146
 497	4.9352e+01	9.8785	114.719249	0.000831	8.310406	1.407821	0.000166
 498	4.9452e+01	9.8987	114.816140	0.000486	4.864628	0.824090	0.000097
 499	4.9551e+01	9.9187	114.977626	0.000811	8.107713	1.373484	0.000162
 500	4.9651e+01	9.9377	115.139111	0.000811	8.107713	1.373484	0.000162
 501	4.9750e+01	9.9585	115.284448	0.000730	7.296942	1.236135	0.000146
 502	4.9849e+01	9.9774	115.449971	0.000831	8.310406	1.407821	0.000166
 503	4.9949e+01	9.9976	115.554936	0.000527	5.270013	0.892764	0.000105
 504	5.0048e+01	9.9781	115.502453	0.000264	2.635007	0.446382	-0.000053
 505	5.0148e+01	9.9585	115.409599	0.000466	4.661935	0.789753	-0.000093
 506	5.0248e+01	9.9371	115.332894	0.000385	3.851164	0.652405	-0.000077
 507	5.0347e+01	9.9182	115.248114	0.000426	4.256549	0.721079	-0.000085
 508	5.0447e+01	9.8985	115.135074	0.000568	5.675399	0.961439	-0.000114
 509	5.0546e+01	9.8788	115.066443	0.000345	3.445778	0.583731	-0.000069
 510	5.0645e+01	9.8578	115.001849	0.000324	3.243085	0.549393	-0.000065
 511	5.0745e+01	9.8377	114.896883	0.000527	5.270013	0.892764	-0.000105
 512	5.0844e+01	9.8183	114.804029	0.000466	4.661935	0.789753	-0.000093
 513	5.0944e+01	9.7985	114.686952	0.000588	5.878092	0.995776	-0.000118
 514	5.1044e+01	9.7783	114.561801	0.000628	6.283478	1.064450	-0.000126
 515	5.1143e+01	9.7585	114.513355	0.000243	2.432314	0.412045	-0.000049
 516	5.1242e+01	9.7388	114.420501	0.000466	4.661935	0.789753	-0.000093
 517	5.1342e+01	9.7193	114.311498	0.000547	5.472706	0.927102	-0.000110
 518	5.1441e+01	9.6989	114.194421	0.000588	5.878092	0.995776	-0.000118
 519	5.1541e+01	9.6784	114.085419	0.000547	5.472706	0.927102	-0.000110
 520	5.1641e+01	9.6603	113.976416	0.000547	5.472706	0.927102	-0.000110
 521	5.1740e+01	9.6403	113.903748	0.000365	3.648471	0.618068	-0.000073
 522	5.1840e+01	9.6194	113.786671	0.000588	5.878092	0.995776	-0.000118
 523	5.1939e+01	9.5997	113.685742	0.000507	5.067321	0.858427	-0.000101
 524	5.2038e+01	9.5795	113.596925	0.000446	4.459242	0.755416	-0.000089
 525	5.2138e+01	9.5596	113.447551	0.000750	7.499634	1.270472	-0.000150
 526	5.2237e+01	9.5394	113.346623	0.000507	5.067321	0.858427	-0.000101
 527	5.2337e+01	9.5199	113.286066	0.000304	3.040392	0.515056	-0.000061
 528	5.2437e+01	9.4999	113.164952	0.000608	6.080785	1.030113	-0.000122
 529	5.2536e+01	9.4801	113.031726	0.000669	6.688863	1.133124	-0.000134
 530	5.2636e+01	9.4604	112.959058	0.000365	3.648471	0.618068	-0.000073
 531	5.2735e+01	9.4415	112.805647	0.000770	7.702327	1.304810	-0.000154
 532	5.2834e+01	9.4212	112.704718	0.000507	5.067321	0.858427	-0.000101
 533	5.2934e+01	9.4009	112.615901	0.000446	4.459242	0.755416	-0.000089
 534	5.3033e+01	9.3804	112.506899	0.000547	5.472706	0.927102	-0.000110
 535	5.3133e+01	9.3604	112.430193	0.000385	3.851164	0.652405	-0.000077
 536	5.3233e+01	9.3409	112.292931	0.000689	6.891556	1.167461	-0.000138
 537	5.3332e+01	9.3213	112.175854	0.000588	5.878092	0.995776	-0.000118
 538	5.3431e+01	9.3002	112.050702	0.000628	6.283478	1.064450	-0.000126
 539	5.3531e+01	9.2811	111.978034	0.000365	3.648471	0.618068	-0.000073
 540	5.3630e+01	9.2616	111.852883	0.000628	6.283478	1.064450	-0.000126
 541	5.3730e+01	9.2419	111.723694	0.000649	6.486170	1.098787	-0.000130
 542	5.3830e+01	9.2213	111.638915	0.000426	4.256549	0.721079	-0.000085
 543	5.3929e+01	9.2017	111.517800	0.000608	6.080785	1.030113	-0.000122
 544	5.4029e+01	9.1805	111.396686	0.000608	6.080785	1.030113	-0.000122
 545	5.4128e+01	9.1621	111.283647	0.000568	5.675399	0.961439	-0.000114
 546	5.4227e+01	9.1416	111.170607	0.000568	5.675399	0.961439	-0.000114
 547	5.4327e+01	9.1219	111.077753	0.000466	4.661935	0.789753	-0.000093
 548	5.4426e+01	9.1022	110.940490	0.000689	6.891556	1.167461	-0.000138
 549	5.4526e+01	9.0820	110.815339	0.000628	6.283478	1.064450	-0.000126
 550	5.4626e+01	9.0615	110.730559	0.000426	4.256549	0.721079	-0.000085
 551	5.4725e+01	9.0430	110.593296	0.000689	6.891556	1.167461	-0.000138
 552	5.4825e+01	9.0210	110.468145	0.000628	6.283478	1.064450	-0.000126
 553	5.4924e+01	9.0018	110.387402	0.000405	4.053856	0.686742	-0.000081
 554	5.5023e+01	8.9819	110.229954	0.000791	7.905020	1.339147	-0.000158
 555	5.5123e+01	8.9624	110.096729	0.000669	6.688863	1.133124	-0.000134
 556	5.5222e+01	8.9419	109.991763	0.000527	5.270013	0.892764	-0.000105
 557	5.5322e+01	8.9228	109.882761	0.000547	5.472706	0.927102	-0.000110
 558	5.5422e+01	8.9021	109.765684	0.000588	5.878092	0.995776	-0.000118
 559	5.5521e+01	8.8825	109.636495	0.000649	6.486170	1.098787	-0.000130
 560	5.5620e+01	8.8627	109.527493	0.000547	5.472706	0.927102	-0.000110
 561	5.5720e+01	8.8432	109.426564	0.000507	5.067321	0.858427	-0.000101
 562	5.5819e+01	8.8244	109.285264	0.000709	7.094249	1.201798	-0.000142
 563	5.5919e+01	8.8040	109.176262	0.000547	5.472706	0.927102	-0.000110
 564	5.6019e+01	8.7830	109.071296	0.000527	5.270013	0.892764	-0.000105
 565	5.6118e+01	8.7638	108.946145	0.000628	6.283478	1.064450	-0.000126
 566	5.6218e+01	8.7431	108.792734	0.000770	7.702327	1.304810	-0.000154
 567	5.6317e+01	8.7249	108.695843	0.000486	4.864628	0.824090	-0.000097
 568	5.6416e+01	8.7036	108.594914	0.000507	5.067321	0.858427	-0.000101
 569	5.6516e+01	8.6845	108.457652	0.000689	6.891556	1.167461	-0.000138
 570	5.6615e+01	8.6636	108.360760	0.000486	4.864628	0.824090	-0.000097
 571	5.6715e+01	8.6450	108.207349	0.000770	7.702327	1.304810	-0.000154
 572	5.6815e+01	8.6240	108.102384	0.000527	5.270013	0.892764	-0.000105
 573	5.6914e+01	8.6048	107.928787	0.000872	8.715791	1.476495	-0.000174
 574	5.7014e+01	8.5840	107.827858	0.000507	5.067321	0.858427	-0.000101
 575	5.7113e+01	8.5648	107.694633	0.000669	6.688863	1.133124	-0.000134
 576	5.7212e+01	8.5481	107.605816	0.000446	4.459242	0.755416	-0.000089
 577	5.7312e+01	8.5262	107.484702	0.000608	6.080785	1.030113	-0.000122
 578	5.7411e+01	8.5049	107.355514	0.000649	6.486170	1.098787	-0.000130
 579	5.7511e+01	8.4858	107.226325	0.000649	6.486170	1.098787	-0.000130
 580	5.7611e+01	8.4656	107.105211	0.000608	6.080785	1.030113	-0.000122
 581	5.7710e+01	8.4441	107.004283	0.000507	5.067321	0.858427	-0.000101
 582	5.7809e+01	8.4260	106.875094	0.000649	6.486170	1.098787	-0.000130
 583	5.7909e+01	8.4058	106.717646	0.000791	7.905020	1.339147	-0.000158
 584	5.8008e+01	8.3855	106.616718	0.000507	5.067321	0.858427	-0.000101
 585	5.8108e+01	8.3659	106.491566	0.000628	6.283478	1.064450	-0.000126
 586	5.8208e+01	8.3451	106.370452	0.000608	6.080785	1.030113	-0.000122
 587	5.8307e+01	8.3254	106.204930	0.000831	8.310406	1.407821	-0.000166
 588	5.8407e+01	8.3053	106.132261	0.000365	3.648471	0.618068	-0.000073
 589	5.8506e+01	8.2861	105.974813	0.000791	7.905020	1.339147	-0.000158
 590	5.8605e+01	8.2657	105.865810	0.000547	5.472706	0.927102	-0.000110
 591	5.8705e+01	8.2462	105.716436	0.000750	7.499634	1.270472	-0.000150
 592	5.8804e+01	8.2259	105.627619	0.000446	4.459242	0.755416	-0.000089
 593	5.8904e+01	8.2067	105.490357	0.000689	6.891556	1.167461	-0.000138
 594	5.9004e+01	8.1870	105.357131	0.000669	6.688863	1.133124	-0.000134
 595	5.9103e+01	8.1670	105.231980	0.000628	6.283478	1.064450	-0.000126
 596	5.9203e+01	8.1463	105.147200	0.000426	4.256549	0.721079	-0.000085
 597	5.9302e+01	8.1265	105.013975	0.000669	6.688863	1.133124	-0.000134
 598	5.9401e+01	8.1059	104.864601	0.000750	7.499634	1.270472	-0.000150
 599	5.9501e+01	8.0862	104.763672	0.000507	5.067321	0.858427	-0.000101
 600	5.9600e+01	8.0664	104.614298	0.000750	7.499634	1.270472	-0.000150
 601	5.9700e+01	8.0470	104.501259	0.000568	5.675399	0.961439	-0.000114
 602	5.9800e+01	8.0278	104.392256	0.000547	5.472706	0.927102	-0.000110
 603	5.9899e+01	8.0068	104.226733	0.000831	8.310406	1.407821	-0.000166
 604	5.9998e+01	7.9863	104.117731	0.000547	5.472706	0.927102	-0.000110
 605	6.0098e+01	7.9671	103.996617	0.000608	6.080785	1.030113	-0.000122
 606	6.0197e+01	7.9475	103.875503	0.000608	6.080785	1.030113	-0.000122
 607	6.0297e+01	7.9276	103.758426	0.000588	5.878092	0.995776	-0.000118
 608	6.0397e+01	7.9076	103.637312	0.000608	6.080785	1.030113	-0.000122
 609	6.0496e+01	7.8880	103.491975	0.000730	7.296942	1.236135	-0.000146
 610	6.0596e+01	7.8679	103.358749	0.000669	6.688863	1.133124	-0.000134
 611	6.0695e+01	7.8470	103.237635	0.000608	6.080785	1.030113	-0.000122
 612	6.0794e+01	7.8275	103.112484	0.000628	6.283478	1.064450	-0.000126
 613	6.0894e+01	7.8072	102.995407	0.000588	5.878092	0.995776	-0.000118
 614	6.0993e+01	7.7886	102.890441	0.000527	5.270013	0.892764	-0.000105
 615	6.1093e+01	7.7680	102.732993	0.000791	7.905020	1.339147	-0.000158
 616	6.1193e+01	7.7477	102.619953	0.000568	5.675399	0.961439	-0.000114
 617	6.1292e+01	7.7288	102.494802	0.000628	6.283478	1.064450	-0.000126
 618	6.1392e+01	7.7083	102.385799	0.000547	5.472706	0.927102	-0.000110
 619	6.1491e+01	7.6868	102.228351	0.000791	7.905020	1.339147	-0.000158
 620	6.1590e+01	7.6681	102.107237	0.000608	6.080785	1.030113	-0.000122
 621	6.1690e+01	7.6488	101.982086	0.000628	6.283478	1.064450	-0.000126
 622	6.1789e+01	7.6279	101.832712	0.000750	7.499634	1.270472	-0.000150
 623	6.1889e+01	7.6086	101.707561	0.000628	6.283478	1.064450	-0.000126
 624	6.1989e+01	7.5884	101.602595	0.000527	5.270013	0.892764	-0.000105
 625	6.2088e+01	7.5696	101.485518	0.000588	5.878092	0.995776	-0.000118
 626	6.2188e+01	7.5498	101.291736	0.000973	9.729255	1.648180	-0.000195
 627	6.2287e+01	7.5295	101.202919	0.000446	4.459242	0.755416	-0.000089
 628	6.2386e+01	7.5091	101.057582	0.000730	7.296942	1.236135	-0.000146
 629	6.2486e+01	7.4889	100.940505	0.000588	5.878092	0.995776	-0.000118
 630	6.2586e+01	7.4686	100.795168	0.000730	7.296942	1.236135	-0.000146
 631	6.2685e+01	7.4496	100.702314	0.000466	4.661935	0.789753	-0.000093
 632	6.2785e+01	7.4291	100.605423	0.000486	4.864628	0.824090	-0.000097
 633	6.2884e+01	7.4099	100.419714	0.000932	9.323870	1.579506	-0.000187
 634	6.2983e+01	7.3901	100.294563	0.000628	6.283478	1.064450	-0.000126
 635	6.3083e+01	7.3699	100.197672	0.000486	4.864628	0.824090	-0.000097
 636	6.3182e+01	7.3487	100.068484	0.000649	6.486170	1.098787	-0.000130
 637	6.3282e+01	7.3306	99.915072	0.000770	7.702327	1.304810	-0.000154
 638	6.3382e+01	7.3107	99.769735	0.000730	7.296942	1.236135	-0.000146
 639	6.3481e+01	7.2904	99.624399	0.000730	7.296942	1.236135	-0.000146
 640	6.3581e+01	7.2698	99.519433	0.000527	5.270013	0.892764	-0.000105
 641	6.3680e+01	7.2506	99.378133	0.000709	7.094249	1.201798	-0.000142
 642	6.3779e+01	7.2304	99.289316	0.000446	4.459242	0.755416	-0.000089
 643	6.3879e+01	7.2100	99.156091	0.000669	6.688863	1.133124	-0.000134
 644	6.3978e+01	7.1909	98.994605	0.000811	8.107713	1.373484	-0.000162
 645	6.4078e+01	7.1699	98.849269	0.000730	7.296942	1.236135	-0.000146
 646	6.4177e+01	7.1501	98.756414	0.000466	4.661935	0.789753	-0.000093
 647	6.4277e+01	7.1307	98.598966	0.000791	7.905020	1.339147	-0.000158
 648	6.4376e+01	7.1108	98.502075	0.000486	4.864628	0.824090	-0.000097
 649	6.4476e+01	7.0912	98.344627	0.000791	7.905020	1.339147	-0.000158
 650	6.4576e+01	7.0703	98.195253	0.000750	7.499634	1.270472	-0.000150
 651	6.4675e+01	7.0512	98.106436	0.000446	4.459242	0.755416	-0.000089
 652	6.4775e+01	7.0316	97.944950	0.000811	8.107713	1.373484	-0.000162
 653	6.4874e+01	7.0111	97.839985	0.000527	5.270013	0.892764	-0.000105
 654	6.4974e+01	6.9904	97.698685	0.000709	7.094249	1.201798	-0.000142
 655	6.5073e+01	6.9714	97.577571	0.000608	6.080785	1.030113	-0.000122
 656	6.5172e+01	6.9515	97.416085	0.000811	8.107713	1.373484	-0.000162
 657	6.5272e+01	6.9320	97.282860	0.000669	6.688863	1.133124	-0.000134
 658	6.5371e+01	6.9118	97.161746	0.000608	6.080785	1.030113	-0.000122
 659	6.5471e+01	6.8907	97.068892	0.000466	4.661935	0.789753	-0.000093
 660	6.5570e+01	6.8719	96.883183	0.000932	9.323870	1.579506	-0.000187
 661	6.5670e+01	6.8520	96.753995	0.000649	6.486170	1.098787	-0.000130
 662	6.5769e+01	6.8319	96.616732	0.000689	6.891556	1.167461	-0.000138
 663	6.5869e+01	6.8118	96.479470	0.000689	6.891556	1.167461	-0.000138
 664	6.5969e+01	6.7930	96.330096	0.000750	7.499634	1.270472	-0.000150
 665	6.6068e+01	6.7730	96.213019	0.000588	5.878092	0.995776	-0.000118
 666	6.6168e+01	6.7519	96.083831	0.000649	6.486170	1.098787	-0.000130
 667	6.6267e+01	6.7325	95.970791	0.000568	5.675399	0.961439	-0.000114
 668	6.6367e+01	6.7123	95.817380	0.000770	7.702327	1.304810	-0.000154
 669	6.6466e+01	6.6927	95.684154	0.000669	6.688863	1.133124	-0.000134
 670	6.6566e+01	6.6727	95.534780	0.000750	7.499634	1.270472	-0.000150
 671	6.6665e+01	6.6521	95.405592	0.000649	6.486170	1.098787	-0.000130
 672	6.6764e+01	6.6321	95.280441	0.000628	6.283478	1.064450	-0.000126
 673	6.6864e+01	6.6125	95.090695	0.000953	9.526563	1.613843	-0.000191
 674	6.6963e+01	6.5926	94.977655	0.000568	5.675399	0.961439	-0.000114
 675	6.7063e+01	6.5731	94.856541	0.000608	6.080785	1.030113	-0.000122
 676	6.7162e+01	6.5536	94.686982	0.000851	8.513099	1.442158	-0.000170
 677	6.7262e+01	6.5337	94.577979	0.000547	5.472706	0.927102	-0.000110
 678	6.7362e+01	6.5125	94.456865	0.000608	6.080785	1.030113	-0.000122
 679	6.7461e+01	6.4928	94.323639	0.000669	6.688863	1.133124	-0.000134
 680	6.7561e+01	6.4721	94.137931	0.000932	9.323870	1.579506	-0.000187
 681	6.7660e+01	6.4532	94.024891	0.000568	5.675399	0.961439	-0.000114
 682	6.7760e+01	6.4333	93.859369	0.000831	8.310406	1.407821	-0.000166
 683	6.7859e+01	6.4135	93.730180	0.000649	6.486170	1.098787	-0.000130
 684	6.7959e+01	6.3926	93.613103	0.000588	5.878092	0.995776	-0.000118
 685	6.8058e+01	6.3740	93.463729	0.000750	7.499634	1.270472	-0.000150
 686	6.8157e+01	6.3531	93.306281	0.000791	7.905020	1.339147	-0.000158
 687	6.8257e+01	6.3341	93.148833	0.000791	7.905020	1.339147	-0.000158
 688	6.8356e+01	6.3140	93.003496	0.000730	7.296942	1.236135	-0.000146
 689	6.8456e+01	6.2953	92.866233	0.000689	6.891556	1.167461	-0.000138
 690	6.8555e+01	6.2744	92.720896	0.000730	7.296942	1.236135	-0.000146
 691	6.8655e+01	6.2546	92.567485	0.000770	7.702327	1.304810	-0.000154
 692	6.8754e+01	6.2341	92.466557	0.000507	5.067321	0.858427	-0.000101
 693	6.8854e+01	6.2157	92.333331	0.000669	6.688863	1.133124	-0.000134
 694	6.8954e+01	6.1947	92.192032	0.000709	7.094249	1.201798	-0.000142
 695	6.9053e+01	6.1749	92.030546	0.000811	8.107713	1.373484	-0.000162
 696	6.9153e+01	6.1553	91.832727	0.000993	9.931948	1.682518	-0.000199
 697	6.9252e+01	6.1347	91.731798	0.000507	5.067321	0.858427	-0.000101
 698	6.9352e+01	6.1144	91.558201	0.000872	8.715791	1.476495	-0.000174
 699	6.9451e+01	6.0960	91.416902	0.000709	7.094249	1.201798	-0.000142
 700	6.9550e+01	6.0752	91.295788	0.000608	6.080785	1.030113	-0.000122
 701	6.9650e+01	6.0559	91.150451	0.000730	7.296942	1.236135	-0.000146
 702	6.9749e+01	6.0357	90.976854	0.000872	8.715791	1.476495	-0.000174
 703	6.9849e+01	6.0160	90.843628	0.000669	6.688863	1.133124	-0.000134
 704	6.9948e+01	5.9962	90.698291	0.000730	7.296942	1.236135	-0.000146
 705	7.0048e+01	5.9757	90.516620	0.000912	9.121177	1.545169	-0.000183
 706	7.0147e+01	5.9557	90.419729	0.000486	4.864628	0.824090	-0.000097
 707	7.0247e+01	5.9356	90.270355	0.000750	7.499634	1.270472	-0.000150
 708	7.0347e+01	5.9158	90.104833	0.000831	8.310406	1.407821	-0.000166
 709	7.0446e+01	5.8958	89.971607	0.000669	6.688863	1.133124	-0.000134
 710	7.0546e+01	5.8764	89.802047	0.000851	8.513099	1.442158	-0.000170
 711	7.0645e+01	5.8556	89.668822	0.000669	6.688863	1.133124	-0.000134
 712	7.0745e+01	5.8361	89.527522	0.000709	7.094249	1.201798	-0.000142
 713	7.0844e+01	5.8161	89.357962	0.000851	8.513099	1.442158	-0.000170
 714	7.0944e+01	5.7963	89.204551	0.000770	7.702327	1.304810	-0.000154
 715	7.1043e+01	5.7771	89.079400	0.000628	6.283478	1.064450	-0.000126
 716	7.1142e+01	5.7555	88.905803	0.000872	8.715791	1.476495	-0.000174
 717	7.1242e+01	5.7360	88.740281	0.000831	8.310406	1.407821	-0.000166
 718	7.1341e+01	5.7173	88.603018	0.000689	6.891556	1.167461	-0.000138
 719	7.1441e+01	5.6968	88.449607	0.000770	7.702327	1.304810	-0.000154
 720	7.1540e+01	5.6771	88.308307	0.000709	7.094249	1.201798	-0.000142
 721	7.1640e+01	5.6567	88.162970	0.000730	7.296942	1.236135	-0.000146
 722	7.1740e+01	5.6374	88.017633	0.000730	7.296942	1.236135	-0.000146
 723	7.1839e+01	5.6170	87.860185	0.000791	7.905020	1.339147	-0.000158
 724	7.1939e+01	5.5972	87.666403	0.000973	9.729255	1.648180	-0.000195
 725	7.2038e+01	5.5770	87.492806	0.000872	8.715791	1.476495	-0.000174
 726	7.2138e+01	5.5573	87.347469	0.000730	7.296942	1.236135	-0.000146
 727	7.2237e+01	5.5373	87.226355	0.000608	6.080785	1.030113	-0.000122
 728	7.2337e+01	5.5169	87.081018	0.000730	7.296942	1.236135	-0.000146
 729	7.2436e+01	5.4977	86.915495	0.000831	8.310406	1.407821	-0.000166
 730	7.2535e+01	5.4781	86.778233	0.000689	6.891556	1.167461	-0.000138
 731	7.2635e+01	5.4568	86.653081	0.000628	6.283478	1.064450	-0.000126
 732	7.2734e+01	5.4377	86.455262	0.000993	9.931948	1.682518	-0.000199
 733	7.2834e+01	5.4183	86.342222	0.000568	5.675399	0.961439	-0.000114
 734	7.2933e+01	5.3986	86.140365	0.001013	10.134641	1.716855	-0.000203
 735	7.3033e+01	5.3783	85.999065	0.000709	7.094249	1.201798	-0.000142
 736	7.3132e+01	5.3580	85.833543	0.000831	8.310406	1.407821	-0.000166
 737	7.3232e+01	5.3380	85.672057	0.000811	8.107713	1.373484	-0.000162
 738	7.3332e+01	5.3178	85.538832	0.000669	6.688863	1.133124	-0.000134
 739	7.3431e+01	5.2988	85.385421	0.000770	7.702327	1.304810	-0.000154
 740	7.3531e+01	5.2789	85.232010	0.000770	7.702327	1.304810	-0.000154
 741	7.3630e+01	5.2592	85.046301	0.000932	9.323870	1.579506	-0.000187
 742	7.3730e+01	5.2384	84.900965	0.000730	7.296942	1.236135	-0.000146
 743	7.3829e+01	5.2190	84.723331	0.000892	8.918484	1.510832	-0.000179
 744	7.3928e+01	5.1987	84.594142	0.000649	6.486170	1.098787	-0.000130
 745	7.4028e+01	5.1791	84.408434	0.000932	9.323870	1.579506	-0.000187
 746	7.4127e+01	5.1586	84.267134	0.000709	7.094249	1.201798	-0.000142
 747	7.4227e+01	5.1394	84.101612	0.000831	8.310406	1.407821	-0.000166
 748	7.4326e+01	5.1196	83.984535	0.000588	5.878092	0.995776	-0.000118
 749	7.4426e+01	5.0991	83.770567	0.001074	10.742720	1.819866	-0.000215
 750	7.4525e+01	5.0792	83.637341	0.000669	6.688863	1.133124	-0.000134
 751	7.4625e+01	5.0587	83.487967	0.000750	7.499634	1.270472	-0.000150
 752	7.4725e+01	5.0396	83.273999	0.001074	10.742720	1.819866	-0.000215
 753	7.4824e+01	5.0211	83.144811	0.000649	6.486170	1.098787	-0.000130
 754	7.4924e+01	4.9989	83.015622	0.000649	6.486170	1.098787	-0.000130
 755	7.5023e+01	4.9801	82.858174	0.000791	7.905020	1.339147	-0.000158
 756	7.5123e+01	4.9597	82.676503	0.000912	9.121177	1.545169	-0.000183
 757	7.5222e+01	4.9404	82.506943	0.000851	8.513099	1.442158	-0.000170
 758	7.5322e+01	4.9201	82.337383	0.000851	8.513099	1.442158	-0.000170
 759	7.5421e+01	4.8994	82.192046	0.000730	7.296942	1.236135	-0.000146
 760	7.5520e+01	4.8797	82.022487	0.000851	8.513099	1.442158	-0.000170
 761	7.5620e+01	4.8609	81.893298	0.000649	6.486170	1.098787	-0.000130
 762	7.5719e+01	4.8400	81.715664	0.000892	8.918484	1.510832	-0.000179
 763	7.5819e+01	4.8207	81.550142	0.000831	8.310406	1.407821	-0.000166
 764	7.5918e+01	4.8013	81.392694	0.000791	7.905020	1.339147	-0.000158
 765	7.6018e+01	4.7809	81.219097	0.000872	8.715791	1.476495	-0.000174
 766	7.6118e+01	4.7608	81.077797	0.000709	7.094249	1.201798	-0.000142
 767	7.6217e+01	4.7399	80.888052	0.000953	9.526563	1.613843	-0.000191
 768	7.6317e+01	4.7215	80.779049	0.000547	5.472706	0.927102	-0.000110
 769	7.6416e+01	4.7008	80.609489	0.000851	8.513099	1.442158	-0.000170
 770	7.6516e+01	4.6806	80.395521	0.001074	10.742720	1.819866	-0.000215
 771	7.6615e+01	4.6609	80.274407	0.000608	6.080785	1.030113	-0.000122
 772	7.6715e+01	4.6413	80.125033	0.000750	7.499634	1.270472	-0.000150
 773	7.6814e+01	4.6204	79.995845	0.000649	6.486170	1.098787	-0.000130
 774	7.6913e+01	4.6007	79.798025	0.000993	9.931948	1.682518	-0.000199
 775	7.7013e+01	4.5811	79.636540	0.000811	8.107713	1.373484	-0.000162
 776	7.7112e+01	4.5611	79.458906	0.000892	8.918484	1.510832	-0.000179
 777	7.7212e+01	4.5415	79.285309	0.000872	8.715791	1.476495	-0.000174
 778	7.7311e+01	4.5209	79.148046	0.000689	6.891556	1.167461	-0.000138
 779	7.7411e+01	4.5020	78.974449	0.000872	8.715791	1.476495	-0.000174
 780	7.7510e+01	4.4822	78.841224	0.000669	6.688863	1.133124	-0.000134
 781	7.7610e+01	4.4613	78.647441	0.000973	9.729255	1.648180	-0.000195
 782	7.7710e+01	4.4415	78.485956	0.000811	8.107713	1.373484	-0.000162
 783	7.7809e+01	4.4218	78.324470	0.000811	8.107713	1.373484	-0.000162
 784	7.7909e+01	4.4024	78.183171	0.000709	7.094249	1.201798	-0.000142
 785	7.8008e+01	4.3826	78.005537	0.000892	8.918484	1.510832	-0.000179
 786	7.8108e+01	4.3627	77.823866	0.000912	9.121177	1.545169	-0.000183
 787	7.8207e+01	4.3426	77.658343	0.000831	8.310406	1.407821	-0.000166
 788	7.8306e+01	4.3212	77.529155	0.000649	6.486170	1.098787	-0.000130
 789	7.8406e+01	4.3018	77.323261	0.001034	10.337334	1.751192	-0.000207
 790	7.8505e+01	4.2823	77.169850	0.000770	7.702327	1.304810	-0.000154
 791	7.8605e+01	4.2620	77.028550	0.000709	7.094249	1.201798	-0.000142
 792	7.8704e+01	4.2432	76.875139	0.000770	7.702327	1.304810	-0.000154
 793	7.8804e+01	4.2234	76.721728	0.000770	7.702327	1.304810	-0.000154
 794	7.8903e+01	4.2025	76.560242	0.000811	8.107713	1.373484	-0.000162
 795	7.9003e+01	4.1819	76.358385	0.001013	10.134641	1.716855	-0.000203
 796	7.9103e+01	4.1637	76.196900	0.000811	8.107713	1.373484	-0.000162
 797	7.9202e+01	4.1428	75.999080	0.000993	9.931948	1.682518	-0.000199
 798	7.9302e+01	4.1216	75.898152	0.000507	5.067321	0.858427	-0.000101
 799	7.9401e+01	4.1024	75.692258	0.001034	10.337334	1.751192	-0.000207
 800	7.9501e+01	4.0836	75.530773	0.000811	8.107713	1.373484	-0.000162
 801	7.9600e+01	4.0636	75.381399	0.000750	7.499634	1.270472	-0.000150
 802	7.9700e+01	4.0434	75.215876	0.000831	8.310406	1.407821	-0.000166
 803	7.9799e+01	4.0228	75.050353	0.000831	8.310406	1.407821	-0.000166
 804	7.9898e+01	4.0039	74.905016	0.000730	7.296942	1.236135	-0.000146
 805	7.9998e+01	3.9831	74.703160	0.001013	10.134641	1.716855	-0.000203
 806	8.0097e+01	3.9639	74.537637	0.000831	8.310406	1.407821	-0.000166
 807	8.0197e+01	3.9431	74.351929	0.000932	9.323870	1.579506	-0.000187
 808	8.0296e+01	3.9245	74.218703	0.000669	6.688863	1.133124	-0.000134
 809	8.0396e+01	3.9059	74.024921	0.000973	9.729255	1.648180	-0.000195
 810	8.0496e+01	3.8838	73.895733	0.000649	6.486170	1.098787	-0.000130
 811	8.0595e+01	3.8638	73.705987	0.000953	9.526563	1.613843	-0.000191
 812	8.0695e+01	3.8439	73.532390	0.000872	8.715791	1.476495	-0.000174
 813	8.0794e+01	3.8241	73.395128	0.000689	6.891556	1.167461	-0.000138
 814	8.0894e+01	3.8033	73.233642	0.000811	8.107713	1.373484	-0.000162
 815	8.0993e+01	3.7838	73.039860	0.000973	9.729255	1.648180	-0.000195
 816	8.1093e+01	3.7656	72.866263	0.000872	8.715791	1.476495	-0.000174
 817	8.1192e+01	3.7463	72.680555	0.000932	9.323870	1.579506	-0.000187
 818	8.1291e+01	3.7247	72.506958	0.000872	8.715791	1.476495	-0.000174
 819	8.1391e+01	3.7045	72.329324	0.000892	8.918484	1.510832	-0.000179
 820	8.1490e+01	3.6852	72.200136	0.000649	6.486170	1.098787	-0.000130
 821	8.1590e+01	3.6657	72.018464	0.000912	9.121177	1.545169	-0.000183
 822	8.1689e+01	3.6449	71.856979	0.000811	8.107713	1.373484	-0.000162
 823	8.1789e+01	3.6250	71.643011	0.001074	10.742720	1.819866	-0.000215
 824	8.1888e+01	3.6044	71.521897	0.000608	6.080785	1.030113	-0.000122
 825	8.1988e+01	3.5854	71.332151	0.000953	9.526563	1.613843	-0.000191
 826	8.2088e+01	3.5650	71.178740	0.000770	7.702327	1.304810	-0.000154
 827	8.2187e+01	3.5455	71.021292	0.000791	7.905020	1.339147	-0.000158
 828	8.2287e+01	3.5251	70.843658	0.000892	8.918484	1.510832	-0.000179
 829	8.2386e+01	3.5051	70.625653	0.001095	10.945412	1.854203	-0.000219
 830	8.2486e+01	3.4859	70.464167	0.000811	8.107713	1.373484	-0.000162
 831	8.2585e+01	3.4652	70.306719	0.000791	7.905020	1.339147	-0.000158
 832	8.2684e+01	3.4461	70.108899	0.000993	9.931948	1.682518	-0.000199
 833	8.2784e+01	3.4262	69.919154	0.000953	9.526563	1.613843	-0.000191
 834	8.2883e+01	3.4062	69.753631	0.000831	8.310406	1.407821	-0.000166
 835	8.2983e+01	3.3862	69.588109	0.000831	8.310406	1.407821	-0.000166
 836	8.3082e+01	3.3663	69.418549	0.000851	8.513099	1.442158	-0.000170
 837	8.3182e+01	3.3465	69.236878	0.000912	9.121177	1.545169	-0.000183
 838	8.3281e+01	3.3260	69.095578	0.000709	7.094249	1.201798	-0.000142
 839	8.3381e+01	3.3067	68.877573	0.001095	10.945412	1.854203	-0.000219
 840	8.3481e+01	3.2862	68.703976	0.000872	8.715791	1.476495	-0.000174
 841	8.3580e+01	3.2661	68.526342	0.000892	8.918484	1.510832	-0.000179
 842	8.3680e+01	3.2460	68.393117	0.000669	6.688863	1.133124	-0.000134
 843	8.3779e+01	3.2262	68.154926	0.001196	11.958877	2.025889	-0.000239
 844	8.3879e+01	3.2071	68.005552	0.000750	7.499634	1.270472	-0.000150
 845	8.3978e+01	3.1866	67.819843	0.000932	9.323870	1.579506	-0.000187
 846	8.4078e+01	3.1668	67.634135	0.000932	9.323870	1.579506	-0.000187
 847	8.4177e+01	3.1461	67.452464	0.000912	9.121177	1.545169	-0.000183
 848	8.4276e+01	3.1264	67.299053	0.000770	7.702327	1.304810	-0.000154
 849	8.4376e+01	3.1074	67.117382	0.000912	9.121177	1.545169	-0.000183
 850	8.4475e+01	3.0869	66.923599	0.000973	9.729255	1.648180	-0.000195
 851	8.4575e+01	3.0682	66.729817	0.000973	9.729255	1.648180	-0.000195
 852	8.4674e+01	3.0482	66.576405	0.000770	7.702327	1.304810	-0.000154
 853	8.4774e+01	3.0273	66.386660	0.000953	9.526563	1.613843	-0.000191
 854	8.4874e+01	3.0074	66.213063	0.000872	8.715791	1.476495	-0.000174
 855	8.4973e+01	2.9882	66.015244	0.000993	9.931948	1.682518	-0.000199
 856	8.5073e+01	2.9673	65.821461	0.000973	9.729255	1.648180	-0.000195
 857	8.5172e+01	2.9474	65.635753	0.000932	9.323870	1.579506	-0.000187
 858	8.5272e+01	2.9284	65.446007	0.000953	9.526563	1.613843	-0.000191
 859	8.5371e+01	2.9076	65.288559	0.000791	7.905020	1.339147	-0.000158
 860	8.5471e+01	2.8879	65.102851	0.000932	9.323870	1.579506	-0.000187
 861	8.5570e+01	2.8680	64.913106	0.000953	9.526563	1.613843	-0.000191
 862	8.5669e+01	2.8478	64.727397	0.000932	9.323870	1.579506	-0.000187
 863	8.5769e+01	2.8281	64.537652	0.000953	9.526563	1.613843	-0.000191
 864	8.5868e+01	2.8088	64.347907	0.000953	9.526563	1.613843	-0.000191
 865	8.5968e+01	2.7889	64.154124	0.000973	9.729255	1.648180	-0.000195
 866	8.6067e+01	2.7691	63.952267	0.001013	10.134641	1.716855	-0.000203
 867	8.6167e+01	2.7483	63.831153	0.000608	6.080785	1.030113	-0.000122
 868	8.6266e+01	2.7282	63.609111	0.001115	11.148105	1.888540	-0.000223
 869	8.6366e+01	2.7079	63.415328	0.000973	9.729255	1.648180	-0.000195
 870	8.6466e+01	2.6890	63.225583	0.000953	9.526563	1.613843	-0.000191
 871	8.6565e+01	2.6690	63.039875	0.000932	9.323870	1.579506	-0.000187
 872	8.6665e+01	2.6495	62.838018	0.001013	10.134641	1.716855	-0.000203
 873	8.6764e+01	2.6289	62.684607	0.000770	7.702327	1.304810	-0.000154
 874	8.6864e+01	2.6084	62.454490	0.001155	11.553491	1.957214	-0.000231
 875	8.6963e+01	2.5887	62.284930	0.000851	8.513099	1.442158	-0.000170
 876	8.7063e+01	2.5694	62.095185	0.000953	9.526563	1.613843	-0.000191
 877	8.7162e+01	2.5488	61.925625	0.000851	8.513099	1.442158	-0.000170
 878	8.7261e+01	2.5298	61.739917	0.000932	9.323870	1.579506	-0.000187
 879	8.7361e+01	2.5095	61.525949	0.001074	10.742720	1.819866	-0.000215
 880	8.7460e+01	2.4895	61.324092	0.001013	10.134641	1.716855	-0.000203
 881	8.7560e+01	2.4706	61.170681	0.000770	7.702327	1.304810	-0.000154
 882	8.7659e+01	2.4510	60.964787	0.001034	10.337334	1.751192	-0.000207
 883	8.7759e+01	2.4306	60.815413	0.000750	7.499634	1.270472	-0.000150
 884	8.7859e+01	2.4093	60.540888	0.001378	13.783112	2.334922	-0.000276
 885	8.7958e+01	2.3898	60.383439	0.000791	7.905020	1.339147	-0.000158
 886	8.8058e+01	2.3692	60.197731	0.000932	9.323870	1.579506	-0.000187
 887	8.8157e+01	2.3508	60.007986	0.000953	9.526563	1.613843	-0.000191
 888	8.8257e+01	2.3302	59.794017	0.001074	10.742720	1.819866	-0.000215
 889	8.8356e+01	2.3110	59.656755	0.000689	6.891556	1.167461	-0.000138
 890	8.8456e+01	2.2911	59.422601	0.001176	11.756184	1.991551	-0.000235
 891	8.8555e+01	2.2691	59.228818	0.000973	9.729255	1.648180	-0.000195
 892	8.8654e+01	2.2498	59.018887	0.001054	10.540027	1.785529	-0.000211
 893	8.8754e+01	2.2297	58.812993	0.001034	10.337334	1.751192	-0.000207
 894	8.8853e+01	2.2101	58.671694	0.000709	7.094249	1.201798	-0.000142
 895	8.8953e+01	2.1923	58.469837	0.001013	10.134641	1.716855	-0.000203
 896	8.9052e+01	2.1707	58.219534	0.001257	12.566955	2.128900	-0.000252
 897	8.9152e+01	2.1512	58.066123	0.000770	7.702327	1.304810	-0.000154
 898	8.9251e+01	2.1310	57.872341	0.000973	9.729255	1.648180	-0.000195
 899	8.9351e+01	2.1119	57.662410	0.001054	10.540027	1.785529	-0.000211
 900	8.9451e+01	2.0904	57.472664	0.000953	9.526563	1.613843	-0.000191
 901	8.9550e+01	2.0712	57.254659	0.001095	10.945412	1.854203	-0.000219
 902	8.9650e+01	2.0519	57.072988	0.000912	9.121177	1.545169	-0.000183
 903	8.9749e+01	2.0306	56.875168	0.000993	9.931948	1.682518	-0.000199
 904	8.9849e+01	2.0106	56.665237	0.001054	10.540027	1.785529	-0.000211
 905	8.9948e+01	1.9913	56.467418	0.000993	9.931948	1.682518	-0.000199
 906	9.0047e+01	1.9714	56.229227	0.001196	11.958877	2.025889	-0.000239
 907	9.0147e+01	1.9529	56.067741	0.000811	8.107713	1.373484	-0.000162
 908	9.0246e+01	1.9321	55.877996	0.000953	9.526563	1.613843	-0.000191
 909	9.0346e+01	1.9112	55.692288	0.000932	9.323870	1.579506	-0.000187
 910	9.0445e+01	1.8917	55.470245	0.001115	11.148105	1.888540	-0.000223
 911	9.0545e+01	1.8717	55.264351	0.001034	10.337334	1.751192	-0.000207
 912	9.0644e+01	1.8513	55.078643	0.000932	9.323870	1.579506	-0.000187
 913	9.0744e+01	1.8329	54.901009	0.000892	8.918484	1.510832	-0.000179
 914	9.0844e+01	1.8116	54.691078	0.001054	10.540027	1.785529	-0.000211
 915	9.0943e+01	1.7929	54.501332	0.000953	9.526563	1.613843	-0.000191
 916	9.1043e+01	1.7730	54.267179	0.001176	11.756184	1.991551	-0.000235
 917	9.1142e+01	1.7523	54.105693	0.000811	8.107713	1.373484	-0.000162
 918	9.1242e+01	1.7323	53.891725	0.001074	10.742720	1.819866	-0.000215
 919	9.1341e+01	1.7126	53.681794	0.001054	10.540027	1.785529	-0.000211
 920	9.1441e+01	1.6926	53.467826	0.001074	10.742720	1.819866	-0.000215
 921	9.1540e+01	1.6727	53.286155	0.000912	9.121177	1.545169	-0.000183
 922	9.1639e+01	1.6530	53.108521	0.000892	8.918484	1.510832	-0.000179
 923	9.1739e+01	1.6333	52.882441	0.001135	11.350798	1.922877	-0.000227
 924	9.1838e+01	1.6128	52.684621	0.000993	9.931948	1.682518	-0.000199
 925	9.1938e+01	1.5928	52.458542	0.001135	11.350798	1.922877	-0.000227
 926	9.2037e+01	1.5733	52.301093	0.000791	7.905020	1.339147	-0.000158
 927	9.2137e+01	1.5533	52.075014	0.001135	11.350798	1.922877	-0.000227
 928	9.2237e+01	1.5336	51.877194	0.000993	9.931948	1.682518	-0.000199
 929	9.2336e+01	1.5133	51.695523	0.000912	9.121177	1.545169	-0.000183
 930	9.2436e+01	1.4937	51.489629	0.001034	10.337334	1.751192	-0.000207
 931	9.2535e+01	1.4736	51.271624	0.001095	10.945412	1.854203	-0.000219
 932	9.2635e+01	1.4532	51.089953	0.000912	9.121177	1.545169	-0.000183
 933	9.2734e+01	1.4332	50.855799	0.001176	11.756184	1.991551	-0.000235
 934	9.2834e+01	1.4139	50.670091	0.000932	9.323870	1.579506	-0.000187
 935	9.2933e+01	1.3936	50.444011	0.001135	11.350798	1.922877	-0.000227
 936	9.3032e+01	1.3743	50.254266	0.000953	9.526563	1.613843	-0.000191
 937	9.3132e+01	1.3547	50.076632	0.000892	8.918484	1.510832	-0.000179
 938	9.3231e+01	1.3341	49.850552	0.001135	11.350798	1.922877	-0.000227
 939	9.3331e+01	1.3138	49.640621	0.001054	10.540027	1.785529	-0.000211
 940	9.3430e+01	1.2946	49.475098	0.000831	8.310406	1.407821	-0.000166
 941	9.3530e+01	1.2735	49.253056	0.001115	11.148105	1.888540	-0.000223
 942	9.3629e+01	1.2543	49.039088	0.001074	10.742720	1.819866	-0.000215
 943	9.3729e+01	1.2339	48.857417	0.000912	9.121177	1.545169	-0.000183
 944	9.3829e+01	1.2155	48.639411	0.001095	10.945412	1.854203	-0.000219
 945	9.3928e+01	1.1954	48.417369	0.001115	11.148105	1.888540	-0.000223
 946	9.4028e+01	1.1757	48.263958	0.000770	7.702327	1.304810	-0.000154
 947	9.4127e+01	1.1551	48.049990	0.001074	10.742720	1.819866	-0.000215
 948	9.4227e+01	1.1353	47.840058	0.001054	10.540027	1.785529	-0.000211
 949	9.4326e+01	1.1156	47.613979	0.001135	11.350798	1.922877	-0.000227
 950	9.4425e+01	1.0958	47.432308	0.000912	9.121177	1.545169	-0.000183
 951	9.4525e+01	1.0754	47.186043	0.001236	12.364262	2.094563	-0.000248
 952	9.4624e+01	1.0568	47.020520	0.000831	8.310406	1.407821	-0.000166
 953	9.4724e+01	1.0351	46.802515	0.001095	10.945412	1.854203	-0.000219
 954	9.4823e+01	1.0154	46.616806	0.000932	9.323870	1.579506	-0.000187
 955	9.4923e+01	0.9958	46.418987	0.000993	9.931948	1.682518	-0.000199
 956	9.5022e+01	0.9766	46.221167	0.000993	9.931948	1.682518	-0.000199
 957	9.5122e+01	0.9566	45.962790	0.001297	12.972341	2.197574	-0.000260
 958	9.5222e+01	0.9359	45.793231	0.000851	8.513099	1.442158	-0.000170
 959	9.5321e+01	0.9161	45.591374	0.001013	10.134641	1.716855	-0.000203
 960	9.5421e+01	0.8956	45.365294	0.001135	11.350798	1.922877	-0.000227
 961	9.5520e+01	0.8767	45.135178	0.001155	11.553491	1.957214	-0.000231
 962	9.5620e+01	0.8562	44.961581	0.000872	8.715791	1.476495	-0.000174
 963	9.5719e+01	0.8361	44.731464	0.001155	11.553491	1.957214	-0.000231
 964	9.5819e+01	0.8158	44.545756	0.000932	9.323870	1.579506	-0.000187
 965	9.5918e+01	0.7965	44.327750	0.001095	10.945412	1.854203	-0.000219
 966	9.6017e+01	0.7764	44.154154	0.000872	8.715791	1.476495	-0.000174
 967	9.6117e+01	0.7565	43.915963	0.001196	11.958877	2.025889	-0.000239
 968	9.6216e+01	0.7359	43.689883	0.001135	11.350798	1.922877	-0.000227
 969	9.6316e+01	0.7172	43.492063	0.000993	9.931948	1.682518	-0.000199
 970	9.6415e+01	0.6963	43.298281	0.000973	9.729255	1.648180	-0.000195
 971	9.6515e+01	0.6770	43.116610	0.000912	9.121177	1.545169	-0.000183
 972	9.6615e+01	0.6564	42.878419	0.001196	11.958877	2.025889	-0.000239
 973	9.6714e+01	0.6376	42.668488	0.001054	10.540027	1.785529	-0.000211
 974	9.6814e+01	0.6172	42.450482	0.001095	10.945412	1.854203	-0.000219
 975	9.6913e+01	0.5966	42.256700	0.000973	9.729255	1.648180	-0.000195
 976	9.7013e+01	0.5771	42.070992	0.000932	9.323870	1.579506	-0.000187
 977	9.7112e+01	0.5578	41.865098	0.001034	10.337334	1.751192	-0.000207
 978	9.7212e+01	0.5380	41.630944	0.001176	11.756184	1.991551	-0.000235
 979	9.7311e+01	0.5177	41.408901	0.001115	11.148105	1.888540	-0.000223
 980	9.7410e+01	0.4970	41.223193	0.000932	9.323870	1.579506	-0.000187
 981	9.7510e+01	0.4768	41.029411	0.000973	9.729255	1.648180	-0.000195
 982	9.7609e+01	0.4563	40.811405	0.001095	10.945412	1.854203	-0.000219
 983	9.7709e+01	0.4376	40.565140	0.001236	12.364262	2.094563	-0.000248
 984	9.7808e+01	0.4172	40.391543	0.000872	8.715791	1.476495	-0.000174
 985	9.7908e+01	0.3984	40.181612	0.001054	10.540027	1.785529	-0.000211
 986	9.8007e+01	0.3780	39.951495	0.001155	11.553491	1.957214	-0.000231
 987	9.8107e+01	0.3579	39.773861	0.000892	8.918484	1.510832	-0.000179
 988	9.8207e+01	0.3380	39.559893	0.001074	10.742720	1.819866	-0.000215
 989	9.8306e+01	0.3188	39.321702	0.001196	11.958877	2.025889	-0.000239
 990	9.8406e+01	0.2983	39.135994	0.000932	9.323870	1.579506	-0.000187
 991	9.8505e+01	0.2783	38.938174	0.000993	9.931948	1.682518	-0.000199
 992	9.8605e+01	0.2592	38.748429	0.000953	9.526563	1.613843	-0.000191
 993	9.8704e+01	0.2381	38.486015	0.001318	13.175033	2.231911	-0.000264
 994	9.8803e+01	0.2187	38.272047	0.001074	10.742720	1.819866	-0.000215
 995	9.8903e+01	0.1987	38.062116	0.001054	10.540027	1.785529	-0.000211
 996	9.9002e+01	0.1783	37.844110	0.001095	10.945412	1.854203	-0.000219
 997	9.9102e+01	0.1586	37.642254	0.001013	10.134641	1.716855	-0.000203
 998	9.9201e+01	0.1386	37.416174	0.001135	11.350798	1.922877	-0.000227
 999	9.9301e+01	0.1186	37.190094	0.001135	11.350798	1.922877	-0.000227
1000	9.9400e+01	0.0994	37.044758	0.000730	7.296942	1.236135	-0.000146
1001	9.9500e+01	0.0792	36.766195	0.001399	13.985805	2.369259	-0.000280
1002	9.9600e+01	0.0599	36.592598	0.000872	8.715791	1.476495	-0.000174
1003	9.9699e+01	0.0380	36.358444	0.001176	11.756184	1.991551	-0.000235
1004	9.9799e+01	0.0198	36.180810	0.000892	8.918484	1.510832	-0.000179
1005	9.9898e+01	-0.0008	35.970879	0.001054	10.540027	1.785529	-0.000211
1006	9.9998e+01	-0.0186	35.773060	0.000993	9.931948	1.682518	-0.000199
1007	1.0010e+02	-0.0390	35.563129	0.001054	10.540027	1.785529	-0.000211
1008	1.0020e+02	-0.0583	35.292641	0.001358	13.580419	2.300585	-0.000272
1009	1.0030e+02	-0.0790	35.074635	0.001095	10.945412	1.854203	-0.000219
1010	1.0040e+02	-0.0984	34.901038	0.000872	8.715791	1.476495	-0.000174
1011	1.0050e+02	-0.1178	34.662847	0.001196	11.958877	2.025889	-0.000239
1012	1.0059e+02	-0.1381	34.420619	0.001216	12.161569	2.060226	-0.000243
1013	1.0069e+02	-0.1587	34.251060	0.000851	8.513099	1.442158	-0.000170
1014	1.0079e+02	-0.1781	33.980572	0.001358	13.580419	2.300585	-0.000272
1015	1.0089e+02	-0.1982	33.774678	0.001034	10.337334	1.751192	-0.000207
1016	1.0099e+02	-0.2185	33.572821	0.001013	10.134641	1.716855	-0.000203
1017	1.0109e+02	-0.2390	33.366927	0.001034	10.337334	1.751192	-0.000207
1018	1.0119e+02	-0.2580	33.152959	0.001074	10.742720	1.819866	-0.000215
1019	1.0129e+02	-0.2778	32.914768	0.001196	11.958877	2.025889	-0.000239
1020	1.0139e+02	-0.2977	32.656391	0.001297	12.972341	2.197574	-0.000260
1021	1.0149e+02	-0.3172	32.454534	0.001013	10.134641	1.716855	-0.000203
1022	1.0159e+02	-0.3378	32.276900	0.000892	8.918484	1.510832	-0.000179
1023	1.0169e+02	-0.3568	32.026598	0.001257	12.566955	2.128900	-0.000252
1024	1.0179e+02	-0.3776	31.812630	0.001074	10.742720	1.819866	-0.000215
1025	1.0189e+02	-0.3975	31.566364	0.001236	12.364262	2.094563	-0.000248
1026	1.0199e+02	-0.4161	31.376619	0.000953	9.526563	1.613843	-0.000191
1027	1.0209e+02	-0.4375	31.166688	0.001054	10.540027	1.785529	-0.000211
1028	1.0219e+02	-0.4572	30.960794	0.001034	10.337334	1.751192	-0.000207
1029	1.0229e+02	-0.4777	30.694343	0.001338	13.377726	2.266248	-0.000268
1030	1.0239e+02	-0.4983	30.492486	0.001013	10.134641	1.716855	-0.000203
1031	1.0248e+02	-0.5168	30.250258	0.001216	12.161569	2.060226	-0.000243
1032	1.0258e+02	-0.5374	30.056476	0.000973	9.729255	1.648180	-0.000195
1033	1.0268e+02	-0.5564	29.826359	0.001155	11.553491	1.957214	-0.000231
1034	1.0278e+02	-0.5766	29.596242	0.001155	11.553491	1.957214	-0.000231
1035	1.0288e+02	-0.5965	29.374200	0.001115	11.148105	1.888540	-0.000223
1036	1.0298e+02	-0.6166	29.156194	0.001095	10.945412	1.854203	-0.000219
1037	1.0308e+02	-0.6367	28.922040	0.001176	11.756184	1.991551	-0.000235
1038	1.0318e+02	-0.6560	28.695961	0.001135	11.350798	1.922877	-0.000227
1039	1.0328e+02	-0.6766	28.453733	0.001216	12.161569	2.060226	-0.000243
1040	1.0338e+02	-0.6969	28.263987	0.000953	9.526563	1.613843	-0.000191
1041	1.0348e+02	-0.7153	28.033871	0.001155	11.553491	1.957214	-0.000231
1042	1.0358e+02	-0.7364	27.840088	0.000973	9.729255	1.648180	-0.000195
1043	1.0368e+02	-0.7568	27.626120	0.001074	10.742720	1.819866	-0.000215
1044	1.0378e+02	-0.7762	27.379855	0.001236	12.364262	2.094563	-0.000248
1045	1.0388e+02	-0.7961	27.161849	0.001095	10.945412	1.854203	-0.000219
1046	1.0398e+02	-0.8154	26.955955	0.001034	10.337334	1.751192	-0.000207
1047	1.0408e+02	-0.8368	26.725839	0.001155	11.553491	1.957214	-0.000231
1048	1.0418e+02	-0.8563	26.479573	0.001236	12.364262	2.094563	-0.000248
1049	1.0428e+02	-0.8755	26.261568	0.001095	10.945412	1.854203	-0.000219
1050	1.0438e+02	-0.8953	26.011266	0.001257	12.566955	2.128900	-0.000252
1051	1.0447e+02	-0.9161	25.821520	0.000953	9.526563	1.613843	-0.000191
1052	1.0457e+02	-0.9361	25.615626	0.001034	10.337334	1.751192	-0.000207
1053	1.0467e+02	-0.9547	25.361287	0.001277	12.769648	2.163237	-0.000256
1054	1.0477e+02	-0.9761	25.139244	0.001115	11.148105	1.888540	-0.000223
1055	1.0487e+02	-0.9951	24.941425	0.000993	9.931948	1.682518	-0.000199
1056	1.0497e+02	-1.0158	24.687085	0.001277	12.769648	2.163237	-0.000256
1057	1.0507e+02	-1.0345	24.473117	0.001074	10.742720	1.819866	-0.000215
1058	1.0517e+02	-1.0557	24.194554	0.001399	13.985805	2.369259	-0.000280
1059	1.0527e+02	-1.0741	24.016921	0.000892	8.918484	1.510832	-0.000179
1060	1.0537e+02	-1.0944	23.770655	0.001236	12.364262	2.094563	-0.000248
1061	1.0547e+02	-1.1140	23.588984	0.000912	9.121177	1.545169	-0.000183
1062	1.0557e+02	-1.1352	23.314459	0.001378	13.783112	2.334922	-0.000276
1063	1.0567e+02	-1.1555	23.080305	0.001176	11.756184	1.991551	-0.000235
1064	1.0577e+02	-1.1755	22.914782	0.000831	8.310406	1.407821	-0.000166
1065	1.0587e+02	-1.1943	22.624109	0.001459	14.593883	2.472271	-0.000292
1066	1.0597e+02	-1.2146	22.438400	0.000932	9.323870	1.579506	-0.000187
1067	1.0607e+02	-1.2346	22.171949	0.001338	13.377726	2.266248	-0.000268
1068	1.0617e+02	-1.2548	21.949907	0.001115	11.148105	1.888540	-0.000223
1069	1.0627e+02	-1.2746	21.727865	0.001115	11.148105	1.888540	-0.000223
1070	1.0637e+02	-1.2943	21.485636	0.001216	12.161569	2.060226	-0.000243
1071	1.0647e+02	-1.3147	21.255520	0.001155	11.553491	1.957214	-0.000231
1072	1.0656e+02	-1.3339	21.053663	0.001013	10.134641	1.716855	-0.000203
1073	1.0666e+02	-1.3537	20.847769	0.001034	10.337334	1.751192	-0.000207
1074	1.0676e+02	-1.3729	20.597467	0.001257	12.566955	2.128900	-0.000252
1075	1.0686e+02	-1.3933	20.363313	0.001176	11.756184	1.991551	-0.000235
1076	1.0696e+02	-1.4136	20.177604	0.000932	9.323870	1.579506	-0.000187
1077	1.0706e+02	-1.4331	19.943451	0.001176	11.756184	1.991551	-0.000235
1078	1.0716e+02	-1.4539	19.689111	0.001277	12.769648	2.163237	-0.000256
1079	1.0726e+02	-1.4726	19.458994	0.001155	11.553491	1.957214	-0.000231
1080	1.0736e+02	-1.4927	19.228878	0.001155	11.553491	1.957214	-0.000231
1081	1.0746e+02	-1.5121	18.998761	0.001155	11.553491	1.957214	-0.000231
1082	1.0756e+02	-1.5328	18.784793	0.001074	10.742720	1.819866	-0.000215
1083	1.0766e+02	-1.5527	18.542564	0.001216	12.161569	2.060226	-0.000243
1084	1.0776e+02	-1.5730	18.368968	0.000872	8.715791	1.476495	-0.000174
1085	1.0786e+02	-1.5932	18.130777	0.001196	11.958877	2.025889	-0.000239
1086	1.0796e+02	-1.6130	17.884511	0.001236	12.364262	2.094563	-0.000248
1087	1.0806e+02	-1.6327	17.662469	0.001115	11.148105	1.888540	-0.000223
1088	1.0816e+02	-1.6525	17.404092	0.001297	12.972341	2.197574	-0.000260
1089	1.0826e+02	-1.6724	17.218384	0.000932	9.323870	1.579506	-0.000187
1090	1.0836e+02	-1.6928	16.955970	0.001318	13.175033	2.231911	-0.000264
1091	1.0845e+02	-1.7115	16.754113	0.001013	10.134641	1.716855	-0.000203
1092	1.0855e+02	-1.7319	16.519959	0.001176	11.756184	1.991551	-0.000235
1093	1.0865e+02	-1.7519	16.297917	0.001115	11.148105	1.888540	-0.000223
1094	1.0875e+02	-1.7715	16.083949	0.001074	10.742720	1.819866	-0.000215
1095	1.0885e+02	-1.7920	15.841721	0.001216	12.161569	2.060226	-0.000243
1096	1.0895e+02	-1.8121	15.660050	0.000912	9.121177	1.545169	-0.000183
1097	1.0905e+02	-1.8321	15.377450	0.001419	14.188498	2.403597	-0.000284
1098	1.0915e+02	-1.8518	15.167519	0.001054	10.540027	1.785529	-0.000211
1099	1.0925e+02	-1.8723	14.969699	0.000993	9.931948	1.682518	-0.000199
1100	1.0935e+02	-1.8915	14.743620	0.001135	11.350798	1.922877	-0.000227
1101	1.0945e+02	-1.9122	14.473132	0.001358	13.580419	2.300585	-0.000272
1102	1.0955e+02	-1.9309	14.267238	0.001034	10.337334	1.751192	-0.000207
1103	1.0965e+02	-1.9524	14.037121	0.001155	11.553491	1.957214	-0.000231
1104	1.0975e+02	-1.9715	13.831227	0.001034	10.337334	1.751192	-0.000207
1105	1.0985e+02	-1.9907	13.593036	0.001196	11.958877	2.025889	-0.000239
1106	1.0995e+02	-2.0108	13.387142	0.001034	10.337334	1.751192	-0.000207
1107	1.1005e+02	-2.0321	13.161063	0.001135	11.350798	1.922877	-0.000227
1108	1.1015e+02	-2.0511	12.934983	0.001135	11.350798	1.922877	-0.000227
1109	1.1025e+02	-2.0710	12.753312	0.000912	9.121177	1.545169	-0.000183
1110	1.1035e+02	-2.0902	12.486861	0.001338	13.377726	2.266248	-0.000268
1111	1.1044e+02	-2.1103	12.289041	0.000993	9.931948	1.682518	-0.000199
1112	1.1054e+02	-2.1319	12.066999	0.001115	11.148105	1.888540	-0.000223
1113	1.1064e+02	-2.1510	11.800548	0.001338	13.377726	2.266248	-0.000268
1114	1.1074e+02	-2.1700	11.594654	0.001034	10.337334	1.751192	-0.000207
1115	1.1084e+02	-2.1904	11.388760	0.001034	10.337334	1.751192	-0.000207
1116	1.1094e+02	-2.2110	11.170755	0.001095	10.945412	1.854203	-0.000219
1117	1.1104e+02	-2.2300	10.956786	0.001074	10.742720	1.819866	-0.000215
1118	1.1114e+02	-2.2512	10.706484	0.001257	12.566955	2.128900	-0.000252
1119	1.1124e+02	-2.2708	10.516739	0.000953	9.526563	1.613843	-0.000191
1120	1.1134e+02	-2.2904	10.254325	0.001318	13.175033	2.231911	-0.000264
1121	1.1144e+02	-2.3109	10.048431	0.001034	10.337334	1.751192	-0.000207
1122	1.1154e+02	-2.3303	9.830426	0.001095	10.945412	1.854203	-0.000219
1123	1.1164e+02	-2.3499	9.616457	0.001074	10.742720	1.819866	-0.000215
1124	1.1174e+02	-2.3701	9.366155	0.001257	12.566955	2.128900	-0.000252
1125	1.1184e+02	-2.3898	9.172372	0.000973	9.729255	1.648180	-0.000195
1126	1.1194e+02	-2.4097	8.909959	0.001318	13.175033	2.231911	-0.000264
1127	1.1204e+02	-2.4303	8.716176	0.000973	9.729255	1.648180	-0.000195
1128	1.1214e+02	-2.4508	8.486059	0.001155	11.553491	1.957214	-0.000231
1129	1.1224e+02	-2.4702	8.288240	0.000993	9.931948	1.682518	-0.000199
1130	1.1234e+02	-2.4899	8.046012	0.001216	12.161569	2.060226	-0.000243
1131	1.1244e+02	-2.5096	7.823969	0.001115	11.148105	1.888540	-0.000223
1132	1.1253e+02	-2.5291	7.626149	0.000993	9.931948	1.682518	-0.000199
1133	1.1263e+02	-2.5482	7.404107	0.001115	11.148105	1.888540	-0.000223
1134	1.1273e+02	-2.5684	7.173990	0.001155	11.553491	1.957214	-0.000231
1135	1.1283e+02	-2.5891	6.964059	0.001054	10.540027	1.785529	-0.000211
1136	1.1293e+02	-2.6089	6.750091	0.001074	10.742720	1.819866	-0.000215
1137	1.1303e+02	-2.6288	6.475566	0.001378	13.783112	2.334922	-0.000276
1138	1.1313e+02	-2.6479	6.293895	0.000912	9.121177	1.545169	-0.000183
1139	1.1323e+02	-2.6682	6.083964	0.001054	10.540027	1.785529	-0.000211
1140	1.1333e+02	-2.6886	5.845773	0.001196	11.958877	2.025889	-0.000239
1141	1.1343e+02	-2.7084	5.664101	0.000912	9.121177	1.545169	-0.000183
1142	1.1353e+02	-2.7280	5.433985	0.001155	11.553491	1.957214	-0.000231
1143	1.1363e+02	-2.7478	5.224054	0.001054	10.540027	1.785529	-0.000211
1144	1.1373e+02	-2.7689	5.026234	0.000993	9.931948	1.682518	-0.000199
1145	1.1383e+02	-2.7884	4.788043	0.001196	11.958877	2.025889	-0.000239
1146	1.1393e+02	-2.8084	4.549852	0.001196	11.958877	2.025889	-0.000239
1147	1.1403e+02	-2.8273	4.356069	0.000973	9.729255	1.648180	-0.000195
1148	1.1413e+02	-2.8473	4.129990	0.001135	11.350798	1.922877	-0.000227
1149	1.1423e+02	-2.8686	3.936207	0.000973	9.729255	1.648180	-0.000195
1150	1.1433e+02	-2.8864	3.661682	0.001378	13.783112	2.334922	-0.000276
1151	1.1442e+02	-2.9076	3.492122	0.000851	8.513099	1.442158	-0.000170
1152	1.1452e+02	-2.9276	3.294303	0.000993	9.931948	1.682518	-0.000199
1153	1.1462e+02	-2.9472	3.031889	0.001318	13.175033	2.231911	-0.000264
1154	1.1472e+02	-2.9675	2.882515	0.000750	7.499634	1.270472	-0.000150
1155	1.1482e+02	-2.9876	2.599915	0.001419	14.188498	2.403597	-0.000284
1156	1.1492e+02	-3.0074	2.369799	0.001155	11.553491	1.957214	-0.000231
1157	1.1502e+02	-3.0273	2.155830	0.001074	10.742720	1.819866	-0.000215
1158	1.1512e+02	-3.0475	1.953974	0.001013	10.134641	1.716855	-0.000203
1159	1.1522e+02	-3.0673	1.727894	0.001135	11.350798	1.922877	-0.000227
1160	1.1532e+02	-3.0872	1.530074	0.000993	9.931948	1.682518	-0.000199
1161	1.1542e+02	-3.1070	1.299958	0.001155	11.553491	1.957214	-0.000231
1162	1.1552e+02	-3.1274	1.110212	0.000953	9.526563	1.613843	-0.000191
1163	1.1562e+02	-3.1473	0.904318	0.001034	10.337334	1.751192	-0.000207
1164	1.1572e+02	-3.1667	0.674202	0.001155	11.553491	1.957214	-0.000231
1165	1.1582e+02	-3.1860	0.460233	0.001074	10.742720	1.819866	-0.000215
1166	1.1592e+02	-3.2062	0.254340	0.001034	10.337334	1.751192	-0.000207
1167	1.1602e+02	-3.2262	0.056520	0.000993	9.931948	1.682518	-0.000199
1168	1.1612e+02	-3.2459	-0.205894	0.001318	13.175033	2.231911	-0.000264
1169	1.1622e+02	-3.2664	-0.423899	0.001095	10.945412	1.854203	-0.000219
1170	1.1632e+02	-3.2860	-0.633830	0.001054	10.540027	1.785529	-0.000211
1171	1.1642e+02	-3.3059	-0.863947	0.001155	11.553491	1.957214	-0.000231
1172	1.1651e+02	-3.3258	-1.061767	0.000993	9.931948	1.682518	-0.000199
1173	1.1661e+02	-3.3452	-1.291883	0.001155	11.553491	1.957214	-0.000231
1174	1.1671e+02	-3.3657	-1.497777	0.001034	10.337334	1.751192	-0.000207
1175	1.1681e+02	-3.3856	-1.679448	0.000912	9.121177	1.545169	-0.000183
1176	1.1691e+02	-3.4055	-1.925714	0.001236	12.364262	2.094563	-0.000248
1177	1.1701e+02	-3.4247	-2.115459	0.000953	9.526563	1.613843	-0.000191
1178	1.1711e+02	-3.4467	-2.361724	0.001236	12.364262	2.094563	-0.000248
1179	1.1721e+02	-3.4662	-2.547433	0.000932	9.323870	1.579506	-0.000187
1180	1.1731e+02	-3.4854	-2.769475	0.001115	11.148105	1.888540	-0.000223
1181	1.1741e+02	-3.5059	-2.963258	0.000973	9.729255	1.648180	-0.000195
1182	1.1751e+02	-3.5263	-3.201449	0.001196	11.958877	2.025889	-0.000239
1183	1.1761e+02	-3.5458	-3.423491	0.001115	11.148105	1.888540	-0.000223
1184	1.1771e+02	-3.5651	-3.597088	0.000872	8.715791	1.476495	-0.000174
1185	1.1781e+02	-3.5844	-3.875650	0.001399	13.985805	2.369259	-0.000280
1186	1.1791e+02	-3.6053	-4.081544	0.001034	10.337334	1.751192	-0.000207
1187	1.1801e+02	-3.6257	-4.259178	0.000892	8.918484	1.510832	-0.000179
1188	1.1811e+02	-3.6456	-4.489295	0.001155	11.553491	1.957214	-0.000231
1189	1.1821e+02	-3.6646	-4.695189	0.001034	10.337334	1.751192	-0.000207
1190	1.1831e+02	-3.6857	-4.949528	0.001277	12.769648	2.163237	-0.000256
1191	1.1841e+02	-3.7048	-5.131200	0.000912	9.121177	1.545169	-0.000183
1192	1.1850e+02	-3.7238	-5.353242	0.001115	11.148105	1.888540	-0.000223
1193	1.1860e+02	-3.7454	-5.583359	0.001155	11.553491	1.957214	-0.000231
1194	1.1870e+02	-3.7653	-5.801364	0.001095	10.945412	1.854203	-0.000219
1195	1.1880e+02	-3.7837	-5.999184	0.000993	9.931948	1.682518	-0.000199
1196	1.1890e+02	-3.8036	-6.213152	0.001074	10.742720	1.819866	-0.000215
1197	1.1900e+02	-3.8237	-6.431157	0.001095	10.945412	1.854203	-0.000219
1198	1.1910e+02	-3.8441	-6.645125	0.001074	10.742720	1.819866	-0.000215
1199	1.1920e+02	-3.8639	-6.863131	0.001095	10.945412	1.854203	-0.000219
1200	1.1930e+02	-3.8839	-7.093247	0.001155	11.553491	1.957214	-0.000231
1201	1.1940e+02	-3.9043	-7.295104	0.001013	10.134641	1.716855	-0.000203
1202	1.1950e+02	-3.9236	-7.513110	0.001095	10.945412	1.854203	-0.000219
1203	1.1960e+02	-3.9436	-7.706892	0.000973	9.729255	1.648180	-0.000195
1204	1.1970e+02	-3.9639	-7.945083	0.001196	11.958877	2.025889	-0.000239
1205	1.1980e+02	-3.9829	-8.183274	0.001196	11.958877	2.025889	-0.000239
1206	1.1990e+02	-4.0044	-8.381094	0.000993	9.931948	1.682518	-0.000199
1207	1.2000e+02	-4.0232	-8.595062	0.001074	10.742720	1.819866	-0.000215
1208	1.2010e+02	-4.0428	-8.817104	0.001115	11.148105	1.888540	-0.000223
1209	1.2020e+02	-4.0623	-8.978590	0.000811	8.107713	1.373484	-0.000162
1210	1.2030e+02	-4.0833	-9.232929	0.001277	12.769648	2.163237	-0.000256
1211	1.2039e+02	-4.1028	-9.446898	0.001074	10.742720	1.819866	-0.000215
1212	1.2049e+02	-4.1220	-9.648754	0.001013	10.134641	1.716855	-0.000203
1213	1.2059e+02	-4.1423	-9.874834	0.001135	11.350798	1.922877	-0.000227
1214	1.2069e+02	-4.1626	-10.104951	0.001155	11.553491	1.957214	-0.000231
1215	1.2079e+02	-4.1826	-10.310845	0.001034	10.337334	1.751192	-0.000207
1216	1.2089e+02	-4.2020	-10.452144	0.000709	7.094249	1.201798	-0.000142
1217	1.2099e+02	-4.2227	-10.742818	0.001459	14.593883	2.472271	-0.000292
1218	1.2109e+02	-4.2434	-10.948712	0.001034	10.337334	1.751192	-0.000207
1219	1.2119e+02	-4.2625	-11.122309	0.000872	8.715791	1.476495	-0.000174
1220	1.2129e+02	-4.2831	-11.384723	0.001318	13.175033	2.231911	-0.000264
1221	1.2139e+02	-4.3024	-11.590617	0.001034	10.337334	1.751192	-0.000207
1222	1.2149e+02	-4.3218	-11.804585	0.001074	10.742720	1.819866	-0.000215
1223	1.2159e+02	-4.3420	-12.006442	0.001013	10.134641	1.716855	-0.000203
1224	1.2169e+02	-4.3617	-12.256744	0.001257	12.566955	2.128900	-0.000252
1225	1.2179e+02	-4.3822	-12.486861	0.001155	11.553491	1.957214	-0.000231
1226	1.2189e+02	-4.4022	-12.656421	0.000851	8.513099	1.442158	-0.000170
1227	1.2199e+02	-4.4218	-12.842129	0.000932	9.323870	1.579506	-0.000187
1228	1.2209e+02	-4.4409	-13.132803	0.001459	14.593883	2.472271	-0.000292
1229	1.2219e+02	-4.4614	-13.306399	0.000872	8.715791	1.476495	-0.000174
1230	1.2229e+02	-4.4810	-13.568813	0.001318	13.175033	2.231911	-0.000264
1231	1.2239e+02	-4.5020	-13.778744	0.001054	10.540027	1.785529	-0.000211
1232	1.2248e+02	-4.5221	-13.980601	0.001013	10.134641	1.716855	-0.000203
1233	1.2258e+02	-4.5416	-14.226866	0.001236	12.364262	2.094563	-0.000248
1234	1.2268e+02	-4.5627	-14.448909	0.001115	11.148105	1.888540	-0.000223
1235	1.2278e+02	-4.5805	-14.658840	0.001054	10.540027	1.785529	-0.000211
1236	1.2288e+02	-4.6016	-14.848585	0.000953	9.526563	1.613843	-0.000191
1237	1.2298e+02	-4.6214	-15.082739	0.001176	11.756184	1.991551	-0.000235
1238	1.2308e+02	-4.6413	-15.248262	0.000831	8.310406	1.407821	-0.000166
1239	1.2318e+02	-4.6613	-15.458193	0.001054	10.540027	1.785529	-0.000211
1240	1.2328e+02	-4.6813	-15.716569	0.001297	12.972341	2.197574	-0.000260
1241	1.2338e+02	-4.7012	-15.946686	0.001155	11.553491	1.957214	-0.000231
1242	1.2348e+02	-4.7218	-16.144506	0.000993	9.931948	1.682518	-0.000199
1243	1.2358e+02	-4.7404	-16.386734	0.001216	12.161569	2.060226	-0.000243
1244	1.2368e+02	-4.7607	-16.632999	0.001236	12.364262	2.094563	-0.000248
1245	1.2378e+02	-4.7800	-16.786410	0.000770	7.702327	1.304810	-0.000154
1246	1.2388e+02	-4.8006	-17.060936	0.001378	13.783112	2.334922	-0.000276
1247	1.2398e+02	-4.8202	-17.254718	0.000973	9.729255	1.648180	-0.000195
1248	1.2408e+02	-4.8404	-17.488872	0.001176	11.756184	1.991551	-0.000235
1249	1.2418e+02	-4.8605	-17.694766	0.001034	10.337334	1.751192	-0.000207
1250	1.2428e+02	-4.8808	-17.884511	0.000953	9.526563	1.613843	-0.000191
1251	1.2438e+02	-4.9004	-18.126739	0.001216	12.161569	2.060226	-0.000243
1252	1.2447e+02	-4.9200	-18.324559	0.000993	9.931948	1.682518	-0.000199
1253	1.2457e+02	-4.9388	-18.546602	0.001115	11.148105	1.888540	-0.000223
1254	1.2467e+02	-4.9603	-18.800941	0.001277	12.769648	2.163237	-0.000256
1255	1.2477e+02	-4.9791	-19.018946	0.001095	10.945412	1.854203	-0.000219
1256	1.2487e+02	-4.9998	-19.257137	0.001196	11.958877	2.025889	-0.000239
1257	1.2497e+02	-5.0206	-19.458994	0.001013	10.134641	1.716855	-0.000203
1258	1.2507e+02	-5.0391	-19.656814	0.000993	9.931948	1.682518	-0.000199
1259	1.2517e+02	-5.0586	-19.927302	0.001358	13.580419	2.300585	-0.000272
1260	1.2527e+02	-5.0788	-20.096862	0.000851	8.513099	1.442158	-0.000170
1261	1.2537e+02	-5.0989	-20.347164	0.001257	12.566955	2.128900	-0.000252
1262	1.2547e+02	-5.1190	-20.557095	0.001054	10.540027	1.785529	-0.000211
1263	1.2557e+02	-5.1384	-20.754915	0.000993	9.931948	1.682518	-0.000199
1264	1.2567e+02	-5.1584	-21.013292	0.001297	12.972341	2.197574	-0.000260
1265	1.2577e+02	-5.1790	-21.251483	0.001196	11.958877	2.025889	-0.000239
1266	1.2587e+02	-5.1997	-21.457376	0.001034	10.337334	1.751192	-0.000207
1267	1.2597e+02	-5.2192	-21.663270	0.001034	10.337334	1.751192	-0.000207
1268	1.2607e+02	-5.2393	-21.925684	0.001318	13.175033	2.231911	-0.000264
1269	1.2617e+02	-5.2590	-22.131578	0.001034	10.337334	1.751192	-0.000207
1270	1.2627e+02	-5.2789	-22.365732	0.001176	11.756184	1.991551	-0.000235
1271	1.2636e+02	-5.2987	-22.571626	0.001034	10.337334	1.751192	-0.000207
1272	1.2646e+02	-5.3185	-22.793668	0.001115	11.148105	1.888540	-0.000223
1273	1.2656e+02	-5.3381	-23.003599	0.001054	10.540027	1.785529	-0.000211
1274	1.2666e+02	-5.3587	-23.257939	0.001277	12.769648	2.163237	-0.000256
1275	1.2676e+02	-5.3781	-23.492093	0.001176	11.756184	1.991551	-0.000235
1276	1.2686e+02	-5.3972	-23.734321	0.001216	12.161569	2.060226	-0.000243
1277	1.2696e+02	-5.4169	-23.956363	0.001115	11.148105	1.888540	-0.000223
1278	1.2706e+02	-5.4373	-24.162257	0.001034	10.337334	1.751192	-0.000207
1279	1.2716e+02	-5.4581	-24.412560	0.001257	12.566955	2.128900	-0.000252
1280	1.2726e+02	-5.4782	-24.626528	0.001074	10.742720	1.819866	-0.000215
1281	1.2736e+02	-5.4975	-24.860682	0.001176	11.756184	1.991551	-0.000235
1282	1.2746e+02	-5.5183	-25.102910	0.001216	12.161569	2.060226	-0.000243
1283	1.2756e+02	-5.5379	-25.353212	0.001257	12.566955	2.128900	-0.000252
1284	1.2766e+02	-5.5576	-25.591403	0.001196	11.958877	2.025889	-0.000239
1285	1.2776e+02	-5.5772	-25.805372	0.001074	10.742720	1.819866	-0.000215
1286	1.2786e+02	-5.5971	-26.047600	0.001216	12.161569	2.060226	-0.000243
1287	1.2796e+02	-5.6174	-26.285791	0.001196	11.958877	2.025889	-0.000239
1288	1.2806e+02	-5.6367	-26.528019	0.001216	12.161569	2.060226	-0.000243
1289	1.2816e+02	-5.6577	-26.741987	0.001074	10.742720	1.819866	-0.000215
1290	1.2826e+02	-5.6764	-26.964030	0.001115	11.148105	1.888540	-0.000223
1291	1.2835e+02	-5.6958	-27.214332	0.001257	12.566955	2.128900	-0.000252
1292	1.2845e+02	-5.7165	-27.456560	0.001216	12.161569	2.060226	-0.000243
1293	1.2855e+02	-5.7362	-27.670528	0.001074	10.742720	1.819866	-0.000215
1294	1.2865e+02	-5.7562	-27.908719	0.001196	11.958877	2.025889	-0.000239
1295	1.2875e+02	-5.7765	-28.179207	0.001358	13.580419	2.300585	-0.000272
1296	1.2885e+02	-5.7961	-28.417398	0.001196	11.958877	2.025889	-0.000239
1297	1.2895e+02	-5.8167	-28.643478	0.001135	11.350798	1.922877	-0.000227
1298	1.2905e+02	-5.8368	-28.889743	0.001236	12.364262	2.094563	-0.000248
1299	1.2915e+02	-5.8557	-29.168306	0.001399	13.985805	2.369259	-0.000280
1300	1.2925e+02	-5.8762	-29.382274	0.001074	10.742720	1.819866	-0.000215
1301	1.2935e+02	-5.8957	-29.644688	0.001318	13.175033	2.231911	-0.000264
1302	1.2945e+02	-5.9169	-29.886916	0.001216	12.161569	2.060226	-0.000243
1303	1.2955e+02	-5.9365	-30.133181	0.001236	12.364262	2.094563	-0.000248
1304	1.2965e+02	-5.9569	-30.407706	0.001378	13.783112	2.334922	-0.000276
1305	1.2975e+02	-5.9760	-30.637823	0.001155	11.553491	1.957214	-0.000231
1306	1.2985e+02	-5.9958	-30.847754	0.001054	10.540027	1.785529	-0.000211
1307	1.2995e+02	-6.0156	-31.114205	0.001338	13.377726	2.266248	-0.000268
1308	1.3005e+02	-6.0355	-31.368545	0.001277	12.769648	2.163237	-0.000256
1309	1.3015e+02	-6.0558	-31.634996	0.001338	13.377726	2.266248	-0.000268
1310	1.3025e+02	-6.0759	-31.865112	0.001155	11.553491	1.957214	-0.000231
1311	1.3034e+02	-6.0959	-32.111378	0.001236	12.364262	2.094563	-0.000248
1312	1.3044e+02	-6.1147	-32.398014	0.001439	14.391190	2.437934	-0.000288
1313	1.3054e+02	-6.1353	-32.648317	0.001257	12.566955	2.128900	-0.000252
1314	1.3064e+02	-6.1559	-32.882471	0.001176	11.756184	1.991551	-0.000235
1315	1.3074e+02	-6.1752	-33.112587	0.001155	11.553491	1.957214	-0.000231
1316	1.3084e+02	-6.1961	-33.338667	0.001135	11.350798	1.922877	-0.000227
1317	1.3094e+02	-6.2153	-33.657601	0.001601	16.012733	2.712630	-0.000321
1318	1.3104e+02	-6.2355	-33.936163	0.001399	13.985805	2.369259	-0.000280
1319	1.3114e+02	-6.2547	-34.117834	0.000912	9.121177	1.545169	-0.000183
1320	1.3124e+02	-6.2753	-34.424656	0.001540	15.404655	2.609619	-0.000308
1321	1.3134e+02	-6.2949	-34.727442	0.001520	15.201962	2.575282	-0.000304
1322	1.3144e+02	-6.3141	-34.953521	0.001135	11.350798	1.922877	-0.000227
1323	1.3154e+02	-6.3342	-35.219972	0.001338	13.377726	2.266248	-0.000268
1324	1.3164e+02	-6.3538	-35.502572	0.001419	14.188498	2.403597	-0.000284
1325	1.3174e+02	-6.3741	-35.752874	0.001257	12.566955	2.128900	-0.000252
1326	1.3184e+02	-6.3942	-36.023362	0.001358	13.580419	2.300585	-0.000272
1327	1.3194e+02	-6.4133	-36.245405	0.001115	11.148105	1.888540	-0.000223
1328	1.3204e+02	-6.4342	-36.552227	0.001540	15.404655	2.609619	-0.000308
1329	1.3214e+02	-6.4542	-36.810604	0.001297	12.972341	2.197574	-0.000260
1330	1.3224e+02	-6.4735	-37.085129	0.001378	13.783112	2.334922	-0.000276
1331	1.3234e+02	-6.4932	-37.343506	0.001297	12.972341	2.197574	-0.000260
1332	1.3243e+02	-6.5140	-37.613994	0.001358	13.580419	2.300585	-0.000272
1333	1.3253e+02	-6.5340	-37.884482	0.001358	13.580419	2.300585	-0.000272
1334	1.3263e+02	-6.5533	-38.183230	0.001500	14.999269	2.540945	-0.000300
1335	1.3273e+02	-6.5727	-38.417384	0.001176	11.756184	1.991551	-0.000235
1336	1.3283e+02	-6.5933	-38.732280	0.001581	15.810040	2.678293	-0.000316
1337	1.3293e+02	-6.6122	-39.002768	0.001358	13.580419	2.300585	-0.000272
1338	1.3303e+02	-6.6331	-39.269219	0.001338	13.377726	2.266248	-0.000268
1339	1.3313e+02	-6.6531	-39.539707	0.001358	13.580419	2.300585	-0.000272
1340	1.3323e+02	-6.6729	-39.846530	0.001540	15.404655	2.609619	-0.000308
1341	1.3333e+02	-6.6934	-40.112981	0.001338	13.377726	2.266248	-0.000268
1342	1.3343e+02	-6.7133	-40.359246	0.001236	12.364262	2.094563	-0.000248
1343	1.3353e+02	-6.7330	-40.662031	0.001520	15.201962	2.575282	-0.000304
1344	1.3363e+02	-6.7525	-40.985002	0.001622	16.215426	2.746967	-0.000325
1345	1.3373e+02	-6.7728	-41.215119	0.001155	11.553491	1.957214	-0.000231
1346	1.3383e+02	-6.7926	-41.517904	0.001520	15.201962	2.575282	-0.000304
1347	1.3393e+02	-6.8127	-41.836838	0.001601	16.012733	2.712630	-0.000321
1348	1.3403e+02	-6.8330	-42.103289	0.001338	13.377726	2.266248	-0.000268
1349	1.3413e+02	-6.8527	-42.426259	0.001622	16.215426	2.746967	-0.000325
1350	1.3423e+02	-6.8729	-42.688673	0.001318	13.175033	2.231911	-0.000264
1351	1.3432e+02	-6.8922	-43.003570	0.001581	15.810040	2.678293	-0.000316
1352	1.3442e+02	-6.9122	-43.253872	0.001257	12.566955	2.128900	-0.000252
1353	1.3452e+02	-6.9333	-43.576843	0.001622	16.215426	2.746967	-0.000325
1354	1.3462e+02	-6.9528	-43.855406	0.001399	13.985805	2.369259	-0.000280
1355	1.3472e+02	-6.9714	-44.150116	0.001480	14.796576	2.506608	-0.000296
1356	1.3482e+02	-6.9917	-44.444827	0.001480	14.796576	2.506608	-0.000296
1357	1.3492e+02	-7.0120	-44.739538	0.001480	14.796576	2.506608	-0.000296
1358	1.3502e+02	-7.0316	-45.082695	0.001723	17.228890	2.918653	-0.000345
1359	1.3512e+02	-7.0514	-45.365294	0.001419	14.188498	2.403597	-0.000284
1360	1.3522e+02	-7.0718	-45.680191	0.001581	15.810040	2.678293	-0.000316
1361	1.3532e+02	-7.0908	-45.987013	0.001540	15.404655	2.609619	-0.000308
1362	1.3542e+02	-7.1121	-46.334207	0.001743	17.431583	2.952990	-0.000349
1363	1.3552e+02	-7.1323	-46.628918	0.001480	14.796576	2.506608	-0.000296
1364	1.3562e+02	-7.1512	-46.911517	0.001419	14.188498	2.403597	-0.000284
1365	1.3572e+02	-7.1710	-47.214302	0.001520	15.201962	2.575282	-0.000304
1366	1.3582e+02	-7.1918	-47.521125	0.001540	15.404655	2.609619	-0.000308
1367	1.3592e+02	-7.2114	-47.860244	0.001703	17.026197	2.884316	-0.000341
1368	1.3602e+02	-7.2309	-48.150918	0.001459	14.593883	2.472271	-0.000292
1369	1.3612e+02	-7.2502	-48.465815	0.001581	15.810040	2.678293	-0.000316
1370	1.3622e+02	-7.2708	-48.760525	0.001480	14.796576	2.506608	-0.000296
1371	1.3631e+02	-7.2904	-49.099645	0.001703	17.026197	2.884316	-0.000341
1372	1.3641e+02	-7.3114	-49.434727	0.001682	16.823504	2.849979	-0.000337
1373	1.3651e+02	-7.3312	-49.733475	0.001500	14.999269	2.540945	-0.000300
1374	1.3661e+02	-7.3503	-50.088743	0.001784	17.836968	3.021664	-0.000357
1375	1.3671e+02	-7.3709	-50.395565	0.001540	15.404655	2.609619	-0.000308
1376	1.3681e+02	-7.3897	-50.694313	0.001500	14.999269	2.540945	-0.000300
1377	1.3691e+02	-7.4097	-51.037470	0.001723	17.228890	2.918653	-0.000345
1378	1.3701e+02	-7.4307	-51.384664	0.001743	17.431583	2.952990	-0.000349
1379	1.3711e+02	-7.4496	-51.695523	0.001561	15.607347	2.643956	-0.000312
1380	1.3721e+02	-7.4694	-52.046754	0.001763	17.634276	2.987327	-0.000353
1381	1.3731e+02	-7.4902	-52.329353	0.001419	14.188498	2.403597	-0.000284
1382	1.3741e+02	-7.5104	-52.720956	0.001966	19.661204	3.330698	-0.000394
1383	1.3751e+02	-7.5293	-53.015667	0.001480	14.796576	2.506608	-0.000296
1384	1.3761e+02	-7.5497	-53.342675	0.001642	16.418119	2.781305	-0.000329
1385	1.3771e+02	-7.5696	-53.714091	0.001865	18.647740	3.159013	-0.000373
1386	1.3781e+02	-7.5888	-54.053210	0.001703	17.026197	2.884316	-0.000341
1387	1.3791e+02	-7.6086	-54.372144	0.001601	16.012733	2.712630	-0.000321
1388	1.3801e+02	-7.6297	-54.715301	0.001723	17.228890	2.918653	-0.000345
1389	1.3811e+02	-7.6485	-55.050383	0.001682	16.823504	2.849979	-0.000337
1390	1.3821e+02	-7.6685	-55.417762	0.001845	18.445047	3.124676	-0.000369
1391	1.3831e+02	-7.6888	-55.748807	0.001662	16.620811	2.815642	-0.000333
1392	1.3840e+02	-7.7081	-56.136372	0.001946	19.458511	3.296361	-0.000390
1393	1.3850e+02	-7.7284	-56.479529	0.001723	17.228890	2.918653	-0.000345
1394	1.3860e+02	-7.7486	-56.782314	0.001520	15.201962	2.575282	-0.000304
1395	1.3870e+02	-7.7682	-57.157768	0.001885	18.850433	3.193350	-0.000377
1396	1.3880e+02	-7.7890	-57.492850	0.001682	16.823504	2.849979	-0.000337
1397	1.3890e+02	-7.8087	-57.872341	0.001905	19.053125	3.227687	-0.000381
1398	1.3900e+02	-7.8278	-58.223572	0.001763	17.634276	2.987327	-0.000353
1399	1.3910e+02	-7.8469	-58.603062	0.001905	19.053125	3.227687	-0.000381
1400	1.3920e+02	-7.8677	-58.954293	0.001763	17.634276	2.987327	-0.000353
1401	1.3930e+02	-7.8873	-59.325710	0.001865	18.647740	3.159013	-0.000373
1402	1.3940e+02	-7.9081	-59.680978	0.001784	17.836968	3.021664	-0.000357
1403	1.3950e+02	-7.9279	-60.036246	0.001784	17.836968	3.021664	-0.000357
1404	1.3960e+02	-7.9487	-60.407662	0.001865	18.647740	3.159013	-0.000373
1405	1.3970e+02	-7.9683	-60.746781	0.001703	17.026197	2.884316	-0.000341
1406	1.3980e+02	-7.9867	-61.122235	0.001885	18.850433	3.193350	-0.000377
1407	1.3990e+02	-8.0075	-61.465392	0.001723	17.228890	2.918653	-0.000345
1408	1.4000e+02	-8.0270	-61.913514	0.002250	22.498903	3.811417	-0.000450
1409	1.4010e+02	-8.0463	-62.280893	0.001845	18.445047	3.124676	-0.000369
1410	1.4020e+02	-8.0667	-62.668458	0.001946	19.458511	3.296361	-0.000390
1411	1.4029e+02	-8.0870	-63.064097	0.001986	19.863897	3.365035	-0.000398
1412	1.4039e+02	-8.1071	-63.415328	0.001763	17.634276	2.987327	-0.000353
1413	1.4049e+02	-8.1270	-63.774633	0.001804	18.039661	3.056001	-0.000361
1414	1.4059e+02	-8.1467	-64.190458	0.002088	20.877361	3.536721	-0.000418
1415	1.4069e+02	-8.1673	-64.553800	0.001824	18.242354	3.090338	-0.000365
1416	1.4079e+02	-8.1866	-64.965588	0.002067	20.674668	3.502384	-0.000414
1417	1.4089e+02	-8.2072	-65.349116	0.001926	19.255818	3.262024	-0.000385
1418	1.4099e+02	-8.2274	-65.688236	0.001703	17.026197	2.884316	-0.000341
1419	1.4109e+02	-8.2477	-66.140395	0.002270	22.701596	3.845754	-0.000454
1420	1.4119e+02	-8.2654	-66.515848	0.001885	18.850433	3.193350	-0.000377
1421	1.4129e+02	-8.2864	-66.911488	0.001986	19.863897	3.365035	-0.000398
1422	1.4139e+02	-8.3062	-67.319238	0.002047	20.471975	3.468046	-0.000410
1423	1.4149e+02	-8.3264	-67.731026	0.002067	20.674668	3.502384	-0.000414
1424	1.4159e+02	-8.3463	-68.110517	0.001905	19.053125	3.227687	-0.000381
1425	1.4169e+02	-8.3658	-68.502119	0.001966	19.661204	3.330698	-0.000394
1426	1.4179e+02	-8.3859	-68.938130	0.002189	21.890825	3.708406	-0.000438
1427	1.4189e+02	-8.4050	-69.345881	0.002047	20.471975	3.468046	-0.000410
1428	1.4199e+02	-8.4259	-69.709223	0.001824	18.242354	3.090338	-0.000365
1429	1.4209e+02	-8.4467	-70.177531	0.002351	23.512367	3.983103	-0.000471
1430	1.4219e+02	-8.4663	-70.589318	0.002067	20.674668	3.502384	-0.000414
1431	1.4228e+02	-8.4858	-70.980921	0.001966	19.661204	3.330698	-0.000394
1432	1.4238e+02	-8.5055	-71.400783	0.002108	21.080054	3.571058	-0.000422
1433	1.4248e+02	-8.5250	-71.836793	0.002189	21.890825	3.708406	-0.000438
1434	1.4258e+02	-8.5464	-72.236470	0.002007	20.066589	3.399372	-0.000402
1435	1.4268e+02	-8.5645	-72.668443	0.002169	21.688132	3.674069	-0.000434
1436	1.4278e+02	-8.5846	-73.035823	0.001845	18.445047	3.124676	-0.000369
1437	1.4288e+02	-8.6041	-73.548539	0.002574	25.741989	4.360811	-0.000515
1438	1.4298e+02	-8.6253	-73.928030	0.001905	19.053125	3.227687	-0.000381
1439	1.4308e+02	-8.6447	-74.360003	0.002169	21.688132	3.674069	-0.000434
1440	1.4318e+02	-8.6642	-74.824274	0.002331	23.309675	3.948766	-0.000467
1441	1.4328e+02	-8.6848	-75.240099	0.002088	20.877361	3.536721	-0.000418
1442	1.4338e+02	-8.7061	-75.643812	0.002027	20.269282	3.433709	-0.000406
1443	1.4348e+02	-8.7238	-76.083860	0.002209	22.093518	3.742743	-0.000442
1444	1.4358e+02	-8.7439	-76.548131	0.002331	23.309675	3.948766	-0.000467
1445	1.4368e+02	-8.7646	-76.988179	0.002209	22.093518	3.742743	-0.000442
1446	1.4378e+02	-8.7840	-77.420152	0.002169	21.688132	3.674069	-0.000434
1447	1.4388e+02	-8.8036	-77.876348	0.002290	22.904289	3.880092	-0.000458
1448	1.4398e+02	-8.8242	-78.372916	0.002493	24.931217	4.223463	-0.000499
1449	1.4408e+02	-8.8438	-78.784704	0.002067	20.674668	3.502384	-0.000414
1450	1.4418e+02	-8.8638	-79.244937	0.002311	23.106982	3.914429	-0.000463
1451	1.4428e+02	-8.8838	-79.705171	0.002311	23.106982	3.914429	-0.000463
1452	1.4437e+02	-8.9038	-80.161367	0.002290	22.904289	3.880092	-0.000458
1453	1.4447e+02	-8.9240	-80.621601	0.002311	23.106982	3.914429	-0.000463
1454	1.4457e+02	-8.9429	-81.093946	0.002372	23.715060	4.017440	-0.000475
1455	1.4467e+02	-8.9635	-81.538031	0.002230	22.296211	3.777080	-0.000446
1456	1.4477e+02	-8.9835	-82.030561	0.002473	24.728524	4.189125	-0.000495
1457	1.4487e+02	-9.0027	-82.482720	0.002270	22.701596	3.845754	-0.000454
1458	1.4497e+02	-9.0231	-82.975251	0.002473	24.728524	4.189125	-0.000495
1459	1.4507e+02	-9.0436	-83.455670	0.002412	24.120446	4.086114	-0.000483
1460	1.4517e+02	-9.0630	-83.948201	0.002473	24.728524	4.189125	-0.000495
1461	1.4527e+02	-9.0820	-84.376137	0.002149	21.485439	3.639732	-0.000430
1462	1.4537e+02	-9.1031	-84.880779	0.002534	25.336603	4.292137	-0.000507
1463	1.4547e+02	-9.1231	-85.373309	0.002473	24.728524	4.189125	-0.000495
1464	1.4557e+02	-9.1431	-85.886026	0.002574	25.741989	4.360811	-0.000515
1465	1.4567e+02	-9.1634	-86.354333	0.002351	23.512367	3.983103	-0.000471
1466	1.4577e+02	-9.1826	-86.883198	0.002655	26.552760	4.498159	-0.000532
1467	1.4587e+02	-9.2026	-87.343432	0.002311	23.106982	3.914429	-0.000463
1468	1.4597e+02	-9.2231	-87.831925	0.002453	24.525832	4.154788	-0.000491
1469	1.4607e+02	-9.2419	-88.380976	0.002757	27.566224	4.669845	-0.000552
1470	1.4617e+02	-9.2616	-88.865432	0.002432	24.323139	4.120451	-0.000487
1471	1.4626e+02	-9.2834	-89.382185	0.002594	25.944681	4.395148	-0.000519
1472	1.4636e+02	-9.3021	-89.915087	0.002676	26.755453	4.532496	-0.000536
1473	1.4646e+02	-9.3208	-90.435878	0.002615	26.147374	4.429485	-0.000523
1474	1.4656e+02	-9.3414	-90.920334	0.002432	24.323139	4.120451	-0.000487
1475	1.4666e+02	-9.3624	-91.420939	0.002513	25.133910	4.257800	-0.000503
1476	1.4676e+02	-9.3819	-91.957878	0.002696	26.958145	4.566833	-0.000540
1477	1.4686e+02	-9.4009	-92.466557	0.002554	25.539296	4.326474	-0.000511
1478	1.4696e+02	-9.4218	-93.043867	0.002899	28.985074	4.910204	-0.000580
1479	1.4706e+02	-9.4421	-93.584844	0.002716	27.160838	4.601171	-0.000544
1480	1.4716e+02	-9.4614	-94.089486	0.002534	25.336603	4.292137	-0.000507
1481	1.4726e+02	-9.4815	-94.650647	0.002817	28.174302	4.772856	-0.000564
1482	1.4736e+02	-9.5016	-95.167401	0.002594	25.944681	4.395148	-0.000519
1483	1.4746e+02	-9.5210	-95.688191	0.002615	26.147374	4.429485	-0.000523
1484	1.4756e+02	-9.5412	-96.257427	0.002858	28.579688	4.841530	-0.000572
1485	1.4766e+02	-9.5605	-96.818589	0.002817	28.174302	4.772856	-0.000564
1486	1.4776e+02	-9.5807	-97.412048	0.002980	29.795845	5.047553	-0.000596
1487	1.4786e+02	-9.6002	-97.940913	0.002655	26.552760	4.498159	-0.000532
1488	1.4796e+02	-9.6202	-98.518223	0.002899	28.985074	4.910204	-0.000580
1489	1.4806e+02	-9.6407	-98.990568	0.002372	23.715060	4.017440	-0.000475
1490	1.4816e+02	-9.6611	-99.660733	0.003365	33.647009	5.699958	-0.000674
1491	1.4825e+02	-9.6808	-100.234006	0.002878	28.782381	4.875867	-0.000576
1492	1.4835e+02	-9.7016	-100.774982	0.002716	27.160838	4.601171	-0.000544
1493	1.4845e+02	-9.7206	-101.352293	0.002899	28.985074	4.910204	-0.000580
1494	1.4855e+02	-9.7409	-101.941715	0.002959	29.593152	5.013216	-0.000592
1495	1.4865e+02	-9.7603	-102.498839	0.002797	27.971610	4.738519	-0.000560
1496	1.4875e+02	-9.7809	-103.124595	0.003142	31.417388	5.322250	-0.000629
1497	1.4885e+02	-9.8004	-103.697869	0.002878	28.782381	4.875867	-0.000576
1498	1.4895e+02	-9.8199	-104.327662	0.003162	31.620080	5.356587	-0.000633
1499	1.4905e+02	-9.8390	-104.892861	0.002838	28.376995	4.807193	-0.000568
1500	1.4915e+02	-9.8586	-105.514580	0.003121	31.214695	5.287912	-0.000625
1501	1.4925e+02	-9.8792	-106.156484	0.003223	32.228159	5.459598	-0.000645
1502	1.4935e+02	-9.9005	-106.774166	0.003101	31.012002	5.253575	-0.000621
1503	1.4945e+02	-9.9195	-107.367625	0.002980	29.795845	5.047553	-0.000596
1504	1.4955e+02	-9.9399	-108.001455	0.003182	31.822773	5.390924	-0.000637
1505	1.4965e+02	-9.9605	-108.623174	0.003121	31.214695	5.287912	-0.000625
1506	1.4975e+02	-9.9793	-109.252967	0.003162	31.620080	5.356587	-0.000633
1507	1.4985e+02	-9.9998	-109.878723	0.003142	31.417388	5.322250	-0.000629
1508	1.4995e+02	-9.9792	-110.294548	-0.002088	-20.877361	-3.536721	-0.000418
1509	1.5005e+02	-9.9593	-110.589259	-0.001480	-14.796576	-2.506608	-0.000296
1510	1.5015e+02	-9.9389	-110.912230	-0.001622	-16.215426	-2.746967	-0.000325
1511	1.5025e+02	-9.9197	-111.239238	-0.001642	-16.418119	-2.781305	-0.000329
1512	1.5034e+02	-9.9001	-111.453206	-0.001074	-10.742720	-1.819866	-0.000215
1513	1.5044e+02	-9.8810	-111.800400	-0.001743	-17.431583	-2.952990	-0.000349
1514	1.5054e+02	-9.8605	-112.062814	-0.001318	-13.175033	-2.231911	-0.000264
1515	1.5064e+02	-9.8404	-112.224299	-0.000811	-8.107713	-1.373484	-0.000162
1516	1.5074e+02	-9.8196	-112.494787	-0.001358	-13.580419	-2.300585	-0.000272
1517	1.5084e+02	-9.8002	-112.648198	-0.000770	-7.702327	-1.304810	-0.000154
1518	1.5094e+02	-9.7800	-112.902538	-0.001277	-12.769648	-2.163237	-0.000256
1519	1.5104e+02	-9.7595	-113.116506	-0.001074	-10.742720	-1.819866	-0.000215
1520	1.5114e+02	-9.7408	-113.233583	-0.000588	-5.878092	-0.995776	-0.000118
1521	1.5124e+02	-9.7198	-113.395069	-0.000811	-8.107713	-1.373484	-0.000162
1522	1.5134e+02	-9.7009	-113.580777	-0.000932	-9.323870	-1.579506	-0.000187
1523	1.5144e+02	-9.6808	-113.730151	-0.000750	-7.499634	-1.270472	-0.000150
1524	1.5154e+02	-9.6619	-113.879525	-0.000750	-7.499634	-1.270472	-0.000150
1525	1.5164e+02	-9.6416	-114.004676	-0.000628	-6.283478	-1.064450	-0.000126
1526	1.5174e+02	-9.6210	-114.141939	-0.000689	-6.891556	-1.167461	-0.000138
1527	1.5184e+02	-9.6002	-114.242867	-0.000507	-5.067321	-0.858427	-0.000101
1528	1.5194e+02	-9.5816	-114.372055	-0.000649	-6.486170	-1.098787	-0.000130
1529	1.5204e+02	-9.5611	-114.424538	-0.000264	-2.635007	-0.446382	-0.000053
1530	1.5214e+02	-9.5406	-114.561801	-0.000689	-6.891556	-1.167461	-0.000138
1531	1.5224e+02	-9.5210	-114.674841	-0.000568	-5.675399	-0.961439	-0.000114
1532	1.5233e+02	-9.5019	-114.767695	-0.000466	-4.661935	-0.789753	-0.000093
1533	1.5243e+02	-9.4812	-114.820178	-0.000264	-2.635007	-0.446382	-0.000053
1534	1.5253e+02	-9.4616	-114.913032	-0.000466	-4.661935	-0.789753	-0.000093
1535	1.5263e+02	-9.4415	-114.989737	-0.000385	-3.851164	-0.652405	-0.000077
1536	1.5273e+02	-9.4223	-115.050294	-0.000304	-3.040392	-0.515056	-0.000061
1537	1.5283e+02	-9.4022	-115.074517	-0.000122	-1.216157	-0.206023	-0.000024
1538	1.5293e+02	-9.3819	-115.167371	-0.000466	-4.661935	-0.789753	-0.000093
1539	1.5303e+02	-9.3623	-115.207743	-0.000203	-2.026928	-0.343371	-0.000041
1540	1.5313e+02	-9.3417	-115.288485	-0.000405	-4.053856	-0.686742	-0.000081
1541	1.5323e+02	-9.3222	-115.300597	-0.000061	-0.608078	-0.103011	-0.000012
1542	1.5333e+02	-9.3019	-115.316745	-0.000081	-0.810771	-0.137348	-0.000016
1543	1.5343e+02	-9.2830	-115.373265	-0.000284	-2.837700	-0.480719	-0.000057
1544	1.5353e+02	-9.2612	-115.373265	0.000000	0.000000	0.000000	0.000000
1545	1.5363e+02	-9.2419	-115.425748	-0.000264	-2.635007	-0.446382	-0.000053
1546	1.5373e+02	-9.2227	-115.454008	-0.000142	-1.418850	-0.240360	-0.000028
1547	1.5383e+02	-9.2027	-115.466119	-0.000061	-0.608078	-0.103011	-0.000012
1548	1.5393e+02	-9.1824	-115.474194	-0.000041	-0.405386	-0.068674	-0.000008
1549	1.5403e+02	-9.1620	-115.526676	-0.000264	-2.635007	-0.446382	-0.000053
1550	1.5413e+02	-9.1428	-115.486305	0.000203	2.026928	0.343371	0.000041
1551	1.5422e+02	-9.1223	-115.514565	-0.000142	-1.418850	-0.240360	-0.000028
1552	1.5432e+02	-9.1025	-115.526676	-0.000061	-0.608078	-0.103011	-0.000012
1553	1.5442e+02	-9.0840	-115.522639	0.000020	0.202693	0.034337	0.000004
1554	1.5452e+02	-9.0630	-115.554936	-0.000162	-1.621543	-0.274697	-0.000032
1555	1.5462e+02	-9.0430	-115.518602	0.000182	1.824235	0.309034	0.000037
1556	1.5472e+02	-9.0234	-115.518602	0.000000	0.000000	0.000000	0.000000
1557	1.5482e+02	-9.0029	-115.486305	0.000162	1.621543	0.274697	0.000032
1558	1.5492e+02	-8.9830	-115.498416	-0.000061	-0.608078	-0.103011	-0.000012
1559	1.5502e+02	-8.9635	-115.466119	0.000162	1.621543	0.274697	0.000032
1560	1.5512e+02	-8.9426	-115.417674	0.000243	2.432314	0.412045	0.000049
1561	1.5522e+02	-8.9233	-115.437859	-0.000101	-1.013464	-0.171685	-0.000020
1562	1.5532e+02	-8.9046	-115.413636	0.000122	1.216157	0.206023	0.000024
1563	1.5542e+02	-8.8831	-115.369228	0.000223	2.229621	0.377708	0.000045
1564	1.5552e+02	-8.8651	-115.345005	0.000122	1.216157	0.206023	0.000024
1565	1.5562e+02	-8.8438	-115.300597	0.000223	2.229621	0.377708	0.000045
1566	1.5572e+02	-8.8237	-115.272337	0.000142	1.418850	0.240360	0.000028
1567	1.5582e+02	-8.8040	-115.244077	0.000142	1.418850	0.240360	0.000028
1568	1.5592e+02	-8.7856	-115.227928	0.000081	0.810771	0.137348	0.000016
1569	1.5602e+02	-8.7646	-115.155260	0.000365	3.648471	0.618068	0.000073
1570	1.5612e+02	-8.7446	-115.114888	0.000203	2.026928	0.343371	0.000041
1571	1.5622e+02	-8.7236	-115.094703	0.000101	1.013464	0.171685	0.000020
1572	1.5631e+02	-8.7047	-115.013960	0.000405	4.053856	0.686742	0.000081
1573	1.5641e+02	-8.6852	-114.965514	0.000243	2.432314	0.412045	0.000049
1574	1.5651e+02	-8.6659	-114.957440	0.000041	0.405386	0.068674	0.000008
1575	1.5661e+02	-8.6450	-114.908995	0.000243	2.432314	0.412045	0.000049
1576	1.5671e+02	-8.6254	-114.820178	0.000446	4.459242	0.755416	0.000089
1577	1.5681e+02	-8.6047	-114.775769	0.000223	2.229621	0.377708	0.000045
1578	1.5691e+02	-8.5855	-114.755583	0.000101	1.013464	0.171685	0.000020
1579	1.5701e+02	-8.5648	-114.618321	0.000689	6.891556	1.167461	0.000138
1580	1.5711e+02	-8.5467	-114.557764	0.000304	3.040392	0.515056	0.000061
1581	1.5721e+02	-8.5245	-114.533541	0.000122	1.216157	0.206023	0.000024
1582	1.5731e+02	-8.5062	-114.456835	0.000385	3.851164	0.652405	0.000077
1583	1.5741e+02	-8.4866	-114.424538	0.000162	1.621543	0.274697	0.000032
1584	1.5751e+02	-8.4673	-114.327647	0.000486	4.864628	0.824090	0.000097
1585	1.5761e+02	-8.4457	-114.254979	0.000365	3.648471	0.618068	0.000073
1586	1.5771e+02	-8.4253	-114.206533	0.000243	2.432314	0.412045	0.000049
1587	1.5781e+02	-8.4058	-114.117716	0.000446	4.459242	0.755416	0.000089
1588	1.5791e+02	-8.3859	-114.089456	0.000142	1.418850	0.240360	0.000028
1589	1.5801e+02	-8.3656	-114.012750	0.000385	3.851164	0.652405	0.000077
1590	1.5811e+02	-8.3459	-113.936045	0.000385	3.851164	0.652405	0.000077
1591	1.5821e+02	-8.3261	-113.831079	0.000527	5.270013	0.892764	0.000105
1592	1.5830e+02	-8.3076	-113.782634	0.000243	2.432314	0.412045	0.000049
1593	1.5840e+02	-8.2864	-113.697854	0.000426	4.256549	0.721079	0.000085
1594	1.5850e+02	-8.2664	-113.625185	0.000365	3.648471	0.618068	0.000073
1595	1.5860e+02	-8.2460	-113.540405	0.000426	4.256549	0.721079	0.000085
1596	1.5870e+02	-8.2257	-113.467737	0.000365	3.648471	0.618068	0.000073
1597	1.5880e+02	-8.2068	-113.399106	0.000345	3.445778	0.583731	0.000069
1598	1.5890e+02	-8.1866	-113.298177	0.000507	5.067321	0.858427	0.000101
1599	1.5900e+02	-8.1664	-113.229546	0.000345	3.445778	0.583731	0.000069
1600	1.5910e+02	-8.1467	-113.088246	0.000709	7.094249	1.201798	0.000142
1601	1.5920e+02	-8.1270	-113.023652	0.000324	3.243085	0.549393	0.000065
1602	1.5930e+02	-8.1064	-112.886390	0.000689	6.891556	1.167461	0.000138
1603	1.5940e+02	-8.0871	-112.850055	0.000182	1.824235	0.309034	0.000037
1604	1.5950e+02	-8.0670	-112.741053	0.000547	5.472706	0.927102	0.000110
1605	1.5960e+02	-8.0473	-112.684533	0.000284	2.837700	0.480719	0.000057
1606	1.5970e+02	-8.0278	-112.567456	0.000588	5.878092	0.995776	0.000118
1607	1.5980e+02	-8.0088	-112.454416	0.000568	5.675399	0.961439	0.000114
1608	1.5990e+02	-7.9875	-112.377710	0.000385	3.851164	0.652405	0.000077
1609	1.6000e+02	-7.9675	-112.276782	0.000507	5.067321	0.858427	0.000101
1610	1.6010e+02	-7.9488	-112.187965	0.000446	4.459242	0.755416	0.000089
1611	1.6019e+02	-7.9269	-112.091074	0.000486	4.864628	0.824090	0.000097
1612	1.6029e+02	-7.9076	-111.978034	0.000568	5.675399	0.961439	0.000114
1613	1.6039e+02	-7.8873	-111.893254	0.000426	4.256549	0.721079	0.000085
1614	1.6049e+02	-7.8674	-111.796363	0.000486	4.864628	0.824090	0.000097
1615	1.6059e+02	-7.8473	-111.711583	0.000426	4.256549	0.721079	0.000085
1616	1.6069e+02	-7.8276	-111.598543	0.000568	5.675399	0.961439	0.000114
1617	1.6079e+02	-7.8087	-111.481466	0.000588	5.878092	0.995776	0.000118
1618	1.6089e+02	-7.7879	-111.416872	0.000324	3.243085	0.549393	0.000065
1619	1.6099e+02	-7.7689	-111.263461	0.000770	7.702327	1.304810	0.000154
1620	1.6109e+02	-7.7485	-111.150421	0.000568	5.675399	0.961439	0.000114
1621	1.6119e+02	-7.7290	-111.069678	0.000405	4.053856	0.686742	0.000081
1622	1.6129e+02	-7.7092	-110.968750	0.000507	5.067321	0.858427	0.000101
1623	1.6139e+02	-7.6868	-110.879933	0.000446	4.459242	0.755416	0.000089
1624	1.6149e+02	-7.6683	-110.722485	0.000791	7.905020	1.339147	0.000158
1625	1.6159e+02	-7.6491	-110.613482	0.000547	5.472706	0.927102	0.000110
1626	1.6169e+02	-7.6291	-110.516591	0.000486	4.864628	0.824090	0.000097
1627	1.6179e+02	-7.6079	-110.403551	0.000568	5.675399	0.961439	0.000114
1628	1.6189e+02	-7.5893	-110.298585	0.000527	5.270013	0.892764	0.000105
1629	1.6199e+02	-7.5693	-110.189583	0.000547	5.472706	0.927102	0.000110
1630	1.6209e+02	-7.5497	-110.104803	0.000426	4.256549	0.721079	0.000085
1631	1.6219e+02	-7.5301	-109.959466	0.000730	7.296942	1.236135	0.000146
1632	1.6228e+02	-7.5104	-109.870649	0.000446	4.459242	0.755416	0.000089
1633	1.6238e+02	-7.4899	-109.745498	0.000628	6.283478	1.064450	0.000126
1634	1.6248e+02	-7.4707	-109.628421	0.000588	5.878092	0.995776	0.000118
1635	1.6258e+02	-7.4501	-109.479047	0.000750	7.499634	1.270472	0.000150
1636	1.6268e+02	-7.4307	-109.398304	0.000405	4.053856	0.686742	0.000081
1637	1.6278e+02	-7.4110	-109.289302	0.000547	5.472706	0.927102	0.000110
1638	1.6288e+02	-7.3904	-109.168187	0.000608	6.080785	1.030113	0.000122
1639	1.6298e+02	-7.3703	-109.047073	0.000608	6.080785	1.030113	0.000122
1640	1.6308e+02	-7.3503	-108.905774	0.000709	7.094249	1.201798	0.000142
1641	1.6318e+02	-7.3309	-108.820994	0.000426	4.256549	0.721079	0.000085
1642	1.6328e+02	-7.3108	-108.659508	0.000811	8.107713	1.373484	0.000162
1643	1.6338e+02	-7.2905	-108.558580	0.000507	5.067321	0.858427	0.000101
1644	1.6348e+02	-7.2707	-108.445540	0.000568	5.675399	0.961439	0.000114
1645	1.6358e+02	-7.2510	-108.328463	0.000588	5.878092	0.995776	0.000118
1646	1.6368e+02	-7.2307	-108.175052	0.000770	7.702327	1.304810	0.000154
1647	1.6378e+02	-7.2104	-108.098347	0.000385	3.851164	0.652405	0.000077
1648	1.6388e+02	-7.1911	-107.961084	0.000689	6.891556	1.167461	0.000138
1649	1.6398e+02	-7.1711	-107.819784	0.000709	7.094249	1.201798	0.000142
1650	1.6408e+02	-7.1517	-107.670410	0.000750	7.499634	1.270472	0.000150
1651	1.6418e+02	-7.1310	-107.549296	0.000608	6.080785	1.030113	0.000122
1652	1.6427e+02	-7.1117	-107.468553	0.000405	4.053856	0.686742	0.000081
1653	1.6437e+02	-7.0909	-107.298994	0.000851	8.513099	1.442158	0.000170
1654	1.6447e+02	-7.0718	-107.210177	0.000446	4.459242	0.755416	0.000089
1655	1.6457e+02	-7.0518	-107.064840	0.000730	7.296942	1.236135	0.000146
1656	1.6467e+02	-7.0320	-106.919503	0.000730	7.296942	1.236135	0.000146
1657	1.6477e+02	-7.0117	-106.798389	0.000608	6.080785	1.030113	0.000122
1658	1.6487e+02	-6.9918	-106.697460	0.000507	5.067321	0.858427	0.000101
1659	1.6497e+02	-6.9714	-106.580383	0.000588	5.878092	0.995776	0.000118
1660	1.6507e+02	-6.9526	-106.398712	0.000912	9.121177	1.545169	0.000183
1661	1.6517e+02	-6.9316	-106.309895	0.000446	4.459242	0.755416	0.000089
1662	1.6527e+02	-6.9136	-106.176670	0.000669	6.688863	1.133124	0.000134
1663	1.6537e+02	-6.8921	-106.035370	0.000709	7.094249	1.201798	0.000142
1664	1.6547e+02	-6.8716	-105.910219	0.000628	6.283478	1.064450	0.000126
1665	1.6557e+02	-6.8527	-105.793142	0.000588	5.878092	0.995776	0.000118
1666	1.6567e+02	-6.8327	-105.688176	0.000527	5.270013	0.892764	0.000105
1667	1.6577e+02	-6.8132	-105.546877	0.000709	7.094249	1.201798	0.000142
1668	1.6587e+02	-6.7928	-105.361168	0.000932	9.323870	1.579506	0.000187
1669	1.6597e+02	-6.7725	-105.244092	0.000588	5.878092	0.995776	0.000118
1670	1.6607e+02	-6.7535	-105.118940	0.000628	6.283478	1.064450	0.000126
1671	1.6616e+02	-6.7330	-104.989752	0.000649	6.486170	1.098787	0.000130
1672	1.6626e+02	-6.7139	-104.876712	0.000568	5.675399	0.961439	0.000114
1673	1.6636e+02	-6.6927	-104.767710	0.000547	5.472706	0.927102	0.000110
1674	1.6646e+02	-6.6737	-104.590076	0.000892	8.918484	1.510832	0.000179
1675	1.6656e+02	-6.6528	-104.481073	0.000547	5.472706	0.927102	0.000110
1676	1.6666e+02	-6.6339	-104.311513	0.000851	8.513099	1.442158	0.000170
1677	1.6676e+02	-6.6122	-104.198473	0.000568	5.675399	0.961439	0.000114
1678	1.6686e+02	-6.5927	-104.065248	0.000669	6.688863	1.133124	0.000134
1679	1.6696e+02	-6.5736	-103.915874	0.000750	7.499634	1.270472	0.000150
1680	1.6706e+02	-6.5529	-103.766500	0.000750	7.499634	1.270472	0.000150
1681	1.6716e+02	-6.5337	-103.653460	0.000568	5.675399	0.961439	0.000114
1682	1.6726e+02	-6.5140	-103.508123	0.000730	7.296942	1.236135	0.000146
1683	1.6736e+02	-6.4938	-103.411232	0.000486	4.864628	0.824090	0.000097
1684	1.6746e+02	-6.4743	-103.253784	0.000791	7.905020	1.339147	0.000158
1685	1.6756e+02	-6.4545	-103.072113	0.000912	9.121177	1.545169	0.000183
1686	1.6766e+02	-6.4349	-102.987333	0.000426	4.256549	0.721079	0.000085
1687	1.6776e+02	-6.4137	-102.809699	0.000892	8.918484	1.510832	0.000179
1688	1.6786e+02	-6.3940	-102.712807	0.000486	4.864628	0.824090	0.000097
1689	1.6796e+02	-6.3742	-102.587656	0.000628	6.283478	1.064450	0.000126
1690	1.6806e+02	-6.3539	-102.442319	0.000730	7.296942	1.236135	0.000146
1691	1.6816e+02	-6.3345	-102.288908	0.000770	7.702327	1.304810	0.000154
1692	1.6825e+02	-6.3142	-102.151646	0.000689	6.891556	1.167461	0.000138
1693	1.6835e+02	-6.2945	-102.038606	0.000568	5.675399	0.961439	0.000114
1694	1.6845e+02	-6.2750	-101.897306	0.000709	7.094249	1.201798	0.000142
1695	1.6855e+02	-6.2543	-101.727746	0.000851	8.513099	1.442158	0.000170
1696	1.6865e+02	-6.2360	-101.610669	0.000588	5.878092	0.995776	0.000118
1697	1.6875e+02	-6.2146	-101.428998	0.000912	9.121177	1.545169	0.000183
1698	1.6885e+02	-6.1944	-101.319996	0.000547	5.472706	0.927102	0.000110
1699	1.6895e+02	-6.1749	-101.186770	0.000669	6.688863	1.133124	0.000134
1700	1.6905e+02	-6.1555	-101.029322	0.000791	7.905020	1.339147	0.000158
1701	1.6915e+02	-6.1346	-100.920319	0.000547	5.472706	0.927102	0.000110
1702	1.6925e+02	-6.1150	-100.779019	0.000709	7.094249	1.201798	0.000142
1703	1.6935e+02	-6.0955	-100.621571	0.000791	7.905020	1.339147	0.000158
1704	1.6945e+02	-6.0762	-100.504494	0.000588	5.878092	0.995776	0.000118
1705	1.6955e+02	-6.0556	-100.379343	0.000628	6.283478	1.064450	0.000126
1706	1.6965e+02	-6.0351	-100.221895	0.000791	7.905020	1.339147	0.000158
1707	1.6975e+02	-6.0153	-100.040224	0.000912	9.121177	1.545169	0.000183
1708	1.6985e+02	-5.9958	-99.919110	0.000608	6.080785	1.030113	0.000122
1709	1.6995e+02	-5.9753	-99.757624	0.000811	8.107713	1.373484	0.000162
1710	1.7005e+02	-5.9565	-99.624399	0.000669	6.688863	1.133124	0.000134
1711	1.7015e+02	-5.9355	-99.515396	0.000547	5.472706	0.927102	0.000110
1712	1.7024e+02	-5.9163	-99.333725	0.000912	9.121177	1.545169	0.000183
1713	1.7034e+02	-5.8963	-99.208574	0.000628	6.283478	1.064450	0.000126
1714	1.7044e+02	-5.8766	-99.067274	0.000709	7.094249	1.201798	0.000142
1715	1.7054e+02	-5.8562	-98.869454	0.000993	9.931948	1.682518	0.000199
1716	1.7064e+02	-5.8367	-98.764489	0.000527	5.270013	0.892764	0.000105
1717	1.7074e+02	-5.8167	-98.603003	0.000811	8.107713	1.373484	0.000162
1718	1.7084e+02	-5.7962	-98.481889	0.000608	6.080785	1.030113	0.000122
1719	1.7094e+02	-5.7765	-98.320404	0.000811	8.107713	1.373484	0.000162
1720	1.7104e+02	-5.7568	-98.195253	0.000628	6.283478	1.064450	0.000126
1721	1.7114e+02	-5.7370	-98.033767	0.000811	8.107713	1.373484	0.000162
1722	1.7124e+02	-5.7166	-97.904579	0.000649	6.486170	1.098787	0.000130
1723	1.7134e+02	-5.6969	-97.775390	0.000649	6.486170	1.098787	0.000130
1724	1.7144e+02	-5.6776	-97.638128	0.000689	6.891556	1.167461	0.000138
1725	1.7154e+02	-5.6567	-97.480680	0.000791	7.905020	1.339147	0.000158
1726	1.7164e+02	-5.6378	-97.299008	0.000912	9.121177	1.545169	0.000183
1727	1.7174e+02	-5.6166	-97.169820	0.000649	6.486170	1.098787	0.000130
1728	1.7184e+02	-5.5965	-97.024483	0.000730	7.296942	1.236135	0.000146
1729	1.7194e+02	-5.5763	-96.883183	0.000709	7.094249	1.201798	0.000142
1730	1.7204e+02	-5.5566	-96.741884	0.000709	7.094249	1.201798	0.000142
1731	1.7213e+02	-5.5380	-96.560213	0.000912	9.121177	1.545169	0.000183
1732	1.7223e+02	-5.5173	-96.439099	0.000608	6.080785	1.030113	0.000122
1733	1.7233e+02	-5.4977	-96.277613	0.000811	8.107713	1.373484	0.000162
1734	1.7243e+02	-5.4776	-96.120165	0.000791	7.905020	1.339147	0.000158
1735	1.7253e+02	-5.4570	-95.966754	0.000770	7.702327	1.304810	0.000154
1736	1.7263e+02	-5.4376	-95.837565	0.000649	6.486170	1.098787	0.000130
1737	1.7273e+02	-5.4171	-95.659931	0.000892	8.918484	1.510832	0.000179
1738	1.7283e+02	-5.3983	-95.550929	0.000547	5.472706	0.927102	0.000110
1739	1.7293e+02	-5.3787	-95.365220	0.000932	9.323870	1.579506	0.000187
1740	1.7303e+02	-5.3589	-95.231995	0.000669	6.688863	1.133124	0.000134
1741	1.7313e+02	-5.3390	-95.094732	0.000689	6.891556	1.167461	0.000138
1742	1.7323e+02	-5.3183	-94.961507	0.000669	6.688863	1.133124	0.000134
1743	1.7333e+02	-5.2985	-94.828281	0.000669	6.688863	1.133124	0.000134
1744	1.7343e+02	-5.2783	-94.638536	0.000953	9.526563	1.613843	0.000191
1745	1.7353e+02	-5.2586	-94.473013	0.000831	8.310406	1.407821	0.000166
1746	1.7363e+02	-5.2396	-94.303454	0.000851	8.513099	1.442158	0.000170
1747	1.7373e+02	-5.2188	-94.170228	0.000669	6.688863	1.133124	0.000134
1748	1.7383e+02	-5.1988	-94.032966	0.000689	6.891556	1.167461	0.000138
1749	1.7393e+02	-5.1785	-93.851295	0.000912	9.121177	1.545169	0.000183
1750	1.7403e+02	-5.1585	-93.726143	0.000628	6.283478	1.064450	0.000126
1751	1.7413e+02	-5.1389	-93.588881	0.000689	6.891556	1.167461	0.000138
1752	1.7422e+02	-5.1180	-93.403172	0.000932	9.323870	1.579506	0.000187
1753	1.7432e+02	-5.0989	-93.286095	0.000588	5.878092	0.995776	0.000118
1754	1.7442e+02	-5.0789	-93.055979	0.001155	11.553491	1.957214	0.000231
1755	1.7452e+02	-5.0595	-92.946976	0.000547	5.472706	0.927102	0.000110
1756	1.7462e+02	-5.0391	-92.761268	0.000932	9.323870	1.579506	0.000187
1757	1.7472e+02	-5.0191	-92.603820	0.000791	7.905020	1.339147	0.000158
1758	1.7482e+02	-4.9999	-92.498854	0.000527	5.270013	0.892764	0.000105
1759	1.7492e+02	-4.9785	-92.268737	0.001155	11.553491	1.957214	0.000231
1760	1.7502e+02	-4.9606	-92.147623	0.000608	6.080785	1.030113	0.000122
1761	1.7512e+02	-4.9403	-91.986138	0.000811	8.107713	1.373484	0.000162
1762	1.7522e+02	-4.9204	-91.865024	0.000608	6.080785	1.030113	0.000122
1763	1.7532e+02	-4.8996	-91.691427	0.000872	8.715791	1.476495	0.000174
1764	1.7542e+02	-4.8796	-91.501682	0.000953	9.526563	1.613843	0.000191
1765	1.7552e+02	-4.8596	-91.332122	0.000851	8.513099	1.442158	0.000170
1766	1.7562e+02	-4.8405	-91.182748	0.000750	7.499634	1.270472	0.000150
1767	1.7572e+02	-4.8205	-91.029337	0.000770	7.702327	1.304810	0.000154
1768	1.7582e+02	-4.8004	-90.811331	0.001095	10.945412	1.854203	0.000219
1769	1.7592e+02	-4.7801	-90.718477	0.000466	4.661935	0.789753	0.000093
1770	1.7602e+02	-4.7602	-90.532769	0.000932	9.323870	1.579506	0.000187
1771	1.7612e+02	-4.7415	-90.399543	0.000669	6.688863	1.133124	0.000134
1772	1.7621e+02	-4.7206	-90.225947	0.000872	8.715791	1.476495	0.000174
1773	1.7631e+02	-4.7012	-90.072535	0.000770	7.702327	1.304810	0.000154
1774	1.7641e+02	-4.6800	-89.890864	0.000912	9.121177	1.545169	0.000183
1775	1.7651e+02	-4.6613	-89.709193	0.000912	9.121177	1.545169	0.000183
1776	1.7661e+02	-4.6419	-89.559819	0.000750	7.499634	1.270472	0.000150
1777	1.7671e+02	-4.6202	-89.366037	0.000973	9.729255	1.648180	0.000195
1778	1.7681e+02	-4.6020	-89.212626	0.000770	7.702327	1.304810	0.000154
1779	1.7691e+02	-4.5819	-89.067289	0.000730	7.296942	1.236135	0.000146
1780	1.7701e+02	-4.5613	-88.877543	0.000953	9.526563	1.613843	0.000191
1781	1.7711e+02	-4.5418	-88.732206	0.000730	7.296942	1.236135	0.000146
1782	1.7721e+02	-4.5212	-88.526312	0.001034	10.337334	1.751192	0.000207
1783	1.7731e+02	-4.5010	-88.409236	0.000588	5.878092	0.995776	0.000118
1784	1.7741e+02	-4.4817	-88.235639	0.000872	8.715791	1.476495	0.000174
1785	1.7751e+02	-4.4623	-88.045893	0.000953	9.526563	1.613843	0.000191
1786	1.7761e+02	-4.4415	-87.904594	0.000709	7.094249	1.201798	0.000142
1787	1.7771e+02	-4.4217	-87.702737	0.001013	10.134641	1.716855	0.000203
1788	1.7781e+02	-4.4012	-87.569511	0.000669	6.688863	1.133124	0.000134
1789	1.7791e+02	-4.3819	-87.359580	0.001054	10.540027	1.785529	0.000211
1790	1.7801e+02	-4.3625	-87.177909	0.000912	9.121177	1.545169	0.000183
1791	1.7810e+02	-4.3429	-87.064869	0.000568	5.675399	0.961439	0.000114
1792	1.7820e+02	-4.3224	-86.846864	0.001095	10.945412	1.854203	0.000219
1793	1.7830e+02	-4.3027	-86.673267	0.000872	8.715791	1.476495	0.000174
1794	1.7840e+02	-4.2823	-86.536005	0.000689	6.891556	1.167461	0.000138
1795	1.7850e+02	-4.2622	-86.354333	0.000912	9.121177	1.545169	0.000183
1796	1.7860e+02	-4.2426	-86.196885	0.000791	7.905020	1.339147	0.000158
1797	1.7870e+02	-4.2225	-85.995028	0.001013	10.134641	1.716855	0.000203
1798	1.7880e+02	-4.2029	-85.801246	0.000973	9.729255	1.648180	0.000195
1799	1.7890e+02	-4.1824	-85.623612	0.000892	8.918484	1.510832	0.000179
1800	1.7900e+02	-4.1631	-85.514609	0.000547	5.472706	0.927102	0.000110
1801	1.7910e+02	-4.1426	-85.316790	0.000993	9.931948	1.682518	0.000199
1802	1.7920e+02	-4.1217	-85.094747	0.001115	11.148105	1.888540	0.000223
1803	1.7930e+02	-4.1019	-84.949410	0.000730	7.296942	1.236135	0.000146
1804	1.7940e+02	-4.0835	-84.795999	0.000770	7.702327	1.304810	0.000154
1805	1.7950e+02	-4.0628	-84.586068	0.001054	10.540027	1.785529	0.000211
1806	1.7960e+02	-4.0433	-84.456880	0.000649	6.486170	1.098787	0.000130
1807	1.7970e+02	-4.0228	-84.255023	0.001013	10.134641	1.716855	0.000203
1808	1.7980e+02	-4.0037	-84.061240	0.000973	9.729255	1.648180	0.000195
1809	1.7990e+02	-3.9832	-83.899755	0.000811	8.107713	1.373484	0.000162
1810	1.8000e+02	-3.9645	-83.726158	0.000872	8.715791	1.476495	0.000174
1811	1.8009e+02	-3.9435	-83.508153	0.001095	10.945412	1.854203	0.000219
1812	1.8019e+02	-3.9233	-83.370890	0.000689	6.891556	1.167461	0.000138
1813	1.8029e+02	-3.9030	-83.177108	0.000973	9.729255	1.648180	0.000195
1814	1.8039e+02	-3.8837	-83.003511	0.000872	8.715791	1.476495	0.000174
1815	1.8049e+02	-3.8641	-82.817803	0.000932	9.323870	1.579506	0.000187
1816	1.8059e+02	-3.8436	-82.644206	0.000872	8.715791	1.476495	0.000174
1817	1.8069e+02	-3.8242	-82.462535	0.000912	9.121177	1.545169	0.000183
1818	1.8079e+02	-3.8043	-82.317198	0.000730	7.296942	1.236135	0.000146
1819	1.8089e+02	-3.7845	-82.127452	0.000953	9.526563	1.613843	0.000191
1820	1.8099e+02	-3.7651	-81.913484	0.001074	10.742720	1.819866	0.000215
1821	1.8109e+02	-3.7442	-81.760073	0.000770	7.702327	1.304810	0.000154
1822	1.8119e+02	-3.7248	-81.582439	0.000892	8.918484	1.510832	0.000179
1823	1.8129e+02	-3.7047	-81.396731	0.000932	9.323870	1.579506	0.000187
1824	1.8139e+02	-3.6853	-81.235245	0.000811	8.107713	1.373484	0.000162
1825	1.8149e+02	-3.6646	-81.033389	0.001013	10.134641	1.716855	0.000203
1826	1.8159e+02	-3.6449	-80.879977	0.000770	7.702327	1.304810	0.000154
1827	1.8169e+02	-3.6257	-80.629675	0.001257	12.566955	2.128900	0.000252
1828	1.8179e+02	-3.6052	-80.468190	0.000811	8.107713	1.373484	0.000162
1829	1.8189e+02	-3.5858	-80.326890	0.000709	7.094249	1.201798	0.000142
1830	1.8199e+02	-3.5656	-80.149256	0.000892	8.918484	1.510832	0.000179
1831	1.8209e+02	-3.5451	-79.959510	0.000953	9.526563	1.613843	0.000191
1832	1.8218e+02	-3.5245	-79.793988	0.000831	8.310406	1.407821	0.000166
1833	1.8228e+02	-3.5052	-79.559834	0.001176	11.756184	1.991551	0.000235
1834	1.8238e+02	-3.4854	-79.382200	0.000892	8.918484	1.510832	0.000179
1835	1.8248e+02	-3.4657	-79.196492	0.000932	9.323870	1.579506	0.000187
1836	1.8258e+02	-3.4467	-79.043081	0.000770	7.702327	1.304810	0.000154
1837	1.8268e+02	-3.4251	-78.837187	0.001034	10.337334	1.751192	0.000207
1838	1.8278e+02	-3.4060	-78.647441	0.000953	9.526563	1.613843	0.000191
1839	1.8288e+02	-3.3865	-78.465770	0.000912	9.121177	1.545169	0.000183
1840	1.8298e+02	-3.3652	-78.284099	0.000912	9.121177	1.545169	0.000183
1841	1.8308e+02	-3.3449	-78.090317	0.000973	9.729255	1.648180	0.000195
1842	1.8318e+02	-3.3257	-77.940943	0.000750	7.499634	1.270472	0.000150
1843	1.8328e+02	-3.3060	-77.686603	0.001277	12.769648	2.163237	0.000256
1844	1.8338e+02	-3.2870	-77.545303	0.000709	7.094249	1.201798	0.000142
1845	1.8348e+02	-3.2657	-77.335372	0.001054	10.540027	1.785529	0.000211
1846	1.8358e+02	-3.2467	-77.145627	0.000953	9.526563	1.613843	0.000191
1847	1.8368e+02	-3.2271	-76.935696	0.001054	10.540027	1.785529	0.000211
1848	1.8378e+02	-3.2068	-76.802470	0.000669	6.688863	1.133124	0.000134
1849	1.8388e+02	-3.1870	-76.604651	0.000993	9.931948	1.682518	0.000199
1850	1.8398e+02	-3.1673	-76.402794	0.001013	10.134641	1.716855	0.000203
1851	1.8407e+02	-3.1471	-76.217086	0.000932	9.323870	1.579506	0.000187
1852	1.8417e+02	-3.1269	-76.031377	0.000932	9.323870	1.579506	0.000187
1853	1.8427e+02	-3.1069	-75.865855	0.000831	8.310406	1.407821	0.000166
1854	1.8437e+02	-3.0862	-75.700332	0.000831	8.310406	1.407821	0.000166
1855	1.8447e+02	-3.0673	-75.482327	0.001095	10.945412	1.854203	0.000219
1856	1.8457e+02	-3.0466	-75.316804	0.000831	8.310406	1.407821	0.000166
1857	1.8467e+02	-3.0264	-75.114948	0.001013	10.134641	1.716855	0.000203
1858	1.8477e+02	-3.0083	-74.921165	0.000973	9.729255	1.648180	0.000195
1859	1.8487e+02	-2.9871	-74.747568	0.000872	8.715791	1.476495	0.000174
1860	1.8497e+02	-2.9676	-74.561860	0.000932	9.323870	1.579506	0.000187
1861	1.8507e+02	-2.9463	-74.372115	0.000953	9.526563	1.613843	0.000191
1862	1.8517e+02	-2.9281	-74.170258	0.001013	10.134641	1.716855	0.000203
1863	1.8527e+02	-2.9082	-74.004735	0.000831	8.310406	1.407821	0.000166
1864	1.8537e+02	-2.8870	-73.814990	0.000953	9.526563	1.613843	0.000191
1865	1.8547e+02	-2.8680	-73.625244	0.000953	9.526563	1.613843	0.000191
1866	1.8557e+02	-2.8470	-73.403202	0.001115	11.148105	1.888540	0.000223
1867	1.8567e+02	-2.8271	-73.233642	0.000851	8.513099	1.442158	0.000170
1868	1.8577e+02	-2.8082	-73.072157	0.000811	8.107713	1.373484	0.000162
1869	1.8587e+02	-2.7882	-72.850114	0.001115	11.148105	1.888540	0.000223
1870	1.8597e+02	-2.7687	-72.720926	0.000649	6.486170	1.098787	0.000130
1871	1.8606e+02	-2.7479	-72.510995	0.001054	10.540027	1.785529	0.000211
1872	1.8616e+02	-2.7287	-72.309138	0.001013	10.134641	1.716855	0.000203
1873	1.8626e+02	-2.7093	-72.091133	0.001095	10.945412	1.854203	0.000219
1874	1.8636e+02	-2.6880	-71.937722	0.000770	7.702327	1.304810	0.000154
1875	1.8646e+02	-2.6686	-71.711642	0.001135	11.350798	1.922877	0.000227
1876	1.8656e+02	-2.6486	-71.517860	0.000973	9.729255	1.648180	0.000195
1877	1.8666e+02	-2.6292	-71.384634	0.000669	6.688863	1.133124	0.000134
1878	1.8676e+02	-2.6084	-71.150480	0.001176	11.756184	1.991551	0.000235
1879	1.8686e+02	-2.5896	-70.964772	0.000932	9.323870	1.579506	0.000187
1880	1.8696e+02	-2.5692	-70.807324	0.000791	7.905020	1.339147	0.000158
1881	1.8706e+02	-2.5484	-70.565096	0.001216	12.161569	2.060226	0.000243
1882	1.8716e+02	-2.5295	-70.395536	0.000851	8.513099	1.442158	0.000170
1883	1.8726e+02	-2.5093	-70.209828	0.000932	9.323870	1.579506	0.000187
1884	1.8736e+02	-2.4899	-69.995859	0.001074	10.742720	1.819866	0.000215
1885	1.8746e+02	-2.4705	-69.822263	0.000872	8.715791	1.476495	0.000174
1886	1.8756e+02	-2.4498	-69.620406	0.001013	10.134641	1.716855	0.000203
1887	1.8766e+02	-2.4303	-69.450846	0.000851	8.513099	1.442158	0.000170
1888	1.8776e+02	-2.4100	-69.265138	0.000932	9.323870	1.579506	0.000187
1889	1.8786e+02	-2.3912	-69.043095	0.001115	11.148105	1.888540	0.000223
1890	1.8796e+02	-2.3709	-68.849313	0.000973	9.729255	1.648180	0.000195
1891	1.8806e+02	-2.3508	-68.695902	0.000770	7.702327	1.304810	0.000154
1892	1.8815e+02	-2.3302	-68.490008	0.001034	10.337334	1.751192	0.000207
1893	1.8825e+02	-2.3097	-68.280077	0.001054	10.540027	1.785529	0.000211
1894	1.8835e+02	-2.2900	-68.086294	0.000973	9.729255	1.648180	0.000195
1895	1.8845e+02	-2.2704	-67.912697	0.000872	8.715791	1.476495	0.000174
1896	1.8855e+02	-2.2504	-67.690655	0.001115	11.148105	1.888540	0.000223
1897	1.8865e+02	-2.2296	-67.484761	0.001034	10.337334	1.751192	0.000207
1898	1.8875e+02	-2.2116	-67.323276	0.000811	8.107713	1.373484	0.000162
1899	1.8885e+02	-2.1910	-67.149679	0.000872	8.715791	1.476495	0.000174
1900	1.8895e+02	-2.1713	-66.923599	0.001135	11.350798	1.922877	0.000227
1901	1.8905e+02	-2.1504	-66.758077	0.000831	8.310406	1.407821	0.000166
1902	1.8915e+02	-2.1310	-66.564294	0.000973	9.729255	1.648180	0.000195
1903	1.8925e+02	-2.1114	-66.330140	0.001176	11.756184	1.991551	0.000235
1904	1.8935e+02	-2.0904	-66.196915	0.000669	6.688863	1.133124	0.000134
1905	1.8945e+02	-2.0710	-65.978909	0.001095	10.945412	1.854203	0.000219
1906	1.8955e+02	-2.0511	-65.785127	0.000973	9.729255	1.648180	0.000195
1907	1.8965e+02	-2.0312	-65.607493	0.000892	8.918484	1.510832	0.000179
1908	1.8975e+02	-2.0113	-65.353153	0.001277	12.769648	2.163237	0.000256
1909	1.8985e+02	-1.9915	-65.155334	0.000993	9.931948	1.682518	0.000199
1910	1.8995e+02	-1.9718	-64.997885	0.000791	7.905020	1.339147	0.000158
1911	1.9004e+02	-1.9522	-64.808140	0.000953	9.526563	1.613843	0.000191
1912	1.9014e+02	-1.9307	-64.602246	0.001034	10.337334	1.751192	0.000207
1913	1.9024e+02	-1.9110	-64.432686	0.000851	8.513099	1.442158	0.000170
1914	1.9034e+02	-1.8921	-64.226792	0.001034	10.337334	1.751192	0.000207
1915	1.9044e+02	-1.8725	-63.980527	0.001236	12.364262	2.094563	0.000248
1916	1.9054e+02	-1.8520	-63.835190	0.000730	7.296942	1.236135	0.000146
1917	1.9064e+02	-1.8317	-63.609111	0.001135	11.350798	1.922877	0.000227
1918	1.9074e+02	-1.8117	-63.439551	0.000851	8.513099	1.442158	0.000170
1919	1.9084e+02	-1.7917	-63.205397	0.001176	11.756184	1.991551	0.000235
1920	1.9094e+02	-1.7722	-63.035837	0.000851	8.513099	1.442158	0.000170
1921	1.9104e+02	-1.7522	-62.793609	0.001216	12.161569	2.060226	0.000243
1922	1.9114e+02	-1.7324	-62.595790	0.000993	9.931948	1.682518	0.000199
1923	1.9124e+02	-1.7120	-62.410081	0.000932	9.323870	1.579506	0.000187
1924	1.9134e+02	-1.6927	-62.248596	0.000811	8.107713	1.373484	0.000162
1925	1.9144e+02	-1.6720	-62.038665	0.001054	10.540027	1.785529	0.000211
1926	1.9154e+02	-1.6523	-61.865068	0.000872	8.715791	1.476495	0.000174
1927	1.9164e+02	-1.6331	-61.614766	0.001257	12.566955	2.128900	0.000252
1928	1.9174e+02	-1.6129	-61.437132	0.000892	8.918484	1.510832	0.000179
1929	1.9184e+02	-1.5939	-61.198941	0.001196	11.958877	2.025889	0.000239
1930	1.9194e+02	-1.5743	-61.005158	0.000973	9.729255	1.648180	0.000195
1931	1.9203e+02	-1.5530	-60.831561	0.000872	8.715791	1.476495	0.000174
1932	1.9213e+02	-1.5340	-60.637779	0.000973	9.729255	1.648180	0.000195
1933	1.9223e+02	-1.5129	-60.391514	0.001236	12.364262	2.094563	0.000248
1934	1.9233e+02	-1.4938	-60.189657	0.001013	10.134641	1.716855	0.000203
1935	1.9243e+02	-1.4729	-59.967614	0.001115	11.148105	1.888540	0.000223
1936	1.9253e+02	-1.4534	-59.822277	0.000730	7.296942	1.236135	0.000146
1937	1.9263e+02	-1.4333	-59.608309	0.001074	10.742720	1.819866	0.000215
1938	1.9273e+02	-1.4137	-59.353970	0.001277	12.769648	2.163237	0.000256
1939	1.9283e+02	-1.3935	-59.192484	0.000811	8.107713	1.373484	0.000162
1940	1.9293e+02	-1.3736	-58.990627	0.001013	10.134641	1.716855	0.000203
1941	1.9303e+02	-1.3535	-58.768585	0.001115	11.148105	1.888540	0.000223
1942	1.9313e+02	-1.3334	-58.586914	0.000912	9.121177	1.545169	0.000183
1943	1.9323e+02	-1.3137	-58.393131	0.000973	9.729255	1.648180	0.000195
1944	1.9333e+02	-1.2936	-58.134755	0.001297	12.972341	2.197574	0.000260
1945	1.9343e+02	-1.2743	-57.916749	0.001095	10.945412	1.854203	0.000219
1946	1.9353e+02	-1.2550	-57.727004	0.000953	9.526563	1.613843	0.000191
1947	1.9363e+02	-1.2347	-57.557444	0.000851	8.513099	1.442158	0.000170
1948	1.9373e+02	-1.2148	-57.311179	0.001236	12.364262	2.094563	0.000248
1949	1.9383e+02	-1.1938	-57.081062	0.001155	11.553491	1.957214	0.000231
1950	1.9393e+02	-1.1746	-56.907465	0.000872	8.715791	1.476495	0.000174
1951	1.9403e+02	-1.1547	-56.705609	0.001013	10.134641	1.716855	0.000203
1952	1.9412e+02	-1.1340	-56.499715	0.001034	10.337334	1.751192	0.000207
1953	1.9422e+02	-1.1153	-56.297858	0.001013	10.134641	1.716855	0.000203
1954	1.9432e+02	-1.0957	-56.083890	0.001074	10.742720	1.819866	0.000215
1955	1.9442e+02	-1.0756	-55.861847	0.001115	11.148105	1.888540	0.000223
1956	1.9452e+02	-1.0550	-55.704399	0.000791	7.905020	1.339147	0.000158
1957	1.9462e+02	-1.0359	-55.462171	0.001216	12.161569	2.060226	0.000243
1958	1.9472e+02	-1.0152	-55.260314	0.001013	10.134641	1.716855	0.000203
1959	1.9482e+02	-0.9959	-54.985789	0.001378	13.783112	2.334922	0.000276
1960	1.9492e+02	-0.9754	-54.820266	0.000831	8.310406	1.407821	0.000166
1961	1.9502e+02	-0.9557	-54.602261	0.001095	10.945412	1.854203	0.000219
1962	1.9512e+02	-0.9359	-54.416553	0.000932	9.323870	1.579506	0.000187
1963	1.9522e+02	-0.9158	-54.166250	0.001257	12.566955	2.128900	0.000252
1964	1.9532e+02	-0.8953	-53.996690	0.000851	8.513099	1.442158	0.000170
1965	1.9542e+02	-0.8765	-53.758499	0.001196	11.958877	2.025889	0.000239
1966	1.9552e+02	-0.8559	-53.564717	0.000973	9.729255	1.648180	0.000195
1967	1.9562e+02	-0.8359	-53.379009	0.000932	9.323870	1.579506	0.000187
1968	1.9572e+02	-0.8156	-53.177152	0.001013	10.134641	1.716855	0.000203
1969	1.9582e+02	-0.7956	-52.942998	0.001176	11.756184	1.991551	0.000235
1970	1.9592e+02	-0.7765	-52.724993	0.001095	10.945412	1.854203	0.000219
1971	1.9601e+02	-0.7572	-52.502950	0.001115	11.148105	1.888540	0.000223
1972	1.9611e+02	-0.7365	-52.297056	0.001034	10.337334	1.751192	0.000207
1973	1.9621e+02	-0.7175	-52.095200	0.001013	10.134641	1.716855	0.000203
1974	1.9631e+02	-0.6970	-51.861046	0.001176	11.756184	1.991551	0.000235
1975	1.9641e+02	-0.6764	-51.647077	0.001074	10.742720	1.819866	0.000215
1976	1.9651e+02	-0.6564	-51.445221	0.001013	10.134641	1.716855	0.000203
1977	1.9661e+02	-0.6371	-51.239327	0.001034	10.337334	1.751192	0.000207
1978	1.9671e+02	-0.6168	-51.001136	0.001196	11.958877	2.025889	0.000239
1979	1.9681e+02	-0.5961	-50.787168	0.001074	10.742720	1.819866	0.000215
1980	1.9691e+02	-0.5769	-50.617608	0.000851	8.513099	1.442158	0.000170
1981	1.9701e+02	-0.5569	-50.363268	0.001277	12.769648	2.163237	0.000256
1982	1.9711e+02	-0.5363	-50.157374	0.001034	10.337334	1.751192	0.000207
1983	1.9721e+02	-0.5170	-49.927258	0.001155	11.553491	1.957214	0.000231
1984	1.9731e+02	-0.4967	-49.709252	0.001095	10.945412	1.854203	0.000219
1985	1.9741e+02	-0.4768	-49.523544	0.000932	9.323870	1.579506	0.000187
1986	1.9751e+02	-0.4580	-49.285353	0.001196	11.958877	2.025889	0.000239
1987	1.9761e+02	-0.4379	-49.111756	0.000872	8.715791	1.476495	0.000174
1988	1.9771e+02	-0.4169	-48.857417	0.001277	12.769648	2.163237	0.000256
1989	1.9781e+02	-0.3979	-48.655560	0.001013	10.134641	1.716855	0.000203
1990	1.9791e+02	-0.3770	-48.421406	0.001176	11.756184	1.991551	0.000235
1991	1.9800e+02	-0.3577	-48.239735	0.000912	9.121177	1.545169	0.000183
1992	1.9810e+02	-0.3382	-48.033841	0.001034	10.337334	1.751192	0.000207
1993	1.9820e+02	-0.3174	-47.783539	0.001257	12.566955	2.128900	0.000252
1994	1.9830e+02	-0.2971	-47.605905	0.000892	8.918484	1.510832	0.000179
1995	1.9840e+02	-0.2776	-47.371751	0.001176	11.756184	1.991551	0.000235
1996	1.9850e+02	-0.2579	-47.133560	0.001196	11.958877	2.025889	0.000239
1997	1.9860e+02	-0.2383	-46.939777	0.000973	9.729255	1.648180	0.000195
1998	1.9870e+02	-0.2176	-46.685438	0.001277	12.769648	2.163237	0.000256
1999	1.9880e+02	-0.1984	-46.523952	0.000811	8.107713	1.373484	0.000162
2000	1.9890e+02	-0.1785	-46.289798	0.001176	11.756184	1.991551	0.000235
2001	1.9900e+02	-0.1585	-46.096016	0.000973	9.729255	1.648180	0.000195
2002	1.9910e+02	-0.1385	-45.833602	0.001318	13.175033	2.231911	0.000264
2003	1.9920e+02	-0.1187	-45.623671	0.001054	10.540027	1.785529	0.000211
2004	1.9930e+02	-0.0984	-45.417777	0.001034	10.337334	1.751192	0.000207
2005	1.9940e+02	-0.0775	-45.207846	0.001054	10.540027	1.785529	0.000211
2006	1.9950e+02	-0.0583	-44.989841	0.001095	10.945412	1.854203	0.000219
2007	1.9960e+02	-0.0386	-44.775872	0.001074	10.742720	1.819866	0.000215
2008	1.9970e+02	-0.0186	-44.565941	0.001054	10.540027	1.785529	0.000211
2009	1.9980e+02	-0.0003	-44.356010	0.001054	10.540027	1.785529	0.000211

Smooth data before PMax, +/-Pr and +/-Vc Calc.

PMax (uC/cm2):	8.91e+01
Pr (uC/cm2):	9.54e+00
-Pr (uC/cm2):	-7.09e+01
PLoss (uC/cm2):	-7.09e+01
-Vc:	-8.60e-01
C (Max-Eff) (nF):	8.91e-01
K (Eff):	1.51e+03
Vert. (+/-Pr) Shift (uC/cm2):	-3.07e+01
Offset (uC/cm2):	-2.64e+01

A (Loop Area - uC/cm2·Volts):	-2.13e-01



Hysteresis Version: 5.48.1 - Radiant Technologies, Inc., 1999 - 9/12/24

