»»»»»»»»»»»»»»»»»»»»»»»»»»»»»»»»»»»» Hysteresis ««««««««««««««««««««««««««««««««««««
»»»  Executed Version:	5.48.1
»»»  Vision Version:	5.48.4 (R)
»»»  Vision Compiled:	9/18/24
»»»  Driver Version:	5.47.0
»»»  Windows Version:	Windows 8 or 8.1
»»»  Processor Information:	x86 (AMD or Intel) - 32 Processors
»»»  Tester Name:	PMF21124-494 (100V)
»»»  Tester S/N:	PMF21124-494
»»»  Internal Amp Type:	100V RevK 270k
»»»  Internal Amp S/N:	iAB2-596/K     
»»»  Execution Count:	1
»»»»»»»»»»»»»»»»»»»»»»»»»»»»»»»»»»»»»»»»»»««««««««««««««««««««««««««««««««««««««««««

Stored:	7/9/2025 - 15:55:21
Configured:	07/09/25 02:06:30 PM
Executed:	07/09/25 03:54:57 PM

»»»»»»»»»»»»»»»»»»»»»»»»»»»»»»»»»»» Sample Info ««««««««««««««««««««««««««««««««««««
Sample Name:	
Lot Name:	
Wafer Name:	
Die Row/Column:	0/0
Capacitor Number:	0
Sample Area (cm2):	1.00e-04
Sample Thickness (microns):	1.50e-01

Amplifier:	Internal

»»»»»»»»»»»»»»»»»»»»»»»»»»»»»»»»»»» Tester Info «««««««««««««««««««««««««««««««««««
Tester Name:	PMF21124-494 (100V)
Tester Serial Number:	PMF21124-494
Return Signal Amp. Level:	0.19 [Index: 3]

»»»»»»»»»»»»»»»»»»»»»»»»»»»»»»»» Hysteresis Info ««««««««««««««««««««««««««««««««««
Task Name:	Hyst-900
Volts:	10.00
Field:	666.67 (kV/cm)
DCBias:	0.00
DCField:	0.00 (kV/cm)
Hysteresis Period (ms):	1.00e+00
Preset:	Enabled
Preset Delay (ms):	1.00e+03
Profile:	Standard Bipolar

»»»»»»»»»»»»»»»»»»»»»»»»»»»»»»»»»»»»»» Data «««««««««««««««««««««««««««««««««««««««
Points:	2001

Valid Data

Point	Time (ms)	Drive Voltage	Measured Polarization (uC/cm2)	Capacitance (uF)	Normalized Capacitance (uF/cm2)	Dielectric Constant	Instantaneous Current (mA)
   1	0.0000e+00	-0.0003	3.966552	0.000626	6.260509	1.060559	0.025005
   2	5.0000e-04	0.0099	4.091579	0.000626	6.260509	1.060559	0.025005
   3	1.0000e-03	0.0272	4.192406	0.000505	5.048798	0.855290	0.020165
   4	1.5000e-03	0.0471	4.321465	0.000646	6.462461	1.094771	0.025812
   5	2.0000e-03	0.0668	4.571517	0.001252	12.521019	2.121118	0.050010
   6	2.5000e-03	0.0880	4.708643	0.000687	6.866365	1.163194	0.027425
   7	3.0000e-03	0.1077	4.874000	0.000828	8.280028	1.402675	0.033071
   8	3.5000e-03	0.1278	5.051456	0.000889	8.885884	1.505310	0.035491
   9	4.0000e-03	0.1476	5.232945	0.000909	9.087836	1.539521	0.036298
  10	4.5000e-03	0.1672	5.434600	0.001010	10.097596	1.710579	0.040331
  11	5.0000e-03	0.1873	5.583825	0.000747	7.472221	1.265828	0.029845
  12	5.5000e-03	0.2078	5.773381	0.000949	9.491740	1.607944	0.037911
  13	6.0000e-03	0.2273	5.906473	0.000666	6.664413	1.128982	0.026618
  14	6.5000e-03	0.2471	6.047631	0.000707	7.068317	1.197405	0.028232
  15	7.0000e-03	0.2668	6.281551	0.001171	11.713211	1.984272	0.046784
  16	7.5000e-03	0.2879	6.467074	0.000929	9.289788	1.573733	0.037105
  17	8.0000e-03	0.3079	6.628398	0.000808	8.078077	1.368463	0.032265
  18	8.5000e-03	0.3279	6.866350	0.001192	11.915163	2.018483	0.047591
  19	9.0000e-03	0.3466	6.938946	0.000364	3.635134	0.615808	0.014519
  20	9.5000e-03	0.3667	7.172866	0.001171	11.713211	1.984272	0.046784
  21	1.0000e-02	0.3877	7.366455	0.000969	9.693692	1.642156	0.038718
  22	1.0500e-02	0.4070	7.527779	0.000808	8.078077	1.368463	0.032265
  23	1.1000e-02	0.4279	7.697169	0.000848	8.481980	1.436886	0.033878
  24	1.1500e-02	0.4475	7.882691	0.000929	9.289788	1.573733	0.037105
  25	1.2000e-02	0.4677	8.088379	0.001030	10.299548	1.744791	0.041138
  26	1.2500e-02	0.4881	8.237604	0.000747	7.472221	1.265828	0.029845
  27	1.3000e-02	0.5074	8.406994	0.000848	8.481980	1.436886	0.033878
  28	1.3500e-02	0.5267	8.632848	0.001131	11.309307	1.915848	0.045171
  29	1.4000e-02	0.5471	8.778039	0.000727	7.270269	1.231617	0.029038
  30	1.4500e-02	0.5680	8.903065	0.000626	6.260509	1.060559	0.025005
  31	1.5000e-02	0.5880	9.112786	0.001050	10.501500	1.779002	0.041944
  32	1.5500e-02	0.6072	9.298309	0.000929	9.289788	1.573733	0.037105
  33	1.6000e-02	0.6281	9.508030	0.001050	10.501500	1.779002	0.041944
  34	1.6500e-02	0.6480	9.661288	0.000767	7.674173	1.300040	0.030652
  35	1.7000e-02	0.6667	9.830678	0.000848	8.481980	1.436886	0.033878
  36	1.7500e-02	0.6871	10.076697	0.001232	12.319067	2.086906	0.049204
  37	1.8000e-02	0.7072	10.213822	0.000687	6.866365	1.163194	0.027425
  38	1.8500e-02	0.7275	10.391279	0.000889	8.885884	1.505310	0.035491
  39	1.9000e-02	0.7475	10.580834	0.000949	9.491740	1.607944	0.037911
  40	1.9500e-02	0.7673	10.806688	0.001131	11.309307	1.915848	0.045171
  41	2.0000e-02	0.7875	10.915581	0.000545	5.452702	0.923713	0.021779
  42	2.0500e-02	0.8069	11.153534	0.001192	11.915163	2.018483	0.047591
  43	2.1000e-02	0.8269	11.314858	0.000808	8.078077	1.368463	0.032265
  44	2.1500e-02	0.8481	11.435851	0.000606	6.058557	1.026347	0.024199
  45	2.2000e-02	0.8678	11.673804	0.001192	11.915163	2.018483	0.047591
  46	2.2500e-02	0.8875	11.875459	0.001010	10.097596	1.710579	0.040331
  47	2.3000e-02	0.9082	12.024683	0.000747	7.472221	1.265828	0.029845
  48	2.3500e-02	0.9274	12.169875	0.000727	7.270269	1.231617	0.029038
  49	2.4000e-02	0.9481	12.411861	0.001212	12.117115	2.052695	0.048397
  50	2.4500e-02	0.9674	12.520755	0.000545	5.452702	0.923713	0.021779
  51	2.5000e-02	0.9882	12.718376	0.000990	9.895644	1.676367	0.039524
  52	2.5500e-02	1.0083	12.863568	0.000727	7.270269	1.231617	0.029038
  53	2.6000e-02	1.0275	13.145885	0.001414	14.136634	2.394811	0.056463
  54	2.6500e-02	1.0465	13.303176	0.000788	7.876125	1.334252	0.031458
  55	2.7000e-02	1.0672	13.492731	0.000949	9.491740	1.607944	0.037911
  56	2.7500e-02	1.0877	13.633890	0.000707	7.068317	1.197405	0.028232
  57	2.8000e-02	1.1082	13.871843	0.001192	11.915163	2.018483	0.047591
  58	2.8500e-02	1.1287	14.041233	0.000848	8.481980	1.436886	0.033878
  59	2.9000e-02	1.1469	14.234822	0.000969	9.693692	1.642156	0.038718
  60	2.9500e-02	1.1680	14.400179	0.000828	8.280028	1.402675	0.033071
  61	3.0000e-02	1.1867	14.585701	0.000929	9.289788	1.573733	0.037105
  62	3.0500e-02	1.2079	14.714760	0.000646	6.462461	1.094771	0.025812
  63	3.1000e-02	1.2280	14.928514	0.001070	10.703451	1.813214	0.042751
  64	3.1500e-02	1.2476	15.118070	0.000949	9.491740	1.607944	0.037911
  65	3.2000e-02	1.2677	15.360056	0.001212	12.117115	2.052695	0.048397
  66	3.2500e-02	1.2875	15.525413	0.000828	8.280028	1.402675	0.033071
  67	3.3000e-02	1.3069	15.686737	0.000808	8.078077	1.368463	0.032265
  68	3.3500e-02	1.3278	15.864193	0.000889	8.885884	1.505310	0.035491
  69	3.4000e-02	1.3466	16.029550	0.000828	8.280028	1.402675	0.033071
  70	3.4500e-02	1.3672	16.235238	0.001030	10.299548	1.744791	0.041138
  71	3.5000e-02	1.3872	16.400595	0.000828	8.280028	1.402675	0.033071
  72	3.5500e-02	1.4065	16.642581	0.001212	12.117115	2.052695	0.048397
  73	3.6000e-02	1.4277	16.795839	0.000767	7.674173	1.300040	0.030652
  74	3.6500e-02	1.4478	16.965229	0.000848	8.481980	1.436886	0.033878
  75	3.7000e-02	1.4674	17.154785	0.000949	9.491740	1.607944	0.037911
  76	3.7500e-02	1.4871	17.364506	0.001050	10.501500	1.779002	0.041944
  77	3.8000e-02	1.5079	17.582293	0.001091	10.905403	1.847425	0.043557
  78	3.8500e-02	1.5273	17.751683	0.000848	8.481980	1.436886	0.033878
  79	3.9000e-02	1.5476	17.933173	0.000909	9.087836	1.539521	0.036298
  80	3.9500e-02	1.5679	18.122729	0.000949	9.491740	1.607944	0.037911
  81	4.0000e-02	1.5881	18.280019	0.000788	7.876125	1.334252	0.031458
  82	4.0500e-02	1.6071	18.461509	0.000909	9.087836	1.539521	0.036298
  83	4.1000e-02	1.6278	18.699462	0.001192	11.915163	2.018483	0.047591
  84	4.1500e-02	1.6473	18.848686	0.000747	7.472221	1.265828	0.029845
  85	4.2000e-02	1.6673	19.046308	0.000990	9.895644	1.676367	0.039524
  86	4.2500e-02	1.6870	19.276195	0.001151	11.511259	1.950060	0.045977
  87	4.3000e-02	1.7082	19.465750	0.000949	9.491740	1.607944	0.037911
  88	4.3500e-02	1.7282	19.574644	0.000545	5.452702	0.923713	0.021779
  89	4.4000e-02	1.7479	19.800498	0.001131	11.309307	1.915848	0.045171
  90	4.4500e-02	1.7676	20.014252	0.001070	10.703451	1.813214	0.042751
  91	4.5000e-02	1.7883	20.151377	0.000687	6.866365	1.163194	0.027425
  92	4.5500e-02	1.8071	20.457893	0.001535	15.348345	2.600080	0.061303
  93	4.6000e-02	1.8271	20.590985	0.000666	6.664413	1.128982	0.026618
  94	4.6500e-02	1.8470	20.808772	0.001091	10.905403	1.847425	0.043557
  95	4.7000e-02	1.8672	20.962030	0.000767	7.674173	1.300040	0.030652
  96	4.7500e-02	1.8883	21.147553	0.000929	9.289788	1.573733	0.037105
  97	4.8000e-02	1.9080	21.373406	0.001131	11.309307	1.915848	0.045171
  98	4.8500e-02	1.9266	21.558929	0.000929	9.289788	1.573733	0.037105
  99	4.9000e-02	1.9470	21.724286	0.000828	8.280028	1.402675	0.033071
 100	4.9500e-02	1.9690	21.901742	0.000889	8.885884	1.505310	0.035491
 101	5.0000e-02	1.9879	22.115496	0.001070	10.703451	1.813214	0.042751
 102	5.0500e-02	2.0073	22.305052	0.000949	9.491740	1.607944	0.037911
 103	5.1000e-02	2.0271	22.547038	0.001212	12.117115	2.052695	0.048397
 104	5.1500e-02	2.0471	22.700295	0.000767	7.674173	1.300040	0.030652
 105	5.2000e-02	2.0676	22.869686	0.000848	8.481980	1.436886	0.033878
 106	5.2500e-02	2.0872	23.099572	0.001151	11.511259	1.950060	0.045977
 107	5.3000e-02	2.1069	23.256863	0.000788	7.876125	1.334252	0.031458
 108	5.3500e-02	2.1283	23.450452	0.000969	9.693692	1.642156	0.038718
 109	5.4000e-02	2.1469	23.684372	0.001171	11.713211	1.984272	0.046784
 110	5.4500e-02	2.1674	23.890060	0.001030	10.299548	1.744791	0.041138
 111	5.5000e-02	2.1883	24.039284	0.000747	7.472221	1.265828	0.029845
 112	5.5500e-02	2.2085	24.224807	0.000929	9.289788	1.573733	0.037105
 113	5.6000e-02	2.2282	24.486958	0.001313	13.126874	2.223753	0.052430
 114	5.6500e-02	2.2473	24.636183	0.000747	7.472221	1.265828	0.029845
 115	5.7000e-02	2.2688	24.821705	0.000929	9.289788	1.573733	0.037105
 116	5.7500e-02	2.2879	25.003195	0.000909	9.087836	1.539521	0.036298
 117	5.8000e-02	2.3072	25.196784	0.000969	9.693692	1.642156	0.038718
 118	5.8500e-02	2.3273	25.366174	0.000848	8.481980	1.436886	0.033878
 119	5.9000e-02	2.3473	25.604126	0.001192	11.915163	2.018483	0.047591
 120	5.9500e-02	2.3679	25.817881	0.001070	10.703451	1.813214	0.042751
 121	6.0000e-02	2.3886	26.015503	0.000990	9.895644	1.676367	0.039524
 122	6.0500e-02	2.4074	26.164727	0.000747	7.472221	1.265828	0.029845
 123	6.1000e-02	2.4280	26.354283	0.000949	9.491740	1.607944	0.037911
 124	6.1500e-02	2.4481	26.584169	0.001151	11.511259	1.950060	0.045977
 125	6.2000e-02	2.4670	26.773725	0.000949	9.491740	1.607944	0.037911
 126	6.2500e-02	2.4873	27.007645	0.001171	11.713211	1.984272	0.046784
 127	6.3000e-02	2.5073	27.132671	0.000626	6.260509	1.060559	0.025005
 128	6.3500e-02	2.5287	27.382723	0.001252	12.521019	2.121118	0.050010
 129	6.4000e-02	2.5472	27.548080	0.000828	8.280028	1.402675	0.033071
 130	6.4500e-02	2.5681	27.717470	0.000848	8.481980	1.436886	0.033878
 131	6.5000e-02	2.5873	27.923158	0.001030	10.299548	1.744791	0.041138
 132	6.5500e-02	2.6070	28.108681	0.000929	9.289788	1.573733	0.037105
 133	6.6000e-02	2.6273	28.342600	0.001171	11.713211	1.984272	0.046784
 134	6.6500e-02	2.6469	28.463593	0.000606	6.058557	1.026347	0.024199
 135	6.7000e-02	2.6681	28.729778	0.001333	13.328826	2.257964	0.053237
 136	6.7500e-02	2.6877	28.895135	0.000828	8.280028	1.402675	0.033071
 137	6.8000e-02	2.7076	29.044360	0.000747	7.472221	1.265828	0.029845
 138	6.8500e-02	2.7271	29.266180	0.001111	11.107355	1.881637	0.044364
 139	6.9000e-02	2.7487	29.479934	0.001070	10.703451	1.813214	0.042751
 140	6.9500e-02	2.7673	29.661424	0.000909	9.087836	1.539521	0.036298
 141	7.0000e-02	2.7872	29.867112	0.001030	10.299548	1.744791	0.041138
 142	7.0500e-02	2.8081	30.072800	0.001030	10.299548	1.744791	0.041138
 143	7.1000e-02	2.8275	30.310753	0.001192	11.915163	2.018483	0.047591
 144	7.1500e-02	2.8480	30.468043	0.000788	7.876125	1.334252	0.031458
 145	7.2000e-02	2.8668	30.661632	0.000969	9.693692	1.642156	0.038718
 146	7.2500e-02	2.8873	30.899585	0.001192	11.915163	2.018483	0.047591
 147	7.3000e-02	2.9080	31.060909	0.000808	8.078077	1.368463	0.032265
 148	7.3500e-02	2.9280	31.250465	0.000949	9.491740	1.607944	0.037911
 149	7.4000e-02	2.9480	31.435987	0.000929	9.289788	1.573733	0.037105
 150	7.4500e-02	2.9674	31.609410	0.000868	8.683932	1.471098	0.034685
 151	7.5000e-02	2.9883	31.835264	0.001131	11.309307	1.915848	0.045171
 152	7.5500e-02	3.0078	32.044985	0.001050	10.501500	1.779002	0.041944
 153	7.6000e-02	3.0276	32.234541	0.000949	9.491740	1.607944	0.037911
 154	7.6500e-02	3.0471	32.420063	0.000929	9.289788	1.573733	0.037105
 155	7.7000e-02	3.0671	32.637850	0.001091	10.905403	1.847425	0.043557
 156	7.7500e-02	3.0882	32.871770	0.001171	11.713211	1.984272	0.046784
 157	7.8000e-02	3.1069	32.984697	0.000565	5.654654	0.957924	0.022585
 158	7.8500e-02	3.1274	33.178286	0.000969	9.693692	1.642156	0.038718
 159	7.9000e-02	3.1482	33.379941	0.001010	10.097596	1.710579	0.040331
 160	7.9500e-02	3.1674	33.605794	0.001131	11.309307	1.915848	0.045171
 161	8.0000e-02	3.1870	33.831648	0.001131	11.309307	1.915848	0.045171
 162	8.0500e-02	3.2077	34.005071	0.000868	8.683932	1.471098	0.034685
 163	8.1000e-02	3.2269	34.226891	0.001111	11.107355	1.881637	0.044364
 164	8.1500e-02	3.2471	34.368050	0.000707	7.068317	1.197405	0.028232
 165	8.2000e-02	3.2668	34.585837	0.001091	10.905403	1.847425	0.043557
 166	8.2500e-02	3.2877	34.791525	0.001030	10.299548	1.744791	0.041138
 167	8.3000e-02	3.3075	34.920584	0.000646	6.462461	1.094771	0.025812
 168	8.3500e-02	3.3271	35.154504	0.001171	11.713211	1.984272	0.046784
 169	8.4000e-02	3.3473	35.376324	0.001111	11.107355	1.881637	0.044364
 170	8.4500e-02	3.3677	35.586046	0.001050	10.501500	1.779002	0.041944
 171	8.5000e-02	3.3875	35.727204	0.000707	7.068317	1.197405	0.028232
 172	8.5500e-02	3.4073	35.884495	0.000788	7.876125	1.334252	0.031458
 173	8.6000e-02	3.4273	36.130514	0.001232	12.319067	2.086906	0.049204
 174	8.6500e-02	3.4488	36.320069	0.000949	9.491740	1.607944	0.037911
 175	8.7000e-02	3.4677	36.525757	0.001030	10.299548	1.744791	0.041138
 176	8.7500e-02	3.4880	36.695148	0.000848	8.481980	1.436886	0.033878
 177	8.8000e-02	3.5069	36.921001	0.001131	11.309307	1.915848	0.045171
 178	8.8500e-02	3.5272	37.138788	0.001091	10.905403	1.847425	0.043557
 179	8.9000e-02	3.5469	37.223484	0.000424	4.240990	0.718443	0.016939
 180	8.9500e-02	3.5669	37.461436	0.001192	11.915163	2.018483	0.047591
 181	9.0000e-02	3.5876	37.691323	0.001151	11.511259	1.950060	0.045977
 182	9.0500e-02	3.6078	37.856680	0.000828	8.280028	1.402675	0.033071
 183	9.1000e-02	3.6270	38.086567	0.001151	11.511259	1.950060	0.045977
 184	9.1500e-02	3.6475	38.231758	0.000727	7.270269	1.231617	0.029038
 185	9.2000e-02	3.6682	38.433413	0.001010	10.097596	1.710579	0.040331
 186	9.2500e-02	3.6871	38.602803	0.000848	8.481980	1.436886	0.033878
 187	9.3000e-02	3.7067	38.816557	0.001070	10.703451	1.813214	0.042751
 188	9.3500e-02	3.7280	39.034345	0.001091	10.905403	1.847425	0.043557
 189	9.4000e-02	3.7482	39.240033	0.001030	10.299548	1.744791	0.041138
 190	9.4500e-02	3.7678	39.409423	0.000848	8.481980	1.436886	0.033878
 191	9.5000e-02	3.7885	39.615111	0.001030	10.299548	1.744791	0.041138
 192	9.5500e-02	3.8068	39.816766	0.001010	10.097596	1.710579	0.040331
 193	9.6000e-02	3.8269	40.002288	0.000929	9.289788	1.573733	0.037105
 194	9.6500e-02	3.8470	40.147480	0.000727	7.270269	1.231617	0.029038
 195	9.7000e-02	3.8666	40.441896	0.001474	14.742490	2.497445	0.058883
 196	9.7500e-02	3.8870	40.558856	0.000586	5.856605	0.992136	0.023392
 197	9.8000e-02	3.9069	40.728246	0.000848	8.481980	1.436886	0.033878
 198	9.8500e-02	3.9268	40.913769	0.000929	9.289788	1.573733	0.037105
 199	9.9000e-02	3.9471	41.111391	0.000990	9.895644	1.676367	0.039524
 200	9.9500e-02	3.9664	41.288847	0.000889	8.885884	1.505310	0.035491
 201	1.0000e-01	3.9874	41.482436	0.000969	9.693692	1.642156	0.038718
 202	1.0050e-01	4.0076	41.671991	0.000949	9.491740	1.607944	0.037911
 203	1.0100e-01	4.0277	41.861547	0.000949	9.491740	1.607944	0.037911
 204	1.0150e-01	4.0472	42.043036	0.000909	9.087836	1.539521	0.036298
 205	1.0200e-01	4.0674	42.224526	0.000909	9.087836	1.539521	0.036298
 206	1.0250e-01	4.0881	42.438280	0.001070	10.703451	1.813214	0.042751
 207	1.0300e-01	4.1077	42.680266	0.001212	12.117115	2.052695	0.048397
 208	1.0350e-01	4.1272	42.845623	0.000828	8.280028	1.402675	0.033071
 209	1.0400e-01	4.1483	42.990815	0.000727	7.270269	1.231617	0.029038
 210	1.0450e-01	4.1675	43.176337	0.000929	9.289788	1.573733	0.037105
 211	1.0500e-01	4.1876	43.345727	0.000848	8.481980	1.436886	0.033878
 212	1.0550e-01	4.2078	43.559481	0.001070	10.703451	1.813214	0.042751
 213	1.0600e-01	4.2274	43.781302	0.001111	11.107355	1.881637	0.044364
 214	1.0650e-01	4.2468	43.991023	0.001050	10.501500	1.779002	0.041944
 215	1.0700e-01	4.2682	44.172512	0.000909	9.087836	1.539521	0.036298
 216	1.0750e-01	4.2874	44.362068	0.000949	9.491740	1.607944	0.037911
 217	1.0800e-01	4.3073	44.511293	0.000747	7.472221	1.265828	0.029845
 218	1.0850e-01	4.3280	44.696815	0.000929	9.289788	1.573733	0.037105
 219	1.0900e-01	4.3478	44.862172	0.000828	8.280028	1.402675	0.033071
 220	1.0950e-01	4.3668	45.112224	0.001252	12.521019	2.121118	0.050010
 221	1.1000e-01	4.3875	45.265482	0.000767	7.674173	1.300040	0.030652
 222	1.1050e-01	4.4080	45.434872	0.000848	8.481980	1.436886	0.033878
 223	1.1100e-01	4.4270	45.656693	0.001111	11.107355	1.881637	0.044364
 224	1.1150e-01	4.4482	45.882546	0.001131	11.309307	1.915848	0.045171
 225	1.1200e-01	4.4678	46.019672	0.000687	6.866365	1.163194	0.027425
 226	1.1250e-01	4.4873	46.156797	0.000687	6.866365	1.163194	0.027425
 227	1.1300e-01	4.5084	46.358452	0.001010	10.097596	1.710579	0.040331
 228	1.1350e-01	4.5282	46.499610	0.000707	7.068317	1.197405	0.028232
 229	1.1400e-01	4.5485	46.785960	0.001434	14.338586	2.429022	0.057270
 230	1.1450e-01	4.5673	46.894854	0.000545	5.452702	0.923713	0.021779
 231	1.1500e-01	4.5874	47.096509	0.001010	10.097596	1.710579	0.040331
 232	1.1550e-01	4.6082	47.354627	0.001292	12.924922	2.189541	0.051624
 233	1.1600e-01	4.6280	47.491753	0.000687	6.866365	1.163194	0.027425
 234	1.1650e-01	4.6478	47.693408	0.001010	10.097596	1.710579	0.040331
 235	1.1700e-01	4.6680	47.891029	0.000990	9.895644	1.676367	0.039524
 236	1.1750e-01	4.6881	48.056386	0.000828	8.280028	1.402675	0.033071
 237	1.1800e-01	4.7076	48.193512	0.000687	6.866365	1.163194	0.027425
 238	1.1850e-01	4.7279	48.447597	0.001272	12.722971	2.155330	0.050817
 239	1.1900e-01	4.7479	48.604888	0.000788	7.876125	1.334252	0.031458
 240	1.1950e-01	4.7681	48.782344	0.000889	8.885884	1.505310	0.035491
 241	1.2000e-01	4.7879	48.971900	0.000949	9.491740	1.607944	0.037911
 242	1.2050e-01	4.8080	49.189687	0.001091	10.905403	1.847425	0.043557
 243	1.2100e-01	4.8280	49.314713	0.000626	6.260509	1.060559	0.025005
 244	1.2150e-01	4.8482	49.496203	0.000909	9.087836	1.539521	0.036298
 245	1.2200e-01	4.8682	49.625262	0.000646	6.462461	1.094771	0.025812
 246	1.2250e-01	4.8883	49.895479	0.001353	13.530778	2.292176	0.054044
 247	1.2300e-01	4.9074	50.040671	0.000727	7.270269	1.231617	0.029038
 248	1.2350e-01	4.9277	50.234260	0.000969	9.693692	1.642156	0.038718
 249	1.2400e-01	4.9481	50.395584	0.000808	8.078077	1.368463	0.032265
 250	1.2450e-01	4.9683	50.609338	0.001070	10.703451	1.813214	0.042751
 251	1.2500e-01	4.9878	50.815026	0.001030	10.299548	1.744791	0.041138
 252	1.2550e-01	5.0081	50.927953	0.000565	5.654654	0.957924	0.022585
 253	1.2600e-01	5.0275	51.234468	0.001535	15.348345	2.600080	0.061303
 254	1.2650e-01	5.0491	51.331262	0.000485	4.846846	0.821078	0.019359
 255	1.2700e-01	5.0677	51.561149	0.001151	11.511259	1.950060	0.045977
 256	1.2750e-01	5.0885	51.629712	0.000343	3.433183	0.581597	0.013713
 257	1.2800e-01	5.1076	51.851532	0.001111	11.107355	1.881637	0.044364
 258	1.2850e-01	5.1282	52.008823	0.000788	7.876125	1.334252	0.031458
 259	1.2900e-01	5.1477	52.194346	0.000929	9.289788	1.573733	0.037105
 260	1.2950e-01	5.1678	52.355670	0.000808	8.078077	1.368463	0.032265
 261	1.3000e-01	5.1880	52.609755	0.001272	12.722971	2.155330	0.050817
 262	1.3050e-01	5.2081	52.763012	0.000767	7.674173	1.300040	0.030652
 263	1.3100e-01	5.2272	52.924336	0.000808	8.078077	1.368463	0.032265
 264	1.3150e-01	5.2479	53.117925	0.000969	9.693692	1.642156	0.038718
 265	1.3200e-01	5.2679	53.255050	0.000687	6.866365	1.163194	0.027425
 266	1.3250e-01	5.2882	53.468805	0.001070	10.703451	1.813214	0.042751
 267	1.3300e-01	5.3072	53.658360	0.000949	9.491740	1.607944	0.037911
 268	1.3350e-01	5.3278	53.847916	0.000949	9.491740	1.607944	0.037911
 269	1.3400e-01	5.3479	54.013273	0.000828	8.280028	1.402675	0.033071
 270	1.3450e-01	5.3683	54.186696	0.000868	8.683932	1.471098	0.034685
 271	1.3500e-01	5.3882	54.327855	0.000707	7.068317	1.197405	0.028232
 272	1.3550e-01	5.4077	54.529510	0.001010	10.097596	1.710579	0.040331
 273	1.3600e-01	5.4285	54.698900	0.000848	8.481980	1.436886	0.033878
 274	1.3650e-01	5.4480	54.900555	0.001010	10.097596	1.710579	0.040331
 275	1.3700e-01	5.4678	55.069945	0.000848	8.481980	1.436886	0.033878
 276	1.3750e-01	5.4883	55.239335	0.000848	8.481980	1.436886	0.033878
 277	1.3800e-01	5.5084	55.416791	0.000889	8.885884	1.505310	0.035491
 278	1.3850e-01	5.5286	55.626512	0.001050	10.501500	1.779002	0.041944
 279	1.3900e-01	5.5493	55.767671	0.000707	7.068317	1.197405	0.028232
 280	1.3950e-01	5.5682	55.961260	0.000969	9.693692	1.642156	0.038718
 281	1.4000e-01	5.5890	56.118551	0.000788	7.876125	1.334252	0.031458
 282	1.4050e-01	5.6079	56.243577	0.000626	6.260509	1.060559	0.025005
 283	1.4100e-01	5.6287	56.469430	0.001131	11.309307	1.915848	0.045171
 284	1.4150e-01	5.6479	56.618655	0.000747	7.472221	1.265828	0.029845
 285	1.4200e-01	5.6680	56.800144	0.000909	9.087836	1.539521	0.036298
 286	1.4250e-01	5.6880	57.005832	0.001030	10.299548	1.744791	0.041138
 287	1.4300e-01	5.7080	57.179255	0.000868	8.683932	1.471098	0.034685
 288	1.4350e-01	5.7288	57.388977	0.001050	10.501500	1.779002	0.041944
 289	1.4400e-01	5.7489	57.505936	0.000586	5.856605	0.992136	0.023392
 290	1.4450e-01	5.7678	57.626929	0.000606	6.058557	1.026347	0.024199
 291	1.4500e-01	5.7874	57.796320	0.000848	8.481980	1.436886	0.033878
 292	1.4550e-01	5.8081	58.026206	0.001151	11.511259	1.950060	0.045977
 293	1.4600e-01	5.8289	58.135100	0.000545	5.452702	0.923713	0.021779
 294	1.4650e-01	5.8478	58.360953	0.001131	11.309307	1.915848	0.045171
 295	1.4700e-01	5.8676	58.538410	0.000889	8.885884	1.505310	0.035491
 296	1.4750e-01	5.8882	58.703767	0.000828	8.280028	1.402675	0.033071
 297	1.4800e-01	5.9082	58.877190	0.000868	8.683932	1.471098	0.034685
 298	1.4850e-01	5.9278	59.046580	0.000848	8.481980	1.436886	0.033878
 299	1.4900e-01	5.9482	59.187739	0.000707	7.068317	1.197405	0.028232
 300	1.4950e-01	5.9692	59.320831	0.000666	6.664413	1.128982	0.026618
 301	1.5000e-01	5.9885	59.542651	0.001111	11.107355	1.881637	0.044364
 302	1.5050e-01	6.0081	59.703975	0.000808	8.078077	1.368463	0.032265
 303	1.5100e-01	6.0278	59.889498	0.000929	9.289788	1.573733	0.037105
 304	1.5150e-01	6.0477	60.107285	0.001091	10.905403	1.847425	0.043557
 305	1.5200e-01	6.0681	60.236344	0.000646	6.462461	1.094771	0.025812
 306	1.5250e-01	6.0880	60.433966	0.000990	9.895644	1.676367	0.039524
 307	1.5300e-01	6.1078	60.550926	0.000586	5.856605	0.992136	0.023392
 308	1.5350e-01	6.1285	60.692084	0.000707	7.068317	1.197405	0.028232
 309	1.5400e-01	6.1487	60.901805	0.001050	10.501500	1.779002	0.041944
 310	1.5450e-01	6.1682	61.107493	0.001030	10.299548	1.744791	0.041138
 311	1.5500e-01	6.1879	61.095394	-0.000061	-0.605856	-0.102635	-0.002420
 312	1.5550e-01	6.2085	61.466439	0.001858	18.579576	3.147465	0.074209
 313	1.5600e-01	6.2280	61.587432	0.000606	6.058557	1.026347	0.024199
 314	1.5650e-01	6.2482	61.756822	0.000848	8.481980	1.436886	0.033878
 315	1.5700e-01	6.2683	61.865716	0.000545	5.452702	0.923713	0.021779
 316	1.5750e-01	6.2872	62.103669	0.001192	11.915163	2.018483	0.047591
 317	1.5800e-01	6.3086	62.264993	0.000808	8.078077	1.368463	0.032265
 318	1.5850e-01	6.3269	62.430350	0.000828	8.280028	1.402675	0.033071
 319	1.5900e-01	6.3470	62.599740	0.000848	8.481980	1.436886	0.033878
 320	1.5950e-01	6.3675	62.752998	0.000767	7.674173	1.300040	0.030652
 321	1.6000e-01	6.3873	62.954653	0.001010	10.097596	1.710579	0.040331
 322	1.6050e-01	6.4072	63.095811	0.000707	7.068317	1.197405	0.028232
 323	1.6100e-01	6.4265	63.265201	0.000848	8.481980	1.436886	0.033878
 324	1.6150e-01	6.4478	63.454757	0.000949	9.491740	1.607944	0.037911
 325	1.6200e-01	6.4682	63.575750	0.000606	6.058557	1.026347	0.024199
 326	1.6250e-01	6.4874	63.777405	0.001010	10.097596	1.710579	0.040331
 327	1.6300e-01	6.5063	63.886298	0.000545	5.452702	0.923713	0.021779
 328	1.6350e-01	6.5274	64.059722	0.000868	8.683932	1.471098	0.034685
 329	1.6400e-01	6.5469	64.253310	0.000969	9.693692	1.642156	0.038718
 330	1.6450e-01	6.5680	64.410601	0.000788	7.876125	1.334252	0.031458
 331	1.6500e-01	6.5881	64.547727	0.000687	6.866365	1.163194	0.027425
 332	1.6550e-01	6.6072	64.737282	0.000949	9.491740	1.607944	0.037911
 333	1.6600e-01	6.6278	64.951036	0.001070	10.703451	1.813214	0.042751
 334	1.6650e-01	6.6473	65.104294	0.000767	7.674173	1.300040	0.030652
 335	1.6700e-01	6.6681	65.217221	0.000565	5.654654	0.957924	0.022585
 336	1.6750e-01	6.6873	65.410810	0.000969	9.693692	1.642156	0.038718
 337	1.6800e-01	6.7068	65.527770	0.000586	5.856605	0.992136	0.023392
 338	1.6850e-01	6.7276	65.600365	0.000364	3.635134	0.615808	0.014519
 339	1.6900e-01	6.7474	65.862517	0.001313	13.126874	2.223753	0.052430
 340	1.6950e-01	6.7676	66.064172	0.001010	10.097596	1.710579	0.040331
 341	1.7000e-01	6.7877	66.253727	0.000949	9.491740	1.607944	0.037911
 342	1.7050e-01	6.8066	66.342455	0.000444	4.442942	0.752655	0.017746
 343	1.7100e-01	6.8268	66.616706	0.001373	13.732730	2.326387	0.054850
 344	1.7150e-01	6.8475	66.665103	0.000242	2.423423	0.410539	0.009679
 345	1.7200e-01	6.8677	66.866758	0.001010	10.097596	1.710579	0.040331
 346	1.7250e-01	6.8878	67.064380	0.000990	9.895644	1.676367	0.039524
 347	1.7300e-01	6.9067	67.169241	0.000525	5.250750	0.889501	0.020972
 348	1.7350e-01	6.9281	67.354763	0.000929	9.289788	1.573733	0.037105
 349	1.7400e-01	6.9473	67.524153	0.000848	8.481980	1.436886	0.033878
 350	1.7450e-01	6.9678	67.653213	0.000646	6.462461	1.094771	0.025812
 351	1.7500e-01	6.9873	67.862934	0.001050	10.501500	1.779002	0.041944
 352	1.7550e-01	7.0081	68.004092	0.000707	7.068317	1.197405	0.028232
 353	1.7600e-01	7.0276	68.153317	0.000747	7.472221	1.265828	0.029845
 354	1.7650e-01	7.0471	68.294475	0.000707	7.068317	1.197405	0.028232
 355	1.7700e-01	7.0667	68.508229	0.001070	10.703451	1.813214	0.042751
 356	1.7750e-01	7.0874	68.657454	0.000747	7.472221	1.265828	0.029845
 357	1.7800e-01	7.1072	68.810712	0.000767	7.674173	1.300040	0.030652
 358	1.7850e-01	7.1277	68.943804	0.000666	6.664413	1.128982	0.026618
 359	1.7900e-01	7.1472	69.145459	0.001010	10.097596	1.710579	0.040331
 360	1.7950e-01	7.1677	69.278551	0.000666	6.664413	1.128982	0.026618
 361	1.8000e-01	7.1881	69.391478	0.000565	5.654654	0.957924	0.022585
 362	1.8050e-01	7.2073	69.581034	0.000949	9.491740	1.607944	0.037911
 363	1.8100e-01	7.2275	69.754457	0.000868	8.683932	1.471098	0.034685
 364	1.8150e-01	7.2473	69.915781	0.000808	8.078077	1.368463	0.032265
 365	1.8200e-01	7.2675	70.073072	0.000788	7.876125	1.334252	0.031458
 366	1.8250e-01	7.2876	70.258594	0.000929	9.289788	1.573733	0.037105
 367	1.8300e-01	7.3077	70.415885	0.000788	7.876125	1.334252	0.031458
 368	1.8350e-01	7.3273	70.557043	0.000707	7.068317	1.197405	0.028232
 369	1.8400e-01	7.3474	70.665937	0.000545	5.452702	0.923713	0.021779
 370	1.8450e-01	7.3672	70.883724	0.001091	10.905403	1.847425	0.043557
 371	1.8500e-01	7.3871	71.020850	0.000687	6.866365	1.163194	0.027425
 372	1.8550e-01	7.4066	71.198306	0.000889	8.885884	1.505310	0.035491
 373	1.8600e-01	7.4280	71.343498	0.000727	7.270269	1.231617	0.029038
 374	1.8650e-01	7.4469	71.484656	0.000707	7.068317	1.197405	0.028232
 375	1.8700e-01	7.4677	71.686311	0.001010	10.097596	1.710579	0.040331
 376	1.8750e-01	7.4872	71.771006	0.000424	4.240990	0.718443	0.016939
 377	1.8800e-01	7.5076	71.952496	0.000909	9.087836	1.539521	0.036298
 378	1.8850e-01	7.5275	72.117853	0.000828	8.280028	1.402675	0.033071
 379	1.8900e-01	7.5470	72.327574	0.001050	10.501500	1.779002	0.041944
 380	1.8950e-01	7.5684	72.456633	0.000646	6.462461	1.094771	0.025812
 381	1.9000e-01	7.5879	72.621990	0.000828	8.280028	1.402675	0.033071
 382	1.9050e-01	7.6074	72.771215	0.000747	7.472221	1.265828	0.029845
 383	1.9100e-01	7.6270	72.900274	0.000646	6.462461	1.094771	0.025812
 384	1.9150e-01	7.6474	73.057565	0.000788	7.876125	1.334252	0.031458
 385	1.9200e-01	7.6678	73.202756	0.000727	7.270269	1.231617	0.029038
 386	1.9250e-01	7.6868	73.388279	0.000929	9.289788	1.573733	0.037105
 387	1.9300e-01	7.7063	73.557669	0.000848	8.481980	1.436886	0.033878
 388	1.9350e-01	7.7277	73.662529	0.000525	5.250750	0.889501	0.020972
 389	1.9400e-01	7.7478	73.835953	0.000868	8.683932	1.471098	0.034685
 390	1.9450e-01	7.7673	74.005343	0.000848	8.481980	1.436886	0.033878
 391	1.9500e-01	7.7881	74.138435	0.000666	6.664413	1.128982	0.026618
 392	1.9550e-01	7.8070	74.279594	0.000707	7.068317	1.197405	0.028232
 393	1.9600e-01	7.8278	74.497381	0.001091	10.905403	1.847425	0.043557
 394	1.9650e-01	7.8479	74.638539	0.000707	7.068317	1.197405	0.028232
 395	1.9700e-01	7.8668	74.799863	0.000808	8.078077	1.368463	0.032265
 396	1.9750e-01	7.8876	74.908757	0.000545	5.452702	0.923713	0.021779
 397	1.9800e-01	7.9077	75.070081	0.000808	8.078077	1.368463	0.032265
 398	1.9850e-01	7.9280	75.259636	0.000949	9.491740	1.607944	0.037911
 399	1.9900e-01	7.9474	75.420960	0.000808	8.078077	1.368463	0.032265
 400	1.9950e-01	7.9675	75.533887	0.000565	5.654654	0.957924	0.022585
 401	2.0000e-01	7.9877	75.687145	0.000767	7.674173	1.300040	0.030652
 402	2.0050e-01	8.0072	76.017859	0.001656	16.560057	2.805350	0.066143
 403	2.0100e-01	8.0267	75.977528	-0.000202	-2.019519	-0.342116	-0.008066
 404	2.0150e-01	8.0475	76.183216	0.001030	10.299548	1.744791	0.041138
 405	2.0200e-01	8.0673	76.332441	0.000747	7.472221	1.265828	0.029845
 406	2.0250e-01	8.0872	76.477632	0.000727	7.270269	1.231617	0.029038
 407	2.0300e-01	8.1079	76.618791	0.000707	7.068317	1.197405	0.028232
 408	2.0350e-01	8.1274	76.727684	0.000545	5.452702	0.923713	0.021779
 409	2.0400e-01	8.1470	76.961604	0.001171	11.713211	1.984272	0.046784
 410	2.0450e-01	8.1671	77.074531	0.000565	5.654654	0.957924	0.022585
 411	2.0500e-01	8.1873	77.231822	0.000788	7.876125	1.334252	0.031458
 412	2.0550e-01	8.2074	77.360881	0.000646	6.462461	1.094771	0.025812
 413	2.0600e-01	8.2269	77.534304	0.000868	8.683932	1.471098	0.034685
 414	2.0650e-01	8.2468	77.679496	0.000727	7.270269	1.231617	0.029038
 415	2.0700e-01	8.2672	77.856952	0.000889	8.885884	1.505310	0.035491
 416	2.0750e-01	8.2861	78.022309	0.000828	8.280028	1.402675	0.033071
 417	2.0800e-01	8.3069	78.131203	0.000545	5.452702	0.923713	0.021779
 418	2.0850e-01	8.3276	78.264295	0.000666	6.664413	1.128982	0.026618
 419	2.0900e-01	8.3478	78.433685	0.000848	8.481980	1.436886	0.033878
 420	2.0950e-01	8.3667	78.619208	0.000929	9.289788	1.573733	0.037105
 421	2.1000e-01	8.3875	78.808763	0.000949	9.491740	1.607944	0.037911
 422	2.1050e-01	8.4076	78.966054	0.000788	7.876125	1.334252	0.031458
 423	2.1100e-01	8.4277	79.244338	0.001393	13.934682	2.360599	0.055657
 424	2.1150e-01	8.4476	79.175775	-0.000343	-3.433183	-0.581597	-0.013713
 425	2.1200e-01	8.4671	79.377430	0.001010	10.097596	1.710579	0.040331
 426	2.1250e-01	8.4875	79.538754	0.000808	8.078077	1.368463	0.032265
 427	2.1300e-01	8.5077	79.611350	0.000364	3.635134	0.615808	0.014519
 428	2.1350e-01	8.5266	79.845270	0.001171	11.713211	1.984272	0.046784
 429	2.1400e-01	8.5480	80.010627	0.000828	8.280028	1.402675	0.033071
 430	2.1450e-01	8.5669	80.075156	0.000323	3.231231	0.547385	0.012906
 431	2.1500e-01	8.5876	80.276811	0.001010	10.097596	1.710579	0.040331
 432	2.1550e-01	8.6072	80.454267	0.000889	8.885884	1.505310	0.035491
 433	2.1600e-01	8.6279	80.547029	0.000464	4.644894	0.786866	0.018552
 434	2.1650e-01	8.6469	80.736584	0.000949	9.491740	1.607944	0.037911
 435	2.1700e-01	8.6670	80.910008	0.000868	8.683932	1.471098	0.034685
 436	2.1750e-01	8.6880	81.039067	0.000646	6.462461	1.094771	0.025812
 437	2.1800e-01	8.7079	81.192325	0.000767	7.674173	1.300040	0.030652
 438	2.1850e-01	8.7274	81.317351	0.000626	6.260509	1.060559	0.025005
 439	2.1900e-01	8.7482	81.494807	0.000889	8.885884	1.505310	0.035491
 440	2.1950e-01	8.7683	81.611767	0.000586	5.856605	0.992136	0.023392
 441	2.2000e-01	8.7885	81.769058	0.000788	7.876125	1.334252	0.031458
 442	2.2050e-01	8.8080	81.970713	0.001010	10.097596	1.710579	0.040331
 443	2.2100e-01	8.8287	82.107838	0.000687	6.866365	1.163194	0.027425
 444	2.2150e-01	8.8477	82.196566	0.000444	4.442942	0.752655	0.017746
 445	2.2200e-01	8.8678	82.438552	0.001212	12.117115	2.052695	0.048397
 446	2.2250e-01	8.8867	82.523247	0.000424	4.240990	0.718443	0.016939
 447	2.2300e-01	8.9063	82.680538	0.000788	7.876125	1.334252	0.031458
 448	2.2350e-01	8.9270	82.837829	0.000788	7.876125	1.334252	0.031458
 449	2.2400e-01	8.9484	82.978987	0.000707	7.068317	1.197405	0.028232
 450	2.2450e-01	8.9673	83.140311	0.000808	8.078077	1.368463	0.032265
 451	2.2500e-01	8.9880	83.301635	0.000808	8.078077	1.368463	0.032265
 452	2.2550e-01	9.0070	83.398429	0.000485	4.846846	0.821078	0.019359
 453	2.2600e-01	9.0271	83.531522	0.000666	6.664413	1.128982	0.026618
 454	2.2650e-01	9.0479	83.761408	0.001151	11.511259	1.950060	0.045977
 455	2.2700e-01	9.0674	83.866269	0.000525	5.250750	0.889501	0.020972
 456	2.2750e-01	9.0875	84.035659	0.000848	8.481980	1.436886	0.033878
 457	2.2800e-01	9.1068	84.213115	0.000889	8.885884	1.505310	0.035491
 458	2.2850e-01	9.1284	84.346208	0.000666	6.664413	1.128982	0.026618
 459	2.2900e-01	9.1473	84.467201	0.000606	6.058557	1.026347	0.024199
 460	2.2950e-01	9.1669	84.636591	0.000848	8.481980	1.436886	0.033878
 461	2.3000e-01	9.1870	84.785815	0.000747	7.472221	1.265828	0.029845
 462	2.3050e-01	9.2065	84.902775	0.000586	5.856605	0.992136	0.023392
 463	2.3100e-01	9.2276	85.068132	0.000828	8.280028	1.402675	0.033071
 464	2.3150e-01	9.2471	85.229456	0.000808	8.078077	1.368463	0.032265
 465	2.3200e-01	9.2682	85.342383	0.000565	5.654654	0.957924	0.022585
 466	2.3250e-01	9.2865	85.491608	0.000747	7.472221	1.265828	0.029845
 467	2.3300e-01	9.3079	85.681163	0.000949	9.491740	1.607944	0.037911
 468	2.3350e-01	9.3280	85.769891	0.000444	4.442942	0.752655	0.017746
 469	2.3400e-01	9.3475	85.939282	0.000848	8.481980	1.436886	0.033878
 470	2.3450e-01	9.3665	86.084473	0.000727	7.270269	1.231617	0.029038
 471	2.3500e-01	9.3878	86.233698	0.000747	7.472221	1.265828	0.029845
 472	2.3550e-01	9.4073	86.354691	0.000606	6.058557	1.026347	0.024199
 473	2.3600e-01	9.4275	86.487783	0.000666	6.664413	1.128982	0.026618
 474	2.3650e-01	9.4470	86.677339	0.000949	9.491740	1.607944	0.037911
 475	2.3700e-01	9.4678	86.846729	0.000848	8.481980	1.436886	0.033878
 476	2.3750e-01	9.4867	86.935457	0.000444	4.442942	0.752655	0.017746
 477	2.3800e-01	9.5074	87.108880	0.000868	8.683932	1.471098	0.034685
 478	2.3850e-01	9.5276	87.326667	0.001091	10.905403	1.847425	0.043557
 479	2.3900e-01	9.5480	87.415396	0.000444	4.442942	0.752655	0.017746
 480	2.3950e-01	9.5667	87.592852	0.000889	8.885884	1.505310	0.035491
 481	2.4000e-01	9.5874	87.697713	0.000525	5.250750	0.889501	0.020972
 482	2.4050e-01	9.6075	87.887268	0.000949	9.491740	1.607944	0.037911
 483	2.4100e-01	9.6277	88.028427	0.000707	7.068317	1.197405	0.028232
 484	2.4150e-01	9.6478	88.109089	0.000404	4.039038	0.684232	0.016132
 485	2.4200e-01	9.6686	88.302677	0.000969	9.693692	1.642156	0.038718
 486	2.4250e-01	9.6875	88.451902	0.000747	7.472221	1.265828	0.029845
 487	2.4300e-01	9.7076	88.593060	0.000707	7.068317	1.197405	0.028232
 488	2.4350e-01	9.7266	88.718087	0.000626	6.260509	1.060559	0.025005
 489	2.4400e-01	9.7485	88.907642	0.000949	9.491740	1.607944	0.037911
 490	2.4450e-01	9.7675	88.972172	0.000323	3.231231	0.547385	0.012906
 491	2.4500e-01	9.7870	89.181893	0.001050	10.501500	1.779002	0.041944
 492	2.4550e-01	9.8065	89.286753	0.000525	5.250750	0.889501	0.020972
 493	2.4600e-01	9.8267	89.456144	0.000848	8.481980	1.436886	0.033878
 494	2.4650e-01	9.8468	89.625534	0.000848	8.481980	1.436886	0.033878
 495	2.4700e-01	9.8669	89.730394	0.000525	5.250750	0.889501	0.020972
 496	2.4750e-01	9.8871	89.899784	0.000848	8.481980	1.436886	0.033878
 497	2.4800e-01	9.9072	90.085307	0.000929	9.289788	1.573733	0.037105
 498	2.4850e-01	9.9277	90.238565	0.000767	7.674173	1.300040	0.030652
 499	2.4900e-01	9.9475	90.363591	0.000626	6.260509	1.060559	0.025005
 500	2.4950e-01	9.9670	90.492650	0.000646	6.462461	1.094771	0.025812
 501	2.5000e-01	9.9878	90.649941	0.000788	7.876125	1.334252	0.031458
 502	2.5050e-01	9.9854	90.597510	0.000263	2.625375	0.444751	-0.010486
 503	2.5100e-01	9.9701	90.545080	0.000263	2.625375	0.444751	-0.010486
 504	2.5150e-01	9.9524	90.512815	0.000162	1.615615	0.273693	-0.006453
 505	2.5200e-01	9.9329	90.387789	0.000626	6.260509	1.060559	-0.025005
 506	2.5250e-01	9.9121	90.315194	0.000364	3.635134	0.615808	-0.014519
 507	2.5300e-01	9.8920	90.234532	0.000404	4.039038	0.684232	-0.016132
 508	2.5350e-01	9.8730	90.145803	0.000444	4.442942	0.752655	-0.017746
 509	2.5400e-01	9.8523	90.028844	0.000586	5.856605	0.992136	-0.023392
 510	2.5450e-01	9.8318	89.964314	0.000323	3.231231	0.547385	-0.012906
 511	2.5500e-01	9.8126	89.919950	0.000222	2.221471	0.376327	-0.008873
 512	2.5550e-01	9.7925	89.831222	0.000444	4.442942	0.752655	-0.017746
 513	2.5600e-01	9.7720	89.669898	0.000808	8.078077	1.368463	-0.032265
 514	2.5650e-01	9.7522	89.645699	0.000121	1.211711	0.205269	-0.004840
 515	2.5700e-01	9.7333	89.552938	0.000464	4.644894	0.786866	-0.018552
 516	2.5750e-01	9.7125	89.476309	0.000384	3.837086	0.650020	-0.015326
 517	2.5800e-01	9.6924	89.387581	0.000444	4.442942	0.752655	-0.017746
 518	2.5850e-01	9.6729	89.238356	0.000747	7.472221	1.265828	-0.029845
 519	2.5900e-01	9.6530	89.193992	0.000222	2.221471	0.376327	-0.008873
 520	2.5950e-01	9.6326	89.109297	0.000424	4.240990	0.718443	-0.016939
 521	2.6000e-01	9.6124	89.044767	0.000323	3.231231	0.547385	-0.012906
 522	2.6050e-01	9.5923	88.907642	0.000687	6.866365	1.163194	-0.027425
 523	2.6100e-01	9.5724	88.790682	0.000586	5.856605	0.992136	-0.023392
 524	2.6150e-01	9.5526	88.718087	0.000364	3.635134	0.615808	-0.014519
 525	2.6200e-01	9.5325	88.645491	0.000364	3.635134	0.615808	-0.014519
 526	2.6250e-01	9.5129	88.540630	0.000525	5.250750	0.889501	-0.020972
 527	2.6300e-01	9.4922	88.464001	0.000384	3.837086	0.650020	-0.015326
 528	2.6350e-01	9.4720	88.371240	0.000464	4.644894	0.786866	-0.018552
 529	2.6400e-01	9.4525	88.250247	0.000606	6.058557	1.026347	-0.024199
 530	2.6450e-01	9.4324	88.189751	0.000303	3.029279	0.513174	-0.012099
 531	2.6500e-01	9.4128	88.040526	0.000747	7.472221	1.265828	-0.029845
 532	2.6550e-01	9.3921	87.915500	0.000626	6.260509	1.060559	-0.025005
 533	2.6600e-01	9.3719	87.850970	0.000323	3.231231	0.547385	-0.012906
 534	2.6650e-01	9.3539	87.738044	0.000565	5.654654	0.957924	-0.022585
 535	2.6700e-01	9.3317	87.629150	0.000545	5.452702	0.923713	-0.021779
 536	2.6750e-01	9.3121	87.556554	0.000364	3.635134	0.615808	-0.014519
 537	2.6800e-01	9.2932	87.395230	0.000808	8.078077	1.368463	-0.032265
 538	2.6850e-01	9.2725	87.346833	0.000242	2.423423	0.410539	-0.009679
 539	2.6900e-01	9.2529	87.225840	0.000606	6.058557	1.026347	-0.024199
 540	2.6950e-01	9.2328	87.100814	0.000626	6.260509	1.060559	-0.025005
 541	2.7000e-01	9.2126	87.096781	0.000020	0.201952	0.034212	-0.000807
 542	2.7050e-01	9.1925	87.012086	0.000424	4.240990	0.718443	-0.016939
 543	2.7100e-01	9.1721	86.826563	0.000929	9.289788	1.573733	-0.037105
 544	2.7150e-01	9.1522	86.774133	0.000263	2.625375	0.444751	-0.010486
 545	2.7200e-01	9.1327	86.616842	0.000788	7.876125	1.334252	-0.031458
 546	2.7250e-01	9.1116	86.516015	0.000505	5.048798	0.855290	-0.020165
 547	2.7300e-01	9.0930	86.443419	0.000364	3.635134	0.615808	-0.014519
 548	2.7350e-01	9.0729	86.350658	0.000464	4.644894	0.786866	-0.018552
 549	2.7400e-01	9.0515	86.213532	0.000687	6.866365	1.163194	-0.027425
 550	2.7450e-01	9.0320	86.076407	0.000687	6.866365	1.163194	-0.027425
 551	2.7500e-01	9.0112	85.975579	0.000505	5.048798	0.855290	-0.020165
 552	2.7550e-01	8.9911	85.902984	0.000364	3.635134	0.615808	-0.014519
 553	2.7600e-01	8.9719	85.802156	0.000505	5.048798	0.855290	-0.020165
 554	2.7650e-01	8.9532	85.689229	0.000565	5.654654	0.957924	-0.022585
 555	2.7700e-01	8.9313	85.612601	0.000384	3.837086	0.650020	-0.015326
 556	2.7750e-01	8.9120	85.483541	0.000646	6.462461	1.094771	-0.025812
 557	2.7800e-01	8.8919	85.402879	0.000404	4.039038	0.684232	-0.016132
 558	2.7850e-01	8.8727	85.265754	0.000687	6.866365	1.163194	-0.027425
 559	2.7900e-01	8.8527	85.108463	0.000788	7.876125	1.334252	-0.031458
 560	2.7950e-01	8.8321	85.011669	0.000485	4.846846	0.821078	-0.019359
 561	2.8000e-01	8.8123	84.951172	0.000303	3.029279	0.513174	-0.012099
 562	2.8050e-01	8.7933	84.814047	0.000687	6.866365	1.163194	-0.027425
 563	2.8100e-01	8.7726	84.672889	0.000707	7.068317	1.197405	-0.028232
 564	2.8150e-01	8.7524	84.620458	0.000263	2.625375	0.444751	-0.010486
 565	2.8200e-01	8.7317	84.471234	0.000747	7.472221	1.265828	-0.029845
 566	2.8250e-01	8.7134	84.394605	0.000384	3.837086	0.650020	-0.015326
 567	2.8300e-01	8.6926	84.265546	0.000646	6.462461	1.094771	-0.025812
 568	2.8350e-01	8.6731	84.164718	0.000505	5.048798	0.855290	-0.020165
 569	2.8400e-01	8.6530	84.035659	0.000646	6.462461	1.094771	-0.025812
 570	2.8450e-01	8.6328	83.942898	0.000464	4.644894	0.786866	-0.018552
 571	2.8500e-01	8.6133	83.809806	0.000666	6.664413	1.128982	-0.026618
 572	2.8550e-01	8.5919	83.684779	0.000626	6.260509	1.060559	-0.025005
 573	2.8600e-01	8.5727	83.600084	0.000424	4.240990	0.718443	-0.016939
 574	2.8650e-01	8.5529	83.418595	0.000909	9.087836	1.539521	-0.036298
 575	2.8700e-01	8.5339	83.414562	0.000020	0.201952	0.034212	-0.000807
 576	2.8750e-01	8.5120	83.257271	0.000788	7.876125	1.334252	-0.031458
 577	2.8800e-01	8.4937	83.120146	0.000687	6.866365	1.163194	-0.027425
 578	2.8850e-01	8.4723	82.946722	0.000868	8.683932	1.471098	-0.034685
 579	2.8900e-01	8.4531	82.902358	0.000222	2.221471	0.376327	-0.008873
 580	2.8950e-01	8.4332	82.817663	0.000424	4.240990	0.718443	-0.016939
 581	2.9000e-01	8.4125	82.704736	0.000565	5.654654	0.957924	-0.022585
 582	2.9050e-01	8.3929	82.620041	0.000424	4.240990	0.718443	-0.016939
 583	2.9100e-01	8.3710	82.450651	0.000848	8.481980	1.436886	-0.033878
 584	2.9150e-01	8.3530	82.398221	0.000263	2.625375	0.444751	-0.010486
 585	2.9200e-01	8.3331	82.281261	0.000586	5.856605	0.992136	-0.023392
 586	2.9250e-01	8.3118	82.099772	0.000909	9.087836	1.539521	-0.036298
 587	2.9300e-01	8.2935	81.930382	0.000848	8.481980	1.436886	-0.033878
 588	2.9350e-01	8.2727	81.886017	0.000222	2.221471	0.376327	-0.008873
 589	2.9400e-01	8.2532	81.781157	0.000525	5.250750	0.889501	-0.020972
 590	2.9450e-01	8.2336	81.635965	0.000727	7.270269	1.231617	-0.029038
 591	2.9500e-01	8.2123	81.563370	0.000364	3.635134	0.615808	-0.014519
 592	2.9550e-01	8.1927	81.454476	0.000545	5.452702	0.923713	-0.021779
 593	2.9600e-01	8.1732	81.317351	0.000687	6.866365	1.163194	-0.027425
 594	2.9650e-01	8.1525	81.091497	0.001131	11.309307	1.915848	-0.045171
 595	2.9700e-01	8.1326	81.039067	0.000263	2.625375	0.444751	-0.010486
 596	2.9750e-01	8.1122	80.970504	0.000343	3.433183	0.581597	-0.013713
 597	2.9800e-01	8.0927	80.817246	0.000767	7.674173	1.300040	-0.030652
 598	2.9850e-01	8.0725	80.756750	0.000303	3.029279	0.513174	-0.012099
 599	2.9900e-01	8.0542	80.567194	0.000949	9.491740	1.607944	-0.037911
 600	2.9950e-01	8.0328	80.450234	0.000586	5.856605	0.992136	-0.023392
 601	3.0000e-01	8.0127	80.321175	0.000646	6.462461	1.094771	-0.025812
 602	3.0050e-01	7.9922	80.244546	0.000384	3.837086	0.650020	-0.015326
 603	3.0100e-01	7.9724	80.075156	0.000848	8.481980	1.436886	-0.033878
 604	3.0150e-01	7.9523	80.046925	0.000141	1.413663	0.239481	-0.005646
 605	3.0200e-01	7.9327	79.869468	0.000889	8.885884	1.505310	-0.035491
 606	3.0250e-01	7.9120	79.756541	0.000565	5.654654	0.957924	-0.022585
 607	3.0300e-01	7.8918	79.651681	0.000525	5.250750	0.889501	-0.020972
 608	3.0350e-01	7.8729	79.530688	0.000606	6.058557	1.026347	-0.024199
 609	3.0400e-01	7.8534	79.341132	0.000949	9.491740	1.607944	-0.037911
 610	3.0450e-01	7.8320	79.264503	0.000384	3.837086	0.650020	-0.015326
 611	3.0500e-01	7.8125	79.083014	0.000909	9.087836	1.539521	-0.036298
 612	3.0550e-01	7.7924	79.002352	0.000404	4.039038	0.684232	-0.016132
 613	3.0600e-01	7.7731	78.929756	0.000364	3.635134	0.615808	-0.014519
 614	3.0650e-01	7.7527	78.812796	0.000586	5.856605	0.992136	-0.023392
 615	3.0700e-01	7.7322	78.619208	0.000969	9.693692	1.642156	-0.038718
 616	3.0750e-01	7.7130	78.526446	0.000464	4.644894	0.786866	-0.018552
 617	3.0800e-01	7.6929	78.397387	0.000646	6.462461	1.094771	-0.025812
 618	3.0850e-01	7.6730	78.264295	0.000666	6.664413	1.128982	-0.026618
 619	3.0900e-01	7.6526	78.115070	0.000747	7.472221	1.265828	-0.029845
 620	3.0950e-01	7.6324	78.026342	0.000444	4.442942	0.752655	-0.017746
 621	3.1000e-01	7.6126	77.860985	0.000828	8.280028	1.402675	-0.033071
 622	3.1050e-01	7.5922	77.792422	0.000343	3.433183	0.581597	-0.013713
 623	3.1100e-01	7.5714	77.699661	0.000464	4.644894	0.786866	-0.018552
 624	3.1150e-01	7.5528	77.558503	0.000707	7.068317	1.197405	-0.028232
 625	3.1200e-01	7.5323	77.401212	0.000788	7.876125	1.334252	-0.031458
 626	3.1250e-01	7.5122	77.312484	0.000444	4.442942	0.752655	-0.017746
 627	3.1300e-01	7.4933	77.227789	0.000424	4.240990	0.718443	-0.016939
 628	3.1350e-01	7.4725	77.038233	0.000949	9.491740	1.607944	-0.037911
 629	3.1400e-01	7.4530	76.872876	0.000828	8.280028	1.402675	-0.033071
 630	3.1450e-01	7.4323	76.763982	0.000545	5.452702	0.923713	-0.021779
 631	3.1500e-01	7.4121	76.663155	0.000505	5.048798	0.855290	-0.020165
 632	3.1550e-01	7.3926	76.538129	0.000626	6.260509	1.060559	-0.025005
 633	3.1600e-01	7.3737	76.401003	0.000687	6.866365	1.163194	-0.027425
 634	3.1650e-01	7.3526	76.259845	0.000707	7.068317	1.197405	-0.028232
 635	3.1700e-01	7.3334	76.150951	0.000545	5.452702	0.923713	-0.021779
 636	3.1750e-01	7.3135	75.985594	0.000828	8.280028	1.402675	-0.033071
 637	3.1800e-01	7.2931	75.876701	0.000545	5.452702	0.923713	-0.021779
 638	3.1850e-01	7.2723	75.763774	0.000565	5.654654	0.957924	-0.022585
 639	3.1900e-01	7.2528	75.626648	0.000687	6.866365	1.163194	-0.027425
 640	3.1950e-01	7.2321	75.505655	0.000606	6.058557	1.026347	-0.024199
 641	3.2000e-01	7.2125	75.384663	0.000606	6.058557	1.026347	-0.024199
 642	3.2050e-01	7.1930	75.215272	0.000848	8.481980	1.436886	-0.033878
 643	3.2100e-01	7.1722	75.094279	0.000606	6.058557	1.026347	-0.024199
 644	3.2150e-01	7.1539	74.977320	0.000586	5.856605	0.992136	-0.023392
 645	3.2200e-01	7.1332	74.896658	0.000404	4.039038	0.684232	-0.016132
 646	3.2250e-01	7.1127	74.763565	0.000666	6.664413	1.128982	-0.026618
 647	3.2300e-01	7.0929	74.634506	0.000646	6.462461	1.094771	-0.025812
 648	3.2350e-01	7.0724	74.489315	0.000727	7.270269	1.231617	-0.029038
 649	3.2400e-01	7.0526	74.340090	0.000747	7.472221	1.265828	-0.029845
 650	3.2450e-01	7.0331	74.202965	0.000687	6.866365	1.163194	-0.027425
 651	3.2500e-01	7.0129	74.073905	0.000646	6.462461	1.094771	-0.025812
 652	3.2550e-01	6.9925	74.005343	0.000343	3.433183	0.581597	-0.013713
 653	3.2600e-01	6.9720	73.823853	0.000909	9.087836	1.539521	-0.036298
 654	3.2650e-01	6.9525	73.723026	0.000505	5.048798	0.855290	-0.020165
 655	3.2700e-01	6.9318	73.610099	0.000565	5.654654	0.957924	-0.022585
 656	3.2750e-01	6.9123	73.460874	0.000747	7.472221	1.265828	-0.029845
 657	3.2800e-01	6.8933	73.279385	0.000909	9.087836	1.539521	-0.036298
 658	3.2850e-01	6.8719	73.134194	0.000727	7.270269	1.231617	-0.029038
 659	3.2900e-01	6.8527	73.077730	0.000283	2.827327	0.478962	-0.011293
 660	3.2950e-01	6.8323	72.960770	0.000586	5.856605	0.992136	-0.023392
 661	3.3000e-01	6.8127	72.811546	0.000747	7.472221	1.265828	-0.029845
 662	3.3050e-01	6.7932	72.674420	0.000687	6.866365	1.163194	-0.027425
 663	3.3100e-01	6.7725	72.488898	0.000929	9.289788	1.573733	-0.037105
 664	3.3150e-01	6.7523	72.380004	0.000545	5.452702	0.923713	-0.021779
 665	3.3200e-01	6.7328	72.234813	0.000727	7.270269	1.231617	-0.029038
 666	3.3250e-01	6.7122	72.125919	0.000545	5.452702	0.923713	-0.021779
 667	3.3300e-01	6.6937	71.992827	0.000666	6.664413	1.128982	-0.026618
 668	3.3350e-01	6.6727	71.843602	0.000747	7.472221	1.265828	-0.029845
 669	3.3400e-01	6.6528	71.690344	0.000767	7.674173	1.300040	-0.030652
 670	3.3450e-01	6.6327	71.537086	0.000767	7.674173	1.300040	-0.030652
 671	3.3500e-01	6.6138	71.403994	0.000666	6.664413	1.128982	-0.026618
 672	3.3550e-01	6.5918	71.283001	0.000606	6.058557	1.026347	-0.024199
 673	3.3600e-01	6.5738	71.182174	0.000505	5.048798	0.855290	-0.020165
 674	3.3650e-01	6.5530	71.041015	0.000707	7.068317	1.197405	-0.028232
 675	3.3700e-01	6.5323	70.879691	0.000808	8.078077	1.368463	-0.032265
 676	3.3750e-01	6.5128	70.778864	0.000505	5.048798	0.855290	-0.020165
 677	3.3800e-01	6.4929	70.601408	0.000889	8.885884	1.505310	-0.035491
 678	3.3850e-01	6.4728	70.472348	0.000646	6.462461	1.094771	-0.025812
 679	3.3900e-01	6.4532	70.286826	0.000929	9.289788	1.573733	-0.037105
 680	3.3950e-01	6.4325	70.242462	0.000222	2.221471	0.376327	-0.008873
 681	3.4000e-01	6.4130	70.117436	0.000626	6.260509	1.060559	-0.025005
 682	3.4050e-01	6.3922	69.960145	0.000788	7.876125	1.334252	-0.031458
 683	3.4100e-01	6.3733	69.798821	0.000808	8.078077	1.368463	-0.032265
 684	3.4150e-01	6.3519	69.653629	0.000727	7.270269	1.231617	-0.029038
 685	3.4200e-01	6.3324	69.536670	0.000586	5.856605	0.992136	-0.023392
 686	3.4250e-01	6.3116	69.383412	0.000767	7.674173	1.300040	-0.030652
 687	3.4300e-01	6.2933	69.262419	0.000606	6.058557	1.026347	-0.024199
 688	3.4350e-01	6.2729	69.157558	0.000525	5.250750	0.889501	-0.020972
 689	3.4400e-01	6.2524	68.984135	0.000868	8.683932	1.471098	-0.034685
 690	3.4450e-01	6.2335	68.834910	0.000747	7.472221	1.265828	-0.029845
 691	3.4500e-01	6.2134	68.665520	0.000848	8.481980	1.436886	-0.033878
 692	3.4550e-01	6.1934	68.568726	0.000485	4.846846	0.821078	-0.019359
 693	3.4600e-01	6.1740	68.403369	0.000828	8.280028	1.402675	-0.033071
 694	3.4650e-01	6.1530	68.306574	0.000485	4.846846	0.821078	-0.019359
 695	3.4700e-01	6.1322	68.173482	0.000666	6.664413	1.128982	-0.026618
 696	3.4750e-01	6.1133	67.971827	0.001010	10.097596	1.710579	-0.040331
 697	3.4800e-01	6.0931	67.887132	0.000424	4.240990	0.718443	-0.016939
 698	3.4850e-01	6.0724	67.681444	0.001030	10.299548	1.744791	-0.041138
 699	3.4900e-01	6.0535	67.503988	0.000889	8.885884	1.505310	-0.035491
 700	3.4950e-01	6.0330	67.411227	0.000464	4.644894	0.786866	-0.018552
 701	3.5000e-01	6.0132	67.310399	0.000505	5.048798	0.855290	-0.020165
 702	3.5050e-01	5.9921	67.120843	0.000949	9.491740	1.607944	-0.037911
 703	3.5100e-01	5.9735	66.983718	0.000687	6.866365	1.163194	-0.027425
 704	3.5150e-01	5.9534	66.850626	0.000666	6.664413	1.128982	-0.026618
 705	3.5200e-01	5.9332	66.693335	0.000788	7.876125	1.334252	-0.031458
 706	3.5250e-01	5.9128	66.568309	0.000626	6.260509	1.060559	-0.025005
 707	3.5300e-01	5.8936	66.427151	0.000707	7.068317	1.197405	-0.028232
 708	3.5350e-01	5.8722	66.261793	0.000828	8.280028	1.402675	-0.033071
 709	3.5400e-01	5.8527	66.132734	0.000646	6.462461	1.094771	-0.025812
 710	3.5450e-01	5.8331	66.015774	0.000586	5.856605	0.992136	-0.023392
 711	3.5500e-01	5.8130	65.822186	0.000969	9.693692	1.642156	-0.038718
 712	3.5550e-01	5.7932	65.652796	0.000848	8.481980	1.436886	-0.033878
 713	3.5600e-01	5.7727	65.487439	0.000828	8.280028	1.402675	-0.033071
 714	3.5650e-01	5.7526	65.382578	0.000525	5.250750	0.889501	-0.020972
 715	3.5700e-01	5.7324	65.249486	0.000666	6.664413	1.128982	-0.026618
 716	3.5750e-01	5.7132	65.144625	0.000525	5.250750	0.889501	-0.020972
 717	3.5800e-01	5.6934	64.951036	0.000969	9.693692	1.642156	-0.038718
 718	3.5850e-01	5.6717	64.830043	0.000606	6.058557	1.026347	-0.024199
 719	3.5900e-01	5.6532	64.696951	0.000666	6.664413	1.128982	-0.026618
 720	3.5950e-01	5.6329	64.551760	0.000727	7.270269	1.231617	-0.029038
 721	3.6000e-01	5.6128	64.390436	0.000808	8.078077	1.368463	-0.032265
 722	3.6050e-01	5.5930	64.273476	0.000586	5.856605	0.992136	-0.023392
 723	3.6100e-01	5.5725	64.116185	0.000788	7.876125	1.334252	-0.031458
 724	3.6150e-01	5.5530	63.930662	0.000929	9.289788	1.573733	-0.037105
 725	3.6200e-01	5.5325	63.769339	0.000808	8.078077	1.368463	-0.032265
 726	3.6250e-01	5.5127	63.648346	0.000606	6.058557	1.026347	-0.024199
 727	3.6300e-01	5.4929	63.515253	0.000666	6.664413	1.128982	-0.026618
 728	3.6350e-01	5.4727	63.394260	0.000606	6.058557	1.026347	-0.024199
 729	3.6400e-01	5.4529	63.212771	0.000909	9.087836	1.539521	-0.036298
 730	3.6450e-01	5.4315	63.083712	0.000646	6.462461	1.094771	-0.025812
 731	3.6500e-01	5.4126	62.938520	0.000727	7.270269	1.231617	-0.029038
 732	3.6550e-01	5.3931	62.781229	0.000788	7.876125	1.334252	-0.031458
 733	3.6600e-01	5.3717	62.615872	0.000828	8.280028	1.402675	-0.033071
 734	3.6650e-01	5.3534	62.422284	0.000969	9.693692	1.642156	-0.038718
 735	3.6700e-01	5.3326	62.329522	0.000464	4.644894	0.786866	-0.018552
 736	3.6750e-01	5.3125	62.131901	0.000990	9.895644	1.676367	-0.039524
 737	3.6800e-01	5.2927	62.023007	0.000545	5.452702	0.923713	-0.021779
 738	3.6850e-01	5.2734	61.873782	0.000747	7.472221	1.265828	-0.029845
 739	3.6900e-01	5.2521	61.760855	0.000565	5.654654	0.957924	-0.022585
 740	3.6950e-01	5.2325	61.595498	0.000828	8.280028	1.402675	-0.033071
 741	3.7000e-01	5.2124	61.409976	0.000929	9.289788	1.573733	-0.037105
 742	3.7050e-01	5.1920	61.280917	0.000646	6.462461	1.094771	-0.025812
 743	3.7100e-01	5.1724	61.119593	0.000808	8.078077	1.368463	-0.032265
 744	3.7150e-01	5.1520	60.978434	0.000707	7.068317	1.197405	-0.028232
 745	3.7200e-01	5.1328	60.821143	0.000788	7.876125	1.334252	-0.031458
 746	3.7250e-01	5.1123	60.635621	0.000929	9.289788	1.573733	-0.037105
 747	3.7300e-01	5.0922	60.498496	0.000687	6.866365	1.163194	-0.027425
 748	3.7350e-01	5.0720	60.317006	0.000909	9.087836	1.539521	-0.036298
 749	3.7400e-01	5.0519	60.220212	0.000485	4.846846	0.821078	-0.019359
 750	3.7450e-01	5.0320	59.986292	0.001171	11.713211	1.984272	-0.046784
 751	3.7500e-01	5.0134	59.869332	0.000586	5.856605	0.992136	-0.023392
 752	3.7550e-01	4.9928	59.764472	0.000525	5.250750	0.889501	-0.020972
 753	3.7600e-01	4.9731	59.603148	0.000808	8.078077	1.368463	-0.032265
 754	3.7650e-01	4.9530	59.405526	0.000990	9.895644	1.676367	-0.039524
 755	3.7700e-01	4.9329	59.244202	0.000808	8.078077	1.368463	-0.032265
 756	3.7750e-01	4.9123	59.107077	0.000687	6.866365	1.163194	-0.027425
 757	3.7800e-01	4.8926	58.929620	0.000889	8.885884	1.505310	-0.035491
 758	3.7850e-01	4.8734	58.844925	0.000424	4.240990	0.718443	-0.016939
 759	3.7900e-01	4.8526	58.687634	0.000788	7.876125	1.334252	-0.031458
 760	3.7950e-01	4.8334	58.542443	0.000727	7.270269	1.231617	-0.029038
 761	3.8000e-01	4.8127	58.397251	0.000727	7.270269	1.231617	-0.029038
 762	3.8050e-01	4.7928	58.207696	0.000949	9.491740	1.607944	-0.037911
 763	3.8100e-01	4.7729	58.010074	0.000990	9.895644	1.676367	-0.039524
 764	3.8150e-01	4.7528	58.018140	-0.000040	-0.403904	-0.068423	0.001613
 765	3.8200e-01	4.7327	57.675327	0.001717	17.165913	2.907984	-0.068563
 766	3.8250e-01	4.7125	57.610797	0.000323	3.231231	0.547385	-0.012906
 767	3.8300e-01	4.6927	57.376877	0.001171	11.713211	1.984272	-0.046784
 768	3.8350e-01	4.6718	57.223620	0.000767	7.674173	1.300040	-0.030652
 769	3.8400e-01	4.6527	57.078428	0.000727	7.270269	1.231617	-0.029038
 770	3.8450e-01	4.6321	56.941303	0.000687	6.866365	1.163194	-0.027425
 771	3.8500e-01	4.6126	56.739648	0.001010	10.097596	1.710579	-0.040331
 772	3.8550e-01	4.5938	56.610589	0.000646	6.462461	1.094771	-0.025812
 773	3.8600e-01	4.5724	56.469430	0.000707	7.068317	1.197405	-0.028232
 774	3.8650e-01	4.5526	56.247610	0.001111	11.107355	1.881637	-0.044364
 775	3.8700e-01	4.5319	56.118551	0.000646	6.462461	1.094771	-0.025812
 776	3.8750e-01	4.5125	55.973359	0.000727	7.270269	1.231617	-0.029038
 777	3.8800e-01	4.4937	55.799936	0.000868	8.683932	1.471098	-0.034685
 778	3.8850e-01	4.4727	55.630546	0.000848	8.481980	1.436886	-0.033878
 779	3.8900e-01	4.4519	55.509553	0.000606	6.058557	1.026347	-0.024199
 780	3.8950e-01	4.4325	55.360328	0.000747	7.472221	1.265828	-0.029845
 781	3.9000e-01	4.4119	55.154640	0.001030	10.299548	1.744791	-0.041138
 782	3.9050e-01	4.3929	55.037680	0.000586	5.856605	0.992136	-0.023392
 783	3.9100e-01	4.3723	54.868290	0.000848	8.481980	1.436886	-0.033878
 784	3.9150e-01	4.3524	54.662602	0.001030	10.299548	1.744791	-0.041138
 785	3.9200e-01	4.3329	54.545642	0.000586	5.856605	0.992136	-0.023392
 786	3.9250e-01	4.3124	54.384318	0.000808	8.078077	1.368463	-0.032265
 787	3.9300e-01	4.2926	54.222994	0.000808	8.078077	1.368463	-0.032265
 788	3.9350e-01	4.2712	54.097968	0.000626	6.260509	1.060559	-0.025005
 789	3.9400e-01	4.2526	53.851949	0.001232	12.319067	2.086906	-0.049204
 790	3.9450e-01	4.2317	53.722890	0.000646	6.462461	1.094771	-0.025812
 791	3.9500e-01	4.2117	53.513169	0.001050	10.501500	1.779002	-0.041944
 792	3.9550e-01	4.1931	53.388143	0.000626	6.260509	1.060559	-0.025005
 793	3.9600e-01	4.1730	53.206653	0.000909	9.087836	1.539521	-0.036298
 794	3.9650e-01	4.1522	53.000965	0.001030	10.299548	1.744791	-0.041138
 795	3.9700e-01	4.1315	52.964667	0.000182	1.817567	0.307904	-0.007260
 796	3.9750e-01	4.1128	52.698483	0.001333	13.328826	2.257964	-0.053237
 797	3.9800e-01	4.0921	52.549258	0.000747	7.472221	1.265828	-0.029845
 798	3.9850e-01	4.0732	52.359703	0.000949	9.491740	1.607944	-0.037911
 799	3.9900e-01	4.0527	52.218544	0.000707	7.068317	1.197405	-0.028232
 800	3.9950e-01	4.0326	52.073353	0.000727	7.270269	1.231617	-0.029038
 801	4.0000e-01	4.0125	51.924128	0.000747	7.472221	1.265828	-0.029845
 802	4.0050e-01	3.9931	51.730539	0.000969	9.693692	1.642156	-0.038718
 803	4.0100e-01	3.9722	51.557116	0.000868	8.683932	1.471098	-0.034685
 804	4.0150e-01	3.9536	51.424024	0.000666	6.664413	1.128982	-0.026618
 805	4.0200e-01	3.9319	51.242534	0.000909	9.087836	1.539521	-0.036298
 806	4.0250e-01	3.9127	51.024747	0.001091	10.905403	1.847425	-0.043557
 807	4.0300e-01	3.8928	50.948118	0.000384	3.837086	0.650020	-0.015326
 808	4.0350e-01	3.8715	50.690000	0.001292	12.924922	2.189541	-0.051624
 809	4.0400e-01	3.8528	50.581106	0.000545	5.452702	0.923713	-0.021779
 810	4.0450e-01	3.8318	50.472212	0.000545	5.452702	0.923713	-0.021779
 811	4.0500e-01	3.8126	50.214094	0.001292	12.924922	2.189541	-0.051624
 812	4.0550e-01	3.7915	50.016472	0.000990	9.895644	1.676367	-0.039524
 813	4.0600e-01	3.7726	49.899512	0.000586	5.856605	0.992136	-0.023392
 814	4.0650e-01	3.7525	49.685758	0.001070	10.703451	1.813214	-0.042751
 815	4.0700e-01	3.7324	49.568798	0.000586	5.856605	0.992136	-0.023392
 816	4.0750e-01	3.7125	49.367143	0.001010	10.097596	1.710579	-0.040331
 817	4.0800e-01	3.6938	49.242117	0.000626	6.260509	1.060559	-0.025005
 818	4.0850e-01	3.6726	49.068694	0.000868	8.683932	1.471098	-0.034685
 819	4.0900e-01	3.6526	48.850907	0.001091	10.905403	1.847425	-0.043557
 820	4.0950e-01	3.6319	48.746046	0.000525	5.250750	0.889501	-0.020972
 821	4.1000e-01	3.6130	48.512127	0.001171	11.713211	1.984272	-0.046784
 822	4.1050e-01	3.5922	48.383067	0.000646	6.462461	1.094771	-0.025812
 823	4.1100e-01	3.5730	48.189479	0.000969	9.693692	1.642156	-0.038718
 824	4.1150e-01	3.5519	47.995890	0.000969	9.693692	1.642156	-0.038718
 825	4.1200e-01	3.5330	47.891029	0.000525	5.250750	0.889501	-0.020972
 826	4.1250e-01	3.5123	47.713573	0.000889	8.885884	1.505310	-0.035491
 827	4.1300e-01	3.4924	47.580481	0.000666	6.664413	1.128982	-0.026618
 828	4.1350e-01	3.4720	47.261866	0.001595	15.954201	2.702715	-0.063723
 829	4.1400e-01	3.4518	47.148939	0.000565	5.654654	0.957924	-0.022585
 830	4.1450e-01	3.4331	46.975516	0.000868	8.683932	1.471098	-0.034685
 831	4.1500e-01	3.4131	46.794027	0.000909	9.087836	1.539521	-0.036298
 832	4.1550e-01	3.3929	46.669000	0.000626	6.260509	1.060559	-0.025005
 833	4.1600e-01	3.3731	46.447180	0.001111	11.107355	1.881637	-0.044364
 834	4.1650e-01	3.3530	46.233426	0.001070	10.703451	1.813214	-0.042751
 835	4.1700e-01	3.3328	46.088234	0.000727	7.270269	1.231617	-0.029038
 836	4.1750e-01	3.3124	45.926910	0.000808	8.078077	1.368463	-0.032265
 837	4.1800e-01	3.2916	45.725255	0.001010	10.097596	1.710579	-0.040331
 838	4.1850e-01	3.2727	45.563931	0.000808	8.078077	1.368463	-0.032265
 839	4.1900e-01	3.2513	45.390508	0.000868	8.683932	1.471098	-0.034685
 840	4.1950e-01	3.2330	45.217085	0.000868	8.683932	1.471098	-0.034685
 841	4.2000e-01	3.2129	45.015430	0.001010	10.097596	1.710579	-0.040331
 842	4.2050e-01	3.1927	44.862172	0.000767	7.674173	1.300040	-0.030652
 843	4.2100e-01	3.1723	44.721014	0.000707	7.068317	1.197405	-0.028232
 844	4.2150e-01	3.1514	44.503227	0.001091	10.905403	1.847425	-0.043557
 845	4.2200e-01	3.1325	44.370134	0.000666	6.664413	1.128982	-0.026618
 846	4.2250e-01	3.1122	44.184612	0.000929	9.289788	1.573733	-0.037105
 847	4.2300e-01	3.0917	43.978924	0.001030	10.299548	1.744791	-0.041138
 848	4.2350e-01	3.0721	43.797434	0.000909	9.087836	1.539521	-0.036298
 849	4.2400e-01	3.0530	43.793401	0.000020	0.201952	0.034212	-0.000807
 850	4.2450e-01	3.0316	43.446555	0.001737	17.367865	2.942196	-0.069369
 851	4.2500e-01	3.0116	43.265065	0.000909	9.087836	1.539521	-0.036298
 852	4.2550e-01	2.9926	43.111808	0.000767	7.674173	1.300040	-0.030652
 853	4.2600e-01	2.9727	42.873855	0.001192	11.915163	2.018483	-0.047591
 854	4.2650e-01	2.9523	42.684299	0.000949	9.491740	1.607944	-0.037911
 855	4.2700e-01	2.9318	42.547174	0.000687	6.866365	1.163194	-0.027425
 856	4.2750e-01	2.9120	42.369717	0.000889	8.885884	1.505310	-0.035491
 857	4.2800e-01	2.8923	42.196294	0.000868	8.683932	1.471098	-0.034685
 858	4.2850e-01	2.8715	42.002705	0.000969	9.693692	1.642156	-0.038718
 859	4.2900e-01	2.8522	41.849448	0.000767	7.674173	1.300040	-0.030652
 860	4.2950e-01	2.8323	41.603429	0.001232	12.319067	2.086906	-0.049204
 861	4.3000e-01	2.8125	41.470336	0.000666	6.664413	1.128982	-0.026618
 862	4.3050e-01	2.7914	41.280781	0.000949	9.491740	1.607944	-0.037911
 863	4.3100e-01	2.7722	41.111391	0.000848	8.481980	1.436886	-0.033878
 864	4.3150e-01	2.7522	40.893603	0.001091	10.905403	1.847425	-0.043557
 865	4.3200e-01	2.7330	40.744379	0.000747	7.472221	1.265828	-0.029845
 866	4.3250e-01	2.7130	40.530624	0.001070	10.703451	1.813214	-0.042751
 867	4.3300e-01	2.6917	40.353168	0.000889	8.885884	1.505310	-0.035491
 868	4.3350e-01	2.6718	40.191844	0.000808	8.078077	1.368463	-0.032265
 869	4.3400e-01	2.6532	40.010355	0.000909	9.087836	1.539521	-0.036298
 870	4.3450e-01	2.6318	39.873229	0.000687	6.866365	1.163194	-0.027425
 871	4.3500e-01	2.6117	39.598979	0.001373	13.732730	2.326387	-0.054850
 872	4.3550e-01	2.5925	39.486052	0.000565	5.654654	0.957924	-0.022585
 873	4.3600e-01	2.5729	39.280364	0.001030	10.299548	1.744791	-0.041138
 874	4.3650e-01	2.5523	39.086775	0.000969	9.693692	1.642156	-0.038718
 875	4.3700e-01	2.5311	38.929484	0.000788	7.876125	1.334252	-0.031458
 876	4.3750e-01	2.5121	38.772193	0.000788	7.876125	1.334252	-0.031458
 877	4.3800e-01	2.4927	38.506009	0.001333	13.328826	2.257964	-0.053237
 878	4.3850e-01	2.4728	38.312420	0.000969	9.693692	1.642156	-0.038718
 879	4.3900e-01	2.4521	38.179328	0.000666	6.664413	1.128982	-0.026618
 880	4.3950e-01	2.4318	37.989772	0.000949	9.491740	1.607944	-0.037911
 881	4.4000e-01	2.4126	37.800217	0.000949	9.491740	1.607944	-0.037911
 882	4.4050e-01	2.3923	37.622760	0.000889	8.885884	1.505310	-0.035491
 883	4.4100e-01	2.3721	37.425138	0.000990	9.895644	1.676367	-0.039524
 884	4.4150e-01	2.3517	37.267848	0.000788	7.876125	1.334252	-0.031458
 885	4.4200e-01	2.3318	37.046027	0.001111	11.107355	1.881637	-0.044364
 886	4.4250e-01	2.3125	36.852438	0.000969	9.693692	1.642156	-0.038718
 887	4.4300e-01	2.2934	36.695148	0.000788	7.876125	1.334252	-0.031458
 888	4.4350e-01	2.2726	36.469294	0.001131	11.309307	1.915848	-0.045171
 889	4.4400e-01	2.2525	36.295871	0.000868	8.683932	1.471098	-0.034685
 890	4.4450e-01	2.2314	36.126481	0.000848	8.481980	1.436886	-0.033878
 891	4.4500e-01	2.2119	35.864329	0.001313	13.126874	2.223753	-0.052430
 892	4.4550e-01	2.1924	35.771568	0.000464	4.644894	0.786866	-0.018552
 893	4.4600e-01	2.1712	35.586046	0.000929	9.289788	1.573733	-0.037105
 894	4.4650e-01	2.1513	35.352126	0.001171	11.713211	1.984272	-0.046784
 895	4.4700e-01	2.1317	35.194835	0.000788	7.876125	1.334252	-0.031458
 896	4.4750e-01	2.1112	34.968981	0.001131	11.309307	1.915848	-0.045171
 897	4.4800e-01	2.0920	34.795558	0.000868	8.683932	1.471098	-0.034685
 898	4.4850e-01	2.0718	34.593903	0.001010	10.097596	1.710579	-0.040331
 899	4.4900e-01	2.0520	34.364017	0.001151	11.511259	1.950060	-0.045977
 900	4.4950e-01	2.0318	34.174461	0.000949	9.491740	1.607944	-0.037911
 901	4.5000e-01	2.0123	33.988938	0.000929	9.289788	1.573733	-0.037105
 902	4.5050e-01	1.9914	33.823581	0.000828	8.280028	1.402675	-0.033071
 903	4.5100e-01	1.9717	33.678390	0.000727	7.270269	1.231617	-0.029038
 904	4.5150e-01	1.9514	33.460603	0.001091	10.905403	1.847425	-0.043557
 905	4.5200e-01	1.9315	33.271047	0.000949	9.491740	1.607944	-0.037911
 906	4.5250e-01	1.9119	33.097624	0.000868	8.683932	1.471098	-0.034685
 907	4.5300e-01	1.8921	32.875803	0.001111	11.107355	1.881637	-0.044364
 908	4.5350e-01	1.8723	32.702380	0.000868	8.683932	1.471098	-0.034685
 909	4.5400e-01	1.8524	32.532990	0.000848	8.481980	1.436886	-0.033878
 910	4.5450e-01	1.8323	32.295037	0.001192	11.915163	2.018483	-0.047591
 911	4.5500e-01	1.8121	32.145812	0.000747	7.472221	1.265828	-0.029845
 912	4.5550e-01	1.7921	31.928025	0.001091	10.905403	1.847425	-0.043557
 913	4.5600e-01	1.7718	31.714271	0.001070	10.703451	1.813214	-0.042751
 914	4.5650e-01	1.7519	31.512616	0.001010	10.097596	1.710579	-0.040331
 915	4.5700e-01	1.7316	31.379524	0.000666	6.664413	1.128982	-0.026618
 916	4.5750e-01	1.7112	31.177869	0.001010	10.097596	1.710579	-0.040331
 917	4.5800e-01	1.6924	30.992346	0.000929	9.289788	1.573733	-0.037105
 918	4.5850e-01	1.6723	30.766493	0.001131	11.309307	1.915848	-0.045171
 919	4.5900e-01	1.6510	30.580970	0.000929	9.289788	1.573733	-0.037105
 920	4.5950e-01	1.6318	30.403514	0.000889	8.885884	1.505310	-0.035491
 921	4.6000e-01	1.6116	30.226057	0.000889	8.885884	1.505310	-0.035491
 922	4.6050e-01	1.5912	30.036502	0.000949	9.491740	1.607944	-0.037911
 923	4.6100e-01	1.5707	29.790483	0.001232	12.319067	2.086906	-0.049204
 924	4.6150e-01	1.5515	29.653357	0.000687	6.866365	1.163194	-0.027425
 925	4.6200e-01	1.5327	29.435570	0.001091	10.905403	1.847425	-0.043557
 926	4.6250e-01	1.5118	29.197617	0.001192	11.915163	2.018483	-0.047591
 927	4.6300e-01	1.4920	28.975797	0.001111	11.107355	1.881637	-0.044364
 928	4.6350e-01	1.4724	28.842705	0.000666	6.664413	1.128982	-0.026618
 929	4.6400e-01	1.4522	28.673315	0.000848	8.481980	1.436886	-0.033878
 930	4.6450e-01	1.4320	28.479726	0.000969	9.693692	1.642156	-0.038718
 931	4.6500e-01	1.4115	28.261938	0.001091	10.905403	1.847425	-0.043557
 932	4.6550e-01	1.3910	27.979622	0.001414	14.136634	2.394811	-0.056463
 933	4.6600e-01	1.3715	27.794099	0.000929	9.289788	1.573733	-0.037105
 934	4.6650e-01	1.3506	27.717470	0.000384	3.837086	0.650020	-0.015326
 935	4.6700e-01	1.3316	27.471451	0.001232	12.319067	2.086906	-0.049204
 936	4.6750e-01	1.3115	27.265763	0.001030	10.299548	1.744791	-0.041138
 937	4.6800e-01	1.2911	27.060075	0.001030	10.299548	1.744791	-0.041138
 938	4.6850e-01	1.2703	26.862453	0.000990	9.895644	1.676367	-0.039524
 939	4.6900e-01	1.2506	26.689030	0.000868	8.683932	1.471098	-0.034685
 940	4.6950e-01	1.2323	26.374448	0.001575	15.752249	2.668503	-0.062916
 941	4.7000e-01	1.2129	26.188926	0.000929	9.289788	1.573733	-0.037105
 942	4.7050e-01	1.1919	26.051800	0.000687	6.866365	1.163194	-0.027425
 943	4.7100e-01	1.1727	25.878377	0.000868	8.683932	1.471098	-0.034685
 944	4.7150e-01	1.1530	25.684788	0.000969	9.693692	1.642156	-0.038718
 945	4.7200e-01	1.1320	25.527498	0.000788	7.876125	1.334252	-0.031458
 946	4.7250e-01	1.1122	25.237115	0.001454	14.540538	2.463234	-0.058077
 947	4.7300e-01	1.0927	25.035460	0.001010	10.097596	1.710579	-0.040331
 948	4.7350e-01	1.0710	24.858003	0.000889	8.885884	1.505310	-0.035491
 949	4.7400e-01	1.0521	24.696679	0.000808	8.078077	1.368463	-0.032265
 950	4.7450e-01	1.0324	24.519223	0.000889	8.885884	1.505310	-0.035491
 951	4.7500e-01	1.0120	24.249005	0.001353	13.530778	2.292176	-0.054044
 952	4.7550e-01	0.9921	24.002986	0.001232	12.319067	2.086906	-0.049204
 953	4.7600e-01	0.9732	23.853762	0.000747	7.472221	1.265828	-0.029845
 954	4.7650e-01	0.9518	23.668239	0.000929	9.289788	1.573733	-0.037105
 955	4.7700e-01	0.9320	23.478684	0.000949	9.491740	1.607944	-0.037911
 956	4.7750e-01	0.9118	23.240731	0.001192	11.915163	2.018483	-0.047591
 957	4.7800e-01	0.8919	23.018910	0.001111	11.107355	1.881637	-0.044364
 958	4.7850e-01	0.8722	22.869686	0.000747	7.472221	1.265828	-0.029845
 959	4.7900e-01	0.8523	22.655931	0.001070	10.703451	1.813214	-0.042751
 960	4.7950e-01	0.8319	22.482508	0.000868	8.683932	1.471098	-0.034685
 961	4.8000e-01	0.8122	22.256655	0.001131	11.309307	1.915848	-0.045171
 962	4.8050e-01	0.7914	22.038867	0.001091	10.905403	1.847425	-0.043557
 963	4.8100e-01	0.7731	21.861411	0.000889	8.885884	1.505310	-0.035491
 964	4.8150e-01	0.7521	21.667822	0.000969	9.693692	1.642156	-0.038718
 965	4.8200e-01	0.7314	21.417770	0.001252	12.521019	2.121118	-0.050010
 966	4.8250e-01	0.7119	21.252413	0.000828	8.280028	1.402675	-0.033071
 967	4.8300e-01	0.6908	21.042692	0.001050	10.501500	1.779002	-0.041944
 968	4.8350e-01	0.6718	20.824905	0.001091	10.905403	1.847425	-0.043557
 969	4.8400e-01	0.6525	20.607117	0.001091	10.905403	1.847425	-0.043557
 970	4.8450e-01	0.6315	20.365131	0.001212	12.117115	2.052695	-0.048397
 971	4.8500e-01	0.6123	20.207841	0.000788	7.876125	1.334252	-0.031458
 972	4.8550e-01	0.5915	20.006186	0.001010	10.097596	1.710579	-0.040331
 973	4.8600e-01	0.5721	19.788398	0.001091	10.905403	1.847425	-0.043557
 974	4.8650e-01	0.5521	19.578677	0.001050	10.501500	1.779002	-0.041944
 975	4.8700e-01	0.5321	19.405254	0.000868	8.683932	1.471098	-0.034685
 976	4.8750e-01	0.5118	19.191500	0.001070	10.703451	1.813214	-0.042751
 977	4.8800e-01	0.4915	18.985812	0.001030	10.299548	1.744791	-0.041138
 978	4.8850e-01	0.4718	18.747859	0.001192	11.915163	2.018483	-0.047591
 979	4.8900e-01	0.4522	18.538138	0.001050	10.501500	1.779002	-0.041944
 980	4.8950e-01	0.4309	18.316317	0.001111	11.107355	1.881637	-0.044364
 981	4.9000e-01	0.4123	18.150960	0.000828	8.280028	1.402675	-0.033071
 982	4.9050e-01	0.3915	17.929140	0.001111	11.107355	1.881637	-0.044364
 983	4.9100e-01	0.3712	17.747650	0.000909	9.087836	1.539521	-0.036298
 984	4.9150e-01	0.3514	17.537929	0.001050	10.501500	1.779002	-0.041944
 985	4.9200e-01	0.3315	17.324175	0.001070	10.703451	1.813214	-0.042751
 986	4.9250e-01	0.3104	17.114454	0.001050	10.501500	1.779002	-0.041944
 987	4.9300e-01	0.2908	16.945064	0.000848	8.481980	1.436886	-0.033878
 988	4.9350e-01	0.2713	16.723243	0.001111	11.107355	1.881637	-0.044364
 989	4.9400e-01	0.2515	16.465125	0.001292	12.924922	2.189541	-0.051624
 990	4.9450e-01	0.2319	16.299768	0.000828	8.280028	1.402675	-0.033071
 991	4.9500e-01	0.2106	16.086014	0.001070	10.703451	1.813214	-0.042751
 992	4.9550e-01	0.1915	15.908557	0.000889	8.885884	1.505310	-0.035491
 993	4.9600e-01	0.1719	15.698836	0.001050	10.501500	1.779002	-0.041944
 994	4.9650e-01	0.1515	15.464917	0.001171	11.713211	1.984272	-0.046784
 995	4.9700e-01	0.1310	15.222931	0.001212	12.117115	2.052695	-0.048397
 996	4.9750e-01	0.1112	15.017243	0.001030	10.299548	1.744791	-0.041138
 997	4.9800e-01	0.0918	14.807522	0.001050	10.501500	1.779002	-0.041944
 998	4.9850e-01	0.0716	14.626032	0.000909	9.087836	1.539521	-0.036298
 999	4.9900e-01	0.0518	14.400179	0.001131	11.309307	1.915848	-0.045171
1000	4.9950e-01	0.0318	14.166259	0.001171	11.713211	1.984272	-0.046784
1001	5.0000e-01	0.0121	13.988803	0.000889	8.885884	1.505310	-0.035491
1002	5.0050e-01	-0.0089	13.754883	0.001171	11.713211	1.984272	-0.046784
1003	5.0100e-01	-0.0268	13.561294	0.000969	9.693692	1.642156	-0.038718
1004	5.0150e-01	-0.0458	13.408036	0.000767	7.674173	1.300040	-0.030652
1005	5.0200e-01	-0.0672	13.210414	0.000990	9.895644	1.676367	-0.039524
1006	5.0250e-01	-0.0864	12.992627	0.001091	10.905403	1.847425	-0.043557
1007	5.0300e-01	-0.1074	12.778873	0.001070	10.703451	1.813214	-0.042751
1008	5.0350e-01	-0.1267	12.581251	0.000990	9.895644	1.676367	-0.039524
1009	5.0400e-01	-0.1469	12.363464	0.001091	10.905403	1.847425	-0.043557
1010	5.0450e-01	-0.1665	12.149710	0.001070	10.703451	1.813214	-0.042751
1011	5.0500e-01	-0.1869	11.944022	0.001030	10.299548	1.744791	-0.041138
1012	5.0550e-01	-0.2061	11.673804	0.001353	13.530778	2.292176	-0.054044
1013	5.0600e-01	-0.2277	11.464083	0.001050	10.501500	1.779002	-0.041944
1014	5.0650e-01	-0.2479	11.274527	0.000949	9.491740	1.607944	-0.037911
1015	5.0700e-01	-0.2672	11.093038	0.000909	9.087836	1.539521	-0.036298
1016	5.0750e-01	-0.2869	10.851052	0.001212	12.117115	2.052695	-0.048397
1017	5.0800e-01	-0.3065	10.669562	0.000909	9.087836	1.539521	-0.036298
1018	5.0850e-01	-0.3260	10.471941	0.000990	9.895644	1.676367	-0.039524
1019	5.0900e-01	-0.3472	10.153326	0.001595	15.954201	2.702715	-0.063723
1020	5.0950e-01	-0.3664	9.955704	0.000990	9.895644	1.676367	-0.039524
1021	5.1000e-01	-0.3868	9.782281	0.000868	8.683932	1.471098	-0.034685
1022	5.1050e-01	-0.4063	9.572560	0.001050	10.501500	1.779002	-0.041944
1023	5.1100e-01	-0.4263	9.362838	0.001050	10.501500	1.779002	-0.041944
1024	5.1150e-01	-0.4461	9.169250	0.000969	9.693692	1.642156	-0.038718
1025	5.1200e-01	-0.4668	8.939363	0.001151	11.511259	1.950060	-0.045977
1026	5.1250e-01	-0.4866	8.753841	0.000929	9.289788	1.573733	-0.037105
1027	5.1300e-01	-0.5068	8.511855	0.001212	12.117115	2.052695	-0.048397
1028	5.1350e-01	-0.5261	8.330365	0.000909	9.087836	1.539521	-0.036298
1029	5.1400e-01	-0.5466	8.120644	0.001050	10.501500	1.779002	-0.041944
1030	5.1450e-01	-0.5669	7.854460	0.001333	13.328826	2.257964	-0.053237
1031	5.1500e-01	-0.5863	7.681036	0.000868	8.683932	1.471098	-0.034685
1032	5.1550e-01	-0.6063	7.527779	0.000767	7.674173	1.300040	-0.030652
1033	5.1600e-01	-0.6271	7.285793	0.001212	12.117115	2.052695	-0.048397
1034	5.1650e-01	-0.6464	7.084138	0.001010	10.097596	1.710579	-0.040331
1035	5.1700e-01	-0.6667	6.902648	0.000909	9.087836	1.539521	-0.036298
1036	5.1750e-01	-0.6870	6.608232	0.001474	14.742490	2.497445	-0.058883
1037	5.1800e-01	-0.7066	6.426743	0.000909	9.087836	1.539521	-0.036298
1038	5.1850e-01	-0.7264	6.237187	0.000949	9.491740	1.607944	-0.037911
1039	5.1900e-01	-0.7464	5.971002	0.001333	13.328826	2.257964	-0.053237
1040	5.1950e-01	-0.7671	5.809679	0.000808	8.078077	1.368463	-0.032265
1041	5.2000e-01	-0.7869	5.612057	0.000990	9.895644	1.676367	-0.039524
1042	5.2050e-01	-0.8071	5.370071	0.001212	12.117115	2.052695	-0.048397
1043	5.2100e-01	-0.8272	5.128085	0.001212	12.117115	2.052695	-0.048397
1044	5.2150e-01	-0.8465	4.930463	0.000990	9.895644	1.676367	-0.039524
1045	5.2200e-01	-0.8668	4.732841	0.000990	9.895644	1.676367	-0.039524
1046	5.2250e-01	-0.8871	4.523120	0.001050	10.501500	1.779002	-0.041944
1047	5.2300e-01	-0.9077	4.252902	0.001353	13.530778	2.292176	-0.054044
1048	5.2350e-01	-0.9278	4.075446	0.000889	8.885884	1.505310	-0.035491
1049	5.2400e-01	-0.9469	3.845560	0.001151	11.511259	1.950060	-0.045977
1050	5.2450e-01	-0.9676	3.664070	0.000909	9.087836	1.539521	-0.036298
1051	5.2500e-01	-0.9872	3.434183	0.001151	11.511259	1.950060	-0.045977
1052	5.2550e-01	-1.0066	3.236562	0.000990	9.895644	1.676367	-0.039524
1053	5.2600e-01	-1.0276	3.047006	0.000949	9.491740	1.607944	-0.037911
1054	5.2650e-01	-1.0468	2.813086	0.001171	11.713211	1.984272	-0.046784
1055	5.2700e-01	-1.0676	2.587233	0.001131	11.309307	1.915848	-0.045171
1056	5.2750e-01	-1.0873	2.337181	0.001252	12.521019	2.121118	-0.050010
1057	5.2800e-01	-1.1076	2.179890	0.000788	7.876125	1.334252	-0.031458
1058	5.2850e-01	-1.1276	1.998400	0.000909	9.087836	1.539521	-0.036298
1059	5.2900e-01	-1.1475	1.780613	0.001091	10.905403	1.847425	-0.043557
1060	5.2950e-01	-1.1668	1.466031	0.001575	15.752249	2.668503	-0.062916
1061	5.3000e-01	-1.1875	1.288575	0.000889	8.885884	1.505310	-0.035491
1062	5.3050e-01	-1.2074	1.151450	0.000687	6.866365	1.163194	-0.027425
1063	5.3100e-01	-1.2275	0.881232	0.001353	13.530778	2.292176	-0.054044
1064	5.3150e-01	-1.2476	0.651345	0.001151	11.511259	1.950060	-0.045977
1065	5.3200e-01	-1.2681	0.433558	0.001091	10.905403	1.847425	-0.043557
1066	5.3250e-01	-1.2868	0.252069	0.000909	9.087836	1.539521	-0.036298
1067	5.3300e-01	-1.3067	0.054447	0.000990	9.895644	1.676367	-0.039524
1068	5.3350e-01	-1.3268	-0.187539	0.001212	12.117115	2.052695	-0.048397
1069	5.3400e-01	-1.3471	-0.397260	0.001050	10.501500	1.779002	-0.041944
1070	5.3450e-01	-1.3674	-0.615048	0.001091	10.905403	1.847425	-0.043557
1071	5.3500e-01	-1.3862	-0.784438	0.000848	8.481980	1.436886	-0.033878
1072	5.3550e-01	-1.4072	-1.030457	0.001232	12.319067	2.086906	-0.049204
1073	5.3600e-01	-1.4271	-1.256310	0.001131	11.309307	1.915848	-0.045171
1074	5.3650e-01	-1.4464	-1.514429	0.001292	12.924922	2.189541	-0.051624
1075	5.3700e-01	-1.4661	-1.671719	0.000788	7.876125	1.334252	-0.031458
1076	5.3750e-01	-1.4872	-1.873374	0.001010	10.097596	1.710579	-0.040331
1077	5.3800e-01	-1.5069	-2.075029	0.001010	10.097596	1.710579	-0.040331
1078	5.3850e-01	-1.5276	-2.329114	0.001272	12.722971	2.155330	-0.050817
1079	5.3900e-01	-1.5470	-2.526736	0.000990	9.895644	1.676367	-0.039524
1080	5.3950e-01	-1.5664	-2.712259	0.000929	9.289788	1.573733	-0.037105
1081	5.4000e-01	-1.5861	-2.970377	0.001292	12.924922	2.189541	-0.051624
1082	5.4050e-01	-1.6068	-3.135734	0.000828	8.280028	1.402675	-0.033071
1083	5.4100e-01	-1.6264	-3.377720	0.001212	12.117115	2.052695	-0.048397
1084	5.4150e-01	-1.6477	-3.607607	0.001151	11.511259	1.950060	-0.045977
1085	5.4200e-01	-1.6676	-3.865725	0.001292	12.924922	2.189541	-0.051624
1086	5.4250e-01	-1.6873	-3.990751	0.000626	6.260509	1.060559	-0.025005
1087	5.4300e-01	-1.7069	-4.204505	0.001070	10.703451	1.813214	-0.042751
1088	5.4350e-01	-1.7268	-4.434392	0.001151	11.511259	1.950060	-0.045977
1089	5.4400e-01	-1.7478	-4.599749	0.000828	8.280028	1.402675	-0.033071
1090	5.4450e-01	-1.7666	-4.926430	0.001636	16.358105	2.771138	-0.065336
1091	5.4500e-01	-1.7866	-5.075655	0.000747	7.472221	1.265828	-0.029845
1092	5.4550e-01	-1.8073	-5.277310	0.001010	10.097596	1.710579	-0.040331
1093	5.4600e-01	-1.8269	-5.523329	0.001232	12.319067	2.086906	-0.049204
1094	5.4650e-01	-1.8473	-5.724983	0.001010	10.097596	1.710579	-0.040331
1095	5.4700e-01	-1.8673	-5.975036	0.001252	12.521019	2.121118	-0.050010
1096	5.4750e-01	-1.8882	-6.144426	0.000848	8.481980	1.436886	-0.033878
1097	5.4800e-01	-1.9068	-6.354147	0.001050	10.501500	1.779002	-0.041944
1098	5.4850e-01	-1.9270	-6.563868	0.001050	10.501500	1.779002	-0.041944
1099	5.4900e-01	-1.9473	-6.805854	0.001212	12.117115	2.052695	-0.048397
1100	5.4950e-01	-1.9678	-7.027674	0.001111	11.107355	1.881637	-0.044364
1101	5.5000e-01	-1.9877	-7.188998	0.000808	8.078077	1.368463	-0.032265
1102	5.5050e-01	-2.0077	-7.495514	0.001535	15.348345	2.600080	-0.061303
1103	5.5100e-01	-2.0271	-7.644738	0.000747	7.472221	1.265828	-0.029845
1104	5.5150e-01	-2.0470	-8.076280	0.002161	21.608855	3.660639	-0.086308
1105	5.5200e-01	-2.0670	-8.048048	-0.000141	-1.413663	-0.239481	0.005646
1106	5.5250e-01	-2.0875	-8.294067	0.001232	12.319067	2.086906	-0.049204
1107	5.5300e-01	-2.1076	-8.499755	0.001030	10.299548	1.744791	-0.041138
1108	5.5350e-01	-2.1272	-8.721576	0.001111	11.107355	1.881637	-0.044364
1109	5.5400e-01	-2.1473	-8.919198	0.000990	9.895644	1.676367	-0.039524
1110	5.5450e-01	-2.1674	-9.181349	0.001313	13.126874	2.223753	-0.052430
1111	5.5500e-01	-2.1877	-9.374938	0.000969	9.693692	1.642156	-0.038718
1112	5.5550e-01	-2.2082	-9.596758	0.001111	11.107355	1.881637	-0.044364
1113	5.5600e-01	-2.2272	-9.774214	0.000889	8.885884	1.505310	-0.035491
1114	5.5650e-01	-2.2475	-9.987969	0.001070	10.703451	1.813214	-0.042751
1115	5.5700e-01	-2.2669	-10.274319	0.001434	14.338586	2.429022	-0.057270
1116	5.5750e-01	-2.2880	-10.439676	0.000828	8.280028	1.402675	-0.033071
1117	5.5800e-01	-2.3074	-10.613099	0.000868	8.683932	1.471098	-0.034685
1118	5.5850e-01	-2.3269	-10.842986	0.001151	11.511259	1.950060	-0.045977
1119	5.5900e-01	-2.3475	-11.060773	0.001091	10.905403	1.847425	-0.043557
1120	5.5950e-01	-2.3670	-11.250329	0.000949	9.491740	1.607944	-0.037911
1121	5.6000e-01	-2.3872	-11.464083	0.001070	10.703451	1.813214	-0.042751
1122	5.6050e-01	-2.4079	-11.685903	0.001111	11.107355	1.881637	-0.044364
1123	5.6100e-01	-2.4276	-11.827062	0.000707	7.068317	1.197405	-0.028232
1124	5.6150e-01	-2.4479	-12.137610	0.001555	15.550297	2.634292	-0.062110
1125	5.6200e-01	-2.4679	-12.290868	0.000767	7.674173	1.300040	-0.030652
1126	5.6250e-01	-2.4883	-12.520755	0.001151	11.511259	1.950060	-0.045977
1127	5.6300e-01	-2.5080	-12.730476	0.001050	10.501500	1.779002	-0.041944
1128	5.6350e-01	-2.5285	-12.924064	0.000969	9.693692	1.642156	-0.038718
1129	5.6400e-01	-2.5474	-13.141852	0.001091	10.905403	1.847425	-0.043557
1130	5.6450e-01	-2.5672	-13.404003	0.001313	13.126874	2.223753	-0.052430
1131	5.6500e-01	-2.5867	-13.537095	0.000666	6.664413	1.128982	-0.026618
1132	5.6550e-01	-2.6072	-13.799247	0.001313	13.126874	2.223753	-0.052430
1133	5.6600e-01	-2.6276	-13.976703	0.000889	8.885884	1.505310	-0.035491
1134	5.6650e-01	-2.6467	-14.202557	0.001131	11.309307	1.915848	-0.045171
1135	5.6700e-01	-2.6679	-14.456642	0.001272	12.722971	2.155330	-0.050817
1136	5.6750e-01	-2.6875	-14.609900	0.000767	7.674173	1.300040	-0.030652
1137	5.6800e-01	-2.7070	-14.880117	0.001353	13.530778	2.292176	-0.054044
1138	5.6850e-01	-2.7274	-15.061607	0.000909	9.087836	1.539521	-0.036298
1139	5.6900e-01	-2.7466	-15.279394	0.001091	10.905403	1.847425	-0.043557
1140	5.6950e-01	-2.7668	-15.464917	0.000929	9.289788	1.573733	-0.037105
1141	5.7000e-01	-2.7877	-15.690770	0.001131	11.309307	1.915848	-0.045171
1142	5.7050e-01	-2.8083	-15.835962	0.000727	7.270269	1.231617	-0.029038
1143	5.7100e-01	-2.8272	-16.086014	0.001252	12.521019	2.121118	-0.050010
1144	5.7150e-01	-2.8480	-16.328000	0.001212	12.117115	2.052695	-0.048397
1145	5.7200e-01	-2.8669	-16.541754	0.001070	10.703451	1.813214	-0.042751
1146	5.7250e-01	-2.8870	-16.690979	0.000747	7.472221	1.265828	-0.029845
1147	5.7300e-01	-2.9081	-16.941031	0.001252	12.521019	2.121118	-0.050010
1148	5.7350e-01	-2.9267	-17.142686	0.001010	10.097596	1.710579	-0.040331
1149	5.7400e-01	-2.9472	-17.344341	0.001010	10.097596	1.710579	-0.040331
1150	5.7450e-01	-2.9676	-17.610525	0.001333	13.328826	2.257964	-0.053237
1151	5.7500e-01	-2.9881	-17.751683	0.000707	7.068317	1.197405	-0.028232
1152	5.7550e-01	-3.0077	-17.985603	0.001171	11.713211	1.984272	-0.046784
1153	5.7600e-01	-3.0277	-18.154993	0.000848	8.481980	1.436886	-0.033878
1154	5.7650e-01	-3.0473	-18.360681	0.001030	10.299548	1.744791	-0.041138
1155	5.7700e-01	-3.0677	-18.546204	0.000929	9.289788	1.573733	-0.037105
1156	5.7750e-01	-3.0869	-18.792223	0.001232	12.319067	2.086906	-0.049204
1157	5.7800e-01	-3.1074	-19.038242	0.001232	12.319067	2.086906	-0.049204
1158	5.7850e-01	-3.1269	-19.219731	0.000909	9.087836	1.539521	-0.036298
1159	5.7900e-01	-3.1477	-19.477850	0.001292	12.924922	2.189541	-0.051624
1160	5.7950e-01	-3.1672	-19.627074	0.000747	7.472221	1.265828	-0.029845
1161	5.8000e-01	-3.1881	-19.844862	0.001091	10.905403	1.847425	-0.043557
1162	5.8050e-01	-3.2082	-20.054583	0.001050	10.501500	1.779002	-0.041944
1163	5.8100e-01	-3.2276	-20.228006	0.000868	8.683932	1.471098	-0.034685
1164	5.8150e-01	-3.2471	-20.441760	0.001070	10.703451	1.813214	-0.042751
1165	5.8200e-01	-3.2674	-20.695845	0.001272	12.722971	2.155330	-0.050817
1166	5.8250e-01	-3.2874	-20.837004	0.000707	7.068317	1.197405	-0.028232
1167	5.8300e-01	-3.3076	-21.123354	0.001434	14.338586	2.429022	-0.057270
1168	5.8350e-01	-3.3277	-21.268545	0.000727	7.270269	1.231617	-0.029038
1169	5.8400e-01	-3.3475	-21.454068	0.000929	9.289788	1.573733	-0.037105
1170	5.8450e-01	-3.3683	-21.643624	0.000949	9.491740	1.607944	-0.037911
1171	5.8500e-01	-3.3869	-21.901742	0.001292	12.924922	2.189541	-0.051624
1172	5.8550e-01	-3.4077	-22.107430	0.001030	10.299548	1.744791	-0.041138
1173	5.8600e-01	-3.4273	-22.276820	0.000848	8.481980	1.436886	-0.033878
1174	5.8650e-01	-3.4473	-22.506707	0.001151	11.511259	1.950060	-0.045977
1175	5.8700e-01	-3.4676	-22.724494	0.001091	10.905403	1.847425	-0.043557
1176	5.8750e-01	-3.4873	-22.897917	0.000868	8.683932	1.471098	-0.034685
1177	5.8800e-01	-3.5072	-23.107638	0.001050	10.501500	1.779002	-0.041944
1178	5.8850e-01	-3.5279	-23.268962	0.000808	8.078077	1.368463	-0.032265
1179	5.8900e-01	-3.5471	-23.442386	0.000868	8.683932	1.471098	-0.034685
1180	5.8950e-01	-3.5676	-23.696471	0.001272	12.722971	2.155330	-0.050817
1181	5.9000e-01	-3.5871	-23.930391	0.001171	11.713211	1.984272	-0.046784
1182	5.9050e-01	-3.6073	-24.140112	0.001050	10.501500	1.779002	-0.041944
1183	5.9100e-01	-3.6282	-24.345800	0.001030	10.299548	1.744791	-0.041138
1184	5.9150e-01	-3.6478	-24.515190	0.000848	8.481980	1.436886	-0.033878
1185	5.9200e-01	-3.6674	-24.749110	0.001171	11.713211	1.984272	-0.046784
1186	5.9250e-01	-3.6881	-24.922533	0.000868	8.683932	1.471098	-0.034685
1187	5.9300e-01	-3.7077	-25.128221	0.001030	10.299548	1.744791	-0.041138
1188	5.9350e-01	-3.7281	-25.337942	0.001050	10.501500	1.779002	-0.041944
1189	5.9400e-01	-3.7470	-25.672689	0.001676	16.762009	2.839561	-0.066949
1190	5.9450e-01	-3.7672	-25.676722	0.000020	0.201952	0.034212	-0.000807
1191	5.9500e-01	-3.7879	-25.938874	0.001313	13.126874	2.223753	-0.052430
1192	5.9550e-01	-3.8078	-26.100198	0.000808	8.078077	1.368463	-0.032265
1193	5.9600e-01	-3.8270	-26.313952	0.001070	10.703451	1.813214	-0.042751
1194	5.9650e-01	-3.8483	-26.568037	0.001272	12.722971	2.155330	-0.050817
1195	5.9700e-01	-3.8674	-26.672898	0.000525	5.250750	0.889501	-0.020972
1196	5.9750e-01	-3.8868	-26.914884	0.001212	12.117115	2.052695	-0.048397
1197	5.9800e-01	-3.9075	-27.156869	0.001212	12.117115	2.052695	-0.048397
1198	5.9850e-01	-3.9271	-27.306094	0.000747	7.472221	1.265828	-0.029845
1199	5.9900e-01	-3.9463	-27.548080	0.001212	12.117115	2.052695	-0.048397
1200	5.9950e-01	-3.9668	-27.709404	0.000808	8.078077	1.368463	-0.032265
1201	6.0000e-01	-3.9864	-27.943324	0.001171	11.713211	1.984272	-0.046784
1202	6.0050e-01	-4.0070	-28.132879	0.000949	9.491740	1.607944	-0.037911
1203	6.0100e-01	-4.0278	-28.286137	0.000767	7.674173	1.300040	-0.030652
1204	6.0150e-01	-4.0473	-28.471660	0.000929	9.289788	1.573733	-0.037105
1205	6.0200e-01	-4.0668	-28.713645	0.001212	12.117115	2.052695	-0.048397
1206	6.0250e-01	-4.0873	-28.931433	0.001091	10.905403	1.847425	-0.043557
1207	6.0300e-01	-4.1080	-29.125022	0.000969	9.693692	1.642156	-0.038718
1208	6.0350e-01	-4.1274	-29.338776	0.001070	10.703451	1.813214	-0.042751
1209	6.0400e-01	-4.1468	-29.467835	0.000646	6.462461	1.094771	-0.025812
1210	6.0450e-01	-4.1682	-29.697722	0.001151	11.511259	1.950060	-0.045977
1211	6.0500e-01	-4.1866	-29.883244	0.000929	9.289788	1.573733	-0.037105
1212	6.0550e-01	-4.2075	-30.121197	0.001192	11.915163	2.018483	-0.047591
1213	6.0600e-01	-4.2274	-30.298653	0.000889	8.885884	1.505310	-0.035491
1214	6.0650e-01	-4.2475	-30.508374	0.001050	10.501500	1.779002	-0.041944
1215	6.0700e-01	-4.2670	-30.657599	0.000747	7.472221	1.265828	-0.029845
1216	6.0750e-01	-4.2878	-30.903618	0.001232	12.319067	2.086906	-0.049204
1217	6.0800e-01	-4.3075	-31.077041	0.000868	8.683932	1.471098	-0.034685
1218	6.0850e-01	-4.3281	-31.282729	0.001030	10.299548	1.744791	-0.041138
1219	6.0900e-01	-4.3470	-31.464219	0.000909	9.087836	1.539521	-0.036298
1220	6.0950e-01	-4.3678	-31.649741	0.000929	9.289788	1.573733	-0.037105
1221	6.1000e-01	-4.3873	-31.895760	0.001232	12.319067	2.086906	-0.049204
1222	6.1050e-01	-4.4082	-32.044985	0.000747	7.472221	1.265828	-0.029845
1223	6.1100e-01	-4.4276	-32.246640	0.001010	10.097596	1.710579	-0.040331
1224	6.1150e-01	-4.4483	-32.440229	0.000969	9.693692	1.642156	-0.038718
1225	6.1200e-01	-4.4678	-32.666082	0.001131	11.309307	1.915848	-0.045171
1226	6.1250e-01	-4.4868	-32.887903	0.001111	11.107355	1.881637	-0.044364
1227	6.1300e-01	-4.5075	-33.097624	0.001050	10.501500	1.779002	-0.041944
1228	6.1350e-01	-4.5271	-33.234749	0.000687	6.866365	1.163194	-0.027425
1229	6.1400e-01	-4.5472	-33.444470	0.001050	10.501500	1.779002	-0.041944
1230	6.1450e-01	-4.5679	-33.638059	0.000969	9.693692	1.642156	-0.038718
1231	6.1500e-01	-4.5875	-33.823581	0.000929	9.289788	1.573733	-0.037105
1232	6.1550e-01	-4.6076	-33.992972	0.000848	8.481980	1.436886	-0.033878
1233	6.1600e-01	-4.6278	-34.194626	0.001010	10.097596	1.710579	-0.040331
1234	6.1650e-01	-4.6476	-34.388215	0.000969	9.693692	1.642156	-0.038718
1235	6.1700e-01	-4.6677	-34.626168	0.001192	11.915163	2.018483	-0.047591
1236	6.1750e-01	-4.6870	-34.843955	0.001091	10.905403	1.847425	-0.043557
1237	6.1800e-01	-4.7071	-34.997213	0.000767	7.674173	1.300040	-0.030652
1238	6.1850e-01	-4.7280	-35.194835	0.000990	9.895644	1.676367	-0.039524
1239	6.1900e-01	-4.7477	-35.408589	0.001070	10.703451	1.813214	-0.042751
1240	6.1950e-01	-4.7681	-35.594112	0.000929	9.289788	1.573733	-0.037105
1241	6.2000e-01	-4.7878	-35.747369	0.000767	7.674173	1.300040	-0.030652
1242	6.2050e-01	-4.8081	-35.989355	0.001212	12.117115	2.052695	-0.048397
1243	6.2100e-01	-4.8275	-36.122448	0.000666	6.664413	1.128982	-0.026618
1244	6.2150e-01	-4.8481	-36.307970	0.000929	9.289788	1.573733	-0.037105
1245	6.2200e-01	-4.8685	-36.485427	0.000889	8.885884	1.505310	-0.035491
1246	6.2250e-01	-4.8872	-36.731446	0.001232	12.319067	2.086906	-0.049204
1247	6.2300e-01	-4.9076	-36.884703	0.000767	7.674173	1.300040	-0.030652
1248	6.2350e-01	-4.9274	-37.098457	0.001070	10.703451	1.813214	-0.042751
1249	6.2400e-01	-4.9476	-37.324311	0.001131	11.309307	1.915848	-0.045171
1250	6.2450e-01	-4.9683	-37.485635	0.000808	8.078077	1.368463	-0.032265
1251	6.2500e-01	-4.9879	-37.707455	0.001111	11.107355	1.881637	-0.044364
1252	6.2550e-01	-5.0077	-37.929276	0.001111	11.107355	1.881637	-0.044364
1253	6.2600e-01	-5.0272	-38.086567	0.000788	7.876125	1.334252	-0.031458
1254	6.2650e-01	-5.0495	-38.255957	0.000848	8.481980	1.436886	-0.033878
1255	6.2700e-01	-5.0674	-38.441479	0.000929	9.289788	1.573733	-0.037105
1256	6.2750e-01	-5.0877	-38.639101	0.000990	9.895644	1.676367	-0.039524
1257	6.2800e-01	-5.1075	-38.868988	0.001151	11.511259	1.950060	-0.045977
1258	6.2850e-01	-5.1276	-39.038378	0.000848	8.481980	1.436886	-0.033878
1259	6.2900e-01	-5.1484	-39.171470	0.000666	6.664413	1.128982	-0.026618
1260	6.2950e-01	-5.1679	-39.441688	0.001353	13.530778	2.292176	-0.054044
1261	6.3000e-01	-5.1875	-39.566714	0.000626	6.260509	1.060559	-0.025005
1262	6.3050e-01	-5.2076	-39.772402	0.001030	10.299548	1.744791	-0.041138
1263	6.3100e-01	-5.2280	-39.974057	0.001010	10.097596	1.710579	-0.040331
1264	6.3150e-01	-5.2479	-40.159579	0.000929	9.289788	1.573733	-0.037105
1265	6.3200e-01	-5.2677	-40.385433	0.001131	11.309307	1.915848	-0.045171
1266	6.3250e-01	-5.2882	-40.583055	0.000990	9.895644	1.676367	-0.039524
1267	6.3300e-01	-5.3084	-40.772610	0.000949	9.491740	1.607944	-0.037911
1268	6.3350e-01	-5.3284	-40.966199	0.000969	9.693692	1.642156	-0.038718
1269	6.3400e-01	-5.3474	-41.075093	0.000545	5.452702	0.923713	-0.021779
1270	6.3450e-01	-5.3681	-41.264648	0.000949	9.491740	1.607944	-0.037911
1271	6.3500e-01	-5.3878	-41.526800	0.001313	13.126874	2.223753	-0.052430
1272	6.3550e-01	-5.4072	-41.704256	0.000889	8.885884	1.505310	-0.035491
1273	6.3600e-01	-5.4285	-41.897845	0.000969	9.693692	1.642156	-0.038718
1274	6.3650e-01	-5.4482	-42.192261	0.001474	14.742490	2.497445	-0.058883
1275	6.3700e-01	-5.4673	-42.204360	0.000061	0.605856	0.102635	-0.002420
1276	6.3750e-01	-5.4877	-42.450379	0.001232	12.319067	2.086906	-0.049204
1277	6.3800e-01	-5.5074	-42.664134	0.001070	10.703451	1.813214	-0.042751
1278	6.3850e-01	-5.5280	-42.918219	0.001272	12.722971	2.155330	-0.050817
1279	6.3900e-01	-5.5477	-43.027112	0.000545	5.452702	0.923713	-0.021779
1280	6.3950e-01	-5.5679	-43.261032	0.001171	11.713211	1.984272	-0.046784
1281	6.4000e-01	-5.5878	-43.394124	0.000666	6.664413	1.128982	-0.026618
1282	6.4050e-01	-5.6080	-43.640143	0.001232	12.319067	2.086906	-0.049204
1283	6.4100e-01	-5.6275	-43.841798	0.001010	10.097596	1.710579	-0.040331
1284	6.4150e-01	-5.6474	-44.007155	0.000828	8.280028	1.402675	-0.033071
1285	6.4200e-01	-5.6684	-44.224943	0.001091	10.905403	1.847425	-0.043557
1286	6.4250e-01	-5.6873	-44.394333	0.000848	8.481980	1.436886	-0.033878
1287	6.4300e-01	-5.7078	-44.547591	0.000767	7.674173	1.300040	-0.030652
1288	6.4350e-01	-5.7276	-44.809742	0.001313	13.126874	2.223753	-0.052430
1289	6.4400e-01	-5.7484	-44.942834	0.000666	6.664413	1.128982	-0.026618
1290	6.4450e-01	-5.7673	-45.180787	0.001192	11.915163	2.018483	-0.047591
1291	6.4500e-01	-5.7882	-45.330012	0.000747	7.472221	1.265828	-0.029845
1292	6.4550e-01	-5.8082	-45.551832	0.001111	11.107355	1.881637	-0.044364
1293	6.4600e-01	-5.8283	-45.757520	0.001030	10.299548	1.744791	-0.041138
1294	6.4650e-01	-5.8479	-45.926910	0.000848	8.481980	1.436886	-0.033878
1295	6.4700e-01	-5.8686	-46.160830	0.001171	11.713211	1.984272	-0.046784
1296	6.4750e-01	-5.8877	-46.362485	0.001010	10.097596	1.710579	-0.040331
1297	6.4800e-01	-5.9083	-46.507677	0.000727	7.270269	1.231617	-0.029038
1298	6.4850e-01	-5.9278	-46.717398	0.001050	10.501500	1.779002	-0.041944
1299	6.4900e-01	-5.9489	-46.906953	0.000949	9.491740	1.607944	-0.037911
1300	6.4950e-01	-5.9681	-47.092476	0.000929	9.289788	1.573733	-0.037105
1301	6.5000e-01	-5.9882	-47.269932	0.000889	8.885884	1.505310	-0.035491
1302	6.5050e-01	-6.0078	-47.499819	0.001151	11.511259	1.950060	-0.045977
1303	6.5100e-01	-6.0285	-47.725672	0.001131	11.309307	1.915848	-0.045171
1304	6.5150e-01	-6.0490	-47.850698	0.000626	6.260509	1.060559	-0.025005
1305	6.5200e-01	-6.0682	-48.237876	0.001939	19.387384	3.284312	-0.077435
1306	6.5250e-01	-6.0877	-48.254008	0.000081	0.807808	0.136846	-0.003226
1307	6.5300e-01	-6.1082	-48.556491	0.001515	15.146394	2.565869	-0.060496
1308	6.5350e-01	-6.1282	-48.673450	0.000586	5.856605	0.992136	-0.023392
1309	6.5400e-01	-6.1488	-48.814609	0.000707	7.068317	1.197405	-0.028232
1310	6.5450e-01	-6.1683	-49.048529	0.001171	11.713211	1.984272	-0.046784
1311	6.5500e-01	-6.1884	-49.250184	0.001010	10.097596	1.710579	-0.040331
1312	6.5550e-01	-6.2080	-49.480070	0.001151	11.511259	1.950060	-0.045977
1313	6.5600e-01	-6.2281	-49.673659	0.000969	9.693692	1.642156	-0.038718
1314	6.5650e-01	-6.2482	-49.818850	0.000727	7.270269	1.231617	-0.029038
1315	6.5700e-01	-6.2678	-50.089068	0.001353	13.530778	2.292176	-0.054044
1316	6.5750e-01	-6.2885	-50.242326	0.000767	7.674173	1.300040	-0.030652
1317	6.5800e-01	-6.3094	-50.492378	0.001252	12.521019	2.121118	-0.050010
1318	6.5850e-01	-6.3288	-50.641603	0.000747	7.472221	1.265828	-0.029845
1319	6.5900e-01	-6.3477	-50.815026	0.000868	8.683932	1.471098	-0.034685
1320	6.5950e-01	-6.3679	-51.036846	0.001111	11.107355	1.881637	-0.044364
1321	6.6000e-01	-6.3868	-51.182038	0.000727	7.270269	1.231617	-0.029038
1322	6.6050e-01	-6.4088	-51.456289	0.001373	13.732730	2.326387	-0.054850
1323	6.6100e-01	-6.4283	-51.609546	0.000767	7.674173	1.300040	-0.030652
1324	6.6150e-01	-6.4487	-51.843466	0.001171	11.713211	1.984272	-0.046784
1325	6.6200e-01	-6.4680	-52.012856	0.000848	8.481980	1.436886	-0.033878
1326	6.6250e-01	-6.4881	-52.214511	0.001010	10.097596	1.710579	-0.040331
1327	6.6300e-01	-6.5083	-52.396000	0.000909	9.087836	1.539521	-0.036298
1328	6.6350e-01	-6.5284	-52.650086	0.001272	12.722971	2.155330	-0.050817
1329	6.6400e-01	-6.5491	-52.884005	0.001171	11.713211	1.984272	-0.046784
1330	6.6450e-01	-6.5687	-53.029197	0.000727	7.270269	1.231617	-0.029038
1331	6.6500e-01	-6.5885	-53.198587	0.000848	8.481980	1.436886	-0.033878
1332	6.6550e-01	-6.6087	-53.424441	0.001131	11.309307	1.915848	-0.045171
1333	6.6600e-01	-6.6288	-53.638195	0.001070	10.703451	1.813214	-0.042751
1334	6.6650e-01	-6.6483	-53.827750	0.000949	9.491740	1.607944	-0.037911
1335	6.6700e-01	-6.6688	-54.041505	0.001070	10.703451	1.813214	-0.042751
1336	6.6750e-01	-6.6877	-54.227027	0.000929	9.289788	1.573733	-0.037105
1337	6.6800e-01	-6.7072	-54.448848	0.001111	11.107355	1.881637	-0.044364
1338	6.6850e-01	-6.7280	-54.666635	0.001091	10.905403	1.847425	-0.043557
1339	6.6900e-01	-6.7483	-54.868290	0.001010	10.097596	1.710579	-0.040331
1340	6.6950e-01	-6.7677	-55.069945	0.001010	10.097596	1.710579	-0.040331
1341	6.7000e-01	-6.7896	-55.259500	0.000949	9.491740	1.607944	-0.037911
1342	6.7050e-01	-6.8079	-55.501486	0.001212	12.117115	2.052695	-0.048397
1343	6.7100e-01	-6.8281	-55.630546	0.000646	6.462461	1.094771	-0.025812
1344	6.7150e-01	-6.8485	-55.860432	0.001151	11.511259	1.950060	-0.045977
1345	6.7200e-01	-6.8685	-56.054021	0.000969	9.693692	1.642156	-0.038718
1346	6.7250e-01	-6.8873	-56.247610	0.000969	9.693692	1.642156	-0.038718
1347	6.7300e-01	-6.9086	-56.473463	0.001131	11.309307	1.915848	-0.045171
1348	6.7350e-01	-6.9291	-56.711416	0.001192	11.915163	2.018483	-0.047591
1349	6.7400e-01	-6.9483	-56.884839	0.000868	8.683932	1.471098	-0.034685
1350	6.7450e-01	-6.9685	-57.038097	0.000767	7.674173	1.300040	-0.030652
1351	6.7500e-01	-6.9886	-57.272017	0.001171	11.713211	1.984272	-0.046784
1352	6.7550e-01	-7.0075	-57.477705	0.001030	10.299548	1.744791	-0.041138
1353	6.7600e-01	-7.0283	-57.711624	0.001171	11.713211	1.984272	-0.046784
1354	6.7650e-01	-7.0484	-57.889081	0.000889	8.885884	1.505310	-0.035491
1355	6.7700e-01	-7.0679	-58.106868	0.001091	10.905403	1.847425	-0.043557
1356	6.7750e-01	-7.0878	-58.364986	0.001292	12.924922	2.189541	-0.051624
1357	6.7800e-01	-7.1079	-58.502112	0.000687	6.866365	1.163194	-0.027425
1358	6.7850e-01	-7.1290	-58.727965	0.001131	11.309307	1.915848	-0.045171
1359	6.7900e-01	-7.1491	-58.933653	0.001030	10.299548	1.744791	-0.041138
1360	6.7950e-01	-7.1690	-59.183705	0.001252	12.521019	2.121118	-0.050010
1361	6.8000e-01	-7.1882	-59.332930	0.000747	7.472221	1.265828	-0.029845
1362	6.8050e-01	-7.2077	-59.550717	0.001091	10.905403	1.847425	-0.043557
1363	6.8100e-01	-7.2279	-59.703975	0.000767	7.674173	1.300040	-0.030652
1364	6.8150e-01	-7.2486	-59.998391	0.001474	14.742490	2.497445	-0.058883
1365	6.8200e-01	-7.2688	-60.151649	0.000767	7.674173	1.300040	-0.030652
1366	6.8250e-01	-7.2877	-60.409767	0.001292	12.924922	2.189541	-0.051624
1367	6.8300e-01	-7.3084	-60.607389	0.000990	9.895644	1.676367	-0.039524
1368	6.8350e-01	-7.3280	-60.809044	0.001010	10.097596	1.710579	-0.040331
1369	6.8400e-01	-7.3493	-61.018765	0.001050	10.501500	1.779002	-0.041944
1370	6.8450e-01	-7.3689	-61.264784	0.001232	12.319067	2.086906	-0.049204
1371	6.8500e-01	-7.3890	-61.450307	0.000929	9.289788	1.573733	-0.037105
1372	6.8550e-01	-7.4085	-61.631796	0.000909	9.087836	1.539521	-0.036298
1373	6.8600e-01	-7.4281	-61.869749	0.001192	11.915163	2.018483	-0.047591
1374	6.8650e-01	-7.4482	-62.047205	0.000889	8.885884	1.505310	-0.035491
1375	6.8700e-01	-7.4686	-62.289191	0.001212	12.117115	2.052695	-0.048397
1376	6.8750e-01	-7.4885	-62.442449	0.000767	7.674173	1.300040	-0.030652
1377	6.8800e-01	-7.5080	-62.700567	0.001292	12.924922	2.189541	-0.051624
1378	6.8850e-01	-7.5288	-62.878024	0.000889	8.885884	1.505310	-0.035491
1379	6.8900e-01	-7.5483	-63.111943	0.001171	11.713211	1.984272	-0.046784
1380	6.8950e-01	-7.5681	-63.370062	0.001292	12.924922	2.189541	-0.051624
1381	6.9000e-01	-7.5886	-63.523320	0.000767	7.674173	1.300040	-0.030652
1382	6.9050e-01	-7.6072	-63.765305	0.001212	12.117115	2.052695	-0.048397
1383	6.9100e-01	-7.6286	-63.962927	0.000990	9.895644	1.676367	-0.039524
1384	6.9150e-01	-7.6484	-64.160549	0.000990	9.895644	1.676367	-0.039524
1385	6.9200e-01	-7.6673	-64.354138	0.000969	9.693692	1.642156	-0.038718
1386	6.9250e-01	-7.6881	-64.579991	0.001131	11.309307	1.915848	-0.045171
1387	6.9300e-01	-7.7070	-64.793746	0.001070	10.703451	1.813214	-0.042751
1388	6.9350e-01	-7.7280	-65.011533	0.001091	10.905403	1.847425	-0.043557
1389	6.9400e-01	-7.7482	-65.213188	0.001010	10.097596	1.710579	-0.040331
1390	6.9450e-01	-7.7674	-65.447108	0.001171	11.713211	1.984272	-0.046784
1391	6.9500e-01	-7.7869	-65.652796	0.001030	10.299548	1.744791	-0.041138
1392	6.9550e-01	-7.8077	-65.870583	0.001091	10.905403	1.847425	-0.043557
1393	6.9600e-01	-7.8272	-66.120635	0.001252	12.521019	2.121118	-0.050010
1394	6.9650e-01	-7.8474	-66.306158	0.000929	9.289788	1.573733	-0.037105
1395	6.9700e-01	-7.8675	-66.326323	0.000101	1.009760	0.171058	-0.004033
1396	6.9750e-01	-7.8880	-66.761898	0.002181	21.810807	3.694851	-0.087115
1397	6.9800e-01	-7.9072	-66.939354	0.000889	8.885884	1.505310	-0.035491
1398	6.9850e-01	-7.9273	-67.185373	0.001232	12.319067	2.086906	-0.049204
1399	6.9900e-01	-7.9469	-67.354763	0.000848	8.481980	1.436886	-0.033878
1400	6.9950e-01	-7.9682	-67.568517	0.001070	10.703451	1.813214	-0.042751
1401	7.0000e-01	-7.9877	-67.762106	0.000969	9.693692	1.642156	-0.038718
1402	7.0050e-01	-8.0067	-68.012158	0.001252	12.521019	2.121118	-0.050010
1403	7.0100e-01	-8.0277	-68.242045	0.001151	11.511259	1.950060	-0.045977
1404	7.0150e-01	-8.0476	-68.395303	0.000767	7.674173	1.300040	-0.030652
1405	7.0200e-01	-8.0671	-68.633255	0.001192	11.915163	2.018483	-0.047591
1406	7.0250e-01	-8.0874	-68.851043	0.001091	10.905403	1.847425	-0.043557
1407	7.0300e-01	-8.1083	-69.028499	0.000889	8.885884	1.505310	-0.035491
1408	7.0350e-01	-8.1281	-69.290651	0.001313	13.126874	2.223753	-0.052430
1409	7.0400e-01	-8.1470	-69.532636	0.001212	12.117115	2.052695	-0.048397
1410	7.0450e-01	-8.1678	-69.746391	0.001070	10.703451	1.813214	-0.042751
1411	7.0500e-01	-8.1879	-69.992410	0.001232	12.319067	2.086906	-0.049204
1412	7.0550e-01	-8.2069	-70.173899	0.000909	9.087836	1.539521	-0.036298
1413	7.0600e-01	-8.2270	-70.395720	0.001111	11.107355	1.881637	-0.044364
1414	7.0650e-01	-8.2471	-70.641739	0.001232	12.319067	2.086906	-0.049204
1415	7.0700e-01	-8.2673	-70.835327	0.000969	9.693692	1.642156	-0.038718
1416	7.0750e-01	-8.2868	-71.053115	0.001091	10.905403	1.847425	-0.043557
1417	7.0800e-01	-8.3076	-71.250736	0.000990	9.895644	1.676367	-0.039524
1418	7.0850e-01	-8.3271	-71.416094	0.000828	8.280028	1.402675	-0.033071
1419	7.0900e-01	-8.3475	-71.718576	0.001515	15.146394	2.565869	-0.060496
1420	7.0950e-01	-8.3674	-71.900065	0.000909	9.087836	1.539521	-0.036298
1421	7.1000e-01	-8.3869	-72.101720	0.001010	10.097596	1.710579	-0.040331
1422	7.1050e-01	-8.4074	-72.335640	0.001171	11.713211	1.984272	-0.046784
1423	7.1100e-01	-8.4272	-72.565527	0.001151	11.511259	1.950060	-0.045977
1424	7.1150e-01	-8.4467	-72.811546	0.001232	12.319067	2.086906	-0.049204
1425	7.1200e-01	-8.4675	-73.013201	0.001010	10.097596	1.710579	-0.040331
1426	7.1250e-01	-8.4876	-73.202756	0.000949	9.491740	1.607944	-0.037911
1427	7.1300e-01	-8.5069	-73.481040	0.001393	13.934682	2.360599	-0.055657
1428	7.1350e-01	-8.5279	-73.670596	0.000949	9.491740	1.607944	-0.037911
1429	7.1400e-01	-8.5474	-73.888383	0.001091	10.905403	1.847425	-0.043557
1430	7.1450e-01	-8.5673	-74.114236	0.001131	11.309307	1.915848	-0.045171
1431	7.1500e-01	-8.5877	-74.376388	0.001313	13.126874	2.223753	-0.052430
1432	7.1550e-01	-8.6073	-74.565944	0.000949	9.491740	1.607944	-0.037911
1433	7.1600e-01	-8.6268	-74.791797	0.001131	11.309307	1.915848	-0.045171
1434	7.1650e-01	-8.6475	-75.037816	0.001232	12.319067	2.086906	-0.049204
1435	7.1700e-01	-8.6671	-75.227372	0.000949	9.491740	1.607944	-0.037911
1436	7.1750e-01	-8.6878	-75.469358	0.001212	12.117115	2.052695	-0.048397
1437	7.1800e-01	-8.7074	-75.679079	0.001050	10.501500	1.779002	-0.041944
1438	7.1850e-01	-8.7264	-75.912998	0.001171	11.713211	1.984272	-0.046784
1439	7.1900e-01	-8.7470	-76.154984	0.001212	12.117115	2.052695	-0.048397
1440	7.1950e-01	-8.7672	-76.328408	0.000868	8.683932	1.471098	-0.034685
1441	7.2000e-01	-8.7875	-76.570394	0.001212	12.117115	2.052695	-0.048397
1442	7.2050e-01	-8.8074	-76.768015	0.000990	9.895644	1.676367	-0.039524
1443	7.2100e-01	-8.8285	-77.034200	0.001333	13.328826	2.257964	-0.053237
1444	7.2150e-01	-8.8483	-77.251987	0.001091	10.905403	1.847425	-0.043557
1445	7.2200e-01	-8.8667	-77.368947	0.000586	5.856605	0.992136	-0.023392
1446	7.2250e-01	-8.8874	-77.731926	0.001818	18.175672	3.079042	-0.072596
1447	7.2300e-01	-8.9072	-77.897283	0.000828	8.280028	1.402675	-0.033071
1448	7.2350e-01	-8.9289	-78.264295	0.001838	18.377624	3.113254	-0.073402
1449	7.2400e-01	-8.9478	-78.393354	0.000646	6.462461	1.094771	-0.025812
1450	7.2450e-01	-8.9674	-78.631307	0.001192	11.915163	2.018483	-0.047591
1451	7.2500e-01	-8.9878	-78.808763	0.000889	8.885884	1.505310	-0.035491
1452	7.2550e-01	-9.0076	-79.022517	0.001070	10.703451	1.813214	-0.042751
1453	7.2600e-01	-9.0272	-79.308867	0.001434	14.338586	2.429022	-0.057270
1454	7.2650e-01	-9.0473	-79.510522	0.001010	10.097596	1.710579	-0.040331
1455	7.2700e-01	-9.0681	-79.796872	0.001434	14.338586	2.429022	-0.057270
1456	7.2750e-01	-9.0879	-80.014660	0.001091	10.905403	1.847425	-0.043557
1457	7.2800e-01	-9.1077	-80.171951	0.000788	7.876125	1.334252	-0.031458
1458	7.2850e-01	-9.1279	-80.422003	0.001252	12.521019	2.121118	-0.050010
1459	7.2900e-01	-9.1480	-80.647856	0.001131	11.309307	1.915848	-0.045171
1460	7.2950e-01	-9.1676	-80.849511	0.001010	10.097596	1.710579	-0.040331
1461	7.3000e-01	-9.1877	-81.115696	0.001333	13.328826	2.257964	-0.053237
1462	7.3050e-01	-9.2078	-81.361715	0.001232	12.319067	2.086906	-0.049204
1463	7.3100e-01	-9.2280	-81.599667	0.001192	11.915163	2.018483	-0.047591
1464	7.3150e-01	-9.2475	-81.773091	0.000868	8.683932	1.471098	-0.034685
1465	7.3200e-01	-9.2677	-82.015077	0.001212	12.117115	2.052695	-0.048397
1466	7.3250e-01	-9.2879	-82.212698	0.000990	9.895644	1.676367	-0.039524
1467	7.3300e-01	-9.3085	-82.486949	0.001373	13.732730	2.326387	-0.054850
1468	7.3350e-01	-9.3281	-82.745067	0.001292	12.924922	2.189541	-0.051624
1469	7.3400e-01	-9.3476	-82.950756	0.001030	10.299548	1.744791	-0.041138
1470	7.3450e-01	-9.3684	-83.212907	0.001313	13.126874	2.223753	-0.052430
1471	7.3500e-01	-9.3879	-83.426661	0.001070	10.703451	1.813214	-0.042751
1472	7.3550e-01	-9.4074	-83.656548	0.001151	11.511259	1.950060	-0.045977
1473	7.3600e-01	-9.4282	-83.882401	0.001131	11.309307	1.915848	-0.045171
1474	7.3650e-01	-9.4483	-84.140520	0.001292	12.924922	2.189541	-0.051624
1475	7.3700e-01	-9.4678	-84.370406	0.001151	11.511259	1.950060	-0.045977
1476	7.3750e-01	-9.4881	-84.640624	0.001353	13.530778	2.292176	-0.054044
1477	7.3800e-01	-9.5075	-84.826146	0.000929	9.289788	1.573733	-0.037105
1478	7.3850e-01	-9.5277	-85.023768	0.000990	9.895644	1.676367	-0.039524
1479	7.3900e-01	-9.5478	-85.277853	0.001272	12.722971	2.155330	-0.050817
1480	7.3950e-01	-9.5679	-85.507740	0.001151	11.511259	1.950060	-0.045977
1481	7.4000e-01	-9.5875	-85.773925	0.001333	13.328826	2.257964	-0.053237
1482	7.4050e-01	-9.6088	-85.991712	0.001091	10.905403	1.847425	-0.043557
1483	7.4100e-01	-9.6284	-86.201433	0.001050	10.501500	1.779002	-0.041944
1484	7.4150e-01	-9.6479	-86.415187	0.001070	10.703451	1.813214	-0.042751
1485	7.4200e-01	-9.6687	-86.717670	0.001515	15.146394	2.565869	-0.060496
1486	7.4250e-01	-9.6876	-86.891093	0.000868	8.683932	1.471098	-0.034685
1487	7.4300e-01	-9.7077	-87.189542	0.001494	14.944442	2.531657	-0.059690
1488	7.4350e-01	-9.7285	-87.431528	0.001212	12.117115	2.052695	-0.048397
1489	7.4400e-01	-9.7474	-87.613017	0.000909	9.087836	1.539521	-0.036298
1490	7.4450e-01	-9.7675	-87.846937	0.001171	11.713211	1.984272	-0.046784
1491	7.4500e-01	-9.7883	-88.129254	0.001414	14.136634	2.394811	-0.056463
1492	7.4550e-01	-9.8078	-88.298644	0.000848	8.481980	1.436886	-0.033878
1493	7.4600e-01	-9.8280	-88.589027	0.001454	14.540538	2.463234	-0.058077
1494	7.4650e-01	-9.8481	-88.822947	0.001171	11.713211	1.984272	-0.046784
1495	7.4700e-01	-9.8676	-89.040734	0.001091	10.905403	1.847425	-0.043557
1496	7.4750e-01	-9.8878	-89.306919	0.001333	13.328826	2.257964	-0.053237
1497	7.4800e-01	-9.9079	-89.524706	0.001091	10.905403	1.847425	-0.043557
1498	7.4850e-01	-9.9274	-89.831222	0.001535	15.348345	2.600080	-0.061303
1499	7.4900e-01	-9.9476	-90.044976	0.001070	10.703451	1.813214	-0.042751
1500	7.4950e-01	-9.9677	-90.262763	0.001091	10.905403	1.847425	-0.043557
1501	7.5000e-01	-9.9879	-90.508782	0.001232	12.319067	2.086906	-0.049204
1502	7.5050e-01	-9.9854	-90.585411	-0.000384	-3.837086	-0.650020	-0.015326
1503	7.5100e-01	-9.9702	-90.621709	-0.000182	-1.817567	-0.307904	-0.007260
1504	7.5150e-01	-9.9519	-90.605577	0.000081	0.807808	0.136846	0.003226
1505	7.5200e-01	-9.9317	-90.649941	-0.000222	-2.221471	-0.376327	-0.008873
1506	7.5250e-01	-9.9128	-90.621709	0.000141	1.413663	0.239481	0.005646
1507	7.5300e-01	-9.8927	-90.496683	0.000626	6.260509	1.060559	0.025005
1508	7.5350e-01	-9.8731	-90.549113	-0.000263	-2.625375	-0.444751	-0.010486
1509	7.5400e-01	-9.8518	-90.537014	0.000061	0.605856	0.102635	0.002420
1510	7.5450e-01	-9.8335	-90.508782	0.000141	1.413663	0.239481	0.005646
1511	7.5500e-01	-9.8127	-90.464418	0.000222	2.221471	0.376327	0.008873
1512	7.5550e-01	-9.7926	-90.395856	0.000343	3.433183	0.581597	0.013713
1513	7.5600e-01	-9.7730	-90.391822	0.000020	0.201952	0.034212	0.000807
1514	7.5650e-01	-9.7529	-90.270829	0.000606	6.058557	1.026347	0.024199
1515	7.5700e-01	-9.7330	-90.258730	0.000061	0.605856	0.102635	0.002420
1516	7.5750e-01	-9.7126	-90.178068	0.000404	4.039038	0.684232	0.016132
1517	7.5800e-01	-9.6928	-90.105472	0.000364	3.635134	0.615808	0.014519
1518	7.5850e-01	-9.6735	-90.081274	0.000121	1.211711	0.205269	0.004840
1519	7.5900e-01	-9.6534	-90.020777	0.000303	3.029279	0.513174	0.012099
1520	7.5950e-01	-9.6339	-89.944148	0.000384	3.837086	0.650020	0.015326
1521	7.6000e-01	-9.6131	-89.867520	0.000384	3.837086	0.650020	0.015326
1522	7.6050e-01	-9.5930	-89.811056	0.000283	2.827327	0.478962	0.011293
1523	7.6100e-01	-9.5734	-89.746527	0.000323	3.231231	0.547385	0.012906
1524	7.6150e-01	-9.5533	-89.605368	0.000707	7.068317	1.197405	0.028232
1525	7.6200e-01	-9.5332	-89.544872	0.000303	3.029279	0.513174	0.012099
1526	7.6250e-01	-9.5130	-89.512607	0.000162	1.615615	0.273693	0.006453
1527	7.6300e-01	-9.4935	-89.379515	0.000666	6.664413	1.128982	0.026618
1528	7.6350e-01	-9.4718	-89.319018	0.000303	3.029279	0.513174	0.012099
1529	7.6400e-01	-9.4526	-89.230290	0.000444	4.442942	0.752655	0.017746
1530	7.6450e-01	-9.4331	-89.068966	0.000808	8.078077	1.368463	0.032265
1531	7.6500e-01	-9.4129	-89.089132	-0.000101	-1.009760	-0.171058	-0.004033
1532	7.6550e-01	-9.3934	-88.947973	0.000707	7.068317	1.197405	0.028232
1533	7.6600e-01	-9.3732	-88.867311	0.000404	4.039038	0.684232	0.016132
1534	7.6650e-01	-9.3531	-88.810848	0.000283	2.827327	0.478962	0.011293
1535	7.6700e-01	-9.3330	-88.705987	0.000525	5.250750	0.889501	0.020972
1536	7.6750e-01	-9.3116	-88.601127	0.000525	5.250750	0.889501	0.020972
1537	7.6800e-01	-9.2921	-88.544663	0.000283	2.827327	0.478962	0.011293
1538	7.6850e-01	-9.2725	-88.395439	0.000747	7.472221	1.265828	0.029845
1539	7.6900e-01	-9.2530	-88.310744	0.000424	4.240990	0.718443	0.016939
1540	7.6950e-01	-9.2329	-88.217982	0.000464	4.644894	0.786866	0.018552
1541	7.7000e-01	-9.2139	-88.096989	0.000606	6.058557	1.026347	0.024199
1542	7.7050e-01	-9.1938	-88.004228	0.000464	4.644894	0.786866	0.018552
1543	7.7100e-01	-9.1730	-87.915500	0.000444	4.442942	0.752655	0.017746
1544	7.7150e-01	-9.1535	-87.850970	0.000323	3.231231	0.547385	0.012906
1545	7.7200e-01	-9.1334	-87.738044	0.000565	5.654654	0.957924	0.022585
1546	7.7250e-01	-9.1132	-87.617051	0.000606	6.058557	1.026347	0.024199
1547	7.7300e-01	-9.0931	-87.500091	0.000586	5.856605	0.992136	0.023392
1548	7.7350e-01	-9.0736	-87.423462	0.000384	3.837086	0.650020	0.015326
1549	7.7400e-01	-9.0534	-87.310535	0.000565	5.654654	0.957924	0.022585
1550	7.7450e-01	-9.0333	-87.213741	0.000485	4.846846	0.821078	0.019359
1551	7.7500e-01	-9.0137	-87.129046	0.000424	4.240990	0.718443	0.016939
1552	7.7550e-01	-8.9930	-87.036284	0.000464	4.644894	0.786866	0.018552
1553	7.7600e-01	-8.9729	-86.883027	0.000767	7.674173	1.300040	0.030652
1554	7.7650e-01	-8.9533	-86.790265	0.000464	4.644894	0.786866	0.018552
1555	7.7700e-01	-8.9326	-86.649107	0.000707	7.068317	1.197405	0.028232
1556	7.7750e-01	-8.9130	-86.564412	0.000424	4.240990	0.718443	0.016939
1557	7.7800e-01	-8.8929	-86.463584	0.000505	5.048798	0.855290	0.020165
1558	7.7850e-01	-8.8734	-86.346625	0.000586	5.856605	0.992136	0.023392
1559	7.7900e-01	-8.8538	-86.286128	0.000303	3.029279	0.513174	0.012099
1560	7.7950e-01	-8.8325	-86.136903	0.000747	7.472221	1.265828	0.029845
1561	7.8000e-01	-8.8126	-86.040109	0.000485	4.846846	0.821078	0.019359
1562	7.8050e-01	-8.7934	-85.923149	0.000586	5.856605	0.992136	0.023392
1563	7.8100e-01	-8.7727	-85.818289	0.000525	5.250750	0.889501	0.020972
1564	7.8150e-01	-8.7528	-85.693263	0.000626	6.260509	1.060559	0.025005
1565	7.8200e-01	-8.7336	-85.588402	0.000525	5.250750	0.889501	0.020972
1566	7.8250e-01	-8.7135	-85.459343	0.000646	6.462461	1.094771	0.025812
1567	7.8300e-01	-8.6939	-85.382714	0.000384	3.837086	0.650020	0.015326
1568	7.8350e-01	-8.6726	-85.261721	0.000606	6.058557	1.026347	0.024199
1569	7.8400e-01	-8.6530	-85.217357	0.000222	2.221471	0.376327	0.008873
1570	7.8450e-01	-8.6329	-85.060066	0.000788	7.876125	1.334252	0.031458
1571	7.8500e-01	-8.6134	-84.971338	0.000444	4.442942	0.752655	0.017746
1572	7.8550e-01	-8.5929	-84.773716	0.000990	9.895644	1.676367	0.039524
1573	7.8600e-01	-8.5731	-84.680955	0.000464	4.644894	0.786866	0.018552
1574	7.8650e-01	-8.5529	-84.584160	0.000485	4.846846	0.821078	0.019359
1575	7.8700e-01	-8.5334	-84.430903	0.000767	7.674173	1.300040	0.030652
1576	7.8750e-01	-8.5126	-84.342175	0.000444	4.442942	0.752655	0.017746
1577	7.8800e-01	-8.4931	-84.225215	0.000586	5.856605	0.992136	0.023392
1578	7.8850e-01	-8.4730	-84.096156	0.000646	6.462461	1.094771	0.025812
1579	7.8900e-01	-8.4547	-83.950964	0.000727	7.270269	1.231617	0.029038
1580	7.8950e-01	-8.4330	-83.902567	0.000242	2.423423	0.410539	0.009679
1581	7.9000e-01	-8.4138	-83.813839	0.000444	4.442942	0.752655	0.017746
1582	7.9050e-01	-8.3930	-83.668647	0.000727	7.270269	1.231617	0.029038
1583	7.9100e-01	-8.3735	-83.571853	0.000485	4.846846	0.821078	0.019359
1584	7.9150e-01	-8.3523	-83.475058	0.000485	4.846846	0.821078	0.019359
1585	7.9200e-01	-8.3332	-83.337933	0.000687	6.866365	1.163194	0.027425
1586	7.9250e-01	-8.3131	-83.196775	0.000707	7.068317	1.197405	0.028232
1587	7.9300e-01	-8.2929	-83.063682	0.000666	6.664413	1.128982	0.026618
1588	7.9350e-01	-8.2731	-82.974954	0.000444	4.442942	0.752655	0.017746
1589	7.9400e-01	-8.2533	-82.793465	0.000909	9.087836	1.539521	0.036298
1590	7.9450e-01	-8.2334	-82.732968	0.000303	3.029279	0.513174	0.012099
1591	7.9500e-01	-8.2130	-82.660372	0.000364	3.635134	0.615808	0.014519
1592	7.9550e-01	-8.1928	-82.462751	0.000990	9.895644	1.676367	0.039524
1593	7.9600e-01	-8.1721	-82.357890	0.000525	5.250750	0.889501	0.020972
1594	7.9650e-01	-8.1532	-82.240930	0.000586	5.856605	0.992136	0.023392
1595	7.9700e-01	-8.1330	-82.091706	0.000747	7.472221	1.265828	0.029845
1596	7.9750e-01	-8.1135	-82.031209	0.000303	3.029279	0.513174	0.012099
1597	7.9800e-01	-8.0933	-81.922315	0.000545	5.452702	0.923713	0.021779
1598	7.9850e-01	-8.0732	-81.728727	0.000969	9.693692	1.642156	0.038718
1599	7.9900e-01	-8.0537	-81.611767	0.000586	5.856605	0.992136	0.023392
1600	7.9950e-01	-8.0329	-81.531105	0.000404	4.039038	0.684232	0.016132
1601	8.0000e-01	-8.0128	-81.438344	0.000464	4.644894	0.786866	0.018552
1602	8.0050e-01	-7.9932	-81.272986	0.000828	8.280028	1.402675	0.033071
1603	8.0100e-01	-7.9725	-81.176192	0.000485	4.846846	0.821078	0.019359
1604	8.0150e-01	-7.9523	-81.002769	0.000868	8.683932	1.471098	0.034685
1605	8.0200e-01	-7.9328	-80.918074	0.000424	4.240990	0.718443	0.016939
1606	8.0250e-01	-7.9127	-80.760783	0.000788	7.876125	1.334252	0.031458
1607	8.0300e-01	-7.8925	-80.663989	0.000485	4.846846	0.821078	0.019359
1608	8.0350e-01	-7.8730	-80.575260	0.000444	4.442942	0.752655	0.017746
1609	8.0400e-01	-7.8522	-80.446201	0.000646	6.462461	1.094771	0.025812
1610	8.0450e-01	-7.8329	-80.305043	0.000707	7.068317	1.197405	0.028232
1611	8.0500e-01	-7.8132	-80.175984	0.000646	6.462461	1.094771	0.025812
1612	8.0550e-01	-7.7921	-80.046925	0.000646	6.462461	1.094771	0.025812
1613	8.0600e-01	-7.7735	-79.869468	0.000889	8.885884	1.505310	0.035491
1614	8.0650e-01	-7.7534	-79.825104	0.000222	2.221471	0.376327	0.008873
1615	8.0700e-01	-7.7332	-79.558920	0.001333	13.328826	2.257964	0.053237
1616	8.0750e-01	-7.7137	-79.445993	0.000565	5.654654	0.957924	0.022585
1617	8.0800e-01	-7.6929	-79.381463	0.000323	3.231231	0.547385	0.012906
1618	8.0850e-01	-7.6728	-79.284669	0.000485	4.846846	0.821078	0.019359
1619	8.0900e-01	-7.6527	-79.147544	0.000687	6.866365	1.163194	0.027425
1620	8.0950e-01	-7.6331	-79.010418	0.000687	6.866365	1.163194	0.027425
1621	8.1000e-01	-7.6118	-78.889425	0.000606	6.058557	1.026347	0.024199
1622	8.1050e-01	-7.5919	-78.800697	0.000444	4.442942	0.752655	0.017746
1623	8.1100e-01	-7.5721	-78.651472	0.000747	7.472221	1.265828	0.029845
1624	8.1150e-01	-7.5532	-78.498215	0.000767	7.674173	1.300040	0.030652
1625	8.1200e-01	-7.5343	-78.381255	0.000586	5.856605	0.992136	0.023392
1626	8.1250e-01	-7.5135	-78.292527	0.000444	4.442942	0.752655	0.017746
1627	8.1300e-01	-7.4934	-78.123136	0.000848	8.481980	1.436886	0.033878
1628	8.1350e-01	-7.4735	-78.010210	0.000565	5.654654	0.957924	0.022585
1629	8.1400e-01	-7.4531	-77.881151	0.000646	6.462461	1.094771	0.025812
1630	8.1450e-01	-7.4335	-77.752091	0.000646	6.462461	1.094771	0.025812
1631	8.1500e-01	-7.4134	-77.639165	0.000565	5.654654	0.957924	0.022585
1632	8.1550e-01	-7.3933	-77.493973	0.000727	7.270269	1.231617	0.029038
1633	8.1600e-01	-7.3731	-77.340715	0.000767	7.674173	1.300040	0.030652
1634	8.1650e-01	-7.3527	-77.243921	0.000485	4.846846	0.821078	0.019359
1635	8.1700e-01	-7.3335	-77.082597	0.000808	8.078077	1.368463	0.032265
1636	8.1750e-01	-7.3139	-77.010001	0.000364	3.635134	0.615808	0.014519
1637	8.1800e-01	-7.2938	-76.856744	0.000767	7.674173	1.300040	0.030652
1638	8.1850e-01	-7.2733	-76.683320	0.000868	8.683932	1.471098	0.034685
1639	8.1900e-01	-7.2529	-76.550228	0.000666	6.664413	1.128982	0.026618
1640	8.1950e-01	-7.2327	-76.421169	0.000646	6.462461	1.094771	0.025812
1641	8.2000e-01	-7.2134	-76.328408	0.000464	4.644894	0.786866	0.018552
1642	8.2050e-01	-7.1934	-76.227580	0.000505	5.048798	0.855290	0.020165
1643	8.2100e-01	-7.1735	-76.090455	0.000687	6.866365	1.163194	0.027425
1644	8.2150e-01	-7.1534	-75.961396	0.000646	6.462461	1.094771	0.025812
1645	8.2200e-01	-7.1339	-75.812171	0.000747	7.472221	1.265828	0.029845
1646	8.2250e-01	-7.1131	-75.675046	0.000687	6.866365	1.163194	0.027425
1647	8.2300e-01	-7.0939	-75.493556	0.000909	9.087836	1.539521	0.036298
1648	8.2350e-01	-7.0734	-75.364497	0.000646	6.462461	1.094771	0.025812
1649	8.2400e-01	-7.0539	-75.283835	0.000404	4.039038	0.684232	0.016132
1650	8.2450e-01	-7.0333	-75.090246	0.000969	9.693692	1.642156	0.038718
1651	8.2500e-01	-7.0127	-74.969253	0.000606	6.058557	1.026347	0.024199
1652	8.2550e-01	-6.9936	-74.864393	0.000525	5.250750	0.889501	0.020972
1653	8.2600e-01	-6.9727	-74.735334	0.000646	6.462461	1.094771	0.025812
1654	8.2650e-01	-6.9526	-74.610308	0.000626	6.260509	1.060559	0.025005
1655	8.2700e-01	-6.9324	-74.469149	0.000707	7.068317	1.197405	0.028232
1656	8.2750e-01	-6.9135	-74.291693	0.000889	8.885884	1.505310	0.035491
1657	8.2800e-01	-6.8919	-74.215064	0.000384	3.837086	0.650020	0.015326
1658	8.2850e-01	-6.8726	-74.041641	0.000868	8.683932	1.471098	0.034685
1659	8.2900e-01	-6.8533	-73.880317	0.000808	8.078077	1.368463	0.032265
1660	8.2950e-01	-6.8333	-73.815787	0.000323	3.231231	0.547385	0.012906
1661	8.3000e-01	-6.8128	-73.682695	0.000666	6.664413	1.128982	0.026618
1662	8.3050e-01	-6.7936	-73.489106	0.000969	9.693692	1.642156	0.038718
1663	8.3100e-01	-6.7731	-73.408444	0.000404	4.039038	0.684232	0.016132
1664	8.3150e-01	-6.7524	-73.259220	0.000747	7.472221	1.265828	0.029845
1665	8.3200e-01	-6.7335	-73.118061	0.000707	7.068317	1.197405	0.028232
1666	8.3250e-01	-6.7133	-72.997068	0.000606	6.058557	1.026347	0.024199
1667	8.3300e-01	-6.6938	-72.811546	0.000929	9.289788	1.573733	0.037105
1668	8.3350e-01	-6.6734	-72.702652	0.000545	5.452702	0.923713	0.021779
1669	8.3400e-01	-6.6529	-72.545361	0.000788	7.876125	1.334252	0.031458
1670	8.3450e-01	-6.6328	-72.371938	0.000868	8.683932	1.471098	0.034685
1671	8.3500e-01	-6.6126	-72.271110	0.000505	5.048798	0.855290	0.020165
1672	8.3550e-01	-6.5931	-72.113820	0.000788	7.876125	1.334252	0.031458
1673	8.3600e-01	-6.5730	-71.992827	0.000606	6.058557	1.026347	0.024199
1674	8.3650e-01	-6.5528	-71.831503	0.000808	8.078077	1.368463	0.032265
1675	8.3700e-01	-6.5330	-71.678245	0.000767	7.674173	1.300040	0.030652
1676	8.3750e-01	-6.5137	-71.593550	0.000424	4.240990	0.718443	0.016939
1677	8.3800e-01	-6.4936	-71.444325	0.000747	7.472221	1.265828	0.029845
1678	8.3850e-01	-6.4729	-71.339465	0.000525	5.250750	0.889501	0.020972
1679	8.3900e-01	-6.4521	-71.214439	0.000626	6.260509	1.060559	0.025005
1680	8.3950e-01	-6.4327	-71.093446	0.000606	6.058557	1.026347	0.024199
1681	8.4000e-01	-6.4118	-70.907923	0.000929	9.289788	1.573733	0.037105
1682	8.4050e-01	-6.3935	-70.742566	0.000828	8.280028	1.402675	0.033071
1683	8.4100e-01	-6.3728	-70.557043	0.000929	9.289788	1.573733	0.037105
1684	8.4150e-01	-6.3538	-70.468315	0.000444	4.442942	0.752655	0.017746
1685	8.4200e-01	-6.3325	-70.323124	0.000727	7.270269	1.231617	0.029038
1686	8.4250e-01	-6.3123	-70.141634	0.000909	9.087836	1.539521	0.036298
1687	8.4300e-01	-6.2922	-70.036774	0.000525	5.250750	0.889501	0.020972
1688	8.4350e-01	-6.2739	-69.935946	0.000505	5.048798	0.855290	0.020165
1689	8.4400e-01	-6.2519	-69.746391	0.000949	9.491740	1.607944	0.037911
1690	8.4450e-01	-6.2334	-69.653629	0.000464	4.644894	0.786866	0.018552
1691	8.4500e-01	-6.2135	-69.480206	0.000868	8.683932	1.471098	0.034685
1692	8.4550e-01	-6.1933	-69.335015	0.000727	7.270269	1.231617	0.029038
1693	8.4600e-01	-6.1726	-69.205955	0.000646	6.462461	1.094771	0.025812
1694	8.4650e-01	-6.1536	-69.064797	0.000707	7.068317	1.197405	0.028232
1695	8.4700e-01	-6.1332	-68.859109	0.001030	10.299548	1.744791	0.041138
1696	8.4750e-01	-6.1127	-68.766348	0.000464	4.644894	0.786866	0.018552
1697	8.4800e-01	-6.0923	-68.605024	0.000808	8.078077	1.368463	0.032265
1698	8.4850e-01	-6.0732	-68.484031	0.000606	6.058557	1.026347	0.024199
1699	8.4900e-01	-6.0529	-68.330773	0.000767	7.674173	1.300040	0.030652
1700	8.4950e-01	-6.0325	-68.173482	0.000788	7.876125	1.334252	0.031458
1701	8.5000e-01	-6.0130	-68.076688	0.000485	4.846846	0.821078	0.019359
1702	8.5050e-01	-5.9931	-67.871000	0.001030	10.299548	1.744791	0.041138
1703	8.5100e-01	-5.9730	-67.701610	0.000848	8.481980	1.436886	0.033878
1704	8.5150e-01	-5.9528	-67.544319	0.000788	7.876125	1.334252	0.031458
1705	8.5200e-01	-5.9328	-67.516087	0.000141	1.413663	0.239481	0.005646
1706	8.5250e-01	-5.9132	-67.306366	0.001050	10.501500	1.779002	0.041944
1707	8.5300e-01	-5.8930	-67.193439	0.000565	5.654654	0.957924	0.022585
1708	8.5350e-01	-5.8723	-67.028082	0.000828	8.280028	1.402675	0.033071
1709	8.5400e-01	-5.8529	-66.882891	0.000727	7.270269	1.231617	0.029038
1710	8.5450e-01	-5.8332	-66.745765	0.000687	6.866365	1.163194	0.027425
1711	8.5500e-01	-5.8131	-66.568309	0.000889	8.885884	1.505310	0.035491
1712	8.5550e-01	-5.7923	-66.439250	0.000646	6.462461	1.094771	0.025812
1713	8.5600e-01	-5.7722	-66.298091	0.000707	7.068317	1.197405	0.028232
1714	8.5650e-01	-5.7536	-66.140801	0.000788	7.876125	1.334252	0.031458
1715	8.5700e-01	-5.7325	-66.048039	0.000464	4.644894	0.786866	0.018552
1716	8.5750e-01	-5.7124	-65.826219	0.001111	11.107355	1.881637	0.044364
1717	8.5800e-01	-5.6925	-65.721358	0.000525	5.250750	0.889501	0.020972
1718	8.5850e-01	-5.6718	-65.564067	0.000788	7.876125	1.334252	0.031458
1719	8.5900e-01	-5.6532	-65.418876	0.000727	7.270269	1.231617	0.029038
1720	8.5950e-01	-5.6332	-65.285784	0.000666	6.664413	1.128982	0.026618
1721	8.6000e-01	-5.6132	-65.108327	0.000889	8.885884	1.505310	0.035491
1722	8.6050e-01	-5.5933	-64.947003	0.000808	8.078077	1.368463	0.032265
1723	8.6100e-01	-5.5732	-64.765514	0.000909	9.087836	1.539521	0.036298
1724	8.6150e-01	-5.5534	-64.680819	0.000424	4.240990	0.718443	0.016939
1725	8.6200e-01	-5.5332	-64.483197	0.000990	9.895644	1.676367	0.039524
1726	8.6250e-01	-5.5125	-64.346072	0.000687	6.866365	1.163194	0.027425
1727	8.6300e-01	-5.4935	-64.180715	0.000828	8.280028	1.402675	0.033071
1728	8.6350e-01	-5.4725	-64.067788	0.000565	5.654654	0.957924	0.022585
1729	8.6400e-01	-5.4527	-63.922596	0.000727	7.270269	1.231617	0.029038
1730	8.6450e-01	-5.4322	-63.773372	0.000747	7.472221	1.265828	0.029845
1731	8.6500e-01	-5.4121	-63.595915	0.000889	8.885884	1.505310	0.035491
1732	8.6550e-01	-5.3921	-63.478955	0.000586	5.856605	0.992136	0.023392
1733	8.6600e-01	-5.3718	-63.261168	0.001091	10.905403	1.847425	0.043557
1734	8.6650e-01	-5.3522	-63.176473	0.000424	4.240990	0.718443	0.016939
1735	8.6700e-01	-5.3327	-63.027248	0.000747	7.472221	1.265828	0.029845
1736	8.6750e-01	-5.3129	-62.861891	0.000828	8.280028	1.402675	0.033071
1737	8.6800e-01	-5.2930	-62.688468	0.000868	8.683932	1.471098	0.034685
1738	8.6850e-01	-5.2729	-62.511012	0.000889	8.885884	1.505310	0.035491
1739	8.6900e-01	-5.2534	-62.377920	0.000666	6.664413	1.128982	0.026618
1740	8.6950e-01	-5.2332	-62.236761	0.000707	7.068317	1.197405	0.028232
1741	8.7000e-01	-5.2125	-62.071404	0.000828	8.280028	1.402675	0.033071
1742	8.7050e-01	-5.1923	-61.966543	0.000525	5.250750	0.889501	0.020972
1743	8.7100e-01	-5.1716	-61.768922	0.000990	9.895644	1.676367	0.039524
1744	8.7150e-01	-5.1522	-61.607598	0.000808	8.078077	1.368463	0.032265
1745	8.7200e-01	-5.1322	-61.506770	0.000505	5.048798	0.855290	0.020165
1746	8.7250e-01	-5.1118	-61.284950	0.001111	11.107355	1.881637	0.044364
1747	8.7300e-01	-5.0922	-61.188155	0.000485	4.846846	0.821078	0.019359
1748	8.7350e-01	-5.0727	-60.986501	0.001010	10.097596	1.710579	0.040331
1749	8.7400e-01	-5.0507	-60.821143	0.000828	8.280028	1.402675	0.033071
1750	8.7450e-01	-5.0324	-60.675952	0.000727	7.270269	1.231617	0.029038
1751	8.7500e-01	-5.0135	-60.591257	0.000424	4.240990	0.718443	0.016939
1752	8.7550e-01	-4.9928	-60.397668	0.000969	9.693692	1.642156	0.038718
1753	8.7600e-01	-4.9732	-60.228278	0.000848	8.481980	1.436886	0.033878
1754	8.7650e-01	-4.9531	-60.111318	0.000586	5.856605	0.992136	0.023392
1755	8.7700e-01	-4.9323	-59.913696	0.000990	9.895644	1.676367	0.039524
1756	8.7750e-01	-4.9129	-59.740273	0.000868	8.683932	1.471098	0.034685
1757	8.7800e-01	-4.8920	-59.619280	0.000606	6.058557	1.026347	0.024199
1758	8.7850e-01	-4.8722	-59.478122	0.000707	7.068317	1.197405	0.028232
1759	8.7900e-01	-4.8530	-59.292599	0.000929	9.289788	1.573733	0.037105
1760	8.7950e-01	-4.8328	-59.139341	0.000767	7.674173	1.300040	0.030652
1761	8.8000e-01	-4.8118	-58.941720	0.000990	9.895644	1.676367	0.039524
1762	8.8050e-01	-4.7923	-58.840892	0.000505	5.048798	0.855290	0.020165
1763	8.8100e-01	-4.7730	-58.651336	0.000949	9.491740	1.607944	0.037911
1764	8.8150e-01	-4.7523	-58.518244	0.000666	6.664413	1.128982	0.026618
1765	8.8200e-01	-4.7318	-58.352887	0.000828	8.280028	1.402675	0.033071
1766	8.8250e-01	-4.7126	-58.235927	0.000586	5.856605	0.992136	0.023392
1767	8.8300e-01	-4.6922	-58.014107	0.001111	11.107355	1.881637	0.044364
1768	8.8350e-01	-4.6723	-57.885048	0.000646	6.462461	1.094771	0.025812
1769	8.8400e-01	-4.6523	-57.715658	0.000848	8.481980	1.436886	0.033878
1770	8.8450e-01	-4.6333	-57.570466	0.000727	7.270269	1.231617	0.029038
1771	8.8500e-01	-4.6122	-57.433341	0.000687	6.866365	1.163194	0.027425
1772	8.8550e-01	-4.5930	-57.296215	0.000687	6.866365	1.163194	0.027425
1773	8.8600e-01	-4.5722	-57.126825	0.000848	8.481980	1.436886	0.033878
1774	8.8650e-01	-4.5527	-56.997766	0.000646	6.462461	1.094771	0.025812
1775	8.8700e-01	-4.5319	-56.824343	0.000868	8.683932	1.471098	0.034685
1776	8.8750e-01	-4.5124	-56.634787	0.000949	9.491740	1.607944	0.037911
1777	8.8800e-01	-4.4923	-56.481529	0.000767	7.674173	1.300040	0.030652
1778	8.8850e-01	-4.4724	-56.271808	0.001050	10.501500	1.779002	0.041944
1779	8.8900e-01	-4.4520	-56.098385	0.000868	8.683932	1.471098	0.034685
1780	8.8950e-01	-4.4326	-56.025789	0.000364	3.635134	0.615808	0.014519
1781	8.9000e-01	-4.4123	-55.820101	0.001030	10.299548	1.744791	0.041138
1782	8.9050e-01	-4.3934	-55.654744	0.000828	8.280028	1.402675	0.033071
1783	8.9100e-01	-4.3717	-55.501486	0.000767	7.674173	1.300040	0.030652
1784	8.9150e-01	-4.3528	-55.307898	0.000969	9.693692	1.642156	0.038718
1785	8.9200e-01	-4.3317	-55.186905	0.000606	6.058557	1.026347	0.024199
1786	8.9250e-01	-4.3122	-54.944919	0.001212	12.117115	2.052695	0.048397
1787	8.9300e-01	-4.2921	-54.823926	0.000606	6.058557	1.026347	0.024199
1788	8.9350e-01	-4.2725	-54.614205	0.001050	10.501500	1.779002	0.041944
1789	8.9400e-01	-4.2525	-54.517410	0.000485	4.846846	0.821078	0.019359
1790	8.9450e-01	-4.2316	-54.376252	0.000707	7.068317	1.197405	0.028232
1791	8.9500e-01	-4.2125	-54.231060	0.000727	7.270269	1.231617	0.029038
1792	8.9550e-01	-4.1926	-54.029405	0.001010	10.097596	1.710579	0.040331
1793	8.9600e-01	-4.1715	-53.892280	0.000687	6.866365	1.163194	0.027425
1794	8.9650e-01	-4.1525	-53.730956	0.000808	8.078077	1.368463	0.032265
1795	8.9700e-01	-4.1322	-53.549467	0.000909	9.087836	1.539521	0.036298
1796	8.9750e-01	-4.1114	-53.376043	0.000868	8.683932	1.471098	0.034685
1797	8.9800e-01	-4.0926	-53.182455	0.000969	9.693692	1.642156	0.038718
1798	8.9850e-01	-4.0730	-53.049362	0.000666	6.664413	1.128982	0.026618
1799	8.9900e-01	-4.0522	-52.908204	0.000707	7.068317	1.197405	0.028232
1800	8.9950e-01	-4.0321	-52.722681	0.000929	9.289788	1.573733	0.037105
1801	9.0000e-01	-4.0119	-52.553291	0.000848	8.481980	1.436886	0.033878
1802	9.0050e-01	-3.9922	-52.412133	0.000707	7.068317	1.197405	0.028232
1803	9.0100e-01	-3.9716	-52.198379	0.001070	10.703451	1.813214	0.042751
1804	9.0150e-01	-3.9518	-52.065286	0.000666	6.664413	1.128982	0.026618
1805	9.0200e-01	-3.9321	-51.968492	0.000485	4.846846	0.821078	0.019359
1806	9.0250e-01	-3.9124	-51.722473	0.001232	12.319067	2.086906	0.049204
1807	9.0300e-01	-3.8929	-51.585348	0.000687	6.866365	1.163194	0.027425
1808	9.0350e-01	-3.8718	-51.375627	0.001050	10.501500	1.779002	0.041944
1809	9.0400e-01	-3.8532	-51.250600	0.000626	6.260509	1.060559	0.025005
1810	9.0450e-01	-3.8322	-51.069111	0.000909	9.087836	1.539521	0.036298
1811	9.0500e-01	-3.8117	-50.859390	0.001050	10.501500	1.779002	0.041944
1812	9.0550e-01	-3.7910	-50.637570	0.001111	11.107355	1.881637	0.044364
1813	9.0600e-01	-3.7716	-50.508510	0.000646	6.462461	1.094771	0.025812
1814	9.0650e-01	-3.7519	-50.456080	0.000263	2.625375	0.444751	0.010486
1815	9.0700e-01	-3.7318	-50.242326	0.001070	10.703451	1.813214	0.042751
1816	9.0750e-01	-3.7133	-50.032605	0.001050	10.501500	1.779002	0.041944
1817	9.0800e-01	-3.6927	-49.863215	0.000848	8.481980	1.436886	0.033878
1818	9.0850e-01	-3.6723	-49.722056	0.000707	7.068317	1.197405	0.028232
1819	9.0900e-01	-3.6524	-49.584931	0.000687	6.866365	1.163194	0.027425
1820	9.0950e-01	-3.6324	-49.342945	0.001212	12.117115	2.052695	0.048397
1821	9.1000e-01	-3.6115	-49.213886	0.000646	6.462461	1.094771	0.025812
1822	9.1050e-01	-3.5923	-49.032396	0.000909	9.087836	1.539521	0.036298
1823	9.1100e-01	-3.5722	-48.903337	0.000646	6.462461	1.094771	0.025812
1824	9.1150e-01	-3.5532	-48.673450	0.001151	11.511259	1.950060	0.045977
1825	9.1200e-01	-3.5328	-48.540358	0.000666	6.664413	1.128982	0.026618
1826	9.1250e-01	-3.5123	-48.370968	0.000848	8.481980	1.436886	0.033878
1827	9.1300e-01	-3.4926	-48.173346	0.000990	9.895644	1.676367	0.039524
1828	9.1350e-01	-3.4715	-48.052353	0.000606	6.058557	1.026347	0.024199
1829	9.1400e-01	-3.4525	-47.854731	0.000990	9.895644	1.676367	0.039524
1830	9.1450e-01	-3.4322	-47.665176	0.000949	9.491740	1.607944	0.037911
1831	9.1500e-01	-3.4115	-47.519984	0.000727	7.270269	1.231617	0.029038
1832	9.1550e-01	-3.3926	-47.350594	0.000848	8.481980	1.436886	0.033878
1833	9.1600e-01	-3.3723	-47.197336	0.000767	7.674173	1.300040	0.030652
1834	9.1650e-01	-3.3523	-46.979549	0.001091	10.905403	1.847425	0.043557
1835	9.1700e-01	-3.3326	-46.810159	0.000848	8.481980	1.436886	0.033878
1836	9.1750e-01	-3.3126	-46.644802	0.000828	8.280028	1.402675	0.033071
1837	9.1800e-01	-3.2920	-46.483478	0.000808	8.078077	1.368463	0.032265
1838	9.1850e-01	-3.2719	-46.310055	0.000868	8.683932	1.471098	0.034685
1839	9.1900e-01	-3.2523	-46.116466	0.000969	9.693692	1.642156	0.038718
1840	9.1950e-01	-3.2316	-45.934977	0.000909	9.087836	1.539521	0.036298
1841	9.2000e-01	-3.2127	-45.818017	0.000586	5.856605	0.992136	0.023392
1842	9.2050e-01	-3.1922	-45.620395	0.000990	9.895644	1.676367	0.039524
1843	9.2100e-01	-3.1718	-45.406641	0.001070	10.703451	1.813214	0.042751
1844	9.2150e-01	-3.1519	-45.297747	0.000545	5.452702	0.923713	0.021779
1845	9.2200e-01	-3.1321	-45.092059	0.001030	10.299548	1.744791	0.041138
1846	9.2250e-01	-3.1135	-44.785543	0.001535	15.348345	2.600080	0.061303
1847	9.2300e-01	-3.0927	-44.761345	0.000121	1.211711	0.205269	0.004840
1848	9.2350e-01	-3.0721	-44.539524	0.001111	11.107355	1.881637	0.044364
1849	9.2400e-01	-3.0518	-44.406432	0.000666	6.664413	1.128982	0.026618
1850	9.2450e-01	-3.0323	-44.220910	0.000929	9.289788	1.573733	0.037105
1851	9.2500e-01	-3.0119	-43.986990	0.001171	11.713211	1.984272	0.046784
1852	9.2550e-01	-2.9925	-43.906328	0.000404	4.039038	0.684232	0.016132
1853	9.2600e-01	-2.9722	-43.680474	0.001131	11.309307	1.915848	0.045171
1854	9.2650e-01	-2.9517	-43.478819	0.001010	10.097596	1.710579	0.040331
1855	9.2700e-01	-2.9321	-43.369926	0.000545	5.452702	0.923713	0.021779
1856	9.2750e-01	-2.9127	-43.152138	0.001091	10.905403	1.847425	0.043557
1857	9.2800e-01	-2.8922	-42.954517	0.000990	9.895644	1.676367	0.039524
1858	9.2850e-01	-2.8713	-42.833524	0.000606	6.058557	1.026347	0.024199
1859	9.2900e-01	-2.8519	-42.648001	0.000929	9.289788	1.573733	0.037105
1860	9.2950e-01	-2.8321	-42.470545	0.000889	8.885884	1.505310	0.035491
1861	9.3000e-01	-2.8111	-42.212427	0.001292	12.924922	2.189541	0.051624
1862	9.3050e-01	-2.7912	-42.059169	0.000767	7.674173	1.300040	0.030652
1863	9.3100e-01	-2.7715	-41.897845	0.000808	8.078077	1.368463	0.032265
1864	9.3150e-01	-2.7512	-41.752653	0.000727	7.270269	1.231617	0.029038
1865	9.3200e-01	-2.7317	-41.611495	0.000707	7.068317	1.197405	0.028232
1866	9.3250e-01	-2.7119	-41.365476	0.001232	12.319067	2.086906	0.049204
1867	9.3300e-01	-2.6920	-41.171887	0.000969	9.693692	1.642156	0.038718
1868	9.3350e-01	-2.6711	-41.087192	0.000424	4.240990	0.718443	0.016939
1869	9.3400e-01	-2.6511	-40.881504	0.001030	10.299548	1.744791	0.041138
1870	9.3450e-01	-2.6313	-40.655650	0.001131	11.309307	1.915848	0.045171
1871	9.3500e-01	-2.6113	-40.494327	0.000808	8.078077	1.368463	0.032265
1872	9.3550e-01	-2.5913	-40.377367	0.000586	5.856605	0.992136	0.023392
1873	9.3600e-01	-2.5715	-40.107149	0.001353	13.530778	2.292176	0.054044
1874	9.3650e-01	-2.5515	-39.974057	0.000666	6.664413	1.128982	0.026618
1875	9.3700e-01	-2.5309	-39.679641	0.001474	14.742490	2.497445	0.058883
1876	9.3750e-01	-2.5115	-39.619144	0.000303	3.029279	0.513174	0.012099
1877	9.3800e-01	-2.4921	-39.461853	0.000788	7.876125	1.334252	0.031458
1878	9.3850e-01	-2.4717	-39.272298	0.000949	9.491740	1.607944	0.037911
1879	9.3900e-01	-2.4519	-39.074676	0.000990	9.895644	1.676367	0.039524
1880	9.3950e-01	-2.4319	-38.937550	0.000687	6.866365	1.163194	0.027425
1881	9.4000e-01	-2.4114	-38.687498	0.001252	12.521019	2.121118	0.050010
1882	9.4050e-01	-2.3919	-38.518108	0.000848	8.481980	1.436886	0.033878
1883	9.4100e-01	-2.3727	-38.344685	0.000868	8.683932	1.471098	0.034685
1884	9.4150e-01	-2.3527	-38.151096	0.000969	9.693692	1.642156	0.038718
1885	9.4200e-01	-2.3317	-38.030103	0.000606	6.058557	1.026347	0.024199
1886	9.4250e-01	-2.3109	-37.796184	0.001171	11.713211	1.984272	0.046784
1887	9.4300e-01	-2.2923	-37.671157	0.000626	6.260509	1.060559	0.025005
1888	9.4350e-01	-2.2726	-37.441271	0.001151	11.511259	1.950060	0.045977
1889	9.4400e-01	-2.2518	-37.243649	0.000990	9.895644	1.676367	0.039524
1890	9.4450e-01	-2.2315	-37.094424	0.000747	7.472221	1.265828	0.029845
1891	9.4500e-01	-2.2115	-36.912935	0.000909	9.087836	1.539521	0.036298
1892	9.4550e-01	-2.1925	-36.763710	0.000747	7.472221	1.265828	0.029845
1893	9.4600e-01	-2.1711	-36.533824	0.001151	11.511259	1.950060	0.045977
1894	9.4650e-01	-2.1517	-36.344268	0.000949	9.491740	1.607944	0.037911
1895	9.4700e-01	-2.1321	-36.138580	0.001030	10.299548	1.744791	0.041138
1896	9.4750e-01	-2.1119	-36.029686	0.000545	5.452702	0.923713	0.021779
1897	9.4800e-01	-2.0924	-35.836098	0.000969	9.693692	1.642156	0.038718
1898	9.4850e-01	-2.0718	-35.642509	0.000969	9.693692	1.642156	0.038718
1899	9.4900e-01	-2.0509	-35.440854	0.001010	10.097596	1.710579	0.040331
1900	9.4950e-01	-2.0321	-35.275497	0.000828	8.280028	1.402675	0.033071
1901	9.5000e-01	-2.0116	-35.053677	0.001111	11.107355	1.881637	0.044364
1902	9.5050e-01	-1.9923	-34.932684	0.000606	6.058557	1.026347	0.024199
1903	9.5100e-01	-1.9717	-34.646334	0.001434	14.338586	2.429022	0.057270
1904	9.5150e-01	-1.9518	-34.545506	0.000505	5.048798	0.855290	0.020165
1905	9.5200e-01	-1.9324	-34.355950	0.000949	9.491740	1.607944	0.037911
1906	9.5250e-01	-1.9116	-34.146229	0.001050	10.501500	1.779002	0.041944
1907	9.5300e-01	-1.8913	-33.944574	0.001010	10.097596	1.710579	0.040331
1908	9.5350e-01	-1.8723	-33.750986	0.000969	9.693692	1.642156	0.038718
1909	9.5400e-01	-1.8522	-33.565463	0.000929	9.289788	1.573733	0.037105
1910	9.5450e-01	-1.8317	-33.428338	0.000687	6.866365	1.163194	0.027425
1911	9.5500e-01	-1.8116	-33.218617	0.001050	10.501500	1.779002	0.041944
1912	9.5550e-01	-1.7921	-33.077458	0.000707	7.068317	1.197405	0.028232
1913	9.5600e-01	-1.7715	-32.839505	0.001192	11.915163	2.018483	0.047591
1914	9.5650e-01	-1.7518	-32.653983	0.000929	9.289788	1.573733	0.037105
1915	9.5700e-01	-1.7314	-32.512824	0.000707	7.068317	1.197405	0.028232
1916	9.5750e-01	-1.7109	-32.307136	0.001030	10.299548	1.744791	0.041138
1917	9.5800e-01	-1.6920	-32.121614	0.000929	9.289788	1.573733	0.037105
1918	9.5850e-01	-1.6718	-31.903826	0.001091	10.905403	1.847425	0.043557
1919	9.5900e-01	-1.6518	-31.750569	0.000767	7.674173	1.300040	0.030652
1920	9.5950e-01	-1.6312	-31.561013	0.000949	9.491740	1.607944	0.037911
1921	9.6000e-01	-1.6114	-31.306928	0.001272	12.722971	2.155330	0.050817
1922	9.6050e-01	-1.5917	-31.145604	0.000808	8.078077	1.368463	0.032265
1923	9.6100e-01	-1.5723	-30.996379	0.000747	7.472221	1.265828	0.029845
1924	9.6150e-01	-1.5516	-30.826989	0.000848	8.481980	1.436886	0.033878
1925	9.6200e-01	-1.5310	-30.665665	0.000808	8.078077	1.368463	0.032265
1926	9.6250e-01	-1.5122	-30.435779	0.001151	11.511259	1.950060	0.045977
1927	9.6300e-01	-1.4917	-30.274455	0.000808	8.078077	1.368463	0.032265
1928	9.6350e-01	-1.4709	-30.068767	0.001030	10.299548	1.744791	0.041138
1929	9.6400e-01	-1.4513	-29.842913	0.001131	11.309307	1.915848	0.045171
1930	9.6450e-01	-1.4317	-29.677556	0.000828	8.280028	1.402675	0.033071
1931	9.6500e-01	-1.4121	-29.500100	0.000889	8.885884	1.505310	0.035491
1932	9.6550e-01	-1.3914	-29.322643	0.000889	8.885884	1.505310	0.035491
1933	9.6600e-01	-1.3711	-29.060492	0.001313	13.126874	2.223753	0.052430
1934	9.6650e-01	-1.3509	-28.943532	0.000586	5.856605	0.992136	0.023392
1935	9.6700e-01	-1.3319	-28.733811	0.001050	10.501500	1.779002	0.041944
1936	9.6750e-01	-1.3126	-28.536189	0.000990	9.895644	1.676367	0.039524
1937	9.6800e-01	-1.2909	-28.334534	0.001010	10.097596	1.710579	0.040331
1938	9.6850e-01	-1.2715	-28.149012	0.000929	9.289788	1.573733	0.037105
1939	9.6900e-01	-1.2519	-27.967522	0.000909	9.087836	1.539521	0.036298
1940	9.6950e-01	-1.2320	-27.777967	0.000949	9.491740	1.607944	0.037911
1941	9.7000e-01	-1.2113	-27.612610	0.000828	8.280028	1.402675	0.033071
1942	9.7050e-01	-1.1922	-27.435153	0.000889	8.885884	1.505310	0.035491
1943	9.7100e-01	-1.1721	-27.209300	0.001131	11.309307	1.915848	0.045171
1944	9.7150e-01	-1.1524	-27.019744	0.000949	9.491740	1.607944	0.037911
1945	9.7200e-01	-1.1323	-26.834222	0.000929	9.289788	1.573733	0.037105
1946	9.7250e-01	-1.1121	-26.652732	0.000909	9.087836	1.539521	0.036298
1947	9.7300e-01	-1.0923	-26.455110	0.000990	9.895644	1.676367	0.039524
1948	9.7350e-01	-1.0712	-26.241356	0.001070	10.703451	1.813214	0.042751
1949	9.7400e-01	-1.0517	-26.063900	0.000889	8.885884	1.505310	0.035491
1950	9.7450e-01	-1.0316	-25.838046	0.001131	11.309307	1.915848	0.045171
1951	9.7500e-01	-1.0117	-25.628325	0.001050	10.501500	1.779002	0.041944
1952	9.7550e-01	-0.9919	-25.479100	0.000747	7.472221	1.265828	0.029845
1953	9.7600e-01	-0.9711	-25.305677	0.000868	8.683932	1.471098	0.034685
1954	9.7650e-01	-0.9518	-25.124188	0.000909	9.087836	1.539521	0.036298
1955	9.7700e-01	-0.9325	-24.902367	0.001111	11.107355	1.881637	0.044364
1956	9.7750e-01	-0.9122	-24.720878	0.000909	9.087836	1.539521	0.036298
1957	9.7800e-01	-0.8915	-24.563587	0.000788	7.876125	1.334252	0.031458
1958	9.7850e-01	-0.8713	-24.325634	0.001192	11.915163	2.018483	0.047591
1959	9.7900e-01	-0.8518	-24.176410	0.000747	7.472221	1.265828	0.029845
1960	9.7950e-01	-0.8331	-23.946523	0.001151	11.511259	1.950060	0.045977
1961	9.8000e-01	-0.8121	-23.785199	0.000808	8.078077	1.368463	0.032265
1962	9.8050e-01	-0.7915	-23.595643	0.000949	9.491740	1.607944	0.037911
1963	9.8100e-01	-0.7713	-23.373823	0.001111	11.107355	1.881637	0.044364
1964	9.8150e-01	-0.7509	-23.067307	0.001535	15.348345	2.600080	0.061303
1965	9.8200e-01	-0.7310	-23.127804	-0.000303	-3.029279	-0.513174	-0.012099
1966	9.8250e-01	-0.7112	-22.821288	0.001535	15.348345	2.600080	0.061303
1967	9.8300e-01	-0.6918	-22.603501	0.001091	10.905403	1.847425	0.043557
1968	9.8350e-01	-0.6704	-22.498641	0.000525	5.250750	0.889501	0.020972
1969	9.8400e-01	-0.6515	-22.240522	0.001292	12.924922	2.189541	0.051624
1970	9.8450e-01	-0.6312	-22.055000	0.000929	9.289788	1.573733	0.037105
1971	9.8500e-01	-0.6113	-21.873510	0.000909	9.087836	1.539521	0.036298
1972	9.8550e-01	-0.5915	-21.643624	0.001151	11.511259	1.950060	0.045977
1973	9.8600e-01	-0.5723	-21.462134	0.000909	9.087836	1.539521	0.036298
1974	9.8650e-01	-0.5517	-21.272579	0.000949	9.491740	1.607944	0.037911
1975	9.8700e-01	-0.5315	-21.099155	0.000868	8.683932	1.471098	0.034685
1976	9.8750e-01	-0.5116	-20.881368	0.001091	10.905403	1.847425	0.043557
1977	9.8800e-01	-0.4906	-20.720044	0.000808	8.078077	1.368463	0.032265
1978	9.8850e-01	-0.4713	-20.498224	0.001111	11.107355	1.881637	0.044364
1979	9.8900e-01	-0.4511	-20.300602	0.000990	9.895644	1.676367	0.039524
1980	9.8950e-01	-0.4303	-20.123145	0.000889	8.885884	1.505310	0.035491
1981	9.9000e-01	-0.4115	-19.909391	0.001070	10.703451	1.813214	0.042751
1982	9.9050e-01	-0.3907	-19.784365	0.000626	6.260509	1.060559	0.025005
1983	9.9100e-01	-0.3719	-19.498015	0.001434	14.338586	2.429022	0.057270
1984	9.9150e-01	-0.3510	-19.332658	0.000828	8.280028	1.402675	0.033071
1985	9.9200e-01	-0.3314	-19.094705	0.001192	11.915163	2.018483	0.047591
1986	9.9250e-01	-0.3114	-18.949514	0.000727	7.270269	1.231617	0.029038
1987	9.9300e-01	-0.2914	-18.695429	0.001272	12.722971	2.155330	0.050817
1988	9.9350e-01	-0.2705	-18.509906	0.000929	9.289788	1.573733	0.037105
1989	9.9400e-01	-0.2515	-18.316317	0.000969	9.693692	1.642156	0.038718
1990	9.9450e-01	-0.2309	-18.130795	0.000929	9.289788	1.573733	0.037105
1991	9.9500e-01	-0.2118	-17.957372	0.000868	8.683932	1.471098	0.034685
1992	9.9550e-01	-0.1908	-17.711353	0.001232	12.319067	2.086906	0.049204
1993	9.9600e-01	-0.1710	-17.610525	0.000505	5.048798	0.855290	0.020165
1994	9.9650e-01	-0.1513	-17.380638	0.001151	11.511259	1.950060	0.045977
1995	9.9700e-01	-0.1309	-17.158818	0.001111	11.107355	1.881637	0.044364
1996	9.9750e-01	-0.1118	-17.021693	0.000687	6.866365	1.163194	0.027425
1997	9.9800e-01	-0.0909	-16.816005	0.001030	10.299548	1.744791	0.041138
1998	9.9850e-01	-0.0708	-16.553853	0.001313	13.126874	2.223753	0.052430
1999	9.9900e-01	-0.0507	-16.356231	0.000990	9.895644	1.676367	0.039524
2000	9.9950e-01	-0.0313	-16.154576	0.001010	10.097596	1.710579	0.040331
2001	1.0000e+00	-0.0105	-16.029550	0.001010	10.097596	1.710579	0.025005

Smooth data before PMax, +/-Pr and +/-Vc Calc.

PMax (uC/cm2):	8.67e+01
Pr (uC/cm2):	9.91e+00
-Pr (uC/cm2):	-2.00e+01
PLoss (uC/cm2):	-2.01e+01
-Vc:	-9.39e-01
C (Max-Eff) (nF):	8.68e-01
K (Eff):	1.47e+03
Vert. (+/-Pr) Shift (uC/cm2):	-5.05e+00
Offset (uC/cm2):	-3.94e+00

A (Loop Area - uC/cm2·Volts):	-2.01e-02



Hysteresis Version: 5.48.1 - Radiant Technologies, Inc., 1999 - 9/12/24

