»»»»»»»»»»»»»»»»»»»»»»»»»»»»»»»»»»»» Hysteresis ««««««««««««««««««««««««««««««««««««
»»»  Executed Version:	5.48.1
»»»  Vision Version:	5.48.4 (R)
»»»  Vision Compiled:	9/18/24
»»»  Driver Version:	5.47.0
»»»  Windows Version:	Windows 8 or 8.1
»»»  Processor Information:	x86 (AMD or Intel) - 32 Processors
»»»  Tester Name:	PMF21124-494 (100V)
»»»  Tester S/N:	PMF21124-494
»»»  Internal Amp Type:	100V RevK 270k
»»»  Internal Amp S/N:	iAB2-596/K     
»»»  Execution Count:	1
»»»»»»»»»»»»»»»»»»»»»»»»»»»»»»»»»»»»»»»»»»««««««««««««««««««««««««««««««««««««««««««

Stored:	7/9/2025 - 17:24:40
Configured:	07/09/25 02:06:30 PM
Executed:	07/09/25 05:24:08 PM

»»»»»»»»»»»»»»»»»»»»»»»»»»»»»»»»»»» Sample Info ««««««««««««««««««««««««««««««««««««
Sample Name:	
Lot Name:	
Wafer Name:	
Die Row/Column:	0/0
Capacitor Number:	0
Sample Area (cm2):	1.00e-04
Sample Thickness (microns):	1.50e-01

Amplifier:	Internal

»»»»»»»»»»»»»»»»»»»»»»»»»»»»»»»»»»» Tester Info «««««««««««««««««««««««««««««««««««
Tester Name:	PMF21124-494 (100V)
Tester Serial Number:	PMF21124-494
Return Signal Amp. Level:	0.19 [Index: 3]

»»»»»»»»»»»»»»»»»»»»»»»»»»»»»»»» Hysteresis Info ««««««««««««««««««««««««««««««««««
Task Name:	Hyst-900
Volts:	10.00
Field:	666.67 (kV/cm)
DCBias:	0.00
DCField:	0.00 (kV/cm)
Hysteresis Period (ms):	2.00e+02
Preset:	Enabled
Preset Delay (ms):	1.00e+03
Profile:	Standard Bipolar

»»»»»»»»»»»»»»»»»»»»»»»»»»»»»»»»»»»»»» Data «««««««««««««««««««««««««««««««««««««««
Points:	2009

Valid Data

Point	Time (ms)	Drive Voltage	Measured Polarization (uC/cm2)	Capacitance (uF)	Normalized Capacitance (uF/cm2)	Dielectric Constant	Instantaneous Current (mA)
   1	0.0000e+00	0.0004	9.872815	0.000385	3.851325	0.652432	0.000077
   2	9.9500e-02	0.0197	9.949521	0.000385	3.851325	0.652432	0.000077
   3	1.9900e-01	0.0386	10.046412	0.000486	4.864832	0.824125	0.000097
   4	2.9850e-01	0.0586	10.199823	0.000770	7.702651	1.304864	0.000154
   5	3.9800e-01	0.0790	10.280566	0.000405	4.054027	0.686771	0.000081
   6	4.9750e-01	0.0996	10.365346	0.000426	4.256728	0.721109	0.000085
   7	5.9700e-01	0.1189	10.514720	0.000750	7.499949	1.270526	0.000150
   8	6.9650e-01	0.1387	10.603537	0.000446	4.459429	0.755448	0.000089
   9	7.9600e-01	0.1591	10.744837	0.000709	7.094547	1.201849	0.000142
  10	8.9550e-01	0.1782	10.821542	0.000385	3.851325	0.652432	0.000077
  11	9.9500e-01	0.1986	10.934582	0.000568	5.675637	0.961479	0.000114
  12	1.0945e+00	0.2197	11.092030	0.000791	7.905352	1.339203	0.000158
  13	1.1940e+00	0.2392	11.164699	0.000365	3.648624	0.618094	0.000073
  14	1.2935e+00	0.2582	11.265627	0.000507	5.067533	0.858463	0.000101
  15	1.3930e+00	0.2785	11.402890	0.000689	6.891845	1.167510	0.000138
  16	1.4925e+00	0.2979	11.495744	0.000466	4.662131	0.789786	0.000093
  17	1.5920e+00	0.3176	11.616858	0.000608	6.081040	1.030156	0.000122
  18	1.6915e+00	0.3384	11.766232	0.000750	7.499949	1.270526	0.000150
  19	1.7910e+00	0.3582	11.834863	0.000345	3.445923	0.583755	0.000069
  20	1.8905e+00	0.3776	11.943866	0.000547	5.472936	0.927140	0.000110
  21	1.9900e+00	0.3983	12.064980	0.000608	6.081040	1.030156	0.000122
  22	2.0895e+00	0.4182	12.178020	0.000568	5.675637	0.961479	0.000114
  23	2.1890e+00	0.4370	12.282985	0.000527	5.270235	0.892802	0.000105
  24	2.2885e+00	0.4578	12.367765	0.000426	4.256728	0.721109	0.000085
  25	2.3880e+00	0.4781	12.505028	0.000689	6.891845	1.167510	0.000138
  26	2.4875e+00	0.4975	12.618068	0.000568	5.675637	0.961479	0.000114
  27	2.5870e+00	0.5173	12.706885	0.000446	4.459429	0.755448	0.000089
  28	2.6865e+00	0.5381	12.832036	0.000628	6.283741	1.064495	0.000126
  29	2.7860e+00	0.5572	12.932964	0.000507	5.067533	0.858463	0.000101
  30	2.8855e+00	0.5771	13.041967	0.000547	5.472936	0.927140	0.000110
  31	2.9850e+00	0.5975	13.183267	0.000709	7.094547	1.201849	0.000142
  32	3.0845e+00	0.6169	13.251898	0.000345	3.445923	0.583755	0.000069
  33	3.1840e+00	0.6368	13.360901	0.000547	5.472936	0.927140	0.000110
  34	3.2835e+00	0.6558	13.502200	0.000709	7.094547	1.201849	0.000142
  35	3.3830e+00	0.6763	13.562758	0.000304	3.040520	0.515078	0.000061
  36	3.4825e+00	0.6970	13.728280	0.000831	8.310755	1.407880	0.000166
  37	3.5820e+00	0.7165	13.796911	0.000345	3.445923	0.583755	0.000069
  38	3.6815e+00	0.7364	13.897840	0.000507	5.067533	0.858463	0.000101
  39	3.7810e+00	0.7562	14.027028	0.000649	6.486443	1.098833	0.000130
  40	3.8805e+00	0.7769	14.140068	0.000568	5.675637	0.961479	0.000114
  41	3.9800e+00	0.7961	14.297516	0.000791	7.905352	1.339203	0.000158
  42	4.0795e+00	0.8156	14.382296	0.000426	4.256728	0.721109	0.000085
  43	4.1790e+00	0.8362	14.515522	0.000669	6.689144	1.133172	0.000134
  44	4.2785e+00	0.8562	14.636636	0.000608	6.081040	1.030156	0.000122
  45	4.3780e+00	0.8763	14.693156	0.000284	2.837819	0.480739	0.000057
  46	4.4775e+00	0.8961	14.822344	0.000649	6.486443	1.098833	0.000130
  47	4.5770e+00	0.9161	14.979792	0.000791	7.905352	1.339203	0.000158
  48	4.6765e+00	0.9352	15.080721	0.000507	5.067533	0.858463	0.000101
  49	4.7760e+00	0.9563	15.181649	0.000507	5.067533	0.858463	0.000101
  50	4.8755e+00	0.9756	15.290652	0.000547	5.472936	0.927140	0.000110
  51	4.9750e+00	0.9955	15.423877	0.000669	6.689144	1.133172	0.000134
  52	5.0745e+00	1.0147	15.536917	0.000568	5.675637	0.961479	0.000114
  53	5.1740e+00	1.0349	15.601511	0.000324	3.243221	0.549417	0.000065
  54	5.2735e+00	1.0561	15.746848	0.000730	7.297248	1.236187	0.000146
  55	5.3730e+00	1.0754	15.859888	0.000568	5.675637	0.961479	0.000114
  56	5.4725e+00	1.0955	15.968890	0.000547	5.472936	0.927140	0.000110
  57	5.5720e+00	1.1150	16.118264	0.000750	7.499949	1.270526	0.000150
  58	5.6715e+00	1.1358	16.239379	0.000608	6.081040	1.030156	0.000122
  59	5.7710e+00	1.1551	16.344344	0.000527	5.270235	0.892802	0.000105
  60	5.8705e+00	1.1753	16.449310	0.000527	5.270235	0.892802	0.000105
  61	5.9700e+00	1.1949	16.554275	0.000527	5.270235	0.892802	0.000105
  62	6.0695e+00	1.2158	16.679426	0.000628	6.283741	1.064495	0.000126
  63	6.1690e+00	1.2344	16.792466	0.000568	5.675637	0.961479	0.000114
  64	6.2685e+00	1.2545	16.933766	0.000709	7.094547	1.201849	0.000142
  65	6.3680e+00	1.2743	17.018546	0.000426	4.256728	0.721109	0.000085
  66	6.4675e+00	1.2936	17.139660	0.000608	6.081040	1.030156	0.000122
  67	6.5670e+00	1.3140	17.284997	0.000730	7.297248	1.236187	0.000146
  68	6.6665e+00	1.3335	17.381888	0.000486	4.864832	0.824125	0.000097
  69	6.7660e+00	1.3538	17.486853	0.000527	5.270235	0.892802	0.000105
  70	6.8655e+00	1.3734	17.599893	0.000568	5.675637	0.961479	0.000114
  71	6.9650e+00	1.3945	17.716970	0.000588	5.878339	0.995818	0.000118
  72	7.0645e+00	1.4123	17.834047	0.000588	5.878339	0.995818	0.000118
  73	7.1640e+00	1.4339	17.963235	0.000649	6.486443	1.098833	0.000130
  74	7.2635e+00	1.4530	18.056090	0.000466	4.662131	0.789786	0.000093
  75	7.3630e+00	1.4728	18.177204	0.000608	6.081040	1.030156	0.000122
  76	7.4625e+00	1.4925	18.298318	0.000608	6.081040	1.030156	0.000122
  77	7.5620e+00	1.5134	18.427506	0.000649	6.486443	1.098833	0.000130
  78	7.6615e+00	1.5331	18.576880	0.000750	7.499949	1.270526	0.000150
  79	7.7610e+00	1.5530	18.706068	0.000649	6.486443	1.098833	0.000130
  80	7.8605e+00	1.5730	18.798923	0.000466	4.662131	0.789786	0.000093
  81	7.9600e+00	1.5921	18.887740	0.000446	4.459429	0.755448	0.000089
  82	8.0595e+00	1.6122	19.004816	0.000588	5.878339	0.995818	0.000118
  83	8.1590e+00	1.6331	19.162265	0.000791	7.905352	1.339203	0.000158
  84	8.2585e+00	1.6531	19.226859	0.000324	3.243221	0.549417	0.000065
  85	8.3580e+00	1.6728	19.331824	0.000527	5.270235	0.892802	0.000105
  86	8.4575e+00	1.6933	19.456976	0.000628	6.283741	1.064495	0.000126
  87	8.5570e+00	1.7129	19.590201	0.000669	6.689144	1.133172	0.000134
  88	8.6565e+00	1.7317	19.707278	0.000588	5.878339	0.995818	0.000118
  89	8.7560e+00	1.7524	19.812244	0.000527	5.270235	0.892802	0.000105
  90	8.8555e+00	1.7725	19.953543	0.000709	7.094547	1.201849	0.000142
  91	8.9550e+00	1.7919	20.058509	0.000527	5.270235	0.892802	0.000105
  92	9.0545e+00	1.8127	20.183660	0.000628	6.283741	1.064495	0.000126
  93	9.1540e+00	1.8324	20.284589	0.000507	5.067533	0.858463	0.000101
  94	9.2535e+00	1.8510	20.417814	0.000669	6.689144	1.133172	0.000134
  95	9.3530e+00	1.8723	20.551039	0.000669	6.689144	1.133172	0.000134
  96	9.4525e+00	1.8917	20.599485	0.000243	2.432416	0.412062	0.000049
  97	9.5520e+00	1.9114	20.765008	0.000831	8.310755	1.407880	0.000166
  98	9.6515e+00	1.9309	20.882085	0.000588	5.878339	0.995818	0.000118
  99	9.7510e+00	1.9514	20.958790	0.000385	3.851325	0.652432	0.000077
 100	9.8505e+00	1.9705	21.063756	0.000527	5.270235	0.892802	0.000105
 101	9.9500e+00	1.9910	21.184870	0.000608	6.081040	1.030156	0.000122
 102	1.0050e+01	2.0106	21.338281	0.000770	7.702651	1.304864	0.000154
 103	1.0149e+01	2.0320	21.451321	0.000568	5.675637	0.961479	0.000114
 104	1.0248e+01	2.0517	21.548212	0.000486	4.864832	0.824125	0.000097
 105	1.0348e+01	2.0714	21.701623	0.000770	7.702651	1.304864	0.000154
 106	1.0447e+01	2.0914	21.798514	0.000486	4.864832	0.824125	0.000097
 107	1.0547e+01	2.1112	21.919628	0.000608	6.081040	1.030156	0.000122
 108	1.0646e+01	2.1311	22.024594	0.000527	5.270235	0.892802	0.000105
 109	1.0746e+01	2.1507	22.186079	0.000811	8.108053	1.373541	0.000162
 110	1.0845e+01	2.1708	22.282971	0.000486	4.864832	0.824125	0.000097
 111	1.0945e+01	2.1906	22.383899	0.000507	5.067533	0.858463	0.000101
 112	1.1044e+01	2.2112	22.476753	0.000466	4.662131	0.789786	0.000093
 113	1.1144e+01	2.2303	22.609979	0.000669	6.689144	1.133172	0.000134
 114	1.1243e+01	2.2509	22.755316	0.000730	7.297248	1.236187	0.000146
 115	1.1343e+01	2.2708	22.827984	0.000365	3.648624	0.618094	0.000073
 116	1.1443e+01	2.2900	22.965247	0.000689	6.891845	1.167510	0.000138
 117	1.1542e+01	2.3105	23.102509	0.000689	6.891845	1.167510	0.000138
 118	1.1642e+01	2.3309	23.215549	0.000568	5.675637	0.961479	0.000114
 119	1.1741e+01	2.3499	23.352812	0.000689	6.891845	1.167510	0.000138
 120	1.1841e+01	2.3705	23.457777	0.000527	5.270235	0.892802	0.000105
 121	1.1940e+01	2.3909	23.566780	0.000547	5.472936	0.927140	0.000110
 122	1.2040e+01	2.4095	23.687894	0.000608	6.081040	1.030156	0.000122
 123	1.2139e+01	2.4292	23.809008	0.000608	6.081040	1.030156	0.000122
 124	1.2239e+01	2.4502	23.905899	0.000486	4.864832	0.824125	0.000097
 125	1.2338e+01	2.4707	24.014902	0.000547	5.472936	0.927140	0.000110
 126	1.2438e+01	2.4891	24.184462	0.000851	8.513456	1.442218	0.000170
 127	1.2537e+01	2.5094	24.277316	0.000466	4.662131	0.789786	0.000093
 128	1.2636e+01	2.5295	24.394393	0.000588	5.878339	0.995818	0.000118
 129	1.2736e+01	2.5497	24.519544	0.000628	6.283741	1.064495	0.000126
 130	1.2835e+01	2.5701	24.600287	0.000405	4.054027	0.686771	0.000081
 131	1.2935e+01	2.5889	24.721401	0.000608	6.081040	1.030156	0.000122
 132	1.3034e+01	2.6086	24.854626	0.000669	6.689144	1.133172	0.000134
 133	1.3134e+01	2.6295	24.959592	0.000527	5.270235	0.892802	0.000105
 134	1.3233e+01	2.6479	25.072632	0.000568	5.675637	0.961479	0.000114
 135	1.3333e+01	2.6685	25.181634	0.000547	5.472936	0.927140	0.000110
 136	1.3432e+01	2.6886	25.298711	0.000588	5.878339	0.995818	0.000118
 137	1.3532e+01	2.7097	25.411751	0.000568	5.675637	0.961479	0.000114
 138	1.3632e+01	2.7286	25.549014	0.000689	6.891845	1.167510	0.000138
 139	1.3731e+01	2.7471	25.633793	0.000426	4.256728	0.721109	0.000085
 140	1.3831e+01	2.7692	25.767019	0.000669	6.689144	1.133172	0.000134
 141	1.3930e+01	2.7880	25.896207	0.000649	6.486443	1.098833	0.000130
 142	1.4030e+01	2.8073	26.041544	0.000730	7.297248	1.236187	0.000146
 143	1.4129e+01	2.8281	26.158621	0.000588	5.878339	0.995818	0.000118
 144	1.4229e+01	2.8478	26.235327	0.000385	3.851325	0.652432	0.000077
 145	1.4328e+01	2.8680	26.356441	0.000608	6.081040	1.030156	0.000122
 146	1.4428e+01	2.8873	26.457369	0.000507	5.067533	0.858463	0.000101
 147	1.4527e+01	2.9072	26.635003	0.000892	8.918859	1.510896	0.000179
 148	1.4627e+01	2.9278	26.699597	0.000324	3.243221	0.549417	0.000065
 149	1.4726e+01	2.9481	26.784377	0.000426	4.256728	0.721109	0.000085
 150	1.4825e+01	2.9673	26.913565	0.000649	6.486443	1.098833	0.000130
 151	1.4925e+01	2.9872	27.034679	0.000608	6.081040	1.030156	0.000122
 152	1.5024e+01	3.0076	27.127534	0.000466	4.662131	0.789786	0.000093
 153	1.5124e+01	3.0276	27.248648	0.000608	6.081040	1.030156	0.000122
 154	1.5223e+01	3.0473	27.361687	0.000568	5.675637	0.961479	0.000114
 155	1.5323e+01	3.0674	27.490876	0.000649	6.486443	1.098833	0.000130
 156	1.5422e+01	3.0872	27.587767	0.000486	4.864832	0.824125	0.000097
 157	1.5522e+01	3.1072	27.692733	0.000527	5.270235	0.892802	0.000105
 158	1.5621e+01	3.1268	27.850181	0.000791	7.905352	1.339203	0.000158
 159	1.5721e+01	3.1469	27.934961	0.000426	4.256728	0.721109	0.000085
 160	1.5820e+01	3.1670	28.019741	0.000426	4.256728	0.721109	0.000085
 161	1.5920e+01	3.1867	28.161040	0.000709	7.094547	1.201849	0.000142
 162	1.6020e+01	3.2060	28.282154	0.000608	6.081040	1.030156	0.000122
 163	1.6119e+01	3.2265	28.407306	0.000628	6.283741	1.064495	0.000126
 164	1.6218e+01	3.2474	28.512271	0.000527	5.270235	0.892802	0.000105
 165	1.6318e+01	3.2664	28.609162	0.000486	4.864832	0.824125	0.000097
 166	1.6418e+01	3.2856	28.714128	0.000527	5.270235	0.892802	0.000105
 167	1.6517e+01	3.3060	28.827168	0.000568	5.675637	0.961479	0.000114
 168	1.6616e+01	3.3255	28.915985	0.000446	4.459429	0.755448	0.000089
 169	1.6716e+01	3.3459	29.029025	0.000568	5.675637	0.961479	0.000114
 170	1.6816e+01	3.3669	29.186473	0.000791	7.905352	1.339203	0.000158
 171	1.6915e+01	3.3862	29.255104	0.000345	3.445923	0.583755	0.000069
 172	1.7015e+01	3.4058	29.400441	0.000730	7.297248	1.236187	0.000146
 173	1.7114e+01	3.4258	29.529629	0.000649	6.486443	1.098833	0.000130
 174	1.7213e+01	3.4455	29.634595	0.000527	5.270235	0.892802	0.000105
 175	1.7313e+01	3.4650	29.719375	0.000426	4.256728	0.721109	0.000085
 176	1.7413e+01	3.4851	29.820303	0.000507	5.067533	0.858463	0.000101
 177	1.7512e+01	3.5051	29.953529	0.000669	6.689144	1.133172	0.000134
 178	1.7611e+01	3.5262	30.074643	0.000608	6.081040	1.030156	0.000122
 179	1.7711e+01	3.5451	30.203831	0.000649	6.486443	1.098833	0.000130
 180	1.7811e+01	3.5651	30.312834	0.000547	5.472936	0.927140	0.000110
 181	1.7910e+01	3.5857	30.381465	0.000345	3.445923	0.583755	0.000069
 182	1.8009e+01	3.6053	30.502579	0.000608	6.081040	1.030156	0.000122
 183	1.8109e+01	3.6248	30.655990	0.000770	7.702651	1.304864	0.000154
 184	1.8209e+01	3.6443	30.777104	0.000608	6.081040	1.030156	0.000122
 185	1.8308e+01	3.6646	30.878033	0.000507	5.067533	0.858463	0.000101
 186	1.8407e+01	3.6857	30.954738	0.000385	3.851325	0.652432	0.000077
 187	1.8507e+01	3.7045	31.067778	0.000568	5.675637	0.961479	0.000114
 188	1.8607e+01	3.7244	31.188892	0.000608	6.081040	1.030156	0.000122
 189	1.8706e+01	3.7446	31.297895	0.000547	5.472936	0.927140	0.000110
 190	1.8805e+01	3.7655	31.402860	0.000527	5.270235	0.892802	0.000105
 191	1.8905e+01	3.7841	31.503789	0.000507	5.067533	0.858463	0.000101
 192	1.9005e+01	3.8039	31.616829	0.000568	5.675637	0.961479	0.000114
 193	1.9104e+01	3.8247	31.729868	0.000568	5.675637	0.961479	0.000114
 194	1.9203e+01	3.8436	31.794463	0.000324	3.243221	0.549417	0.000065
 195	1.9303e+01	3.8642	31.927688	0.000669	6.689144	1.133172	0.000134
 196	1.9402e+01	3.8832	32.020542	0.000466	4.662131	0.789786	0.000093
 197	1.9502e+01	3.9039	32.157805	0.000689	6.891845	1.167510	0.000138
 198	1.9602e+01	3.9242	32.230473	0.000365	3.648624	0.618094	0.000073
 199	1.9701e+01	3.9429	32.367736	0.000689	6.891845	1.167510	0.000138
 200	1.9800e+01	3.9646	32.476738	0.000547	5.472936	0.927140	0.000110
 201	1.9900e+01	3.9832	32.541333	0.000324	3.243221	0.549417	0.000065
 202	2.0000e+01	4.0034	32.642261	0.000507	5.067533	0.858463	0.000101
 203	2.0099e+01	4.0226	32.755301	0.000568	5.675637	0.961479	0.000114
 204	2.0198e+01	4.0435	32.844118	0.000446	4.459429	0.755448	0.000089
 205	2.0298e+01	4.0635	32.965232	0.000608	6.081040	1.030156	0.000122
 206	2.0398e+01	4.0830	33.090383	0.000628	6.283741	1.064495	0.000126
 207	2.0497e+01	4.1027	33.191311	0.000507	5.067533	0.858463	0.000101
 208	2.0596e+01	4.1216	33.292240	0.000507	5.067533	0.858463	0.000101
 209	2.0696e+01	4.1433	33.397205	0.000527	5.270235	0.892802	0.000105
 210	2.0796e+01	4.1628	33.514282	0.000588	5.878339	0.995818	0.000118
 211	2.0895e+01	4.1822	33.599062	0.000426	4.256728	0.721109	0.000085
 212	2.0994e+01	4.2027	33.732288	0.000669	6.689144	1.133172	0.000134
 213	2.1094e+01	4.2220	33.817068	0.000426	4.256728	0.721109	0.000085
 214	2.1194e+01	4.2425	33.917996	0.000507	5.067533	0.858463	0.000101
 215	2.1293e+01	4.2629	34.026999	0.000547	5.472936	0.927140	0.000110
 216	2.1392e+01	4.2823	34.136001	0.000547	5.472936	0.927140	0.000110
 217	2.1492e+01	4.3026	34.200595	0.000324	3.243221	0.549417	0.000065
 218	2.1591e+01	4.3221	34.341895	0.000709	7.094547	1.201849	0.000142
 219	2.1691e+01	4.3425	34.450898	0.000547	5.472936	0.927140	0.000110
 220	2.1791e+01	4.3628	34.567975	0.000588	5.878339	0.995818	0.000118
 221	2.1890e+01	4.3819	34.648717	0.000405	4.054027	0.686771	0.000081
 222	2.1989e+01	4.4009	34.753683	0.000527	5.270235	0.892802	0.000105
 223	2.2089e+01	4.4216	34.858649	0.000527	5.270235	0.892802	0.000105
 224	2.2189e+01	4.4413	34.951503	0.000466	4.662131	0.789786	0.000093
 225	2.2288e+01	4.4616	35.076654	0.000628	6.283741	1.064495	0.000126
 226	2.2387e+01	4.4820	35.161434	0.000426	4.256728	0.721109	0.000085
 227	2.2487e+01	4.5014	35.302733	0.000709	7.094547	1.201849	0.000142
 228	2.2587e+01	4.5216	35.375402	0.000365	3.648624	0.618094	0.000073
 229	2.2686e+01	4.5409	35.452107	0.000385	3.851325	0.652432	0.000077
 230	2.2785e+01	4.5604	35.601482	0.000750	7.499949	1.270526	0.000150
 231	2.2885e+01	4.5806	35.710484	0.000547	5.472936	0.927140	0.000110
 232	2.2985e+01	4.6018	35.807375	0.000486	4.864832	0.824125	0.000097
 233	2.3084e+01	4.6215	35.912341	0.000527	5.270235	0.892802	0.000105
 234	2.3183e+01	4.6419	36.005195	0.000466	4.662131	0.789786	0.000093
 235	2.3283e+01	4.6607	36.081901	0.000385	3.851325	0.652432	0.000077
 236	2.3383e+01	4.6803	36.215126	0.000669	6.689144	1.133172	0.000134
 237	2.3482e+01	4.7002	36.299906	0.000426	4.256728	0.721109	0.000085
 238	2.3581e+01	4.7202	36.433131	0.000669	6.689144	1.133172	0.000134
 239	2.3681e+01	4.7407	36.497726	0.000324	3.243221	0.549417	0.000065
 240	2.3780e+01	4.7609	36.610765	0.000568	5.675637	0.961479	0.000114
 241	2.3880e+01	4.7803	36.723805	0.000568	5.675637	0.961479	0.000114
 242	2.3980e+01	4.8005	36.812622	0.000446	4.459429	0.755448	0.000089
 243	2.4079e+01	4.8199	36.921625	0.000547	5.472936	0.927140	0.000110
 244	2.4178e+01	4.8405	37.006405	0.000426	4.256728	0.721109	0.000085
 245	2.4278e+01	4.8605	37.139630	0.000669	6.689144	1.133172	0.000134
 246	2.4378e+01	4.8802	37.200187	0.000304	3.040520	0.515078	0.000061
 247	2.4477e+01	4.9004	37.345524	0.000730	7.297248	1.236187	0.000146
 248	2.4576e+01	4.9194	37.438378	0.000466	4.662131	0.789786	0.000093
 249	2.4676e+01	4.9393	37.515084	0.000385	3.851325	0.652432	0.000077
 250	2.4776e+01	4.9607	37.624087	0.000547	5.472936	0.927140	0.000110
 251	2.4875e+01	4.9797	37.720978	0.000486	4.864832	0.824125	0.000097
 252	2.4974e+01	4.9990	37.805758	0.000426	4.256728	0.721109	0.000085
 253	2.5074e+01	5.0204	37.963206	0.000791	7.905352	1.339203	0.000158
 254	2.5174e+01	5.0396	38.027800	0.000324	3.243221	0.549417	0.000065
 255	2.5273e+01	5.0584	38.132766	0.000527	5.270235	0.892802	0.000105
 256	2.5372e+01	5.0791	38.229657	0.000486	4.864832	0.824125	0.000097
 257	2.5472e+01	5.0999	38.298288	0.000345	3.445923	0.583755	0.000069
 258	2.5572e+01	5.1192	38.415365	0.000588	5.878339	0.995818	0.000118
 259	2.5671e+01	5.1390	38.508219	0.000466	4.662131	0.789786	0.000093
 260	2.5770e+01	5.1580	38.601073	0.000466	4.662131	0.789786	0.000093
 261	2.5870e+01	5.1784	38.722187	0.000608	6.081040	1.030156	0.000122
 262	2.5970e+01	5.1983	38.839264	0.000588	5.878339	0.995818	0.000118
 263	2.6069e+01	5.2178	38.920007	0.000405	4.054027	0.686771	0.000081
 264	2.6169e+01	5.2387	38.968453	0.000243	2.432416	0.412062	0.000049
 265	2.6268e+01	5.2589	39.109752	0.000709	7.094547	1.201849	0.000142
 266	2.6367e+01	5.2778	39.206644	0.000486	4.864832	0.824125	0.000097
 267	2.6467e+01	5.2985	39.283349	0.000385	3.851325	0.652432	0.000077
 268	2.6567e+01	5.3179	39.400426	0.000588	5.878339	0.995818	0.000118
 269	2.6666e+01	5.3384	39.517503	0.000588	5.878339	0.995818	0.000118
 270	2.6765e+01	5.3577	39.606320	0.000446	4.459429	0.755448	0.000089
 271	2.6865e+01	5.3781	39.715323	0.000547	5.472936	0.927140	0.000110
 272	2.6965e+01	5.3976	39.759731	0.000223	2.229715	0.377724	0.000045
 273	2.7064e+01	5.4177	39.909105	0.000750	7.499949	1.270526	0.000150
 274	2.7163e+01	5.4377	39.977737	0.000345	3.445923	0.583755	0.000069
 275	2.7263e+01	5.4575	40.066554	0.000446	4.459429	0.755448	0.000089
 276	2.7363e+01	5.4781	40.179593	0.000568	5.675637	0.961479	0.000114
 277	2.7462e+01	5.4981	40.252262	0.000365	3.648624	0.618094	0.000073
 278	2.7561e+01	5.5172	40.393562	0.000709	7.094547	1.201849	0.000142
 279	2.7661e+01	5.5379	40.506601	0.000568	5.675637	0.961479	0.000114
 280	2.7761e+01	5.5572	40.571196	0.000324	3.243221	0.549417	0.000065
 281	2.7860e+01	5.5775	40.700384	0.000649	6.486443	1.098833	0.000130
 282	2.7959e+01	5.5965	40.793238	0.000466	4.662131	0.789786	0.000093
 283	2.8059e+01	5.6170	40.954723	0.000811	8.108053	1.373541	0.000162
 284	2.8159e+01	5.6365	40.987021	0.000162	1.621611	0.274708	0.000032
 285	2.8258e+01	5.6567	41.075838	0.000446	4.459429	0.755448	0.000089
 286	2.8358e+01	5.6762	41.188877	0.000568	5.675637	0.961479	0.000114
 287	2.8457e+01	5.6969	41.322103	0.000669	6.689144	1.133172	0.000134
 288	2.8556e+01	5.7162	41.378623	0.000284	2.837819	0.480739	0.000057
 289	2.8656e+01	5.7363	41.475514	0.000486	4.864832	0.824125	0.000097
 290	2.8756e+01	5.7568	41.584517	0.000547	5.472936	0.927140	0.000110
 291	2.8855e+01	5.7769	41.685445	0.000507	5.067533	0.858463	0.000101
 292	2.8954e+01	5.7964	41.782336	0.000486	4.864832	0.824125	0.000097
 293	2.9054e+01	5.8170	41.871153	0.000446	4.459429	0.755448	0.000089
 294	2.9154e+01	5.8372	41.968045	0.000486	4.864832	0.824125	0.000097
 295	2.9253e+01	5.8562	42.044750	0.000385	3.851325	0.652432	0.000077
 296	2.9352e+01	5.8761	42.149716	0.000527	5.270235	0.892802	0.000105
 297	2.9452e+01	5.8968	42.258718	0.000547	5.472936	0.927140	0.000110
 298	2.9552e+01	5.9153	42.383870	0.000628	6.283741	1.064495	0.000126
 299	2.9651e+01	5.9355	42.468649	0.000426	4.256728	0.721109	0.000085
 300	2.9750e+01	5.9557	42.585726	0.000588	5.878339	0.995818	0.000118
 301	2.9850e+01	5.9756	42.634172	0.000243	2.432416	0.412062	0.000049
 302	2.9950e+01	5.9954	42.751249	0.000588	5.878339	0.995818	0.000118
 303	3.0049e+01	6.0157	42.840066	0.000446	4.459429	0.755448	0.000089
 304	3.0148e+01	6.0354	42.920809	0.000405	4.054027	0.686771	0.000081
 305	3.0248e+01	6.0548	43.017700	0.000486	4.864832	0.824125	0.000097
 306	3.0348e+01	6.0757	43.159000	0.000709	7.094547	1.201849	0.000142
 307	3.0447e+01	6.0946	43.211482	0.000264	2.635117	0.446401	0.000053
 308	3.0547e+01	6.1153	43.348745	0.000689	6.891845	1.167510	0.000138
 309	3.0646e+01	6.1343	43.413339	0.000324	3.243221	0.549417	0.000065
 310	3.0745e+01	6.1552	43.518305	0.000527	5.270235	0.892802	0.000105
 311	3.0845e+01	6.1751	43.639419	0.000608	6.081040	1.030156	0.000122
 312	3.0945e+01	6.1950	43.704013	0.000324	3.243221	0.549417	0.000065
 313	3.1044e+01	6.2153	43.776681	0.000365	3.648624	0.618094	0.000073
 314	3.1143e+01	6.2344	43.893758	0.000588	5.878339	0.995818	0.000118
 315	3.1243e+01	6.2545	43.962390	0.000345	3.445923	0.583755	0.000069
 316	3.1343e+01	6.2745	44.083504	0.000608	6.081040	1.030156	0.000122
 317	3.1442e+01	6.2942	44.152135	0.000345	3.445923	0.583755	0.000069
 318	3.1541e+01	6.3135	44.257101	0.000527	5.270235	0.892802	0.000105
 319	3.1641e+01	6.3332	44.358029	0.000507	5.067533	0.858463	0.000101
 320	3.1741e+01	6.3534	44.434735	0.000385	3.851325	0.652432	0.000077
 321	3.1840e+01	6.3742	44.547774	0.000568	5.675637	0.961479	0.000114
 322	3.1939e+01	6.3934	44.660814	0.000568	5.675637	0.961479	0.000114
 323	3.2039e+01	6.4135	44.749631	0.000446	4.459429	0.755448	0.000089
 324	3.2139e+01	6.4320	44.830374	0.000405	4.054027	0.686771	0.000081
 325	3.2238e+01	6.4532	44.951488	0.000608	6.081040	1.030156	0.000122
 326	3.2337e+01	6.4734	44.983785	0.000162	1.621611	0.274708	0.000032
 327	3.2437e+01	6.4928	45.100862	0.000588	5.878339	0.995818	0.000118
 328	3.2536e+01	6.5133	45.185642	0.000426	4.256728	0.721109	0.000085
 329	3.2636e+01	6.5328	45.294644	0.000547	5.472936	0.927140	0.000110
 330	3.2736e+01	6.5530	45.395573	0.000507	5.067533	0.858463	0.000101
 331	3.2835e+01	6.5729	45.456130	0.000304	3.040520	0.515078	0.000061
 332	3.2934e+01	6.5927	45.544947	0.000446	4.459429	0.755448	0.000089
 333	3.3034e+01	6.6122	45.653949	0.000547	5.472936	0.927140	0.000110
 334	3.3133e+01	6.6322	45.722581	0.000345	3.445923	0.583755	0.000069
 335	3.3233e+01	6.6521	45.859843	0.000689	6.891845	1.167510	0.000138
 336	3.3333e+01	6.6719	45.908289	0.000243	2.432416	0.412062	0.000049
 337	3.3432e+01	6.6923	46.029403	0.000608	6.081040	1.030156	0.000122
 338	3.3532e+01	6.7129	46.114183	0.000426	4.256728	0.721109	0.000085
 339	3.3631e+01	6.7314	46.182814	0.000345	3.445923	0.583755	0.000069
 340	3.3730e+01	6.7516	46.299891	0.000588	5.878339	0.995818	0.000118
 341	3.3830e+01	6.7710	46.429080	0.000649	6.486443	1.098833	0.000130
 342	3.3929e+01	6.7910	46.453302	0.000122	1.216208	0.206031	0.000024
 343	3.4029e+01	6.8124	46.594602	0.000709	7.094547	1.201849	0.000142
 344	3.4129e+01	6.8315	46.634973	0.000203	2.027013	0.343385	0.000041
 345	3.4228e+01	6.8526	46.752050	0.000588	5.878339	0.995818	0.000118
 346	3.4328e+01	6.8713	46.857016	0.000527	5.270235	0.892802	0.000105
 347	3.4427e+01	6.8922	46.921610	0.000324	3.243221	0.549417	0.000065
 348	3.4526e+01	6.9107	47.034650	0.000568	5.675637	0.961479	0.000114
 349	3.4626e+01	6.9323	47.123467	0.000446	4.459429	0.755448	0.000089
 350	3.4725e+01	6.9505	47.232470	0.000547	5.472936	0.927140	0.000110
 351	3.4825e+01	6.9715	47.293027	0.000304	3.040520	0.515078	0.000061
 352	3.4925e+01	6.9913	47.381844	0.000446	4.459429	0.755448	0.000089
 353	3.5024e+01	7.0119	47.462586	0.000405	4.054027	0.686771	0.000081
 354	3.5123e+01	7.0313	47.571589	0.000547	5.472936	0.927140	0.000110
 355	3.5223e+01	7.0509	47.692703	0.000608	6.081040	1.030156	0.000122
 356	3.5322e+01	7.0701	47.753260	0.000304	3.040520	0.515078	0.000061
 357	3.5422e+01	7.0909	47.838040	0.000426	4.256728	0.721109	0.000085
 358	3.5522e+01	7.1104	47.898597	0.000304	3.040520	0.515078	0.000061
 359	3.5621e+01	7.1303	48.011637	0.000568	5.675637	0.961479	0.000114
 360	3.5721e+01	7.1499	48.108528	0.000486	4.864832	0.824125	0.000097
 361	3.5820e+01	7.1694	48.148899	0.000203	2.027013	0.343385	0.000041
 362	3.5919e+01	7.1900	48.282125	0.000669	6.689144	1.133172	0.000134
 363	3.6019e+01	7.2103	48.342682	0.000304	3.040520	0.515078	0.000061
 364	3.6118e+01	7.2289	48.411313	0.000345	3.445923	0.583755	0.000069
 365	3.6218e+01	7.2498	48.500130	0.000446	4.459429	0.755448	0.000089
 366	3.6318e+01	7.2705	48.617207	0.000588	5.878339	0.995818	0.000118
 367	3.6417e+01	7.2900	48.697950	0.000405	4.054027	0.686771	0.000081
 368	3.6517e+01	7.3093	48.758507	0.000304	3.040520	0.515078	0.000061
 369	3.6616e+01	7.3312	48.843287	0.000426	4.256728	0.721109	0.000085
 370	3.6715e+01	7.3499	48.968438	0.000628	6.283741	1.064495	0.000126
 371	3.6815e+01	7.3693	49.045144	0.000385	3.851325	0.652432	0.000077
 372	3.6914e+01	7.3893	49.117812	0.000365	3.648624	0.618094	0.000073
 373	3.7014e+01	7.4088	49.218740	0.000507	5.067533	0.858463	0.000101
 374	3.7114e+01	7.4297	49.279297	0.000304	3.040520	0.515078	0.000061
 375	3.7213e+01	7.4498	49.388300	0.000547	5.472936	0.927140	0.000110
 376	3.7313e+01	7.4691	49.416560	0.000142	1.418909	0.240370	0.000028
 377	3.7412e+01	7.4893	49.521526	0.000527	5.270235	0.892802	0.000105
 378	3.7511e+01	7.5094	49.634565	0.000568	5.675637	0.961479	0.000114
 379	3.7611e+01	7.5285	49.711271	0.000385	3.851325	0.652432	0.000077
 380	3.7711e+01	7.5481	49.796051	0.000426	4.256728	0.721109	0.000085
 381	3.7810e+01	7.5680	49.896979	0.000507	5.067533	0.858463	0.000101
 382	3.7910e+01	7.5875	49.957536	0.000304	3.040520	0.515078	0.000061
 383	3.8009e+01	7.6076	50.038279	0.000405	4.054027	0.686771	0.000081
 384	3.8108e+01	7.6284	50.098836	0.000304	3.040520	0.515078	0.000061
 385	3.8208e+01	7.6488	50.207839	0.000547	5.472936	0.927140	0.000110
 386	3.8307e+01	7.6681	50.304730	0.000486	4.864832	0.824125	0.000097
 387	3.8407e+01	7.6872	50.429881	0.000628	6.283741	1.064495	0.000126
 388	3.8507e+01	7.7088	50.498512	0.000345	3.445923	0.583755	0.000069
 389	3.8606e+01	7.7287	50.559069	0.000304	3.040520	0.515078	0.000061
 390	3.8706e+01	7.7480	50.672109	0.000568	5.675637	0.961479	0.000114
 391	3.8805e+01	7.7679	50.732666	0.000304	3.040520	0.515078	0.000061
 392	3.8904e+01	7.7876	50.833595	0.000507	5.067533	0.858463	0.000101
 393	3.9004e+01	7.8078	50.930486	0.000486	4.864832	0.824125	0.000097
 394	3.9103e+01	7.8277	50.978932	0.000243	2.432416	0.412062	0.000049
 395	3.9203e+01	7.8471	51.031414	0.000264	2.635117	0.446401	0.000053
 396	3.9303e+01	7.8684	51.180788	0.000750	7.499949	1.270526	0.000150
 397	3.9402e+01	7.8875	51.233271	0.000264	2.635117	0.446401	0.000053
 398	3.9502e+01	7.9078	51.322088	0.000446	4.459429	0.755448	0.000089
 399	3.9601e+01	7.9272	51.418979	0.000486	4.864832	0.824125	0.000097
 400	3.9700e+01	7.9474	51.479536	0.000304	3.040520	0.515078	0.000061
 401	3.9800e+01	7.9678	51.560279	0.000405	4.054027	0.686771	0.000081
 402	3.9900e+01	7.9864	51.705616	0.000730	7.297248	1.236187	0.000146
 403	3.9999e+01	8.0061	51.750024	0.000223	2.229715	0.377724	0.000045
 404	4.0099e+01	8.0268	51.818656	0.000345	3.445923	0.583755	0.000069
 405	4.0198e+01	8.0463	51.923621	0.000527	5.270235	0.892802	0.000105
 406	4.0297e+01	8.0669	52.016475	0.000466	4.662131	0.789786	0.000093
 407	4.0397e+01	8.0872	52.068958	0.000264	2.635117	0.446401	0.000053
 408	4.0496e+01	8.1063	52.177961	0.000547	5.472936	0.927140	0.000110
 409	4.0596e+01	8.1269	52.246592	0.000345	3.445923	0.583755	0.000069
 410	4.0696e+01	8.1475	52.339446	0.000466	4.662131	0.789786	0.000093
 411	4.0795e+01	8.1667	52.440375	0.000507	5.067533	0.858463	0.000101
 412	4.0895e+01	8.1860	52.517080	0.000385	3.851325	0.652432	0.000077
 413	4.0994e+01	8.2047	52.609934	0.000466	4.662131	0.789786	0.000093
 414	4.1093e+01	8.2259	52.662417	0.000264	2.635117	0.446401	0.000053
 415	4.1193e+01	8.2468	52.747197	0.000426	4.256728	0.721109	0.000085
 416	4.1292e+01	8.2651	52.811791	0.000324	3.243221	0.549417	0.000065
 417	4.1392e+01	8.2864	52.908682	0.000486	4.864832	0.824125	0.000097
 418	4.1492e+01	8.3054	52.977314	0.000345	3.445923	0.583755	0.000069
 419	4.1591e+01	8.3246	53.058056	0.000405	4.054027	0.686771	0.000081
 420	4.1691e+01	8.3448	53.138799	0.000405	4.054027	0.686771	0.000081
 421	4.1790e+01	8.3655	53.239728	0.000507	5.067533	0.858463	0.000101
 422	4.1889e+01	8.3849	53.324507	0.000426	4.256728	0.721109	0.000085
 423	4.1989e+01	8.4052	53.389102	0.000324	3.243221	0.549417	0.000065
 424	4.2089e+01	8.4253	53.465807	0.000385	3.851325	0.652432	0.000077
 425	4.2188e+01	8.4450	53.570773	0.000527	5.270235	0.892802	0.000105
 426	4.2288e+01	8.4652	53.623255	0.000264	2.635117	0.446401	0.000053
 427	4.2387e+01	8.4843	53.740332	0.000588	5.878339	0.995818	0.000118
 428	4.2486e+01	8.5047	53.821075	0.000405	4.054027	0.686771	0.000081
 429	4.2586e+01	8.5257	53.869521	0.000243	2.432416	0.412062	0.000049
 430	4.2685e+01	8.5455	53.954301	0.000426	4.256728	0.721109	0.000085
 431	4.2785e+01	8.5654	54.091563	0.000689	6.891845	1.167510	0.000138
 432	4.2885e+01	8.5849	54.119823	0.000142	1.418909	0.240370	0.000028
 433	4.2984e+01	8.6049	54.216714	0.000486	4.864832	0.824125	0.000097
 434	4.3084e+01	8.6236	54.277271	0.000304	3.040520	0.515078	0.000061
 435	4.3183e+01	8.6438	54.366088	0.000446	4.459429	0.755448	0.000089
 436	4.3282e+01	8.6634	54.438757	0.000365	3.648624	0.618094	0.000073
 437	4.3382e+01	8.6841	54.519500	0.000405	4.054027	0.686771	0.000081
 438	4.3481e+01	8.7049	54.571982	0.000264	2.635117	0.446401	0.000053
 439	4.3581e+01	8.7237	54.693096	0.000608	6.081040	1.030156	0.000122
 440	4.3681e+01	8.7434	54.769802	0.000385	3.851325	0.652432	0.000077
 441	4.3780e+01	8.7635	54.842470	0.000365	3.648624	0.618094	0.000073
 442	4.3880e+01	8.7827	54.935325	0.000466	4.662131	0.789786	0.000093
 443	4.3979e+01	8.8044	54.975696	0.000203	2.027013	0.343385	0.000041
 444	4.4078e+01	8.8234	55.080661	0.000527	5.270235	0.892802	0.000105
 445	4.4178e+01	8.8428	55.213887	0.000669	6.689144	1.133172	0.000134
 446	4.4278e+01	8.8625	55.270407	0.000284	2.837819	0.480739	0.000057
 447	4.4377e+01	8.8827	55.347112	0.000385	3.851325	0.652432	0.000077
 448	4.4477e+01	8.9027	55.448041	0.000507	5.067533	0.858463	0.000101
 449	4.4576e+01	8.9237	55.472264	0.000122	1.216208	0.206031	0.000024
 450	4.4675e+01	8.9420	55.569155	0.000486	4.864832	0.824125	0.000097
 451	4.4775e+01	8.9620	55.674120	0.000527	5.270235	0.892802	0.000105
 452	4.4874e+01	8.9815	55.766975	0.000466	4.662131	0.789786	0.000093
 453	4.4974e+01	9.0017	55.851754	0.000426	4.256728	0.721109	0.000085
 454	4.5074e+01	9.0220	55.888089	0.000182	1.824312	0.309047	0.000037
 455	4.5173e+01	9.0418	56.001128	0.000568	5.675637	0.961479	0.000114
 456	4.5273e+01	9.0620	56.102057	0.000507	5.067533	0.858463	0.000101
 457	4.5372e+01	9.0820	56.158577	0.000284	2.837819	0.480739	0.000057
 458	4.5471e+01	9.1023	56.255468	0.000486	4.864832	0.824125	0.000097
 459	4.5571e+01	9.1216	56.352359	0.000486	4.864832	0.824125	0.000097
 460	4.5670e+01	9.1419	56.408879	0.000284	2.837819	0.480739	0.000057
 461	4.5770e+01	9.1610	56.505770	0.000486	4.864832	0.824125	0.000097
 462	4.5870e+01	9.1813	56.586513	0.000405	4.054027	0.686771	0.000081
 463	4.5969e+01	9.2014	56.659182	0.000365	3.648624	0.618094	0.000073
 464	4.6069e+01	9.2212	56.683404	0.000122	1.216208	0.206031	0.000024
 465	4.6168e+01	9.2414	56.812593	0.000649	6.486443	1.098833	0.000130
 466	4.6267e+01	9.2603	56.893335	0.000405	4.054027	0.686771	0.000081
 467	4.6367e+01	9.2803	56.990227	0.000486	4.864832	0.824125	0.000097
 468	4.6467e+01	9.3000	57.034635	0.000223	2.229715	0.377724	0.000045
 469	4.6566e+01	9.3213	57.123452	0.000446	4.459429	0.755448	0.000089
 470	4.6666e+01	9.3396	57.220343	0.000486	4.864832	0.824125	0.000097
 471	4.6765e+01	9.3610	57.321272	0.000507	5.067533	0.858463	0.000101
 472	4.6864e+01	9.3806	57.397977	0.000385	3.851325	0.652432	0.000077
 473	4.6964e+01	9.4004	57.486794	0.000446	4.459429	0.755448	0.000089
 474	4.7063e+01	9.4202	57.523129	0.000182	1.824312	0.309047	0.000037
 475	4.7163e+01	9.4404	57.611946	0.000446	4.459429	0.755448	0.000089
 476	4.7263e+01	9.4611	57.720948	0.000547	5.472936	0.927140	0.000110
 477	4.7362e+01	9.4810	57.769394	0.000243	2.432416	0.412062	0.000049
 478	4.7462e+01	9.5005	57.838025	0.000345	3.445923	0.583755	0.000069
 479	4.7561e+01	9.5209	57.914731	0.000385	3.851325	0.652432	0.000077
 480	4.7660e+01	9.5404	58.007585	0.000466	4.662131	0.789786	0.000093
 481	4.7760e+01	9.5599	58.047956	0.000203	2.027013	0.343385	0.000041
 482	4.7859e+01	9.5809	58.144847	0.000486	4.864832	0.824125	0.000097
 483	4.7959e+01	9.5996	58.229627	0.000426	4.256728	0.721109	0.000085
 484	4.8059e+01	9.6191	58.318444	0.000446	4.459429	0.755448	0.000089
 485	4.8158e+01	9.6391	58.407261	0.000446	4.459429	0.755448	0.000089
 486	4.8258e+01	9.6600	58.500115	0.000466	4.662131	0.789786	0.000093
 487	4.8357e+01	9.6793	58.540487	0.000203	2.027013	0.343385	0.000041
 488	4.8456e+01	9.6987	58.645452	0.000527	5.270235	0.892802	0.000105
 489	4.8556e+01	9.7183	58.697935	0.000264	2.635117	0.446401	0.000053
 490	4.8656e+01	9.7388	58.786752	0.000446	4.459429	0.755448	0.000089
 491	4.8755e+01	9.7594	58.915940	0.000649	6.486443	1.098833	0.000130
 492	4.8855e+01	9.7781	58.936126	0.000101	1.013507	0.171693	0.000020
 493	4.8954e+01	9.7987	59.069352	0.000669	6.689144	1.133172	0.000134
 494	4.9053e+01	9.8184	59.113760	0.000223	2.229715	0.377724	0.000045
 495	4.9153e+01	9.8392	59.186428	0.000365	3.648624	0.618094	0.000073
 496	4.9252e+01	9.8586	59.234874	0.000243	2.432416	0.412062	0.000049
 497	4.9352e+01	9.8780	59.372137	0.000689	6.891845	1.167510	0.000138
 498	4.9452e+01	9.8975	59.469028	0.000486	4.864832	0.824125	0.000097
 499	4.9551e+01	9.9183	59.513436	0.000223	2.229715	0.377724	0.000045
 500	4.9651e+01	9.9378	59.602253	0.000446	4.459429	0.755448	0.000089
 501	4.9750e+01	9.9585	59.654736	0.000264	2.635117	0.446401	0.000053
 502	4.9849e+01	9.9776	59.739516	0.000426	4.256728	0.721109	0.000085
 503	4.9949e+01	9.9976	59.804110	0.000324	3.243221	0.549417	0.000065
 504	5.0048e+01	9.9783	59.767776	0.000182	1.824312	0.309047	-0.000037
 505	5.0148e+01	9.9577	59.719330	0.000243	2.432416	0.412062	-0.000049
 506	5.0248e+01	9.9384	59.678959	0.000203	2.027013	0.343385	-0.000041
 507	5.0347e+01	9.9173	59.573994	0.000527	5.270235	0.892802	-0.000105
 508	5.0447e+01	9.8977	59.569956	0.000020	0.202701	0.034339	-0.000004
 509	5.0546e+01	9.8784	59.541696	0.000142	1.418909	0.240370	-0.000028
 510	5.0645e+01	9.8578	59.440768	0.000507	5.067533	0.858463	-0.000101
 511	5.0745e+01	9.8389	59.400397	0.000203	2.027013	0.343385	-0.000041
 512	5.0844e+01	9.8178	59.295431	0.000527	5.270235	0.892802	-0.000105
 513	5.0944e+01	9.7988	59.234874	0.000304	3.040520	0.515078	-0.000061
 514	5.1044e+01	9.7784	59.202577	0.000162	1.621611	0.274708	-0.000032
 515	5.1143e+01	9.7583	59.170280	0.000162	1.621611	0.274708	-0.000032
 516	5.1242e+01	9.7392	59.085500	0.000426	4.256728	0.721109	-0.000085
 517	5.1342e+01	9.7195	59.053203	0.000162	1.621611	0.274708	-0.000032
 518	5.1441e+01	9.6985	58.956312	0.000486	4.864832	0.824125	-0.000097
 519	5.1541e+01	9.6784	58.875569	0.000405	4.054027	0.686771	-0.000081
 520	5.1641e+01	9.6606	58.823086	0.000264	2.635117	0.446401	-0.000053
 521	5.1740e+01	9.6399	58.790789	0.000162	1.621611	0.274708	-0.000032
 522	5.1840e+01	9.6206	58.710046	0.000405	4.054027	0.686771	-0.000081
 523	5.1939e+01	9.6000	58.657564	0.000264	2.635117	0.446401	-0.000053
 524	5.2038e+01	9.5795	58.588932	0.000345	3.445923	0.583755	-0.000069
 525	5.2138e+01	9.5593	58.508190	0.000405	4.054027	0.686771	-0.000081
 526	5.2237e+01	9.5392	58.455707	0.000264	2.635117	0.446401	-0.000053
 527	5.2337e+01	9.5199	58.374964	0.000405	4.054027	0.686771	-0.000081
 528	5.2437e+01	9.4997	58.294221	0.000405	4.054027	0.686771	-0.000081
 529	5.2536e+01	9.4793	58.253850	0.000203	2.027013	0.343385	-0.000041
 530	5.2636e+01	9.4599	58.148885	0.000527	5.270235	0.892802	-0.000105
 531	5.2735e+01	9.4415	58.104476	0.000223	2.229715	0.377724	-0.000045
 532	5.2834e+01	9.4203	58.051993	0.000264	2.635117	0.446401	-0.000053
 533	5.2934e+01	9.4009	57.979325	0.000365	3.648624	0.618094	-0.000073
 534	5.3033e+01	9.3811	57.930879	0.000243	2.432416	0.412062	-0.000049
 535	5.3133e+01	9.3610	57.854174	0.000385	3.851325	0.652432	-0.000077
 536	5.3233e+01	9.3408	57.765357	0.000446	4.459429	0.755448	-0.000089
 537	5.3332e+01	9.3213	57.704800	0.000304	3.040520	0.515078	-0.000061
 538	5.3431e+01	9.3021	57.652317	0.000264	2.635117	0.446401	-0.000053
 539	5.3531e+01	9.2811	57.559463	0.000466	4.662131	0.789786	-0.000093
 540	5.3630e+01	9.2619	57.527166	0.000162	1.621611	0.274708	-0.000032
 541	5.3730e+01	9.2407	57.418163	0.000547	5.472936	0.927140	-0.000110
 542	5.3830e+01	9.2207	57.349532	0.000345	3.445923	0.583755	-0.000069
 543	5.3929e+01	9.2025	57.288975	0.000304	3.040520	0.515078	-0.000061
 544	5.4029e+01	9.1805	57.204195	0.000426	4.256728	0.721109	-0.000085
 545	5.4128e+01	9.1613	57.119415	0.000426	4.256728	0.721109	-0.000085
 546	5.4227e+01	9.1424	57.099229	0.000101	1.013507	0.171693	-0.000020
 547	5.4327e+01	9.1223	57.010412	0.000446	4.459429	0.755448	-0.000089
 548	5.4426e+01	9.1016	56.953892	0.000284	2.837819	0.480739	-0.000057
 549	5.4526e+01	9.0804	56.877187	0.000385	3.851325	0.652432	-0.000077
 550	5.4626e+01	9.0619	56.816630	0.000304	3.040520	0.515078	-0.000061
 551	5.4725e+01	9.0420	56.747999	0.000345	3.445923	0.583755	-0.000069
 552	5.4825e+01	9.0216	56.659182	0.000446	4.459429	0.755448	-0.000089
 553	5.4924e+01	9.0015	56.578439	0.000405	4.054027	0.686771	-0.000081
 554	5.5023e+01	8.9825	56.534030	0.000223	2.229715	0.377724	-0.000045
 555	5.5123e+01	8.9627	56.457325	0.000385	3.851325	0.652432	-0.000077
 556	5.5222e+01	8.9419	56.404842	0.000264	2.635117	0.446401	-0.000053
 557	5.5322e+01	8.9227	56.299876	0.000527	5.270235	0.892802	-0.000105
 558	5.5422e+01	8.9032	56.219134	0.000405	4.054027	0.686771	-0.000081
 559	5.5521e+01	8.8818	56.227208	-0.000041	-0.405403	-0.068677	0.000008
 560	5.5620e+01	8.8631	56.114168	0.000568	5.675637	0.961479	-0.000114
 561	5.5720e+01	8.8428	56.033425	0.000405	4.054027	0.686771	-0.000081
 562	5.5819e+01	8.8240	55.960757	0.000365	3.648624	0.618094	-0.000073
 563	5.5919e+01	8.8043	55.920386	0.000203	2.027013	0.343385	-0.000041
 564	5.6019e+01	8.7843	55.859829	0.000304	3.040520	0.515078	-0.000061
 565	5.6118e+01	8.7641	55.795234	0.000324	3.243221	0.549417	-0.000065
 566	5.6218e+01	8.7431	55.718529	0.000385	3.851325	0.652432	-0.000077
 567	5.6317e+01	8.7237	55.617600	0.000507	5.067533	0.858463	-0.000101
 568	5.6416e+01	8.7031	55.553006	0.000324	3.243221	0.549417	-0.000065
 569	5.6516e+01	8.6850	55.508598	0.000223	2.229715	0.377724	-0.000045
 570	5.6615e+01	8.6646	55.407669	0.000507	5.067533	0.858463	-0.000101
 571	5.6715e+01	8.6445	55.351150	0.000284	2.837819	0.480739	-0.000057
 572	5.6815e+01	8.6242	55.290593	0.000304	3.040520	0.515078	-0.000061
 573	5.6914e+01	8.6044	55.225998	0.000324	3.243221	0.549417	-0.000065
 574	5.7014e+01	8.5840	55.137181	0.000446	4.459429	0.755448	-0.000089
 575	5.7113e+01	8.5645	55.060476	0.000385	3.851325	0.652432	-0.000077
 576	5.7212e+01	8.5452	54.951473	0.000547	5.472936	0.927140	-0.000110
 577	5.7312e+01	8.5260	54.935325	0.000081	0.810805	0.137354	-0.000016
 578	5.7411e+01	8.5046	54.838433	0.000486	4.864832	0.824125	-0.000097
 579	5.7511e+01	8.4843	54.769802	0.000345	3.445923	0.583755	-0.000069
 580	5.7611e+01	8.4644	54.697134	0.000365	3.648624	0.618094	-0.000073
 581	5.7710e+01	8.4440	54.620428	0.000385	3.851325	0.652432	-0.000077
 582	5.7809e+01	8.4248	54.551797	0.000345	3.445923	0.583755	-0.000069
 583	5.7909e+01	8.4051	54.475091	0.000385	3.851325	0.652432	-0.000077
 584	5.8008e+01	8.3857	54.442794	0.000162	1.621611	0.274708	-0.000032
 585	5.8108e+01	8.3653	54.374163	0.000345	3.445923	0.583755	-0.000069
 586	5.8208e+01	8.3453	54.273234	0.000507	5.067533	0.858463	-0.000101
 587	5.8307e+01	8.3257	54.216714	0.000284	2.837819	0.480739	-0.000057
 588	5.8407e+01	8.3048	54.127897	0.000446	4.459429	0.755448	-0.000089
 589	5.8506e+01	8.2861	54.063303	0.000324	3.243221	0.549417	-0.000065
 590	5.8605e+01	8.2649	53.958338	0.000527	5.270235	0.892802	-0.000105
 591	5.8705e+01	8.2462	53.849335	0.000547	5.472936	0.927140	-0.000110
 592	5.8804e+01	8.2260	53.804927	0.000223	2.229715	0.377724	-0.000045
 593	5.8904e+01	8.2049	53.744370	0.000304	3.040520	0.515078	-0.000061
 594	5.9004e+01	8.1868	53.659590	0.000426	4.256728	0.721109	-0.000085
 595	5.9103e+01	8.1665	53.611144	0.000243	2.432416	0.412062	-0.000049
 596	5.9203e+01	8.1467	53.554624	0.000284	2.837819	0.480739	-0.000057
 597	5.9302e+01	8.1269	53.437547	0.000588	5.878339	0.995818	-0.000118
 598	5.9401e+01	8.1074	53.368916	0.000345	3.445923	0.583755	-0.000069
 599	5.9501e+01	8.0865	53.300285	0.000345	3.445923	0.583755	-0.000069
 600	5.9600e+01	8.0666	53.267987	0.000162	1.621611	0.274708	-0.000032
 601	5.9700e+01	8.0471	53.195319	0.000365	3.648624	0.618094	-0.000073
 602	5.9800e+01	8.0260	53.062094	0.000669	6.689144	1.133172	-0.000134
 603	5.9899e+01	8.0065	53.021722	0.000203	2.027013	0.343385	-0.000041
 604	5.9998e+01	7.9864	52.912720	0.000547	5.472936	0.927140	-0.000110
 605	6.0098e+01	7.9668	52.848125	0.000324	3.243221	0.549417	-0.000065
 606	6.0197e+01	7.9478	52.791605	0.000284	2.837819	0.480739	-0.000057
 607	6.0297e+01	7.9278	52.686640	0.000527	5.270235	0.892802	-0.000105
 608	6.0397e+01	7.9078	52.642231	0.000223	2.229715	0.377724	-0.000045
 609	6.0496e+01	7.8876	52.573600	0.000345	3.445923	0.583755	-0.000069
 610	6.0596e+01	7.8672	52.517080	0.000284	2.837819	0.480739	-0.000057
 611	6.0695e+01	7.8477	52.452486	0.000324	3.243221	0.549417	-0.000065
 612	6.0794e+01	7.8277	52.339446	0.000568	5.675637	0.961479	-0.000114
 613	6.0894e+01	7.8088	52.282926	0.000284	2.837819	0.480739	-0.000057
 614	6.0993e+01	7.7884	52.218332	0.000324	3.243221	0.549417	-0.000065
 615	6.1093e+01	7.7672	52.121441	0.000486	4.864832	0.824125	-0.000097
 616	6.1193e+01	7.7480	52.040698	0.000405	4.054027	0.686771	-0.000081
 617	6.1292e+01	7.7283	51.968030	0.000365	3.648624	0.618094	-0.000073
 618	6.1392e+01	7.7077	51.915547	0.000264	2.635117	0.446401	-0.000053
 619	6.1491e+01	7.6882	51.838841	0.000385	3.851325	0.652432	-0.000077
 620	6.1590e+01	7.6684	51.729839	0.000547	5.472936	0.927140	-0.000110
 621	6.1690e+01	7.6478	51.685430	0.000223	2.229715	0.377724	-0.000045
 622	6.1789e+01	7.6284	51.632948	0.000264	2.635117	0.446401	-0.000053
 623	6.1889e+01	7.6077	51.540093	0.000466	4.662131	0.789786	-0.000093
 624	6.1989e+01	7.5881	51.443202	0.000486	4.864832	0.824125	-0.000097
 625	6.2088e+01	7.5689	51.390719	0.000264	2.635117	0.446401	-0.000053
 626	6.2188e+01	7.5481	51.318051	0.000365	3.648624	0.618094	-0.000073
 627	6.2287e+01	7.5285	51.245382	0.000365	3.648624	0.618094	-0.000073
 628	6.2386e+01	7.5080	51.168677	0.000385	3.851325	0.652432	-0.000077
 629	6.2486e+01	7.4899	51.104083	0.000324	3.243221	0.549417	-0.000065
 630	6.2586e+01	7.4682	51.039489	0.000324	3.243221	0.549417	-0.000065
 631	6.2685e+01	7.4487	50.934523	0.000527	5.270235	0.892802	-0.000105
 632	6.2785e+01	7.4299	50.898189	0.000182	1.824312	0.309047	-0.000037
 633	6.2884e+01	7.4097	50.769000	0.000649	6.486443	1.098833	-0.000130
 634	6.2983e+01	7.3895	50.696332	0.000365	3.648624	0.618094	-0.000073
 635	6.3083e+01	7.3701	50.607515	0.000446	4.459429	0.755448	-0.000089
 636	6.3182e+01	7.3492	50.591367	0.000081	0.810805	0.137354	-0.000016
 637	6.3282e+01	7.3298	50.498512	0.000466	4.662131	0.789786	-0.000093
 638	6.3382e+01	7.3100	50.450067	0.000243	2.432416	0.412062	-0.000049
 639	6.3481e+01	7.2904	50.345101	0.000527	5.270235	0.892802	-0.000105
 640	6.3581e+01	7.2706	50.232061	0.000568	5.675637	0.961479	-0.000114
 641	6.3680e+01	7.2511	50.179579	0.000264	2.635117	0.446401	-0.000053
 642	6.3779e+01	7.2295	50.078650	0.000507	5.067533	0.858463	-0.000101
 643	6.3879e+01	7.2102	50.026167	0.000264	2.635117	0.446401	-0.000053
 644	6.3978e+01	7.1915	49.929276	0.000486	4.864832	0.824125	-0.000097
 645	6.4078e+01	7.1706	49.852571	0.000385	3.851325	0.652432	-0.000077
 646	6.4177e+01	7.1513	49.792014	0.000304	3.040520	0.515078	-0.000061
 647	6.4277e+01	7.1301	49.707234	0.000426	4.256728	0.721109	-0.000085
 648	6.4376e+01	7.1104	49.646677	0.000304	3.040520	0.515078	-0.000061
 649	6.4476e+01	7.0907	49.545748	0.000507	5.067533	0.858463	-0.000101
 650	6.4576e+01	7.0712	49.460968	0.000426	4.256728	0.721109	-0.000085
 651	6.4675e+01	7.0504	49.368114	0.000466	4.662131	0.789786	-0.000093
 652	6.4775e+01	7.0305	49.331780	0.000182	1.824312	0.309047	-0.000037
 653	6.4874e+01	7.0095	49.242963	0.000446	4.459429	0.755448	-0.000089
 654	6.4974e+01	6.9923	49.166258	0.000385	3.851325	0.652432	-0.000077
 655	6.5073e+01	6.9713	49.105701	0.000304	3.040520	0.515078	-0.000061
 656	6.5172e+01	6.9518	49.004772	0.000507	5.067533	0.858463	-0.000101
 657	6.5272e+01	6.9312	48.948252	0.000284	2.837819	0.480739	-0.000057
 658	6.5371e+01	6.9105	48.815027	0.000669	6.689144	1.133172	-0.000134
 659	6.5471e+01	6.8913	48.774655	0.000203	2.027013	0.343385	-0.000041
 660	6.5570e+01	6.8713	48.714098	0.000304	3.040520	0.515078	-0.000061
 661	6.5670e+01	6.8514	48.629319	0.000426	4.256728	0.721109	-0.000085
 662	6.5769e+01	6.8308	48.540502	0.000446	4.459429	0.755448	-0.000089
 663	6.5869e+01	6.8122	48.439573	0.000507	5.067533	0.858463	-0.000101
 664	6.5969e+01	6.7922	48.350756	0.000446	4.459429	0.755448	-0.000089
 665	6.6068e+01	6.7718	48.233679	0.000588	5.878339	0.995818	-0.000118
 666	6.6168e+01	6.7522	48.233679	-0.000000	-0.000000	-0.000000	0.000000
 667	6.6267e+01	6.7321	48.152937	0.000405	4.054027	0.686771	-0.000081
 668	6.6367e+01	6.7123	48.060082	0.000466	4.662131	0.789786	-0.000093
 669	6.6466e+01	6.6922	47.967228	0.000466	4.662131	0.789786	-0.000093
 670	6.6566e+01	6.6730	47.866300	0.000507	5.067533	0.858463	-0.000101
 671	6.6665e+01	6.6525	47.769409	0.000486	4.864832	0.824125	-0.000097
 672	6.6764e+01	6.6325	47.720963	0.000243	2.432416	0.412062	-0.000049
 673	6.6864e+01	6.6142	47.632146	0.000446	4.459429	0.755448	-0.000089
 674	6.6963e+01	6.5920	47.563515	0.000345	3.445923	0.583755	-0.000069
 675	6.7063e+01	6.5728	47.478735	0.000426	4.256728	0.721109	-0.000085
 676	6.7162e+01	6.5522	47.406066	0.000365	3.648624	0.618094	-0.000073
 677	6.7262e+01	6.5339	47.321287	0.000426	4.256728	0.721109	-0.000085
 678	6.7362e+01	6.5133	47.236507	0.000426	4.256728	0.721109	-0.000085
 679	6.7461e+01	6.4937	47.147690	0.000446	4.459429	0.755448	-0.000089
 680	6.7561e+01	6.4733	47.079058	0.000345	3.445923	0.583755	-0.000069
 681	6.7660e+01	6.4528	47.006390	0.000365	3.648624	0.618094	-0.000073
 682	6.7760e+01	6.4332	46.966019	0.000203	2.027013	0.343385	-0.000041
 683	6.7859e+01	6.4135	46.800496	0.000831	8.310755	1.407880	-0.000166
 684	6.7959e+01	6.3929	46.756088	0.000223	2.229715	0.377724	-0.000045
 685	6.8058e+01	6.3734	46.671308	0.000426	4.256728	0.721109	-0.000085
 686	6.8157e+01	6.3540	46.618825	0.000264	2.635117	0.446401	-0.000053
 687	6.8257e+01	6.3337	46.493674	0.000628	6.283741	1.064495	-0.000126
 688	6.8356e+01	6.3125	46.429080	0.000324	3.243221	0.549417	-0.000065
 689	6.8456e+01	6.2942	46.364485	0.000324	3.243221	0.549417	-0.000065
 690	6.8555e+01	6.2734	46.263557	0.000507	5.067533	0.858463	-0.000101
 691	6.8655e+01	6.2545	46.198963	0.000324	3.243221	0.549417	-0.000065
 692	6.8754e+01	6.2350	46.069774	0.000649	6.486443	1.098833	-0.000130
 693	6.8854e+01	6.2148	46.017292	0.000264	2.635117	0.446401	-0.000053
 694	6.8954e+01	6.1950	45.920400	0.000486	4.864832	0.824125	-0.000097
 695	6.9053e+01	6.1746	45.851769	0.000345	3.445923	0.583755	-0.000069
 696	6.9153e+01	6.1552	45.787175	0.000324	3.243221	0.549417	-0.000065
 697	6.9252e+01	6.1346	45.666061	0.000608	6.081040	1.030156	-0.000122
 698	6.9352e+01	6.1149	45.613578	0.000264	2.635117	0.446401	-0.000053
 699	6.9451e+01	6.0958	45.480353	0.000669	6.689144	1.133172	-0.000134
 700	6.9550e+01	6.0749	45.415758	0.000324	3.243221	0.549417	-0.000065
 701	6.9650e+01	6.0549	45.330979	0.000426	4.256728	0.721109	-0.000085
 702	6.9749e+01	6.0346	45.242162	0.000446	4.459429	0.755448	-0.000089
 703	6.9849e+01	6.0152	45.137196	0.000527	5.270235	0.892802	-0.000105
 704	6.9948e+01	5.9954	45.064528	0.000365	3.648624	0.618094	-0.000073
 705	7.0048e+01	5.9756	44.979748	0.000426	4.256728	0.721109	-0.000085
 706	7.0147e+01	5.9550	44.878819	0.000507	5.067533	0.858463	-0.000101
 707	7.0247e+01	5.9356	44.794040	0.000426	4.256728	0.721109	-0.000085
 708	7.0347e+01	5.9156	44.709260	0.000426	4.256728	0.721109	-0.000085
 709	7.0446e+01	5.8959	44.624480	0.000426	4.256728	0.721109	-0.000085
 710	7.0546e+01	5.8761	44.515477	0.000547	5.472936	0.927140	-0.000110
 711	7.0645e+01	5.8559	44.434735	0.000405	4.054027	0.686771	-0.000081
 712	7.0745e+01	5.8353	44.341880	0.000466	4.662131	0.789786	-0.000093
 713	7.0844e+01	5.8164	44.249026	0.000466	4.662131	0.789786	-0.000093
 714	7.0944e+01	5.7964	44.224803	0.000122	1.216208	0.206031	-0.000024
 715	7.1043e+01	5.7757	44.103689	0.000608	6.081040	1.030156	-0.000122
 716	7.1142e+01	5.7565	43.978538	0.000628	6.283741	1.064495	-0.000126
 717	7.1242e+01	5.7368	43.897795	0.000405	4.054027	0.686771	-0.000081
 718	7.1341e+01	5.7156	43.800904	0.000486	4.864832	0.824125	-0.000097
 719	7.1441e+01	5.6974	43.752459	0.000243	2.432416	0.412062	-0.000049
 720	7.1540e+01	5.6759	43.647493	0.000527	5.270235	0.892802	-0.000105
 721	7.1640e+01	5.6565	43.574825	0.000365	3.648624	0.618094	-0.000073
 722	7.1740e+01	5.6373	43.477933	0.000486	4.864832	0.824125	-0.000097
 723	7.1839e+01	5.6168	43.413339	0.000324	3.243221	0.549417	-0.000065
 724	7.1939e+01	5.5972	43.308374	0.000527	5.270235	0.892802	-0.000105
 725	7.2038e+01	5.5769	43.199371	0.000547	5.472936	0.927140	-0.000110
 726	7.2138e+01	5.5579	43.118628	0.000405	4.054027	0.686771	-0.000081
 727	7.2237e+01	5.5382	43.029811	0.000446	4.459429	0.755448	-0.000089
 728	7.2337e+01	5.5176	42.961180	0.000345	3.445923	0.583755	-0.000069
 729	7.2436e+01	5.4974	42.856214	0.000527	5.270235	0.892802	-0.000105
 730	7.2535e+01	5.4768	42.787583	0.000345	3.445923	0.583755	-0.000069
 731	7.2635e+01	5.4574	42.682618	0.000527	5.270235	0.892802	-0.000105
 732	7.2734e+01	5.4380	42.609949	0.000365	3.648624	0.618094	-0.000073
 733	7.2834e+01	5.4168	42.529206	0.000405	4.054027	0.686771	-0.000081
 734	7.2933e+01	5.3979	42.412129	0.000588	5.878339	0.995818	-0.000118
 735	7.3033e+01	5.3780	42.327350	0.000426	4.256728	0.721109	-0.000085
 736	7.3132e+01	5.3585	42.258718	0.000345	3.445923	0.583755	-0.000069
 737	7.3232e+01	5.3379	42.161827	0.000486	4.864832	0.824125	-0.000097
 738	7.3332e+01	5.3192	42.056862	0.000527	5.270235	0.892802	-0.000105
 739	7.3431e+01	5.2979	41.939785	0.000588	5.878339	0.995818	-0.000118
 740	7.3531e+01	5.2785	41.879228	0.000304	3.040520	0.515078	-0.000061
 741	7.3630e+01	5.2581	41.786373	0.000466	4.662131	0.789786	-0.000093
 742	7.3730e+01	5.2393	41.701594	0.000426	4.256728	0.721109	-0.000085
 743	7.3829e+01	5.2177	41.612777	0.000446	4.459429	0.755448	-0.000089
 744	7.3928e+01	5.1985	41.532034	0.000405	4.054027	0.686771	-0.000081
 745	7.4028e+01	5.1785	41.455328	0.000385	3.851325	0.652432	-0.000077
 746	7.4127e+01	5.1589	41.358437	0.000486	4.864832	0.824125	-0.000097
 747	7.4227e+01	5.1382	41.273657	0.000426	4.256728	0.721109	-0.000085
 748	7.4326e+01	5.1192	41.148506	0.000628	6.283741	1.064495	-0.000126
 749	7.4426e+01	5.0996	41.055652	0.000466	4.662131	0.789786	-0.000093
 750	7.4525e+01	5.0788	40.966835	0.000446	4.459429	0.755448	-0.000089
 751	7.4625e+01	5.0587	40.882055	0.000426	4.256728	0.721109	-0.000085
 752	7.4725e+01	5.0385	40.789201	0.000466	4.662131	0.789786	-0.000093
 753	7.4824e+01	5.0205	40.692310	0.000486	4.864832	0.824125	-0.000097
 754	7.4924e+01	4.9990	40.595418	0.000486	4.864832	0.824125	-0.000097
 755	7.5023e+01	4.9795	40.522750	0.000365	3.648624	0.618094	-0.000073
 756	7.5123e+01	4.9596	40.413747	0.000547	5.472936	0.927140	-0.000110
 757	7.5222e+01	4.9400	40.349153	0.000324	3.243221	0.549417	-0.000065
 758	7.5322e+01	4.9203	40.244188	0.000527	5.270235	0.892802	-0.000105
 759	7.5421e+01	4.8994	40.143259	0.000507	5.067533	0.858463	-0.000101
 760	7.5520e+01	4.8804	40.054442	0.000446	4.459429	0.755448	-0.000089
 761	7.5620e+01	4.8598	39.961588	0.000466	4.662131	0.789786	-0.000093
 762	7.5719e+01	4.8399	39.872771	0.000446	4.459429	0.755448	-0.000089
 763	7.5819e+01	4.8196	39.767806	0.000527	5.270235	0.892802	-0.000105
 764	7.5918e+01	4.8003	39.658803	0.000547	5.472936	0.927140	-0.000110
 765	7.6018e+01	4.7807	39.586134	0.000365	3.648624	0.618094	-0.000073
 766	7.6118e+01	4.7611	39.497317	0.000446	4.459429	0.755448	-0.000089
 767	7.6217e+01	4.7396	39.404463	0.000466	4.662131	0.789786	-0.000093
 768	7.6317e+01	4.7207	39.319684	0.000426	4.256728	0.721109	-0.000085
 769	7.6416e+01	4.7005	39.198569	0.000608	6.081040	1.030156	-0.000122
 770	7.6516e+01	4.6807	39.101678	0.000486	4.864832	0.824125	-0.000097
 771	7.6615e+01	4.6604	39.008824	0.000466	4.662131	0.789786	-0.000093
 772	7.6715e+01	4.6413	38.907896	0.000507	5.067533	0.858463	-0.000101
 773	7.6814e+01	4.6213	38.851376	0.000284	2.837819	0.480739	-0.000057
 774	7.6913e+01	4.6005	38.726225	0.000628	6.283741	1.064495	-0.000126
 775	7.7013e+01	4.5818	38.657593	0.000345	3.445923	0.583755	-0.000069
 776	7.7112e+01	4.5620	38.580888	0.000385	3.851325	0.652432	-0.000077
 777	7.7212e+01	4.5416	38.459774	0.000608	6.081040	1.030156	-0.000122
 778	7.7311e+01	4.5211	38.354808	0.000527	5.270235	0.892802	-0.000105
 779	7.7411e+01	4.5014	38.298288	0.000284	2.837819	0.480739	-0.000057
 780	7.7510e+01	4.4810	38.165063	0.000669	6.689144	1.133172	-0.000134
 781	7.7610e+01	4.4610	38.092394	0.000365	3.648624	0.618094	-0.000073
 782	7.7710e+01	4.4411	38.023763	0.000345	3.445923	0.583755	-0.000069
 783	7.7809e+01	4.4222	37.870352	0.000770	7.702651	1.304864	-0.000154
 784	7.7909e+01	4.4019	37.773461	0.000486	4.864832	0.824125	-0.000097
 785	7.8008e+01	4.3829	37.725015	0.000243	2.432416	0.412062	-0.000049
 786	7.8108e+01	4.3620	37.616012	0.000547	5.472936	0.927140	-0.000110
 787	7.8207e+01	4.3414	37.527195	0.000446	4.459429	0.755448	-0.000089
 788	7.8306e+01	4.3224	37.442415	0.000426	4.256728	0.721109	-0.000085
 789	7.8406e+01	4.3022	37.329376	0.000568	5.675637	0.961479	-0.000114
 790	7.8505e+01	4.2831	37.268819	0.000304	3.040520	0.515078	-0.000061
 791	7.8605e+01	4.2622	37.155779	0.000568	5.675637	0.961479	-0.000114
 792	7.8704e+01	4.2430	37.046776	0.000547	5.472936	0.927140	-0.000110
 793	7.8804e+01	4.2229	36.974108	0.000365	3.648624	0.618094	-0.000073
 794	7.8903e+01	4.2027	36.881254	0.000466	4.662131	0.789786	-0.000093
 795	7.9003e+01	4.1820	36.776288	0.000527	5.270235	0.892802	-0.000105
 796	7.9103e+01	4.1624	36.671322	0.000527	5.270235	0.892802	-0.000105
 797	7.9202e+01	4.1431	36.517911	0.000770	7.702651	1.304864	-0.000154
 798	7.9302e+01	4.1228	36.481577	0.000182	1.824312	0.309047	-0.000037
 799	7.9401e+01	4.1032	36.348352	0.000669	6.689144	1.133172	-0.000134
 800	7.9501e+01	4.0829	36.275683	0.000365	3.648624	0.618094	-0.000073
 801	7.9600e+01	4.0633	36.154569	0.000608	6.081040	1.030156	-0.000122
 802	7.9700e+01	4.0427	36.102086	0.000264	2.635117	0.446401	-0.000053
 803	7.9799e+01	4.0229	35.997121	0.000527	5.270235	0.892802	-0.000105
 804	7.9898e+01	4.0041	35.912341	0.000426	4.256728	0.721109	-0.000085
 805	7.9998e+01	3.9826	35.823524	0.000446	4.459429	0.755448	-0.000089
 806	8.0097e+01	3.9646	35.698373	0.000628	6.283741	1.064495	-0.000126
 807	8.0197e+01	3.9432	35.593407	0.000527	5.270235	0.892802	-0.000105
 808	8.0296e+01	3.9235	35.540924	0.000264	2.635117	0.446401	-0.000053
 809	8.0396e+01	3.9034	35.387513	0.000770	7.702651	1.304864	-0.000154
 810	8.0496e+01	3.8842	35.298696	0.000446	4.459429	0.755448	-0.000089
 811	8.0595e+01	3.8648	35.221991	0.000385	3.851325	0.652432	-0.000077
 812	8.0695e+01	3.8443	35.125099	0.000486	4.864832	0.824125	-0.000097
 813	8.0794e+01	3.8241	35.008023	0.000588	5.878339	0.995818	-0.000118
 814	8.0894e+01	3.8046	34.907094	0.000507	5.067533	0.858463	-0.000101
 815	8.0993e+01	3.7840	34.850574	0.000284	2.837819	0.480739	-0.000057
 816	8.1093e+01	3.7652	34.737534	0.000568	5.675637	0.961479	-0.000114
 817	8.1192e+01	3.7457	34.644680	0.000466	4.662131	0.789786	-0.000093
 818	8.1291e+01	3.7240	34.551826	0.000466	4.662131	0.789786	-0.000093
 819	8.1391e+01	3.7059	34.446861	0.000527	5.270235	0.892802	-0.000105
 820	8.1490e+01	3.6855	34.345932	0.000507	5.067533	0.858463	-0.000101
 821	8.1590e+01	3.6652	34.220781	0.000628	6.283741	1.064495	-0.000126
 822	8.1689e+01	3.6456	34.152150	0.000345	3.445923	0.583755	-0.000069
 823	8.1789e+01	3.6257	34.006813	0.000730	7.297248	1.236187	-0.000146
 824	8.1888e+01	3.6060	33.942219	0.000324	3.243221	0.549417	-0.000065
 825	8.1988e+01	3.5857	33.829179	0.000568	5.675637	0.961479	-0.000114
 826	8.2088e+01	3.5650	33.728251	0.000507	5.067533	0.858463	-0.000101
 827	8.2187e+01	3.5451	33.631359	0.000486	4.864832	0.824125	-0.000097
 828	8.2287e+01	3.5262	33.530431	0.000507	5.067533	0.858463	-0.000101
 829	8.2386e+01	3.5052	33.389131	0.000709	7.094547	1.201849	-0.000142
 830	8.2486e+01	3.4853	33.296277	0.000466	4.662131	0.789786	-0.000093
 831	8.2585e+01	3.4660	33.187274	0.000547	5.472936	0.927140	-0.000110
 832	8.2684e+01	3.4461	33.110569	0.000385	3.851325	0.652432	-0.000077
 833	8.2784e+01	3.4264	33.017715	0.000466	4.662131	0.789786	-0.000093
 834	8.2883e+01	3.4060	32.880452	0.000689	6.891845	1.167510	-0.000138
 835	8.2983e+01	3.3866	32.791635	0.000446	4.459429	0.755448	-0.000089
 836	8.3082e+01	3.3657	32.706855	0.000426	4.256728	0.721109	-0.000085
 837	8.3182e+01	3.3460	32.609964	0.000486	4.864832	0.824125	-0.000097
 838	8.3281e+01	3.3258	32.504998	0.000527	5.270235	0.892802	-0.000105
 839	8.3381e+01	3.3057	32.375810	0.000649	6.486443	1.098833	-0.000130
 840	8.3481e+01	3.2859	32.303142	0.000365	3.648624	0.618094	-0.000073
 841	8.3580e+01	3.2659	32.194139	0.000547	5.472936	0.927140	-0.000110
 842	8.3680e+01	3.2469	32.093211	0.000507	5.067533	0.858463	-0.000101
 843	8.3779e+01	3.2264	31.992282	0.000507	5.067533	0.858463	-0.000101
 844	8.3879e+01	3.2066	31.923651	0.000345	3.445923	0.583755	-0.000069
 845	8.3978e+01	3.1869	31.798500	0.000628	6.283741	1.064495	-0.000126
 846	8.4078e+01	3.1667	31.701608	0.000486	4.864832	0.824125	-0.000097
 847	8.4177e+01	3.1477	31.616829	0.000426	4.256728	0.721109	-0.000085
 848	8.4276e+01	3.1268	31.459380	0.000791	7.905352	1.339203	-0.000158
 849	8.4376e+01	3.1072	31.382675	0.000385	3.851325	0.652432	-0.000077
 850	8.4475e+01	3.0860	31.310006	0.000365	3.648624	0.618094	-0.000073
 851	8.4575e+01	3.0676	31.172744	0.000689	6.891845	1.167510	-0.000138
 852	8.4674e+01	3.0473	31.063741	0.000547	5.472936	0.927140	-0.000110
 853	8.4774e+01	3.0274	30.974924	0.000446	4.459429	0.755448	-0.000089
 854	8.4874e+01	3.0082	30.861884	0.000568	5.675637	0.961479	-0.000114
 855	8.4973e+01	2.9873	30.752881	0.000547	5.472936	0.927140	-0.000110
 856	8.5073e+01	2.9678	30.643879	0.000547	5.472936	0.927140	-0.000110
 857	8.5172e+01	2.9467	30.559099	0.000426	4.256728	0.721109	-0.000085
 858	8.5272e+01	2.9276	30.437985	0.000608	6.081040	1.030156	-0.000122
 859	8.5371e+01	2.9076	30.341094	0.000486	4.864832	0.824125	-0.000097
 860	8.5471e+01	2.8875	30.260351	0.000405	4.054027	0.686771	-0.000081
 861	8.5570e+01	2.8683	30.110977	0.000750	7.499949	1.270526	-0.000150
 862	8.5669e+01	2.8491	30.018123	0.000466	4.662131	0.789786	-0.000093
 863	8.5769e+01	2.8281	29.888934	0.000649	6.486443	1.098833	-0.000130
 864	8.5868e+01	2.8089	29.755709	0.000669	6.689144	1.133172	-0.000134
 865	8.5968e+01	2.7889	29.650743	0.000527	5.270235	0.892802	-0.000105
 866	8.6067e+01	2.7680	29.586149	0.000324	3.243221	0.549417	-0.000065
 867	8.6167e+01	2.7482	29.456961	0.000649	6.486443	1.098833	-0.000130
 868	8.6266e+01	2.7278	29.351995	0.000527	5.270235	0.892802	-0.000105
 869	8.6366e+01	2.7081	29.255104	0.000486	4.864832	0.824125	-0.000097
 870	8.6466e+01	2.6878	29.178399	0.000385	3.851325	0.652432	-0.000077
 871	8.6565e+01	2.6693	29.033062	0.000730	7.297248	1.236187	-0.000146
 872	8.6665e+01	2.6485	28.891762	0.000709	7.094547	1.201849	-0.000142
 873	8.6764e+01	2.6290	28.794871	0.000486	4.864832	0.824125	-0.000097
 874	8.6864e+01	2.6083	28.689905	0.000527	5.270235	0.892802	-0.000105
 875	8.6963e+01	2.5884	28.593014	0.000486	4.864832	0.824125	-0.000097
 876	8.7063e+01	2.5685	28.488048	0.000527	5.270235	0.892802	-0.000105
 877	8.7162e+01	2.5498	28.362897	0.000628	6.283741	1.064495	-0.000126
 878	8.7261e+01	2.5296	28.261969	0.000507	5.067533	0.858463	-0.000101
 879	8.7361e+01	2.5085	28.136818	0.000628	6.283741	1.064495	-0.000126
 880	8.7460e+01	2.4893	28.060112	0.000385	3.851325	0.652432	-0.000077
 881	8.7560e+01	2.4705	27.914775	0.000730	7.297248	1.236187	-0.000146
 882	8.7659e+01	2.4500	27.850181	0.000324	3.243221	0.549417	-0.000065
 883	8.7759e+01	2.4297	27.688695	0.000811	8.108053	1.373541	-0.000162
 884	8.7859e+01	2.4099	27.632176	0.000284	2.837819	0.480739	-0.000057
 885	8.7958e+01	2.3896	27.478764	0.000770	7.702651	1.304864	-0.000154
 886	8.8058e+01	2.3703	27.385910	0.000466	4.662131	0.789786	-0.000093
 887	8.8157e+01	2.3495	27.268833	0.000588	5.878339	0.995818	-0.000118
 888	8.8257e+01	2.3305	27.155794	0.000568	5.675637	0.961479	-0.000114
 889	8.8356e+01	2.3103	27.050828	0.000527	5.270235	0.892802	-0.000105
 890	8.8456e+01	2.2907	26.913565	0.000689	6.891845	1.167510	-0.000138
 891	8.8555e+01	2.2701	26.828786	0.000426	4.256728	0.721109	-0.000085
 892	8.8654e+01	2.2503	26.739969	0.000446	4.459429	0.755448	-0.000089
 893	8.8754e+01	2.2311	26.574446	0.000831	8.310755	1.407880	-0.000166
 894	8.8853e+01	2.2098	26.485629	0.000446	4.459429	0.755448	-0.000089
 895	8.8953e+01	2.1905	26.404886	0.000405	4.054027	0.686771	-0.000081
 896	8.9052e+01	2.1704	26.243401	0.000811	8.108053	1.373541	-0.000162
 897	8.9152e+01	2.1507	26.162658	0.000405	4.054027	0.686771	-0.000081
 898	8.9251e+01	2.1307	26.069804	0.000466	4.662131	0.789786	-0.000093
 899	8.9351e+01	2.1102	25.904281	0.000831	8.310755	1.407880	-0.000166
 900	8.9451e+01	2.0901	25.851799	0.000264	2.635117	0.446401	-0.000053
 901	8.9550e+01	2.0717	25.686276	0.000831	8.310755	1.407880	-0.000166
 902	8.9650e+01	2.0512	25.585348	0.000507	5.067533	0.858463	-0.000101
 903	8.9749e+01	2.0312	25.484419	0.000507	5.067533	0.858463	-0.000101
 904	8.9849e+01	2.0111	25.407714	0.000385	3.851325	0.652432	-0.000077
 905	8.9948e+01	1.9909	25.250265	0.000791	7.905352	1.339203	-0.000158
 906	9.0047e+01	1.9719	25.161448	0.000446	4.459429	0.755448	-0.000089
 907	9.0147e+01	1.9514	25.020149	0.000709	7.094547	1.201849	-0.000142
 908	9.0246e+01	1.9315	24.915183	0.000527	5.270235	0.892802	-0.000105
 909	9.0346e+01	1.9118	24.818292	0.000486	4.864832	0.824125	-0.000097
 910	9.0445e+01	1.8910	24.741586	0.000385	3.851325	0.652432	-0.000077
 911	9.0545e+01	1.8717	24.563952	0.000892	8.918859	1.510896	-0.000179
 912	9.0644e+01	1.8520	24.463024	0.000507	5.067533	0.858463	-0.000101
 913	9.0744e+01	1.8328	24.345947	0.000588	5.878339	0.995818	-0.000118
 914	9.0844e+01	1.8122	24.253093	0.000466	4.662131	0.789786	-0.000093
 915	9.0943e+01	1.7923	24.152165	0.000507	5.067533	0.858463	-0.000101
 916	9.1043e+01	1.7728	24.014902	0.000689	6.891845	1.167510	-0.000138
 917	9.1142e+01	1.7525	23.942233	0.000365	3.648624	0.618094	-0.000073
 918	9.1242e+01	1.7320	23.809008	0.000669	6.689144	1.133172	-0.000134
 919	9.1341e+01	1.7132	23.651560	0.000791	7.905352	1.339203	-0.000158
 920	9.1441e+01	1.6927	23.586966	0.000324	3.243221	0.549417	-0.000065
 921	9.1540e+01	1.6737	23.417406	0.000851	8.513456	1.442218	-0.000170
 922	9.1639e+01	1.6521	23.356849	0.000304	3.040520	0.515078	-0.000061
 923	9.1739e+01	1.6331	23.203438	0.000770	7.702651	1.304864	-0.000154
 924	9.1838e+01	1.6122	23.110584	0.000466	4.662131	0.789786	-0.000093
 925	9.1938e+01	1.5935	22.997544	0.000568	5.675637	0.961479	-0.000114
 926	9.2037e+01	1.5726	22.815873	0.000912	9.121560	1.545234	-0.000183
 927	9.2137e+01	1.5531	22.759353	0.000284	2.837819	0.480739	-0.000057
 928	9.2237e+01	1.5324	22.666499	0.000466	4.662131	0.789786	-0.000093
 929	9.2336e+01	1.5134	22.525199	0.000709	7.094547	1.201849	-0.000142
 930	9.2436e+01	1.4927	22.396011	0.000649	6.486443	1.098833	-0.000130
 931	9.2535e+01	1.4724	22.315268	0.000405	4.054027	0.686771	-0.000081
 932	9.2635e+01	1.4538	22.210302	0.000527	5.270235	0.892802	-0.000105
 933	9.2734e+01	1.4336	22.069003	0.000709	7.094547	1.201849	-0.000142
 934	9.2834e+01	1.4136	21.960000	0.000547	5.472936	0.927140	-0.000110
 935	9.2933e+01	1.3934	21.802552	0.000791	7.905352	1.339203	-0.000158
 936	9.3032e+01	1.3735	21.705660	0.000486	4.864832	0.824125	-0.000097
 937	9.3132e+01	1.3535	21.620880	0.000426	4.256728	0.721109	-0.000085
 938	9.3231e+01	1.3330	21.443246	0.000892	8.918859	1.510896	-0.000179
 939	9.3331e+01	1.3136	21.378652	0.000324	3.243221	0.549417	-0.000065
 940	9.3430e+01	1.2940	21.257538	0.000608	6.081040	1.030156	-0.000122
 941	9.3530e+01	1.2740	21.124313	0.000669	6.689144	1.133172	-0.000134
 942	9.3629e+01	1.2542	20.974939	0.000750	7.499949	1.270526	-0.000150
 943	9.3729e+01	1.2344	20.922456	0.000264	2.635117	0.446401	-0.000053
 944	9.3829e+01	1.2147	20.793268	0.000649	6.486443	1.098833	-0.000130
 945	9.3928e+01	1.1951	20.696376	0.000486	4.864832	0.824125	-0.000097
 946	9.4028e+01	1.1754	20.579299	0.000588	5.878339	0.995818	-0.000118
 947	9.4127e+01	1.1549	20.454148	0.000628	6.283741	1.064495	-0.000126
 948	9.4227e+01	1.1352	20.316886	0.000689	6.891845	1.167510	-0.000138
 949	9.4326e+01	1.1149	20.215957	0.000507	5.067533	0.858463	-0.000101
 950	9.4425e+01	1.0954	20.131177	0.000426	4.256728	0.721109	-0.000085
 951	9.4525e+01	1.0748	19.961618	0.000851	8.513456	1.442218	-0.000170
 952	9.4624e+01	1.0564	19.852615	0.000547	5.472936	0.927140	-0.000110
 953	9.4724e+01	1.0351	19.755724	0.000486	4.864832	0.824125	-0.000097
 954	9.4823e+01	1.0157	19.646721	0.000547	5.472936	0.927140	-0.000110
 955	9.4923e+01	0.9946	19.574053	0.000365	3.648624	0.618094	-0.000073
 956	9.5022e+01	0.9748	19.396419	0.000892	8.918859	1.510896	-0.000179
 957	9.5122e+01	0.9557	19.307602	0.000446	4.459429	0.755448	-0.000089
 958	9.5222e+01	0.9364	19.202636	0.000527	5.270235	0.892802	-0.000105
 959	9.5321e+01	0.9162	19.061336	0.000709	7.094547	1.201849	-0.000142
 960	9.5421e+01	0.8965	18.940222	0.000608	6.081040	1.030156	-0.000122
 961	9.5520e+01	0.8762	18.847368	0.000466	4.662131	0.789786	-0.000093
 962	9.5620e+01	0.8562	18.734328	0.000568	5.675637	0.961479	-0.000114
 963	9.5719e+01	0.8349	18.576880	0.000791	7.905352	1.339203	-0.000158
 964	9.5819e+01	0.8158	18.496137	0.000405	4.054027	0.686771	-0.000081
 965	9.5918e+01	0.7967	18.346763	0.000750	7.499949	1.270526	-0.000150
 966	9.6017e+01	0.7763	18.266021	0.000405	4.054027	0.686771	-0.000081
 967	9.6117e+01	0.7565	18.157018	0.000547	5.472936	0.927140	-0.000110
 968	9.6216e+01	0.7367	17.987458	0.000851	8.513456	1.442218	-0.000170
 969	9.6316e+01	0.7172	17.906716	0.000405	4.054027	0.686771	-0.000081
 970	9.6415e+01	0.6960	17.769453	0.000689	6.891845	1.167510	-0.000138
 971	9.6515e+01	0.6763	17.664487	0.000527	5.270235	0.892802	-0.000105
 972	9.6615e+01	0.6567	17.539336	0.000628	6.283741	1.064495	-0.000126
 973	9.6714e+01	0.6373	17.393999	0.000730	7.297248	1.236187	-0.000146
 974	9.6814e+01	0.6177	17.321331	0.000365	3.648624	0.618094	-0.000073
 975	9.6913e+01	0.5972	17.155808	0.000831	8.310755	1.407880	-0.000166
 976	9.7013e+01	0.5785	17.058917	0.000486	4.864832	0.824125	-0.000097
 977	9.7112e+01	0.5579	16.970100	0.000446	4.459429	0.755448	-0.000089
 978	9.7212e+01	0.5384	16.848986	0.000608	6.081040	1.030156	-0.000122
 979	9.7311e+01	0.5170	16.687501	0.000811	8.108053	1.373541	-0.000162
 980	9.7410e+01	0.4976	16.594646	0.000466	4.662131	0.789786	-0.000093
 981	9.7510e+01	0.4784	16.481607	0.000568	5.675637	0.961479	-0.000114
 982	9.7609e+01	0.4570	16.352418	0.000649	6.486443	1.098833	-0.000130
 983	9.7709e+01	0.4371	16.251490	0.000507	5.067533	0.858463	-0.000101
 984	9.7808e+01	0.4174	16.106153	0.000730	7.297248	1.236187	-0.000146
 985	9.7908e+01	0.3974	15.981002	0.000628	6.283741	1.064495	-0.000126
 986	9.8007e+01	0.3781	15.835665	0.000730	7.297248	1.236187	-0.000146
 987	9.8107e+01	0.3580	15.767034	0.000345	3.445923	0.583755	-0.000069
 988	9.8207e+01	0.3381	15.637845	0.000649	6.486443	1.098833	-0.000130
 989	9.8306e+01	0.3172	15.488471	0.000750	7.499949	1.270526	-0.000150
 990	9.8406e+01	0.2985	15.391580	0.000486	4.864832	0.824125	-0.000097
 991	9.8505e+01	0.2778	15.258355	0.000669	6.689144	1.133172	-0.000134
 992	9.8605e+01	0.2590	15.177612	0.000405	4.054027	0.686771	-0.000081
 993	9.8704e+01	0.2376	15.040349	0.000689	6.891845	1.167510	-0.000138
 994	9.8803e+01	0.2183	14.915198	0.000628	6.283741	1.064495	-0.000126
 995	9.8903e+01	0.1981	14.794084	0.000608	6.081040	1.030156	-0.000122
 996	9.9002e+01	0.1780	14.685081	0.000547	5.472936	0.927140	-0.000110
 997	9.9102e+01	0.1588	14.531670	0.000770	7.702651	1.304864	-0.000154
 998	9.9201e+01	0.1382	14.418630	0.000568	5.675637	0.961479	-0.000114
 999	9.9301e+01	0.1189	14.301553	0.000588	5.878339	0.995818	-0.000118
1000	9.9400e+01	0.0986	14.176402	0.000628	6.283741	1.064495	-0.000126
1001	9.9500e+01	0.0791	14.087585	0.000446	4.459429	0.755448	-0.000089
1002	9.9600e+01	0.0590	13.913988	0.000872	8.716157	1.476557	-0.000174
1003	9.9699e+01	0.0385	13.829208	0.000426	4.256728	0.721109	-0.000085
1004	9.9799e+01	0.0185	13.683872	0.000730	7.297248	1.236187	-0.000146
1005	9.9898e+01	0.0002	13.558720	0.000628	6.283741	1.064495	-0.000126
1006	9.9998e+01	-0.0195	13.502200	0.000284	2.837819	0.480739	-0.000057
1007	1.0010e+02	-0.0387	13.352826	0.000750	7.499949	1.270526	-0.000150
1008	1.0020e+02	-0.0592	13.235750	0.000588	5.878339	0.995818	-0.000118
1009	1.0030e+02	-0.0786	13.114635	0.000608	6.081040	1.030156	-0.000122
1010	1.0040e+02	-0.0993	12.981410	0.000669	6.689144	1.133172	-0.000134
1011	1.0050e+02	-0.1187	12.860296	0.000608	6.081040	1.030156	-0.000122
1012	1.0059e+02	-0.1385	12.763405	0.000486	4.864832	0.824125	-0.000097
1013	1.0069e+02	-0.1584	12.642291	0.000608	6.081040	1.030156	-0.000122
1014	1.0079e+02	-0.1780	12.513102	0.000649	6.486443	1.098833	-0.000130
1015	1.0089e+02	-0.1975	12.404100	0.000547	5.472936	0.927140	-0.000110
1016	1.0099e+02	-0.2184	12.238577	0.000831	8.310755	1.407880	-0.000166
1017	1.0109e+02	-0.2386	12.182057	0.000284	2.837819	0.480739	-0.000057
1018	1.0119e+02	-0.2585	12.020572	0.000811	8.108053	1.373541	-0.000162
1019	1.0129e+02	-0.2777	11.923680	0.000486	4.864832	0.824125	-0.000097
1020	1.0139e+02	-0.2971	11.782381	0.000709	7.094547	1.201849	-0.000142
1021	1.0149e+02	-0.3176	11.657229	0.000628	6.283741	1.064495	-0.000126
1022	1.0159e+02	-0.3371	11.540153	0.000588	5.878339	0.995818	-0.000118
1023	1.0169e+02	-0.3574	11.402890	0.000689	6.891845	1.167510	-0.000138
1024	1.0179e+02	-0.3779	11.285813	0.000588	5.878339	0.995818	-0.000118
1025	1.0189e+02	-0.3973	11.152587	0.000669	6.689144	1.133172	-0.000134
1026	1.0199e+02	-0.4180	11.035511	0.000588	5.878339	0.995818	-0.000118
1027	1.0209e+02	-0.4372	10.914396	0.000608	6.081040	1.030156	-0.000122
1028	1.0219e+02	-0.4579	10.793282	0.000608	6.081040	1.030156	-0.000122
1029	1.0229e+02	-0.4781	10.716577	0.000385	3.851325	0.652432	-0.000077
1030	1.0239e+02	-0.4973	10.575277	0.000709	7.094547	1.201849	-0.000142
1031	1.0248e+02	-0.5169	10.409755	0.000831	8.310755	1.407880	-0.000166
1032	1.0258e+02	-0.5363	10.284603	0.000628	6.283741	1.064495	-0.000126
1033	1.0268e+02	-0.5573	10.175601	0.000547	5.472936	0.927140	-0.000110
1034	1.0278e+02	-0.5763	10.054487	0.000608	6.081040	1.030156	-0.000122
1035	1.0288e+02	-0.5961	9.913187	0.000709	7.094547	1.201849	-0.000142
1036	1.0298e+02	-0.6165	9.812258	0.000507	5.067533	0.858463	-0.000101
1037	1.0308e+02	-0.6360	9.662884	0.000750	7.499949	1.270526	-0.000150
1038	1.0318e+02	-0.6554	9.537733	0.000628	6.283741	1.064495	-0.000126
1039	1.0328e+02	-0.6763	9.424693	0.000568	5.675637	0.961479	-0.000114
1040	1.0338e+02	-0.6960	9.307616	0.000588	5.878339	0.995818	-0.000118
1041	1.0348e+02	-0.7172	9.162280	0.000730	7.297248	1.236187	-0.000146
1042	1.0358e+02	-0.7358	9.008868	0.000770	7.702651	1.304864	-0.000154
1043	1.0368e+02	-0.7562	8.916014	0.000466	4.662131	0.789786	-0.000093
1044	1.0378e+02	-0.7755	8.811049	0.000527	5.270235	0.892802	-0.000105
1045	1.0388e+02	-0.7967	8.726269	0.000426	4.256728	0.721109	-0.000085
1046	1.0398e+02	-0.8160	8.520375	0.001034	10.337768	1.751265	-0.000207
1047	1.0408e+02	-0.8353	8.419447	0.000507	5.067533	0.858463	-0.000101
1048	1.0418e+02	-0.8560	8.257961	0.000811	8.108053	1.373541	-0.000162
1049	1.0428e+02	-0.8760	8.193367	0.000324	3.243221	0.549417	-0.000065
1050	1.0438e+02	-0.8962	8.072253	0.000608	6.081040	1.030156	-0.000122
1051	1.0447e+02	-0.9158	7.898656	0.000872	8.716157	1.476557	-0.000174
1052	1.0457e+02	-0.9361	7.793691	0.000527	5.270235	0.892802	-0.000105
1053	1.0467e+02	-0.9546	7.664502	0.000649	6.486443	1.098833	-0.000130
1054	1.0477e+02	-0.9757	7.579722	0.000426	4.256728	0.721109	-0.000085
1055	1.0487e+02	-0.9962	7.438423	0.000709	7.094547	1.201849	-0.000142
1056	1.0497e+02	-1.0154	7.297123	0.000709	7.094547	1.201849	-0.000142
1057	1.0507e+02	-1.0345	7.192157	0.000527	5.270235	0.892802	-0.000105
1058	1.0517e+02	-1.0561	7.083155	0.000547	5.472936	0.927140	-0.000110
1059	1.0527e+02	-1.0756	6.941855	0.000709	7.094547	1.201849	-0.000142
1060	1.0537e+02	-1.0963	6.804592	0.000689	6.891845	1.167510	-0.000138
1061	1.0547e+02	-1.1147	6.671367	0.000669	6.689144	1.133172	-0.000134
1062	1.0557e+02	-1.1345	6.534104	0.000689	6.891845	1.167510	-0.000138
1063	1.0567e+02	-1.1541	6.421064	0.000568	5.675637	0.961479	-0.000114
1064	1.0577e+02	-1.1751	6.320136	0.000507	5.067533	0.858463	-0.000101
1065	1.0587e+02	-1.1948	6.158651	0.000811	8.108053	1.373541	-0.000162
1066	1.0597e+02	-1.2148	6.049648	0.000547	5.472936	0.927140	-0.000110
1067	1.0607e+02	-1.2334	5.932571	0.000588	5.878339	0.995818	-0.000118
1068	1.0617e+02	-1.2547	5.811457	0.000608	6.081040	1.030156	-0.000122
1069	1.0627e+02	-1.2730	5.654009	0.000791	7.905352	1.339203	-0.000158
1070	1.0637e+02	-1.2941	5.532895	0.000608	6.081040	1.030156	-0.000122
1071	1.0647e+02	-1.3137	5.423892	0.000547	5.472936	0.927140	-0.000110
1072	1.0656e+02	-1.3332	5.298741	0.000628	6.283741	1.064495	-0.000126
1073	1.0666e+02	-1.3531	5.201849	0.000486	4.864832	0.824125	-0.000097
1074	1.0676e+02	-1.3736	5.056513	0.000730	7.297248	1.236187	-0.000146
1075	1.0686e+02	-1.3930	4.943473	0.000568	5.675637	0.961479	-0.000114
1076	1.0696e+02	-1.4139	4.798136	0.000730	7.297248	1.236187	-0.000146
1077	1.0706e+02	-1.4341	4.681059	0.000588	5.878339	0.995818	-0.000118
1078	1.0716e+02	-1.4530	4.563982	0.000588	5.878339	0.995818	-0.000118
1079	1.0726e+02	-1.4731	4.467091	0.000486	4.864832	0.824125	-0.000097
1080	1.0736e+02	-1.4928	4.321754	0.000730	7.297248	1.236187	-0.000146
1081	1.0746e+02	-1.5125	4.200640	0.000608	6.081040	1.030156	-0.000122
1082	1.0756e+02	-1.5327	4.083563	0.000588	5.878339	0.995818	-0.000118
1083	1.0766e+02	-1.5526	3.938226	0.000730	7.297248	1.236187	-0.000146
1084	1.0776e+02	-1.5727	3.857483	0.000405	4.054027	0.686771	-0.000081
1085	1.0786e+02	-1.5924	3.712146	0.000730	7.297248	1.236187	-0.000146
1086	1.0796e+02	-1.6121	3.550661	0.000811	8.108053	1.373541	-0.000162
1087	1.0806e+02	-1.6326	3.429547	0.000608	6.081040	1.030156	-0.000122
1088	1.0816e+02	-1.6519	3.312470	0.000588	5.878339	0.995818	-0.000118
1089	1.0826e+02	-1.6727	3.187319	0.000628	6.283741	1.064495	-0.000126
1090	1.0836e+02	-1.6930	3.074279	0.000568	5.675637	0.961479	-0.000114
1091	1.0845e+02	-1.7123	2.957202	0.000588	5.878339	0.995818	-0.000118
1092	1.0855e+02	-1.7325	2.832051	0.000628	6.283741	1.064495	-0.000126
1093	1.0865e+02	-1.7522	2.698825	0.000669	6.689144	1.133172	-0.000134
1094	1.0875e+02	-1.7720	2.549451	0.000750	7.499949	1.270526	-0.000150
1095	1.0885e+02	-1.7919	2.440449	0.000547	5.472936	0.927140	-0.000110
1096	1.0895e+02	-1.8127	2.347594	0.000466	4.662131	0.789786	-0.000093
1097	1.0905e+02	-1.8321	2.182072	0.000831	8.310755	1.407880	-0.000166
1098	1.0915e+02	-1.8524	2.077106	0.000527	5.270235	0.892802	-0.000105
1099	1.0925e+02	-1.8725	1.919658	0.000791	7.905352	1.339203	-0.000158
1100	1.0935e+02	-1.8921	1.782395	0.000689	6.891845	1.167510	-0.000138
1101	1.0945e+02	-1.9128	1.681467	0.000507	5.067533	0.858463	-0.000101
1102	1.0955e+02	-1.9309	1.524019	0.000791	7.905352	1.339203	-0.000158
1103	1.0965e+02	-1.9511	1.451350	0.000365	3.648624	0.618094	-0.000073
1104	1.0975e+02	-1.9717	1.314088	0.000689	6.891845	1.167510	-0.000138
1105	1.0985e+02	-1.9910	1.205085	0.000547	5.472936	0.927140	-0.000110
1106	1.0995e+02	-2.0116	1.063785	0.000709	7.094547	1.201849	-0.000142
1107	1.1005e+02	-2.0319	0.979005	0.000426	4.256728	0.721109	-0.000085
1108	1.1015e+02	-2.0512	0.805409	0.000872	8.716157	1.476557	-0.000174
1109	1.1025e+02	-2.0712	0.684295	0.000608	6.081040	1.030156	-0.000122
1110	1.1035e+02	-2.0907	0.567218	0.000588	5.878339	0.995818	-0.000118
1111	1.1044e+02	-2.1117	0.446103	0.000608	6.081040	1.030156	-0.000122
1112	1.1054e+02	-2.1307	0.308841	0.000689	6.891845	1.167510	-0.000138
1113	1.1064e+02	-2.1507	0.199838	0.000547	5.472936	0.927140	-0.000110
1114	1.1074e+02	-2.1715	0.082761	0.000588	5.878339	0.995818	-0.000118
1115	1.1084e+02	-2.1910	-0.074687	0.000791	7.905352	1.339203	-0.000158
1116	1.1094e+02	-2.2113	-0.155430	0.000405	4.054027	0.686771	-0.000081
1117	1.1104e+02	-2.2308	-0.260395	0.000527	5.270235	0.892802	-0.000105
1118	1.1114e+02	-2.2513	-0.385546	0.000628	6.283741	1.064495	-0.000126
1119	1.1124e+02	-2.2710	-0.518772	0.000669	6.689144	1.133172	-0.000134
1120	1.1134e+02	-2.2903	-0.639886	0.000608	6.081040	1.030156	-0.000122
1121	1.1144e+02	-2.3091	-0.728703	0.000446	4.459429	0.755448	-0.000089
1122	1.1154e+02	-2.3302	-0.890188	0.000811	8.108053	1.373541	-0.000162
1123	1.1164e+02	-2.3498	-1.003228	0.000568	5.675637	0.961479	-0.000114
1124	1.1174e+02	-2.3706	-1.100119	0.000486	4.864832	0.824125	-0.000097
1125	1.1184e+02	-2.3888	-1.261605	0.000811	8.108053	1.373541	-0.000162
1126	1.1194e+02	-2.4096	-1.338310	0.000385	3.851325	0.652432	-0.000077
1127	1.1204e+02	-2.4303	-1.491722	0.000770	7.702651	1.304864	-0.000154
1128	1.1214e+02	-2.4498	-1.612836	0.000608	6.081040	1.030156	-0.000122
1129	1.1224e+02	-2.4703	-1.729913	0.000588	5.878339	0.995818	-0.000118
1130	1.1234e+02	-2.4900	-1.863138	0.000669	6.689144	1.133172	-0.000134
1131	1.1244e+02	-2.5102	-1.972141	0.000547	5.472936	0.927140	-0.000110
1132	1.1253e+02	-2.5288	-2.113441	0.000709	7.094547	1.201849	-0.000142
1133	1.1263e+02	-2.5482	-2.182072	0.000345	3.445923	0.583755	-0.000069
1134	1.1273e+02	-2.5685	-2.355669	0.000872	8.716157	1.476557	-0.000174
1135	1.1283e+02	-2.5881	-2.444486	0.000446	4.459429	0.755448	-0.000089
1136	1.1293e+02	-2.6080	-2.610008	0.000831	8.310755	1.407880	-0.000166
1137	1.1303e+02	-2.6287	-2.698825	0.000446	4.459429	0.755448	-0.000089
1138	1.1313e+02	-2.6483	-2.836088	0.000689	6.891845	1.167510	-0.000138
1139	1.1323e+02	-2.6677	-2.912793	0.000385	3.851325	0.652432	-0.000077
1140	1.1333e+02	-2.6886	-3.090427	0.000892	8.918859	1.510896	-0.000179
1141	1.1343e+02	-2.7085	-3.211541	0.000608	6.081040	1.030156	-0.000122
1142	1.1353e+02	-2.7287	-3.320544	0.000547	5.472936	0.927140	-0.000110
1143	1.1363e+02	-2.7481	-3.441658	0.000608	6.081040	1.030156	-0.000122
1144	1.1373e+02	-2.7682	-3.502215	0.000304	3.040520	0.515078	-0.000061
1145	1.1383e+02	-2.7883	-3.635441	0.000669	6.689144	1.133172	-0.000134
1146	1.1393e+02	-2.8085	-3.825186	0.000953	9.526962	1.613911	-0.000191
1147	1.1403e+02	-2.8279	-3.914003	0.000446	4.459429	0.755448	-0.000089
1148	1.1413e+02	-2.8473	-4.043191	0.000649	6.486443	1.098833	-0.000130
1149	1.1423e+02	-2.8671	-4.127971	0.000426	4.256728	0.721109	-0.000085
1150	1.1433e+02	-2.8881	-4.281382	0.000770	7.702651	1.304864	-0.000154
1151	1.1442e+02	-2.9067	-4.366162	0.000426	4.256728	0.721109	-0.000085
1152	1.1452e+02	-2.9277	-4.511499	0.000730	7.297248	1.236187	-0.000146
1153	1.1462e+02	-2.9468	-4.608390	0.000486	4.864832	0.824125	-0.000097
1154	1.1472e+02	-2.9671	-4.753727	0.000730	7.297248	1.236187	-0.000146
1155	1.1482e+02	-2.9872	-4.850619	0.000486	4.864832	0.824125	-0.000097
1156	1.1492e+02	-3.0085	-4.983844	0.000669	6.689144	1.133172	-0.000134
1157	1.1502e+02	-3.0271	-5.108995	0.000628	6.283741	1.064495	-0.000126
1158	1.1512e+02	-3.0472	-5.197812	0.000446	4.459429	0.755448	-0.000089
1159	1.1522e+02	-3.0670	-5.318926	0.000608	6.081040	1.030156	-0.000122
1160	1.1532e+02	-3.0869	-5.440040	0.000608	6.081040	1.030156	-0.000122
1161	1.1542e+02	-3.1070	-5.565192	0.000628	6.283741	1.064495	-0.000126
1162	1.1552e+02	-3.1273	-5.718603	0.000770	7.702651	1.304864	-0.000154
1163	1.1562e+02	-3.1476	-5.811457	0.000466	4.662131	0.789786	-0.000093
1164	1.1572e+02	-3.1651	-5.936608	0.000628	6.283741	1.064495	-0.000126
1165	1.1582e+02	-3.1860	-6.065796	0.000649	6.486443	1.098833	-0.000130
1166	1.1592e+02	-3.2066	-6.174799	0.000547	5.472936	0.927140	-0.000110
1167	1.1602e+02	-3.2268	-6.275728	0.000507	5.067533	0.858463	-0.000101
1168	1.1612e+02	-3.2465	-6.437213	0.000811	8.108053	1.373541	-0.000162
1169	1.1622e+02	-3.2661	-6.550253	0.000568	5.675637	0.961479	-0.000114
1170	1.1632e+02	-3.2864	-6.659255	0.000547	5.472936	0.927140	-0.000110
1171	1.1642e+02	-3.3062	-6.780369	0.000608	6.081040	1.030156	-0.000122
1172	1.1651e+02	-3.3260	-6.905521	0.000628	6.283741	1.064495	-0.000126
1173	1.1661e+02	-3.3464	-7.026635	0.000608	6.081040	1.030156	-0.000122
1174	1.1671e+02	-3.3655	-7.155823	0.000649	6.486443	1.098833	-0.000130
1175	1.1681e+02	-3.3862	-7.264826	0.000547	5.472936	0.927140	-0.000110
1176	1.1691e+02	-3.4055	-7.377866	0.000568	5.675637	0.961479	-0.000114
1177	1.1701e+02	-3.4262	-7.470720	0.000466	4.662131	0.789786	-0.000093
1178	1.1711e+02	-3.4464	-7.607982	0.000689	6.891845	1.167510	-0.000138
1179	1.1721e+02	-3.4664	-7.721022	0.000568	5.675637	0.961479	-0.000114
1180	1.1731e+02	-3.4863	-7.813876	0.000466	4.662131	0.789786	-0.000093
1181	1.1741e+02	-3.5051	-7.947102	0.000669	6.689144	1.133172	-0.000134
1182	1.1751e+02	-3.5254	-8.092439	0.000730	7.297248	1.236187	-0.000146
1183	1.1761e+02	-3.5455	-8.148958	0.000284	2.837819	0.480739	-0.000057
1184	1.1771e+02	-3.5647	-8.322555	0.000872	8.716157	1.476557	-0.000174
1185	1.1781e+02	-3.5848	-8.459818	0.000689	6.891845	1.167510	-0.000138
1186	1.1791e+02	-3.6057	-8.580932	0.000608	6.081040	1.030156	-0.000122
1187	1.1801e+02	-3.6247	-8.653600	0.000365	3.648624	0.618094	-0.000073
1188	1.1811e+02	-3.6447	-8.790863	0.000689	6.891845	1.167510	-0.000138
1189	1.1821e+02	-3.6650	-8.859494	0.000345	3.445923	0.583755	-0.000069
1190	1.1831e+02	-3.6852	-8.996757	0.000689	6.891845	1.167510	-0.000138
1191	1.1841e+02	-3.7053	-9.105760	0.000547	5.472936	0.927140	-0.000110
1192	1.1850e+02	-3.7245	-9.259171	0.000770	7.702651	1.304864	-0.000154
1193	1.1860e+02	-3.7445	-9.343951	0.000426	4.256728	0.721109	-0.000085
1194	1.1870e+02	-3.7646	-9.473139	0.000649	6.486443	1.098833	-0.000130
1195	1.1880e+02	-3.7837	-9.590216	0.000588	5.878339	0.995818	-0.000118
1196	1.1890e+02	-3.8031	-9.711330	0.000608	6.081040	1.030156	-0.000122
1197	1.1900e+02	-3.8242	-9.796110	0.000426	4.256728	0.721109	-0.000085
1198	1.1910e+02	-3.8443	-9.925298	0.000649	6.486443	1.098833	-0.000130
1199	1.1920e+02	-3.8640	-10.054487	0.000649	6.486443	1.098833	-0.000130
1200	1.1930e+02	-3.8835	-10.203861	0.000750	7.499949	1.270526	-0.000150
1201	1.1940e+02	-3.9052	-10.337086	0.000669	6.689144	1.133172	-0.000134
1202	1.1950e+02	-3.9236	-10.413792	0.000385	3.851325	0.652432	-0.000077
1203	1.1960e+02	-3.9433	-10.563166	0.000750	7.499949	1.270526	-0.000150
1204	1.1970e+02	-3.9632	-10.635834	0.000365	3.648624	0.618094	-0.000073
1205	1.1980e+02	-3.9835	-10.765022	0.000649	6.486443	1.098833	-0.000130
1206	1.1990e+02	-4.0022	-10.902285	0.000689	6.891845	1.167510	-0.000138
1207	1.2000e+02	-4.0243	-10.999176	0.000486	4.864832	0.824125	-0.000097
1208	1.2010e+02	-4.0427	-11.164699	0.000831	8.310755	1.407880	-0.000166
1209	1.2020e+02	-4.0636	-11.261590	0.000486	4.864832	0.824125	-0.000097
1210	1.2030e+02	-4.0834	-11.350407	0.000446	4.459429	0.755448	-0.000089
1211	1.2039e+02	-4.1035	-11.491707	0.000709	7.094547	1.201849	-0.000142
1212	1.2049e+02	-4.1234	-11.584561	0.000466	4.662131	0.789786	-0.000093
1213	1.2059e+02	-4.1425	-11.717786	0.000669	6.689144	1.133172	-0.000134
1214	1.2069e+02	-4.1620	-11.826789	0.000547	5.472936	0.927140	-0.000110
1215	1.2079e+02	-4.1827	-11.947903	0.000608	6.081040	1.030156	-0.000122
1216	1.2089e+02	-4.2027	-12.040757	0.000466	4.662131	0.789786	-0.000093
1217	1.2099e+02	-4.2217	-12.161871	0.000608	6.081040	1.030156	-0.000122
1218	1.2109e+02	-4.2424	-12.327394	0.000831	8.310755	1.407880	-0.000166
1219	1.2119e+02	-4.2632	-12.396025	0.000345	3.445923	0.583755	-0.000069
1220	1.2129e+02	-4.2824	-12.488879	0.000466	4.662131	0.789786	-0.000093
1221	1.2139e+02	-4.3031	-12.622105	0.000669	6.689144	1.133172	-0.000134
1222	1.2149e+02	-4.3223	-12.743219	0.000608	6.081040	1.030156	-0.000122
1223	1.2159e+02	-4.3420	-12.888556	0.000730	7.297248	1.236187	-0.000146
1224	1.2169e+02	-4.3628	-12.985447	0.000486	4.864832	0.824125	-0.000097
1225	1.2179e+02	-4.3811	-13.118673	0.000669	6.689144	1.133172	-0.000134
1226	1.2189e+02	-4.4016	-13.219601	0.000507	5.067533	0.858463	-0.000101
1227	1.2199e+02	-4.4217	-13.308418	0.000446	4.459429	0.755448	-0.000089
1228	1.2209e+02	-4.4421	-13.457792	0.000750	7.499949	1.270526	-0.000150
1229	1.2219e+02	-4.4614	-13.562758	0.000527	5.270235	0.892802	-0.000105
1230	1.2229e+02	-4.4812	-13.671760	0.000547	5.472936	0.927140	-0.000110
1231	1.2239e+02	-4.5012	-13.788837	0.000588	5.878339	0.995818	-0.000118
1232	1.2248e+02	-4.5217	-13.922063	0.000669	6.689144	1.133172	-0.000134
1233	1.2258e+02	-4.5416	-14.002805	0.000405	4.054027	0.686771	-0.000081
1234	1.2268e+02	-4.5621	-14.107771	0.000527	5.270235	0.892802	-0.000105
1235	1.2278e+02	-4.5825	-14.257145	0.000750	7.499949	1.270526	-0.000150
1236	1.2288e+02	-4.6008	-14.341925	0.000426	4.256728	0.721109	-0.000085
1237	1.2298e+02	-4.6207	-14.487262	0.000730	7.297248	1.236187	-0.000146
1238	1.2308e+02	-4.6404	-14.600301	0.000568	5.675637	0.961479	-0.000114
1239	1.2318e+02	-4.6616	-14.701230	0.000507	5.067533	0.858463	-0.000101
1240	1.2328e+02	-4.6809	-14.810232	0.000547	5.472936	0.927140	-0.000110
1241	1.2338e+02	-4.6994	-14.903087	0.000466	4.662131	0.789786	-0.000093
1242	1.2348e+02	-4.7202	-15.040349	0.000689	6.891845	1.167510	-0.000138
1243	1.2358e+02	-4.7409	-15.165500	0.000628	6.283741	1.064495	-0.000126
1244	1.2368e+02	-4.7600	-15.262392	0.000486	4.864832	0.824125	-0.000097
1245	1.2378e+02	-4.7808	-15.359283	0.000486	4.864832	0.824125	-0.000097
1246	1.2388e+02	-4.8007	-15.496546	0.000689	6.891845	1.167510	-0.000138
1247	1.2398e+02	-4.8199	-15.581325	0.000426	4.256728	0.721109	-0.000085
1248	1.2408e+02	-4.8406	-15.710514	0.000649	6.486443	1.098833	-0.000130
1249	1.2418e+02	-4.8606	-15.827591	0.000588	5.878339	0.995818	-0.000118
1250	1.2428e+02	-4.8803	-15.916408	0.000446	4.459429	0.755448	-0.000089
1251	1.2438e+02	-4.8999	-15.985039	0.000345	3.445923	0.583755	-0.000069
1252	1.2447e+02	-4.9197	-16.146524	0.000811	8.108053	1.373541	-0.000162
1253	1.2457e+02	-4.9396	-16.235341	0.000446	4.459429	0.755448	-0.000089
1254	1.2467e+02	-4.9600	-16.368567	0.000669	6.689144	1.133172	-0.000134
1255	1.2477e+02	-4.9799	-16.473532	0.000527	5.270235	0.892802	-0.000105
1256	1.2487e+02	-4.9997	-16.602721	0.000649	6.486443	1.098833	-0.000130
1257	1.2497e+02	-5.0198	-16.707686	0.000527	5.270235	0.892802	-0.000105
1258	1.2507e+02	-5.0395	-16.812652	0.000527	5.270235	0.892802	-0.000105
1259	1.2517e+02	-5.0580	-16.945877	0.000669	6.689144	1.133172	-0.000134
1260	1.2527e+02	-5.0787	-17.066991	0.000608	6.081040	1.030156	-0.000122
1261	1.2537e+02	-5.0989	-17.171957	0.000527	5.270235	0.892802	-0.000105
1262	1.2547e+02	-5.1190	-17.284997	0.000568	5.675637	0.961479	-0.000114
1263	1.2557e+02	-5.1394	-17.393999	0.000547	5.472936	0.927140	-0.000110
1264	1.2567e+02	-5.1590	-17.543373	0.000750	7.499949	1.270526	-0.000150
1265	1.2577e+02	-5.1785	-17.660450	0.000588	5.878339	0.995818	-0.000118
1266	1.2587e+02	-5.1990	-17.773490	0.000568	5.675637	0.961479	-0.000114
1267	1.2597e+02	-5.2185	-17.890567	0.000588	5.878339	0.995818	-0.000118
1268	1.2607e+02	-5.2396	-17.967273	0.000385	3.851325	0.652432	-0.000077
1269	1.2617e+02	-5.2576	-18.084350	0.000588	5.878339	0.995818	-0.000118
1270	1.2627e+02	-5.2776	-18.197389	0.000568	5.675637	0.961479	-0.000114
1271	1.2636e+02	-5.2982	-18.322541	0.000628	6.283741	1.064495	-0.000126
1272	1.2646e+02	-5.3177	-18.427506	0.000527	5.270235	0.892802	-0.000105
1273	1.2656e+02	-5.3381	-18.552657	0.000628	6.283741	1.064495	-0.000126
1274	1.2666e+02	-5.3577	-18.681846	0.000649	6.486443	1.098833	-0.000130
1275	1.2676e+02	-5.3780	-18.802960	0.000608	6.081040	1.030156	-0.000122
1276	1.2686e+02	-5.3976	-18.911962	0.000547	5.472936	0.927140	-0.000110
1277	1.2696e+02	-5.4187	-18.992705	0.000405	4.054027	0.686771	-0.000081
1278	1.2706e+02	-5.4381	-19.097671	0.000527	5.270235	0.892802	-0.000105
1279	1.2716e+02	-5.4573	-19.210710	0.000568	5.675637	0.961479	-0.000114
1280	1.2726e+02	-5.4778	-19.323750	0.000568	5.675637	0.961479	-0.000114
1281	1.2736e+02	-5.4973	-19.448901	0.000628	6.283741	1.064495	-0.000126
1282	1.2746e+02	-5.5174	-19.545793	0.000486	4.864832	0.824125	-0.000097
1283	1.2756e+02	-5.5377	-19.679018	0.000669	6.689144	1.133172	-0.000134
1284	1.2766e+02	-5.5566	-19.743612	0.000324	3.243221	0.549417	-0.000065
1285	1.2776e+02	-5.5775	-19.880875	0.000689	6.891845	1.167510	-0.000138
1286	1.2786e+02	-5.5976	-20.026212	0.000730	7.297248	1.236187	-0.000146
1287	1.2796e+02	-5.6180	-20.143289	0.000588	5.878339	0.995818	-0.000118
1288	1.2806e+02	-5.6372	-20.236143	0.000466	4.662131	0.789786	-0.000093
1289	1.2816e+02	-5.6564	-20.328997	0.000466	4.662131	0.789786	-0.000093
1290	1.2826e+02	-5.6770	-20.446074	0.000588	5.878339	0.995818	-0.000118
1291	1.2835e+02	-5.6966	-20.591411	0.000730	7.297248	1.236187	-0.000146
1292	1.2845e+02	-5.7176	-20.696376	0.000527	5.270235	0.892802	-0.000105
1293	1.2855e+02	-5.7370	-20.813453	0.000588	5.878339	0.995818	-0.000118
1294	1.2865e+02	-5.7555	-20.930530	0.000588	5.878339	0.995818	-0.000118
1295	1.2875e+02	-5.7776	-21.023384	0.000466	4.662131	0.789786	-0.000093
1296	1.2885e+02	-5.7956	-21.124313	0.000507	5.067533	0.858463	-0.000101
1297	1.2895e+02	-5.8173	-21.237353	0.000568	5.675637	0.961479	-0.000114
1298	1.2905e+02	-5.8362	-21.366541	0.000649	6.486443	1.098833	-0.000130
1299	1.2915e+02	-5.8563	-21.487655	0.000608	6.081040	1.030156	-0.000122
1300	1.2925e+02	-5.8762	-21.608769	0.000608	6.081040	1.030156	-0.000122
1301	1.2935e+02	-5.8958	-21.741995	0.000669	6.689144	1.133172	-0.000134
1302	1.2945e+02	-5.9167	-21.830812	0.000446	4.459429	0.755448	-0.000089
1303	1.2955e+02	-5.9360	-21.964037	0.000669	6.689144	1.133172	-0.000134
1304	1.2965e+02	-5.9564	-22.052854	0.000446	4.459429	0.755448	-0.000089
1305	1.2975e+02	-5.9760	-22.206265	0.000770	7.702651	1.304864	-0.000154
1306	1.2985e+02	-5.9956	-22.343528	0.000689	6.891845	1.167510	-0.000138
1307	1.2995e+02	-6.0162	-22.440419	0.000486	4.864832	0.824125	-0.000097
1308	1.3005e+02	-6.0349	-22.577682	0.000689	6.891845	1.167510	-0.000138
1309	1.3015e+02	-6.0556	-22.702833	0.000628	6.283741	1.064495	-0.000126
1310	1.3025e+02	-6.0751	-22.751278	0.000243	2.432416	0.412062	-0.000049
1311	1.3034e+02	-6.0960	-22.949098	0.000993	9.932365	1.682588	-0.000199
1312	1.3044e+02	-6.1159	-23.041952	0.000466	4.662131	0.789786	-0.000093
1313	1.3054e+02	-6.1346	-23.122695	0.000405	4.054027	0.686771	-0.000081
1314	1.3064e+02	-6.1548	-23.308403	0.000932	9.324261	1.579573	-0.000187
1315	1.3074e+02	-6.1748	-23.393183	0.000426	4.256728	0.721109	-0.000085
1316	1.3084e+02	-6.1951	-23.538520	0.000730	7.297248	1.236187	-0.000146
1317	1.3094e+02	-6.2148	-23.643485	0.000527	5.270235	0.892802	-0.000105
1318	1.3104e+02	-6.2350	-23.748451	0.000527	5.270235	0.892802	-0.000105
1319	1.3114e+02	-6.2548	-23.885714	0.000689	6.891845	1.167510	-0.000138
1320	1.3124e+02	-6.2747	-23.990679	0.000527	5.270235	0.892802	-0.000105
1321	1.3134e+02	-6.2952	-24.152165	0.000811	8.108053	1.373541	-0.000162
1322	1.3144e+02	-6.3147	-24.240982	0.000446	4.459429	0.755448	-0.000089
1323	1.3154e+02	-6.3342	-24.370170	0.000649	6.486443	1.098833	-0.000130
1324	1.3164e+02	-6.3531	-24.551841	0.000912	9.121560	1.545234	-0.000183
1325	1.3174e+02	-6.3739	-24.608361	0.000284	2.837819	0.480739	-0.000057
1326	1.3184e+02	-6.3939	-24.753698	0.000730	7.297248	1.236187	-0.000146
1327	1.3194e+02	-6.4136	-24.866738	0.000568	5.675637	0.961479	-0.000114
1328	1.3204e+02	-6.4349	-25.020149	0.000770	7.702651	1.304864	-0.000154
1329	1.3214e+02	-6.4539	-25.121077	0.000507	5.067533	0.858463	-0.000101
1330	1.3224e+02	-6.4745	-25.282563	0.000811	8.108053	1.373541	-0.000162
1331	1.3234e+02	-6.4937	-25.411751	0.000649	6.486443	1.098833	-0.000130
1332	1.3243e+02	-6.5143	-25.500568	0.000446	4.459429	0.755448	-0.000089
1333	1.3253e+02	-6.5338	-25.637831	0.000689	6.891845	1.167510	-0.000138
1334	1.3263e+02	-6.5529	-25.775093	0.000689	6.891845	1.167510	-0.000138
1335	1.3273e+02	-6.5730	-25.928504	0.000770	7.702651	1.304864	-0.000154
1336	1.3283e+02	-6.5929	-26.077878	0.000750	7.499949	1.270526	-0.000150
1337	1.3293e+02	-6.6135	-26.178807	0.000507	5.067533	0.858463	-0.000101
1338	1.3303e+02	-6.6336	-26.287809	0.000547	5.472936	0.927140	-0.000110
1339	1.3313e+02	-6.6531	-26.457369	0.000851	8.513456	1.442218	-0.000170
1340	1.3323e+02	-6.6721	-26.598669	0.000709	7.094547	1.201849	-0.000142
1341	1.3333e+02	-6.6937	-26.703634	0.000527	5.270235	0.892802	-0.000105
1342	1.3343e+02	-6.7130	-26.836860	0.000669	6.689144	1.133172	-0.000134
1343	1.3353e+02	-6.7325	-26.957974	0.000608	6.081040	1.030156	-0.000122
1344	1.3363e+02	-6.7538	-27.083125	0.000628	6.283741	1.064495	-0.000126
1345	1.3373e+02	-6.7722	-27.208276	0.000628	6.283741	1.064495	-0.000126
1346	1.3383e+02	-6.7926	-27.333428	0.000628	6.283741	1.064495	-0.000126
1347	1.3393e+02	-6.8124	-27.494913	0.000811	8.108053	1.373541	-0.000162
1348	1.3403e+02	-6.8323	-27.620064	0.000628	6.283741	1.064495	-0.000126
1349	1.3413e+02	-6.8515	-27.720993	0.000507	5.067533	0.858463	-0.000101
1350	1.3423e+02	-6.8721	-27.906701	0.000932	9.324261	1.579573	-0.000187
1351	1.3432e+02	-6.8924	-28.019741	0.000568	5.675637	0.961479	-0.000114
1352	1.3442e+02	-6.9129	-28.144892	0.000628	6.283741	1.064495	-0.000126
1353	1.3452e+02	-6.9312	-28.282154	0.000689	6.891845	1.167510	-0.000138
1354	1.3462e+02	-6.9527	-28.431528	0.000750	7.499949	1.270526	-0.000150
1355	1.3472e+02	-6.9711	-28.544568	0.000568	5.675637	0.961479	-0.000114
1356	1.3482e+02	-6.9919	-28.702017	0.000791	7.905352	1.339203	-0.000158
1357	1.3492e+02	-7.0114	-28.811019	0.000547	5.472936	0.927140	-0.000110
1358	1.3502e+02	-7.0309	-28.964430	0.000770	7.702651	1.304864	-0.000154
1359	1.3512e+02	-7.0517	-29.101693	0.000689	6.891845	1.167510	-0.000138
1360	1.3522e+02	-7.0718	-29.238956	0.000689	6.891845	1.167510	-0.000138
1361	1.3532e+02	-7.0908	-29.380255	0.000709	7.094547	1.201849	-0.000142
1362	1.3542e+02	-7.1112	-29.529629	0.000750	7.499949	1.270526	-0.000150
1363	1.3552e+02	-7.1301	-29.687078	0.000791	7.905352	1.339203	-0.000158
1364	1.3562e+02	-7.1512	-29.800117	0.000568	5.675637	0.961479	-0.000114
1365	1.3572e+02	-7.1719	-29.961603	0.000811	8.108053	1.373541	-0.000162
1366	1.3582e+02	-7.1919	-30.070606	0.000547	5.472936	0.927140	-0.000110
1367	1.3592e+02	-7.2114	-30.248240	0.000892	8.918859	1.510896	-0.000179
1368	1.3602e+02	-7.2311	-30.397614	0.000750	7.499949	1.270526	-0.000150
1369	1.3612e+02	-7.2509	-30.559099	0.000811	8.108053	1.373541	-0.000162
1370	1.3622e+02	-7.2707	-30.704436	0.000730	7.297248	1.236187	-0.000146
1371	1.3631e+02	-7.2914	-30.793253	0.000446	4.459429	0.755448	-0.000089
1372	1.3641e+02	-7.3101	-30.966850	0.000872	8.716157	1.476557	-0.000174
1373	1.3651e+02	-7.3309	-31.132372	0.000831	8.310755	1.407880	-0.000166
1374	1.3661e+02	-7.3506	-31.297895	0.000831	8.310755	1.407880	-0.000166
1375	1.3671e+02	-7.3703	-31.414972	0.000588	5.878339	0.995818	-0.000118
1376	1.3681e+02	-7.3897	-31.588569	0.000872	8.716157	1.476557	-0.000174
1377	1.3691e+02	-7.4109	-31.746017	0.000791	7.905352	1.339203	-0.000158
1378	1.3701e+02	-7.4303	-31.907502	0.000811	8.108053	1.373541	-0.000162
1379	1.3711e+02	-7.4496	-32.036691	0.000649	6.486443	1.098833	-0.000130
1380	1.3721e+02	-7.4702	-32.206250	0.000851	8.513456	1.442218	-0.000170
1381	1.3731e+02	-7.4897	-32.311216	0.000527	5.270235	0.892802	-0.000105
1382	1.3741e+02	-7.5098	-32.492887	0.000912	9.121560	1.545234	-0.000183
1383	1.3751e+02	-7.5288	-32.694744	0.001014	10.135066	1.716927	-0.000203
1384	1.3761e+02	-7.5502	-32.787598	0.000466	4.662131	0.789786	-0.000093
1385	1.3771e+02	-7.5690	-32.965232	0.000892	8.918859	1.510896	-0.000179
1386	1.3781e+02	-7.5888	-33.094420	0.000649	6.486443	1.098833	-0.000130
1387	1.3791e+02	-7.6099	-33.255906	0.000811	8.108053	1.373541	-0.000162
1388	1.3801e+02	-7.6285	-33.417391	0.000811	8.108053	1.373541	-0.000162
1389	1.3811e+02	-7.6488	-33.554654	0.000689	6.891845	1.167510	-0.000138
1390	1.3821e+02	-7.6688	-33.699991	0.000730	7.297248	1.236187	-0.000146
1391	1.3831e+02	-7.6889	-33.837253	0.000689	6.891845	1.167510	-0.000138
1392	1.3840e+02	-7.7090	-34.047184	0.001054	10.540469	1.785604	-0.000211
1393	1.3850e+02	-7.7277	-34.180410	0.000669	6.689144	1.133172	-0.000134
1394	1.3860e+02	-7.7485	-34.366118	0.000932	9.324261	1.579573	-0.000187
1395	1.3870e+02	-7.7682	-34.511455	0.000730	7.297248	1.236187	-0.000146
1396	1.3880e+02	-7.7884	-34.656792	0.000730	7.297248	1.236187	-0.000146
1397	1.3890e+02	-7.8082	-34.781943	0.000628	6.283741	1.064495	-0.000126
1398	1.3900e+02	-7.8284	-34.991874	0.001054	10.540469	1.785604	-0.000211
1399	1.3910e+02	-7.8479	-35.161434	0.000851	8.513456	1.442218	-0.000170
1400	1.3920e+02	-7.8684	-35.302733	0.000709	7.094547	1.201849	-0.000142
1401	1.3930e+02	-7.8867	-35.476330	0.000872	8.716157	1.476557	-0.000174
1402	1.3940e+02	-7.9080	-35.637816	0.000811	8.108053	1.373541	-0.000162
1403	1.3950e+02	-7.9271	-35.771041	0.000669	6.689144	1.133172	-0.000134
1404	1.3960e+02	-7.9469	-35.985009	0.001074	10.743170	1.819942	-0.000215
1405	1.3970e+02	-7.9680	-36.106123	0.000608	6.081040	1.030156	-0.000122
1406	1.3980e+02	-7.9878	-36.283757	0.000892	8.918859	1.510896	-0.000179
1407	1.3990e+02	-8.0074	-36.445243	0.000811	8.108053	1.373541	-0.000162
1408	1.4000e+02	-8.0269	-36.606728	0.000811	8.108053	1.373541	-0.000162
1409	1.4010e+02	-8.0469	-36.796474	0.000953	9.526962	1.613911	-0.000191
1410	1.4020e+02	-8.0667	-36.986219	0.000953	9.526962	1.613911	-0.000191
1411	1.4029e+02	-8.0865	-37.119445	0.000669	6.689144	1.133172	-0.000134
1412	1.4039e+02	-8.1071	-37.284967	0.000831	8.310755	1.407880	-0.000166
1413	1.4049e+02	-8.1271	-37.494898	0.001054	10.540469	1.785604	-0.000211
1414	1.4059e+02	-8.1474	-37.640235	0.000730	7.297248	1.236187	-0.000146
1415	1.4069e+02	-8.1673	-37.805758	0.000831	8.310755	1.407880	-0.000166
1416	1.4079e+02	-8.1871	-37.951095	0.000730	7.297248	1.236187	-0.000146
1417	1.4089e+02	-8.2071	-38.136803	0.000932	9.324261	1.579573	-0.000187
1418	1.4099e+02	-8.2266	-38.346734	0.001054	10.540469	1.785604	-0.000211
1419	1.4109e+02	-8.2472	-38.524368	0.000892	8.918859	1.510896	-0.000179
1420	1.4119e+02	-8.2664	-38.693927	0.000851	8.513456	1.442218	-0.000170
1421	1.4129e+02	-8.2867	-38.863487	0.000851	8.513456	1.442218	-0.000170
1422	1.4139e+02	-8.3067	-39.024973	0.000811	8.108053	1.373541	-0.000162
1423	1.4149e+02	-8.3258	-39.226829	0.001014	10.135066	1.716927	-0.000203
1424	1.4159e+02	-8.3459	-39.400426	0.000872	8.716157	1.476557	-0.000174
1425	1.4169e+02	-8.3655	-39.565949	0.000831	8.310755	1.407880	-0.000166
1426	1.4179e+02	-8.3858	-39.775880	0.001054	10.540469	1.785604	-0.000211
1427	1.4189e+02	-8.4056	-39.941402	0.000831	8.310755	1.407880	-0.000166
1428	1.4199e+02	-8.4253	-40.155371	0.001074	10.743170	1.819942	-0.000215
1429	1.4209e+02	-8.4449	-40.341079	0.000932	9.324261	1.579573	-0.000187
1430	1.4219e+02	-8.4648	-40.494490	0.000770	7.702651	1.304864	-0.000154
1431	1.4228e+02	-8.4853	-40.696347	0.001014	10.135066	1.716927	-0.000203
1432	1.4238e+02	-8.5056	-40.853795	0.000791	7.905352	1.339203	-0.000158
1433	1.4248e+02	-8.5259	-41.067763	0.001074	10.743170	1.819942	-0.000215
1434	1.4258e+02	-8.5452	-41.265583	0.000993	9.932365	1.682588	-0.000199
1435	1.4268e+02	-8.5645	-41.427068	0.000811	8.108053	1.373541	-0.000162
1436	1.4278e+02	-8.5838	-41.645074	0.001095	10.945872	1.854281	-0.000219
1437	1.4288e+02	-8.6053	-41.798485	0.000770	7.702651	1.304864	-0.000154
1438	1.4298e+02	-8.6253	-42.008416	0.001054	10.540469	1.785604	-0.000211
1439	1.4308e+02	-8.6443	-42.222384	0.001074	10.743170	1.819942	-0.000215
1440	1.4318e+02	-8.6633	-42.428278	0.001034	10.337768	1.751265	-0.000207
1441	1.4328e+02	-8.6847	-42.581689	0.000770	7.702651	1.304864	-0.000154
1442	1.4338e+02	-8.7044	-42.787583	0.001034	10.337768	1.751265	-0.000207
1443	1.4348e+02	-8.7247	-43.001551	0.001074	10.743170	1.819942	-0.000215
1444	1.4358e+02	-8.7436	-43.207445	0.001034	10.337768	1.751265	-0.000207
1445	1.4368e+02	-8.7650	-43.397191	0.000953	9.526962	1.613911	-0.000191
1446	1.4378e+02	-8.7842	-43.595010	0.000993	9.932365	1.682588	-0.000199
1447	1.4388e+02	-8.8040	-43.780719	0.000932	9.324261	1.579573	-0.000187
1448	1.4398e+02	-8.8248	-44.014872	0.001176	11.756677	1.991635	-0.000235
1449	1.4408e+02	-8.8438	-44.152135	0.000689	6.891845	1.167510	-0.000138
1450	1.4418e+02	-8.8635	-44.382252	0.001155	11.553976	1.957296	-0.000231
1451	1.4428e+02	-8.8837	-44.580071	0.000993	9.932365	1.682588	-0.000199
1452	1.4437e+02	-8.9044	-44.810188	0.001155	11.553976	1.957296	-0.000231
1453	1.4447e+02	-8.9242	-44.983785	0.000872	8.716157	1.476557	-0.000174
1454	1.4457e+02	-8.9429	-45.221976	0.001196	11.959378	2.025974	-0.000239
1455	1.4467e+02	-8.9630	-45.411721	0.000953	9.526962	1.613911	-0.000191
1456	1.4477e+02	-8.9835	-45.601467	0.000953	9.526962	1.613911	-0.000191
1457	1.4487e+02	-9.0028	-45.811398	0.001054	10.540469	1.785604	-0.000211
1458	1.4497e+02	-9.0231	-46.017292	0.001034	10.337768	1.751265	-0.000207
1459	1.4507e+02	-9.0432	-46.227223	0.001054	10.540469	1.785604	-0.000211
1460	1.4517e+02	-9.0631	-46.429080	0.001014	10.135066	1.716927	-0.000203
1461	1.4527e+02	-9.0825	-46.639011	0.001054	10.540469	1.785604	-0.000211
1462	1.4537e+02	-9.1037	-46.840867	0.001014	10.135066	1.716927	-0.000203
1463	1.4547e+02	-9.1231	-47.083096	0.001216	12.162080	2.060312	-0.000243
1464	1.4557e+02	-9.1428	-47.276878	0.000973	9.729664	1.648250	-0.000195
1465	1.4567e+02	-9.1624	-47.523143	0.001236	12.364781	2.094651	-0.000248
1466	1.4577e+02	-9.1818	-47.753260	0.001155	11.553976	1.957296	-0.000231
1467	1.4587e+02	-9.2029	-47.955117	0.001014	10.135066	1.716927	-0.000203
1468	1.4597e+02	-9.2232	-48.197345	0.001216	12.162080	2.060312	-0.000243
1469	1.4607e+02	-9.2420	-48.395165	0.000993	9.932365	1.682588	-0.000199
1470	1.4617e+02	-9.2624	-48.661616	0.001338	13.378288	2.266343	-0.000268
1471	1.4626e+02	-9.2821	-48.855398	0.000973	9.729664	1.648250	-0.000195
1472	1.4636e+02	-9.3016	-49.093589	0.001196	11.959378	2.025974	-0.000239
1473	1.4646e+02	-9.3209	-49.327743	0.001176	11.756677	1.991635	-0.000235
1474	1.4656e+02	-9.3417	-49.521526	0.000973	9.729664	1.648250	-0.000195
1475	1.4666e+02	-9.3625	-49.743568	0.001115	11.148573	1.888619	-0.000223
1476	1.4676e+02	-9.3823	-49.977722	0.001176	11.756677	1.991635	-0.000235
1477	1.4686e+02	-9.4025	-50.244173	0.001338	13.378288	2.266343	-0.000268
1478	1.4696e+02	-9.4220	-50.478327	0.001176	11.756677	1.991635	-0.000235
1479	1.4706e+02	-9.4429	-50.732666	0.001277	12.770184	2.163328	-0.000256
1480	1.4716e+02	-9.4615	-50.958746	0.001135	11.351274	1.922958	-0.000227
1481	1.4726e+02	-9.4814	-51.200974	0.001216	12.162080	2.060312	-0.000243
1482	1.4736e+02	-9.5014	-51.463388	0.001318	13.175586	2.232005	-0.000264
1483	1.4746e+02	-9.5210	-51.673319	0.001054	10.540469	1.785604	-0.000211
1484	1.4756e+02	-9.5413	-51.919584	0.001236	12.364781	2.094651	-0.000248
1485	1.4766e+02	-9.5601	-52.157775	0.001196	11.959378	2.025974	-0.000239
1486	1.4776e+02	-9.5811	-52.367706	0.001054	10.540469	1.785604	-0.000211
1487	1.4786e+02	-9.6005	-52.654343	0.001439	14.391794	2.438036	-0.000288
1488	1.4796e+02	-9.6211	-52.916757	0.001318	13.175586	2.232005	-0.000264
1489	1.4806e+02	-9.6399	-53.167059	0.001257	12.567482	2.128989	-0.000252
1490	1.4816e+02	-9.6602	-53.433510	0.001338	13.378288	2.266343	-0.000268
1491	1.4825e+02	-9.6801	-53.671701	0.001196	11.959378	2.025974	-0.000239
1492	1.4835e+02	-9.7008	-53.930078	0.001297	12.972885	2.197666	-0.000260
1493	1.4845e+02	-9.7198	-54.148083	0.001095	10.945872	1.854281	-0.000219
1494	1.4855e+02	-9.7407	-54.434720	0.001439	14.391794	2.438036	-0.000288
1495	1.4865e+02	-9.7606	-54.705208	0.001358	13.580989	2.300682	-0.000272
1496	1.4875e+02	-9.7803	-54.931287	0.001135	11.351274	1.922958	-0.000227
1497	1.4885e+02	-9.8007	-55.181590	0.001257	12.567482	2.128989	-0.000252
1498	1.4895e+02	-9.8190	-55.492449	0.001561	15.608002	2.644067	-0.000312
1499	1.4905e+02	-9.8395	-55.730640	0.001196	11.959378	2.025974	-0.000239
1500	1.4915e+02	-9.8606	-56.001128	0.001358	13.580989	2.300682	-0.000272
1501	1.4925e+02	-9.8801	-56.303914	0.001520	15.202600	2.575390	-0.000304
1502	1.4935e+02	-9.8998	-56.586513	0.001419	14.189093	2.403697	-0.000284
1503	1.4945e+02	-9.9193	-56.844890	0.001297	12.972885	2.197666	-0.000260
1504	1.4955e+02	-9.9395	-57.119415	0.001378	13.783690	2.335020	-0.000276
1505	1.4965e+02	-9.9604	-57.381829	0.001318	13.175586	2.232005	-0.000264
1506	1.4975e+02	-9.9796	-57.692688	0.001561	15.608002	2.644067	-0.000312
1507	1.4985e+02	-9.9988	-57.995473	0.001520	15.202600	2.575390	-0.000304
1508	1.4995e+02	-9.9793	-58.068142	-0.000365	-3.648624	-0.618094	-0.000073
1509	1.5005e+02	-9.9600	-58.201367	-0.000669	-6.689144	-1.133172	-0.000134
1510	1.5015e+02	-9.9404	-58.346704	-0.000730	-7.297248	-1.236187	-0.000146
1511	1.5025e+02	-9.9185	-58.443596	-0.000486	-4.864832	-0.824125	-0.000097
1512	1.5034e+02	-9.8990	-58.564710	-0.000608	-6.081040	-1.030156	-0.000122
1513	1.5044e+02	-9.8788	-58.669675	-0.000527	-5.270235	-0.892802	-0.000105
1514	1.5054e+02	-9.8599	-58.762529	-0.000466	-4.662131	-0.789786	-0.000093
1515	1.5064e+02	-9.8397	-58.806938	-0.000223	-2.229715	-0.377724	-0.000045
1516	1.5074e+02	-9.8198	-58.903829	-0.000486	-4.864832	-0.824125	-0.000097
1517	1.5084e+02	-9.7997	-58.980535	-0.000385	-3.851325	-0.652432	-0.000077
1518	1.5094e+02	-9.7800	-59.016869	-0.000182	-1.824312	-0.309047	-0.000037
1519	1.5104e+02	-9.7602	-59.117797	-0.000507	-5.067533	-0.858463	-0.000101
1520	1.5114e+02	-9.7407	-59.146057	-0.000142	-1.418909	-0.240370	-0.000028
1521	1.5124e+02	-9.7205	-59.238911	-0.000466	-4.662131	-0.789786	-0.000093
1522	1.5134e+02	-9.7005	-59.259097	-0.000101	-1.013507	-0.171693	-0.000020
1523	1.5144e+02	-9.6810	-59.311580	-0.000264	-2.635117	-0.446401	-0.000053
1524	1.5154e+02	-9.6620	-59.364062	-0.000264	-2.635117	-0.446401	-0.000053
1525	1.5164e+02	-9.6405	-59.404434	-0.000203	-2.027013	-0.343385	-0.000041
1526	1.5174e+02	-9.6208	-59.456917	-0.000264	-2.635117	-0.446401	-0.000053
1527	1.5184e+02	-9.5999	-59.489214	-0.000162	-1.621611	-0.274708	-0.000032
1528	1.5194e+02	-9.5808	-59.513436	-0.000122	-1.216208	-0.206031	-0.000024
1529	1.5204e+02	-9.5602	-59.561882	-0.000243	-2.432416	-0.412062	-0.000049
1530	1.5214e+02	-9.5410	-59.582068	-0.000101	-1.013507	-0.171693	-0.000020
1531	1.5224e+02	-9.5212	-59.634551	-0.000264	-2.635117	-0.446401	-0.000053
1532	1.5233e+02	-9.5015	-59.586105	0.000243	2.432416	0.412062	0.000049
1533	1.5243e+02	-9.4814	-59.646662	-0.000304	-3.040520	-0.515078	-0.000061
1534	1.5253e+02	-9.4616	-59.691070	-0.000223	-2.229715	-0.377724	-0.000045
1535	1.5263e+02	-9.4412	-59.723368	-0.000162	-1.621611	-0.274708	-0.000032
1536	1.5273e+02	-9.4220	-59.699145	0.000122	1.216208	0.206031	0.000024
1537	1.5283e+02	-9.4016	-59.731442	-0.000162	-1.621611	-0.274708	-0.000032
1538	1.5293e+02	-9.3822	-59.723368	0.000041	0.405403	0.068677	0.000008
1539	1.5303e+02	-9.3619	-59.747590	-0.000122	-1.216208	-0.206031	-0.000024
1540	1.5313e+02	-9.3416	-59.779887	-0.000162	-1.621611	-0.274708	-0.000032
1541	1.5323e+02	-9.3268	-59.783925	-0.000020	-0.202701	-0.034339	-0.000004
1542	1.5333e+02	-9.3014	-59.771813	0.000061	0.608104	0.103016	0.000012
1543	1.5343e+02	-9.2818	-59.767776	0.000020	0.202701	0.034339	0.000004
1544	1.5353e+02	-9.2615	-59.804110	-0.000182	-1.824312	-0.309047	-0.000037
1545	1.5363e+02	-9.2426	-59.800073	0.000020	0.202701	0.034339	0.000004
1546	1.5373e+02	-9.2229	-59.783925	0.000081	0.810805	0.137354	0.000016
1547	1.5383e+02	-9.2032	-59.800073	-0.000081	-0.810805	-0.137354	-0.000016
1548	1.5393e+02	-9.1817	-59.755665	0.000223	2.229715	0.377724	0.000045
1549	1.5403e+02	-9.1628	-59.767776	-0.000061	-0.608104	-0.103016	-0.000012
1550	1.5413e+02	-9.1425	-59.775850	-0.000041	-0.405403	-0.068677	-0.000008
1551	1.5422e+02	-9.1228	-59.747590	0.000142	1.418909	0.240370	0.000028
1552	1.5432e+02	-9.1026	-59.723368	0.000122	1.216208	0.206031	0.000024
1553	1.5442e+02	-9.0823	-59.674922	0.000243	2.432416	0.412062	0.000049
1554	1.5452e+02	-9.0637	-59.703182	-0.000142	-1.418909	-0.240370	-0.000028
1555	1.5462e+02	-9.0435	-59.723368	-0.000101	-1.013507	-0.171693	-0.000020
1556	1.5472e+02	-9.0227	-59.699145	0.000122	1.216208	0.206031	0.000024
1557	1.5482e+02	-9.0031	-59.650699	0.000243	2.432416	0.412062	0.000049
1558	1.5492e+02	-8.9839	-59.622439	0.000142	1.418909	0.240370	0.000028
1559	1.5502e+02	-8.9636	-59.614365	0.000041	0.405403	0.068677	0.000008
1560	1.5512e+02	-8.9427	-59.618402	-0.000020	-0.202701	-0.034339	-0.000004
1561	1.5522e+02	-8.9232	-59.590142	0.000142	1.418909	0.240370	0.000028
1562	1.5532e+02	-8.9035	-59.561882	0.000142	1.418909	0.240370	0.000028
1563	1.5542e+02	-8.8829	-59.549771	0.000061	0.608104	0.103016	0.000012
1564	1.5552e+02	-8.8643	-59.493251	0.000284	2.837819	0.480739	0.000057
1565	1.5562e+02	-8.8440	-59.485177	0.000041	0.405403	0.068677	0.000008
1566	1.5572e+02	-8.8245	-59.440768	0.000223	2.229715	0.377724	0.000045
1567	1.5582e+02	-8.8040	-59.448842	-0.000041	-0.405403	-0.068677	-0.000008
1568	1.5592e+02	-8.7840	-59.388285	0.000304	3.040520	0.515078	0.000061
1569	1.5602e+02	-8.7645	-59.343877	0.000223	2.229715	0.377724	0.000045
1570	1.5612e+02	-8.7431	-59.351951	-0.000041	-0.405403	-0.068677	-0.000008
1571	1.5622e+02	-8.7244	-59.339840	0.000061	0.608104	0.103016	0.000012
1572	1.5631e+02	-8.7048	-59.263134	0.000385	3.851325	0.652432	0.000077
1573	1.5641e+02	-8.6839	-59.210651	0.000264	2.635117	0.446401	0.000053
1574	1.5651e+02	-8.6648	-59.202577	0.000041	0.405403	0.068677	0.000008
1575	1.5661e+02	-8.6453	-59.129909	0.000365	3.648624	0.618094	0.000073
1576	1.5671e+02	-8.6240	-59.182391	-0.000264	-2.635117	-0.446401	-0.000053
1577	1.5681e+02	-8.6055	-59.061277	0.000608	6.081040	1.030156	0.000122
1578	1.5691e+02	-8.5846	-59.049166	0.000061	0.608104	0.103016	0.000012
1579	1.5701e+02	-8.5655	-59.008795	0.000203	2.027013	0.343385	0.000041
1580	1.5711e+02	-8.5452	-58.952275	0.000284	2.837819	0.480739	0.000057
1581	1.5721e+02	-8.5249	-58.919978	0.000162	1.621611	0.274708	0.000032
1582	1.5731e+02	-8.5055	-58.871532	0.000243	2.432416	0.412062	0.000049
1583	1.5741e+02	-8.4858	-58.806938	0.000324	3.243221	0.549417	0.000065
1584	1.5751e+02	-8.4647	-58.762529	0.000223	2.229715	0.377724	0.000045
1585	1.5761e+02	-8.4451	-58.750418	0.000061	0.608104	0.103016	0.000012
1586	1.5771e+02	-8.4262	-58.665638	0.000426	4.256728	0.721109	0.000085
1587	1.5781e+02	-8.4064	-58.669675	-0.000020	-0.202701	-0.034339	-0.000004
1588	1.5791e+02	-8.3865	-58.625267	0.000223	2.229715	0.377724	0.000045
1589	1.5801e+02	-8.3655	-58.572784	0.000264	2.635117	0.446401	0.000053
1590	1.5811e+02	-8.3458	-58.508190	0.000324	3.243221	0.549417	0.000065
1591	1.5821e+02	-8.3253	-58.483967	0.000122	1.216208	0.206031	0.000024
1592	1.5830e+02	-8.3067	-58.407261	0.000385	3.851325	0.652432	0.000077
1593	1.5840e+02	-8.2863	-58.374964	0.000162	1.621611	0.274708	0.000032
1594	1.5850e+02	-8.2663	-58.326519	0.000243	2.432416	0.412062	0.000049
1595	1.5860e+02	-8.2466	-58.294221	0.000162	1.621611	0.274708	0.000032
1596	1.5870e+02	-8.2260	-58.257887	0.000182	1.824312	0.309047	0.000037
1597	1.5880e+02	-8.2056	-58.189256	0.000345	3.445923	0.583755	0.000069
1598	1.5890e+02	-8.1863	-58.160996	0.000142	1.418909	0.240370	0.000028
1599	1.5900e+02	-8.1666	-58.060068	0.000507	5.067533	0.858463	0.000101
1600	1.5910e+02	-8.1475	-58.080253	-0.000101	-1.013507	-0.171693	-0.000020
1601	1.5920e+02	-8.1261	-57.991436	0.000446	4.459429	0.755448	0.000089
1602	1.5930e+02	-8.1067	-57.971251	0.000101	1.013507	0.171693	0.000020
1603	1.5940e+02	-8.0859	-57.894545	0.000385	3.851325	0.652432	0.000077
1604	1.5950e+02	-8.0664	-57.842062	0.000264	2.635117	0.446401	0.000053
1605	1.5960e+02	-8.0475	-57.801691	0.000203	2.027013	0.343385	0.000041
1606	1.5970e+02	-8.0273	-57.761320	0.000203	2.027013	0.343385	0.000041
1607	1.5980e+02	-8.0080	-57.684614	0.000385	3.851325	0.652432	0.000077
1608	1.5990e+02	-7.9870	-57.636168	0.000243	2.432416	0.412062	0.000049
1609	1.6000e+02	-7.9666	-57.579648	0.000284	2.837819	0.480739	0.000057
1610	1.6010e+02	-7.9480	-57.502943	0.000385	3.851325	0.652432	0.000077
1611	1.6019e+02	-7.9282	-57.486794	0.000081	0.810805	0.137354	0.000016
1612	1.6029e+02	-7.9074	-57.430274	0.000284	2.837819	0.480739	0.000057
1613	1.6039e+02	-7.8870	-57.309160	0.000608	6.081040	1.030156	0.000122
1614	1.6049e+02	-7.8674	-57.272826	0.000182	1.824312	0.309047	0.000037
1615	1.6059e+02	-7.8482	-57.212269	0.000304	3.040520	0.515078	0.000061
1616	1.6069e+02	-7.8275	-57.196121	0.000081	0.810805	0.137354	0.000016
1617	1.6079e+02	-7.8077	-57.127489	0.000345	3.445923	0.583755	0.000069
1618	1.6089e+02	-7.7892	-57.054821	0.000365	3.648624	0.618094	0.000073
1619	1.6099e+02	-7.7698	-56.986190	0.000345	3.445923	0.583755	0.000069
1620	1.6109e+02	-7.7485	-56.917558	0.000345	3.445923	0.583755	0.000069
1621	1.6119e+02	-7.7295	-56.844890	0.000365	3.648624	0.618094	0.000073
1622	1.6129e+02	-7.7084	-56.792407	0.000264	2.635117	0.446401	0.000053
1623	1.6139e+02	-7.6879	-56.719739	0.000365	3.648624	0.618094	0.000073
1624	1.6149e+02	-7.6685	-56.643033	0.000385	3.851325	0.652432	0.000077
1625	1.6159e+02	-7.6501	-56.574402	0.000345	3.445923	0.583755	0.000069
1626	1.6169e+02	-7.6288	-56.566327	0.000041	0.405403	0.068677	0.000008
1627	1.6179e+02	-7.6093	-56.509807	0.000284	2.837819	0.480739	0.000057
1628	1.6189e+02	-7.5903	-56.396768	0.000568	5.675637	0.961479	0.000114
1629	1.6199e+02	-7.5699	-56.332174	0.000324	3.243221	0.549417	0.000065
1630	1.6209e+02	-7.5497	-56.251431	0.000405	4.054027	0.686771	0.000081
1631	1.6219e+02	-7.5299	-56.182799	0.000345	3.445923	0.583755	0.000069
1632	1.6228e+02	-7.5100	-56.154540	0.000142	1.418909	0.240370	0.000028
1633	1.6238e+02	-7.4902	-56.041500	0.000568	5.675637	0.961479	0.000114
1634	1.6248e+02	-7.4696	-55.993054	0.000243	2.432416	0.412062	0.000049
1635	1.6258e+02	-7.4493	-55.964794	0.000142	1.418909	0.240370	0.000028
1636	1.6268e+02	-7.4298	-55.863866	0.000507	5.067533	0.858463	0.000101
1637	1.6278e+02	-7.4098	-55.807346	0.000284	2.837819	0.480739	0.000057
1638	1.6288e+02	-7.3898	-55.746789	0.000304	3.040520	0.515078	0.000061
1639	1.6298e+02	-7.3695	-55.657972	0.000446	4.459429	0.755448	0.000089
1640	1.6308e+02	-7.3511	-55.625675	0.000162	1.621611	0.274708	0.000032
1641	1.6318e+02	-7.3303	-55.524746	0.000507	5.067533	0.858463	0.000101
1642	1.6328e+02	-7.3106	-55.464189	0.000304	3.040520	0.515078	0.000061
1643	1.6338e+02	-7.2906	-55.427855	0.000182	1.824312	0.309047	0.000037
1644	1.6348e+02	-7.2702	-55.294630	0.000669	6.689144	1.133172	0.000134
1645	1.6358e+02	-7.2505	-55.274444	0.000101	1.013507	0.171693	0.000020
1646	1.6368e+02	-7.2311	-55.165441	0.000547	5.472936	0.927140	0.000110
1647	1.6378e+02	-7.2107	-55.137181	0.000142	1.418909	0.240370	0.000028
1648	1.6388e+02	-7.1923	-55.088736	0.000243	2.432416	0.412062	0.000049
1649	1.6398e+02	-7.1712	-54.991844	0.000486	4.864832	0.824125	0.000097
1650	1.6408e+02	-7.1516	-54.935325	0.000284	2.837819	0.480739	0.000057
1651	1.6418e+02	-7.1315	-54.858619	0.000385	3.851325	0.652432	0.000077
1652	1.6427e+02	-7.1118	-54.773839	0.000426	4.256728	0.721109	0.000085
1653	1.6437e+02	-7.0911	-54.693096	0.000405	4.054027	0.686771	0.000081
1654	1.6447e+02	-7.0715	-54.652725	0.000203	2.027013	0.343385	0.000041
1655	1.6457e+02	-7.0520	-54.551797	0.000507	5.067533	0.858463	0.000101
1656	1.6467e+02	-7.0323	-54.467017	0.000426	4.256728	0.721109	0.000085
1657	1.6477e+02	-7.0114	-54.382237	0.000426	4.256728	0.721109	0.000085
1658	1.6487e+02	-6.9919	-54.386274	-0.000020	-0.202701	-0.034339	-0.000004
1659	1.6497e+02	-6.9721	-54.317643	0.000345	3.445923	0.583755	0.000069
1660	1.6507e+02	-6.9513	-54.232863	0.000426	4.256728	0.721109	0.000085
1661	1.6517e+02	-6.9315	-54.135972	0.000486	4.864832	0.824125	0.000097
1662	1.6527e+02	-6.9119	-54.091563	0.000223	2.229715	0.377724	0.000045
1663	1.6537e+02	-6.8927	-53.978523	0.000568	5.675637	0.961479	0.000114
1664	1.6547e+02	-6.8729	-53.913929	0.000324	3.243221	0.549417	0.000065
1665	1.6557e+02	-6.8520	-53.800889	0.000568	5.675637	0.961479	0.000114
1666	1.6567e+02	-6.8329	-53.740332	0.000304	3.040520	0.515078	0.000061
1667	1.6577e+02	-6.8123	-53.708035	0.000162	1.621611	0.274708	0.000032
1668	1.6587e+02	-6.7923	-53.623255	0.000426	4.256728	0.721109	0.000085
1669	1.6597e+02	-6.7726	-53.550587	0.000365	3.648624	0.618094	0.000073
1670	1.6607e+02	-6.7525	-53.441584	0.000547	5.472936	0.927140	0.000110
1671	1.6616e+02	-6.7339	-53.389102	0.000264	2.635117	0.446401	0.000053
1672	1.6626e+02	-6.7122	-53.332582	0.000284	2.837819	0.480739	0.000057
1673	1.6636e+02	-6.6930	-53.239728	0.000466	4.662131	0.789786	0.000093
1674	1.6646e+02	-6.6730	-53.175133	0.000324	3.243221	0.549417	0.000065
1675	1.6656e+02	-6.6525	-53.114576	0.000304	3.040520	0.515078	0.000061
1676	1.6666e+02	-6.6330	-53.009611	0.000527	5.270235	0.892802	0.000105
1677	1.6676e+02	-6.6136	-52.920794	0.000446	4.459429	0.755448	0.000089
1678	1.6686e+02	-6.5926	-52.876385	0.000223	2.229715	0.377724	0.000045
1679	1.6696e+02	-6.5732	-52.787568	0.000446	4.459429	0.755448	0.000089
1680	1.6706e+02	-6.5536	-52.682603	0.000527	5.270235	0.892802	0.000105
1681	1.6716e+02	-6.5331	-52.638194	0.000223	2.229715	0.377724	0.000045
1682	1.6726e+02	-6.5137	-52.557452	0.000405	4.054027	0.686771	0.000081
1683	1.6736e+02	-6.4927	-52.472672	0.000426	4.256728	0.721109	0.000085
1684	1.6746e+02	-6.4743	-52.383855	0.000446	4.459429	0.755448	0.000089
1685	1.6756e+02	-6.4532	-52.303112	0.000405	4.054027	0.686771	0.000081
1686	1.6766e+02	-6.4342	-52.218332	0.000426	4.256728	0.721109	0.000085
1687	1.6776e+02	-6.4143	-52.161812	0.000284	2.837819	0.480739	0.000057
1688	1.6786e+02	-6.3940	-52.068958	0.000466	4.662131	0.789786	0.000093
1689	1.6796e+02	-6.3728	-51.984178	0.000426	4.256728	0.721109	0.000085
1690	1.6806e+02	-6.3542	-51.895361	0.000446	4.459429	0.755448	0.000089
1691	1.6816e+02	-6.3356	-51.838841	0.000284	2.837819	0.480739	0.000057
1692	1.6825e+02	-6.3132	-51.754062	0.000426	4.256728	0.721109	0.000085
1693	1.6835e+02	-6.2956	-51.649096	0.000527	5.270235	0.892802	0.000105
1694	1.6845e+02	-6.2732	-51.592576	0.000284	2.837819	0.480739	0.000057
1695	1.6855e+02	-6.2546	-51.491648	0.000507	5.067533	0.858463	0.000101
1696	1.6865e+02	-6.2349	-51.402831	0.000446	4.459429	0.755448	0.000089
1697	1.6875e+02	-6.2148	-51.358422	0.000223	2.229715	0.377724	0.000045
1698	1.6885e+02	-6.1958	-51.297865	0.000304	3.040520	0.515078	0.000061
1699	1.6895e+02	-6.1752	-51.221160	0.000385	3.851325	0.652432	0.000077
1700	1.6905e+02	-6.1552	-51.112157	0.000547	5.472936	0.927140	0.000110
1701	1.6915e+02	-6.1354	-51.055637	0.000284	2.837819	0.480739	0.000057
1702	1.6925e+02	-6.1154	-50.974894	0.000405	4.054027	0.686771	0.000081
1703	1.6935e+02	-6.0944	-50.898189	0.000385	3.851325	0.652432	0.000077
1704	1.6945e+02	-6.0745	-50.813409	0.000426	4.256728	0.721109	0.000085
1705	1.6955e+02	-6.0559	-50.781112	0.000162	1.621611	0.274708	0.000032
1706	1.6965e+02	-6.0362	-50.696332	0.000426	4.256728	0.721109	0.000085
1707	1.6975e+02	-6.0162	-50.550995	0.000730	7.297248	1.236187	0.000146
1708	1.6985e+02	-5.9961	-50.546958	0.000020	0.202701	0.034339	0.000004
1709	1.6995e+02	-5.9756	-50.409695	0.000689	6.891845	1.167510	0.000138
1710	1.7005e+02	-5.9566	-50.353175	0.000284	2.837819	0.480739	0.000057
1711	1.7015e+02	-5.9363	-50.252247	0.000507	5.067533	0.858463	0.000101
1712	1.7024e+02	-5.9164	-50.228024	0.000122	1.216208	0.206031	0.000024
1713	1.7034e+02	-5.8957	-50.070576	0.000791	7.905352	1.339203	0.000158
1714	1.7044e+02	-5.8755	-49.985796	0.000426	4.256728	0.721109	0.000085
1715	1.7054e+02	-5.8566	-49.945425	0.000203	2.027013	0.343385	0.000041
1716	1.7064e+02	-5.8360	-49.820274	0.000628	6.283741	1.064495	0.000126
1717	1.7074e+02	-5.8170	-49.759717	0.000304	3.040520	0.515078	0.000061
1718	1.7084e+02	-5.7968	-49.695122	0.000324	3.243221	0.549417	0.000065
1719	1.7094e+02	-5.7770	-49.622454	0.000365	3.648624	0.618094	0.000073
1720	1.7104e+02	-5.7565	-49.521526	0.000507	5.067533	0.858463	0.000101
1721	1.7114e+02	-5.7362	-49.432709	0.000446	4.459429	0.755448	0.000089
1722	1.7124e+02	-5.7169	-49.372152	0.000304	3.040520	0.515078	0.000061
1723	1.7134e+02	-5.6964	-49.291409	0.000405	4.054027	0.686771	0.000081
1724	1.7144e+02	-5.6765	-49.218740	0.000365	3.648624	0.618094	0.000073
1725	1.7154e+02	-5.6564	-49.129923	0.000446	4.459429	0.755448	0.000089
1726	1.7164e+02	-5.6368	-49.024958	0.000527	5.270235	0.892802	0.000105
1727	1.7174e+02	-5.6171	-48.928067	0.000486	4.864832	0.824125	0.000097
1728	1.7184e+02	-5.5973	-48.867510	0.000304	3.040520	0.515078	0.000061
1729	1.7194e+02	-5.5772	-48.790804	0.000385	3.851325	0.652432	0.000077
1730	1.7204e+02	-5.5565	-48.669690	0.000608	6.081040	1.030156	0.000122
1731	1.7213e+02	-5.5371	-48.629319	0.000203	2.027013	0.343385	0.000041
1732	1.7223e+02	-5.5170	-48.536464	0.000466	4.662131	0.789786	0.000093
1733	1.7233e+02	-5.4974	-48.467833	0.000345	3.445923	0.583755	0.000069
1734	1.7243e+02	-5.4776	-48.330570	0.000689	6.891845	1.167510	0.000138
1735	1.7253e+02	-5.4569	-48.253865	0.000385	3.851325	0.652432	0.000077
1736	1.7263e+02	-5.4372	-48.193308	0.000304	3.040520	0.515078	0.000061
1737	1.7273e+02	-5.4178	-48.116602	0.000385	3.851325	0.652432	0.000077
1738	1.7283e+02	-5.3976	-47.987414	0.000649	6.486443	1.098833	0.000130
1739	1.7293e+02	-5.3781	-47.930894	0.000284	2.837819	0.480739	0.000057
1740	1.7303e+02	-5.3582	-47.834003	0.000486	4.864832	0.824125	0.000097
1741	1.7313e+02	-5.3381	-47.745186	0.000446	4.459429	0.755448	0.000089
1742	1.7323e+02	-5.3182	-47.668480	0.000385	3.851325	0.652432	0.000077
1743	1.7333e+02	-5.2975	-47.583700	0.000426	4.256728	0.721109	0.000085
1744	1.7343e+02	-5.2783	-47.482772	0.000507	5.067533	0.858463	0.000101
1745	1.7353e+02	-5.2589	-47.385881	0.000486	4.864832	0.824125	0.000097
1746	1.7363e+02	-5.2390	-47.293027	0.000466	4.662131	0.789786	0.000093
1747	1.7373e+02	-5.2182	-47.204210	0.000446	4.459429	0.755448	0.000089
1748	1.7383e+02	-5.1986	-47.159801	0.000223	2.229715	0.377724	0.000045
1749	1.7393e+02	-5.1787	-47.070984	0.000446	4.459429	0.755448	0.000089
1750	1.7403e+02	-5.1585	-46.945833	0.000628	6.283741	1.064495	0.000126
1751	1.7413e+02	-5.1385	-46.873164	0.000365	3.648624	0.618094	0.000073
1752	1.7422e+02	-5.1184	-46.776273	0.000486	4.864832	0.824125	0.000097
1753	1.7432e+02	-5.0989	-46.667271	0.000547	5.472936	0.927140	0.000110
1754	1.7442e+02	-5.0787	-46.574416	0.000466	4.662131	0.789786	0.000093
1755	1.7452e+02	-5.0586	-46.505785	0.000345	3.445923	0.583755	0.000069
1756	1.7462e+02	-5.0397	-46.404857	0.000507	5.067533	0.858463	0.000101
1757	1.7472e+02	-5.0192	-46.295854	0.000547	5.472936	0.927140	0.000110
1758	1.7482e+02	-4.9989	-46.215111	0.000405	4.054027	0.686771	0.000081
1759	1.7492e+02	-4.9791	-46.154554	0.000304	3.040520	0.515078	0.000061
1760	1.7502e+02	-4.9597	-46.025366	0.000649	6.486443	1.098833	0.000130
1761	1.7512e+02	-4.9409	-45.980957	0.000223	2.229715	0.377724	0.000045
1762	1.7522e+02	-4.9196	-45.863881	0.000588	5.878339	0.995818	0.000118
1763	1.7532e+02	-4.8999	-45.771026	0.000466	4.662131	0.789786	0.000093
1764	1.7542e+02	-4.8798	-45.694321	0.000385	3.851325	0.652432	0.000077
1765	1.7552e+02	-4.8590	-45.573207	0.000608	6.081040	1.030156	0.000122
1766	1.7562e+02	-4.8403	-45.484390	0.000446	4.459429	0.755448	0.000089
1767	1.7572e+02	-4.8206	-45.439981	0.000223	2.229715	0.377724	0.000045
1768	1.7582e+02	-4.7994	-45.314830	0.000628	6.283741	1.064495	0.000126
1769	1.7592e+02	-4.7803	-45.209865	0.000527	5.270235	0.892802	0.000105
1770	1.7602e+02	-4.7594	-45.201790	0.000041	0.405403	0.068677	0.000008
1771	1.7612e+02	-4.7397	-45.068565	0.000669	6.689144	1.133172	0.000134
1772	1.7621e+02	-4.7213	-44.963599	0.000527	5.270235	0.892802	0.000105
1773	1.7631e+02	-4.7002	-44.882857	0.000405	4.054027	0.686771	0.000081
1774	1.7641e+02	-4.6817	-44.777891	0.000527	5.270235	0.892802	0.000105
1775	1.7651e+02	-4.6616	-44.713297	0.000324	3.243221	0.549417	0.000065
1776	1.7661e+02	-4.6407	-44.584109	0.000649	6.486443	1.098833	0.000130
1777	1.7671e+02	-4.6211	-44.471069	0.000568	5.675637	0.961479	0.000114
1778	1.7681e+02	-4.6011	-44.390326	0.000405	4.054027	0.686771	0.000081
1779	1.7691e+02	-4.5810	-44.325732	0.000324	3.243221	0.549417	0.000065
1780	1.7701e+02	-4.5609	-44.236915	0.000446	4.459429	0.755448	0.000089
1781	1.7711e+02	-4.5409	-44.103689	0.000669	6.689144	1.133172	0.000134
1782	1.7721e+02	-4.5212	-44.026984	0.000385	3.851325	0.652432	0.000077
1783	1.7731e+02	-4.5023	-43.966427	0.000304	3.040520	0.515078	0.000061
1784	1.7741e+02	-4.4812	-43.841276	0.000628	6.283741	1.064495	0.000126
1785	1.7751e+02	-4.4612	-43.756496	0.000426	4.256728	0.721109	0.000085
1786	1.7761e+02	-4.4417	-43.635382	0.000608	6.081040	1.030156	0.000122
1787	1.7771e+02	-4.4206	-43.542528	0.000466	4.662131	0.789786	0.000093
1788	1.7781e+02	-4.4008	-43.433525	0.000547	5.472936	0.927140	0.000110
1789	1.7791e+02	-4.3825	-43.336634	0.000486	4.864832	0.824125	0.000097
1790	1.7801e+02	-4.3622	-43.259928	0.000385	3.851325	0.652432	0.000077
1791	1.7810e+02	-4.3423	-43.163037	0.000486	4.864832	0.824125	0.000097
1792	1.7820e+02	-4.3225	-43.045960	0.000588	5.878339	0.995818	0.000118
1793	1.7830e+02	-4.3019	-42.981366	0.000324	3.243221	0.549417	0.000065
1794	1.7840e+02	-4.2822	-42.856214	0.000628	6.283741	1.064495	0.000126
1795	1.7850e+02	-4.2624	-42.727026	0.000649	6.486443	1.098833	0.000130
1796	1.7860e+02	-4.2419	-42.658395	0.000345	3.445923	0.583755	0.000069
1797	1.7870e+02	-4.2235	-42.557466	0.000507	5.067533	0.858463	0.000101
1798	1.7880e+02	-4.2022	-42.480761	0.000385	3.851325	0.652432	0.000077
1799	1.7890e+02	-4.1833	-42.363684	0.000588	5.878339	0.995818	0.000118
1800	1.7900e+02	-4.1632	-42.266793	0.000486	4.864832	0.824125	0.000097
1801	1.7910e+02	-4.1430	-42.186050	0.000405	4.054027	0.686771	0.000081
1802	1.7920e+02	-4.1235	-42.064936	0.000608	6.081040	1.030156	0.000122
1803	1.7930e+02	-4.1034	-41.947859	0.000588	5.878339	0.995818	0.000118
1804	1.7940e+02	-4.0825	-41.846930	0.000507	5.067533	0.858463	0.000101
1805	1.7950e+02	-4.0625	-41.758114	0.000446	4.459429	0.755448	0.000089
1806	1.7960e+02	-4.0441	-41.636999	0.000608	6.081040	1.030156	0.000122
1807	1.7970e+02	-4.0230	-41.560294	0.000385	3.851325	0.652432	0.000077
1808	1.7980e+02	-4.0036	-41.463403	0.000486	4.864832	0.824125	0.000097
1809	1.7990e+02	-3.9835	-41.350363	0.000568	5.675637	0.961479	0.000114
1810	1.8000e+02	-3.9635	-41.233286	0.000588	5.878339	0.995818	0.000118
1811	1.8009e+02	-3.9432	-41.132357	0.000507	5.067533	0.858463	0.000101
1812	1.8019e+02	-3.9231	-41.059689	0.000365	3.648624	0.618094	0.000073
1813	1.8029e+02	-3.9038	-40.978946	0.000405	4.054027	0.686771	0.000081
1814	1.8039e+02	-3.8841	-40.869944	0.000547	5.472936	0.927140	0.000110
1815	1.8049e+02	-3.8622	-40.773052	0.000486	4.864832	0.824125	0.000097
1816	1.8059e+02	-3.8437	-40.639827	0.000669	6.689144	1.133172	0.000134
1817	1.8069e+02	-3.8238	-40.579270	0.000304	3.040520	0.515078	0.000061
1818	1.8079e+02	-3.8031	-40.446044	0.000669	6.689144	1.133172	0.000134
1819	1.8089e+02	-3.7842	-40.365302	0.000405	4.054027	0.686771	0.000081
1820	1.8099e+02	-3.7651	-40.264373	0.000507	5.067533	0.858463	0.000101
1821	1.8109e+02	-3.7450	-40.123074	0.000709	7.094547	1.201849	0.000142
1822	1.8119e+02	-3.7240	-40.046368	0.000385	3.851325	0.652432	0.000077
1823	1.8129e+02	-3.7053	-39.945440	0.000507	5.067533	0.858463	0.000101
1824	1.8139e+02	-3.6849	-39.868734	0.000385	3.851325	0.652432	0.000077
1825	1.8149e+02	-3.6644	-39.812214	0.000284	2.837819	0.480739	0.000057
1826	1.8159e+02	-3.6453	-39.658803	0.000770	7.702651	1.304864	0.000154
1827	1.8169e+02	-3.6246	-39.557875	0.000507	5.067533	0.858463	0.000101
1828	1.8179e+02	-3.6047	-39.481169	0.000385	3.851325	0.652432	0.000077
1829	1.8189e+02	-3.5844	-39.368129	0.000568	5.675637	0.961479	0.000114
1830	1.8199e+02	-3.5654	-39.234904	0.000669	6.689144	1.133172	0.000134
1831	1.8209e+02	-3.5451	-39.129938	0.000527	5.270235	0.892802	0.000105
1832	1.8218e+02	-3.5262	-39.089567	0.000203	2.027013	0.343385	0.000041
1833	1.8228e+02	-3.5052	-38.903859	0.000932	9.324261	1.579573	0.000187
1834	1.8238e+02	-3.4856	-38.831190	0.000365	3.648624	0.618094	0.000073
1835	1.8248e+02	-3.4650	-38.710076	0.000608	6.081040	1.030156	0.000122
1836	1.8258e+02	-3.4464	-38.649519	0.000304	3.040520	0.515078	0.000061
1837	1.8268e+02	-3.4256	-38.548591	0.000507	5.067533	0.858463	0.000101
1838	1.8278e+02	-3.4065	-38.399217	0.000750	7.499949	1.270526	0.000150
1839	1.8288e+02	-3.3858	-38.334622	0.000324	3.243221	0.549417	0.000065
1840	1.8298e+02	-3.3654	-38.233694	0.000507	5.067533	0.858463	0.000101
1841	1.8308e+02	-3.3451	-38.104506	0.000649	6.486443	1.098833	0.000130
1842	1.8318e+02	-3.3249	-38.015689	0.000446	4.459429	0.755448	0.000089
1843	1.8328e+02	-3.3065	-37.906686	0.000547	5.472936	0.927140	0.000110
1844	1.8338e+02	-3.2865	-37.817869	0.000446	4.459429	0.755448	0.000089
1845	1.8348e+02	-3.2663	-37.700792	0.000588	5.878339	0.995818	0.000118
1846	1.8358e+02	-3.2466	-37.603901	0.000486	4.864832	0.824125	0.000097
1847	1.8368e+02	-3.2272	-37.470675	0.000669	6.689144	1.133172	0.000134
1848	1.8378e+02	-3.2065	-37.365710	0.000527	5.270235	0.892802	0.000105
1849	1.8388e+02	-3.1857	-37.236521	0.000649	6.486443	1.098833	0.000130
1850	1.8398e+02	-3.1667	-37.171927	0.000324	3.243221	0.549417	0.000065
1851	1.8407e+02	-3.1468	-37.087147	0.000426	4.256728	0.721109	0.000085
1852	1.8417e+02	-3.1267	-36.953922	0.000669	6.689144	1.133172	0.000134
1853	1.8427e+02	-3.1076	-36.840882	0.000568	5.675637	0.961479	0.000114
1854	1.8437e+02	-3.0865	-36.723805	0.000588	5.878339	0.995818	0.000118
1855	1.8447e+02	-3.0669	-36.626914	0.000486	4.864832	0.824125	0.000097
1856	1.8457e+02	-3.0472	-36.517911	0.000547	5.472936	0.927140	0.000110
1857	1.8467e+02	-3.0275	-36.437169	0.000405	4.054027	0.686771	0.000081
1858	1.8477e+02	-3.0077	-36.287795	0.000750	7.499949	1.270526	0.000150
1859	1.8487e+02	-2.9867	-36.194940	0.000466	4.662131	0.789786	0.000093
1860	1.8497e+02	-2.9666	-36.057678	0.000689	6.891845	1.167510	0.000138
1861	1.8507e+02	-2.9479	-35.972898	0.000426	4.256728	0.721109	0.000085
1862	1.8517e+02	-2.9276	-35.863895	0.000547	5.472936	0.927140	0.000110
1863	1.8527e+02	-2.9086	-35.758930	0.000527	5.270235	0.892802	0.000105
1864	1.8537e+02	-2.8883	-35.625704	0.000669	6.689144	1.133172	0.000134
1865	1.8547e+02	-2.8682	-35.569184	0.000284	2.837819	0.480739	0.000057
1866	1.8557e+02	-2.8483	-35.427885	0.000709	7.094547	1.201849	0.000142
1867	1.8567e+02	-2.8275	-35.330993	0.000486	4.864832	0.824125	0.000097
1868	1.8577e+02	-2.8088	-35.234102	0.000486	4.864832	0.824125	0.000097
1869	1.8587e+02	-2.7878	-35.165471	0.000345	3.445923	0.583755	0.000069
1870	1.8597e+02	-2.7685	-35.040320	0.000628	6.283741	1.064495	0.000126
1871	1.8606e+02	-2.7478	-34.927280	0.000568	5.675637	0.961479	0.000114
1872	1.8616e+02	-2.7284	-34.806166	0.000608	6.081040	1.030156	0.000122
1873	1.8626e+02	-2.7084	-34.693126	0.000568	5.675637	0.961479	0.000114
1874	1.8636e+02	-2.6891	-34.608346	0.000426	4.256728	0.721109	0.000085
1875	1.8646e+02	-2.6678	-34.503381	0.000527	5.270235	0.892802	0.000105
1876	1.8656e+02	-2.6482	-34.390341	0.000568	5.675637	0.961479	0.000114
1877	1.8666e+02	-2.6283	-34.297487	0.000466	4.662131	0.789786	0.000093
1878	1.8676e+02	-2.6080	-34.216744	0.000405	4.054027	0.686771	0.000081
1879	1.8686e+02	-2.5890	-34.099667	0.000588	5.878339	0.995818	0.000118
1880	1.8696e+02	-2.5690	-33.982590	0.000588	5.878339	0.995818	0.000118
1881	1.8706e+02	-2.5488	-33.873587	0.000547	5.472936	0.927140	0.000110
1882	1.8716e+02	-2.5291	-33.780733	0.000466	4.662131	0.789786	0.000093
1883	1.8726e+02	-2.5098	-33.671731	0.000547	5.472936	0.927140	0.000110
1884	1.8736e+02	-2.4902	-33.542542	0.000649	6.486443	1.098833	0.000130
1885	1.8746e+02	-2.4701	-33.429502	0.000568	5.675637	0.961479	0.000114
1886	1.8756e+02	-2.4499	-33.308388	0.000608	6.081040	1.030156	0.000122
1887	1.8766e+02	-2.4307	-33.219571	0.000446	4.459429	0.755448	0.000089
1888	1.8776e+02	-2.4104	-33.150940	0.000345	3.445923	0.583755	0.000069
1889	1.8786e+02	-2.3902	-33.017715	0.000669	6.689144	1.133172	0.000134
1890	1.8796e+02	-2.3714	-32.872378	0.000730	7.297248	1.236187	0.000146
1891	1.8806e+02	-2.3499	-32.763375	0.000547	5.472936	0.927140	0.000110
1892	1.8815e+02	-2.3300	-32.670521	0.000466	4.662131	0.789786	0.000093
1893	1.8825e+02	-2.3109	-32.557481	0.000568	5.675637	0.961479	0.000114
1894	1.8835e+02	-2.2908	-32.456553	0.000507	5.067533	0.858463	0.000101
1895	1.8845e+02	-2.2704	-32.359662	0.000486	4.864832	0.824125	0.000097
1896	1.8855e+02	-2.2506	-32.222399	0.000689	6.891845	1.167510	0.000138
1897	1.8865e+02	-2.2301	-32.105322	0.000588	5.878339	0.995818	0.000118
1898	1.8875e+02	-2.2107	-32.000356	0.000527	5.270235	0.892802	0.000105
1899	1.8885e+02	-2.1907	-31.867131	0.000669	6.689144	1.133172	0.000134
1900	1.8895e+02	-2.1709	-31.770240	0.000486	4.864832	0.824125	0.000097
1901	1.8905e+02	-2.1510	-31.685460	0.000426	4.256728	0.721109	0.000085
1902	1.8915e+02	-2.1313	-31.540123	0.000730	7.297248	1.236187	0.000146
1903	1.8925e+02	-2.1111	-31.487640	0.000264	2.635117	0.446401	0.000053
1904	1.8935e+02	-2.0908	-31.342303	0.000730	7.297248	1.236187	0.000146
1905	1.8945e+02	-2.0699	-31.217152	0.000628	6.283741	1.064495	0.000126
1906	1.8955e+02	-2.0521	-31.124298	0.000466	4.662131	0.789786	0.000093
1907	1.8965e+02	-2.0311	-30.995110	0.000649	6.486443	1.098833	0.000130
1908	1.8975e+02	-2.0111	-30.861884	0.000669	6.689144	1.133172	0.000134
1909	1.8985e+02	-1.9913	-30.781141	0.000405	4.054027	0.686771	0.000081
1910	1.8995e+02	-1.9710	-30.680213	0.000507	5.067533	0.858463	0.000101
1911	1.9004e+02	-1.9514	-30.571210	0.000547	5.472936	0.927140	0.000110
1912	1.9014e+02	-1.9315	-30.458171	0.000568	5.675637	0.961479	0.000114
1913	1.9024e+02	-1.9111	-30.341094	0.000588	5.878339	0.995818	0.000118
1914	1.9034e+02	-1.8916	-30.236128	0.000527	5.270235	0.892802	0.000105
1915	1.9044e+02	-1.8729	-30.098865	0.000689	6.891845	1.167510	0.000138
1916	1.9054e+02	-1.8520	-29.977751	0.000608	6.081040	1.030156	0.000122
1917	1.9064e+02	-1.8325	-29.884897	0.000466	4.662131	0.789786	0.000093
1918	1.9074e+02	-1.8127	-29.751672	0.000669	6.689144	1.133172	0.000134
1919	1.9084e+02	-1.7921	-29.683041	0.000345	3.445923	0.583755	0.000069
1920	1.9094e+02	-1.7722	-29.545778	0.000689	6.891845	1.167510	0.000138
1921	1.9104e+02	-1.7525	-29.436775	0.000547	5.472936	0.927140	0.000110
1922	1.9114e+02	-1.7327	-29.299513	0.000689	6.891845	1.167510	0.000138
1923	1.9124e+02	-1.7130	-29.186473	0.000568	5.675637	0.961479	0.000114
1924	1.9134e+02	-1.6921	-29.077470	0.000547	5.472936	0.927140	0.000110
1925	1.9144e+02	-1.6727	-28.984616	0.000466	4.662131	0.789786	0.000093
1926	1.9154e+02	-1.6528	-28.875613	0.000547	5.472936	0.927140	0.000110
1927	1.9164e+02	-1.6326	-28.762574	0.000568	5.675637	0.961479	0.000114
1928	1.9174e+02	-1.6128	-28.609162	0.000770	7.702651	1.304864	0.000154
1929	1.9184e+02	-1.5926	-28.528420	0.000405	4.054027	0.686771	0.000081
1930	1.9194e+02	-1.5730	-28.411343	0.000588	5.878339	0.995818	0.000118
1931	1.9203e+02	-1.5518	-28.302340	0.000547	5.472936	0.927140	0.000110
1932	1.9213e+02	-1.5331	-28.173152	0.000649	6.486443	1.098833	0.000130
1933	1.9223e+02	-1.5125	-28.072223	0.000507	5.067533	0.858463	0.000101
1934	1.9233e+02	-1.4932	-27.971295	0.000507	5.067533	0.858463	0.000101
1935	1.9243e+02	-1.4728	-27.850181	0.000608	6.081040	1.030156	0.000122
1936	1.9253e+02	-1.4529	-27.753290	0.000486	4.864832	0.824125	0.000097
1937	1.9263e+02	-1.4336	-27.591804	0.000811	8.108053	1.373541	0.000162
1938	1.9273e+02	-1.4134	-27.543359	0.000243	2.432416	0.412062	0.000049
1939	1.9283e+02	-1.3929	-27.349576	0.000973	9.729664	1.648250	0.000195
1940	1.9293e+02	-1.3743	-27.264796	0.000426	4.256728	0.721109	0.000085
1941	1.9303e+02	-1.3541	-27.167905	0.000486	4.864832	0.824125	0.000097
1942	1.9313e+02	-1.3348	-27.034679	0.000669	6.689144	1.133172	0.000134
1943	1.9323e+02	-1.3143	-26.966048	0.000345	3.445923	0.583755	0.000069
1944	1.9333e+02	-1.2937	-26.828786	0.000689	6.891845	1.167510	0.000138
1945	1.9343e+02	-1.2744	-26.695560	0.000669	6.689144	1.133172	0.000134
1946	1.9353e+02	-1.2544	-26.578483	0.000588	5.878339	0.995818	0.000118
1947	1.9363e+02	-1.2341	-26.493703	0.000426	4.256728	0.721109	0.000085
1948	1.9373e+02	-1.2144	-26.376626	0.000588	5.878339	0.995818	0.000118
1949	1.9383e+02	-1.1942	-26.243401	0.000669	6.689144	1.133172	0.000134
1950	1.9393e+02	-1.1749	-26.122287	0.000608	6.081040	1.030156	0.000122
1951	1.9403e+02	-1.1558	-25.980987	0.000709	7.094547	1.201849	0.000142
1952	1.9412e+02	-1.1343	-25.900244	0.000405	4.054027	0.686771	0.000081
1953	1.9422e+02	-1.1150	-25.750870	0.000750	7.499949	1.270526	0.000150
1954	1.9432e+02	-1.0959	-25.658016	0.000466	4.662131	0.789786	0.000093
1955	1.9442e+02	-1.0751	-25.549014	0.000547	5.472936	0.927140	0.000110
1956	1.9452e+02	-1.0551	-25.423862	0.000628	6.283741	1.064495	0.000126
1957	1.9462e+02	-1.0351	-25.286600	0.000689	6.891845	1.167510	0.000138
1958	1.9472e+02	-1.0159	-25.161448	0.000628	6.283741	1.064495	0.000126
1959	1.9482e+02	-0.9949	-25.036297	0.000628	6.283741	1.064495	0.000126
1960	1.9492e+02	-0.9758	-24.939406	0.000486	4.864832	0.824125	0.000097
1961	1.9502e+02	-0.9555	-24.814255	0.000628	6.283741	1.064495	0.000126
1962	1.9512e+02	-0.9357	-24.717364	0.000486	4.864832	0.824125	0.000097
1963	1.9522e+02	-0.9158	-24.608361	0.000547	5.472936	0.927140	0.000110
1964	1.9532e+02	-0.8951	-24.450913	0.000791	7.905352	1.339203	0.000158
1965	1.9542e+02	-0.8755	-24.329799	0.000608	6.081040	1.030156	0.000122
1966	1.9552e+02	-0.8560	-24.220796	0.000547	5.472936	0.927140	0.000110
1967	1.9562e+02	-0.8369	-24.095645	0.000628	6.283741	1.064495	0.000126
1968	1.9572e+02	-0.8167	-23.982605	0.000568	5.675637	0.961479	0.000114
1969	1.9582e+02	-0.7964	-23.857454	0.000628	6.283741	1.064495	0.000126
1970	1.9592e+02	-0.7761	-23.720191	0.000689	6.891845	1.167510	0.000138
1971	1.9601e+02	-0.7561	-23.611188	0.000547	5.472936	0.927140	0.000110
1972	1.9611e+02	-0.7359	-23.494111	0.000588	5.878339	0.995818	0.000118
1973	1.9621e+02	-0.7170	-23.393183	0.000507	5.067533	0.858463	0.000101
1974	1.9631e+02	-0.6963	-23.259958	0.000669	6.689144	1.133172	0.000134
1975	1.9641e+02	-0.6765	-23.138843	0.000608	6.081040	1.030156	0.000122
1976	1.9651e+02	-0.6576	-23.013692	0.000628	6.283741	1.064495	0.000126
1977	1.9661e+02	-0.6364	-22.904690	0.000547	5.472936	0.927140	0.000110
1978	1.9671e+02	-0.6168	-22.791650	0.000568	5.675637	0.961479	0.000114
1979	1.9681e+02	-0.5973	-22.690721	0.000507	5.067533	0.858463	0.000101
1980	1.9691e+02	-0.5767	-22.557496	0.000669	6.689144	1.133172	0.000134
1981	1.9701e+02	-0.5566	-22.448493	0.000547	5.472936	0.927140	0.000110
1982	1.9711e+02	-0.5367	-22.319305	0.000649	6.486443	1.098833	0.000130
1983	1.9721e+02	-0.5173	-22.198191	0.000608	6.081040	1.030156	0.000122
1984	1.9731e+02	-0.4968	-22.085151	0.000568	5.675637	0.961479	0.000114
1985	1.9741e+02	-0.4768	-21.955963	0.000649	6.486443	1.098833	0.000130
1986	1.9751e+02	-0.4572	-21.859071	0.000486	4.864832	0.824125	0.000097
1987	1.9761e+02	-0.4372	-21.705660	0.000770	7.702651	1.304864	0.000154
1988	1.9771e+02	-0.4174	-21.620880	0.000426	4.256728	0.721109	0.000085
1989	1.9781e+02	-0.3979	-21.487655	0.000669	6.689144	1.133172	0.000134
1990	1.9791e+02	-0.3781	-21.366541	0.000608	6.081040	1.030156	0.000122
1991	1.9800e+02	-0.3577	-21.229278	0.000689	6.891845	1.167510	0.000138
1992	1.9810e+02	-0.3378	-21.116238	0.000568	5.675637	0.961479	0.000114
1993	1.9820e+02	-0.3173	-21.007236	0.000547	5.472936	0.927140	0.000110
1994	1.9830e+02	-0.2972	-20.910345	0.000486	4.864832	0.824125	0.000097
1995	1.9840e+02	-0.2776	-20.781156	0.000649	6.486443	1.098833	0.000130
1996	1.9850e+02	-0.2570	-20.656005	0.000628	6.283741	1.064495	0.000126
1997	1.9860e+02	-0.2379	-20.542965	0.000568	5.675637	0.961479	0.000114
1998	1.9870e+02	-0.2178	-20.417814	0.000628	6.283741	1.064495	0.000126
1999	1.9880e+02	-0.1982	-20.296700	0.000608	6.081040	1.030156	0.000122
2000	1.9890e+02	-0.1787	-20.167512	0.000649	6.486443	1.098833	0.000130
2001	1.9900e+02	-0.1581	-20.018138	0.000750	7.499949	1.270526	0.000150
2002	1.9910e+02	-0.1383	-19.949506	0.000345	3.445923	0.583755	0.000069
2003	1.9920e+02	-0.1183	-19.788021	0.000811	8.108053	1.373541	0.000162
2004	1.9930e+02	-0.0999	-19.727464	0.000304	3.040520	0.515078	0.000061
2005	1.9940e+02	-0.0780	-19.590201	0.000689	6.891845	1.167510	0.000138
2006	1.9950e+02	-0.0586	-19.428716	0.000811	8.108053	1.373541	0.000162
2007	1.9960e+02	-0.0393	-19.352010	0.000385	3.851325	0.652432	0.000077
2008	1.9970e+02	-0.0192	-19.234933	0.000588	5.878339	0.995818	0.000118
2009	1.9980e+02	0.0004	-19.089596	0.000588	5.878339	0.995818	0.000146

Smooth data before PMax, +/-Pr and +/-Vc Calc.

PMax (uC/cm2):	4.99e+01
Pr (uC/cm2):	3.73e+00
-Pr (uC/cm2):	-2.90e+01
PLoss (uC/cm2):	-2.90e+01
-Vc:	-6.08e-01
C (Max-Eff) (nF):	4.99e-01
K (Eff):	8.46e+02
Vert. (+/-Pr) Shift (uC/cm2):	-1.26e+01
Offset (uC/cm2):	-9.85e+00

A (Loop Area - uC/cm2·Volts):	-6.61e-02



Hysteresis Version: 5.48.1 - Radiant Technologies, Inc., 1999 - 9/12/24

