»»»»»»»»»»»»»»»»»»»»»»»»»»»»»»»»»»»» Hysteresis ««««««««««««««««««««««««««««««««««««
»»»  Executed Version:	5.48.1
»»»  Vision Version:	5.48.4 (R)
»»»  Vision Compiled:	9/18/24
»»»  Driver Version:	5.47.0
»»»  Windows Version:	Windows 8 or 8.1
»»»  Processor Information:	x86 (AMD or Intel) - 32 Processors
»»»  Tester Name:	PMF21124-494 (100V)
»»»  Tester S/N:	PMF21124-494
»»»  Internal Amp Type:	100V RevK 270k
»»»  Internal Amp S/N:	iAB2-596/K     
»»»  Execution Count:	1
»»»»»»»»»»»»»»»»»»»»»»»»»»»»»»»»»»»»»»»»»»««««««««««««««««««««««««««««««««««««««««««

Stored:	6/24/2025 - 13:44:36
Configured:	06/24/25 01:39:33 PM
Executed:	06/24/25 01:44:03 PM

»»»»»»»»»»»»»»»»»»»»»»»»»»»»»»»»»»» Sample Info ««««««««««««««««««««««««««««««««««««
Sample Name:	
Lot Name:	
Wafer Name:	
Die Row/Column:	0/0
Capacitor Number:	0
Sample Area (cm2):	1.00e-04
Sample Thickness (microns):	1.50e-01

Amplifier:	Internal

»»»»»»»»»»»»»»»»»»»»»»»»»»»»»»»»»»» Tester Info «««««««««««««««««««««««««««««««««««
Tester Name:	PMF21124-494 (100V)
Tester Serial Number:	PMF21124-494
Return Signal Amp. Level:	0.19 [Index: 3]

»»»»»»»»»»»»»»»»»»»»»»»»»»»»»»»» Hysteresis Info ««««««««««««««««««««««««««««««««««
Task Name:	Hyst-4
Volts:	10.00
Field:	666.67 (kV/cm)
DCBias:	0.00
DCField:	0.00 (kV/cm)
Hysteresis Period (ms):	2.00e+02
Preset:	Enabled
Preset Delay (ms):	1.00e+03
Profile:	Standard Bipolar

»»»»»»»»»»»»»»»»»»»»»»»»»»»»»»»»»»»»»» Data «««««««««««««««««««««««««««««««««««««««
Points:	2009

Valid Data

Point	Time (ms)	Drive Voltage	Measured Polarization (uC/cm2)	Capacitance (uF)	Normalized Capacitance (uF/cm2)	Dielectric Constant	Instantaneous Current (mA)
   1	0.0000e+00	0.0011	21.344337	0.000567	5.674566	0.961297	0.000114
   2	9.9500e-02	0.0217	21.457376	0.000567	5.674566	0.961297	0.000114
   3	1.9900e-01	0.0394	21.570416	0.000567	5.674566	0.961297	0.000114
   4	2.9850e-01	0.0602	21.683456	0.000567	5.674566	0.961297	0.000114
   5	3.9800e-01	0.0806	21.804570	0.000608	6.079892	1.029962	0.000122
   6	4.9750e-01	0.1006	21.893387	0.000446	4.458587	0.755305	0.000089
   7	5.9700e-01	0.1207	22.058910	0.000831	8.309185	1.407614	0.000166
   8	6.9650e-01	0.1400	22.163875	0.000527	5.269239	0.892633	0.000105
   9	7.9600e-01	0.1604	22.272878	0.000547	5.471902	0.926965	0.000110
  10	8.9550e-01	0.1814	22.406103	0.000669	6.687881	1.132958	0.000134
  11	9.9500e-01	0.2011	22.486846	0.000405	4.053261	0.686641	0.000081
  12	1.0945e+00	0.2200	22.624109	0.000689	6.890544	1.167290	0.000138
  13	1.1940e+00	0.2409	22.745223	0.000608	6.079892	1.029962	0.000122
  14	1.2935e+00	0.2601	22.862300	0.000588	5.877229	0.995629	0.000118
  15	1.3930e+00	0.2805	23.003599	0.000709	7.093207	1.201622	0.000142
  16	1.4925e+00	0.3001	23.108565	0.000527	5.269239	0.892633	0.000105
  17	1.5920e+00	0.3190	23.197382	0.000446	4.458587	0.755305	0.000089
  18	1.6915e+00	0.3396	23.326570	0.000649	6.485218	1.098626	0.000130
  19	1.7910e+00	0.3598	23.399239	0.000365	3.647935	0.617977	0.000073
  20	1.8905e+00	0.3805	23.544576	0.000730	7.295870	1.235954	0.000146
  21	1.9900e+00	0.4004	23.653578	0.000547	5.471902	0.926965	0.000110
  22	2.0895e+00	0.4196	23.778729	0.000628	6.282555	1.064294	0.000126
  23	2.1890e+00	0.4392	23.875621	0.000486	4.863913	0.823969	0.000097
  24	2.2885e+00	0.4594	23.996735	0.000608	6.079892	1.029962	0.000122
  25	2.3880e+00	0.4798	24.133997	0.000689	6.890544	1.167290	0.000138
  26	2.4875e+00	0.4990	24.238963	0.000527	5.269239	0.892633	0.000105
  27	2.5870e+00	0.5199	24.368151	0.000649	6.485218	1.098626	0.000130
  28	2.6865e+00	0.5399	24.473117	0.000527	5.269239	0.892633	0.000105
  29	2.7860e+00	0.5593	24.582120	0.000547	5.471902	0.926965	0.000110
  30	2.8855e+00	0.5793	24.654788	0.000365	3.647935	0.617977	0.000073
  31	2.9850e+00	0.5994	24.828385	0.000871	8.714511	1.476278	0.000174
  32	3.0845e+00	0.6190	24.921239	0.000466	4.661250	0.789637	0.000093
  33	3.1840e+00	0.6387	25.022167	0.000507	5.066576	0.858301	0.000101
  34	3.2835e+00	0.6584	25.159430	0.000689	6.890544	1.167290	0.000138
  35	3.3830e+00	0.6796	25.292655	0.000669	6.687881	1.132958	0.000134
  36	3.4825e+00	0.6982	25.385510	0.000466	4.661250	0.789637	0.000093
  37	3.5820e+00	0.7191	25.534884	0.000750	7.498533	1.270286	0.000150
  38	3.6815e+00	0.7378	25.643886	0.000547	5.471902	0.926965	0.000110
  39	3.7810e+00	0.7574	25.785186	0.000709	7.093207	1.201622	0.000142
  40	3.8805e+00	0.7793	25.914374	0.000649	6.485218	1.098626	0.000130
  41	3.9800e+00	0.7973	26.003191	0.000446	4.458587	0.755305	0.000089
  42	4.0795e+00	0.8190	26.164677	0.000811	8.106522	1.373282	0.000162
  43	4.1790e+00	0.8383	26.273679	0.000547	5.471902	0.926965	0.000110
  44	4.2785e+00	0.8578	26.386719	0.000567	5.674566	0.961297	0.000114
  45	4.3780e+00	0.8784	26.536093	0.000750	7.498533	1.270286	0.000150
  46	4.4775e+00	0.8994	26.645096	0.000547	5.471902	0.926965	0.000110
  47	4.5770e+00	0.9183	26.822730	0.000892	8.917174	1.510610	0.000179
  48	4.6765e+00	0.9373	26.927695	0.000527	5.269239	0.892633	0.000105
  49	4.7760e+00	0.9582	27.028624	0.000507	5.066576	0.858301	0.000101
  50	4.8755e+00	0.9792	27.169924	0.000709	7.093207	1.201622	0.000142
  51	4.9750e+00	0.9966	27.274889	0.000527	5.269239	0.892633	0.000105
  52	5.0745e+00	1.0169	27.396003	0.000608	6.079892	1.029962	0.000122
  53	5.1740e+00	1.0369	27.545377	0.000750	7.498533	1.270286	0.000150
  54	5.2735e+00	1.0578	27.650343	0.000527	5.269239	0.892633	0.000105
  55	5.3730e+00	1.0771	27.739160	0.000446	4.458587	0.755305	0.000089
  56	5.4725e+00	1.0972	27.860274	0.000608	6.079892	1.029962	0.000122
  57	5.5720e+00	1.1175	28.033871	0.000871	8.714511	1.476278	0.000174
  58	5.6715e+00	1.1383	28.106539	0.000365	3.647935	0.617977	0.000073
  59	5.7710e+00	1.1569	28.243802	0.000689	6.890544	1.167290	0.000138
  60	5.8705e+00	1.1771	28.368953	0.000628	6.282555	1.064294	0.000126
  61	5.9700e+00	1.1967	28.490067	0.000608	6.079892	1.029962	0.000122
  62	6.0695e+00	1.2160	28.615218	0.000628	6.282555	1.064294	0.000126
  63	6.1690e+00	1.2373	28.748444	0.000669	6.687881	1.132958	0.000134
  64	6.2685e+00	1.2572	28.829186	0.000405	4.053261	0.686641	0.000081
  65	6.3680e+00	1.2704	28.974523	0.000730	7.295870	1.235954	0.000146
  66	6.4675e+00	1.2954	29.087563	0.000567	5.674566	0.961297	0.000114
  67	6.5670e+00	1.3161	29.208677	0.000608	6.079892	1.029962	0.000122
  68	6.6665e+00	1.3352	29.349977	0.000709	7.093207	1.201622	0.000142
  69	6.7660e+00	1.3555	29.471091	0.000608	6.079892	1.029962	0.000122
  70	6.8655e+00	1.3753	29.612391	0.000709	7.093207	1.201622	0.000142
  71	6.9650e+00	1.3950	29.672948	0.000304	3.039946	0.514981	0.000061
  72	7.0645e+00	1.4145	29.854619	0.000912	9.119837	1.544942	0.000183
  73	7.1640e+00	1.4355	29.955547	0.000507	5.066576	0.858301	0.000101
  74	7.2635e+00	1.4552	30.117033	0.000811	8.106522	1.373282	0.000162
  75	7.3630e+00	1.4751	30.205850	0.000446	4.458587	0.755305	0.000089
  76	7.4625e+00	1.4953	30.343112	0.000689	6.890544	1.167290	0.000138
  77	7.5620e+00	1.5146	30.464226	0.000608	6.079892	1.029962	0.000122
  78	7.6615e+00	1.5350	30.565155	0.000507	5.066576	0.858301	0.000101
  79	7.7610e+00	1.5558	30.730677	0.000831	8.309185	1.407614	0.000166
  80	7.8605e+00	1.5755	30.815457	0.000426	4.255924	0.720973	0.000085
  81	7.9600e+00	1.5954	30.928497	0.000567	5.674566	0.961297	0.000114
  82	8.0595e+00	1.6148	31.045574	0.000588	5.877229	0.995629	0.000118
  83	8.1590e+00	1.6355	31.170725	0.000628	6.282555	1.064294	0.000126
  84	8.2585e+00	1.6546	31.307988	0.000689	6.890544	1.167290	0.000138
  85	8.3580e+00	1.6747	31.445250	0.000689	6.890544	1.167290	0.000138
  86	8.4575e+00	1.6944	31.550216	0.000527	5.269239	0.892633	0.000105
  87	8.5570e+00	1.7152	31.703627	0.000770	7.701196	1.304618	0.000154
  88	8.6565e+00	1.7344	31.812630	0.000547	5.471902	0.926965	0.000110
  89	8.7560e+00	1.7546	31.945855	0.000669	6.687881	1.132958	0.000134
  90	8.8555e+00	1.7742	32.058895	0.000567	5.674566	0.961297	0.000114
  91	8.9550e+00	1.7941	32.163860	0.000527	5.269239	0.892633	0.000105
  92	9.0545e+00	1.8142	32.297086	0.000669	6.687881	1.132958	0.000134
  93	9.1540e+00	1.8343	32.414163	0.000588	5.877229	0.995629	0.000118
  94	9.2535e+00	1.8543	32.543351	0.000649	6.485218	1.098626	0.000130
  95	9.3530e+00	1.8737	32.660428	0.000588	5.877229	0.995629	0.000118
  96	9.4525e+00	1.8941	32.781542	0.000608	6.079892	1.029962	0.000122
  97	9.5520e+00	1.9134	32.918805	0.000689	6.890544	1.167290	0.000138
  98	9.6515e+00	1.9343	33.039919	0.000608	6.079892	1.029962	0.000122
  99	9.7510e+00	1.9542	33.128736	0.000446	4.458587	0.755305	0.000089
 100	9.8505e+00	1.9739	33.270036	0.000709	7.093207	1.201622	0.000142
 101	9.9500e+00	1.9936	33.379038	0.000547	5.471902	0.926965	0.000110
 102	1.0050e+01	2.0129	33.524375	0.000730	7.295870	1.235954	0.000146
 103	1.0149e+01	2.0332	33.681823	0.000790	7.903859	1.338950	0.000158
 104	1.0248e+01	2.0535	33.778715	0.000486	4.863913	0.823969	0.000097
 105	1.0348e+01	2.0731	33.887717	0.000547	5.471902	0.926965	0.000110
 106	1.0447e+01	2.0934	34.016906	0.000649	6.485218	1.098626	0.000130
 107	1.0547e+01	2.1149	34.142057	0.000628	6.282555	1.064294	0.000126
 108	1.0646e+01	2.1334	34.271245	0.000649	6.485218	1.098626	0.000130
 109	1.0746e+01	2.1529	34.420619	0.000750	7.498533	1.270286	0.000150
 110	1.0845e+01	2.1741	34.517511	0.000486	4.863913	0.823969	0.000097
 111	1.0945e+01	2.1935	34.654773	0.000689	6.890544	1.167290	0.000138
 112	1.1044e+01	2.2128	34.767813	0.000567	5.674566	0.961297	0.000114
 113	1.1144e+01	2.2338	34.892964	0.000628	6.282555	1.064294	0.000126
 114	1.1243e+01	2.2530	35.050412	0.000790	7.903859	1.338950	0.000158
 115	1.1343e+01	2.2723	35.127118	0.000385	3.850598	0.652309	0.000077
 116	1.1443e+01	2.2927	35.280529	0.000770	7.701196	1.304618	0.000154
 117	1.1542e+01	2.3125	35.365309	0.000426	4.255924	0.720973	0.000085
 118	1.1642e+01	2.3321	35.555054	0.000953	9.525164	1.613606	0.000191
 119	1.1741e+01	2.3526	35.660020	0.000527	5.269239	0.892633	0.000105
 120	1.1841e+01	2.3727	35.769023	0.000547	5.471902	0.926965	0.000110
 121	1.1940e+01	2.3928	35.837654	0.000345	3.445272	0.583645	0.000069
 122	1.2040e+01	2.4125	35.982991	0.000730	7.295870	1.235954	0.000146
 123	1.2139e+01	2.4319	36.136402	0.000770	7.701196	1.304618	0.000154
 124	1.2239e+01	2.4523	36.241368	0.000527	5.269239	0.892633	0.000105
 125	1.2338e+01	2.4715	36.386704	0.000730	7.295870	1.235954	0.000146
 126	1.2438e+01	2.4920	36.495707	0.000547	5.471902	0.926965	0.000110
 127	1.2537e+01	2.5115	36.588561	0.000466	4.661250	0.789637	0.000093
 128	1.2636e+01	2.5307	36.725824	0.000689	6.890544	1.167290	0.000138
 129	1.2736e+01	2.5515	36.826752	0.000507	5.066576	0.858301	0.000101
 130	1.2835e+01	2.5716	36.992275	0.000831	8.309185	1.407614	0.000166
 131	1.2935e+01	2.5916	37.089166	0.000486	4.863913	0.823969	0.000097
 132	1.3034e+01	2.6118	37.222392	0.000669	6.687881	1.132958	0.000134
 133	1.3134e+01	2.6305	37.315246	0.000466	4.661250	0.789637	0.000093
 134	1.3233e+01	2.6513	37.408100	0.000466	4.661250	0.789637	0.000093
 135	1.3333e+01	2.6710	37.553437	0.000730	7.295870	1.235954	0.000146
 136	1.3432e+01	2.6910	37.674551	0.000608	6.079892	1.029962	0.000122
 137	1.3532e+01	2.7105	37.779516	0.000527	5.269239	0.892633	0.000105
 138	1.3632e+01	2.7306	37.920816	0.000709	7.093207	1.201622	0.000142
 139	1.3731e+01	2.7512	38.033856	0.000567	5.674566	0.961297	0.000114
 140	1.3831e+01	2.7711	38.167081	0.000669	6.687881	1.132958	0.000134
 141	1.3930e+01	2.7905	38.276084	0.000547	5.471902	0.926965	0.000110
 142	1.4030e+01	2.8109	38.381049	0.000527	5.269239	0.892633	0.000105
 143	1.4129e+01	2.8301	38.534461	0.000770	7.701196	1.304618	0.000154
 144	1.4229e+01	2.8503	38.639426	0.000527	5.269239	0.892633	0.000105
 145	1.4328e+01	2.8695	38.740355	0.000507	5.066576	0.858301	0.000101
 146	1.4428e+01	2.8905	38.849357	0.000547	5.471902	0.926965	0.000110
 147	1.4527e+01	2.9098	39.006806	0.000790	7.903859	1.338950	0.000158
 148	1.4627e+01	2.9305	39.144068	0.000689	6.890544	1.167290	0.000138
 149	1.4726e+01	2.9498	39.261145	0.000588	5.877229	0.995629	0.000118
 150	1.4825e+01	2.9704	39.353999	0.000466	4.661250	0.789637	0.000093
 151	1.4925e+01	2.9905	39.491262	0.000689	6.890544	1.167290	0.000138
 152	1.5024e+01	3.0094	39.584116	0.000466	4.661250	0.789637	0.000093
 153	1.5124e+01	3.0303	39.713304	0.000649	6.485218	1.098626	0.000130
 154	1.5223e+01	3.0506	39.858641	0.000730	7.295870	1.235954	0.000146
 155	1.5323e+01	3.0697	39.971681	0.000567	5.674566	0.961297	0.000114
 156	1.5422e+01	3.0904	40.052424	0.000405	4.053261	0.686641	0.000081
 157	1.5522e+01	3.1097	40.177575	0.000628	6.282555	1.064294	0.000126
 158	1.5621e+01	3.1284	40.310800	0.000669	6.687881	1.132958	0.000134
 159	1.5721e+01	3.1495	40.399617	0.000446	4.458587	0.755305	0.000089
 160	1.5820e+01	3.1695	40.504583	0.000527	5.269239	0.892633	0.000105
 161	1.5920e+01	3.1890	40.682217	0.000892	8.917174	1.510610	0.000179
 162	1.6020e+01	3.2092	40.815442	0.000669	6.687881	1.132958	0.000134
 163	1.6119e+01	3.2292	40.880036	0.000324	3.242609	0.549313	0.000065
 164	1.6218e+01	3.2497	41.025373	0.000730	7.295870	1.235954	0.000146
 165	1.6318e+01	3.2687	41.142450	0.000588	5.877229	0.995629	0.000118
 166	1.6418e+01	3.2890	41.259527	0.000588	5.877229	0.995629	0.000118
 167	1.6517e+01	3.3095	41.368530	0.000547	5.471902	0.926965	0.000110
 168	1.6616e+01	3.3291	41.517904	0.000750	7.498533	1.270286	0.000150
 169	1.6716e+01	3.3489	41.647092	0.000649	6.485218	1.098626	0.000130
 170	1.6816e+01	3.3694	41.756095	0.000547	5.471902	0.926965	0.000110
 171	1.6915e+01	3.3892	41.881246	0.000628	6.282555	1.064294	0.000126
 172	1.7015e+01	3.4081	41.953915	0.000365	3.647935	0.617977	0.000073
 173	1.7114e+01	3.4289	42.107326	0.000770	7.701196	1.304618	0.000154
 174	1.7213e+01	3.4489	42.224403	0.000588	5.877229	0.995629	0.000118
 175	1.7313e+01	3.4693	42.353591	0.000649	6.485218	1.098626	0.000130
 176	1.7413e+01	3.4893	42.502965	0.000750	7.498533	1.270286	0.000150
 177	1.7512e+01	3.5082	42.567559	0.000324	3.242609	0.549313	0.000065
 178	1.7611e+01	3.5275	42.692710	0.000628	6.282555	1.064294	0.000126
 179	1.7711e+01	3.5487	42.797676	0.000527	5.269239	0.892633	0.000105
 180	1.7811e+01	3.5677	42.951087	0.000770	7.701196	1.304618	0.000154
 181	1.7910e+01	3.5879	43.043941	0.000466	4.661250	0.789637	0.000093
 182	1.8009e+01	3.6076	43.177167	0.000669	6.687881	1.132958	0.000134
 183	1.8109e+01	3.6279	43.282132	0.000527	5.269239	0.892633	0.000105
 184	1.8209e+01	3.6480	43.435543	0.000770	7.701196	1.304618	0.000154
 185	1.8308e+01	3.6687	43.512249	0.000385	3.850598	0.652309	0.000077
 186	1.8407e+01	3.6883	43.653549	0.000709	7.093207	1.201622	0.000142
 187	1.8507e+01	3.7072	43.766589	0.000567	5.674566	0.961297	0.000114
 188	1.8607e+01	3.7280	43.871554	0.000527	5.269239	0.892633	0.000105
 189	1.8706e+01	3.7475	43.960371	0.000446	4.458587	0.755305	0.000089
 190	1.8805e+01	3.7682	44.085522	0.000628	6.282555	1.064294	0.000126
 191	1.8905e+01	3.7875	44.202599	0.000588	5.877229	0.995629	0.000118
 192	1.9005e+01	3.8073	44.323713	0.000608	6.079892	1.029962	0.000122
 193	1.9104e+01	3.8268	44.465013	0.000709	7.093207	1.201622	0.000142
 194	1.9203e+01	3.8473	44.525570	0.000304	3.039946	0.514981	0.000061
 195	1.9303e+01	3.8671	44.626498	0.000507	5.066576	0.858301	0.000101
 196	1.9402e+01	3.8868	44.796058	0.000851	8.511848	1.441946	0.000170
 197	1.9502e+01	3.9062	44.868727	0.000365	3.647935	0.617977	0.000073
 198	1.9602e+01	3.9263	44.989841	0.000608	6.079892	1.029962	0.000122
 199	1.9701e+01	3.9465	45.114992	0.000628	6.282555	1.064294	0.000126
 200	1.9800e+01	3.9666	45.244180	0.000649	6.485218	1.098626	0.000130
 201	1.9900e+01	3.9867	45.361257	0.000588	5.877229	0.995629	0.000118
 202	2.0000e+01	4.0069	45.429888	0.000345	3.445272	0.583645	0.000069
 203	2.0099e+01	4.0258	45.599448	0.000851	8.511848	1.441946	0.000170
 204	2.0198e+01	4.0472	45.752859	0.000770	7.701196	1.304618	0.000154
 205	2.0298e+01	4.0661	45.797268	0.000223	2.229294	0.377653	0.000045
 206	2.0398e+01	4.0856	45.974902	0.000892	8.917174	1.510610	0.000179
 207	2.0497e+01	4.1058	46.063719	0.000446	4.458587	0.755305	0.000089
 208	2.0596e+01	4.1265	46.184833	0.000608	6.079892	1.029962	0.000122
 209	2.0696e+01	4.1470	46.330170	0.000730	7.295870	1.235954	0.000146
 210	2.0796e+01	4.1656	46.423024	0.000466	4.661250	0.789637	0.000093
 211	2.0895e+01	4.1863	46.564324	0.000709	7.093207	1.201622	0.000142
 212	2.0994e+01	4.2059	46.701586	0.000689	6.890544	1.167290	0.000138
 213	2.1094e+01	4.2272	46.782329	0.000405	4.053261	0.686641	0.000081
 214	2.1194e+01	4.2455	46.895369	0.000567	5.674566	0.961297	0.000114
 215	2.1293e+01	4.2657	47.036668	0.000709	7.093207	1.201622	0.000142
 216	2.1392e+01	4.2858	47.141634	0.000527	5.269239	0.892633	0.000105
 217	2.1492e+01	4.3056	47.242562	0.000507	5.066576	0.858301	0.000101
 218	2.1591e+01	4.3255	47.367714	0.000628	6.282555	1.064294	0.000126
 219	2.1691e+01	4.3444	47.504976	0.000689	6.890544	1.167290	0.000138
 220	2.1791e+01	4.3652	47.601867	0.000486	4.863913	0.823969	0.000097
 221	2.1890e+01	4.3844	47.710870	0.000547	5.471902	0.926965	0.000110
 222	2.1989e+01	4.4053	47.860244	0.000750	7.498533	1.270286	0.000150
 223	2.2089e+01	4.4253	47.949061	0.000446	4.458587	0.755305	0.000089
 224	2.2189e+01	4.4451	48.094398	0.000730	7.295870	1.235954	0.000146
 225	2.2288e+01	4.4634	48.171104	0.000385	3.850598	0.652309	0.000077
 226	2.2387e+01	4.4842	48.328552	0.000790	7.903859	1.338950	0.000158
 227	2.2487e+01	4.5055	48.393146	0.000324	3.242609	0.549313	0.000065
 228	2.2587e+01	4.5245	48.530409	0.000689	6.890544	1.167290	0.000138
 229	2.2686e+01	4.5444	48.635374	0.000527	5.269239	0.892633	0.000105
 230	2.2785e+01	4.5654	48.744377	0.000547	5.471902	0.926965	0.000110
 231	2.2885e+01	4.5840	48.877602	0.000669	6.687881	1.132958	0.000134
 232	2.2985e+01	4.6044	49.010828	0.000669	6.687881	1.132958	0.000134
 233	2.3084e+01	4.6249	49.103682	0.000466	4.661250	0.789637	0.000093
 234	2.3183e+01	4.6444	49.228833	0.000628	6.282555	1.064294	0.000126
 235	2.3283e+01	4.6647	49.301502	0.000365	3.647935	0.617977	0.000073
 236	2.3383e+01	4.6836	49.446839	0.000730	7.295870	1.235954	0.000146
 237	2.3482e+01	4.7039	49.584101	0.000689	6.890544	1.167290	0.000138
 238	2.3581e+01	4.7245	49.693104	0.000547	5.471902	0.926965	0.000110
 239	2.3681e+01	4.7440	49.794032	0.000507	5.066576	0.858301	0.000101
 240	2.3780e+01	4.7643	49.882849	0.000446	4.458587	0.755305	0.000089
 241	2.3880e+01	4.7832	50.012038	0.000649	6.485218	1.098626	0.000130
 242	2.3980e+01	4.8032	50.125077	0.000567	5.674566	0.961297	0.000114
 243	2.4079e+01	4.8235	50.221969	0.000486	4.863913	0.823969	0.000097
 244	2.4178e+01	4.8431	50.375380	0.000770	7.701196	1.304618	0.000154
 245	2.4278e+01	4.8638	50.492457	0.000588	5.877229	0.995629	0.000118
 246	2.4378e+01	4.8830	50.589348	0.000486	4.863913	0.823969	0.000097
 247	2.4477e+01	4.9041	50.694313	0.000527	5.269239	0.892633	0.000105
 248	2.4576e+01	4.9239	50.815428	0.000608	6.079892	1.029962	0.000122
 249	2.4676e+01	4.9438	50.900207	0.000426	4.255924	0.720973	0.000085
 250	2.4776e+01	4.9639	51.037470	0.000689	6.890544	1.167290	0.000138
 251	2.4875e+01	4.9822	51.126287	0.000446	4.458587	0.755305	0.000089
 252	2.4974e+01	5.0034	51.271624	0.000730	7.295870	1.235954	0.000146
 253	2.5074e+01	5.0228	51.368515	0.000486	4.863913	0.823969	0.000097
 254	2.5174e+01	5.0433	51.505778	0.000689	6.890544	1.167290	0.000138
 255	2.5273e+01	5.0628	51.574409	0.000345	3.445272	0.583645	0.000069
 256	2.5372e+01	5.0817	51.711672	0.000689	6.890544	1.167290	0.000138
 257	2.5472e+01	5.1023	51.808563	0.000486	4.863913	0.823969	0.000097
 258	2.5572e+01	5.1171	51.885269	0.000385	3.850598	0.652309	0.000077
 259	2.5671e+01	5.1427	52.042717	0.000790	7.903859	1.338950	0.000158
 260	2.5770e+01	5.1617	52.135571	0.000466	4.661250	0.789637	0.000093
 261	2.5870e+01	5.1824	52.240536	0.000527	5.269239	0.892633	0.000105
 262	2.5970e+01	5.2016	52.373762	0.000669	6.687881	1.132958	0.000134
 263	2.6069e+01	5.2215	52.470653	0.000486	4.863913	0.823969	0.000097
 264	2.6169e+01	5.2433	52.583693	0.000567	5.674566	0.961297	0.000114
 265	2.6268e+01	5.2612	52.672510	0.000446	4.458587	0.755305	0.000089
 266	2.6367e+01	5.2813	52.793624	0.000608	6.079892	1.029962	0.000122
 267	2.6467e+01	5.3014	52.894552	0.000507	5.066576	0.858301	0.000101
 268	2.6567e+01	5.3216	53.027778	0.000669	6.687881	1.132958	0.000134
 269	2.6666e+01	5.3414	53.120632	0.000466	4.661250	0.789637	0.000093
 270	2.6765e+01	5.3611	53.270006	0.000750	7.498533	1.270286	0.000150
 271	2.6865e+01	5.3814	53.338637	0.000345	3.445272	0.583645	0.000069
 272	2.6965e+01	5.4009	53.496086	0.000790	7.903859	1.338950	0.000158
 273	2.7064e+01	5.4215	53.613163	0.000588	5.877229	0.995629	0.000118
 274	2.7163e+01	5.4412	53.710054	0.000486	4.863913	0.823969	0.000097
 275	2.7263e+01	5.4607	53.774648	0.000324	3.242609	0.549313	0.000065
 276	2.7363e+01	5.4821	53.960356	0.000932	9.322501	1.579274	0.000187
 277	2.7462e+01	5.5010	54.028988	0.000345	3.445272	0.583645	0.000069
 278	2.7561e+01	5.5206	54.146065	0.000588	5.877229	0.995629	0.000118
 279	2.7661e+01	5.5413	54.234882	0.000446	4.458587	0.755305	0.000089
 280	2.7761e+01	5.5608	54.364070	0.000649	6.485218	1.098626	0.000130
 281	2.7860e+01	5.5810	54.456924	0.000466	4.661250	0.789637	0.000093
 282	2.7959e+01	5.5996	54.549778	0.000466	4.661250	0.789637	0.000093
 283	2.8059e+01	5.6207	54.719338	0.000851	8.511848	1.441946	0.000170
 284	2.8159e+01	5.6402	54.771821	0.000263	2.634620	0.446317	0.000053
 285	2.8258e+01	5.6606	54.913120	0.000709	7.093207	1.201622	0.000142
 286	2.8358e+01	5.6802	55.022123	0.000547	5.471902	0.926965	0.000110
 287	2.8457e+01	5.7003	55.098829	0.000385	3.850598	0.652309	0.000077
 288	2.8556e+01	5.7198	55.203794	0.000527	5.269239	0.892633	0.000105
 289	2.8656e+01	5.7403	55.308760	0.000527	5.269239	0.892633	0.000105
 290	2.8756e+01	5.7603	55.446022	0.000689	6.890544	1.167290	0.000138
 291	2.8855e+01	5.7793	55.550988	0.000527	5.269239	0.892633	0.000105
 292	2.8954e+01	5.7995	55.647879	0.000486	4.863913	0.823969	0.000097
 293	2.9054e+01	5.8199	55.728622	0.000405	4.053261	0.686641	0.000081
 294	2.9154e+01	5.8398	55.825513	0.000486	4.863913	0.823969	0.000097
 295	2.9253e+01	5.8599	55.958738	0.000669	6.687881	1.132958	0.000134
 296	2.9352e+01	5.8801	56.067741	0.000547	5.471902	0.926965	0.000110
 297	2.9452e+01	5.9002	56.152521	0.000426	4.255924	0.720973	0.000085
 298	2.9552e+01	5.9191	56.253449	0.000507	5.066576	0.858301	0.000101
 299	2.9651e+01	5.9402	56.354378	0.000507	5.066576	0.858301	0.000101
 300	2.9750e+01	5.9594	56.467418	0.000567	5.674566	0.961297	0.000114
 301	2.9850e+01	5.9782	56.540086	0.000365	3.647935	0.617977	0.000073
 302	2.9950e+01	6.0000	56.685423	0.000730	7.295870	1.235954	0.000146
 303	3.0049e+01	6.0204	56.750017	0.000324	3.242609	0.549313	0.000065
 304	3.0148e+01	6.0387	56.875168	0.000628	6.282555	1.064294	0.000126
 305	3.0248e+01	6.0586	56.992245	0.000588	5.877229	0.995629	0.000118
 306	3.0348e+01	6.0790	57.093174	0.000507	5.066576	0.858301	0.000101
 307	3.0447e+01	6.0979	57.202176	0.000547	5.471902	0.926965	0.000110
 308	3.0547e+01	6.1187	57.303105	0.000507	5.066576	0.858301	0.000101
 309	3.0646e+01	6.1395	57.404033	0.000507	5.066576	0.858301	0.000101
 310	3.0745e+01	6.1587	57.444404	0.000203	2.026631	0.343321	0.000041
 311	3.0845e+01	6.1785	57.597816	0.000770	7.701196	1.304618	0.000154
 312	3.0945e+01	6.1987	57.678558	0.000405	4.053261	0.686641	0.000081
 313	3.1044e+01	6.2164	57.827932	0.000750	7.498533	1.270286	0.000150
 314	3.1143e+01	6.2389	57.928861	0.000507	5.066576	0.858301	0.000101
 315	3.1243e+01	6.2579	58.017678	0.000446	4.458587	0.755305	0.000089
 316	3.1343e+01	6.2777	58.110532	0.000466	4.661250	0.789637	0.000093
 317	3.1442e+01	6.2988	58.195312	0.000426	4.255924	0.720973	0.000085
 318	3.1541e+01	6.3171	58.328537	0.000669	6.687881	1.132958	0.000134
 319	3.1641e+01	6.3372	58.417354	0.000446	4.458587	0.755305	0.000089
 320	3.1741e+01	6.3570	58.550580	0.000669	6.687881	1.132958	0.000134
 321	3.1840e+01	6.3778	58.590951	0.000203	2.026631	0.343321	0.000041
 322	3.1939e+01	6.3967	58.732251	0.000709	7.093207	1.201622	0.000142
 323	3.2039e+01	6.4165	58.821068	0.000446	4.458587	0.755305	0.000089
 324	3.2139e+01	6.4373	58.917959	0.000486	4.863913	0.823969	0.000097
 325	3.2238e+01	6.4581	59.022924	0.000527	5.269239	0.892633	0.000105
 326	3.2337e+01	6.4776	59.152113	0.000649	6.485218	1.098626	0.000130
 327	3.2437e+01	6.4971	59.261115	0.000547	5.471902	0.926965	0.000110
 328	3.2536e+01	6.5166	59.358007	0.000486	4.863913	0.823969	0.000097
 329	3.2636e+01	6.5368	59.422601	0.000324	3.242609	0.549313	0.000065
 330	3.2736e+01	6.5566	59.551789	0.000649	6.485218	1.098626	0.000130
 331	3.2835e+01	6.5771	59.644643	0.000466	4.661250	0.789637	0.000093
 332	3.2934e+01	6.5972	59.737498	0.000466	4.661250	0.789637	0.000093
 333	3.3034e+01	6.6161	59.830352	0.000466	4.661250	0.789637	0.000093
 334	3.3133e+01	6.6363	59.979726	0.000750	7.498533	1.270286	0.000150
 335	3.3233e+01	6.6558	60.052394	0.000365	3.647935	0.617977	0.000073
 336	3.3333e+01	6.6766	60.169471	0.000588	5.877229	0.995629	0.000118
 337	3.3432e+01	6.6973	60.286548	0.000588	5.877229	0.995629	0.000118
 338	3.3532e+01	6.7156	60.347105	0.000304	3.039946	0.514981	0.000061
 339	3.3631e+01	6.7364	60.448033	0.000507	5.066576	0.858301	0.000101
 340	3.3730e+01	6.7568	60.593370	0.000730	7.295870	1.235954	0.000146
 341	3.3830e+01	6.7767	60.657964	0.000324	3.242609	0.549313	0.000065
 342	3.3929e+01	6.7960	60.775041	0.000588	5.877229	0.995629	0.000118
 343	3.4029e+01	6.8157	60.884044	0.000547	5.471902	0.926965	0.000110
 344	3.4129e+01	6.8349	60.956713	0.000365	3.647935	0.617977	0.000073
 345	3.4228e+01	6.8566	61.093975	0.000689	6.890544	1.167290	0.000138
 346	3.4328e+01	6.8755	61.186829	0.000466	4.661250	0.789637	0.000093
 347	3.4427e+01	6.8960	61.287758	0.000507	5.066576	0.858301	0.000101
 348	3.4526e+01	6.9155	61.348315	0.000304	3.039946	0.514981	0.000061
 349	3.4626e+01	6.9364	61.469429	0.000608	6.079892	1.029962	0.000122
 350	3.4725e+01	6.9561	61.582469	0.000567	5.674566	0.961297	0.000114
 351	3.4825e+01	6.9762	61.671286	0.000446	4.458587	0.755305	0.000089
 352	3.4925e+01	6.9946	61.780288	0.000547	5.471902	0.926965	0.000110
 353	3.5024e+01	7.0147	61.848920	0.000345	3.445272	0.583645	0.000069
 354	3.5123e+01	7.0351	61.961959	0.000567	5.674566	0.961297	0.000114
 355	3.5223e+01	7.0550	62.046739	0.000426	4.255924	0.720973	0.000085
 356	3.5322e+01	7.0742	62.123445	0.000385	3.850598	0.652309	0.000077
 357	3.5422e+01	7.0956	62.260707	0.000689	6.890544	1.167290	0.000138
 358	3.5522e+01	7.1154	62.329339	0.000345	3.445272	0.583645	0.000069
 359	3.5621e+01	7.1352	62.450453	0.000608	6.079892	1.029962	0.000122
 360	3.5721e+01	7.1551	62.539270	0.000446	4.458587	0.755305	0.000089
 361	3.5820e+01	7.1737	62.672495	0.000669	6.687881	1.132958	0.000134
 362	3.5919e+01	7.1940	62.757275	0.000426	4.255924	0.720973	0.000085
 363	3.6019e+01	7.2143	62.821869	0.000324	3.242609	0.549313	0.000065
 364	3.6118e+01	7.2344	62.902612	0.000405	4.053261	0.686641	0.000081
 365	3.6218e+01	7.2536	63.027763	0.000628	6.282555	1.064294	0.000126
 366	3.6318e+01	7.2741	63.112543	0.000426	4.255924	0.720973	0.000085
 367	3.6417e+01	7.2939	63.209434	0.000486	4.863913	0.823969	0.000097
 368	3.6517e+01	7.3138	63.290177	0.000405	4.053261	0.686641	0.000081
 369	3.6616e+01	7.3345	63.435514	0.000730	7.295870	1.235954	0.000146
 370	3.6715e+01	7.3534	63.508182	0.000365	3.647935	0.617977	0.000073
 371	3.6815e+01	7.3736	63.625259	0.000588	5.877229	0.995629	0.000118
 372	3.6914e+01	7.3937	63.710039	0.000426	4.255924	0.720973	0.000085
 373	3.7014e+01	7.4142	63.827116	0.000588	5.877229	0.995629	0.000118
 374	3.7114e+01	7.4346	63.915933	0.000446	4.458587	0.755305	0.000089
 375	3.7213e+01	7.4548	64.008787	0.000466	4.661250	0.789637	0.000093
 376	3.7313e+01	7.4737	64.146050	0.000689	6.890544	1.167290	0.000138
 377	3.7412e+01	7.4932	64.202570	0.000284	2.837283	0.480649	0.000057
 378	3.7511e+01	7.5134	64.299461	0.000486	4.863913	0.823969	0.000097
 379	3.7611e+01	7.5335	64.424612	0.000628	6.282555	1.064294	0.000126
 380	3.7711e+01	7.5530	64.501318	0.000385	3.850598	0.652309	0.000077
 381	3.7810e+01	7.5726	64.578023	0.000385	3.850598	0.652309	0.000077
 382	3.7910e+01	7.5927	64.711249	0.000669	6.687881	1.132958	0.000134
 383	3.8009e+01	7.6134	64.820251	0.000547	5.471902	0.926965	0.000110
 384	3.8108e+01	7.6330	64.900994	0.000405	4.053261	0.686641	0.000081
 385	3.8208e+01	7.6531	65.030182	0.000649	6.485218	1.098626	0.000130
 386	3.8307e+01	7.6727	65.135148	0.000527	5.269239	0.892633	0.000105
 387	3.8407e+01	7.6922	65.228002	0.000466	4.661250	0.789637	0.000093
 388	3.8507e+01	7.7105	65.304708	0.000385	3.850598	0.652309	0.000077
 389	3.8606e+01	7.7323	65.405636	0.000507	5.066576	0.858301	0.000101
 390	3.8706e+01	7.7520	65.538862	0.000669	6.687881	1.132958	0.000134
 391	3.8805e+01	7.7715	65.599419	0.000304	3.039946	0.514981	0.000061
 392	3.8904e+01	7.7911	65.720533	0.000608	6.079892	1.029962	0.000122
 393	3.9004e+01	7.8112	65.777053	0.000284	2.837283	0.480649	0.000057
 394	3.9103e+01	7.8313	65.902204	0.000628	6.282555	1.064294	0.000126
 395	3.9203e+01	7.8518	65.986984	0.000426	4.255924	0.720973	0.000085
 396	3.9303e+01	7.8716	66.059652	0.000365	3.647935	0.617977	0.000073
 397	3.9402e+01	7.8915	66.196915	0.000689	6.890544	1.167290	0.000138
 398	3.9502e+01	7.9110	66.253435	0.000284	2.837283	0.480649	0.000057
 399	3.9601e+01	7.9314	66.342252	0.000446	4.458587	0.755305	0.000089
 400	3.9700e+01	7.9513	66.463366	0.000608	6.079892	1.029962	0.000122
 401	3.9800e+01	7.9723	66.556220	0.000466	4.661250	0.789637	0.000093
 402	3.9900e+01	7.9919	66.677334	0.000608	6.079892	1.029962	0.000122
 403	3.9999e+01	8.0112	66.729817	0.000263	2.634620	0.446317	0.000053
 404	4.0099e+01	8.0309	66.875154	0.000730	7.295870	1.235954	0.000146
 405	4.0198e+01	8.0517	66.959933	0.000426	4.255924	0.720973	0.000085
 406	4.0297e+01	8.0706	67.008379	0.000243	2.431957	0.411985	0.000049
 407	4.0397e+01	8.0901	67.141604	0.000669	6.687881	1.132958	0.000134
 408	4.0496e+01	8.1115	67.230421	0.000446	4.458587	0.755305	0.000089
 409	4.0596e+01	8.1310	67.327313	0.000486	4.863913	0.823969	0.000097
 410	4.0696e+01	8.1504	67.404018	0.000385	3.850598	0.652309	0.000077
 411	4.0795e+01	8.1707	67.533207	0.000649	6.485218	1.098626	0.000130
 412	4.0895e+01	8.1905	67.593764	0.000304	3.039946	0.514981	0.000061
 413	4.0994e+01	8.2110	67.694692	0.000507	5.066576	0.858301	0.000101
 414	4.1093e+01	8.2305	67.795620	0.000507	5.066576	0.858301	0.000101
 415	4.1193e+01	8.2500	67.876363	0.000405	4.053261	0.686641	0.000081
 416	4.1292e+01	8.2690	67.969217	0.000466	4.661250	0.789637	0.000093
 417	4.1392e+01	8.2897	68.074183	0.000527	5.269239	0.892633	0.000105
 418	4.1492e+01	8.3099	68.195297	0.000608	6.079892	1.029962	0.000122
 419	4.1591e+01	8.3300	68.239705	0.000223	2.229294	0.377653	0.000045
 420	4.1691e+01	8.3495	68.348708	0.000547	5.471902	0.926965	0.000110
 421	4.1790e+01	8.3694	68.441562	0.000466	4.661250	0.789637	0.000093
 422	4.1889e+01	8.3898	68.514231	0.000365	3.647935	0.617977	0.000073
 423	4.1989e+01	8.4103	68.627270	0.000567	5.674566	0.961297	0.000114
 424	4.2089e+01	8.4295	68.732236	0.000527	5.269239	0.892633	0.000105
 425	4.2188e+01	8.4490	68.780682	0.000243	2.431957	0.411985	0.000049
 426	4.2288e+01	8.4698	68.930056	0.000750	7.498533	1.270286	0.000150
 427	4.2387e+01	8.4893	69.030984	0.000507	5.066576	0.858301	0.000101
 428	4.2486e+01	8.5082	69.071355	0.000203	2.026631	0.343321	0.000041
 429	4.2586e+01	8.5296	69.204581	0.000669	6.687881	1.132958	0.000134
 430	4.2685e+01	8.5497	69.265138	0.000304	3.039946	0.514981	0.000061
 431	4.2785e+01	8.5696	69.353955	0.000446	4.458587	0.755305	0.000089
 432	4.2885e+01	8.5888	69.491217	0.000689	6.890544	1.167290	0.000138
 433	4.2984e+01	8.6095	69.515440	0.000122	1.215978	0.205992	0.000024
 434	4.3084e+01	8.6297	69.628480	0.000567	5.674566	0.961297	0.000114
 435	4.3183e+01	8.6486	69.717297	0.000446	4.458587	0.755305	0.000089
 436	4.3282e+01	8.6700	69.850523	0.000669	6.687881	1.132958	0.000134
 437	4.3382e+01	8.6886	69.898968	0.000243	2.431957	0.411985	0.000049
 438	4.3481e+01	8.7078	70.020082	0.000608	6.079892	1.029962	0.000122
 439	4.3581e+01	8.7283	70.104862	0.000426	4.255924	0.720973	0.000085
 440	4.3681e+01	8.7493	70.201753	0.000486	4.863913	0.823969	0.000097
 441	4.3780e+01	8.7695	70.294607	0.000466	4.661250	0.789637	0.000093
 442	4.3880e+01	8.7890	70.391499	0.000486	4.863913	0.823969	0.000097
 443	4.3979e+01	8.8082	70.492427	0.000507	5.066576	0.858301	0.000101
 444	4.4078e+01	8.8287	70.585281	0.000466	4.661250	0.789637	0.000093
 445	4.4178e+01	8.8476	70.657950	0.000365	3.647935	0.617977	0.000073
 446	4.4278e+01	8.8683	70.734655	0.000385	3.850598	0.652309	0.000077
 447	4.4377e+01	8.8869	70.835584	0.000507	5.066576	0.858301	0.000101
 448	4.4477e+01	8.9074	70.904215	0.000345	3.445272	0.583645	0.000069
 449	4.4576e+01	8.9263	71.009180	0.000527	5.269239	0.892633	0.000105
 450	4.4675e+01	8.9468	71.146443	0.000689	6.890544	1.167290	0.000138
 451	4.4775e+01	8.9660	71.231223	0.000426	4.255924	0.720973	0.000085
 452	4.4874e+01	8.9867	71.324077	0.000466	4.661250	0.789637	0.000093
 453	4.4974e+01	9.0057	71.408857	0.000426	4.255924	0.720973	0.000085
 454	4.5074e+01	9.0264	71.485563	0.000385	3.850598	0.652309	0.000077
 455	4.5173e+01	9.0478	71.546120	0.000304	3.039946	0.514981	0.000061
 456	4.5273e+01	9.0661	71.655122	0.000547	5.471902	0.926965	0.000110
 457	4.5372e+01	9.0862	71.756051	0.000507	5.066576	0.858301	0.000101
 458	4.5471e+01	9.1058	71.836793	0.000405	4.053261	0.686641	0.000081
 459	4.5571e+01	9.1259	71.917536	0.000405	4.053261	0.686641	0.000081
 460	4.5670e+01	9.1460	71.994242	0.000385	3.850598	0.652309	0.000077
 461	4.5770e+01	9.1668	72.099207	0.000527	5.269239	0.892633	0.000105
 462	4.5870e+01	9.1863	72.183987	0.000426	4.255924	0.720973	0.000085
 463	4.5969e+01	9.2065	72.244544	0.000304	3.039946	0.514981	0.000061
 464	4.6069e+01	9.2254	72.377770	0.000669	6.687881	1.132958	0.000134
 465	4.6168e+01	9.2461	72.422178	0.000223	2.229294	0.377653	0.000045
 466	4.6267e+01	9.2651	72.523106	0.000507	5.066576	0.858301	0.000101
 467	4.6367e+01	9.2852	72.640183	0.000588	5.877229	0.995629	0.000118
 468	4.6467e+01	9.3047	72.712852	0.000365	3.647935	0.617977	0.000073
 469	4.6566e+01	9.3252	72.785520	0.000365	3.647935	0.617977	0.000073
 470	4.6666e+01	9.3450	72.874337	0.000446	4.458587	0.755305	0.000089
 471	4.6765e+01	9.3655	72.955080	0.000405	4.053261	0.686641	0.000081
 472	4.6864e+01	9.3859	73.035823	0.000405	4.053261	0.686641	0.000081
 473	4.6964e+01	9.4048	73.120602	0.000426	4.255924	0.720973	0.000085
 474	4.7063e+01	9.4250	73.213457	0.000466	4.661250	0.789637	0.000093
 475	4.7163e+01	9.4445	73.302274	0.000446	4.458587	0.755305	0.000089
 476	4.7263e+01	9.4653	73.435499	0.000669	6.687881	1.132958	0.000134
 477	4.7362e+01	9.4842	73.504130	0.000345	3.445272	0.583645	0.000069
 478	4.7462e+01	9.5042	73.556613	0.000263	2.634620	0.446317	0.000053
 479	4.7561e+01	9.5245	73.673690	0.000588	5.877229	0.995629	0.000118
 480	4.7660e+01	9.5452	73.746359	0.000365	3.647935	0.617977	0.000073
 481	4.7760e+01	9.5641	73.831138	0.000426	4.255924	0.720973	0.000085
 482	4.7859e+01	9.5840	73.907844	0.000385	3.850598	0.652309	0.000077
 483	4.7959e+01	9.6044	74.004735	0.000486	4.863913	0.823969	0.000097
 484	4.8059e+01	9.6249	74.093552	0.000446	4.458587	0.755305	0.000089
 485	4.8158e+01	9.6441	74.154109	0.000304	3.039946	0.514981	0.000061
 486	4.8258e+01	9.6642	74.259075	0.000527	5.269239	0.892633	0.000105
 487	4.8357e+01	9.6850	74.347892	0.000446	4.458587	0.755305	0.000089
 488	4.8456e+01	9.7039	74.416523	0.000345	3.445272	0.583645	0.000069
 489	4.8556e+01	9.7240	74.509377	0.000466	4.661250	0.789637	0.000093
 490	4.8656e+01	9.7436	74.634528	0.000628	6.282555	1.064294	0.000126
 491	4.8755e+01	9.7643	74.731420	0.000486	4.863913	0.823969	0.000097
 492	4.8855e+01	9.7832	74.783902	0.000263	2.634620	0.446317	0.000053
 493	4.8954e+01	9.8037	74.852534	0.000345	3.445272	0.583645	0.000069
 494	4.9053e+01	9.8235	74.921165	0.000345	3.445272	0.583645	0.000069
 495	4.9153e+01	9.8434	74.997871	0.000385	3.850598	0.652309	0.000077
 496	4.9252e+01	9.8638	75.114948	0.000588	5.877229	0.995629	0.000118
 497	4.9352e+01	9.8827	75.187616	0.000365	3.647935	0.617977	0.000073
 498	4.9452e+01	9.9041	75.284507	0.000486	4.863913	0.823969	0.000097
 499	4.9551e+01	9.9224	75.377361	0.000466	4.661250	0.789637	0.000093
 500	4.9651e+01	9.9426	75.425807	0.000243	2.431957	0.411985	0.000049
 501	4.9750e+01	9.9633	75.538847	0.000567	5.674566	0.961297	0.000114
 502	4.9849e+01	9.9822	75.635738	0.000486	4.863913	0.823969	0.000097
 503	4.9949e+01	9.9999	75.740704	0.000527	5.269239	0.892633	0.000105
 504	5.0048e+01	9.9834	75.627664	0.000567	5.674566	0.961297	-0.000114
 505	5.0148e+01	9.9627	75.583255	0.000223	2.229294	0.377653	-0.000045
 506	5.0248e+01	9.9422	75.474253	0.000547	5.471902	0.926965	-0.000110
 507	5.0347e+01	9.9230	75.450030	0.000122	1.215978	0.205992	-0.000024
 508	5.0447e+01	9.9035	75.389473	0.000304	3.039946	0.514981	-0.000061
 509	5.0546e+01	9.8833	75.304693	0.000426	4.255924	0.720973	-0.000085
 510	5.0645e+01	9.8638	75.227987	0.000385	3.850598	0.652309	-0.000077
 511	5.0745e+01	9.8437	75.163393	0.000324	3.242609	0.549313	-0.000065
 512	5.0844e+01	9.8235	75.110910	0.000263	2.634620	0.446317	-0.000053
 513	5.0944e+01	9.8034	75.018056	0.000466	4.661250	0.789637	-0.000093
 514	5.1044e+01	9.7832	74.977685	0.000203	2.026631	0.343321	-0.000041
 515	5.1143e+01	9.7637	74.917128	0.000304	3.039946	0.514981	-0.000061
 516	5.1242e+01	9.7442	74.824274	0.000466	4.661250	0.789637	-0.000093
 517	5.1342e+01	9.7247	74.731420	0.000466	4.661250	0.789637	-0.000093
 518	5.1441e+01	9.7039	74.670863	0.000304	3.039946	0.514981	-0.000061
 519	5.1541e+01	9.6838	74.590120	0.000405	4.053261	0.686641	-0.000081
 520	5.1641e+01	9.6636	74.505340	0.000426	4.255924	0.720973	-0.000085
 521	5.1740e+01	9.6441	74.432672	0.000365	3.647935	0.617977	-0.000073
 522	5.1840e+01	9.6243	74.355966	0.000385	3.850598	0.652309	-0.000077
 523	5.1939e+01	9.6044	74.267149	0.000446	4.458587	0.755305	-0.000089
 524	5.2038e+01	9.5843	74.230815	0.000182	1.823967	0.308988	-0.000037
 525	5.2138e+01	9.5635	74.141998	0.000446	4.458587	0.755305	-0.000089
 526	5.2237e+01	9.5440	74.073367	0.000345	3.445272	0.583645	-0.000069
 527	5.2337e+01	9.5251	73.956290	0.000588	5.877229	0.995629	-0.000118
 528	5.2437e+01	9.5043	73.899770	0.000284	2.837283	0.480649	-0.000057
 529	5.2536e+01	9.4842	73.810953	0.000446	4.458587	0.755305	-0.000089
 530	5.2636e+01	9.4640	73.730210	0.000405	4.053261	0.686641	-0.000081
 531	5.2735e+01	9.4457	73.673690	0.000284	2.837283	0.480649	-0.000057
 532	5.2834e+01	9.4247	73.556613	0.000588	5.877229	0.995629	-0.000118
 533	5.2934e+01	9.4048	73.508168	0.000243	2.431957	0.411985	-0.000049
 534	5.3033e+01	9.3850	73.411276	0.000486	4.863913	0.823969	-0.000097
 535	5.3133e+01	9.3652	73.338608	0.000365	3.647935	0.617977	-0.000073
 536	5.3233e+01	9.3450	73.278051	0.000304	3.039946	0.514981	-0.000061
 537	5.3332e+01	9.3258	73.173085	0.000527	5.269239	0.892633	-0.000105
 538	5.3431e+01	9.3060	73.116565	0.000284	2.837283	0.480649	-0.000057
 539	5.3531e+01	9.2855	73.088305	0.000142	1.418641	0.240324	-0.000028
 540	5.3630e+01	9.2645	72.979303	0.000547	5.471902	0.926965	-0.000110
 541	5.3730e+01	9.2458	72.890486	0.000446	4.458587	0.755305	-0.000089
 542	5.3830e+01	9.2229	72.821854	0.000345	3.445272	0.583645	-0.000069
 543	5.3929e+01	9.2068	72.757260	0.000324	3.242609	0.549313	-0.000065
 544	5.4029e+01	9.1857	72.668443	0.000446	4.458587	0.755305	-0.000089
 545	5.4128e+01	9.1662	72.628072	0.000203	2.026631	0.343321	-0.000041
 546	5.4227e+01	9.1463	72.555403	0.000365	3.647935	0.617977	-0.000073
 547	5.4327e+01	9.1265	72.462549	0.000466	4.661250	0.789637	-0.000093
 548	5.4426e+01	9.1064	72.389881	0.000365	3.647935	0.617977	-0.000073
 549	5.4526e+01	9.0868	72.297027	0.000466	4.661250	0.789637	-0.000093
 550	5.4626e+01	9.0670	72.256655	0.000203	2.026631	0.343321	-0.000041
 551	5.4725e+01	9.0459	72.127467	0.000649	6.485218	1.098626	-0.000130
 552	5.4825e+01	9.0276	72.103244	0.000122	1.215978	0.205992	-0.000024
 553	5.4924e+01	9.0075	72.018464	0.000426	4.255924	0.720973	-0.000085
 554	5.5023e+01	8.9867	71.957907	0.000304	3.039946	0.514981	-0.000061
 555	5.5123e+01	8.9684	71.865053	0.000466	4.661250	0.789637	-0.000093
 556	5.5222e+01	8.9477	71.812571	0.000263	2.634620	0.446317	-0.000053
 557	5.5322e+01	8.9269	71.711642	0.000507	5.066576	0.858301	-0.000101
 558	5.5422e+01	8.9074	71.614751	0.000486	4.863913	0.823969	-0.000097
 559	5.5521e+01	8.8866	71.538045	0.000385	3.850598	0.652309	-0.000077
 560	5.5620e+01	8.8674	71.501711	0.000182	1.823967	0.308988	-0.000037
 561	5.5720e+01	8.8467	71.368486	0.000669	6.687881	1.132958	-0.000134
 562	5.5819e+01	8.8284	71.344263	0.000122	1.215978	0.205992	-0.000024
 563	5.5919e+01	8.8071	71.243334	0.000507	5.066576	0.858301	-0.000101
 564	5.6019e+01	8.7884	71.182777	0.000304	3.039946	0.514981	-0.000061
 565	5.6118e+01	8.7682	71.081849	0.000507	5.066576	0.858301	-0.000101
 566	5.6218e+01	8.7493	70.993032	0.000446	4.458587	0.755305	-0.000089
 567	5.6317e+01	8.7286	70.920364	0.000365	3.647935	0.617977	-0.000073
 568	5.6416e+01	8.7078	70.843658	0.000385	3.850598	0.652309	-0.000077
 569	5.6516e+01	8.6883	70.742730	0.000507	5.066576	0.858301	-0.000101
 570	5.6615e+01	8.6684	70.678135	0.000324	3.242609	0.549313	-0.000065
 571	5.6715e+01	8.6486	70.605467	0.000365	3.647935	0.617977	-0.000073
 572	5.6815e+01	8.6297	70.528761	0.000385	3.850598	0.652309	-0.000077
 573	5.6914e+01	8.6095	70.435907	0.000466	4.661250	0.789637	-0.000093
 574	5.7014e+01	8.5882	70.371313	0.000324	3.242609	0.549313	-0.000065
 575	5.7113e+01	8.5696	70.286533	0.000426	4.255924	0.720973	-0.000085
 576	5.7212e+01	8.5491	70.177531	0.000547	5.471902	0.926965	-0.000110
 577	5.7312e+01	8.5290	70.108899	0.000345	3.445272	0.583645	-0.000069
 578	5.7411e+01	8.5094	70.048342	0.000304	3.039946	0.514981	-0.000061
 579	5.7511e+01	8.4887	69.959525	0.000446	4.458587	0.755305	-0.000089
 580	5.7611e+01	8.4689	69.870708	0.000446	4.458587	0.755305	-0.000089
 581	5.7710e+01	8.4502	69.802077	0.000345	3.445272	0.583645	-0.000069
 582	5.7809e+01	8.4301	69.717297	0.000426	4.255924	0.720973	-0.000085
 583	5.7909e+01	8.4106	69.612332	0.000527	5.269239	0.892633	-0.000105
 584	5.8008e+01	8.3904	69.563886	0.000243	2.431957	0.411985	-0.000049
 585	5.8108e+01	8.3697	69.511403	0.000263	2.634620	0.446317	-0.000053
 586	5.8208e+01	8.3514	69.410475	0.000507	5.066576	0.858301	-0.000101
 587	5.8307e+01	8.3306	69.285324	0.000628	6.282555	1.064294	-0.000126
 588	5.8407e+01	8.3092	69.212655	0.000365	3.647935	0.617977	-0.000073
 589	5.8506e+01	8.2897	69.144024	0.000345	3.445272	0.583645	-0.000069
 590	5.8605e+01	8.2702	69.059244	0.000426	4.255924	0.720973	-0.000085
 591	5.8705e+01	8.2500	68.978501	0.000405	4.053261	0.686641	-0.000081
 592	5.8804e+01	8.2305	68.893721	0.000426	4.255924	0.720973	-0.000085
 593	5.8904e+01	8.2107	68.841239	0.000263	2.634620	0.446317	-0.000053
 594	5.9004e+01	8.1908	68.736273	0.000527	5.269239	0.892633	-0.000105
 595	5.9103e+01	8.1701	68.667642	0.000345	3.445272	0.583645	-0.000069
 596	5.9203e+01	8.1509	68.558639	0.000547	5.471902	0.926965	-0.000110
 597	5.9302e+01	8.1304	68.457711	0.000507	5.066576	0.858301	-0.000101
 598	5.9401e+01	8.1115	68.409265	0.000243	2.431957	0.411985	-0.000049
 599	5.9501e+01	8.0917	68.308337	0.000507	5.066576	0.858301	-0.000101
 600	5.9600e+01	8.0712	68.223557	0.000426	4.255924	0.720973	-0.000085
 601	5.9700e+01	8.0517	68.150888	0.000365	3.647935	0.617977	-0.000073
 602	5.9800e+01	8.0315	68.053997	0.000486	4.863913	0.823969	-0.000097
 603	5.9899e+01	8.0125	67.977292	0.000385	3.850598	0.652309	-0.000077
 604	5.9998e+01	7.9906	67.912697	0.000324	3.242609	0.549313	-0.000065
 605	6.0098e+01	7.9717	67.827918	0.000426	4.255924	0.720973	-0.000085
 606	6.0197e+01	7.9510	67.739101	0.000446	4.458587	0.755305	-0.000089
 607	6.0297e+01	7.9314	67.654321	0.000426	4.255924	0.720973	-0.000085
 608	6.0397e+01	7.9119	67.593764	0.000304	3.039946	0.514981	-0.000061
 609	6.0496e+01	7.8905	67.492835	0.000507	5.066576	0.858301	-0.000101
 610	6.0596e+01	7.8716	67.404018	0.000446	4.458587	0.755305	-0.000089
 611	6.0695e+01	7.8515	67.319238	0.000426	4.255924	0.720973	-0.000085
 612	6.0794e+01	7.8320	67.270793	0.000243	2.431957	0.411985	-0.000049
 613	6.0894e+01	7.8130	67.157753	0.000567	5.674566	0.961297	-0.000114
 614	6.0993e+01	7.7923	67.085085	0.000365	3.647935	0.617977	-0.000073
 615	6.1093e+01	7.7721	66.963970	0.000608	6.079892	1.029962	-0.000122
 616	6.1193e+01	7.7514	66.895339	0.000345	3.445272	0.583645	-0.000069
 617	6.1292e+01	7.7331	66.867079	0.000142	1.418641	0.240324	-0.000028
 618	6.1392e+01	7.7123	66.721742	0.000730	7.295870	1.235954	-0.000146
 619	6.1491e+01	7.6922	66.677334	0.000223	2.229294	0.377653	-0.000045
 620	6.1590e+01	7.6733	66.568331	0.000547	5.471902	0.926965	-0.000110
 621	6.1690e+01	7.6525	66.471440	0.000486	4.863913	0.823969	-0.000097
 622	6.1789e+01	7.6330	66.406846	0.000324	3.242609	0.549313	-0.000065
 623	6.1889e+01	7.6128	66.322066	0.000426	4.255924	0.720973	-0.000085
 624	6.1989e+01	7.5924	66.225175	0.000486	4.863913	0.823969	-0.000097
 625	6.2088e+01	7.5732	66.132321	0.000466	4.661250	0.789637	-0.000093
 626	6.2188e+01	7.5527	66.071763	0.000304	3.039946	0.514981	-0.000061
 627	6.2287e+01	7.5323	65.962761	0.000547	5.471902	0.926965	-0.000110
 628	6.2386e+01	7.5124	65.877981	0.000426	4.255924	0.720973	-0.000085
 629	6.2486e+01	7.4932	65.789164	0.000446	4.458587	0.755305	-0.000089
 630	6.2586e+01	7.4737	65.680161	0.000547	5.471902	0.926965	-0.000110
 631	6.2685e+01	7.4538	65.643827	0.000182	1.823967	0.308988	-0.000037
 632	6.2785e+01	7.4340	65.538862	0.000527	5.269239	0.892633	-0.000105
 633	6.2884e+01	7.4142	65.421785	0.000588	5.877229	0.995629	-0.000118
 634	6.2983e+01	7.3937	65.328931	0.000466	4.661250	0.789637	-0.000093
 635	6.3083e+01	7.3736	65.264336	0.000324	3.242609	0.549313	-0.000065
 636	6.3182e+01	7.3537	65.155334	0.000547	5.471902	0.926965	-0.000110
 637	6.3282e+01	7.3342	65.058442	0.000486	4.863913	0.823969	-0.000097
 638	6.3382e+01	7.3135	65.018071	0.000203	2.026631	0.343321	-0.000041
 639	6.3481e+01	7.2945	64.917143	0.000507	5.066576	0.858301	-0.000101
 640	6.3581e+01	7.2738	64.775843	0.000709	7.093207	1.201622	-0.000142
 641	6.3680e+01	7.2546	64.695100	0.000405	4.053261	0.686641	-0.000081
 642	6.3779e+01	7.2341	64.650692	0.000223	2.229294	0.377653	-0.000045
 643	6.3879e+01	7.2147	64.501318	0.000750	7.498533	1.270286	-0.000150
 644	6.3978e+01	7.1941	64.420575	0.000405	4.053261	0.686641	-0.000081
 645	6.4078e+01	7.1752	64.315609	0.000527	5.269239	0.892633	-0.000105
 646	6.4177e+01	7.1539	64.287349	0.000142	1.418641	0.240324	-0.000028
 647	6.4277e+01	7.1346	64.210644	0.000385	3.850598	0.652309	-0.000077
 648	6.4376e+01	7.1157	64.085493	0.000628	6.282555	1.064294	-0.000126
 649	6.4476e+01	7.0947	64.004750	0.000405	4.053261	0.686641	-0.000081
 650	6.4576e+01	7.0739	63.911896	0.000466	4.661250	0.789637	-0.000093
 651	6.4675e+01	7.0544	63.839227	0.000365	3.647935	0.617977	-0.000073
 652	6.4775e+01	7.0348	63.714076	0.000628	6.282555	1.064294	-0.000126
 653	6.4874e+01	7.0156	63.657556	0.000284	2.837283	0.480649	-0.000057
 654	6.4974e+01	6.9946	63.548554	0.000547	5.471902	0.926965	-0.000110
 655	6.5073e+01	6.9750	63.423402	0.000628	6.282555	1.064294	-0.000126
 656	6.5172e+01	6.9558	63.370920	0.000263	2.634620	0.446317	-0.000053
 657	6.5272e+01	6.9350	63.278066	0.000466	4.661250	0.789637	-0.000093
 658	6.5371e+01	6.9158	63.173100	0.000527	5.269239	0.892633	-0.000105
 659	6.5471e+01	6.8966	63.060060	0.000567	5.674566	0.961297	-0.000114
 660	6.5570e+01	6.8755	63.015652	0.000223	2.229294	0.377653	-0.000045
 661	6.5670e+01	6.8566	62.906649	0.000547	5.471902	0.926965	-0.000110
 662	6.5769e+01	6.8359	62.821869	0.000426	4.255924	0.720973	-0.000085
 663	6.5869e+01	6.8169	62.749201	0.000365	3.647935	0.617977	-0.000073
 664	6.5969e+01	6.7944	62.636161	0.000567	5.674566	0.961297	-0.000114
 665	6.6068e+01	6.7757	62.527158	0.000547	5.471902	0.926965	-0.000110
 666	6.6168e+01	6.7559	62.450453	0.000385	3.850598	0.652309	-0.000077
 667	6.6267e+01	6.7364	62.353561	0.000486	4.863913	0.823969	-0.000097
 668	6.6367e+01	6.7159	62.276856	0.000385	3.850598	0.652309	-0.000077
 669	6.6466e+01	6.6961	62.184002	0.000466	4.661250	0.789637	-0.000093
 670	6.6566e+01	6.6759	62.119408	0.000324	3.242609	0.549313	-0.000065
 671	6.6665e+01	6.6561	62.010405	0.000547	5.471902	0.926965	-0.000110
 672	6.6764e+01	6.6363	61.909477	0.000507	5.066576	0.858301	-0.000101
 673	6.6864e+01	6.6161	61.816622	0.000466	4.661250	0.789637	-0.000093
 674	6.6963e+01	6.5971	61.727805	0.000446	4.458587	0.755305	-0.000089
 675	6.7063e+01	6.5765	61.634951	0.000466	4.661250	0.789637	-0.000093
 676	6.7162e+01	6.5568	61.513837	0.000608	6.079892	1.029962	-0.000122
 677	6.7262e+01	6.5372	61.425020	0.000446	4.458587	0.755305	-0.000089
 678	6.7362e+01	6.5173	61.360426	0.000324	3.242609	0.549313	-0.000065
 679	6.7461e+01	6.4965	61.251423	0.000547	5.471902	0.926965	-0.000110
 680	6.7561e+01	6.4768	61.146458	0.000527	5.269239	0.892633	-0.000105
 681	6.7660e+01	6.4574	61.073789	0.000365	3.647935	0.617977	-0.000073
 682	6.7760e+01	6.4373	60.972861	0.000507	5.066576	0.858301	-0.000101
 683	6.7859e+01	6.4178	60.859821	0.000567	5.674566	0.961297	-0.000114
 684	6.7959e+01	6.3970	60.803301	0.000284	2.837283	0.480649	-0.000057
 685	6.8058e+01	6.3767	60.686224	0.000588	5.877229	0.995629	-0.000118
 686	6.8157e+01	6.3570	60.569147	0.000588	5.877229	0.995629	-0.000118
 687	6.8257e+01	6.3372	60.520702	0.000243	2.431957	0.411985	-0.000049
 688	6.8356e+01	6.3165	60.395551	0.000628	6.282555	1.064294	-0.000126
 689	6.8456e+01	6.2975	60.326919	0.000345	3.445272	0.583645	-0.000069
 690	6.8555e+01	6.2786	60.205805	0.000608	6.079892	1.029962	-0.000122
 691	6.8655e+01	6.2591	60.125063	0.000405	4.053261	0.686641	-0.000081
 692	6.8754e+01	6.2371	60.036246	0.000446	4.458587	0.755305	-0.000089
 693	6.8854e+01	6.2185	59.947429	0.000446	4.458587	0.755305	-0.000089
 694	6.8954e+01	6.1985	59.846500	0.000507	5.066576	0.858301	-0.000101
 695	6.9053e+01	6.1785	59.717312	0.000649	6.485218	1.098626	-0.000130
 696	6.9153e+01	6.1587	59.660792	0.000284	2.837283	0.480649	-0.000057
 697	6.9252e+01	6.1395	59.539678	0.000608	6.079892	1.029962	-0.000122
 698	6.9352e+01	6.1193	59.434712	0.000527	5.269239	0.892633	-0.000105
 699	6.9451e+01	6.0989	59.362044	0.000365	3.647935	0.617977	-0.000073
 700	6.9550e+01	6.0784	59.273227	0.000446	4.458587	0.755305	-0.000089
 701	6.9650e+01	6.0589	59.152113	0.000608	6.079892	1.029962	-0.000122
 702	6.9749e+01	6.0381	59.095593	0.000284	2.837283	0.480649	-0.000057
 703	6.9849e+01	6.0204	58.994665	0.000507	5.066576	0.858301	-0.000101
 704	6.9948e+01	6.0009	58.881625	0.000567	5.674566	0.961297	-0.000114
 705	7.0048e+01	5.9808	58.800882	0.000405	4.053261	0.686641	-0.000081
 706	7.0147e+01	5.9585	58.687842	0.000567	5.674566	0.961297	-0.000114
 707	7.0247e+01	5.9393	58.599025	0.000446	4.458587	0.755305	-0.000089
 708	7.0347e+01	5.9194	58.530394	0.000345	3.445272	0.583645	-0.000069
 709	7.0446e+01	5.8996	58.417354	0.000567	5.674566	0.961297	-0.000114
 710	7.0546e+01	5.8807	58.308351	0.000547	5.471902	0.926965	-0.000110
 711	7.0645e+01	5.8608	58.243757	0.000324	3.242609	0.549313	-0.000065
 712	7.0745e+01	5.8407	58.122643	0.000608	6.079892	1.029962	-0.000122
 713	7.0844e+01	5.8202	58.021715	0.000507	5.066576	0.858301	-0.000101
 714	7.0944e+01	5.8001	57.965195	0.000284	2.837283	0.480649	-0.000057
 715	7.1043e+01	5.7767	57.831969	0.000669	6.687881	1.132958	-0.000134
 716	7.1142e+01	5.7595	57.747190	0.000426	4.255924	0.720973	-0.000085
 717	7.1242e+01	5.7397	57.682595	0.000324	3.242609	0.549313	-0.000065
 718	7.1341e+01	5.7201	57.585704	0.000486	4.863913	0.823969	-0.000097
 719	7.1441e+01	5.7006	57.480739	0.000527	5.269239	0.892633	-0.000105
 720	7.1540e+01	5.6802	57.391922	0.000446	4.458587	0.755305	-0.000089
 721	7.1640e+01	5.6603	57.311179	0.000405	4.053261	0.686641	-0.000081
 722	7.1740e+01	5.6396	57.169879	0.000709	7.093207	1.201622	-0.000142
 723	7.1839e+01	5.6216	57.109322	0.000304	3.039946	0.514981	-0.000061
 724	7.1939e+01	5.6005	57.020505	0.000446	4.458587	0.755305	-0.000089
 725	7.2038e+01	5.5804	56.915540	0.000527	5.269239	0.892633	-0.000105
 726	7.2138e+01	5.5608	56.786351	0.000649	6.485218	1.098626	-0.000130
 727	7.2237e+01	5.5416	56.701571	0.000426	4.255924	0.720973	-0.000085
 728	7.2337e+01	5.5212	56.632940	0.000345	3.445272	0.583645	-0.000069
 729	7.2436e+01	5.5004	56.523937	0.000547	5.471902	0.926965	-0.000110
 730	7.2535e+01	5.4815	56.374563	0.000750	7.498533	1.270286	-0.000150
 731	7.2635e+01	5.4601	56.334192	0.000203	2.026631	0.343321	-0.000041
 732	7.2734e+01	5.4399	56.249412	0.000426	4.255924	0.720973	-0.000085
 733	7.2834e+01	5.4205	56.120224	0.000649	6.485218	1.098626	-0.000130
 734	7.2933e+01	5.4006	56.015258	0.000527	5.269239	0.892633	-0.000105
 735	7.3033e+01	5.3811	55.926441	0.000446	4.458587	0.755305	-0.000089
 736	7.3132e+01	5.3613	55.833587	0.000466	4.661250	0.789637	-0.000093
 737	7.3232e+01	5.3414	55.728622	0.000527	5.269239	0.892633	-0.000105
 738	7.3332e+01	5.3213	55.643842	0.000426	4.255924	0.720973	-0.000085
 739	7.3431e+01	5.3025	55.518691	0.000628	6.282555	1.064294	-0.000126
 740	7.3531e+01	5.2819	55.441985	0.000385	3.850598	0.652309	-0.000077
 741	7.3630e+01	5.2624	55.341057	0.000507	5.066576	0.858301	-0.000101
 742	7.3730e+01	5.2422	55.232054	0.000547	5.471902	0.926965	-0.000110
 743	7.3829e+01	5.2209	55.139200	0.000466	4.661250	0.789637	-0.000093
 744	7.3928e+01	5.2013	55.070569	0.000345	3.445272	0.583645	-0.000069
 745	7.4028e+01	5.1818	54.937343	0.000669	6.687881	1.132958	-0.000134
 746	7.4127e+01	5.1620	54.812192	0.000628	6.282555	1.064294	-0.000126
 747	7.4227e+01	5.1424	54.747598	0.000324	3.242609	0.549313	-0.000065
 748	7.4326e+01	5.1223	54.634558	0.000567	5.674566	0.961297	-0.000114
 749	7.4426e+01	5.1028	54.513444	0.000608	6.079892	1.029962	-0.000122
 750	7.4525e+01	5.0817	54.456924	0.000284	2.837283	0.480649	-0.000057
 751	7.4625e+01	5.0626	54.339847	0.000588	5.877229	0.995629	-0.000118
 752	7.4725e+01	5.0433	54.271216	0.000345	3.445272	0.583645	-0.000069
 753	7.4824e+01	5.0231	54.170287	0.000507	5.066576	0.858301	-0.000101
 754	7.4924e+01	5.0027	54.037062	0.000669	6.687881	1.132958	-0.000134
 755	7.5023e+01	4.9828	53.944208	0.000466	4.661250	0.789637	-0.000093
 756	7.5123e+01	4.9636	53.855391	0.000446	4.458587	0.755305	-0.000089
 757	7.5222e+01	4.9438	53.742351	0.000567	5.674566	0.961297	-0.000114
 758	7.5322e+01	4.9242	53.633348	0.000547	5.471902	0.926965	-0.000110
 759	7.5421e+01	4.9035	53.504160	0.000649	6.485218	1.098626	-0.000130
 760	7.5520e+01	4.8833	53.374972	0.000649	6.485218	1.098626	-0.000130
 761	7.5620e+01	4.8635	53.338637	0.000182	1.823967	0.308988	-0.000037
 762	7.5719e+01	4.8437	53.217523	0.000608	6.079892	1.029962	-0.000122
 763	7.5819e+01	4.8235	53.124669	0.000466	4.661250	0.789637	-0.000093
 764	7.5918e+01	4.8040	53.003555	0.000608	6.079892	1.029962	-0.000122
 765	7.6018e+01	4.7832	52.926850	0.000385	3.850598	0.652309	-0.000077
 766	7.6118e+01	4.7643	52.838033	0.000446	4.458587	0.755305	-0.000089
 767	7.6217e+01	4.7440	52.712881	0.000628	6.282555	1.064294	-0.000126
 768	7.6317e+01	4.7243	52.575619	0.000689	6.890544	1.167290	-0.000138
 769	7.6416e+01	4.7044	52.494876	0.000405	4.053261	0.686641	-0.000081
 770	7.6516e+01	4.6844	52.406059	0.000446	4.458587	0.755305	-0.000089
 771	7.6615e+01	4.6645	52.297056	0.000547	5.471902	0.926965	-0.000110
 772	7.6715e+01	4.6453	52.216314	0.000405	4.053261	0.686641	-0.000081
 773	7.6814e+01	4.6245	52.070977	0.000730	7.295870	1.235954	-0.000146
 774	7.6913e+01	4.6044	52.006383	0.000324	3.242609	0.549313	-0.000065
 775	7.7013e+01	4.5843	51.877194	0.000649	6.485218	1.098626	-0.000130
 776	7.7112e+01	4.5654	51.776266	0.000507	5.066576	0.858301	-0.000101
 777	7.7212e+01	4.5452	51.715709	0.000304	3.039946	0.514981	-0.000061
 778	7.7311e+01	4.5248	51.590558	0.000628	6.282555	1.064294	-0.000126
 779	7.7411e+01	4.5049	51.469444	0.000608	6.079892	1.029962	-0.000122
 780	7.7510e+01	4.4845	51.380627	0.000446	4.458587	0.755305	-0.000089
 781	7.7610e+01	4.4663	51.251438	0.000649	6.485218	1.098626	-0.000130
 782	7.7710e+01	4.4442	51.146473	0.000527	5.269239	0.892633	-0.000105
 783	7.7809e+01	4.4259	51.085916	0.000304	3.039946	0.514981	-0.000061
 784	7.7909e+01	4.4048	50.976913	0.000547	5.471902	0.926965	-0.000110
 785	7.8008e+01	4.3862	50.863873	0.000567	5.674566	0.961297	-0.000114
 786	7.8108e+01	4.3655	50.738722	0.000628	6.282555	1.064294	-0.000126
 787	7.8207e+01	4.3450	50.649905	0.000446	4.458587	0.755305	-0.000089
 788	7.8306e+01	4.3249	50.524754	0.000628	6.282555	1.064294	-0.000126
 789	7.8406e+01	4.3060	50.435937	0.000446	4.458587	0.755305	-0.000089
 790	7.8505e+01	4.2858	50.343083	0.000466	4.661250	0.789637	-0.000093
 791	7.8605e+01	4.2663	50.217931	0.000628	6.282555	1.064294	-0.000126
 792	7.8704e+01	4.2461	50.104892	0.000567	5.674566	0.961297	-0.000114
 793	7.8804e+01	4.2263	49.991852	0.000567	5.674566	0.961297	-0.000114
 794	7.8903e+01	4.2052	49.886886	0.000527	5.269239	0.892633	-0.000105
 795	7.9003e+01	4.1860	49.769809	0.000588	5.877229	0.995629	-0.000118
 796	7.9103e+01	4.1660	49.664844	0.000527	5.269239	0.892633	-0.000105
 797	7.9202e+01	4.1457	49.600250	0.000324	3.242609	0.549313	-0.000065
 798	7.9302e+01	4.1253	49.426653	0.000871	8.714511	1.476278	-0.000174
 799	7.9401e+01	4.1056	49.353984	0.000365	3.647935	0.617977	-0.000073
 800	7.9501e+01	4.0856	49.216722	0.000689	6.890544	1.167290	-0.000138
 801	7.9600e+01	4.0667	49.123868	0.000466	4.661250	0.789637	-0.000093
 802	7.9700e+01	4.0462	49.018902	0.000527	5.269239	0.892633	-0.000105
 803	7.9799e+01	4.0264	48.917974	0.000507	5.066576	0.858301	-0.000101
 804	7.9898e+01	4.0066	48.784748	0.000669	6.687881	1.132958	-0.000134
 805	7.9998e+01	3.9864	48.671708	0.000567	5.674566	0.961297	-0.000114
 806	8.0097e+01	3.9663	48.582891	0.000446	4.458587	0.755305	-0.000089
 807	8.0197e+01	3.9468	48.457740	0.000628	6.282555	1.064294	-0.000126
 808	8.0296e+01	3.9269	48.340663	0.000588	5.877229	0.995629	-0.000118
 809	8.0396e+01	3.9067	48.231661	0.000547	5.471902	0.926965	-0.000110
 810	8.0496e+01	3.8872	48.118621	0.000567	5.674566	0.961297	-0.000114
 811	8.0595e+01	3.8668	48.009618	0.000547	5.471902	0.926965	-0.000110
 812	8.0695e+01	3.8473	47.912727	0.000486	4.863913	0.823969	-0.000097
 813	8.0794e+01	3.8271	47.779501	0.000669	6.687881	1.132958	-0.000134
 814	8.0894e+01	3.8064	47.682610	0.000486	4.863913	0.823969	-0.000097
 815	8.0993e+01	3.7875	47.565533	0.000588	5.877229	0.995629	-0.000118
 816	8.1093e+01	3.7687	47.476716	0.000446	4.458587	0.755305	-0.000089
 817	8.1192e+01	3.7486	47.359639	0.000588	5.877229	0.995629	-0.000118
 818	8.1291e+01	3.7273	47.222377	0.000689	6.890544	1.167290	-0.000138
 819	8.1391e+01	3.7078	47.157783	0.000324	3.242609	0.549313	-0.000065
 820	8.1490e+01	3.6874	47.016483	0.000709	7.093207	1.201622	-0.000142
 821	8.1590e+01	3.6681	46.883257	0.000669	6.687881	1.132958	-0.000134
 822	8.1689e+01	3.6468	46.766180	0.000588	5.877229	0.995629	-0.000118
 823	8.1789e+01	3.6288	46.665252	0.000507	5.066576	0.858301	-0.000101
 824	8.1888e+01	3.6077	46.560286	0.000527	5.269239	0.892633	-0.000105
 825	8.1988e+01	3.5888	46.443210	0.000588	5.877229	0.995629	-0.000118
 826	8.2088e+01	3.5674	46.366504	0.000385	3.850598	0.652309	-0.000077
 827	8.2187e+01	3.5479	46.221167	0.000730	7.295870	1.235954	-0.000146
 828	8.2287e+01	3.5290	46.140424	0.000405	4.053261	0.686641	-0.000081
 829	8.2386e+01	3.5088	46.015273	0.000628	6.282555	1.064294	-0.000126
 830	8.2486e+01	3.4887	45.878011	0.000689	6.890544	1.167290	-0.000138
 831	8.2585e+01	3.4687	45.777082	0.000507	5.066576	0.858301	-0.000101
 832	8.2684e+01	3.4490	45.651931	0.000628	6.282555	1.064294	-0.000126
 833	8.2784e+01	3.4295	45.542928	0.000547	5.471902	0.926965	-0.000110
 834	8.2883e+01	3.4097	45.429888	0.000567	5.674566	0.961297	-0.000114
 835	8.2983e+01	3.3892	45.296663	0.000669	6.687881	1.132958	-0.000134
 836	8.3082e+01	3.3685	45.199772	0.000486	4.863913	0.823969	-0.000097
 837	8.3182e+01	3.3497	45.082695	0.000588	5.877229	0.995629	-0.000118
 838	8.3281e+01	3.3286	44.997915	0.000426	4.255924	0.720973	-0.000085
 839	8.3381e+01	3.3092	44.852578	0.000730	7.295870	1.235954	-0.000146
 840	8.3481e+01	3.2891	44.763761	0.000446	4.458587	0.755305	-0.000089
 841	8.3580e+01	3.2687	44.678981	0.000426	4.255924	0.720973	-0.000085
 842	8.3680e+01	3.2488	44.529607	0.000750	7.498533	1.270286	-0.000150
 843	8.3779e+01	3.2296	44.408493	0.000608	6.079892	1.029962	-0.000122
 844	8.3879e+01	3.2088	44.291416	0.000588	5.877229	0.995629	-0.000118
 845	8.3978e+01	3.1896	44.182414	0.000547	5.471902	0.926965	-0.000110
 846	8.4078e+01	3.1698	44.085522	0.000486	4.863913	0.823969	-0.000097
 847	8.4177e+01	3.1503	43.988631	0.000486	4.863913	0.823969	-0.000097
 848	8.4276e+01	3.1298	43.863480	0.000628	6.282555	1.064294	-0.000126
 849	8.4376e+01	3.1097	43.722180	0.000709	7.093207	1.201622	-0.000142
 850	8.4475e+01	3.0895	43.621252	0.000507	5.066576	0.858301	-0.000101
 851	8.4575e+01	3.0704	43.492063	0.000649	6.485218	1.098626	-0.000130
 852	8.4674e+01	3.0500	43.407283	0.000426	4.255924	0.720973	-0.000085
 853	8.4774e+01	3.0294	43.265984	0.000709	7.093207	1.201622	-0.000142
 854	8.4874e+01	3.0099	43.120647	0.000730	7.295870	1.235954	-0.000146
 855	8.4973e+01	2.9897	43.047978	0.000365	3.647935	0.617977	-0.000073
 856	8.5073e+01	2.9689	42.934939	0.000567	5.674566	0.961297	-0.000114
 857	8.5172e+01	2.9508	42.809787	0.000628	6.282555	1.064294	-0.000126
 858	8.5272e+01	2.9313	42.696748	0.000567	5.674566	0.961297	-0.000114
 859	8.5371e+01	2.9113	42.547374	0.000750	7.498533	1.270286	-0.000150
 860	8.5471e+01	2.8902	42.450482	0.000486	4.863913	0.823969	-0.000097
 861	8.5570e+01	2.8716	42.329368	0.000608	6.079892	1.029962	-0.000122
 862	8.5669e+01	2.8500	42.248625	0.000405	4.053261	0.686641	-0.000081
 863	8.5769e+01	2.8301	42.079066	0.000851	8.511848	1.441946	-0.000170
 864	8.5868e+01	2.8105	41.957952	0.000608	6.079892	1.029962	-0.000122
 865	8.5968e+01	2.7914	41.852986	0.000527	5.269239	0.892633	-0.000105
 866	8.6067e+01	2.7709	41.711686	0.000709	7.093207	1.201622	-0.000142
 867	8.6167e+01	2.7497	41.614795	0.000486	4.863913	0.823969	-0.000097
 868	8.6266e+01	2.7312	41.513867	0.000507	5.066576	0.858301	-0.000101
 869	8.6366e+01	2.7097	41.380641	0.000669	6.687881	1.132958	-0.000134
 870	8.6466e+01	2.6916	41.279713	0.000507	5.066576	0.858301	-0.000101
 871	8.6565e+01	2.6718	41.138413	0.000709	7.093207	1.201622	-0.000142
 872	8.6665e+01	2.6519	41.021336	0.000588	5.877229	0.995629	-0.000118
 873	8.6764e+01	2.6318	40.900222	0.000608	6.079892	1.029962	-0.000122
 874	8.6864e+01	2.6109	40.839665	0.000304	3.039946	0.514981	-0.000061
 875	8.6963e+01	2.5906	40.702403	0.000689	6.890544	1.167290	-0.000138
 876	8.7063e+01	2.5719	40.585326	0.000588	5.877229	0.995629	-0.000118
 877	8.7162e+01	2.5516	40.452100	0.000669	6.687881	1.132958	-0.000134
 878	8.7261e+01	2.5311	40.371357	0.000405	4.053261	0.686641	-0.000081
 879	8.7361e+01	2.5115	40.221983	0.000750	7.498533	1.270286	-0.000150
 880	8.7460e+01	2.4939	40.137204	0.000426	4.255924	0.720973	-0.000085
 881	8.7560e+01	2.4725	39.983792	0.000770	7.701196	1.304618	-0.000154
 882	8.7659e+01	2.4522	39.866715	0.000588	5.877229	0.995629	-0.000118
 883	8.7759e+01	2.4329	39.765787	0.000507	5.066576	0.858301	-0.000101
 884	8.7859e+01	2.4126	39.632562	0.000669	6.687881	1.132958	-0.000134
 885	8.7958e+01	2.3923	39.543745	0.000446	4.458587	0.755305	-0.000089
 886	8.8058e+01	2.3726	39.398408	0.000730	7.295870	1.235954	-0.000146
 887	8.8157e+01	2.3528	39.277294	0.000608	6.079892	1.029962	-0.000122
 888	8.8257e+01	2.3329	39.168291	0.000547	5.471902	0.926965	-0.000110
 889	8.8356e+01	2.3125	39.055251	0.000567	5.674566	0.961297	-0.000114
 890	8.8456e+01	2.2931	38.922026	0.000669	6.687881	1.132958	-0.000134
 891	8.8555e+01	2.2732	38.853394	0.000345	3.445272	0.583645	-0.000069
 892	8.8654e+01	2.2527	38.708057	0.000730	7.295870	1.235954	-0.000146
 893	8.8754e+01	2.2323	38.570795	0.000689	6.890544	1.167290	-0.000138
 894	8.8853e+01	2.2123	38.498126	0.000365	3.647935	0.617977	-0.000073
 895	8.8953e+01	2.1938	38.364901	0.000669	6.687881	1.132958	-0.000134
 896	8.9052e+01	2.1728	38.223601	0.000709	7.093207	1.201622	-0.000142
 897	8.9152e+01	2.1525	38.094413	0.000649	6.485218	1.098626	-0.000130
 898	8.9251e+01	2.1331	37.973299	0.000608	6.079892	1.029962	-0.000122
 899	8.9351e+01	2.1139	37.880445	0.000466	4.661250	0.789637	-0.000093
 900	8.9451e+01	2.0927	37.779516	0.000507	5.066576	0.858301	-0.000101
 901	8.9550e+01	2.0737	37.609957	0.000851	8.511848	1.441946	-0.000170
 902	8.9650e+01	2.0535	37.517102	0.000466	4.661250	0.789637	-0.000093
 903	8.9749e+01	2.0327	37.375803	0.000709	7.093207	1.201622	-0.000142
 904	8.9849e+01	2.0135	37.250651	0.000628	6.282555	1.064294	-0.000126
 905	8.9948e+01	1.9935	37.157797	0.000466	4.661250	0.789637	-0.000093
 906	9.0047e+01	1.9732	37.044758	0.000567	5.674566	0.961297	-0.000114
 907	9.0147e+01	1.9543	36.927681	0.000588	5.877229	0.995629	-0.000118
 908	9.0246e+01	1.9332	36.762158	0.000831	8.309185	1.407614	-0.000166
 909	9.0346e+01	1.9137	36.649118	0.000567	5.674566	0.961297	-0.000114
 910	9.0445e+01	1.8932	36.528004	0.000608	6.079892	1.029962	-0.000122
 911	9.0545e+01	1.8736	36.439187	0.000446	4.458587	0.755305	-0.000089
 912	9.0644e+01	1.8536	36.326147	0.000567	5.674566	0.961297	-0.000114
 913	9.0744e+01	1.8343	36.196959	0.000649	6.485218	1.098626	-0.000130
 914	9.0844e+01	1.8145	36.087956	0.000547	5.471902	0.926965	-0.000110
 915	9.0943e+01	1.7944	35.942619	0.000730	7.295870	1.235954	-0.000146
 916	9.1043e+01	1.7742	35.801320	0.000709	7.093207	1.201622	-0.000142
 917	9.1142e+01	1.7538	35.700391	0.000507	5.066576	0.858301	-0.000101
 918	9.1242e+01	1.7345	35.542943	0.000790	7.903859	1.338950	-0.000158
 919	9.1341e+01	1.7148	35.425866	0.000588	5.877229	0.995629	-0.000118
 920	9.1441e+01	1.6949	35.324938	0.000507	5.066576	0.858301	-0.000101
 921	9.1540e+01	1.6756	35.179601	0.000730	7.295870	1.235954	-0.000146
 922	9.1639e+01	1.6549	35.050412	0.000649	6.485218	1.098626	-0.000130
 923	9.1739e+01	1.6346	34.945447	0.000527	5.269239	0.892633	-0.000105
 924	9.1838e+01	1.6147	34.844519	0.000507	5.066576	0.858301	-0.000101
 925	9.1938e+01	1.5952	34.711293	0.000669	6.687881	1.132958	-0.000134
 926	9.2037e+01	1.5749	34.598253	0.000567	5.674566	0.961297	-0.000114
 927	9.2137e+01	1.5548	34.465028	0.000669	6.687881	1.132958	-0.000134
 928	9.2237e+01	1.5350	34.360062	0.000527	5.269239	0.892633	-0.000105
 929	9.2336e+01	1.5147	34.214725	0.000730	7.295870	1.235954	-0.000146
 930	9.2436e+01	1.4950	34.089574	0.000628	6.282555	1.064294	-0.000126
 931	9.2535e+01	1.4745	33.948274	0.000709	7.093207	1.201622	-0.000142
 932	9.2635e+01	1.4552	33.839272	0.000547	5.471902	0.926965	-0.000110
 933	9.2734e+01	1.4358	33.710083	0.000649	6.485218	1.098626	-0.000130
 934	9.2834e+01	1.4153	33.601081	0.000547	5.471902	0.926965	-0.000110
 935	9.2933e+01	1.3960	33.471892	0.000649	6.485218	1.098626	-0.000130
 936	9.3032e+01	1.3758	33.318481	0.000770	7.701196	1.304618	-0.000154
 937	9.3132e+01	1.3561	33.241776	0.000385	3.850598	0.652309	-0.000077
 938	9.3231e+01	1.3358	33.047993	0.000973	9.727827	1.647938	-0.000195
 939	9.3331e+01	1.3160	33.027807	0.000101	1.013315	0.171660	-0.000020
 940	9.3430e+01	1.2960	32.834025	0.000973	9.727827	1.647938	-0.000195
 941	9.3530e+01	1.2758	32.741171	0.000466	4.661250	0.789637	-0.000093
 942	9.3629e+01	1.2572	32.607945	0.000669	6.687881	1.132958	-0.000134
 943	9.3729e+01	1.2367	32.478757	0.000649	6.485218	1.098626	-0.000130
 944	9.3829e+01	1.2170	32.341494	0.000689	6.890544	1.167290	-0.000138
 945	9.3928e+01	1.1971	32.248640	0.000466	4.661250	0.789637	-0.000093
 946	9.4028e+01	1.1767	32.135600	0.000567	5.674566	0.961297	-0.000114
 947	9.4127e+01	1.1565	31.994301	0.000709	7.093207	1.201622	-0.000142
 948	9.4227e+01	1.1376	31.836852	0.000790	7.903859	1.338950	-0.000158
 949	9.4326e+01	1.1178	31.780333	0.000284	2.837283	0.480649	-0.000057
 950	9.4425e+01	1.0975	31.639033	0.000709	7.093207	1.201622	-0.000142
 951	9.4525e+01	1.0772	31.481584	0.000790	7.903859	1.338950	-0.000158
 952	9.4624e+01	1.0575	31.352396	0.000649	6.485218	1.098626	-0.000130
 953	9.4724e+01	1.0368	31.251468	0.000507	5.066576	0.858301	-0.000101
 954	9.4823e+01	1.0184	31.130354	0.000608	6.079892	1.029962	-0.000122
 955	9.4923e+01	0.9974	30.985017	0.000730	7.295870	1.235954	-0.000146
 956	9.5022e+01	0.9776	30.880051	0.000527	5.269239	0.892633	-0.000105
 957	9.5122e+01	0.9579	30.754900	0.000628	6.282555	1.064294	-0.000126
 958	9.5222e+01	0.9380	30.601489	0.000770	7.701196	1.304618	-0.000154
 959	9.5321e+01	0.9176	30.496523	0.000527	5.269239	0.892633	-0.000105
 960	9.5421e+01	0.8972	30.351186	0.000730	7.295870	1.235954	-0.000146
 961	9.5520e+01	0.8780	30.221998	0.000649	6.485218	1.098626	-0.000130
 962	9.5620e+01	0.8582	30.080698	0.000709	7.093207	1.201622	-0.000142
 963	9.5719e+01	0.8382	29.963621	0.000588	5.877229	0.995629	-0.000118
 964	9.5819e+01	0.8183	29.858656	0.000527	5.269239	0.892633	-0.000105
 965	9.5918e+01	0.7983	29.685059	0.000871	8.714511	1.476278	-0.000174
 966	9.6017e+01	0.7790	29.604316	0.000405	4.053261	0.686641	-0.000081
 967	9.6117e+01	0.7582	29.426682	0.000892	8.917174	1.510610	-0.000179
 968	9.6216e+01	0.7383	29.325754	0.000507	5.066576	0.858301	-0.000101
 969	9.6316e+01	0.7193	29.240974	0.000426	4.255924	0.720973	-0.000085
 970	9.6415e+01	0.6990	29.043154	0.000993	9.930490	1.682270	-0.000199
 971	9.6515e+01	0.6789	28.934152	0.000547	5.471902	0.926965	-0.000110
 972	9.6615e+01	0.6591	28.784778	0.000750	7.498533	1.270286	-0.000150
 973	9.6714e+01	0.6391	28.639441	0.000730	7.295870	1.235954	-0.000146
 974	9.6814e+01	0.6184	28.530438	0.000547	5.471902	0.926965	-0.000110
 975	9.6913e+01	0.5984	28.405287	0.000628	6.282555	1.064294	-0.000126
 976	9.7013e+01	0.5800	28.280136	0.000628	6.282555	1.064294	-0.000126
 977	9.7112e+01	0.5584	28.142873	0.000689	6.890544	1.167290	-0.000138
 978	9.7212e+01	0.5389	28.025796	0.000588	5.877229	0.995629	-0.000118
 979	9.7311e+01	0.5189	27.884497	0.000709	7.093207	1.201622	-0.000142
 980	9.7410e+01	0.4987	27.755308	0.000649	6.485218	1.098626	-0.000130
 981	9.7510e+01	0.4800	27.614008	0.000709	7.093207	1.201622	-0.000142
 982	9.7609e+01	0.4602	27.517117	0.000486	4.863913	0.823969	-0.000097
 983	9.7709e+01	0.4397	27.335446	0.000912	9.119837	1.544942	-0.000183
 984	9.7808e+01	0.4196	27.238555	0.000486	4.863913	0.823969	-0.000097
 985	9.7908e+01	0.3994	27.125515	0.000567	5.674566	0.961297	-0.000114
 986	9.8007e+01	0.3793	26.955955	0.000851	8.511848	1.441946	-0.000170
 987	9.8107e+01	0.3595	26.842916	0.000567	5.674566	0.961297	-0.000114
 988	9.8207e+01	0.3396	26.725839	0.000588	5.877229	0.995629	-0.000118
 989	9.8306e+01	0.3196	26.572427	0.000770	7.701196	1.304618	-0.000154
 990	9.8406e+01	0.2997	26.431128	0.000709	7.093207	1.201622	-0.000142
 991	9.8505e+01	0.2795	26.326162	0.000527	5.269239	0.892633	-0.000105
 992	9.8605e+01	0.2598	26.209085	0.000588	5.877229	0.995629	-0.000118
 993	9.8704e+01	0.2383	26.047600	0.000811	8.106522	1.373282	-0.000162
 994	9.8803e+01	0.2200	25.890151	0.000790	7.903859	1.338950	-0.000158
 995	9.8903e+01	0.2013	25.813446	0.000385	3.850598	0.652309	-0.000077
 996	9.9002e+01	0.1794	25.660035	0.000770	7.701196	1.304618	-0.000154
 997	9.9102e+01	0.1604	25.498549	0.000811	8.106522	1.373282	-0.000162
 998	9.9201e+01	0.1397	25.413769	0.000426	4.255924	0.720973	-0.000085
 999	9.9301e+01	0.1199	25.264395	0.000750	7.498533	1.270286	-0.000150
1000	9.9400e+01	0.1019	25.115021	0.000750	7.498533	1.270286	-0.000150
1001	9.9500e+01	0.0806	25.018130	0.000486	4.863913	0.823969	-0.000097
1002	9.9600e+01	0.0601	24.856645	0.000811	8.106522	1.373282	-0.000162
1003	9.9699e+01	0.0397	24.715345	0.000709	7.093207	1.201622	-0.000142
1004	9.9799e+01	0.0211	24.598268	0.000588	5.877229	0.995629	-0.000118
1005	9.9898e+01	0.0008	24.485228	0.000567	5.674566	0.961297	-0.000114
1006	9.9998e+01	-0.0174	24.339891	0.000730	7.295870	1.235954	-0.000146
1007	1.0010e+02	-0.0368	24.226852	0.000567	5.674566	0.961297	-0.000114
1008	1.0020e+02	-0.0574	24.101700	0.000628	6.282555	1.064294	-0.000126
1009	1.0030e+02	-0.0777	23.964438	0.000689	6.890544	1.167290	-0.000138
1010	1.0040e+02	-0.0970	23.855435	0.000547	5.471902	0.926965	-0.000110
1011	1.0050e+02	-0.1161	23.693950	0.000811	8.106522	1.373282	-0.000162
1012	1.0059e+02	-0.1368	23.584947	0.000547	5.471902	0.926965	-0.000110
1013	1.0069e+02	-0.1567	23.443647	0.000709	7.093207	1.201622	-0.000142
1014	1.0079e+02	-0.1770	23.306385	0.000689	6.890544	1.167290	-0.000138
1015	1.0089e+02	-0.1959	23.169122	0.000689	6.890544	1.167290	-0.000138
1016	1.0099e+02	-0.2164	23.052045	0.000588	5.877229	0.995629	-0.000118
1017	1.0109e+02	-0.2361	22.890560	0.000811	8.106522	1.373282	-0.000162
1018	1.0119e+02	-0.2566	22.809817	0.000405	4.053261	0.686641	-0.000081
1019	1.0129e+02	-0.2763	22.648331	0.000811	8.106522	1.373282	-0.000162
1020	1.0139e+02	-0.2954	22.523180	0.000628	6.282555	1.064294	-0.000126
1021	1.0149e+02	-0.3162	22.402066	0.000608	6.079892	1.029962	-0.000122
1022	1.0159e+02	-0.3373	22.256729	0.000730	7.295870	1.235954	-0.000146
1023	1.0169e+02	-0.3567	22.119467	0.000689	6.890544	1.167290	-0.000138
1024	1.0179e+02	-0.3767	21.986241	0.000669	6.687881	1.132958	-0.000134
1025	1.0189e+02	-0.3957	21.840904	0.000730	7.295870	1.235954	-0.000146
1026	1.0199e+02	-0.4161	21.719790	0.000608	6.079892	1.029962	-0.000122
1027	1.0209e+02	-0.4357	21.594639	0.000628	6.282555	1.064294	-0.000126
1028	1.0219e+02	-0.4562	21.453339	0.000709	7.093207	1.201622	-0.000142
1029	1.0229e+02	-0.4762	21.316077	0.000689	6.890544	1.167290	-0.000138
1030	1.0239e+02	-0.4956	21.194963	0.000608	6.079892	1.029962	-0.000122
1031	1.0248e+02	-0.5158	21.065774	0.000649	6.485218	1.098626	-0.000130
1032	1.0258e+02	-0.5363	20.920437	0.000730	7.295870	1.235954	-0.000146
1033	1.0268e+02	-0.5556	20.803360	0.000588	5.877229	0.995629	-0.000118
1034	1.0278e+02	-0.5755	20.653986	0.000750	7.498533	1.270286	-0.000150
1035	1.0288e+02	-0.5953	20.520761	0.000669	6.687881	1.132958	-0.000134
1036	1.0298e+02	-0.6155	20.367350	0.000770	7.701196	1.304618	-0.000154
1037	1.0308e+02	-0.6351	20.222013	0.000730	7.295870	1.235954	-0.000146
1038	1.0318e+02	-0.6551	20.072639	0.000750	7.498533	1.270286	-0.000150
1039	1.0328e+02	-0.6754	19.975748	0.000486	4.863913	0.823969	-0.000097
1040	1.0338e+02	-0.6952	19.886931	0.000446	4.458587	0.755305	-0.000089
1041	1.0348e+02	-0.7155	19.725445	0.000811	8.106522	1.373282	-0.000162
1042	1.0358e+02	-0.7344	19.596257	0.000649	6.485218	1.098626	-0.000130
1043	1.0368e+02	-0.7525	19.515514	0.000405	4.053261	0.686641	-0.000081
1044	1.0378e+02	-0.7748	19.374214	0.000709	7.093207	1.201622	-0.000142
1045	1.0388e+02	-0.7944	19.224840	0.000750	7.498533	1.270286	-0.000150
1046	1.0398e+02	-0.8150	19.075466	0.000750	7.498533	1.270286	-0.000150
1047	1.0408e+02	-0.8347	18.966464	0.000547	5.471902	0.926965	-0.000110
1048	1.0418e+02	-0.8540	18.796904	0.000851	8.511848	1.441946	-0.000170
1049	1.0428e+02	-0.8746	18.659641	0.000689	6.890544	1.167290	-0.000138
1050	1.0438e+02	-0.8949	18.570824	0.000446	4.458587	0.755305	-0.000089
1051	1.0447e+02	-0.9153	18.429525	0.000709	7.093207	1.201622	-0.000142
1052	1.0457e+02	-0.9341	18.276113	0.000770	7.701196	1.304618	-0.000154
1053	1.0467e+02	-0.9544	18.175185	0.000507	5.066576	0.858301	-0.000101
1054	1.0477e+02	-0.9743	18.050034	0.000628	6.282555	1.064294	-0.000126
1055	1.0487e+02	-0.9942	17.908734	0.000709	7.093207	1.201622	-0.000142
1056	1.0497e+02	-1.0136	17.819917	0.000446	4.458587	0.755305	-0.000089
1057	1.0507e+02	-1.0342	17.662469	0.000790	7.903859	1.338950	-0.000158
1058	1.0517e+02	-1.0547	17.537318	0.000628	6.282555	1.064294	-0.000126
1059	1.0527e+02	-1.0741	17.416204	0.000608	6.079892	1.029962	-0.000122
1060	1.0537e+02	-1.0937	17.238570	0.000892	8.917174	1.510610	-0.000179
1061	1.0547e+02	-1.1133	17.117456	0.000608	6.079892	1.029962	-0.000122
1062	1.0557e+02	-1.1340	16.951933	0.000831	8.309185	1.407614	-0.000166
1063	1.0567e+02	-1.1535	16.834856	0.000588	5.877229	0.995629	-0.000118
1064	1.0577e+02	-1.1742	16.729890	0.000527	5.269239	0.892633	-0.000105
1065	1.0587e+02	-1.1938	16.628962	0.000507	5.066576	0.858301	-0.000101
1066	1.0597e+02	-1.2148	16.479588	0.000750	7.498533	1.270286	-0.000150
1067	1.0607e+02	-1.2323	16.354437	0.000628	6.282555	1.064294	-0.000126
1068	1.0617e+02	-1.2534	16.168729	0.000932	9.322501	1.579274	-0.000187
1069	1.0627e+02	-1.2729	16.096060	0.000365	3.647935	0.617977	-0.000073
1070	1.0637e+02	-1.2933	15.958798	0.000689	6.890544	1.167290	-0.000138
1071	1.0647e+02	-1.3124	15.825572	0.000669	6.687881	1.132958	-0.000134
1072	1.0656e+02	-1.3324	15.664087	0.000811	8.106522	1.373282	-0.000162
1073	1.0666e+02	-1.3525	15.538935	0.000628	6.282555	1.064294	-0.000126
1074	1.0676e+02	-1.3731	15.438007	0.000507	5.066576	0.858301	-0.000101
1075	1.0686e+02	-1.3924	15.272484	0.000831	8.309185	1.407614	-0.000166
1076	1.0696e+02	-1.4117	15.159445	0.000567	5.674566	0.961297	-0.000114
1077	1.0706e+02	-1.4327	14.977774	0.000912	9.119837	1.544942	-0.000183
1078	1.0716e+02	-1.4523	14.856660	0.000608	6.079892	1.029962	-0.000122
1079	1.0726e+02	-1.4719	14.731508	0.000628	6.282555	1.064294	-0.000126
1080	1.0736e+02	-1.4921	14.638654	0.000466	4.661250	0.789637	-0.000093
1081	1.0746e+02	-1.5117	14.477169	0.000811	8.106522	1.373282	-0.000162
1082	1.0756e+02	-1.5317	14.303572	0.000871	8.714511	1.476278	-0.000174
1083	1.0766e+02	-1.5519	14.226866	0.000385	3.850598	0.652309	-0.000077
1084	1.0776e+02	-1.5720	14.065381	0.000811	8.106522	1.373282	-0.000162
1085	1.0786e+02	-1.5924	13.944267	0.000608	6.079892	1.029962	-0.000122
1086	1.0796e+02	-1.6107	13.847376	0.000486	4.863913	0.823969	-0.000097
1087	1.0806e+02	-1.6315	13.681853	0.000831	8.309185	1.407614	-0.000166
1088	1.0816e+02	-1.6515	13.556702	0.000628	6.282555	1.064294	-0.000126
1089	1.0826e+02	-1.6721	13.439625	0.000588	5.877229	0.995629	-0.000118
1090	1.0836e+02	-1.6906	13.302362	0.000689	6.890544	1.167290	-0.000138
1091	1.0845e+02	-1.7111	13.157025	0.000730	7.295870	1.235954	-0.000146
1092	1.0855e+02	-1.7307	13.023800	0.000669	6.687881	1.132958	-0.000134
1093	1.0865e+02	-1.7511	12.898649	0.000628	6.282555	1.064294	-0.000126
1094	1.0875e+02	-1.7711	12.745238	0.000770	7.701196	1.304618	-0.000154
1095	1.0885e+02	-1.7910	12.648346	0.000486	4.863913	0.823969	-0.000097
1096	1.0895e+02	-1.8114	12.494935	0.000770	7.701196	1.304618	-0.000154
1097	1.0905e+02	-1.8311	12.357672	0.000689	6.890544	1.167290	-0.000138
1098	1.0915e+02	-1.8501	12.228484	0.000649	6.485218	1.098626	-0.000130
1099	1.0925e+02	-1.8710	12.111407	0.000588	5.877229	0.995629	-0.000118
1100	1.0935e+02	-1.8911	11.962033	0.000750	7.498533	1.270286	-0.000150
1101	1.0945e+02	-1.9101	11.816696	0.000730	7.295870	1.235954	-0.000146
1102	1.0955e+02	-1.9299	11.703657	0.000567	5.674566	0.961297	-0.000114
1103	1.0965e+02	-1.9507	11.562357	0.000709	7.093207	1.201622	-0.000142
1104	1.0975e+02	-1.9711	11.412983	0.000750	7.498533	1.270286	-0.000150
1105	1.0985e+02	-1.9897	11.283794	0.000649	6.485218	1.098626	-0.000130
1106	1.0995e+02	-2.0104	11.170755	0.000567	5.674566	0.961297	-0.000114
1107	1.1005e+02	-2.0303	11.045603	0.000628	6.282555	1.064294	-0.000126
1108	1.1015e+02	-2.0502	10.920452	0.000628	6.282555	1.064294	-0.000126
1109	1.1025e+02	-2.0702	10.823561	0.000486	4.863913	0.823969	-0.000097
1110	1.1035e+02	-2.0901	10.674187	0.000750	7.498533	1.270286	-0.000150
1111	1.1044e+02	-2.1109	10.536924	0.000689	6.890544	1.167290	-0.000138
1112	1.1054e+02	-2.1305	10.375439	0.000811	8.106522	1.373282	-0.000162
1113	1.1064e+02	-2.1501	10.234139	0.000709	7.093207	1.201622	-0.000142
1114	1.1074e+02	-2.1701	10.117062	0.000588	5.877229	0.995629	-0.000118
1115	1.1084e+02	-2.1906	9.991911	0.000628	6.282555	1.064294	-0.000126
1116	1.1094e+02	-2.2102	9.842537	0.000750	7.498533	1.270286	-0.000150
1117	1.1104e+02	-2.2298	9.729497	0.000567	5.674566	0.961297	-0.000114
1118	1.1114e+02	-2.2504	9.632606	0.000486	4.863913	0.823969	-0.000097
1119	1.1124e+02	-2.2693	9.459009	0.000871	8.714511	1.476278	-0.000174
1120	1.1134e+02	-2.2900	9.341932	0.000588	5.877229	0.995629	-0.000118
1121	1.1144e+02	-2.3080	9.192558	0.000750	7.498533	1.270286	-0.000150
1122	1.1154e+02	-2.3303	9.067407	0.000628	6.282555	1.064294	-0.000126
1123	1.1164e+02	-2.3491	8.958404	0.000547	5.471902	0.926965	-0.000110
1124	1.1174e+02	-2.3696	8.837290	0.000608	6.079892	1.029962	-0.000122
1125	1.1184e+02	-2.3900	8.700028	0.000689	6.890544	1.167290	-0.000138
1126	1.1194e+02	-2.4094	8.530468	0.000851	8.511848	1.441946	-0.000170
1127	1.1204e+02	-2.4294	8.389168	0.000709	7.093207	1.201622	-0.000142
1128	1.1214e+02	-2.4487	8.243831	0.000730	7.295870	1.235954	-0.000146
1129	1.1224e+02	-2.4695	8.114643	0.000649	6.485218	1.098626	-0.000130
1130	1.1234e+02	-2.4896	8.009677	0.000527	5.269239	0.892633	-0.000105
1131	1.1244e+02	-2.5084	7.832043	0.000892	8.917174	1.510610	-0.000179
1132	1.1253e+02	-2.5275	7.735152	0.000486	4.863913	0.823969	-0.000097
1133	1.1263e+02	-2.5481	7.610001	0.000628	6.282555	1.064294	-0.000126
1134	1.1273e+02	-2.5681	7.448515	0.000811	8.106522	1.373282	-0.000162
1135	1.1283e+02	-2.5887	7.351624	0.000486	4.863913	0.823969	-0.000097
1136	1.1293e+02	-2.6070	7.242622	0.000547	5.471902	0.926965	-0.000110
1137	1.1303e+02	-2.6280	7.060950	0.000912	9.119837	1.544942	-0.000183
1138	1.1313e+02	-2.6480	6.935799	0.000628	6.282555	1.064294	-0.000126
1139	1.1323e+02	-2.6680	6.762202	0.000871	8.714511	1.476278	-0.000174
1140	1.1333e+02	-2.6880	6.657237	0.000527	5.269239	0.892633	-0.000105
1141	1.1343e+02	-2.7074	6.511900	0.000730	7.295870	1.235954	-0.000146
1142	1.1353e+02	-2.7274	6.423083	0.000446	4.458587	0.755305	-0.000089
1143	1.1363e+02	-2.7472	6.217189	0.001034	10.335816	1.750935	-0.000207
1144	1.1373e+02	-2.7679	6.120298	0.000486	4.863913	0.823969	-0.000097
1145	1.1383e+02	-2.7885	5.966887	0.000770	7.701196	1.304618	-0.000154
1146	1.1393e+02	-2.8074	5.841735	0.000628	6.282555	1.064294	-0.000126
1147	1.1403e+02	-2.8268	5.716584	0.000628	6.282555	1.064294	-0.000126
1148	1.1413e+02	-2.8473	5.571247	0.000730	7.295870	1.235954	-0.000146
1149	1.1423e+02	-2.8674	5.458208	0.000567	5.674566	0.961297	-0.000114
1150	1.1433e+02	-2.8870	5.333056	0.000628	6.282555	1.064294	-0.000126
1151	1.1442e+02	-2.9064	5.187719	0.000730	7.295870	1.235954	-0.000146
1152	1.1452e+02	-2.9266	5.050457	0.000689	6.890544	1.167290	-0.000138
1153	1.1462e+02	-2.9472	4.949528	0.000507	5.066576	0.858301	-0.000101
1154	1.1472e+02	-2.9669	4.788043	0.000811	8.106522	1.373282	-0.000162
1155	1.1482e+02	-2.9871	4.646743	0.000709	7.093207	1.201622	-0.000142
1156	1.1492e+02	-3.0070	4.501406	0.000730	7.295870	1.235954	-0.000146
1157	1.1502e+02	-3.0273	4.392404	0.000547	5.471902	0.926965	-0.000110
1158	1.1512e+02	-3.0469	4.279364	0.000567	5.674566	0.961297	-0.000114
1159	1.1522e+02	-3.0666	4.178435	0.000507	5.066576	0.858301	-0.000101
1160	1.1532e+02	-3.0864	4.020987	0.000790	7.903859	1.338950	-0.000158
1161	1.1542e+02	-3.1064	3.891799	0.000649	6.485218	1.098626	-0.000130
1162	1.1552e+02	-3.1265	3.730313	0.000811	8.106522	1.373282	-0.000162
1163	1.1562e+02	-3.1470	3.597088	0.000669	6.687881	1.132958	-0.000134
1164	1.1572e+02	-3.1659	3.484048	0.000567	5.674566	0.961297	-0.000114
1165	1.1582e+02	-3.1859	3.330637	0.000770	7.701196	1.304618	-0.000154
1166	1.1592e+02	-3.2065	3.221634	0.000547	5.471902	0.926965	-0.000110
1167	1.1602e+02	-3.2257	3.044000	0.000892	8.917174	1.510610	-0.000179
1168	1.1612e+02	-3.2452	2.922886	0.000608	6.079892	1.029962	-0.000122
1169	1.1622e+02	-3.2659	2.825995	0.000486	4.863913	0.823969	-0.000097
1170	1.1632e+02	-3.2855	2.700844	0.000628	6.282555	1.064294	-0.000126
1171	1.1642e+02	-3.3058	2.551470	0.000750	7.498533	1.270286	-0.000150
1172	1.1651e+02	-3.3261	2.442467	0.000547	5.471902	0.926965	-0.000110
1173	1.1661e+02	-3.3452	2.280982	0.000811	8.106522	1.373282	-0.000162
1174	1.1671e+02	-3.3655	2.159868	0.000608	6.079892	1.029962	-0.000122
1175	1.1681e+02	-3.3859	1.978197	0.000912	9.119837	1.544942	-0.000183
1176	1.1691e+02	-3.4055	1.917639	0.000304	3.039946	0.514981	-0.000061
1177	1.1701e+02	-3.4259	1.752117	0.000831	8.309185	1.407614	-0.000166
1178	1.1711e+02	-3.4454	1.643114	0.000547	5.471902	0.926965	-0.000110
1179	1.1721e+02	-3.4644	1.522000	0.000608	6.079892	1.029962	-0.000122
1180	1.1731e+02	-3.4856	1.364552	0.000790	7.903859	1.338950	-0.000158
1181	1.1741e+02	-3.5046	1.251512	0.000567	5.674566	0.961297	-0.000114
1182	1.1751e+02	-3.5248	1.118287	0.000669	6.687881	1.132958	-0.000134
1183	1.1761e+02	-3.5449	0.989098	0.000649	6.485218	1.098626	-0.000130
1184	1.1771e+02	-3.5655	0.876058	0.000567	5.674566	0.961297	-0.000114
1185	1.1781e+02	-3.5843	0.767056	0.000547	5.471902	0.926965	-0.000110
1186	1.1791e+02	-3.6044	0.585385	0.000912	9.119837	1.544942	-0.000183
1187	1.1801e+02	-3.6246	0.452159	0.000669	6.687881	1.132958	-0.000134
1188	1.1811e+02	-3.6449	0.363342	0.000446	4.458587	0.755305	-0.000089
1189	1.1821e+02	-3.6652	0.222042	0.000709	7.093207	1.201622	-0.000142
1190	1.1831e+02	-3.6844	0.096891	0.000628	6.282555	1.064294	-0.000126
1191	1.1841e+02	-3.7042	-0.048446	0.000730	7.295870	1.235954	-0.000146
1192	1.1850e+02	-3.7236	-0.189745	0.000709	7.093207	1.201622	-0.000142
1193	1.1860e+02	-3.7451	-0.286637	0.000486	4.863913	0.823969	-0.000097
1194	1.1870e+02	-3.7650	-0.464271	0.000892	8.917174	1.510610	-0.000179
1195	1.1880e+02	-3.7839	-0.553088	0.000446	4.458587	0.755305	-0.000089
1196	1.1890e+02	-3.8043	-0.694387	0.000709	7.093207	1.201622	-0.000142
1197	1.1900e+02	-3.8239	-0.839724	0.000730	7.295870	1.235954	-0.000146
1198	1.1910e+02	-3.8427	-0.952764	0.000567	5.674566	0.961297	-0.000114
1199	1.1920e+02	-3.8629	-1.098101	0.000730	7.295870	1.235954	-0.000146
1200	1.1930e+02	-3.8834	-1.223252	0.000628	6.282555	1.064294	-0.000126
1201	1.1940e+02	-3.9038	-1.364552	0.000709	7.093207	1.201622	-0.000142
1202	1.1950e+02	-3.9233	-1.481629	0.000588	5.877229	0.995629	-0.000118
1203	1.1960e+02	-3.9432	-1.639077	0.000790	7.903859	1.338950	-0.000158
1204	1.1970e+02	-3.9633	-1.784414	0.000730	7.295870	1.235954	-0.000146
1205	1.1980e+02	-3.9832	-1.933788	0.000750	7.498533	1.270286	-0.000150
1206	1.1990e+02	-4.0039	-2.006456	0.000365	3.647935	0.617977	-0.000073
1207	1.2000e+02	-4.0234	-2.188128	0.000912	9.119837	1.544942	-0.000183
1208	1.2010e+02	-4.0417	-2.297130	0.000547	5.471902	0.926965	-0.000110
1209	1.2020e+02	-4.0625	-2.430356	0.000669	6.687881	1.132958	-0.000134
1210	1.2030e+02	-4.0833	-2.527247	0.000486	4.863913	0.823969	-0.000097
1211	1.2039e+02	-4.1025	-2.648361	0.000608	6.079892	1.029962	-0.000122
1212	1.2049e+02	-4.1223	-2.781587	0.000669	6.687881	1.132958	-0.000134
1213	1.2059e+02	-4.1425	-2.886552	0.000527	5.269239	0.892633	-0.000105
1214	1.2069e+02	-4.1626	-3.019778	0.000669	6.687881	1.132958	-0.000134
1215	1.2079e+02	-4.1829	-3.148966	0.000649	6.485218	1.098626	-0.000130
1216	1.2089e+02	-4.2020	-3.290266	0.000709	7.093207	1.201622	-0.000142
1217	1.2099e+02	-4.2218	-3.411380	0.000608	6.079892	1.029962	-0.000122
1218	1.2109e+02	-4.2426	-3.536531	0.000628	6.282555	1.064294	-0.000126
1219	1.2119e+02	-4.2621	-3.665719	0.000649	6.485218	1.098626	-0.000130
1220	1.2129e+02	-4.2825	-3.774722	0.000547	5.471902	0.926965	-0.000110
1221	1.2139e+02	-4.3018	-3.920059	0.000730	7.295870	1.235954	-0.000146
1222	1.2149e+02	-4.3213	-4.049247	0.000649	6.485218	1.098626	-0.000130
1223	1.2159e+02	-4.3430	-4.194584	0.000730	7.295870	1.235954	-0.000146
1224	1.2169e+02	-4.3626	-4.283401	0.000446	4.458587	0.755305	-0.000089
1225	1.2179e+02	-4.3820	-4.456998	0.000871	8.714511	1.476278	-0.000174
1226	1.2189e+02	-4.4012	-4.570038	0.000567	5.674566	0.961297	-0.000114
1227	1.2199e+02	-4.4225	-4.711337	0.000709	7.093207	1.201622	-0.000142
1228	1.2209e+02	-4.4415	-4.820340	0.000547	5.471902	0.926965	-0.000110
1229	1.2219e+02	-4.4614	-4.913194	0.000466	4.661250	0.789637	-0.000093
1230	1.2229e+02	-4.4812	-5.066605	0.000770	7.701196	1.304618	-0.000154
1231	1.2239e+02	-4.5026	-5.211942	0.000730	7.295870	1.235954	-0.000146
1232	1.2248e+02	-4.5208	-5.393613	0.000912	9.119837	1.544942	-0.000183
1233	1.2258e+02	-4.5416	-5.470319	0.000385	3.850598	0.652309	-0.000077
1234	1.2268e+02	-4.5618	-5.579322	0.000547	5.471902	0.926965	-0.000110
1235	1.2278e+02	-4.5810	-5.724658	0.000730	7.295870	1.235954	-0.000146
1236	1.2288e+02	-4.6005	-5.882107	0.000790	7.903859	1.338950	-0.000158
1237	1.2298e+02	-4.6207	-5.983035	0.000507	5.066576	0.858301	-0.000101
1238	1.2308e+02	-4.6417	-6.108186	0.000628	6.282555	1.064294	-0.000126
1239	1.2318e+02	-4.6613	-6.269672	0.000811	8.106522	1.373282	-0.000162
1240	1.2328e+02	-4.6799	-6.410972	0.000709	7.093207	1.201622	-0.000142
1241	1.2338e+02	-4.7009	-6.524011	0.000567	5.674566	0.961297	-0.000114
1242	1.2348e+02	-4.7217	-6.661274	0.000689	6.890544	1.167290	-0.000138
1243	1.2358e+02	-4.7400	-6.822759	0.000811	8.106522	1.373282	-0.000162
1244	1.2368e+02	-4.7607	-6.955985	0.000669	6.687881	1.132958	-0.000134
1245	1.2378e+02	-4.7807	-7.040765	0.000426	4.255924	0.720973	-0.000085
1246	1.2388e+02	-4.8004	-7.182064	0.000709	7.093207	1.201622	-0.000142
1247	1.2398e+02	-4.8209	-7.335476	0.000770	7.701196	1.304618	-0.000154
1248	1.2408e+02	-4.8401	-7.448515	0.000567	5.674566	0.961297	-0.000114
1249	1.2418e+02	-4.8596	-7.589815	0.000709	7.093207	1.201622	-0.000142
1250	1.2428e+02	-4.8810	-7.739189	0.000750	7.498533	1.270286	-0.000150
1251	1.2438e+02	-4.9002	-7.892600	0.000770	7.701196	1.304618	-0.000154
1252	1.2447e+02	-4.9205	-8.005640	0.000567	5.674566	0.961297	-0.000114
1253	1.2457e+02	-4.9393	-8.146940	0.000709	7.093207	1.201622	-0.000142
1254	1.2467e+02	-4.9603	-8.284203	0.000689	6.890544	1.167290	-0.000138
1255	1.2477e+02	-4.9792	-8.429539	0.000730	7.295870	1.235954	-0.000146
1256	1.2487e+02	-4.9994	-8.558728	0.000649	6.485218	1.098626	-0.000130
1257	1.2497e+02	-5.0201	-8.691953	0.000669	6.687881	1.132958	-0.000134
1258	1.2507e+02	-5.0397	-8.809030	0.000588	5.877229	0.995629	-0.000118
1259	1.2517e+02	-5.0591	-8.954367	0.000730	7.295870	1.235954	-0.000146
1260	1.2527e+02	-5.0781	-9.123927	0.000851	8.511848	1.441946	-0.000170
1261	1.2537e+02	-5.0995	-9.273301	0.000750	7.498533	1.270286	-0.000150
1262	1.2547e+02	-5.1187	-9.390378	0.000588	5.877229	0.995629	-0.000118
1263	1.2557e+02	-5.1395	-9.563975	0.000871	8.714511	1.476278	-0.000174
1264	1.2567e+02	-5.1584	-9.672977	0.000547	5.471902	0.926965	-0.000110
1265	1.2577e+02	-5.1794	-9.850611	0.000892	8.917174	1.510610	-0.000179
1266	1.2587e+02	-5.1990	-9.955577	0.000527	5.269239	0.892633	-0.000105
1267	1.2597e+02	-5.2185	-10.088802	0.000669	6.687881	1.132958	-0.000134
1268	1.2607e+02	-5.2393	-10.262399	0.000871	8.714511	1.476278	-0.000174
1269	1.2617e+02	-5.2582	-10.391587	0.000649	6.485218	1.098626	-0.000130
1270	1.2627e+02	-5.2789	-10.561147	0.000851	8.511848	1.441946	-0.000170
1271	1.2636e+02	-5.2997	-10.670150	0.000547	5.471902	0.926965	-0.000110
1272	1.2646e+02	-5.3186	-10.831635	0.000811	8.106522	1.373282	-0.000162
1273	1.2656e+02	-5.3387	-10.960824	0.000649	6.485218	1.098626	-0.000130
1274	1.2666e+02	-5.3583	-11.126346	0.000831	8.309185	1.407614	-0.000166
1275	1.2676e+02	-5.3787	-11.267646	0.000709	7.093207	1.201622	-0.000142
1276	1.2686e+02	-5.3984	-11.425094	0.000790	7.903859	1.338950	-0.000158
1277	1.2696e+02	-5.4181	-11.562357	0.000689	6.890544	1.167290	-0.000138
1278	1.2706e+02	-5.4369	-11.671359	0.000547	5.471902	0.926965	-0.000110
1279	1.2716e+02	-5.4578	-11.812659	0.000709	7.093207	1.201622	-0.000142
1280	1.2726e+02	-5.4779	-12.022590	0.001054	10.538479	1.785267	-0.000211
1281	1.2736e+02	-5.4984	-12.147741	0.000628	6.282555	1.064294	-0.000126
1282	1.2746e+02	-5.5182	-12.297115	0.000750	7.498533	1.270286	-0.000150
1283	1.2756e+02	-5.5386	-12.422267	0.000628	6.282555	1.064294	-0.000126
1284	1.2766e+02	-5.5573	-12.583752	0.000811	8.106522	1.373282	-0.000162
1285	1.2776e+02	-5.5792	-12.749275	0.000831	8.309185	1.407614	-0.000166
1286	1.2786e+02	-5.5963	-12.886537	0.000689	6.890544	1.167290	-0.000138
1287	1.2796e+02	-5.6177	-13.056097	0.000851	8.511848	1.441946	-0.000170
1288	1.2806e+02	-5.6384	-13.165100	0.000547	5.471902	0.926965	-0.000110
1289	1.2816e+02	-5.6578	-13.326585	0.000811	8.106522	1.373282	-0.000162
1290	1.2826e+02	-5.6772	-13.467885	0.000709	7.093207	1.201622	-0.000142
1291	1.2835e+02	-5.6964	-13.661667	0.000973	9.727827	1.647938	-0.000195
1292	1.2845e+02	-5.7175	-13.782781	0.000608	6.079892	1.029962	-0.000122
1293	1.2855e+02	-5.7364	-13.960415	0.000892	8.917174	1.510610	-0.000179
1294	1.2865e+02	-5.7574	-14.117864	0.000790	7.903859	1.338950	-0.000158
1295	1.2875e+02	-5.7776	-14.247052	0.000649	6.485218	1.098626	-0.000130
1296	1.2885e+02	-5.7965	-14.392389	0.000730	7.295870	1.235954	-0.000146
1297	1.2895e+02	-5.8167	-14.582134	0.000953	9.525164	1.613606	-0.000191
1298	1.2905e+02	-5.8365	-14.707285	0.000628	6.282555	1.064294	-0.000126
1299	1.2915e+02	-5.8566	-14.872808	0.000831	8.309185	1.407614	-0.000166
1300	1.2925e+02	-5.8771	-15.046405	0.000871	8.714511	1.476278	-0.000174
1301	1.2935e+02	-5.8958	-15.244225	0.000993	9.930490	1.682270	-0.000199
1302	1.2945e+02	-5.9164	-15.361301	0.000588	5.877229	0.995629	-0.000118
1303	1.2955e+02	-5.9357	-15.542973	0.000912	9.119837	1.544942	-0.000183
1304	1.2965e+02	-5.9570	-15.668124	0.000628	6.282555	1.064294	-0.000126
1305	1.2975e+02	-5.9766	-15.874018	0.001034	10.335816	1.750935	-0.000207
1306	1.2985e+02	-5.9966	-16.055689	0.000912	9.119837	1.544942	-0.000183
1307	1.2995e+02	-6.0159	-16.196989	0.000709	7.093207	1.201622	-0.000142
1308	1.3005e+02	-6.0364	-16.354437	0.000790	7.903859	1.338950	-0.000158
1309	1.3015e+02	-6.0564	-16.528034	0.000871	8.714511	1.476278	-0.000174
1310	1.3025e+02	-6.0764	-16.669333	0.000709	7.093207	1.201622	-0.000142
1311	1.3034e+02	-6.0956	-16.846967	0.000892	8.917174	1.510610	-0.000179
1312	1.3044e+02	-6.1157	-16.996341	0.000750	7.498533	1.270286	-0.000150
1313	1.3054e+02	-6.1359	-17.178013	0.000912	9.119837	1.544942	-0.000183
1314	1.3064e+02	-6.1566	-17.351609	0.000871	8.714511	1.476278	-0.000174
1315	1.3074e+02	-6.1755	-17.500983	0.000750	7.498533	1.270286	-0.000150
1316	1.3084e+02	-6.1945	-17.626135	0.000628	6.282555	1.064294	-0.000126
1317	1.3094e+02	-6.2149	-17.807806	0.000912	9.119837	1.544942	-0.000183
1318	1.3104e+02	-6.2347	-18.033885	0.001135	11.349131	1.922595	-0.000227
1319	1.3114e+02	-6.2555	-18.183259	0.000750	7.498533	1.270286	-0.000150
1320	1.3124e+02	-6.2747	-18.389153	0.001034	10.335816	1.750935	-0.000207
1321	1.3134e+02	-6.2958	-18.554676	0.000831	8.309185	1.407614	-0.000166
1322	1.3144e+02	-6.3144	-18.671753	0.000588	5.877229	0.995629	-0.000118
1323	1.3154e+02	-6.3361	-18.889758	0.001094	10.943805	1.853931	-0.000219
1324	1.3164e+02	-6.3547	-19.051244	0.000811	8.106522	1.373282	-0.000162
1325	1.3174e+02	-6.3748	-19.232915	0.000912	9.119837	1.544942	-0.000183
1326	1.3184e+02	-6.3950	-19.370177	0.000689	6.890544	1.167290	-0.000138
1327	1.3194e+02	-6.4142	-19.596257	0.001135	11.349131	1.922595	-0.000227
1328	1.3204e+02	-6.4346	-19.713334	0.000588	5.877229	0.995629	-0.000118
1329	1.3214e+02	-6.4548	-19.919228	0.001034	10.335816	1.750935	-0.000207
1330	1.3224e+02	-6.4740	-20.084750	0.000831	8.309185	1.407614	-0.000166
1331	1.3234e+02	-6.4932	-20.282570	0.000993	9.930490	1.682270	-0.000199
1332	1.3243e+02	-6.5143	-20.440018	0.000790	7.903859	1.338950	-0.000158
1333	1.3253e+02	-6.5344	-20.625726	0.000932	9.322501	1.579274	-0.000187
1334	1.3263e+02	-6.5533	-20.771063	0.000730	7.295870	1.235954	-0.000146
1335	1.3273e+02	-6.5735	-20.956772	0.000932	9.322501	1.579274	-0.000187
1336	1.3283e+02	-6.5942	-21.138443	0.000912	9.119837	1.544942	-0.000183
1337	1.3293e+02	-6.6132	-21.320114	0.000912	9.119837	1.544942	-0.000183
1338	1.3303e+02	-6.6336	-21.461414	0.000709	7.093207	1.201622	-0.000142
1339	1.3313e+02	-6.6541	-21.675382	0.001074	10.741142	1.819599	-0.000215
1340	1.3323e+02	-6.6745	-21.881276	0.001034	10.335816	1.750935	-0.000207
1341	1.3333e+02	-6.6937	-22.103318	0.001115	11.146468	1.888263	-0.000223
1342	1.3343e+02	-6.7133	-22.248655	0.000730	7.295870	1.235954	-0.000146
1343	1.3353e+02	-6.7339	-22.418215	0.000851	8.511848	1.441946	-0.000170
1344	1.3363e+02	-6.7535	-22.587774	0.000851	8.511848	1.441946	-0.000170
1345	1.3373e+02	-6.7737	-22.785594	0.000993	9.930490	1.682270	-0.000199
1346	1.3383e+02	-6.7932	-22.943042	0.000790	7.903859	1.338950	-0.000158
1347	1.3393e+02	-6.8127	-23.157011	0.001074	10.741142	1.819599	-0.000215
1348	1.3403e+02	-6.8335	-23.358867	0.001013	10.133153	1.716603	-0.000203
1349	1.3413e+02	-6.8527	-23.528427	0.000851	8.511848	1.441946	-0.000170
1350	1.3423e+02	-6.8726	-23.726247	0.000993	9.930490	1.682270	-0.000199
1351	1.3432e+02	-6.8933	-23.911955	0.000932	9.322501	1.579274	-0.000187
1352	1.3442e+02	-6.9128	-24.117849	0.001034	10.335816	1.750935	-0.000207
1353	1.3452e+02	-6.9318	-24.307594	0.000953	9.525164	1.613606	-0.000191
1354	1.3462e+02	-6.9525	-24.489265	0.000912	9.119837	1.544942	-0.000183
1355	1.3472e+02	-6.9727	-24.691122	0.001013	10.133153	1.716603	-0.000203
1356	1.3482e+02	-6.9919	-24.848570	0.000790	7.903859	1.338950	-0.000158
1357	1.3492e+02	-7.0111	-25.102910	0.001277	12.767772	2.162919	-0.000256
1358	1.3502e+02	-7.0328	-25.280544	0.000892	8.917174	1.510610	-0.000179
1359	1.3512e+02	-7.0529	-25.478364	0.000993	9.930490	1.682270	-0.000199
1360	1.3522e+02	-7.0721	-25.664072	0.000932	9.322501	1.579274	-0.000187
1361	1.3532e+02	-7.0917	-25.902263	0.001196	11.957120	2.025591	-0.000239
1362	1.3542e+02	-7.1130	-26.116231	0.001074	10.741142	1.819599	-0.000215
1363	1.3552e+02	-7.1326	-26.289828	0.000871	8.714511	1.476278	-0.000174
1364	1.3562e+02	-7.1518	-26.471499	0.000912	9.119837	1.544942	-0.000183
1365	1.3572e+02	-7.1716	-26.669319	0.000993	9.930490	1.682270	-0.000199
1366	1.3582e+02	-7.1924	-26.895398	0.001135	11.349131	1.922595	-0.000227
1367	1.3592e+02	-7.2116	-27.121478	0.001135	11.349131	1.922595	-0.000227
1368	1.3602e+02	-7.2321	-27.295075	0.000871	8.714511	1.476278	-0.000174
1369	1.3612e+02	-7.2510	-27.541340	0.001236	12.362446	2.094255	-0.000248
1370	1.3622e+02	-7.2723	-27.718974	0.000892	8.917174	1.510610	-0.000179
1371	1.3631e+02	-7.2913	-27.932942	0.001074	10.741142	1.819599	-0.000215
1372	1.3641e+02	-7.3099	-28.118650	0.000932	9.322501	1.579274	-0.000187
1373	1.3651e+02	-7.3309	-28.336656	0.001094	10.943805	1.853931	-0.000219
1374	1.3661e+02	-7.3511	-28.574847	0.001196	11.957120	2.025591	-0.000239
1375	1.3671e+02	-7.3712	-28.780741	0.001034	10.335816	1.750935	-0.000207
1376	1.3681e+02	-7.3914	-28.974523	0.000973	9.727827	1.647938	-0.000195
1377	1.3691e+02	-7.4118	-29.204640	0.001155	11.551794	1.956927	-0.000231
1378	1.3701e+02	-7.4304	-29.378237	0.000871	8.714511	1.476278	-0.000174
1379	1.3711e+02	-7.4518	-29.628539	0.001257	12.565109	2.128587	-0.000252
1380	1.3721e+02	-7.4707	-29.810210	0.000912	9.119837	1.544942	-0.000183
1381	1.3731e+02	-7.4908	-30.068587	0.001297	12.970435	2.197251	-0.000260
1382	1.3741e+02	-7.5110	-30.262369	0.000973	9.727827	1.647938	-0.000195
1383	1.3751e+02	-7.5299	-30.460189	0.000993	9.930490	1.682270	-0.000199
1384	1.3761e+02	-7.5500	-30.746826	0.001439	14.389077	2.437576	-0.000288
1385	1.3771e+02	-7.5705	-30.932534	0.000932	9.322501	1.579274	-0.000187
1386	1.3781e+02	-7.5903	-31.122279	0.000953	9.525164	1.613606	-0.000191
1387	1.3791e+02	-7.6093	-31.376619	0.001277	12.767772	2.162919	-0.000256
1388	1.3801e+02	-7.6300	-31.578476	0.001013	10.133153	1.716603	-0.000203
1389	1.3811e+02	-7.6501	-31.796481	0.001094	10.943805	1.853931	-0.000219
1390	1.3821e+02	-7.6697	-31.998338	0.001013	10.133153	1.716603	-0.000203
1391	1.3831e+02	-7.6892	-32.248640	0.001257	12.565109	2.128587	-0.000252
1392	1.3840e+02	-7.7106	-32.466646	0.001094	10.943805	1.853931	-0.000219
1393	1.3850e+02	-7.7295	-32.716948	0.001257	12.565109	2.128587	-0.000252
1394	1.3860e+02	-7.7496	-32.951102	0.001175	11.754457	1.991259	-0.000235
1395	1.3870e+02	-7.7698	-33.173144	0.001115	11.146468	1.888263	-0.000223
1396	1.3880e+02	-7.7887	-33.415373	0.001216	12.159783	2.059923	-0.000243
1397	1.3890e+02	-7.8088	-33.681823	0.001338	13.375762	2.265915	-0.000268
1398	1.3900e+02	-7.8293	-33.891755	0.001054	10.538479	1.785267	-0.000211
1399	1.3910e+02	-7.8497	-34.121871	0.001155	11.551794	1.956927	-0.000231
1400	1.3920e+02	-7.8699	-34.396396	0.001378	13.781088	2.334579	-0.000276
1401	1.3930e+02	-7.8888	-34.602290	0.001034	10.335816	1.750935	-0.000207
1402	1.3940e+02	-7.9095	-34.816259	0.001074	10.741142	1.819599	-0.000215
1403	1.3950e+02	-7.9279	-35.090784	0.001378	13.781088	2.334579	-0.000276
1404	1.3960e+02	-7.9486	-35.337049	0.001236	12.362446	2.094255	-0.000248
1405	1.3970e+02	-7.9688	-35.587352	0.001257	12.565109	2.128587	-0.000252
1406	1.3980e+02	-7.9889	-35.841691	0.001277	12.767772	2.162919	-0.000256
1407	1.3990e+02	-8.0090	-36.075845	0.001175	11.754457	1.991259	-0.000235
1408	1.4000e+02	-8.0280	-36.318073	0.001216	12.159783	2.059923	-0.000243
1409	1.4010e+02	-8.0484	-36.592598	0.001378	13.781088	2.334579	-0.000276
1410	1.4020e+02	-8.0676	-36.842901	0.001257	12.565109	2.128587	-0.000252
1411	1.4029e+02	-8.0878	-37.048795	0.001034	10.335816	1.750935	-0.000207
1412	1.4039e+02	-8.1079	-37.363691	0.001581	15.807718	2.677900	-0.000316
1413	1.4049e+02	-8.1274	-37.638216	0.001378	13.781088	2.334579	-0.000276
1414	1.4059e+02	-8.1482	-37.892556	0.001277	12.767772	2.162919	-0.000256
1415	1.4069e+02	-8.1683	-38.130747	0.001196	11.957120	2.025591	-0.000239
1416	1.4079e+02	-8.1866	-38.381049	0.001257	12.565109	2.128587	-0.000252
1417	1.4089e+02	-8.2080	-38.639426	0.001297	12.970435	2.197251	-0.000260
1418	1.4099e+02	-8.2288	-38.938174	0.001500	14.997066	2.540572	-0.000300
1419	1.4109e+02	-8.2477	-39.192514	0.001277	12.767772	2.162919	-0.000256
1420	1.4119e+02	-8.2666	-39.454928	0.001317	13.173099	2.231583	-0.000264
1421	1.4129e+02	-8.2872	-39.745601	0.001459	14.591740	2.471908	-0.000292
1422	1.4139e+02	-8.3075	-39.999941	0.001277	12.767772	2.162919	-0.000256
1423	1.4149e+02	-8.3270	-40.278503	0.001398	13.983751	2.368912	-0.000280
1424	1.4159e+02	-8.3478	-40.540917	0.001317	13.173099	2.231583	-0.000264
1425	1.4169e+02	-8.3673	-40.823517	0.001419	14.186414	2.403244	-0.000284
1426	1.4179e+02	-8.3871	-41.081893	0.001297	12.970435	2.197251	-0.000260
1427	1.4189e+02	-8.4076	-41.340270	0.001297	12.970435	2.197251	-0.000260
1428	1.4199e+02	-8.4265	-41.622869	0.001419	14.186414	2.403244	-0.000284
1429	1.4209e+02	-8.4467	-41.893358	0.001358	13.578425	2.300247	-0.000272
1430	1.4219e+02	-8.4662	-42.196143	0.001520	15.199729	2.574904	-0.000304
1431	1.4228e+02	-8.4868	-42.486817	0.001459	14.591740	2.471908	-0.000292
1432	1.4238e+02	-8.5062	-42.761342	0.001378	13.781088	2.334579	-0.000276
1433	1.4248e+02	-8.5272	-43.076238	0.001581	15.807718	2.677900	-0.000316
1434	1.4258e+02	-8.5468	-43.370949	0.001479	14.794403	2.506240	-0.000296
1435	1.4268e+02	-8.5663	-43.641437	0.001358	13.578425	2.300247	-0.000272
1436	1.4278e+02	-8.5858	-43.992668	0.001763	17.631686	2.986888	-0.000353
1437	1.4288e+02	-8.6066	-44.214711	0.001115	11.146468	1.888263	-0.000223
1438	1.4298e+02	-8.6261	-44.533644	0.001601	16.010381	2.712232	-0.000321
1439	1.4308e+02	-8.6462	-44.840467	0.001540	15.402392	2.609236	-0.000308
1440	1.4318e+02	-8.6658	-45.131140	0.001459	14.591740	2.471908	-0.000292
1441	1.4328e+02	-8.6865	-45.442000	0.001561	15.605055	2.643568	-0.000312
1442	1.4338e+02	-8.7054	-45.740748	0.001500	14.997066	2.540572	-0.000300
1443	1.4348e+02	-8.7262	-46.031422	0.001459	14.591740	2.471908	-0.000292
1444	1.4358e+02	-8.7457	-46.330170	0.001500	14.997066	2.540572	-0.000300
1445	1.4368e+02	-8.7659	-46.665252	0.001682	16.821034	2.849560	-0.000337
1446	1.4378e+02	-8.7854	-46.955926	0.001459	14.591740	2.471908	-0.000292
1447	1.4388e+02	-8.8055	-47.282934	0.001642	16.415707	2.780896	-0.000329
1448	1.4398e+02	-8.8260	-47.589756	0.001540	15.402392	2.609236	-0.000308
1449	1.4408e+02	-8.8458	-47.892541	0.001520	15.199729	2.574904	-0.000304
1450	1.4418e+02	-8.8654	-48.219549	0.001642	16.415707	2.780896	-0.000329
1451	1.4428e+02	-8.8855	-48.554632	0.001682	16.821034	2.849560	-0.000337
1452	1.4437e+02	-8.9050	-48.873565	0.001601	16.010381	2.712232	-0.000321
1453	1.4447e+02	-8.9252	-49.148090	0.001378	13.781088	2.334579	-0.000276
1454	1.4457e+02	-8.9441	-49.507396	0.001804	18.037012	3.055553	-0.000361
1455	1.4467e+02	-8.9645	-49.822292	0.001581	15.807718	2.677900	-0.000316
1456	1.4477e+02	-8.9844	-50.165449	0.001723	17.226360	2.918224	-0.000345
1457	1.4487e+02	-9.0051	-50.464197	0.001500	14.997066	2.540572	-0.000300
1458	1.4497e+02	-9.0244	-50.819465	0.001783	17.834349	3.021220	-0.000357
1459	1.4507e+02	-9.0436	-51.170695	0.001763	17.631686	2.986888	-0.000353
1460	1.4517e+02	-9.0649	-51.505778	0.001682	16.821034	2.849560	-0.000337
1461	1.4527e+02	-9.0839	-51.832786	0.001642	16.415707	2.780896	-0.000329
1462	1.4537e+02	-9.1034	-52.179979	0.001743	17.429023	2.952556	-0.000349
1463	1.4547e+02	-9.1248	-52.519099	0.001702	17.023697	2.883892	-0.000341
1464	1.4557e+02	-9.1443	-52.874367	0.001783	17.834349	3.021220	-0.000357
1465	1.4567e+02	-9.1632	-53.229635	0.001783	17.834349	3.021220	-0.000357
1466	1.4577e+02	-9.1840	-53.588940	0.001804	18.037012	3.055553	-0.000361
1467	1.4587e+02	-9.2041	-53.952282	0.001824	18.239675	3.089885	-0.000365
1468	1.4597e+02	-9.2236	-54.271216	0.001601	16.010381	2.712232	-0.000321
1469	1.4607e+02	-9.2444	-54.662818	0.001966	19.658316	3.330209	-0.000394
1470	1.4617e+02	-9.2639	-55.042309	0.001905	19.050327	3.227213	-0.000381
1471	1.4626e+02	-9.2841	-55.397577	0.001783	17.834349	3.021220	-0.000357
1472	1.4636e+02	-9.3034	-55.777067	0.001905	19.050327	3.227213	-0.000381
1473	1.4646e+02	-9.3231	-56.124261	0.001743	17.429023	2.952556	-0.000349
1474	1.4656e+02	-9.3433	-56.527975	0.002027	20.266305	3.433205	-0.000406
1475	1.4666e+02	-9.3634	-56.871131	0.001723	17.226360	2.918224	-0.000345
1476	1.4676e+02	-9.3826	-57.258696	0.001946	19.455653	3.295877	-0.000390
1477	1.4686e+02	-9.4019	-57.638187	0.001905	19.050327	3.227213	-0.000381
1478	1.4696e+02	-9.4226	-58.029789	0.001966	19.658316	3.330209	-0.000394
1479	1.4706e+02	-9.4434	-58.405243	0.001885	18.847664	3.192881	-0.000377
1480	1.4716e+02	-9.4626	-58.768585	0.001824	18.239675	3.089885	-0.000365
1481	1.4726e+02	-9.4824	-59.156150	0.001946	19.455653	3.295877	-0.000390
1482	1.4736e+02	-9.5020	-59.563901	0.002047	20.468968	3.467537	-0.000410
1483	1.4746e+02	-9.5227	-59.971651	0.002047	20.468968	3.467537	-0.000410
1484	1.4756e+02	-9.5428	-60.347105	0.001885	18.847664	3.192881	-0.000377
1485	1.4766e+02	-9.5624	-60.730633	0.001925	19.252990	3.261545	-0.000385
1486	1.4776e+02	-9.5825	-61.154532	0.002128	21.279621	3.604865	-0.000426
1487	1.4786e+02	-9.6027	-61.558246	0.002027	20.266305	3.433205	-0.000406
1488	1.4796e+02	-9.6222	-61.965996	0.002047	20.468968	3.467537	-0.000410
1489	1.4806e+02	-9.6429	-62.365673	0.002006	20.063642	3.398873	-0.000402
1490	1.4816e+02	-9.6631	-62.769386	0.002027	20.266305	3.433205	-0.000406
1491	1.4825e+02	-9.6819	-63.169063	0.002006	20.063642	3.398873	-0.000402
1492	1.4835e+02	-9.7015	-63.609111	0.002209	22.090273	3.742194	-0.000442
1493	1.4845e+02	-9.7223	-64.000713	0.001966	19.658316	3.330209	-0.000394
1494	1.4855e+02	-9.7424	-64.481132	0.002412	24.116903	4.085514	-0.000483
1495	1.4865e+02	-9.7607	-64.892920	0.002067	20.671632	3.501869	-0.000414
1496	1.4875e+02	-9.7815	-65.304708	0.002067	20.671632	3.501869	-0.000414
1497	1.4885e+02	-9.8010	-65.740718	0.002189	21.887610	3.707861	-0.000438
1498	1.4895e+02	-9.8218	-66.168655	0.002148	21.482284	3.639197	-0.000430
1499	1.4905e+02	-9.8413	-66.612740	0.002229	22.292936	3.776526	-0.000446
1500	1.4915e+02	-9.8602	-67.052787	0.002209	22.090273	3.742194	-0.000442
1501	1.4925e+02	-9.8810	-67.480724	0.002148	21.482284	3.639197	-0.000430
1502	1.4935e+02	-9.9005	-67.928846	0.002250	22.495599	3.810858	-0.000450
1503	1.4945e+02	-9.9219	-68.389079	0.002310	23.103588	3.913854	-0.000463
1504	1.4955e+02	-9.9402	-68.845276	0.002290	22.900925	3.879522	-0.000458
1505	1.4965e+02	-9.9622	-69.297435	0.002270	22.698262	3.845190	-0.000454
1506	1.4975e+02	-9.9811	-69.753631	0.002290	22.900925	3.879522	-0.000458
1507	1.4985e+02	-10.0000	-70.213865	0.002310	23.103588	3.913854	-0.000463
1508	1.4995e+02	-9.9805	-70.524724	-0.001561	-15.605055	-2.643568	-0.000312
1509	1.5005e+02	-9.9615	-70.762915	-0.001196	-11.957120	-2.025591	-0.000239
1510	1.5015e+02	-9.9396	-71.037440	-0.001378	-13.781088	-2.334579	-0.000276
1511	1.5025e+02	-9.9207	-71.320040	-0.001419	-14.186414	-2.403244	-0.000284
1512	1.5034e+02	-9.9017	-71.505748	-0.000932	-9.322501	-1.579274	-0.000187
1513	1.5044e+02	-9.8804	-71.719716	-0.001074	-10.741142	-1.819599	-0.000215
1514	1.5054e+02	-9.8615	-71.901387	-0.000912	-9.119837	-1.544942	-0.000183
1515	1.5064e+02	-9.8413	-72.163801	-0.001317	-13.173099	-2.231583	-0.000264
1516	1.5074e+02	-9.8206	-72.349510	-0.000932	-9.322501	-1.579274	-0.000187
1517	1.5084e+02	-9.8019	-72.510995	-0.000811	-8.106522	-1.373282	-0.000162
1518	1.5094e+02	-9.7812	-72.672480	-0.000811	-8.106522	-1.373282	-0.000162
1519	1.5104e+02	-9.7617	-72.842040	-0.000851	-8.511848	-1.441946	-0.000170
1520	1.5114e+02	-9.7418	-73.007563	-0.000831	-8.309185	-1.407614	-0.000166
1521	1.5124e+02	-9.7223	-73.193271	-0.000932	-9.322501	-1.579274	-0.000187
1522	1.5134e+02	-9.7021	-73.322459	-0.000649	-6.485218	-1.098626	-0.000130
1523	1.5144e+02	-9.6826	-73.439536	-0.000588	-5.877229	-0.995629	-0.000118
1524	1.5154e+02	-9.6619	-73.613133	-0.000871	-8.714511	-1.476278	-0.000174
1525	1.5164e+02	-9.6423	-73.726173	-0.000567	-5.674566	-0.961297	-0.000114
1526	1.5174e+02	-9.6228	-73.859398	-0.000669	-6.687881	-1.132958	-0.000134
1527	1.5184e+02	-9.6027	-74.004735	-0.000730	-7.295870	-1.235954	-0.000146
1528	1.5194e+02	-9.5825	-74.117775	-0.000567	-5.674566	-0.961297	-0.000114
1529	1.5204e+02	-9.5624	-74.170258	-0.000263	-2.634620	-0.446317	-0.000053
1530	1.5214e+02	-9.5427	-74.275223	-0.000527	-5.269239	-0.892633	-0.000105
1531	1.5224e+02	-9.5227	-74.372115	-0.000486	-4.863913	-0.823969	-0.000097
1532	1.5233e+02	-9.5026	-74.521489	-0.000750	-7.498533	-1.270286	-0.000150
1533	1.5243e+02	-9.4818	-74.557823	-0.000182	-1.823967	-0.308988	-0.000037
1534	1.5253e+02	-9.4629	-74.707197	-0.000750	-7.498533	-1.270286	-0.000150
1535	1.5263e+02	-9.4431	-74.800051	-0.000466	-4.661250	-0.789637	-0.000093
1536	1.5273e+02	-9.4238	-74.820237	-0.000101	-1.013315	-0.171660	-0.000020
1537	1.5283e+02	-9.4031	-74.913091	-0.000466	-4.661250	-0.789637	-0.000093
1538	1.5293e+02	-9.3835	-74.961536	-0.000243	-2.431957	-0.411985	-0.000049
1539	1.5303e+02	-9.3628	-75.054391	-0.000466	-4.661250	-0.789637	-0.000093
1540	1.5313e+02	-9.3439	-75.131096	-0.000385	-3.850598	-0.652309	-0.000077
1541	1.5323e+02	-9.3234	-75.175505	-0.000223	-2.229294	-0.377653	-0.000045
1542	1.5333e+02	-9.3036	-75.215876	-0.000203	-2.026631	-0.343321	-0.000041
1543	1.5343e+02	-9.2841	-75.316804	-0.000507	-5.066576	-0.858301	-0.000101
1544	1.5353e+02	-9.2633	-75.332953	-0.000081	-0.810652	-0.137328	-0.000016
1545	1.5363e+02	-9.2438	-75.373324	-0.000203	-2.026631	-0.343321	-0.000041
1546	1.5373e+02	-9.2230	-75.365250	0.000041	0.405326	0.068664	0.000008
1547	1.5383e+02	-9.2041	-75.454067	-0.000446	-4.458587	-0.755305	-0.000089
1548	1.5393e+02	-9.1833	-75.506550	-0.000263	-2.634620	-0.446317	-0.000053
1549	1.5403e+02	-9.1632	-75.510587	-0.000020	-0.202663	-0.034332	-0.000004
1550	1.5413e+02	-9.1443	-75.591330	-0.000405	-4.053261	-0.686641	-0.000081
1551	1.5422e+02	-9.1235	-75.591330	0.000000	0.000000	0.000000	0.000000
1552	1.5432e+02	-9.1037	-75.607478	-0.000081	-0.810652	-0.137328	-0.000016
1553	1.5442e+02	-9.0845	-75.595367	0.000061	0.607989	0.102996	0.000012
1554	1.5452e+02	-9.0643	-75.651887	-0.000284	-2.837283	-0.480649	-0.000057
1555	1.5462e+02	-9.0448	-75.668035	-0.000081	-0.810652	-0.137328	-0.000016
1556	1.5472e+02	-9.0240	-75.655924	0.000061	0.607989	0.102996	0.000012
1557	1.5482e+02	-9.0045	-75.680147	-0.000122	-1.215978	-0.205992	-0.000024
1558	1.5492e+02	-8.9850	-75.676109	0.000020	0.202663	0.034332	0.000004
1559	1.5502e+02	-8.9636	-75.688221	-0.000061	-0.607989	-0.102996	-0.000012
1560	1.5512e+02	-8.9441	-75.708406	-0.000101	-1.013315	-0.171660	-0.000020
1561	1.5522e+02	-8.9246	-75.712444	-0.000020	-0.202663	-0.034332	-0.000004
1562	1.5532e+02	-8.9056	-75.708406	0.000020	0.202663	0.034332	0.000004
1563	1.5542e+02	-8.8855	-75.736666	-0.000142	-1.418641	-0.240324	-0.000028
1564	1.5552e+02	-8.8647	-75.700332	0.000182	1.823967	0.308988	0.000037
1565	1.5562e+02	-8.8452	-75.736666	-0.000182	-1.823967	-0.308988	-0.000037
1566	1.5572e+02	-8.8249	-75.740704	-0.000020	-0.202663	-0.034332	-0.000004
1567	1.5582e+02	-8.8055	-75.716481	0.000122	1.215978	0.205992	0.000024
1568	1.5592e+02	-8.7851	-75.740704	-0.000122	-1.215978	-0.205992	-0.000024
1569	1.5602e+02	-8.7665	-75.684184	0.000284	2.837283	0.480649	0.000057
1570	1.5612e+02	-8.7451	-75.708406	-0.000122	-1.215978	-0.205992	-0.000024
1571	1.5622e+02	-8.7256	-75.668035	0.000203	2.026631	0.343321	0.000041
1572	1.5631e+02	-8.7054	-75.659961	0.000041	0.405326	0.068664	0.000008
1573	1.5641e+02	-8.6850	-75.663998	-0.000020	-0.202663	-0.034332	-0.000004
1574	1.5651e+02	-8.6658	-75.631701	0.000162	1.621304	0.274656	0.000032
1575	1.5661e+02	-8.6462	-75.615552	0.000081	0.810652	0.137328	0.000016
1576	1.5671e+02	-8.6255	-75.611515	0.000020	0.202663	0.034332	0.000004
1577	1.5681e+02	-8.6066	-75.567107	0.000223	2.229294	0.377653	0.000045
1578	1.5691e+02	-8.5858	-75.559032	0.000041	0.405326	0.068664	0.000008
1579	1.5701e+02	-8.5663	-75.530773	0.000142	1.418641	0.240324	0.000028
1580	1.5711e+02	-8.5455	-75.526735	0.000020	0.202663	0.034332	0.000004
1581	1.5721e+02	-8.5269	-75.510587	0.000081	0.810652	0.137328	0.000016
1582	1.5731e+02	-8.5071	-75.490401	0.000101	1.013315	0.171660	0.000020
1583	1.5741e+02	-8.4857	-75.425807	0.000324	3.242609	0.549313	0.000065
1584	1.5751e+02	-8.4668	-75.401584	0.000122	1.215978	0.205992	0.000024
1585	1.5761e+02	-8.4460	-75.377361	0.000122	1.215978	0.205992	0.000024
1586	1.5771e+02	-8.4271	-75.349101	0.000142	1.418641	0.240324	0.000028
1587	1.5781e+02	-8.4067	-75.312767	0.000182	1.823967	0.308988	0.000037
1588	1.5791e+02	-8.3862	-75.304693	0.000041	0.405326	0.068664	0.000008
1589	1.5801e+02	-8.3667	-75.252210	0.000263	2.634620	0.446317	0.000053
1590	1.5811e+02	-8.3466	-75.203765	0.000243	2.431957	0.411985	0.000049
1591	1.5821e+02	-8.3264	-75.151282	0.000263	2.634620	0.446317	0.000053
1592	1.5830e+02	-8.3078	-75.175505	-0.000122	-1.215978	-0.205992	-0.000024
1593	1.5840e+02	-8.2874	-75.090725	0.000426	4.255924	0.720973	0.000085
1594	1.5850e+02	-8.2675	-75.066502	0.000122	1.215978	0.205992	0.000024
1595	1.5860e+02	-8.2477	-75.030168	0.000182	1.823967	0.308988	0.000037
1596	1.5870e+02	-8.2275	-74.961536	0.000345	3.445272	0.583645	0.000069
1597	1.5880e+02	-8.2080	-74.949425	0.000061	0.607989	0.102996	0.000012
1598	1.5890e+02	-8.1879	-74.888868	0.000304	3.039946	0.514981	0.000061
1599	1.5900e+02	-8.1683	-74.864645	0.000122	1.215978	0.205992	0.000024
1600	1.5910e+02	-8.1476	-74.796014	0.000345	3.445272	0.583645	0.000069
1601	1.5920e+02	-8.1274	-74.739494	0.000284	2.837283	0.480649	0.000057
1602	1.5930e+02	-8.1079	-74.715271	0.000122	1.215978	0.205992	0.000024
1603	1.5940e+02	-8.0881	-74.650677	0.000324	3.242609	0.549313	0.000065
1604	1.5950e+02	-8.0676	-74.610306	0.000203	2.026631	0.343321	0.000041
1605	1.5960e+02	-8.0487	-74.557823	0.000263	2.634620	0.446317	0.000053
1606	1.5970e+02	-8.0286	-74.513414	0.000223	2.229294	0.377653	0.000045
1607	1.5980e+02	-8.0081	-74.440746	0.000365	3.647935	0.617977	0.000073
1608	1.5990e+02	-7.9883	-74.404412	0.000182	1.823967	0.308988	0.000037
1609	1.6000e+02	-7.9697	-74.343855	0.000304	3.039946	0.514981	0.000061
1610	1.6010e+02	-7.9486	-74.271186	0.000365	3.647935	0.617977	0.000073
1611	1.6019e+02	-7.9294	-74.234852	0.000182	1.823967	0.308988	0.000037
1612	1.6029e+02	-7.9083	-74.170258	0.000324	3.242609	0.549313	0.000065
1613	1.6039e+02	-7.8888	-74.141998	0.000142	1.418641	0.240324	0.000028
1614	1.6049e+02	-7.8690	-74.057218	0.000426	4.255924	0.720973	0.000085
1615	1.6059e+02	-7.8485	-74.016847	0.000203	2.026631	0.343321	0.000041
1616	1.6069e+02	-7.8293	-73.968401	0.000243	2.431957	0.411985	0.000049
1617	1.6079e+02	-7.8101	-73.919955	0.000243	2.431957	0.411985	0.000049
1618	1.6089e+02	-7.7893	-73.851324	0.000345	3.445272	0.583645	0.000069
1619	1.6099e+02	-7.7686	-73.770581	0.000405	4.053261	0.686641	0.000081
1620	1.6109e+02	-7.7490	-73.710024	0.000304	3.039946	0.514981	0.000061
1621	1.6119e+02	-7.7293	-73.657542	0.000263	2.634620	0.446317	0.000053
1622	1.6129e+02	-7.7103	-73.568725	0.000446	4.458587	0.755305	0.000089
1623	1.6139e+02	-7.6898	-73.532390	0.000182	1.823967	0.308988	0.000037
1624	1.6149e+02	-7.6697	-73.463759	0.000345	3.445272	0.583645	0.000069
1625	1.6159e+02	-7.6500	-73.395128	0.000345	3.445272	0.583645	0.000069
1626	1.6169e+02	-7.6297	-73.314385	0.000405	4.053261	0.686641	0.000081
1627	1.6179e+02	-7.6089	-73.265939	0.000243	2.431957	0.411985	0.000049
1628	1.6189e+02	-7.5897	-73.193271	0.000365	3.647935	0.617977	0.000073
1629	1.6199e+02	-7.5699	-73.152900	0.000203	2.026631	0.343321	0.000041
1630	1.6209e+02	-7.5500	-73.076194	0.000385	3.850598	0.652309	0.000077
1631	1.6219e+02	-7.5305	-73.003526	0.000365	3.647935	0.617977	0.000073
1632	1.6228e+02	-7.5113	-72.967191	0.000182	1.823967	0.308988	0.000037
1633	1.6238e+02	-7.4908	-72.898560	0.000345	3.445272	0.583645	0.000069
1634	1.6248e+02	-7.4707	-72.874337	0.000122	1.215978	0.205992	0.000024
1635	1.6258e+02	-7.4512	-72.809743	0.000324	3.242609	0.549313	0.000065
1636	1.6268e+02	-7.4313	-72.688629	0.000608	6.079892	1.029962	0.000122
1637	1.6278e+02	-7.4115	-72.624035	0.000324	3.242609	0.549313	0.000065
1638	1.6288e+02	-7.3914	-72.599812	0.000122	1.215978	0.205992	0.000024
1639	1.6298e+02	-7.3709	-72.543292	0.000284	2.837283	0.480649	0.000057
1640	1.6308e+02	-7.3517	-72.442364	0.000507	5.066576	0.858301	0.000101
1641	1.6318e+02	-7.3318	-72.393918	0.000243	2.431957	0.411985	0.000049
1642	1.6328e+02	-7.3114	-72.317212	0.000385	3.850598	0.652309	0.000077
1643	1.6338e+02	-7.2922	-72.248581	0.000345	3.445272	0.583645	0.000069
1644	1.6348e+02	-7.2723	-72.167838	0.000405	4.053261	0.686641	0.000081
1645	1.6358e+02	-7.2510	-72.111319	0.000284	2.837283	0.480649	0.000057
1646	1.6368e+02	-7.2311	-72.022502	0.000446	4.458587	0.755305	0.000089
1647	1.6378e+02	-7.2113	-71.961945	0.000304	3.039946	0.514981	0.000061
1648	1.6388e+02	-7.1936	-71.893313	0.000345	3.445272	0.583645	0.000069
1649	1.6398e+02	-7.1710	-71.812571	0.000405	4.053261	0.686641	0.000081
1650	1.6408e+02	-7.1521	-71.752013	0.000304	3.039946	0.514981	0.000061
1651	1.6418e+02	-7.1326	-71.695494	0.000284	2.837283	0.480649	0.000057
1652	1.6427e+02	-7.1136	-71.622825	0.000365	3.647935	0.617977	0.000073
1653	1.6437e+02	-7.0923	-71.497674	0.000628	6.282555	1.064294	0.000126
1654	1.6447e+02	-7.0728	-71.441154	0.000284	2.837283	0.480649	0.000057
1655	1.6457e+02	-7.0526	-71.420968	0.000101	1.013315	0.171660	0.000020
1656	1.6467e+02	-7.0320	-71.271594	0.000750	7.498533	1.270286	0.000150
1657	1.6477e+02	-7.0123	-71.215074	0.000284	2.837283	0.480649	0.000057
1658	1.6487e+02	-6.9926	-71.190852	0.000122	1.215978	0.205992	0.000024
1659	1.6497e+02	-6.9727	-71.057626	0.000669	6.687881	1.132958	0.000134
1660	1.6507e+02	-6.9531	-71.017255	0.000203	2.026631	0.343321	0.000041
1661	1.6517e+02	-6.9330	-70.980921	0.000182	1.823967	0.308988	0.000037
1662	1.6527e+02	-6.9128	-70.835584	0.000730	7.295870	1.235954	0.000146
1663	1.6537e+02	-6.8924	-70.803287	0.000162	1.621304	0.274656	0.000032
1664	1.6547e+02	-6.8719	-70.718507	0.000426	4.255924	0.720973	0.000085
1665	1.6557e+02	-6.8530	-70.609504	0.000547	5.471902	0.926965	0.000110
1666	1.6567e+02	-6.8335	-70.540873	0.000345	3.445272	0.583645	0.000069
1667	1.6577e+02	-6.8137	-70.439944	0.000507	5.066576	0.858301	0.000101
1668	1.6587e+02	-6.7938	-70.379387	0.000304	3.039946	0.514981	0.000061
1669	1.6597e+02	-6.7725	-70.322867	0.000284	2.837283	0.480649	0.000057
1670	1.6607e+02	-6.7535	-70.242125	0.000405	4.053261	0.686641	0.000081
1671	1.6616e+02	-6.7343	-70.141196	0.000507	5.066576	0.858301	0.000101
1672	1.6626e+02	-6.7136	-70.100825	0.000203	2.026631	0.343321	0.000041
1673	1.6636e+02	-6.6937	-69.999897	0.000507	5.066576	0.858301	0.000101
1674	1.6646e+02	-6.6736	-69.907042	0.000466	4.661250	0.789637	0.000093
1675	1.6656e+02	-6.6541	-69.781891	0.000628	6.282555	1.064294	0.000126
1676	1.6666e+02	-6.6341	-69.749594	0.000162	1.621304	0.274656	0.000032
1677	1.6676e+02	-6.6138	-69.693074	0.000284	2.837283	0.480649	0.000057
1678	1.6686e+02	-6.5936	-69.592146	0.000507	5.066576	0.858301	0.000101
1679	1.6696e+02	-6.5747	-69.483143	0.000547	5.471902	0.926965	0.000110
1680	1.6706e+02	-6.5540	-69.430660	0.000263	2.634620	0.446317	0.000053
1681	1.6716e+02	-6.5344	-69.341843	0.000446	4.458587	0.755305	0.000089
1682	1.6726e+02	-6.5149	-69.257064	0.000426	4.255924	0.720973	0.000085
1683	1.6736e+02	-6.4948	-69.156135	0.000507	5.066576	0.858301	0.000101
1684	1.6746e+02	-6.4751	-69.091541	0.000324	3.242609	0.549313	0.000065
1685	1.6756e+02	-6.4539	-69.018873	0.000365	3.647935	0.617977	0.000073
1686	1.6766e+02	-6.4349	-68.889684	0.000649	6.485218	1.098626	0.000130
1687	1.6776e+02	-6.4139	-68.812979	0.000385	3.850598	0.652309	0.000077
1688	1.6786e+02	-6.3947	-68.736273	0.000385	3.850598	0.652309	0.000077
1689	1.6796e+02	-6.3745	-68.651493	0.000426	4.255924	0.720973	0.000085
1690	1.6806e+02	-6.3544	-68.566713	0.000426	4.255924	0.720973	0.000085
1691	1.6816e+02	-6.3342	-68.502119	0.000324	3.242609	0.549313	0.000065
1692	1.6825e+02	-6.3153	-68.389079	0.000567	5.674566	0.961297	0.000114
1693	1.6835e+02	-6.2961	-68.312374	0.000385	3.850598	0.652309	0.000077
1694	1.6845e+02	-6.2755	-68.215483	0.000486	4.863913	0.823969	0.000097
1695	1.6855e+02	-6.2561	-68.158963	0.000284	2.837283	0.480649	0.000057
1696	1.6865e+02	-6.2358	-68.049960	0.000547	5.471902	0.926965	0.000110
1697	1.6875e+02	-6.2170	-67.953069	0.000486	4.863913	0.823969	0.000097
1698	1.6885e+02	-6.1957	-67.884437	0.000345	3.445272	0.583645	0.000069
1699	1.6895e+02	-6.1761	-67.811769	0.000365	3.647935	0.617977	0.000073
1700	1.6905e+02	-6.1560	-67.694692	0.000588	5.877229	0.995629	0.000118
1701	1.6915e+02	-6.1359	-67.605875	0.000446	4.458587	0.755305	0.000089
1702	1.6925e+02	-6.1157	-67.557429	0.000243	2.431957	0.411985	0.000049
1703	1.6935e+02	-6.0968	-67.464575	0.000466	4.661250	0.789637	0.000093
1704	1.6945e+02	-6.0767	-67.387870	0.000385	3.850598	0.652309	0.000077
1705	1.6955e+02	-6.0559	-67.274830	0.000567	5.674566	0.961297	0.000114
1706	1.6965e+02	-6.0356	-67.186013	0.000446	4.458587	0.755305	0.000089
1707	1.6975e+02	-6.0156	-67.089122	0.000486	4.863913	0.823969	0.000097
1708	1.6985e+02	-5.9966	-67.004342	0.000426	4.255924	0.720973	0.000085
1709	1.6995e+02	-5.9769	-66.899376	0.000527	5.269239	0.892633	0.000105
1710	1.7005e+02	-5.9564	-66.798448	0.000507	5.066576	0.858301	0.000101
1711	1.7015e+02	-5.9363	-66.737891	0.000304	3.039946	0.514981	0.000061
1712	1.7024e+02	-5.9186	-66.632925	0.000527	5.269239	0.892633	0.000105
1713	1.7034e+02	-5.8954	-66.540071	0.000466	4.661250	0.789637	0.000093
1714	1.7044e+02	-5.8765	-66.447217	0.000466	4.661250	0.789637	0.000093
1715	1.7054e+02	-5.8569	-66.358400	0.000446	4.458587	0.755305	0.000089
1716	1.7064e+02	-5.8350	-66.249397	0.000547	5.471902	0.926965	0.000110
1717	1.7074e+02	-5.8157	-66.152506	0.000486	4.863913	0.823969	0.000097
1718	1.7084e+02	-5.7970	-66.079838	0.000365	3.647935	0.617977	0.000073
1719	1.7094e+02	-5.7770	-65.995058	0.000426	4.255924	0.720973	0.000085
1720	1.7104e+02	-5.7568	-65.857795	0.000689	6.890544	1.167290	0.000138
1721	1.7114e+02	-5.7367	-65.777053	0.000405	4.053261	0.686641	0.000081
1722	1.7124e+02	-5.7181	-65.684198	0.000466	4.661250	0.789637	0.000093
1723	1.7134e+02	-5.6976	-65.591344	0.000466	4.661250	0.789637	0.000093
1724	1.7144e+02	-5.6775	-65.454082	0.000689	6.890544	1.167290	0.000138
1725	1.7154e+02	-5.6573	-65.341042	0.000567	5.674566	0.961297	0.000114
1726	1.7164e+02	-5.6372	-65.256262	0.000426	4.255924	0.720973	0.000085
1727	1.7174e+02	-5.6174	-65.207816	0.000243	2.431957	0.411985	0.000049
1728	1.7184e+02	-5.5969	-65.098814	0.000547	5.471902	0.926965	0.000110
1729	1.7194e+02	-5.5774	-64.993848	0.000527	5.269239	0.892633	0.000105
1730	1.7204e+02	-5.5585	-64.880808	0.000567	5.674566	0.961297	0.000114
1731	1.7213e+02	-5.5380	-64.791991	0.000446	4.458587	0.755305	0.000089
1732	1.7223e+02	-5.5182	-64.699137	0.000466	4.661250	0.789637	0.000093
1733	1.7233e+02	-5.4974	-64.590135	0.000547	5.471902	0.926965	0.000110
1734	1.7243e+02	-5.4785	-64.501318	0.000446	4.458587	0.755305	0.000089
1735	1.7253e+02	-5.4578	-64.432686	0.000345	3.445272	0.583645	0.000069
1736	1.7263e+02	-5.4382	-64.303498	0.000649	6.485218	1.098626	0.000130
1737	1.7273e+02	-5.4178	-64.218718	0.000426	4.255924	0.720973	0.000085
1738	1.7283e+02	-5.3983	-64.133938	0.000426	4.255924	0.720973	0.000085
1739	1.7293e+02	-5.3778	-64.016861	0.000588	5.877229	0.995629	0.000118
1740	1.7303e+02	-5.3587	-63.952267	0.000324	3.242609	0.549313	0.000065
1741	1.7313e+02	-5.3387	-63.859413	0.000466	4.661250	0.789637	0.000093
1742	1.7323e+02	-5.3180	-63.701965	0.000790	7.903859	1.338950	0.000158
1743	1.7333e+02	-5.2988	-63.605074	0.000486	4.863913	0.823969	0.000097
1744	1.7343e+02	-5.2777	-63.528368	0.000385	3.850598	0.652309	0.000077
1745	1.7353e+02	-5.2588	-63.423402	0.000527	5.269239	0.892633	0.000105
1746	1.7363e+02	-5.2393	-63.326511	0.000486	4.863913	0.823969	0.000097
1747	1.7373e+02	-5.2179	-63.225583	0.000507	5.066576	0.858301	0.000101
1748	1.7383e+02	-5.1988	-63.096394	0.000649	6.485218	1.098626	0.000130
1749	1.7393e+02	-5.1782	-63.031800	0.000324	3.242609	0.549313	0.000065
1750	1.7403e+02	-5.1596	-62.947020	0.000426	4.255924	0.720973	0.000085
1751	1.7413e+02	-5.1389	-62.797646	0.000750	7.498533	1.270286	0.000150
1752	1.7422e+02	-5.1196	-62.724978	0.000365	3.647935	0.617977	0.000073
1753	1.7432e+02	-5.0995	-62.636161	0.000446	4.458587	0.755305	0.000089
1754	1.7442e+02	-5.0787	-62.563493	0.000365	3.647935	0.617977	0.000073
1755	1.7452e+02	-5.0589	-62.418156	0.000730	7.295870	1.235954	0.000146
1756	1.7462e+02	-5.0390	-62.280893	0.000689	6.890544	1.167290	0.000138
1757	1.7472e+02	-5.0201	-62.228410	0.000263	2.634620	0.446317	0.000053
1758	1.7482e+02	-4.9991	-62.131519	0.000486	4.863913	0.823969	0.000097
1759	1.7492e+02	-4.9799	-61.998294	0.000669	6.687881	1.132958	0.000134
1760	1.7502e+02	-4.9609	-61.937736	0.000304	3.039946	0.514981	0.000061
1761	1.7512e+02	-4.9405	-61.812585	0.000628	6.282555	1.064294	0.000126
1762	1.7522e+02	-4.9193	-61.687434	0.000628	6.282555	1.064294	0.000126
1763	1.7532e+02	-4.8999	-61.606691	0.000405	4.053261	0.686641	0.000081
1764	1.7542e+02	-4.8802	-61.493652	0.000567	5.674566	0.961297	0.000114
1765	1.7552e+02	-4.8605	-61.408872	0.000426	4.255924	0.720973	0.000085
1766	1.7562e+02	-4.8401	-61.283721	0.000628	6.282555	1.064294	0.000126
1767	1.7572e+02	-4.8206	-61.219126	0.000324	3.242609	0.549313	0.000065
1768	1.7582e+02	-4.8003	-61.110124	0.000547	5.471902	0.926965	0.000110
1769	1.7592e+02	-4.7806	-61.017270	0.000466	4.661250	0.789637	0.000093
1770	1.7602e+02	-4.7601	-60.892118	0.000628	6.282555	1.064294	0.000126
1771	1.7612e+02	-4.7409	-60.787153	0.000527	5.269239	0.892633	0.000105
1772	1.7621e+02	-4.7198	-60.686224	0.000507	5.066576	0.858301	0.000101
1773	1.7631e+02	-4.7000	-60.601445	0.000426	4.255924	0.720973	0.000085
1774	1.7641e+02	-4.6814	-60.480330	0.000608	6.079892	1.029962	0.000122
1775	1.7651e+02	-4.6606	-60.359216	0.000608	6.079892	1.029962	0.000122
1776	1.7661e+02	-4.6411	-60.234065	0.000628	6.282555	1.064294	0.000126
1777	1.7671e+02	-4.6204	-60.209842	0.000122	1.215978	0.205992	0.000024
1778	1.7681e+02	-4.6014	-60.052394	0.000790	7.903859	1.338950	0.000158
1779	1.7691e+02	-4.5813	-59.939354	0.000567	5.674566	0.961297	0.000114
1780	1.7701e+02	-4.5612	-59.802092	0.000689	6.890544	1.167290	0.000138
1781	1.7711e+02	-4.5408	-59.753646	0.000243	2.431957	0.411985	0.000049
1782	1.7721e+02	-4.5212	-59.624458	0.000649	6.485218	1.098626	0.000130
1783	1.7731e+02	-4.5012	-59.495269	0.000649	6.485218	1.098626	0.000130
1784	1.7741e+02	-4.4818	-59.406452	0.000446	4.458587	0.755305	0.000089
1785	1.7751e+02	-4.4617	-59.285338	0.000608	6.079892	1.029962	0.000122
1786	1.7761e+02	-4.4420	-59.188447	0.000486	4.863913	0.823969	0.000097
1787	1.7771e+02	-4.4218	-59.099630	0.000446	4.458587	0.755305	0.000089
1788	1.7781e+02	-4.4017	-58.970442	0.000649	6.485218	1.098626	0.000130
1789	1.7791e+02	-4.3820	-58.877588	0.000466	4.661250	0.789637	0.000093
1790	1.7801e+02	-4.3619	-58.800882	0.000385	3.850598	0.652309	0.000077
1791	1.7810e+02	-4.3420	-58.663619	0.000689	6.890544	1.167290	0.000138
1792	1.7820e+02	-4.3210	-58.550580	0.000567	5.674566	0.961297	0.000114
1793	1.7830e+02	-4.3030	-58.449651	0.000507	5.066576	0.858301	0.000101
1794	1.7840e+02	-4.2827	-58.352760	0.000486	4.863913	0.823969	0.000097
1795	1.7850e+02	-4.2621	-58.223572	0.000649	6.485218	1.098626	0.000130
1796	1.7860e+02	-4.2422	-58.126680	0.000486	4.863913	0.823969	0.000097
1797	1.7870e+02	-4.2221	-58.009603	0.000588	5.877229	0.995629	0.000118
1798	1.7880e+02	-4.2029	-57.928861	0.000405	4.053261	0.686641	0.000081
1799	1.7890e+02	-4.1821	-57.823895	0.000527	5.269239	0.892633	0.000105
1800	1.7900e+02	-4.1632	-57.731041	0.000466	4.661250	0.789637	0.000093
1801	1.7910e+02	-4.1431	-57.622038	0.000547	5.471902	0.926965	0.000110
1802	1.7920e+02	-4.1226	-57.488813	0.000669	6.687881	1.132958	0.000134
1803	1.7930e+02	-4.1034	-57.404033	0.000426	4.255924	0.720973	0.000085
1804	1.7940e+02	-4.0826	-57.311179	0.000466	4.661250	0.789637	0.000093
1805	1.7950e+02	-4.0634	-57.186028	0.000628	6.282555	1.064294	0.000126
1806	1.7960e+02	-4.0424	-57.089136	0.000486	4.863913	0.823969	0.000097
1807	1.7970e+02	-4.0234	-56.955911	0.000669	6.687881	1.132958	0.000134
1808	1.7980e+02	-4.0012	-56.879205	0.000385	3.850598	0.652309	0.000077
1809	1.7990e+02	-3.9841	-56.750017	0.000649	6.485218	1.098626	0.000130
1810	1.8000e+02	-3.9636	-56.673311	0.000385	3.850598	0.652309	0.000077
1811	1.8009e+02	-3.9430	-56.568346	0.000527	5.269239	0.892633	0.000105
1812	1.8019e+02	-3.9236	-56.406861	0.000811	8.106522	1.373282	0.000162
1813	1.8029e+02	-3.9041	-56.342266	0.000324	3.242609	0.549313	0.000065
1814	1.8039e+02	-3.8835	-56.221152	0.000608	6.079892	1.029962	0.000122
1815	1.8049e+02	-3.8629	-56.136372	0.000426	4.255924	0.720973	0.000085
1816	1.8059e+02	-3.8431	-56.015258	0.000608	6.079892	1.029962	0.000122
1817	1.8069e+02	-3.8229	-55.898181	0.000588	5.877229	0.995629	0.000118
1818	1.8079e+02	-3.8031	-55.817439	0.000405	4.053261	0.686641	0.000081
1819	1.8089e+02	-3.7831	-55.720547	0.000486	4.863913	0.823969	0.000097
1820	1.8099e+02	-3.7640	-55.599433	0.000608	6.079892	1.029962	0.000122
1821	1.8109e+02	-3.7448	-55.450059	0.000750	7.498533	1.270286	0.000150
1822	1.8119e+02	-3.7250	-55.353168	0.000486	4.863913	0.823969	0.000097
1823	1.8129e+02	-3.7042	-55.304722	0.000243	2.431957	0.411985	0.000049
1824	1.8139e+02	-3.6853	-55.151311	0.000770	7.701196	1.304618	0.000154
1825	1.8149e+02	-3.6649	-55.026160	0.000628	6.282555	1.064294	0.000126
1826	1.8159e+02	-3.6444	-54.921195	0.000527	5.269239	0.892633	0.000105
1827	1.8169e+02	-3.6258	-54.787969	0.000669	6.687881	1.132958	0.000134
1828	1.8179e+02	-3.6047	-54.739523	0.000243	2.431957	0.411985	0.000049
1829	1.8189e+02	-3.5840	-54.586112	0.000770	7.701196	1.304618	0.000154
1830	1.8199e+02	-3.5654	-54.521518	0.000324	3.242609	0.549313	0.000065
1831	1.8209e+02	-3.5448	-54.380218	0.000709	7.093207	1.201622	0.000142
1832	1.8218e+02	-3.5245	-54.287364	0.000466	4.661250	0.789637	0.000093
1833	1.8228e+02	-3.5058	-54.142027	0.000730	7.295870	1.235954	0.000146
1834	1.8238e+02	-3.4845	-54.073396	0.000345	3.445272	0.583645	0.000069
1835	1.8248e+02	-3.4650	-53.924022	0.000750	7.498533	1.270286	0.000150
1836	1.8258e+02	-3.4460	-53.851354	0.000365	3.647935	0.617977	0.000073
1837	1.8268e+02	-3.4256	-53.726202	0.000628	6.282555	1.064294	0.000126
1838	1.8278e+02	-3.4048	-53.625274	0.000507	5.066576	0.858301	0.000101
1839	1.8288e+02	-3.3860	-53.475900	0.000750	7.498533	1.270286	0.000150
1840	1.8298e+02	-3.3659	-53.366897	0.000547	5.471902	0.926965	0.000110
1841	1.8308e+02	-3.3459	-53.221560	0.000730	7.295870	1.235954	0.000146
1842	1.8318e+02	-3.3261	-53.156966	0.000324	3.242609	0.549313	0.000065
1843	1.8328e+02	-3.3051	-53.023741	0.000669	6.687881	1.132958	0.000134
1844	1.8338e+02	-3.2880	-52.947035	0.000385	3.850598	0.652309	0.000077
1845	1.8348e+02	-3.2660	-52.854181	0.000466	4.661250	0.789637	0.000093
1846	1.8358e+02	-3.2465	-52.696733	0.000790	7.903859	1.338950	0.000158
1847	1.8368e+02	-3.2251	-52.583693	0.000567	5.674566	0.961297	0.000114
1848	1.8378e+02	-3.2064	-52.498913	0.000426	4.255924	0.720973	0.000085
1849	1.8388e+02	-3.1857	-52.357613	0.000709	7.093207	1.201622	0.000142
1850	1.8398e+02	-3.1662	-52.228425	0.000649	6.485218	1.098626	0.000130
1851	1.8407e+02	-3.1465	-52.135571	0.000466	4.661250	0.789637	0.000093
1852	1.8417e+02	-3.1255	-52.034643	0.000507	5.066576	0.858301	0.000101
1853	1.8427e+02	-3.1063	-51.885269	0.000750	7.498533	1.270286	0.000150
1854	1.8437e+02	-3.0872	-51.788377	0.000486	4.863913	0.823969	0.000097
1855	1.8447e+02	-3.0673	-51.675337	0.000567	5.674566	0.961297	0.000114
1856	1.8457e+02	-3.0463	-51.570372	0.000527	5.269239	0.892633	0.000105
1857	1.8467e+02	-3.0292	-51.493666	0.000385	3.850598	0.652309	0.000077
1858	1.8477e+02	-3.0064	-51.332181	0.000811	8.106522	1.373282	0.000162
1859	1.8487e+02	-2.9865	-51.259512	0.000365	3.647935	0.617977	0.000073
1860	1.8497e+02	-2.9666	-51.150510	0.000547	5.471902	0.926965	0.000110
1861	1.8507e+02	-2.9468	-50.989024	0.000811	8.106522	1.373282	0.000162
1862	1.8517e+02	-2.9266	-50.908282	0.000405	4.053261	0.686641	0.000081
1863	1.8527e+02	-2.9077	-50.766982	0.000709	7.093207	1.201622	0.000142
1864	1.8537e+02	-2.8874	-50.657979	0.000547	5.471902	0.926965	0.000110
1865	1.8547e+02	-2.8674	-50.557051	0.000507	5.066576	0.858301	0.000101
1866	1.8557e+02	-2.8470	-50.439974	0.000588	5.877229	0.995629	0.000118
1867	1.8567e+02	-2.8277	-50.314823	0.000628	6.282555	1.064294	0.000126
1868	1.8577e+02	-2.8072	-50.226006	0.000446	4.458587	0.755305	0.000089
1869	1.8587e+02	-2.7876	-50.080669	0.000730	7.295870	1.235954	0.000146
1870	1.8597e+02	-2.7676	-50.016075	0.000324	3.242609	0.549313	0.000065
1871	1.8606e+02	-2.7471	-49.890923	0.000628	6.282555	1.064294	0.000126
1872	1.8616e+02	-2.7272	-49.741549	0.000750	7.498533	1.270286	0.000150
1873	1.8626e+02	-2.7075	-49.632547	0.000547	5.471902	0.926965	0.000110
1874	1.8636e+02	-2.6874	-49.511433	0.000608	6.079892	1.029962	0.000122
1875	1.8646e+02	-2.6675	-49.414541	0.000486	4.863913	0.823969	0.000097
1876	1.8656e+02	-2.6474	-49.301502	0.000567	5.674566	0.961297	0.000114
1877	1.8666e+02	-2.6282	-49.216722	0.000426	4.255924	0.720973	0.000085
1878	1.8676e+02	-2.6077	-49.079459	0.000689	6.890544	1.167290	0.000138
1879	1.8686e+02	-2.5880	-48.942197	0.000689	6.890544	1.167290	0.000138
1880	1.8696e+02	-2.5685	-48.833194	0.000547	5.471902	0.926965	0.000110
1881	1.8706e+02	-2.5482	-48.708043	0.000628	6.282555	1.064294	0.000126
1882	1.8716e+02	-2.5280	-48.627300	0.000405	4.053261	0.686641	0.000081
1883	1.8726e+02	-2.5092	-48.486000	0.000709	7.093207	1.201622	0.000142
1884	1.8736e+02	-2.4896	-48.393146	0.000466	4.661250	0.789637	0.000093
1885	1.8746e+02	-2.4689	-48.235698	0.000790	7.903859	1.338950	0.000158
1886	1.8756e+02	-2.4493	-48.154955	0.000405	4.053261	0.686641	0.000081
1887	1.8766e+02	-2.4289	-48.009618	0.000730	7.295870	1.235954	0.000146
1888	1.8776e+02	-2.4097	-47.876393	0.000669	6.687881	1.132958	0.000134
1889	1.8786e+02	-2.3898	-47.787576	0.000446	4.458587	0.755305	0.000089
1890	1.8796e+02	-2.3688	-47.605905	0.000912	9.119837	1.544942	0.000183
1891	1.8806e+02	-2.3499	-47.517088	0.000446	4.458587	0.755305	0.000089
1892	1.8815e+02	-2.3294	-47.371751	0.000730	7.295870	1.235954	0.000146
1893	1.8825e+02	-2.3094	-47.295045	0.000385	3.850598	0.652309	0.000077
1894	1.8835e+02	-2.2900	-47.153745	0.000709	7.093207	1.201622	0.000142
1895	1.8845e+02	-2.2701	-47.024557	0.000649	6.485218	1.098626	0.000130
1896	1.8855e+02	-2.2499	-46.891332	0.000669	6.687881	1.132958	0.000134
1897	1.8865e+02	-2.2296	-46.790403	0.000507	5.066576	0.858301	0.000101
1898	1.8875e+02	-2.2098	-46.669289	0.000608	6.079892	1.029962	0.000122
1899	1.8885e+02	-2.1899	-46.556249	0.000567	5.674566	0.961297	0.000114
1900	1.8895e+02	-2.1704	-46.443210	0.000567	5.674566	0.961297	0.000114
1901	1.8905e+02	-2.1500	-46.342281	0.000507	5.066576	0.858301	0.000101
1902	1.8915e+02	-2.1299	-46.176759	0.000831	8.309185	1.407614	0.000166
1903	1.8925e+02	-2.1103	-46.100053	0.000385	3.850598	0.652309	0.000077
1904	1.8935e+02	-2.0895	-45.978939	0.000608	6.079892	1.029962	0.000122
1905	1.8945e+02	-2.0706	-45.857825	0.000608	6.079892	1.029962	0.000122
1906	1.8955e+02	-2.0500	-45.724599	0.000669	6.687881	1.132958	0.000134
1907	1.8965e+02	-2.0304	-45.591374	0.000669	6.687881	1.132958	0.000134
1908	1.8975e+02	-2.0110	-45.502557	0.000446	4.458587	0.755305	0.000089
1909	1.8985e+02	-1.9904	-45.361257	0.000709	7.093207	1.201622	0.000142
1910	1.8995e+02	-1.9708	-45.256292	0.000527	5.269239	0.892633	0.000105
1911	1.9004e+02	-1.9513	-45.143252	0.000567	5.674566	0.961297	0.000114
1912	1.9014e+02	-1.9311	-45.046361	0.000486	4.863913	0.823969	0.000097
1913	1.9024e+02	-1.9110	-44.872764	0.000871	8.714511	1.476278	0.000174
1914	1.9034e+02	-1.8908	-44.779910	0.000466	4.661250	0.789637	0.000093
1915	1.9044e+02	-1.8709	-44.662833	0.000588	5.877229	0.995629	0.000118
1916	1.9054e+02	-1.8506	-44.549793	0.000567	5.674566	0.961297	0.000114
1917	1.9064e+02	-1.8311	-44.420605	0.000649	6.485218	1.098626	0.000130
1918	1.9074e+02	-1.8109	-44.307565	0.000567	5.674566	0.961297	0.000114
1919	1.9084e+02	-1.7911	-44.178376	0.000649	6.485218	1.098626	0.000130
1920	1.9094e+02	-1.7714	-44.020928	0.000790	7.903859	1.338950	0.000158
1921	1.9104e+02	-1.7507	-43.936148	0.000426	4.255924	0.720973	0.000085
1922	1.9114e+02	-1.7314	-43.819071	0.000588	5.877229	0.995629	0.000118
1923	1.9124e+02	-1.7107	-43.661623	0.000790	7.903859	1.338950	0.000158
1924	1.9134e+02	-1.6919	-43.556657	0.000527	5.269239	0.892633	0.000105
1925	1.9144e+02	-1.6708	-43.439581	0.000588	5.877229	0.995629	0.000118
1926	1.9154e+02	-1.6512	-43.318466	0.000608	6.079892	1.029962	0.000122
1927	1.9164e+02	-1.6315	-43.193315	0.000628	6.282555	1.064294	0.000126
1928	1.9174e+02	-1.6113	-43.092387	0.000507	5.066576	0.858301	0.000101
1929	1.9184e+02	-1.5921	-42.987421	0.000527	5.269239	0.892633	0.000105
1930	1.9194e+02	-1.5720	-42.894567	0.000466	4.661250	0.789637	0.000093
1931	1.9203e+02	-1.5530	-42.729045	0.000831	8.309185	1.407614	0.000166
1932	1.9213e+02	-1.5318	-42.607931	0.000608	6.079892	1.029962	0.000122
1933	1.9223e+02	-1.5121	-42.466631	0.000709	7.093207	1.201622	0.000142
1934	1.9233e+02	-1.4926	-42.357628	0.000547	5.471902	0.926965	0.000110
1935	1.9243e+02	-1.4713	-42.252663	0.000527	5.269239	0.892633	0.000105
1936	1.9253e+02	-1.4529	-42.151734	0.000507	5.066576	0.858301	0.000101
1937	1.9263e+02	-1.4331	-41.978137	0.000871	8.714511	1.476278	0.000174
1938	1.9273e+02	-1.4124	-41.861060	0.000588	5.877229	0.995629	0.000118
1939	1.9283e+02	-1.3921	-41.776281	0.000426	4.255924	0.720973	0.000085
1940	1.9293e+02	-1.3721	-41.630944	0.000730	7.295870	1.235954	0.000146
1941	1.9303e+02	-1.3522	-41.538090	0.000466	4.661250	0.789637	0.000093
1942	1.9313e+02	-1.3326	-41.388716	0.000750	7.498533	1.270286	0.000150
1943	1.9323e+02	-1.3123	-41.263564	0.000628	6.282555	1.064294	0.000126
1944	1.9333e+02	-1.2921	-41.198970	0.000324	3.242609	0.549313	0.000065
1945	1.9343e+02	-1.2732	-41.009225	0.000953	9.525164	1.613606	0.000191
1946	1.9353e+02	-1.2537	-40.908296	0.000507	5.066576	0.858301	0.000101
1947	1.9363e+02	-1.2333	-40.779108	0.000649	6.485218	1.098626	0.000130
1948	1.9373e+02	-1.2136	-40.649920	0.000649	6.485218	1.098626	0.000130
1949	1.9383e+02	-1.1942	-40.532843	0.000588	5.877229	0.995629	0.000118
1950	1.9393e+02	-1.1734	-40.423840	0.000547	5.471902	0.926965	0.000110
1951	1.9403e+02	-1.1540	-40.290615	0.000669	6.687881	1.132958	0.000134
1952	1.9412e+02	-1.1343	-40.201798	0.000446	4.458587	0.755305	0.000089
1953	1.9422e+02	-1.1133	-40.040312	0.000811	8.106522	1.373282	0.000162
1954	1.9432e+02	-1.0934	-39.911124	0.000649	6.485218	1.098626	0.000130
1955	1.9442e+02	-1.0742	-39.785973	0.000628	6.282555	1.064294	0.000126
1956	1.9452e+02	-1.0544	-39.689081	0.000486	4.863913	0.823969	0.000097
1957	1.9462e+02	-1.0335	-39.563930	0.000628	6.282555	1.064294	0.000126
1958	1.9472e+02	-1.0136	-39.434742	0.000649	6.485218	1.098626	0.000130
1959	1.9482e+02	-0.9935	-39.289405	0.000730	7.295870	1.235954	0.000146
1960	1.9492e+02	-0.9738	-39.188477	0.000507	5.066576	0.858301	0.000101
1961	1.9502e+02	-0.9546	-39.039103	0.000750	7.498533	1.270286	0.000150
1962	1.9512e+02	-0.9347	-38.946248	0.000466	4.661250	0.789637	0.000093
1963	1.9522e+02	-0.9142	-38.821097	0.000628	6.282555	1.064294	0.000126
1964	1.9532e+02	-0.8943	-38.695946	0.000628	6.282555	1.064294	0.000126
1965	1.9542e+02	-0.8745	-38.534461	0.000811	8.106522	1.373282	0.000162
1966	1.9552e+02	-0.8545	-38.449681	0.000426	4.255924	0.720973	0.000085
1967	1.9562e+02	-0.8353	-38.364901	0.000426	4.255924	0.720973	0.000085
1968	1.9572e+02	-0.8148	-38.239750	0.000628	6.282555	1.064294	0.000126
1969	1.9582e+02	-0.7953	-38.118636	0.000608	6.079892	1.029962	0.000122
1970	1.9592e+02	-0.7752	-37.977336	0.000709	7.093207	1.201622	0.000142
1971	1.9601e+02	-0.7552	-37.844110	0.000669	6.687881	1.132958	0.000134
1972	1.9611e+02	-0.7344	-37.731071	0.000567	5.674566	0.961297	0.000114
1973	1.9621e+02	-0.7150	-37.634179	0.000486	4.863913	0.823969	0.000097
1974	1.9631e+02	-0.6955	-37.504991	0.000649	6.485218	1.098626	0.000130
1975	1.9641e+02	-0.6750	-37.347543	0.000790	7.903859	1.338950	0.000158
1976	1.9651e+02	-0.6543	-37.303134	0.000223	2.229294	0.377653	0.000045
1977	1.9661e+02	-0.6359	-37.145686	0.000790	7.903859	1.338950	0.000158
1978	1.9671e+02	-0.6163	-36.992275	0.000770	7.701196	1.304618	0.000154
1979	1.9681e+02	-0.5943	-36.911532	0.000405	4.053261	0.686641	0.000081
1980	1.9691e+02	-0.5759	-36.782344	0.000649	6.485218	1.098626	0.000130
1981	1.9701e+02	-0.5559	-36.661230	0.000608	6.079892	1.029962	0.000122
1982	1.9711e+02	-0.5359	-36.544153	0.000588	5.877229	0.995629	0.000118
1983	1.9721e+02	-0.5152	-36.414964	0.000649	6.485218	1.098626	0.000130
1984	1.9731e+02	-0.4950	-36.293850	0.000608	6.079892	1.029962	0.000122
1985	1.9741e+02	-0.4751	-36.172736	0.000608	6.079892	1.029962	0.000122
1986	1.9751e+02	-0.4558	-36.051622	0.000608	6.079892	1.029962	0.000122
1987	1.9761e+02	-0.4355	-35.942619	0.000547	5.471902	0.926965	0.000110
1988	1.9771e+02	-0.4164	-35.809394	0.000669	6.687881	1.132958	0.000134
1989	1.9781e+02	-0.3964	-35.680206	0.000649	6.485218	1.098626	0.000130
1990	1.9791e+02	-0.3775	-35.579277	0.000507	5.066576	0.858301	0.000101
1991	1.9800e+02	-0.3558	-35.437978	0.000709	7.093207	1.201622	0.000142
1992	1.9810e+02	-0.3365	-35.308789	0.000649	6.485218	1.098626	0.000130
1993	1.9820e+02	-0.3163	-35.195749	0.000567	5.674566	0.961297	0.000114
1994	1.9830e+02	-0.2958	-35.058487	0.000689	6.890544	1.167290	0.000138
1995	1.9840e+02	-0.2762	-34.965633	0.000466	4.661250	0.789637	0.000093
1996	1.9850e+02	-0.2552	-34.844519	0.000608	6.079892	1.029962	0.000122
1997	1.9860e+02	-0.2369	-34.719367	0.000628	6.282555	1.064294	0.000126
1998	1.9870e+02	-0.2161	-34.561919	0.000790	7.903859	1.338950	0.000158
1999	1.9880e+02	-0.1969	-34.489251	0.000365	3.647935	0.617977	0.000073
2000	1.9890e+02	-0.1772	-34.364099	0.000628	6.282555	1.064294	0.000126
2001	1.9900e+02	-0.1568	-34.226837	0.000689	6.890544	1.167290	0.000138
2002	1.9910e+02	-0.1373	-34.109760	0.000588	5.877229	0.995629	0.000118
2003	1.9920e+02	-0.1172	-33.968460	0.000709	7.093207	1.201622	0.000142
2004	1.9930e+02	-0.0969	-33.851383	0.000588	5.877229	0.995629	0.000118
2005	1.9940e+02	-0.0771	-33.738343	0.000567	5.674566	0.961297	0.000114
2006	1.9950e+02	-0.0565	-33.601081	0.000689	6.890544	1.167290	0.000138
2007	1.9960e+02	-0.0378	-33.488041	0.000567	5.674566	0.961297	0.000114
2008	1.9970e+02	-0.0180	-33.322518	0.000831	8.309185	1.407614	0.000166
2009	1.9980e+02	0.0015	-33.261961	0.000831	8.309185	1.407614	0.000061

Center data before PMax,+/-Pr and +/-Vc Calc.

PMax (uC/cm2):	7.57e+01
Pr (uC/cm2):	2.45e+01
-Pr (uC/cm2):	-3.33e+01
PLoss (uC/cm2):	-5.46e+01
-Vc:	-3.70e+00
C (Max-Eff) (nF):	7.57e-01
K (Eff):	1.28e+03
Vert. (+/-Pr) Shift (uC/cm2):	-4.39e+00
Offset (uC/cm2):	-2.13e+01

A (Loop Area - uC/cm2·Volts):	-2.39e-01



Hysteresis Version: 5.48.1 - Radiant Technologies, Inc., 1999 - 9/12/24

