»»»»»»»»»»»»»»»»»»»»»»»»»»»»»»»»»»»» Hysteresis ««««««««««««««««««««««««««««««««««««
»»»  Executed Version:	5.48.1
»»»  Vision Version:	5.48.4 (R)
»»»  Vision Compiled:	9/18/24
»»»  Driver Version:	5.47.0
»»»  Windows Version:	Windows 8 or 8.1
»»»  Processor Information:	x86 (AMD or Intel) - 32 Processors
»»»  Tester Name:	PMF21124-494 (100V)
»»»  Tester S/N:	PMF21124-494
»»»  Internal Amp Type:	100V RevK 270k
»»»  Internal Amp S/N:	iAB2-596/K     
»»»  Execution Count:	1
»»»»»»»»»»»»»»»»»»»»»»»»»»»»»»»»»»»»»»»»»»««««««««««««««««««««««««««««««««««««««««««

Stored:	7/9/2025 - 17:48:6
Configured:	07/09/25 02:06:30 PM
Executed:	07/09/25 05:47:39 PM

»»»»»»»»»»»»»»»»»»»»»»»»»»»»»»»»»»» Sample Info ««««««««««««««««««««««««««««««««««««
Sample Name:	
Lot Name:	
Wafer Name:	
Die Row/Column:	0/0
Capacitor Number:	0
Sample Area (cm2):	1.00e-04
Sample Thickness (microns):	1.50e-01

Amplifier:	Internal

»»»»»»»»»»»»»»»»»»»»»»»»»»»»»»»»»»» Tester Info «««««««««««««««««««««««««««««««««««
Tester Name:	PMF21124-494 (100V)
Tester Serial Number:	PMF21124-494
Return Signal Amp. Level:	0.19 [Index: 3]

»»»»»»»»»»»»»»»»»»»»»»»»»»»»»»»» Hysteresis Info ««««««««««««««««««««««««««««««««««
Task Name:	Hyst-900
Volts:	10.00
Field:	666.67 (kV/cm)
DCBias:	0.00
DCField:	0.00 (kV/cm)
Hysteresis Period (ms):	2.00e+02
Preset:	Enabled
Preset Delay (ms):	1.00e+03
Profile:	Standard Bipolar

»»»»»»»»»»»»»»»»»»»»»»»»»»»»»»»»»»»»»» Data «««««««««««««««««««««««««««««««««««««««
Points:	2009

Valid Data

Point	Time (ms)	Drive Voltage	Measured Polarization (uC/cm2)	Capacitance (uF)	Normalized Capacitance (uF/cm2)	Dielectric Constant	Instantaneous Current (mA)
   1	0.0000e+00	-0.0006	8.082346	0.000507	5.067620	0.858478	0.000101
   2	9.9500e-02	0.0192	8.183274	0.000507	5.067620	0.858478	0.000101
   3	1.9900e-01	0.0397	8.316500	0.000669	6.689259	1.133191	0.000134
   4	2.9850e-01	0.0586	8.401279	0.000426	4.256801	0.721122	0.000085
   5	3.9800e-01	0.0793	8.522394	0.000608	6.081144	1.030174	0.000122
   6	4.9750e-01	0.0991	8.671768	0.000750	7.500078	1.270548	0.000150
   7	5.9700e-01	0.1199	8.776733	0.000527	5.270325	0.892817	0.000105
   8	6.9650e-01	0.1382	8.913996	0.000689	6.891964	1.167530	0.000138
   9	7.9600e-01	0.1579	9.006850	0.000466	4.662211	0.789800	0.000093
  10	8.9550e-01	0.1786	9.132001	0.000628	6.283849	1.064513	0.000126
  11	9.9500e-01	0.1997	9.269264	0.000689	6.891964	1.167530	0.000138
  12	1.0945e+00	0.2187	9.362118	0.000466	4.662211	0.789800	0.000093
  13	1.1940e+00	0.2386	9.479195	0.000588	5.878439	0.995835	0.000118
  14	1.2935e+00	0.2583	9.600309	0.000608	6.081144	1.030174	0.000122
  15	1.3930e+00	0.2782	9.729497	0.000649	6.486554	1.098852	0.000130
  16	1.4925e+00	0.2979	9.850611	0.000608	6.081144	1.030174	0.000122
  17	1.5920e+00	0.3176	9.963651	0.000568	5.675735	0.961495	0.000114
  18	1.6915e+00	0.3386	10.121099	0.000791	7.905488	1.339226	0.000158
  19	1.7910e+00	0.3580	10.217991	0.000486	4.864915	0.824139	0.000097
  20	1.8905e+00	0.3772	10.331030	0.000568	5.675735	0.961495	0.000114
  21	1.9900e+00	0.3979	10.472330	0.000709	7.094668	1.201869	0.000142
  22	2.0895e+00	0.4173	10.621704	0.000750	7.500078	1.270548	0.000150
  23	2.1890e+00	0.4379	10.690335	0.000345	3.445982	0.583765	0.000069
  24	2.2885e+00	0.4567	10.823561	0.000669	6.689259	1.133191	0.000134
  25	2.3880e+00	0.4778	10.936601	0.000568	5.675735	0.961495	0.000114
  26	2.4875e+00	0.4971	11.102123	0.000831	8.310897	1.407904	0.000166
  27	2.5870e+00	0.5166	11.194977	0.000466	4.662211	0.789800	0.000093
  28	2.6865e+00	0.5389	11.328203	0.000669	6.689259	1.133191	0.000134
  29	2.7860e+00	0.5575	11.453354	0.000628	6.283849	1.064513	0.000126
  30	2.8855e+00	0.5769	11.594654	0.000709	7.094668	1.201869	0.000142
  31	2.9850e+00	0.5972	11.671359	0.000385	3.851391	0.652443	0.000077
  32	3.0845e+00	0.6172	11.853031	0.000912	9.121716	1.545261	0.000183
  33	3.1840e+00	0.6371	11.925699	0.000365	3.648687	0.618104	0.000073
  34	3.2835e+00	0.6565	12.083147	0.000791	7.905488	1.339226	0.000158
  35	3.3830e+00	0.6765	12.212336	0.000649	6.486554	1.098852	0.000130
  36	3.4825e+00	0.6966	12.301153	0.000446	4.459506	0.755461	0.000089
  37	3.5820e+00	0.7159	12.414192	0.000568	5.675735	0.961495	0.000114
  38	3.6815e+00	0.7360	12.559529	0.000730	7.297373	1.236208	0.000146
  39	3.7810e+00	0.7562	12.688718	0.000649	6.486554	1.098852	0.000130
  40	3.8805e+00	0.7768	12.789646	0.000507	5.067620	0.858478	0.000101
  41	3.9800e+00	0.7969	12.939020	0.000750	7.500078	1.270548	0.000150
  42	4.0795e+00	0.8160	13.056097	0.000588	5.878439	0.995835	0.000118
  43	4.1790e+00	0.8366	13.173174	0.000588	5.878439	0.995835	0.000118
  44	4.2785e+00	0.8559	13.306399	0.000669	6.689259	1.133191	0.000134
  45	4.3780e+00	0.8763	13.407328	0.000507	5.067620	0.858478	0.000101
  46	4.4775e+00	0.8960	13.520368	0.000568	5.675735	0.961495	0.000114
  47	4.5770e+00	0.9158	13.653593	0.000669	6.689259	1.133191	0.000134
  48	4.6765e+00	0.9358	13.786819	0.000669	6.689259	1.133191	0.000134
  49	4.7760e+00	0.9560	13.916007	0.000649	6.486554	1.098852	0.000130
  50	4.8755e+00	0.9756	14.029047	0.000568	5.675735	0.961495	0.000114
  51	4.9750e+00	0.9953	14.158235	0.000649	6.486554	1.098852	0.000130
  52	5.0745e+00	1.0152	14.287423	0.000649	6.486554	1.098852	0.000130
  53	5.1740e+00	1.0355	14.384315	0.000486	4.864915	0.824139	0.000097
  54	5.2735e+00	1.0551	14.561949	0.000892	8.919012	1.510921	0.000179
  55	5.3730e+00	1.0751	14.670951	0.000547	5.473030	0.927156	0.000110
  56	5.4725e+00	1.0951	14.812251	0.000709	7.094668	1.201869	0.000142
  57	5.5720e+00	1.1152	14.897031	0.000426	4.256801	0.721122	0.000085
  58	5.6715e+00	1.1356	15.082739	0.000932	9.324421	1.579600	0.000187
  59	5.7710e+00	1.1555	15.187705	0.000527	5.270325	0.892817	0.000105
  60	5.8705e+00	1.1748	15.316893	0.000649	6.486554	1.098852	0.000130
  61	5.9700e+00	1.1949	15.417821	0.000507	5.067620	0.858478	0.000101
  62	6.0695e+00	1.2145	15.567195	0.000750	7.500078	1.270548	0.000150
  63	6.1690e+00	1.2346	15.688309	0.000608	6.081144	1.030174	0.000122
  64	6.2685e+00	1.2540	15.817498	0.000649	6.486554	1.098852	0.000130
  65	6.3680e+00	1.2737	15.930538	0.000568	5.675735	0.961495	0.000114
  66	6.4675e+00	1.2932	16.087986	0.000791	7.905488	1.339226	0.000158
  67	6.5670e+00	1.3132	16.221211	0.000669	6.689259	1.133191	0.000134
  68	6.6665e+00	1.3335	16.354437	0.000669	6.689259	1.133191	0.000134
  69	6.7660e+00	1.3535	16.471514	0.000588	5.878439	0.995835	0.000118
  70	6.8655e+00	1.3736	16.560331	0.000446	4.459506	0.755461	0.000089
  71	6.9650e+00	1.3933	16.709705	0.000750	7.500078	1.270548	0.000150
  72	7.0645e+00	1.4134	16.895413	0.000932	9.324421	1.579600	0.000187
  73	7.1640e+00	1.4337	16.947896	0.000264	2.635163	0.446409	0.000053
  74	7.2635e+00	1.4532	17.069010	0.000608	6.081144	1.030174	0.000122
  75	7.3630e+00	1.4731	17.202235	0.000669	6.689259	1.133191	0.000134
  76	7.4625e+00	1.4935	17.379869	0.000892	8.919012	1.510921	0.000179
  77	7.5620e+00	1.5134	17.492909	0.000568	5.675735	0.961495	0.000114
  78	7.6615e+00	1.5327	17.614023	0.000608	6.081144	1.030174	0.000122
  79	7.7610e+00	1.5520	17.747249	0.000669	6.689259	1.133191	0.000134
  80	7.8605e+00	1.5730	17.832029	0.000426	4.256801	0.721122	0.000085
  81	7.9600e+00	1.5934	17.973328	0.000709	7.094668	1.201869	0.000142
  82	8.0595e+00	1.6125	18.110591	0.000689	6.891964	1.167530	0.000138
  83	8.1590e+00	1.6322	18.276113	0.000831	8.310897	1.407904	0.000166
  84	8.2585e+00	1.6531	18.389153	0.000568	5.675735	0.961495	0.000114
  85	8.3580e+00	1.6723	18.510267	0.000608	6.081144	1.030174	0.000122
  86	8.4575e+00	1.6924	18.635419	0.000628	6.283849	1.064513	0.000126
  87	8.5570e+00	1.7131	18.748458	0.000568	5.675735	0.961495	0.000114
  88	8.6565e+00	1.7316	18.893795	0.000730	7.297373	1.236208	0.000146
  89	8.7560e+00	1.7517	19.014909	0.000608	6.081144	1.030174	0.000122
  90	8.8555e+00	1.7719	19.152172	0.000689	6.891964	1.167530	0.000138
  91	8.9550e+00	1.7919	19.228878	0.000385	3.851391	0.652443	0.000077
  92	9.0545e+00	1.8120	19.398437	0.000851	8.513602	1.442243	0.000170
  93	9.1540e+00	1.8325	19.531663	0.000669	6.689259	1.133191	0.000134
  94	9.2535e+00	1.8510	19.697185	0.000831	8.310897	1.407904	0.000166
  95	9.3530e+00	1.8722	19.737557	0.000203	2.027048	0.343391	0.000041
  96	9.4525e+00	1.8917	19.866745	0.000649	6.486554	1.098852	0.000130
  97	9.5520e+00	1.9109	20.008045	0.000709	7.094668	1.201869	0.000142
  98	9.6515e+00	1.9312	20.161456	0.000770	7.702783	1.304887	0.000154
  99	9.7510e+00	1.9505	20.270459	0.000547	5.473030	0.927156	0.000110
 100	9.8505e+00	1.9713	20.399647	0.000649	6.486554	1.098852	0.000130
 101	9.9500e+00	1.9917	20.536909	0.000689	6.891964	1.167530	0.000138
 102	1.0050e+01	2.0113	20.653986	0.000588	5.878439	0.995835	0.000118
 103	1.0149e+01	2.0310	20.783175	0.000649	6.486554	1.098852	0.000130
 104	1.0248e+01	2.0516	20.908326	0.000628	6.283849	1.064513	0.000126
 105	1.0348e+01	2.0718	21.013292	0.000527	5.270325	0.892817	0.000105
 106	1.0447e+01	2.0908	21.154591	0.000709	7.094668	1.201869	0.000142
 107	1.0547e+01	2.1108	21.291854	0.000689	6.891964	1.167530	0.000138
 108	1.0646e+01	2.1302	21.425079	0.000669	6.689259	1.133191	0.000134
 109	1.0746e+01	2.1513	21.558305	0.000669	6.689259	1.133191	0.000134
 110	1.0845e+01	2.1704	21.679419	0.000608	6.081144	1.030174	0.000122
 111	1.0945e+01	2.1903	21.800533	0.000608	6.081144	1.030174	0.000122
 112	1.1044e+01	2.2103	21.929721	0.000649	6.486554	1.098852	0.000130
 113	1.1144e+01	2.2296	22.030650	0.000507	5.067620	0.858478	0.000101
 114	1.1243e+01	2.2505	22.167912	0.000689	6.891964	1.167530	0.000138
 115	1.1343e+01	2.2705	22.256729	0.000446	4.459506	0.755461	0.000089
 116	1.1443e+01	2.2901	22.398029	0.000709	7.094668	1.201869	0.000142
 117	1.1542e+01	2.3107	22.535292	0.000689	6.891964	1.167530	0.000138
 118	1.1642e+01	2.3300	22.640257	0.000527	5.270325	0.892817	0.000105
 119	1.1741e+01	2.3500	22.789631	0.000750	7.500078	1.270548	0.000150
 120	1.1841e+01	2.3703	22.918820	0.000649	6.486554	1.098852	0.000130
 121	1.1940e+01	2.3898	23.052045	0.000669	6.689259	1.133191	0.000134
 122	1.2040e+01	2.4099	23.173159	0.000608	6.081144	1.030174	0.000122
 123	1.2139e+01	2.4300	23.290236	0.000588	5.878439	0.995835	0.000118
 124	1.2239e+01	2.4499	23.423462	0.000669	6.689259	1.133191	0.000134
 125	1.2338e+01	2.4695	23.508241	0.000426	4.256801	0.721122	0.000085
 126	1.2438e+01	2.4897	23.677801	0.000851	8.513602	1.442243	0.000170
 127	1.2537e+01	2.5092	23.815064	0.000689	6.891964	1.167530	0.000138
 128	1.2636e+01	2.5291	23.932141	0.000588	5.878439	0.995835	0.000118
 129	1.2736e+01	2.5481	24.049218	0.000588	5.878439	0.995835	0.000118
 130	1.2835e+01	2.5686	24.162257	0.000568	5.675735	0.961495	0.000114
 131	1.2935e+01	2.5888	24.311631	0.000750	7.500078	1.270548	0.000150
 132	1.3034e+01	2.6080	24.432745	0.000608	6.081144	1.030174	0.000122
 133	1.3134e+01	2.6289	24.549822	0.000588	5.878439	0.995835	0.000118
 134	1.3233e+01	2.6477	24.650751	0.000507	5.067620	0.858478	0.000101
 135	1.3333e+01	2.6680	24.779939	0.000649	6.486554	1.098852	0.000130
 136	1.3432e+01	2.6888	24.925276	0.000730	7.297373	1.236208	0.000146
 137	1.3532e+01	2.7087	25.026204	0.000507	5.067620	0.858478	0.000101
 138	1.3632e+01	2.7281	25.175578	0.000750	7.500078	1.270548	0.000150
 139	1.3731e+01	2.7482	25.284581	0.000547	5.473030	0.927156	0.000110
 140	1.3831e+01	2.7689	25.373398	0.000446	4.459506	0.755461	0.000089
 141	1.3930e+01	2.7886	25.522772	0.000750	7.500078	1.270548	0.000150
 142	1.4030e+01	2.8075	25.672146	0.000750	7.500078	1.270548	0.000150
 143	1.4129e+01	2.8271	25.765000	0.000466	4.662211	0.789800	0.000093
 144	1.4229e+01	2.8477	25.886114	0.000608	6.081144	1.030174	0.000122
 145	1.4328e+01	2.8689	26.011266	0.000628	6.283849	1.064513	0.000126
 146	1.4428e+01	2.8875	26.132380	0.000608	6.081144	1.030174	0.000122
 147	1.4527e+01	2.9076	26.257531	0.000628	6.283849	1.064513	0.000126
 148	1.4627e+01	2.9272	26.390756	0.000669	6.689259	1.133191	0.000134
 149	1.4726e+01	2.9482	26.507833	0.000588	5.878439	0.995835	0.000118
 150	1.4825e+01	2.9675	26.612799	0.000527	5.270325	0.892817	0.000105
 151	1.4925e+01	2.9867	26.733913	0.000608	6.081144	1.030174	0.000122
 152	1.5024e+01	3.0062	26.855027	0.000608	6.081144	1.030174	0.000122
 153	1.5124e+01	3.0267	26.964030	0.000547	5.473030	0.927156	0.000110
 154	1.5223e+01	3.0470	27.105329	0.000709	7.094668	1.201869	0.000142
 155	1.5323e+01	3.0682	27.218369	0.000568	5.675735	0.961495	0.000114
 156	1.5422e+01	3.0874	27.315260	0.000486	4.864915	0.824139	0.000097
 157	1.5522e+01	3.1074	27.448486	0.000669	6.689259	1.133191	0.000134
 158	1.5621e+01	3.1268	27.589786	0.000709	7.094668	1.201869	0.000142
 159	1.5721e+01	3.1469	27.723011	0.000669	6.689259	1.133191	0.000134
 160	1.5820e+01	3.1672	27.815865	0.000466	4.662211	0.789800	0.000093
 161	1.5920e+01	3.1870	27.953128	0.000689	6.891964	1.167530	0.000138
 162	1.6020e+01	3.2066	28.050019	0.000486	4.864915	0.824139	0.000097
 163	1.6119e+01	3.2273	28.215542	0.000831	8.310897	1.407904	0.000166
 164	1.6218e+01	3.2468	28.312433	0.000486	4.864915	0.824139	0.000097
 165	1.6318e+01	3.2661	28.445658	0.000669	6.689259	1.133191	0.000134
 166	1.6418e+01	3.2855	28.554661	0.000547	5.473030	0.927156	0.000110
 167	1.6517e+01	3.3067	28.663664	0.000547	5.473030	0.927156	0.000110
 168	1.6616e+01	3.3254	28.788815	0.000628	6.283849	1.064513	0.000126
 169	1.6716e+01	3.3456	28.913966	0.000628	6.283849	1.064513	0.000126
 170	1.6816e+01	3.3663	29.018932	0.000527	5.270325	0.892817	0.000105
 171	1.6915e+01	3.3852	29.144083	0.000628	6.283849	1.064513	0.000126
 172	1.7015e+01	3.4048	29.269234	0.000628	6.283849	1.064513	0.000126
 173	1.7114e+01	3.4259	29.366125	0.000486	4.864915	0.824139	0.000097
 174	1.7213e+01	3.4458	29.503388	0.000689	6.891964	1.167530	0.000138
 175	1.7313e+01	3.4664	29.644688	0.000709	7.094668	1.201869	0.000142
 176	1.7413e+01	3.4847	29.749653	0.000527	5.270325	0.892817	0.000105
 177	1.7512e+01	3.5059	29.854619	0.000527	5.270325	0.892817	0.000105
 178	1.7611e+01	3.5259	29.971696	0.000588	5.878439	0.995835	0.000118
 179	1.7711e+01	3.5459	30.108958	0.000689	6.891964	1.167530	0.000138
 180	1.7811e+01	3.5645	30.185664	0.000385	3.851391	0.652443	0.000077
 181	1.7910e+01	3.5851	30.318889	0.000669	6.689259	1.133191	0.000134
 182	1.8009e+01	3.6047	30.444041	0.000628	6.283849	1.064513	0.000126
 183	1.8109e+01	3.6243	30.532858	0.000446	4.459506	0.755461	0.000089
 184	1.8209e+01	3.6446	30.698380	0.000831	8.310897	1.407904	0.000166
 185	1.8308e+01	3.6658	30.795271	0.000486	4.864915	0.824139	0.000097
 186	1.8407e+01	3.6843	30.940608	0.000730	7.297373	1.236208	0.000146
 187	1.8507e+01	3.7045	31.049611	0.000547	5.473030	0.927156	0.000110
 188	1.8607e+01	3.7241	31.186874	0.000689	6.891964	1.167530	0.000138
 189	1.8706e+01	3.7444	31.247431	0.000304	3.040572	0.515087	0.000061
 190	1.8805e+01	3.7654	31.388730	0.000709	7.094668	1.201869	0.000142
 191	1.8905e+01	3.7833	31.493696	0.000527	5.270325	0.892817	0.000105
 192	1.9005e+01	3.8038	31.622884	0.000649	6.486554	1.098852	0.000130
 193	1.9104e+01	3.8243	31.739961	0.000588	5.878439	0.995835	0.000118
 194	1.9203e+01	3.8436	31.853001	0.000568	5.675735	0.961495	0.000114
 195	1.9303e+01	3.8634	31.986226	0.000669	6.689259	1.133191	0.000134
 196	1.9402e+01	3.8838	32.091192	0.000527	5.270325	0.892817	0.000105
 197	1.9502e+01	3.9049	32.180009	0.000446	4.459506	0.755461	0.000089
 198	1.9602e+01	3.9224	32.357643	0.000892	8.919012	1.510921	0.000179
 199	1.9701e+01	3.9431	32.450497	0.000466	4.662211	0.789800	0.000093
 200	1.9800e+01	3.9640	32.523166	0.000365	3.648687	0.618104	0.000073
 201	1.9900e+01	3.9831	32.664465	0.000709	7.094668	1.201869	0.000142
 202	2.0000e+01	4.0029	32.797691	0.000669	6.689259	1.133191	0.000134
 203	2.0099e+01	4.0228	32.934953	0.000689	6.891964	1.167530	0.000138
 204	2.0198e+01	4.0427	33.043956	0.000547	5.473030	0.927156	0.000110
 205	2.0298e+01	4.0629	33.152959	0.000547	5.473030	0.927156	0.000110
 206	2.0398e+01	4.0834	33.270036	0.000588	5.878439	0.995835	0.000118
 207	2.0497e+01	4.1028	33.358853	0.000446	4.459506	0.755461	0.000089
 208	2.0596e+01	4.1230	33.463818	0.000527	5.270325	0.892817	0.000105
 209	2.0696e+01	4.1431	33.576858	0.000568	5.675735	0.961495	0.000114
 210	2.0796e+01	4.1619	33.697972	0.000608	6.081144	1.030174	0.000122
 211	2.0895e+01	4.1824	33.811012	0.000568	5.675735	0.961495	0.000114
 212	2.0994e+01	4.2024	33.948274	0.000689	6.891964	1.167530	0.000138
 213	2.1094e+01	4.2217	34.033054	0.000426	4.256801	0.721122	0.000085
 214	2.1194e+01	4.2419	34.178391	0.000730	7.297373	1.236208	0.000146
 215	2.1293e+01	4.2631	34.275282	0.000486	4.864915	0.824139	0.000097
 216	2.1392e+01	4.2825	34.368137	0.000466	4.662211	0.789800	0.000093
 217	2.1492e+01	4.3011	34.460991	0.000466	4.662211	0.789800	0.000093
 218	2.1591e+01	4.3214	34.626513	0.000831	8.310897	1.407904	0.000166
 219	2.1691e+01	4.3425	34.723404	0.000486	4.864915	0.824139	0.000097
 220	2.1791e+01	4.3621	34.884890	0.000811	8.108192	1.373565	0.000162
 221	2.1890e+01	4.3818	34.945447	0.000304	3.040572	0.515087	0.000061
 222	2.1989e+01	4.4018	35.090784	0.000730	7.297373	1.236208	0.000146
 223	2.2089e+01	4.4215	35.179601	0.000446	4.459506	0.755461	0.000089
 224	2.2189e+01	4.4418	35.272455	0.000466	4.662211	0.789800	0.000093
 225	2.2288e+01	4.4617	35.417792	0.000730	7.297373	1.236208	0.000146
 226	2.2387e+01	4.4810	35.506609	0.000446	4.459506	0.755461	0.000089
 227	2.2487e+01	4.5014	35.651946	0.000730	7.297373	1.236208	0.000146
 228	2.2587e+01	4.5215	35.764986	0.000568	5.675735	0.961495	0.000114
 229	2.2686e+01	4.5409	35.894174	0.000649	6.486554	1.098852	0.000130
 230	2.2785e+01	4.5615	35.991065	0.000486	4.864915	0.824139	0.000097
 231	2.2885e+01	4.5811	36.100068	0.000547	5.473030	0.927156	0.000110
 232	2.2985e+01	4.6004	36.221182	0.000608	6.081144	1.030174	0.000122
 233	2.3084e+01	4.6218	36.334222	0.000568	5.675735	0.961495	0.000114
 234	2.3183e+01	4.6409	36.447261	0.000568	5.675735	0.961495	0.000114
 235	2.3283e+01	4.6604	36.584524	0.000689	6.891964	1.167530	0.000138
 236	2.3383e+01	4.6804	36.689490	0.000527	5.270325	0.892817	0.000105
 237	2.3482e+01	4.7009	36.774269	0.000426	4.256801	0.721122	0.000085
 238	2.3581e+01	4.7208	36.887309	0.000568	5.675735	0.961495	0.000114
 239	2.3681e+01	4.7405	37.016498	0.000649	6.486554	1.098852	0.000130
 240	2.3780e+01	4.7601	37.121463	0.000527	5.270325	0.892817	0.000105
 241	2.3880e+01	4.7803	37.246614	0.000628	6.283849	1.064513	0.000126
 242	2.3980e+01	4.8006	37.339468	0.000466	4.662211	0.789800	0.000093
 243	2.4079e+01	4.8200	37.444434	0.000527	5.270325	0.892817	0.000105
 244	2.4178e+01	4.8405	37.581697	0.000689	6.891964	1.167530	0.000138
 245	2.4278e+01	4.8592	37.658402	0.000385	3.851391	0.652443	0.000077
 246	2.4378e+01	4.8803	37.803739	0.000730	7.297373	1.236208	0.000146
 247	2.4477e+01	4.8992	37.916779	0.000568	5.675735	0.961495	0.000114
 248	2.4576e+01	4.9199	38.001559	0.000426	4.256801	0.721122	0.000085
 249	2.4676e+01	4.9397	38.122673	0.000608	6.081144	1.030174	0.000122
 250	2.4776e+01	4.9592	38.235713	0.000568	5.675735	0.961495	0.000114
 251	2.4875e+01	4.9796	38.340678	0.000527	5.270325	0.892817	0.000105
 252	2.4974e+01	4.9995	38.441606	0.000507	5.067620	0.858478	0.000101
 253	2.5074e+01	5.0187	38.590981	0.000750	7.500078	1.270548	0.000150
 254	2.5174e+01	5.0391	38.671723	0.000405	4.054096	0.686782	0.000081
 255	2.5273e+01	5.0581	38.768614	0.000486	4.864915	0.824139	0.000097
 256	2.5372e+01	5.0781	38.909914	0.000709	7.094668	1.201869	0.000142
 257	2.5472e+01	5.0996	38.970471	0.000304	3.040572	0.515087	0.000061
 258	2.5572e+01	5.1185	39.087548	0.000588	5.878439	0.995835	0.000118
 259	2.5671e+01	5.1391	39.208662	0.000608	6.081144	1.030174	0.000122
 260	2.5770e+01	5.1582	39.305554	0.000486	4.864915	0.824139	0.000097
 261	2.5870e+01	5.1775	39.442816	0.000689	6.891964	1.167530	0.000138
 262	2.5970e+01	5.1983	39.511447	0.000345	3.445982	0.583765	0.000069
 263	2.6069e+01	5.2184	39.652747	0.000709	7.094668	1.201869	0.000142
 264	2.6169e+01	5.2393	39.765787	0.000568	5.675735	0.961495	0.000114
 265	2.6268e+01	5.2579	39.866715	0.000507	5.067620	0.858478	0.000101
 266	2.6367e+01	5.2780	39.995904	0.000649	6.486554	1.098852	0.000130
 267	2.6467e+01	5.2981	40.080684	0.000426	4.256801	0.721122	0.000085
 268	2.6567e+01	5.3185	40.205835	0.000628	6.283849	1.064513	0.000126
 269	2.6666e+01	5.3370	40.306763	0.000507	5.067620	0.858478	0.000101
 270	2.6765e+01	5.3580	40.383469	0.000385	3.851391	0.652443	0.000077
 271	2.6865e+01	5.3780	40.484397	0.000507	5.067620	0.858478	0.000101
 272	2.6965e+01	5.3975	40.629734	0.000730	7.297373	1.236208	0.000146
 273	2.7064e+01	5.4169	40.702403	0.000365	3.648687	0.618104	0.000073
 274	2.7163e+01	5.4366	40.823517	0.000608	6.081144	1.030174	0.000122
 275	2.7263e+01	5.4566	40.920408	0.000486	4.864915	0.824139	0.000097
 276	2.7363e+01	5.4778	41.001151	0.000405	4.054096	0.686782	0.000081
 277	2.7462e+01	5.4975	41.170710	0.000851	8.513602	1.442243	0.000170
 278	2.7561e+01	5.5166	41.259527	0.000446	4.459506	0.755461	0.000089
 279	2.7661e+01	5.5375	41.372567	0.000568	5.675735	0.961495	0.000114
 280	2.7761e+01	5.5567	41.433124	0.000304	3.040572	0.515087	0.000061
 281	2.7860e+01	5.5770	41.566350	0.000669	6.689259	1.133191	0.000134
 282	2.7959e+01	5.5958	41.703612	0.000689	6.891964	1.167530	0.000138
 283	2.8059e+01	5.6176	41.800503	0.000486	4.864915	0.824139	0.000097
 284	2.8159e+01	5.6365	41.873172	0.000365	3.648687	0.618104	0.000073
 285	2.8258e+01	5.6574	41.994286	0.000608	6.081144	1.030174	0.000122
 286	2.8358e+01	5.6765	42.087140	0.000466	4.662211	0.789800	0.000093
 287	2.8457e+01	5.6966	42.204217	0.000588	5.878439	0.995835	0.000118
 288	2.8556e+01	5.7169	42.297071	0.000466	4.662211	0.789800	0.000093
 289	2.8656e+01	5.7368	42.434334	0.000689	6.891964	1.167530	0.000138
 290	2.8756e+01	5.7552	42.523151	0.000446	4.459506	0.755461	0.000089
 291	2.8855e+01	5.7757	42.648302	0.000628	6.283849	1.064513	0.000126
 292	2.8954e+01	5.7964	42.745193	0.000486	4.864915	0.824139	0.000097
 293	2.9054e+01	5.8154	42.850159	0.000527	5.270325	0.892817	0.000105
 294	2.9154e+01	5.8361	42.959161	0.000547	5.473030	0.927156	0.000110
 295	2.9253e+01	5.8564	43.047978	0.000446	4.459506	0.755461	0.000089
 296	2.9352e+01	5.8753	43.197352	0.000750	7.500078	1.270548	0.000150
 297	2.9452e+01	5.8958	43.278095	0.000405	4.054096	0.686782	0.000081
 298	2.9552e+01	5.9161	43.370949	0.000466	4.662211	0.789800	0.000093
 299	2.9651e+01	5.9351	43.475915	0.000527	5.270325	0.892817	0.000105
 300	2.9750e+01	5.9559	43.592992	0.000588	5.878439	0.995835	0.000118
 301	2.9850e+01	5.9750	43.661623	0.000345	3.445982	0.583765	0.000069
 302	2.9950e+01	5.9959	43.810997	0.000750	7.500078	1.270548	0.000150
 303	3.0049e+01	6.0151	43.863480	0.000264	2.635163	0.446409	0.000053
 304	3.0148e+01	6.0352	43.944223	0.000405	4.054096	0.686782	0.000081
 305	3.0248e+01	6.0551	44.101671	0.000791	7.905488	1.339226	0.000158
 306	3.0348e+01	6.0750	44.194525	0.000466	4.662211	0.789800	0.000093
 307	3.0447e+01	6.0950	44.279305	0.000426	4.256801	0.721122	0.000085
 308	3.0547e+01	6.1137	44.404456	0.000628	6.283849	1.064513	0.000126
 309	3.0646e+01	6.1349	44.557867	0.000770	7.702783	1.304887	0.000154
 310	3.0745e+01	6.1552	44.594201	0.000182	1.824343	0.309052	0.000037
 311	3.0845e+01	6.1742	44.707241	0.000568	5.675735	0.961495	0.000114
 312	3.0945e+01	6.1941	44.808170	0.000507	5.067620	0.858478	0.000101
 313	3.1044e+01	6.2144	44.868727	0.000304	3.040572	0.515087	0.000061
 314	3.1143e+01	6.2337	45.022138	0.000770	7.702783	1.304887	0.000154
 315	3.1243e+01	6.2546	45.078658	0.000284	2.837867	0.480748	0.000057
 316	3.1343e+01	6.2737	45.203809	0.000628	6.283849	1.064513	0.000126
 317	3.1442e+01	6.2946	45.296663	0.000466	4.662211	0.789800	0.000093
 318	3.1541e+01	6.3126	45.413740	0.000588	5.878439	0.995835	0.000118
 319	3.1641e+01	6.3335	45.478334	0.000324	3.243277	0.549426	0.000065
 320	3.1741e+01	6.3532	45.579262	0.000507	5.067620	0.858478	0.000101
 321	3.1840e+01	6.3735	45.668079	0.000446	4.459506	0.755461	0.000089
 322	3.1939e+01	6.3933	45.785156	0.000588	5.878439	0.995835	0.000118
 323	3.2039e+01	6.4126	45.930493	0.000730	7.297373	1.236208	0.000146
 324	3.2139e+01	6.4331	45.978939	0.000243	2.432458	0.412069	0.000049
 325	3.2238e+01	6.4532	46.083904	0.000527	5.270325	0.892817	0.000105
 326	3.2337e+01	6.4730	46.168684	0.000426	4.256801	0.721122	0.000085
 327	3.2437e+01	6.4919	46.277687	0.000547	5.473030	0.927156	0.000110
 328	3.2536e+01	6.5131	46.378615	0.000507	5.067620	0.858478	0.000101
 329	3.2636e+01	6.5332	46.503767	0.000628	6.283849	1.064513	0.000126
 330	3.2736e+01	6.5529	46.560286	0.000284	2.837867	0.480748	0.000057
 331	3.2835e+01	6.5726	46.669289	0.000547	5.473030	0.927156	0.000110
 332	3.2934e+01	6.5912	46.774255	0.000527	5.270325	0.892817	0.000105
 333	3.3034e+01	6.6128	46.846923	0.000365	3.648687	0.618104	0.000073
 334	3.3133e+01	6.6322	46.968037	0.000608	6.081144	1.030174	0.000122
 335	3.3233e+01	6.6521	47.073003	0.000527	5.270325	0.892817	0.000105
 336	3.3333e+01	6.6730	47.210265	0.000689	6.891964	1.167530	0.000138
 337	3.3432e+01	6.6920	47.234488	0.000122	1.216229	0.206035	0.000024
 338	3.3532e+01	6.7117	47.367714	0.000669	6.689259	1.133191	0.000134
 339	3.3631e+01	6.7313	47.436345	0.000345	3.445982	0.583765	0.000069
 340	3.3730e+01	6.7525	47.561496	0.000628	6.283849	1.064513	0.000126
 341	3.3830e+01	6.7717	47.638202	0.000385	3.851391	0.652443	0.000077
 342	3.3929e+01	6.7909	47.775464	0.000689	6.891964	1.167530	0.000138
 343	3.4029e+01	6.8124	47.852170	0.000385	3.851391	0.652443	0.000077
 344	3.4129e+01	6.8317	47.953098	0.000507	5.067620	0.858478	0.000101
 345	3.4228e+01	6.8522	48.041915	0.000446	4.459506	0.755461	0.000089
 346	3.4328e+01	6.8708	48.146881	0.000527	5.270325	0.892817	0.000105
 347	3.4427e+01	6.8914	48.247809	0.000507	5.067620	0.858478	0.000101
 348	3.4526e+01	6.9112	48.360849	0.000568	5.675735	0.961495	0.000114
 349	3.4626e+01	6.9317	48.469852	0.000547	5.473030	0.927156	0.000110
 350	3.4725e+01	6.9505	48.554632	0.000426	4.256801	0.721122	0.000085
 351	3.4825e+01	6.9700	48.599040	0.000223	2.229753	0.377730	0.000045
 352	3.4925e+01	6.9901	48.691894	0.000466	4.662211	0.789800	0.000093
 353	3.5024e+01	7.0110	48.821082	0.000649	6.486554	1.098852	0.000130
 354	3.5123e+01	7.0307	48.926048	0.000527	5.270325	0.892817	0.000105
 355	3.5223e+01	7.0512	49.022939	0.000486	4.864915	0.824139	0.000097
 356	3.5322e+01	7.0712	49.099645	0.000385	3.851391	0.652443	0.000077
 357	3.5422e+01	7.0905	49.204610	0.000527	5.270325	0.892817	0.000105
 358	3.5522e+01	7.1108	49.293427	0.000446	4.459506	0.755461	0.000089
 359	3.5621e+01	7.1311	49.362059	0.000345	3.445982	0.583765	0.000069
 360	3.5721e+01	7.1493	49.446839	0.000426	4.256801	0.721122	0.000085
 361	3.5820e+01	7.1708	49.588138	0.000709	7.094668	1.201869	0.000142
 362	3.5919e+01	7.1899	49.672918	0.000426	4.256801	0.721122	0.000085
 363	3.6019e+01	7.2105	49.765772	0.000466	4.662211	0.789800	0.000093
 364	3.6118e+01	7.2295	49.842478	0.000385	3.851391	0.652443	0.000077
 365	3.6218e+01	7.2491	49.975703	0.000669	6.689259	1.133191	0.000134
 366	3.6318e+01	7.2697	50.072595	0.000486	4.864915	0.824139	0.000097
 367	3.6417e+01	7.2897	50.153337	0.000405	4.054096	0.686782	0.000081
 368	3.6517e+01	7.3096	50.234080	0.000405	4.054096	0.686782	0.000081
 369	3.6616e+01	7.3293	50.359231	0.000628	6.283849	1.064513	0.000126
 370	3.6715e+01	7.3487	50.464197	0.000527	5.270325	0.892817	0.000105
 371	3.6815e+01	7.3695	50.500531	0.000182	1.824343	0.309052	0.000037
 372	3.6914e+01	7.3896	50.645868	0.000730	7.297373	1.236208	0.000146
 373	3.7014e+01	7.4089	50.718536	0.000365	3.648687	0.618104	0.000073
 374	3.7114e+01	7.4287	50.811390	0.000466	4.662211	0.789800	0.000093
 375	3.7213e+01	7.4484	50.892133	0.000405	4.054096	0.686782	0.000081
 376	3.7313e+01	7.4685	51.001136	0.000547	5.473030	0.927156	0.000110
 377	3.7412e+01	7.4886	51.102064	0.000507	5.067620	0.858478	0.000101
 378	3.7511e+01	7.5093	51.146473	0.000223	2.229753	0.377730	0.000045
 379	3.7611e+01	7.5293	51.239327	0.000466	4.662211	0.789800	0.000093
 380	3.7711e+01	7.5479	51.388701	0.000750	7.500078	1.270548	0.000150
 381	3.7810e+01	7.5684	51.449258	0.000304	3.040572	0.515087	0.000061
 382	3.7910e+01	7.5888	51.558261	0.000547	5.473030	0.927156	0.000110
 383	3.8009e+01	7.6078	51.622855	0.000324	3.243277	0.549426	0.000065
 384	3.8108e+01	7.6288	51.743969	0.000608	6.081144	1.030174	0.000122
 385	3.8208e+01	7.6487	51.828749	0.000426	4.256801	0.721122	0.000085
 386	3.8307e+01	7.6686	51.925640	0.000486	4.864915	0.824139	0.000097
 387	3.8407e+01	7.6884	52.002345	0.000385	3.851391	0.652443	0.000077
 388	3.8507e+01	7.7079	52.103274	0.000507	5.067620	0.858478	0.000101
 389	3.8606e+01	7.7273	52.184017	0.000405	4.054096	0.686782	0.000081
 390	3.8706e+01	7.7475	52.288982	0.000527	5.270325	0.892817	0.000105
 391	3.8805e+01	7.7679	52.369725	0.000405	4.054096	0.686782	0.000081
 392	3.8904e+01	7.7881	52.470653	0.000507	5.067620	0.858478	0.000101
 393	3.9004e+01	7.8077	52.559470	0.000446	4.459506	0.755461	0.000089
 394	3.9103e+01	7.8285	52.652324	0.000466	4.662211	0.789800	0.000093
 395	3.9203e+01	7.8475	52.753253	0.000507	5.067620	0.858478	0.000101
 396	3.9303e+01	7.8679	52.866292	0.000568	5.675735	0.961495	0.000114
 397	3.9402e+01	7.8870	52.942998	0.000385	3.851391	0.652443	0.000077
 398	3.9502e+01	7.9067	53.052001	0.000547	5.473030	0.927156	0.000110
 399	3.9601e+01	7.9271	53.116595	0.000324	3.243277	0.549426	0.000065
 400	3.9700e+01	7.9468	53.241746	0.000628	6.283849	1.064513	0.000126
 401	3.9800e+01	7.9674	53.322489	0.000405	4.054096	0.686782	0.000081
 402	3.9900e+01	7.9864	53.431491	0.000547	5.473030	0.927156	0.000110
 403	3.9999e+01	8.0068	53.475900	0.000223	2.229753	0.377730	0.000045
 404	4.0099e+01	8.0273	53.580866	0.000527	5.270325	0.892817	0.000105
 405	4.0198e+01	8.0472	53.701980	0.000608	6.081144	1.030174	0.000122
 406	4.0297e+01	8.0669	53.738314	0.000182	1.824343	0.309052	0.000037
 407	4.0397e+01	8.0867	53.863465	0.000628	6.283849	1.064513	0.000126
 408	4.0496e+01	8.1071	53.964393	0.000507	5.067620	0.858478	0.000101
 409	4.0596e+01	8.1262	54.061285	0.000486	4.864915	0.824139	0.000097
 410	4.0696e+01	8.1458	54.190473	0.000649	6.486554	1.098852	0.000130
 411	4.0795e+01	8.1665	54.214696	0.000122	1.216229	0.206035	0.000024
 412	4.0895e+01	8.1860	54.339847	0.000628	6.283849	1.064513	0.000126
 413	4.0994e+01	8.2061	54.400404	0.000304	3.040572	0.515087	0.000061
 414	4.1093e+01	8.2256	54.485184	0.000426	4.256801	0.721122	0.000085
 415	4.1193e+01	8.2464	54.565927	0.000405	4.054096	0.686782	0.000081
 416	4.1292e+01	8.2667	54.683004	0.000588	5.878439	0.995835	0.000118
 417	4.1392e+01	8.2862	54.775858	0.000466	4.662211	0.789800	0.000093
 418	4.1492e+01	8.3057	54.860638	0.000426	4.256801	0.721122	0.000085
 419	4.1591e+01	8.3246	54.937343	0.000385	3.851391	0.652443	0.000077
 420	4.1691e+01	8.3447	55.042309	0.000527	5.270325	0.892817	0.000105
 421	4.1790e+01	8.3650	55.123051	0.000405	4.054096	0.686782	0.000081
 422	4.1889e+01	8.3859	55.248203	0.000628	6.283849	1.064513	0.000126
 423	4.1989e+01	8.4042	55.332982	0.000426	4.256801	0.721122	0.000085
 424	4.2089e+01	8.4247	55.450059	0.000588	5.878439	0.995835	0.000118
 425	4.2188e+01	8.4447	55.490431	0.000203	2.027048	0.343391	0.000041
 426	4.2288e+01	8.4647	55.607508	0.000588	5.878439	0.995835	0.000118
 427	4.2387e+01	8.4847	55.692288	0.000426	4.256801	0.721122	0.000085
 428	4.2486e+01	8.5040	55.785142	0.000466	4.662211	0.789800	0.000093
 429	4.2586e+01	8.5242	55.841662	0.000284	2.837867	0.480748	0.000057
 430	4.2685e+01	8.5442	55.926441	0.000426	4.256801	0.721122	0.000085
 431	4.2785e+01	8.5645	56.031407	0.000527	5.270325	0.892817	0.000105
 432	4.2885e+01	8.5844	56.096001	0.000324	3.243277	0.549426	0.000065
 433	4.2984e+01	8.6044	56.245375	0.000750	7.500078	1.270548	0.000150
 434	4.3084e+01	8.6247	56.309969	0.000324	3.243277	0.549426	0.000065
 435	4.3183e+01	8.6436	56.390712	0.000405	4.054096	0.686782	0.000081
 436	4.3282e+01	8.6636	56.475492	0.000426	4.256801	0.721122	0.000085
 437	4.3382e+01	8.6841	56.588532	0.000568	5.675735	0.961495	0.000114
 438	4.3481e+01	8.7039	56.616792	0.000142	1.418934	0.240374	0.000028
 439	4.3581e+01	8.7238	56.758091	0.000709	7.094668	1.201869	0.000142
 440	4.3681e+01	8.7439	56.850945	0.000466	4.662211	0.789800	0.000093
 441	4.3780e+01	8.7640	56.947837	0.000486	4.864915	0.824139	0.000097
 442	4.3880e+01	8.7836	56.980134	0.000162	1.621638	0.274713	0.000032
 443	4.3979e+01	8.8037	57.129508	0.000750	7.500078	1.270548	0.000150
 444	4.4078e+01	8.8239	57.190065	0.000304	3.040572	0.515087	0.000061
 445	4.4178e+01	8.8422	57.266770	0.000385	3.851391	0.652443	0.000077
 446	4.4278e+01	8.8623	57.371736	0.000527	5.270325	0.892817	0.000105
 447	4.4377e+01	8.8819	57.428256	0.000284	2.837867	0.480748	0.000057
 448	4.4477e+01	8.9030	57.508999	0.000405	4.054096	0.686782	0.000081
 449	4.4576e+01	8.9227	57.618001	0.000547	5.473030	0.927156	0.000110
 450	4.4675e+01	8.9420	57.718930	0.000507	5.067620	0.858478	0.000101
 451	4.4775e+01	8.9625	57.779487	0.000304	3.040572	0.515087	0.000061
 452	4.4874e+01	8.9817	57.852155	0.000365	3.648687	0.618104	0.000073
 453	4.4974e+01	9.0039	57.961158	0.000547	5.473030	0.927156	0.000110
 454	4.5074e+01	9.0222	58.037863	0.000385	3.851391	0.652443	0.000077
 455	4.5173e+01	9.0417	58.171089	0.000669	6.689259	1.133191	0.000134
 456	4.5273e+01	9.0619	58.251832	0.000405	4.054096	0.686782	0.000081
 457	4.5372e+01	9.0809	58.296240	0.000223	2.229753	0.377730	0.000045
 458	4.5471e+01	9.1021	58.401206	0.000527	5.270325	0.892817	0.000105
 459	4.5571e+01	9.1218	58.490023	0.000446	4.459506	0.755461	0.000089
 460	4.5670e+01	9.1406	58.599025	0.000547	5.473030	0.927156	0.000110
 461	4.5770e+01	9.1610	58.683805	0.000426	4.256801	0.721122	0.000085
 462	4.5870e+01	9.1810	58.756474	0.000365	3.648687	0.618104	0.000073
 463	4.5969e+01	9.2010	58.869513	0.000568	5.675735	0.961495	0.000114
 464	4.6069e+01	9.2205	58.946219	0.000385	3.851391	0.652443	0.000077
 465	4.6168e+01	9.2408	58.994665	0.000243	2.432458	0.412069	0.000049
 466	4.6267e+01	9.2596	59.079444	0.000426	4.256801	0.721122	0.000085
 467	4.6367e+01	9.2810	59.212670	0.000669	6.689259	1.133191	0.000134
 468	4.6467e+01	9.3007	59.297450	0.000426	4.256801	0.721122	0.000085
 469	4.6566e+01	9.3208	59.329747	0.000162	1.621638	0.274713	0.000032
 470	4.6666e+01	9.3408	59.442787	0.000568	5.675735	0.961495	0.000114
 471	4.6765e+01	9.3604	59.543715	0.000507	5.067620	0.858478	0.000101
 472	4.6864e+01	9.3806	59.588123	0.000223	2.229753	0.377730	0.000045
 473	4.6964e+01	9.4019	59.660792	0.000365	3.648687	0.618104	0.000073
 474	4.7063e+01	9.4205	59.777869	0.000588	5.878439	0.995835	0.000118
 475	4.7163e+01	9.4401	59.854574	0.000385	3.851391	0.652443	0.000077
 476	4.7263e+01	9.4590	59.967614	0.000568	5.675735	0.961495	0.000114
 477	4.7362e+01	9.4804	60.020097	0.000264	2.635163	0.446409	0.000053
 478	4.7462e+01	9.4999	60.121025	0.000507	5.067620	0.858478	0.000101
 479	4.7561e+01	9.5200	60.193694	0.000365	3.648687	0.618104	0.000073
 480	4.7660e+01	9.5399	60.290585	0.000486	4.864915	0.824139	0.000097
 481	4.7760e+01	9.5583	60.371328	0.000405	4.054096	0.686782	0.000081
 482	4.7859e+01	9.5793	60.443996	0.000365	3.648687	0.618104	0.000073
 483	4.7959e+01	9.5984	60.528776	0.000426	4.256801	0.721122	0.000085
 484	4.8059e+01	9.6191	60.625667	0.000486	4.864915	0.824139	0.000097
 485	4.8158e+01	9.6379	60.702373	0.000385	3.851391	0.652443	0.000077
 486	4.8258e+01	9.6603	60.783116	0.000405	4.054096	0.686782	0.000081
 487	4.8357e+01	9.6786	60.863858	0.000405	4.054096	0.686782	0.000081
 488	4.8456e+01	9.6985	60.952675	0.000446	4.459506	0.755461	0.000089
 489	4.8556e+01	9.7192	61.033418	0.000405	4.054096	0.686782	0.000081
 490	4.8656e+01	9.7394	61.118198	0.000426	4.256801	0.721122	0.000085
 491	4.8755e+01	9.7599	61.202978	0.000426	4.256801	0.721122	0.000085
 492	4.8855e+01	9.7783	61.295832	0.000466	4.662211	0.789800	0.000093
 493	4.8954e+01	9.7990	61.376575	0.000405	4.054096	0.686782	0.000081
 494	4.9053e+01	9.8183	61.416946	0.000203	2.027048	0.343391	0.000041
 495	4.9153e+01	9.8374	61.550171	0.000669	6.689259	1.133191	0.000134
 496	4.9252e+01	9.8584	61.578431	0.000142	1.418934	0.240374	0.000028
 497	4.9352e+01	9.8781	61.647063	0.000345	3.445982	0.583765	0.000069
 498	4.9452e+01	9.8983	61.772214	0.000628	6.283849	1.064513	0.000126
 499	4.9551e+01	9.9183	61.836808	0.000324	3.243277	0.549426	0.000065
 500	4.9651e+01	9.9371	61.937736	0.000507	5.067620	0.858478	0.000101
 501	4.9750e+01	9.9582	62.022516	0.000426	4.256801	0.721122	0.000085
 502	4.9849e+01	9.9775	62.083073	0.000304	3.040572	0.515087	0.000061
 503	4.9949e+01	9.9971	62.196113	0.000568	5.675735	0.961495	0.000114
 504	5.0048e+01	9.9775	62.127482	0.000345	3.445982	0.583765	-0.000069
 505	5.0148e+01	9.9585	62.050776	0.000385	3.851391	0.652443	-0.000077
 506	5.0248e+01	9.9372	61.965996	0.000426	4.256801	0.721122	-0.000085
 507	5.0347e+01	9.9175	61.865068	0.000507	5.067620	0.858478	-0.000101
 508	5.0447e+01	9.8980	61.840845	0.000122	1.216229	0.206035	-0.000024
 509	5.0546e+01	9.8779	61.780288	0.000304	3.040572	0.515087	-0.000061
 510	5.0645e+01	9.8584	61.731843	0.000243	2.432458	0.412069	-0.000049
 511	5.0745e+01	9.8371	61.626877	0.000527	5.270325	0.892817	-0.000105
 512	5.0844e+01	9.8176	61.554209	0.000365	3.648687	0.618104	-0.000073
 513	5.0944e+01	9.7982	61.509800	0.000223	2.229753	0.377730	-0.000045
 514	5.1044e+01	9.7781	61.408872	0.000507	5.067620	0.858478	-0.000101
 515	5.1143e+01	9.7583	61.348315	0.000304	3.040572	0.515087	-0.000061
 516	5.1242e+01	9.7388	61.275646	0.000365	3.648687	0.618104	-0.000073
 517	5.1342e+01	9.7193	61.182792	0.000466	4.662211	0.789800	-0.000093
 518	5.1441e+01	9.6983	61.134346	0.000243	2.432458	0.412069	-0.000049
 519	5.1541e+01	9.6796	61.045529	0.000446	4.459506	0.755461	-0.000089
 520	5.1641e+01	9.6596	60.989010	0.000284	2.837867	0.480748	-0.000057
 521	5.1740e+01	9.6396	60.944601	0.000223	2.229753	0.377730	-0.000045
 522	5.1840e+01	9.6198	60.871933	0.000365	3.648687	0.618104	-0.000073
 523	5.1939e+01	9.5977	60.775041	0.000486	4.864915	0.824139	-0.000097
 524	5.2038e+01	9.5801	60.722559	0.000264	2.635163	0.446409	-0.000053
 525	5.2138e+01	9.5591	60.653927	0.000345	3.445982	0.583765	-0.000069
 526	5.2237e+01	9.5398	60.532813	0.000608	6.081144	1.030174	-0.000122
 527	5.2337e+01	9.5197	60.516665	0.000081	0.810819	0.137356	-0.000016
 528	5.2437e+01	9.4999	60.419773	0.000486	4.864915	0.824139	-0.000097
 529	5.2536e+01	9.4807	60.334994	0.000426	4.256801	0.721122	-0.000085
 530	5.2636e+01	9.4604	60.294622	0.000203	2.027048	0.343391	-0.000041
 531	5.2735e+01	9.4409	60.201768	0.000466	4.662211	0.789800	-0.000093
 532	5.2834e+01	9.4202	60.133137	0.000345	3.445982	0.583765	-0.000069
 533	5.2934e+01	9.4001	60.044320	0.000446	4.459506	0.755461	-0.000089
 534	5.3033e+01	9.3799	59.967614	0.000385	3.851391	0.652443	-0.000077
 535	5.3133e+01	9.3604	59.903020	0.000324	3.243277	0.549426	-0.000065
 536	5.3233e+01	9.3408	59.830352	0.000365	3.648687	0.618104	-0.000073
 537	5.3332e+01	9.3213	59.745572	0.000426	4.256801	0.721122	-0.000085
 538	5.3431e+01	9.3002	59.644643	0.000507	5.067620	0.858478	-0.000101
 539	5.3531e+01	9.2803	59.567938	0.000385	3.851391	0.652443	-0.000077
 540	5.3630e+01	9.2603	59.527566	0.000203	2.027048	0.343391	-0.000041
 541	5.3730e+01	9.2408	59.471047	0.000284	2.837867	0.480748	-0.000057
 542	5.3830e+01	9.2200	59.418564	0.000264	2.635163	0.446409	-0.000053
 543	5.3929e+01	9.2017	59.277264	0.000709	7.094668	1.201869	-0.000142
 544	5.4029e+01	9.1809	59.192484	0.000426	4.256801	0.721122	-0.000085
 545	5.4128e+01	9.1615	59.123853	0.000345	3.445982	0.583765	-0.000069
 546	5.4227e+01	9.1422	59.067333	0.000284	2.837867	0.480748	-0.000057
 547	5.4327e+01	9.1216	58.978516	0.000446	4.459506	0.755461	-0.000089
 548	5.4426e+01	9.1019	58.905848	0.000365	3.648687	0.618104	-0.000073
 549	5.4526e+01	9.0820	58.800882	0.000527	5.270325	0.892817	-0.000105
 550	5.4626e+01	9.0616	58.752436	0.000243	2.432458	0.412069	-0.000049
 551	5.4725e+01	9.0414	58.651508	0.000507	5.067620	0.858478	-0.000101
 552	5.4825e+01	9.0224	58.599025	0.000264	2.635163	0.446409	-0.000053
 553	5.4924e+01	9.0021	58.506171	0.000466	4.662211	0.789800	-0.000093
 554	5.5023e+01	8.9822	58.441577	0.000324	3.243277	0.549426	-0.000065
 555	5.5123e+01	8.9616	58.336611	0.000527	5.270325	0.892817	-0.000105
 556	5.5222e+01	8.9417	58.272017	0.000324	3.243277	0.549426	-0.000065
 557	5.5322e+01	8.9223	58.223572	0.000243	2.432458	0.412069	-0.000049
 558	5.5422e+01	8.9027	58.098420	0.000628	6.283849	1.064513	-0.000126
 559	5.5521e+01	8.8818	58.078235	0.000101	1.013524	0.171696	-0.000020
 560	5.5620e+01	8.8623	57.973269	0.000527	5.270325	0.892817	-0.000105
 561	5.5720e+01	8.8428	57.908675	0.000324	3.243277	0.549426	-0.000065
 562	5.5819e+01	8.8232	57.827932	0.000405	4.054096	0.686782	-0.000081
 563	5.5919e+01	8.8037	57.755264	0.000365	3.648687	0.618104	-0.000073
 564	5.6019e+01	8.7835	57.646261	0.000547	5.473030	0.927156	-0.000110
 565	5.6118e+01	8.7640	57.609927	0.000182	1.824343	0.309052	-0.000037
 566	5.6218e+01	8.7437	57.545333	0.000324	3.243277	0.549426	-0.000065
 567	5.6317e+01	8.7231	57.448442	0.000486	4.864915	0.824139	-0.000097
 568	5.6416e+01	8.7036	57.383847	0.000324	3.243277	0.549426	-0.000065
 569	5.6516e+01	8.6832	57.299068	0.000426	4.256801	0.721122	-0.000085
 570	5.6615e+01	8.6636	57.222362	0.000385	3.851391	0.652443	-0.000077
 571	5.6715e+01	8.6433	57.153731	0.000345	3.445982	0.583765	-0.000069
 572	5.6815e+01	8.6237	57.064914	0.000446	4.459506	0.755461	-0.000089
 573	5.6914e+01	8.6047	56.992245	0.000365	3.648687	0.618104	-0.000073
 574	5.7014e+01	8.5840	56.891317	0.000507	5.067620	0.858478	-0.000101
 575	5.7113e+01	8.5635	56.859020	0.000162	1.621638	0.274713	-0.000032
 576	5.7212e+01	8.5450	56.750017	0.000547	5.473030	0.927156	-0.000110
 577	5.7312e+01	8.5248	56.693497	0.000284	2.837867	0.480748	-0.000057
 578	5.7411e+01	8.5041	56.588532	0.000527	5.270325	0.892817	-0.000105
 579	5.7511e+01	8.4840	56.511826	0.000385	3.851391	0.652443	-0.000077
 580	5.7611e+01	8.4650	56.431083	0.000405	4.054096	0.686782	-0.000081
 581	5.7710e+01	8.4440	56.358415	0.000365	3.648687	0.618104	-0.000073
 582	5.7809e+01	8.4243	56.277672	0.000405	4.054096	0.686782	-0.000081
 583	5.7909e+01	8.4047	56.213078	0.000324	3.243277	0.549426	-0.000065
 584	5.8008e+01	8.3844	56.120224	0.000466	4.662211	0.789800	-0.000093
 585	5.8108e+01	8.3652	56.055630	0.000324	3.243277	0.549426	-0.000065
 586	5.8208e+01	8.3453	55.958738	0.000486	4.864915	0.824139	-0.000097
 587	5.8307e+01	8.3239	55.882033	0.000385	3.851391	0.652443	-0.000077
 588	5.8407e+01	8.3057	55.805327	0.000385	3.851391	0.652443	-0.000077
 589	5.8506e+01	8.2858	55.720547	0.000426	4.256801	0.721122	-0.000085
 590	5.8605e+01	8.2666	55.615582	0.000527	5.270325	0.892817	-0.000105
 591	5.8705e+01	8.2461	55.530802	0.000426	4.256801	0.721122	-0.000085
 592	5.8804e+01	8.2258	55.494468	0.000182	1.824343	0.309052	-0.000037
 593	5.8904e+01	8.2061	55.421799	0.000365	3.648687	0.618104	-0.000073
 594	5.9004e+01	8.1863	55.332982	0.000446	4.459506	0.755461	-0.000089
 595	5.9103e+01	8.1657	55.211868	0.000608	6.081144	1.030174	-0.000122
 596	5.9203e+01	8.1461	55.163423	0.000243	2.432458	0.412069	-0.000049
 597	5.9302e+01	8.1262	55.062494	0.000507	5.067620	0.858478	-0.000101
 598	5.9401e+01	8.1061	54.977714	0.000426	4.256801	0.721122	-0.000085
 599	5.9501e+01	8.0867	54.937343	0.000203	2.027048	0.343391	-0.000041
 600	5.9600e+01	8.0658	54.864675	0.000365	3.648687	0.618104	-0.000073
 601	5.9700e+01	8.0464	54.731449	0.000669	6.689259	1.133191	-0.000134
 602	5.9800e+01	8.0258	54.691078	0.000203	2.027048	0.343391	-0.000041
 603	5.9899e+01	8.0064	54.574001	0.000588	5.878439	0.995835	-0.000118
 604	5.9998e+01	7.9873	54.489221	0.000426	4.256801	0.721122	-0.000085
 605	6.0098e+01	7.9675	54.396367	0.000466	4.662211	0.789800	-0.000093
 606	6.0197e+01	7.9469	54.351958	0.000223	2.229753	0.377730	-0.000045
 607	6.0297e+01	7.9267	54.267179	0.000426	4.256801	0.721122	-0.000085
 608	6.0397e+01	7.9070	54.186436	0.000405	4.054096	0.686782	-0.000081
 609	6.0496e+01	7.8875	54.109730	0.000385	3.851391	0.652443	-0.000077
 610	6.0596e+01	7.8683	54.033025	0.000385	3.851391	0.652443	-0.000077
 611	6.0695e+01	7.8467	53.911911	0.000608	6.081144	1.030174	-0.000122
 612	6.0794e+01	7.8275	53.843279	0.000345	3.445982	0.583765	-0.000069
 613	6.0894e+01	7.8076	53.774648	0.000345	3.445982	0.583765	-0.000069
 614	6.0993e+01	7.7877	53.665645	0.000547	5.473030	0.927156	-0.000110
 615	6.1093e+01	7.7686	53.580866	0.000426	4.256801	0.721122	-0.000085
 616	6.1193e+01	7.7473	53.524346	0.000284	2.837867	0.480748	-0.000057
 617	6.1292e+01	7.7287	53.399194	0.000628	6.283849	1.064513	-0.000126
 618	6.1392e+01	7.7077	53.302303	0.000486	4.864915	0.824139	-0.000097
 619	6.1491e+01	7.6884	53.265969	0.000182	1.824343	0.309052	-0.000037
 620	6.1590e+01	7.6677	53.148892	0.000588	5.878439	0.995835	-0.000118
 621	6.1690e+01	7.6491	53.064112	0.000426	4.256801	0.721122	-0.000085
 622	6.1789e+01	7.6276	53.003555	0.000304	3.040572	0.515087	-0.000061
 623	6.1889e+01	7.6080	52.874367	0.000649	6.486554	1.098852	-0.000130
 624	6.1989e+01	7.5881	52.821884	0.000264	2.635163	0.446409	-0.000053
 625	6.2088e+01	7.5686	52.761327	0.000304	3.040572	0.515087	-0.000061
 626	6.2188e+01	7.5488	52.668473	0.000466	4.662211	0.789800	-0.000093
 627	6.2287e+01	7.5289	52.583693	0.000426	4.256801	0.721122	-0.000085
 628	6.2386e+01	7.5088	52.519099	0.000324	3.243277	0.549426	-0.000065
 629	6.2486e+01	7.4902	52.426245	0.000466	4.662211	0.789800	-0.000093
 630	6.2586e+01	7.4683	52.341465	0.000426	4.256801	0.721122	-0.000085
 631	6.2685e+01	7.4492	52.228425	0.000568	5.675735	0.961495	-0.000114
 632	6.2785e+01	7.4287	52.163831	0.000324	3.243277	0.549426	-0.000065
 633	6.2884e+01	7.4091	52.087125	0.000385	3.851391	0.652443	-0.000077
 634	6.2983e+01	7.3897	51.998308	0.000446	4.459506	0.755461	-0.000089
 635	6.3083e+01	7.3687	51.945826	0.000264	2.635163	0.446409	-0.000053
 636	6.3182e+01	7.3486	51.796452	0.000750	7.500078	1.270548	-0.000150
 637	6.3282e+01	7.3312	51.743969	0.000264	2.635163	0.446409	-0.000053
 638	6.3382e+01	7.3096	51.651115	0.000466	4.662211	0.789800	-0.000093
 639	6.3481e+01	7.2901	51.590558	0.000304	3.040572	0.515087	-0.000061
 640	6.3581e+01	7.2705	51.501741	0.000446	4.459506	0.755461	-0.000089
 641	6.3680e+01	7.2496	51.396775	0.000527	5.270325	0.892817	-0.000105
 642	6.3779e+01	7.2294	51.287772	0.000547	5.473030	0.927156	-0.000110
 643	6.3879e+01	7.2095	51.235290	0.000264	2.635163	0.446409	-0.000053
 644	6.3978e+01	7.1905	51.118213	0.000588	5.878439	0.995835	-0.000118
 645	6.4078e+01	7.1693	51.049581	0.000345	3.445982	0.583765	-0.000069
 646	6.4177e+01	7.1505	50.972876	0.000385	3.851391	0.652443	-0.000077
 647	6.4277e+01	7.1301	50.867910	0.000527	5.270325	0.892817	-0.000105
 648	6.4376e+01	7.1108	50.771019	0.000486	4.864915	0.824139	-0.000097
 649	6.4476e+01	7.0911	50.662016	0.000547	5.473030	0.927156	-0.000110
 650	6.4576e+01	7.0711	50.601459	0.000304	3.040572	0.515087	-0.000061
 651	6.4675e+01	7.0508	50.484382	0.000588	5.878439	0.995835	-0.000118
 652	6.4775e+01	7.0306	50.427863	0.000284	2.837867	0.480748	-0.000057
 653	6.4874e+01	7.0107	50.302711	0.000628	6.283849	1.064513	-0.000126
 654	6.4974e+01	6.9910	50.242154	0.000304	3.040572	0.515087	-0.000061
 655	6.5073e+01	6.9714	50.133152	0.000547	5.473030	0.927156	-0.000110
 656	6.5172e+01	6.9509	50.068557	0.000324	3.243277	0.549426	-0.000065
 657	6.5272e+01	6.9312	49.975703	0.000466	4.662211	0.789800	-0.000093
 658	6.5371e+01	6.9106	49.866701	0.000547	5.473030	0.927156	-0.000110
 659	6.5471e+01	6.8917	49.781921	0.000426	4.256801	0.721122	-0.000085
 660	6.5570e+01	6.8710	49.693104	0.000446	4.459506	0.755461	-0.000089
 661	6.5670e+01	6.8517	49.624472	0.000345	3.445982	0.583765	-0.000069
 662	6.5769e+01	6.8319	49.515470	0.000547	5.473030	0.927156	-0.000110
 663	6.5869e+01	6.8118	49.462987	0.000264	2.635163	0.446409	-0.000053
 664	6.5969e+01	6.7910	49.349947	0.000568	5.675735	0.961495	-0.000114
 665	6.6068e+01	6.7713	49.244982	0.000527	5.270325	0.892817	-0.000105
 666	6.6168e+01	6.7510	49.168276	0.000385	3.851391	0.652443	-0.000077
 667	6.6267e+01	6.7315	49.051199	0.000588	5.878439	0.995835	-0.000118
 668	6.6367e+01	6.7120	48.982568	0.000345	3.445982	0.583765	-0.000069
 669	6.6466e+01	6.6917	48.905862	0.000385	3.851391	0.652443	-0.000077
 670	6.6566e+01	6.6714	48.845305	0.000304	3.040572	0.515087	-0.000061
 671	6.6665e+01	6.6517	48.675746	0.000851	8.513602	1.442243	-0.000170
 672	6.6764e+01	6.6320	48.611151	0.000324	3.243277	0.549426	-0.000065
 673	6.6864e+01	6.6125	48.522334	0.000446	4.459506	0.755461	-0.000089
 674	6.6963e+01	6.5919	48.421406	0.000507	5.067620	0.858478	-0.000101
 675	6.7063e+01	6.5726	48.328552	0.000466	4.662211	0.789800	-0.000093
 676	6.7162e+01	6.5518	48.259921	0.000345	3.445982	0.583765	-0.000069
 677	6.7262e+01	6.5333	48.187252	0.000365	3.648687	0.618104	-0.000073
 678	6.7362e+01	6.5119	48.086324	0.000507	5.067620	0.858478	-0.000101
 679	6.7461e+01	6.4925	47.969247	0.000588	5.878439	0.995835	-0.000118
 680	6.7561e+01	6.4735	47.932913	0.000182	1.824343	0.309052	-0.000037
 681	6.7660e+01	6.4532	47.795650	0.000689	6.891964	1.167530	-0.000138
 682	6.7760e+01	6.4327	47.714907	0.000405	4.054096	0.686782	-0.000081
 683	6.7859e+01	6.4127	47.601867	0.000568	5.675735	0.961495	-0.000114
 684	6.7959e+01	6.3926	47.517088	0.000426	4.256801	0.721122	-0.000085
 685	6.8058e+01	6.3734	47.436345	0.000405	4.054096	0.686782	-0.000081
 686	6.8157e+01	6.3534	47.331379	0.000527	5.270325	0.892817	-0.000105
 687	6.8257e+01	6.3331	47.246600	0.000426	4.256801	0.721122	-0.000085
 688	6.8356e+01	6.3128	47.137597	0.000547	5.473030	0.927156	-0.000110
 689	6.8456e+01	6.2947	47.081077	0.000284	2.837867	0.480748	-0.000057
 690	6.8555e+01	6.2737	46.972074	0.000547	5.473030	0.927156	-0.000110
 691	6.8655e+01	6.2539	46.891332	0.000405	4.054096	0.686782	-0.000081
 692	6.8754e+01	6.2341	46.802515	0.000446	4.459506	0.755461	-0.000089
 693	6.8854e+01	6.2141	46.725809	0.000385	3.851391	0.652443	-0.000077
 694	6.8954e+01	6.1939	46.608732	0.000588	5.878439	0.995835	-0.000118
 695	6.9053e+01	6.1744	46.523952	0.000426	4.256801	0.721122	-0.000085
 696	6.9153e+01	6.1553	46.423024	0.000507	5.067620	0.858478	-0.000101
 697	6.9252e+01	6.1356	46.318058	0.000527	5.270325	0.892817	-0.000105
 698	6.9352e+01	6.1147	46.241353	0.000385	3.851391	0.652443	-0.000077
 699	6.9451e+01	6.0952	46.148499	0.000466	4.662211	0.789800	-0.000093
 700	6.9550e+01	6.0748	46.047570	0.000507	5.067620	0.858478	-0.000101
 701	6.9650e+01	6.0543	45.946642	0.000507	5.067620	0.858478	-0.000101
 702	6.9749e+01	6.0345	45.861862	0.000426	4.256801	0.721122	-0.000085
 703	6.9849e+01	6.0149	45.769008	0.000466	4.662211	0.789800	-0.000093
 704	6.9948e+01	5.9957	45.684228	0.000426	4.256801	0.721122	-0.000085
 705	7.0048e+01	5.9756	45.546965	0.000689	6.891964	1.167530	-0.000138
 706	7.0147e+01	5.9549	45.518705	0.000142	1.418934	0.240374	-0.000028
 707	7.0247e+01	5.9347	45.385480	0.000669	6.689259	1.133191	-0.000134
 708	7.0347e+01	5.9156	45.272440	0.000568	5.675735	0.961495	-0.000114
 709	7.0446e+01	5.8958	45.223995	0.000243	2.432458	0.412069	-0.000049
 710	7.0546e+01	5.8764	45.094806	0.000649	6.486554	1.098852	-0.000130
 711	7.0645e+01	5.8558	44.981766	0.000568	5.675735	0.961495	-0.000114
 712	7.0745e+01	5.8356	44.913135	0.000345	3.445982	0.583765	-0.000069
 713	7.0844e+01	5.8164	44.796058	0.000588	5.878439	0.995835	-0.000118
 714	7.0944e+01	5.7961	44.711278	0.000426	4.256801	0.721122	-0.000085
 715	7.1043e+01	5.7766	44.634573	0.000385	3.851391	0.652443	-0.000077
 716	7.1142e+01	5.7561	44.469050	0.000831	8.310897	1.407904	-0.000166
 717	7.1242e+01	5.7354	44.444827	0.000122	1.216229	0.206035	-0.000024
 718	7.1341e+01	5.7163	44.303528	0.000709	7.094668	1.201869	-0.000142
 719	7.1441e+01	5.6971	44.230859	0.000365	3.648687	0.618104	-0.000073
 720	7.1540e+01	5.6771	44.073411	0.000791	7.905488	1.339226	-0.000158
 721	7.1640e+01	5.6564	44.012854	0.000304	3.040572	0.515087	-0.000061
 722	7.1740e+01	5.6371	43.928074	0.000426	4.256801	0.721122	-0.000085
 723	7.1839e+01	5.6170	43.847331	0.000405	4.054096	0.686782	-0.000081
 724	7.1939e+01	5.5959	43.726217	0.000608	6.081144	1.030174	-0.000122
 725	7.2038e+01	5.5779	43.625289	0.000507	5.067620	0.858478	-0.000101
 726	7.2138e+01	5.5575	43.580880	0.000223	2.229753	0.377730	-0.000045
 727	7.2237e+01	5.5364	43.471878	0.000547	5.473030	0.927156	-0.000110
 728	7.2337e+01	5.5168	43.362875	0.000547	5.473030	0.927156	-0.000110
 729	7.2436e+01	5.4986	43.257909	0.000527	5.270325	0.892817	-0.000105
 730	7.2535e+01	5.4777	43.193315	0.000324	3.243277	0.549426	-0.000065
 731	7.2635e+01	5.4568	43.052016	0.000709	7.094668	1.201869	-0.000142
 732	7.2734e+01	5.4377	43.003570	0.000243	2.432458	0.412069	-0.000049
 733	7.2834e+01	5.4174	42.874382	0.000649	6.486554	1.098852	-0.000130
 734	7.2933e+01	5.3981	42.773453	0.000507	5.067620	0.858478	-0.000101
 735	7.3033e+01	5.3777	42.684636	0.000446	4.459506	0.755461	-0.000089
 736	7.3132e+01	5.3571	42.620042	0.000324	3.243277	0.549426	-0.000065
 737	7.3232e+01	5.3389	42.519114	0.000507	5.067620	0.858478	-0.000101
 738	7.3332e+01	5.3182	42.446445	0.000365	3.648687	0.618104	-0.000073
 739	7.3431e+01	5.2979	42.297071	0.000750	7.500078	1.270548	-0.000150
 740	7.3531e+01	5.2785	42.184031	0.000568	5.675735	0.961495	-0.000114
 741	7.3630e+01	5.2575	42.127511	0.000284	2.837867	0.480748	-0.000057
 742	7.3730e+01	5.2374	41.978137	0.000750	7.500078	1.270548	-0.000150
 743	7.3829e+01	5.2177	41.893358	0.000426	4.256801	0.721122	-0.000085
 744	7.3928e+01	5.1986	41.800503	0.000466	4.662211	0.789800	-0.000093
 745	7.4028e+01	5.1786	41.695538	0.000527	5.270325	0.892817	-0.000105
 746	7.4127e+01	5.1594	41.606721	0.000446	4.459506	0.755461	-0.000089
 747	7.4227e+01	5.1388	41.497718	0.000547	5.473030	0.927156	-0.000110
 748	7.4326e+01	5.1180	41.368530	0.000649	6.486554	1.098852	-0.000130
 749	7.4426e+01	5.0993	41.320084	0.000243	2.432458	0.412069	-0.000049
 750	7.4525e+01	5.0782	41.251453	0.000345	3.445982	0.583765	-0.000069
 751	7.4625e+01	5.0582	41.085930	0.000831	8.310897	1.407904	-0.000166
 752	7.4725e+01	5.0398	40.960779	0.000628	6.283849	1.064513	-0.000126
 753	7.4824e+01	5.0195	40.892148	0.000345	3.445982	0.583765	-0.000069
 754	7.4924e+01	4.9987	40.795257	0.000486	4.864915	0.824139	-0.000097
 755	7.5023e+01	4.9789	40.686254	0.000547	5.473030	0.927156	-0.000110
 756	7.5123e+01	4.9589	40.585326	0.000507	5.067620	0.858478	-0.000101
 757	7.5222e+01	4.9392	40.464212	0.000608	6.081144	1.030174	-0.000122
 758	7.5322e+01	4.9194	40.391543	0.000365	3.648687	0.618104	-0.000073
 759	7.5421e+01	4.8991	40.306763	0.000426	4.256801	0.721122	-0.000085
 760	7.5520e+01	4.8797	40.197761	0.000547	5.473030	0.927156	-0.000110
 761	7.5620e+01	4.8598	40.068572	0.000649	6.486554	1.098852	-0.000130
 762	7.5719e+01	4.8397	39.959570	0.000547	5.473030	0.927156	-0.000110
 763	7.5819e+01	4.8211	39.903050	0.000284	2.837867	0.480748	-0.000057
 764	7.5918e+01	4.7996	39.822307	0.000405	4.054096	0.686782	-0.000081
 765	7.6018e+01	4.7801	39.717341	0.000527	5.270325	0.892817	-0.000105
 766	7.6118e+01	4.7599	39.572005	0.000730	7.297373	1.236208	-0.000146
 767	7.6217e+01	4.7405	39.487225	0.000426	4.256801	0.721122	-0.000085
 768	7.6317e+01	4.7211	39.370148	0.000588	5.878439	0.995835	-0.000118
 769	7.6416e+01	4.7015	39.293442	0.000385	3.851391	0.652443	-0.000077
 770	7.6516e+01	4.6798	39.180402	0.000568	5.675735	0.961495	-0.000114
 771	7.6615e+01	4.6602	39.087548	0.000466	4.662211	0.789800	-0.000093
 772	7.6715e+01	4.6415	38.958360	0.000649	6.486554	1.098852	-0.000130
 773	7.6814e+01	4.6204	38.837246	0.000608	6.081144	1.030174	-0.000122
 774	7.6913e+01	4.6009	38.772652	0.000324	3.243277	0.549426	-0.000065
 775	7.7013e+01	4.5809	38.667686	0.000527	5.270325	0.892817	-0.000105
 776	7.7112e+01	4.5614	38.542535	0.000628	6.283849	1.064513	-0.000126
 777	7.7212e+01	4.5419	38.473904	0.000345	3.445982	0.583765	-0.000069
 778	7.7311e+01	4.5219	38.348752	0.000628	6.283849	1.064513	-0.000126
 779	7.7411e+01	4.5013	38.255898	0.000466	4.662211	0.789800	-0.000093
 780	7.7510e+01	4.4814	38.138821	0.000588	5.878439	0.995835	-0.000118
 781	7.7610e+01	4.4606	38.041930	0.000486	4.864915	0.824139	-0.000097
 782	7.7710e+01	4.4411	37.904667	0.000689	6.891964	1.167530	-0.000138
 783	7.7809e+01	4.4216	37.815850	0.000446	4.459506	0.755461	-0.000089
 784	7.7909e+01	4.4019	37.714922	0.000507	5.067620	0.858478	-0.000101
 785	7.8008e+01	4.3821	37.630142	0.000426	4.256801	0.721122	-0.000085
 786	7.8108e+01	4.3613	37.521140	0.000547	5.473030	0.927156	-0.000110
 787	7.8207e+01	4.3431	37.400025	0.000608	6.081144	1.030174	-0.000122
 788	7.8306e+01	4.3224	37.315246	0.000426	4.256801	0.721122	-0.000085
 789	7.8406e+01	4.3023	37.198169	0.000588	5.878439	0.995835	-0.000118
 790	7.8505e+01	4.2829	37.085129	0.000568	5.675735	0.961495	-0.000114
 791	7.8605e+01	4.2621	36.992275	0.000466	4.662211	0.789800	-0.000093
 792	7.8704e+01	4.2417	36.867124	0.000628	6.283849	1.064513	-0.000126
 793	7.8804e+01	4.2225	36.774269	0.000466	4.662211	0.789800	-0.000093
 794	7.8903e+01	4.2022	36.673341	0.000507	5.067620	0.858478	-0.000101
 795	7.9003e+01	4.1821	36.544153	0.000649	6.486554	1.098852	-0.000130
 796	7.9103e+01	4.1627	36.463410	0.000405	4.054096	0.686782	-0.000081
 797	7.9202e+01	4.1434	36.390742	0.000365	3.648687	0.618104	-0.000073
 798	7.9302e+01	4.1219	36.261553	0.000649	6.486554	1.098852	-0.000130
 799	7.9401e+01	4.1019	36.164662	0.000486	4.864915	0.824139	-0.000097
 800	7.9501e+01	4.0830	36.011251	0.000770	7.702783	1.304887	-0.000154
 801	7.9600e+01	4.0627	35.906285	0.000527	5.270325	0.892817	-0.000105
 802	7.9700e+01	4.0437	35.825543	0.000405	4.054096	0.686782	-0.000081
 803	7.9799e+01	4.0229	35.700391	0.000628	6.283849	1.064513	-0.000126
 804	7.9898e+01	4.0029	35.575240	0.000628	6.283849	1.064513	-0.000126
 805	7.9998e+01	3.9839	35.498535	0.000385	3.851391	0.652443	-0.000077
 806	8.0097e+01	3.9629	35.389532	0.000547	5.473030	0.927156	-0.000110
 807	8.0197e+01	3.9434	35.260344	0.000649	6.486554	1.098852	-0.000130
 808	8.0296e+01	3.9223	35.155378	0.000527	5.270325	0.892817	-0.000105
 809	8.0396e+01	3.9043	35.062524	0.000466	4.662211	0.789800	-0.000093
 810	8.0496e+01	3.8829	34.945447	0.000588	5.878439	0.995835	-0.000118
 811	8.0595e+01	3.8637	34.824333	0.000608	6.081144	1.030174	-0.000122
 812	8.0695e+01	3.8435	34.707256	0.000588	5.878439	0.995835	-0.000118
 813	8.0794e+01	3.8242	34.598253	0.000547	5.473030	0.927156	-0.000110
 814	8.0894e+01	3.8036	34.493288	0.000527	5.270325	0.892817	-0.000105
 815	8.0993e+01	3.7833	34.376211	0.000588	5.878439	0.995835	-0.000118
 816	8.1093e+01	3.7643	34.275282	0.000507	5.067620	0.858478	-0.000101
 817	8.1192e+01	3.7444	34.138020	0.000689	6.891964	1.167530	-0.000138
 818	8.1291e+01	3.7238	34.049203	0.000446	4.459506	0.755461	-0.000089
 819	8.1391e+01	3.7049	33.920014	0.000649	6.486554	1.098852	-0.000130
 820	8.1490e+01	3.6845	33.811012	0.000547	5.473030	0.927156	-0.000110
 821	8.1590e+01	3.6657	33.693935	0.000588	5.878439	0.995835	-0.000118
 822	8.1689e+01	3.6449	33.597044	0.000486	4.864915	0.824139	-0.000097
 823	8.1789e+01	3.6256	33.467855	0.000649	6.486554	1.098852	-0.000130
 824	8.1888e+01	3.6050	33.375001	0.000466	4.662211	0.789800	-0.000093
 825	8.1988e+01	3.5854	33.241776	0.000669	6.689259	1.133191	-0.000134
 826	8.2088e+01	3.5650	33.148922	0.000466	4.662211	0.789800	-0.000093
 827	8.2187e+01	3.5452	33.035882	0.000568	5.675735	0.961495	-0.000114
 828	8.2287e+01	3.5255	32.918805	0.000588	5.878439	0.995835	-0.000118
 829	8.2386e+01	3.5055	32.785579	0.000669	6.689259	1.133191	-0.000134
 830	8.2486e+01	3.4856	32.737134	0.000243	2.432458	0.412069	-0.000049
 831	8.2585e+01	3.4656	32.567574	0.000851	8.513602	1.442243	-0.000170
 832	8.2684e+01	3.4462	32.474720	0.000466	4.662211	0.789800	-0.000093
 833	8.2784e+01	3.4268	32.381866	0.000466	4.662211	0.789800	-0.000093
 834	8.2883e+01	3.4053	32.232492	0.000750	7.500078	1.270548	-0.000150
 835	8.2983e+01	3.3859	32.167898	0.000324	3.243277	0.549426	-0.000065
 836	8.3082e+01	3.3661	32.034672	0.000669	6.689259	1.133191	-0.000134
 837	8.3182e+01	3.3456	31.925669	0.000547	5.473030	0.927156	-0.000110
 838	8.3281e+01	3.3252	31.804555	0.000608	6.081144	1.030174	-0.000122
 839	8.3381e+01	3.3064	31.651144	0.000770	7.702783	1.304887	-0.000154
 840	8.3481e+01	3.2864	31.590587	0.000304	3.040572	0.515087	-0.000061
 841	8.3580e+01	3.2666	31.461399	0.000649	6.486554	1.098852	-0.000130
 842	8.3680e+01	3.2468	31.328173	0.000669	6.689259	1.133191	-0.000134
 843	8.3779e+01	3.2264	31.207059	0.000608	6.081144	1.030174	-0.000122
 844	8.3879e+01	3.2059	31.146502	0.000304	3.040572	0.515087	-0.000061
 845	8.3978e+01	3.1866	30.997128	0.000750	7.500078	1.270548	-0.000150
 846	8.4078e+01	3.1664	30.863903	0.000669	6.689259	1.133191	-0.000134
 847	8.4177e+01	3.1469	30.771049	0.000466	4.662211	0.789800	-0.000093
 848	8.4276e+01	3.1262	30.641860	0.000649	6.486554	1.098852	-0.000130
 849	8.4376e+01	3.1077	30.532858	0.000547	5.473030	0.927156	-0.000110
 850	8.4475e+01	3.0867	30.415781	0.000588	5.878439	0.995835	-0.000118
 851	8.4575e+01	3.0676	30.335038	0.000405	4.054096	0.686782	-0.000081
 852	8.4674e+01	3.0479	30.181627	0.000770	7.702783	1.304887	-0.000154
 853	8.4774e+01	3.0274	30.076661	0.000527	5.270325	0.892817	-0.000105
 854	8.4874e+01	3.0067	29.987844	0.000446	4.459506	0.755461	-0.000089
 855	8.4973e+01	2.9873	29.838470	0.000750	7.500078	1.270548	-0.000150
 856	8.5073e+01	2.9676	29.733505	0.000527	5.270325	0.892817	-0.000105
 857	8.5172e+01	2.9474	29.628539	0.000527	5.270325	0.892817	-0.000105
 858	8.5272e+01	2.9278	29.487239	0.000709	7.094668	1.201869	-0.000142
 859	8.5371e+01	2.9075	29.398422	0.000446	4.459506	0.755461	-0.000089
 860	8.5471e+01	2.8878	29.269234	0.000649	6.486554	1.098852	-0.000130
 861	8.5570e+01	2.8687	29.136009	0.000669	6.689259	1.133191	-0.000134
 862	8.5669e+01	2.8481	28.998746	0.000689	6.891964	1.167530	-0.000138
 863	8.5769e+01	2.8278	28.885706	0.000568	5.675735	0.961495	-0.000114
 864	8.5868e+01	2.8088	28.800926	0.000426	4.256801	0.721122	-0.000085
 865	8.5968e+01	2.7882	28.671738	0.000649	6.486554	1.098852	-0.000130
 866	8.6067e+01	2.7688	28.582921	0.000446	4.459506	0.755461	-0.000089
 867	8.6167e+01	2.7482	28.405287	0.000892	8.919012	1.510921	-0.000179
 868	8.6266e+01	2.7292	28.336656	0.000345	3.445982	0.583765	-0.000069
 869	8.6366e+01	2.7090	28.179207	0.000791	7.905488	1.339226	-0.000158
 870	8.6466e+01	2.6877	28.058093	0.000608	6.081144	1.030174	-0.000122
 871	8.6565e+01	2.6678	27.985425	0.000365	3.648687	0.618104	-0.000073
 872	8.6665e+01	2.6492	27.844125	0.000709	7.094668	1.201869	-0.000142
 873	8.6764e+01	2.6295	27.706863	0.000689	6.891964	1.167530	-0.000138
 874	8.6864e+01	2.6075	27.622083	0.000426	4.256801	0.721122	-0.000085
 875	8.6963e+01	2.5887	27.496932	0.000628	6.283849	1.064513	-0.000126
 876	8.7063e+01	2.5680	27.379855	0.000588	5.878439	0.995835	-0.000118
 877	8.7162e+01	2.5496	27.206258	0.000872	8.716307	1.476582	-0.000174
 878	8.7261e+01	2.5288	27.153775	0.000264	2.635163	0.446409	-0.000053
 879	8.7361e+01	2.5098	27.012475	0.000709	7.094668	1.201869	-0.000142
 880	8.7460e+01	2.4884	26.887324	0.000628	6.283849	1.064513	-0.000126
 881	8.7560e+01	2.4699	26.786396	0.000507	5.067620	0.858478	-0.000101
 882	8.7659e+01	2.4493	26.661244	0.000628	6.283849	1.064513	-0.000126
 883	8.7759e+01	2.4302	26.528019	0.000669	6.689259	1.133191	-0.000134
 884	8.7859e+01	2.4093	26.402868	0.000628	6.283849	1.064513	-0.000126
 885	8.7958e+01	2.3890	26.314051	0.000446	4.459506	0.755461	-0.000089
 886	8.8058e+01	2.3701	26.144491	0.000851	8.513602	1.442243	-0.000170
 887	8.8157e+01	2.3501	26.071823	0.000365	3.648687	0.618104	-0.000073
 888	8.8257e+01	2.3306	25.930523	0.000709	7.094668	1.201869	-0.000142
 889	8.8356e+01	2.3093	25.817483	0.000568	5.675735	0.961495	-0.000114
 890	8.8456e+01	2.2897	25.688295	0.000649	6.486554	1.098852	-0.000130
 891	8.8555e+01	2.2712	25.571218	0.000588	5.878439	0.995835	-0.000118
 892	8.8654e+01	2.2504	25.433955	0.000689	6.891964	1.167530	-0.000138
 893	8.8754e+01	2.2304	25.320915	0.000568	5.675735	0.961495	-0.000114
 894	8.8853e+01	2.2109	25.215950	0.000527	5.270325	0.892817	-0.000105
 895	8.8953e+01	2.1912	25.066576	0.000750	7.500078	1.270548	-0.000150
 896	8.9052e+01	2.1709	24.981796	0.000426	4.256801	0.721122	-0.000085
 897	8.9152e+01	2.1511	24.824348	0.000791	7.905488	1.339226	-0.000158
 898	8.9251e+01	2.1307	24.735531	0.000446	4.459506	0.755461	-0.000089
 899	8.9351e+01	2.1111	24.614417	0.000608	6.081144	1.030174	-0.000122
 900	8.9451e+01	2.0907	24.473117	0.000709	7.094668	1.201869	-0.000142
 901	8.9550e+01	2.0705	24.356040	0.000588	5.878439	0.995835	-0.000118
 902	8.9650e+01	2.0520	24.255112	0.000507	5.067620	0.858478	-0.000101
 903	8.9749e+01	2.0314	24.109775	0.000730	7.297373	1.236208	-0.000146
 904	8.9849e+01	2.0106	24.016921	0.000466	4.662211	0.789800	-0.000093
 905	8.9948e+01	1.9912	23.887732	0.000649	6.486554	1.098852	-0.000130
 906	9.0047e+01	1.9717	23.742395	0.000730	7.297373	1.236208	-0.000146
 907	9.0147e+01	1.9515	23.629355	0.000568	5.675735	0.961495	-0.000114
 908	9.0246e+01	1.9306	23.540538	0.000446	4.459506	0.755461	-0.000089
 909	9.0346e+01	1.9112	23.403276	0.000689	6.891964	1.167530	-0.000138
 910	9.0445e+01	1.8909	23.237753	0.000831	8.310897	1.407904	-0.000166
 911	9.0545e+01	1.8720	23.144899	0.000466	4.662211	0.789800	-0.000093
 912	9.0644e+01	1.8519	23.011674	0.000669	6.689259	1.133191	-0.000134
 913	9.0744e+01	1.8322	22.898634	0.000568	5.675735	0.961495	-0.000114
 914	9.0844e+01	1.8118	22.793668	0.000527	5.270325	0.892817	-0.000105
 915	9.0943e+01	1.7924	22.616034	0.000892	8.919012	1.510921	-0.000179
 916	9.1043e+01	1.7723	22.531255	0.000426	4.256801	0.721122	-0.000085
 917	9.1142e+01	1.7524	22.393992	0.000689	6.891964	1.167530	-0.000138
 918	9.1242e+01	1.7326	22.305175	0.000446	4.459506	0.755461	-0.000089
 919	9.1341e+01	1.7130	22.171949	0.000669	6.689259	1.133191	-0.000134
 920	9.1441e+01	1.6921	22.050835	0.000608	6.081144	1.030174	-0.000122
 921	9.1540e+01	1.6730	21.937796	0.000568	5.675735	0.961495	-0.000114
 922	9.1639e+01	1.6516	21.756124	0.000912	9.121716	1.545261	-0.000183
 923	9.1739e+01	1.6329	21.655196	0.000507	5.067620	0.858478	-0.000101
 924	9.1838e+01	1.6125	21.570416	0.000426	4.256801	0.721122	-0.000085
 925	9.1938e+01	1.5926	21.457376	0.000568	5.675735	0.961495	-0.000114
 926	9.2037e+01	1.5726	21.271668	0.000932	9.324421	1.579600	-0.000187
 927	9.2137e+01	1.5520	21.170740	0.000507	5.067620	0.858478	-0.000101
 928	9.2237e+01	1.5334	21.045589	0.000628	6.283849	1.064513	-0.000126
 929	9.2336e+01	1.5136	20.904289	0.000709	7.094668	1.201869	-0.000142
 930	9.2436e+01	1.4919	20.811435	0.000466	4.662211	0.789800	-0.000093
 931	9.2535e+01	1.4726	20.666098	0.000730	7.297373	1.236208	-0.000146
 932	9.2635e+01	1.4537	20.553058	0.000568	5.675735	0.961495	-0.000114
 933	9.2734e+01	1.4335	20.391573	0.000811	8.108192	1.373565	-0.000162
 934	9.2834e+01	1.4133	20.290644	0.000507	5.067620	0.858478	-0.000101
 935	9.2933e+01	1.3933	20.185679	0.000527	5.270325	0.892817	-0.000105
 936	9.3032e+01	1.3738	20.044379	0.000709	7.094668	1.201869	-0.000142
 937	9.3132e+01	1.3537	19.911153	0.000669	6.689259	1.133191	-0.000134
 938	9.3231e+01	1.3327	19.806188	0.000527	5.270325	0.892817	-0.000105
 939	9.3331e+01	1.3136	19.632591	0.000872	8.716307	1.476582	-0.000174
 940	9.3430e+01	1.2933	19.511477	0.000608	6.081144	1.030174	-0.000122
 941	9.3530e+01	1.2743	19.390363	0.000608	6.081144	1.030174	-0.000122
 942	9.3629e+01	1.2544	19.321732	0.000345	3.445982	0.583765	-0.000069
 943	9.3729e+01	1.2353	19.168320	0.000770	7.702783	1.304887	-0.000154
 944	9.3829e+01	1.2148	19.031058	0.000689	6.891964	1.167530	-0.000138
 945	9.3928e+01	1.1956	18.918018	0.000568	5.675735	0.961495	-0.000114
 946	9.4028e+01	1.1749	18.768644	0.000750	7.500078	1.270548	-0.000150
 947	9.4127e+01	1.1556	18.647530	0.000608	6.081144	1.030174	-0.000122
 948	9.4227e+01	1.1355	18.538527	0.000547	5.473030	0.927156	-0.000110
 949	9.4326e+01	1.1144	18.385116	0.000770	7.702783	1.304887	-0.000154
 950	9.4425e+01	1.0959	18.272076	0.000568	5.675735	0.961495	-0.000114
 951	9.4525e+01	1.0759	18.159037	0.000568	5.675735	0.961495	-0.000114
 952	9.4624e+01	1.0555	18.013700	0.000730	7.297373	1.236208	-0.000146
 953	9.4724e+01	1.0352	17.844140	0.000851	8.513602	1.442243	-0.000170
 954	9.4823e+01	1.0154	17.747249	0.000486	4.864915	0.824139	-0.000097
 955	9.4923e+01	0.9950	17.638246	0.000547	5.473030	0.927156	-0.000110
 956	9.5022e+01	0.9756	17.500983	0.000689	6.891964	1.167530	-0.000138
 957	9.5122e+01	0.9563	17.355647	0.000730	7.297373	1.236208	-0.000146
 958	9.5222e+01	0.9357	17.242607	0.000568	5.675735	0.961495	-0.000114
 959	9.5321e+01	0.9161	17.117456	0.000628	6.283849	1.064513	-0.000126
 960	9.5421e+01	0.8953	17.020564	0.000486	4.864915	0.824139	-0.000097
 961	9.5520e+01	0.8762	16.834856	0.000932	9.324421	1.579600	-0.000187
 962	9.5620e+01	0.8560	16.770262	0.000324	3.243277	0.549426	-0.000065
 963	9.5719e+01	0.8363	16.608776	0.000811	8.108192	1.373565	-0.000162
 964	9.5819e+01	0.8158	16.459402	0.000750	7.500078	1.270548	-0.000150
 965	9.5918e+01	0.7971	16.338288	0.000608	6.081144	1.030174	-0.000122
 966	9.6017e+01	0.7758	16.253508	0.000426	4.256801	0.721122	-0.000085
 967	9.6117e+01	0.7565	16.104134	0.000750	7.500078	1.270548	-0.000150
 968	9.6216e+01	0.7369	15.978983	0.000628	6.283849	1.064513	-0.000126
 969	9.6316e+01	0.7166	15.853832	0.000628	6.283849	1.064513	-0.000126
 970	9.6415e+01	0.6969	15.720607	0.000669	6.689259	1.133191	-0.000134
 971	9.6515e+01	0.6763	15.575270	0.000730	7.297373	1.236208	-0.000146
 972	9.6615e+01	0.6570	15.438007	0.000689	6.891964	1.167530	-0.000138
 973	9.6714e+01	0.6365	15.308819	0.000649	6.486554	1.098852	-0.000130
 974	9.6814e+01	0.6167	15.191742	0.000588	5.878439	0.995835	-0.000118
 975	9.6913e+01	0.5962	15.062553	0.000649	6.486554	1.098852	-0.000130
 976	9.7013e+01	0.5771	14.933365	0.000649	6.486554	1.098852	-0.000130
 977	9.7112e+01	0.5568	14.796102	0.000689	6.891964	1.167530	-0.000138
 978	9.7212e+01	0.5376	14.670951	0.000628	6.283849	1.064513	-0.000126
 979	9.7311e+01	0.5165	14.517540	0.000770	7.702783	1.304887	-0.000154
 980	9.7410e+01	0.4971	14.436797	0.000405	4.054096	0.686782	-0.000081
 981	9.7510e+01	0.4775	14.251089	0.000932	9.324421	1.579600	-0.000187
 982	9.7609e+01	0.4579	14.146124	0.000527	5.270325	0.892817	-0.000105
 983	9.7709e+01	0.4375	14.000787	0.000730	7.297373	1.236208	-0.000146
 984	9.7808e+01	0.4180	13.907933	0.000466	4.662211	0.789800	-0.000093
 985	9.7908e+01	0.3976	13.734336	0.000872	8.716307	1.476582	-0.000174
 986	9.8007e+01	0.3782	13.588999	0.000730	7.297373	1.236208	-0.000146
 987	9.8107e+01	0.3578	13.484033	0.000527	5.270325	0.892817	-0.000105
 988	9.8207e+01	0.3379	13.334659	0.000750	7.500078	1.270548	-0.000150
 989	9.8306e+01	0.3178	13.213545	0.000608	6.081144	1.030174	-0.000122
 990	9.8406e+01	0.2980	13.080320	0.000669	6.689259	1.133191	-0.000134
 991	9.8505e+01	0.2789	12.963243	0.000588	5.878439	0.995835	-0.000118
 992	9.8605e+01	0.2562	12.821943	0.000709	7.094668	1.201869	-0.000142
 993	9.8704e+01	0.2388	12.696792	0.000628	6.283849	1.064513	-0.000126
 994	9.8803e+01	0.2179	12.571641	0.000628	6.283849	1.064513	-0.000126
 995	9.8903e+01	0.1981	12.406118	0.000831	8.310897	1.407904	-0.000166
 996	9.9002e+01	0.1780	12.297115	0.000547	5.473030	0.927156	-0.000110
 997	9.9102e+01	0.1589	12.155816	0.000709	7.094668	1.201869	-0.000142
 998	9.9201e+01	0.1382	12.002405	0.000770	7.702783	1.304887	-0.000154
 999	9.9301e+01	0.1184	11.905513	0.000486	4.864915	0.824139	-0.000097
1000	9.9400e+01	0.0988	11.780362	0.000628	6.283849	1.064513	-0.000126
1001	9.9500e+01	0.0779	11.626951	0.000770	7.702783	1.304887	-0.000154
1002	9.9600e+01	0.0588	11.542171	0.000426	4.256801	0.721122	-0.000085
1003	9.9699e+01	0.0396	11.348389	0.000973	9.729831	1.648278	-0.000195
1004	9.9799e+01	0.0191	11.259572	0.000446	4.459506	0.755461	-0.000089
1005	9.9898e+01	-0.0002	11.098086	0.000811	8.108192	1.373565	-0.000162
1006	9.9998e+01	-0.0178	10.985046	0.000568	5.675735	0.961495	-0.000114
1007	1.0010e+02	-0.0396	10.863932	0.000608	6.081144	1.030174	-0.000122
1008	1.0020e+02	-0.0591	10.746855	0.000588	5.878439	0.995835	-0.000118
1009	1.0030e+02	-0.0793	10.581333	0.000831	8.310897	1.407904	-0.000166
1010	1.0040e+02	-0.0993	10.480404	0.000507	5.067620	0.858478	-0.000101
1011	1.0050e+02	-0.1190	10.270473	0.001054	10.540650	1.785634	-0.000211
1012	1.0059e+02	-0.1382	10.193768	0.000385	3.851391	0.652443	-0.000077
1013	1.0069e+02	-0.1592	10.052468	0.000709	7.094668	1.201869	-0.000142
1014	1.0079e+02	-0.1772	9.903094	0.000750	7.500078	1.270548	-0.000150
1015	1.0089e+02	-0.1990	9.790054	0.000568	5.675735	0.961495	-0.000114
1016	1.0099e+02	-0.2170	9.668940	0.000608	6.081144	1.030174	-0.000122
1017	1.0109e+02	-0.2386	9.507455	0.000811	8.108192	1.373565	-0.000162
1018	1.0119e+02	-0.2583	9.394415	0.000568	5.675735	0.961495	-0.000114
1019	1.0129e+02	-0.2776	9.253115	0.000709	7.094668	1.201869	-0.000142
1020	1.0139e+02	-0.2978	9.111815	0.000709	7.094668	1.201869	-0.000142
1021	1.0149e+02	-0.3181	8.986664	0.000628	6.283849	1.064513	-0.000126
1022	1.0159e+02	-0.3384	8.877661	0.000547	5.473030	0.927156	-0.000110
1023	1.0169e+02	-0.3581	8.748473	0.000649	6.486554	1.098852	-0.000130
1024	1.0179e+02	-0.3773	8.578913	0.000851	8.513602	1.442243	-0.000170
1025	1.0189e+02	-0.3976	8.465874	0.000568	5.675735	0.961495	-0.000114
1026	1.0199e+02	-0.4176	8.344760	0.000608	6.081144	1.030174	-0.000122
1027	1.0209e+02	-0.4379	8.199423	0.000730	7.297373	1.236208	-0.000146
1028	1.0219e+02	-0.4579	8.074271	0.000628	6.283849	1.064513	-0.000126
1029	1.0229e+02	-0.4783	7.957195	0.000588	5.878439	0.995835	-0.000118
1030	1.0239e+02	-0.4982	7.803783	0.000770	7.702783	1.304887	-0.000154
1031	1.0248e+02	-0.5175	7.650372	0.000770	7.702783	1.304887	-0.000154
1032	1.0258e+02	-0.5374	7.517147	0.000669	6.689259	1.133191	-0.000134
1033	1.0268e+02	-0.5569	7.440441	0.000385	3.851391	0.652443	-0.000077
1034	1.0278e+02	-0.5768	7.299141	0.000709	7.094668	1.201869	-0.000142
1035	1.0288e+02	-0.5967	7.121507	0.000892	8.919012	1.510921	-0.000179
1036	1.0298e+02	-0.6170	6.996356	0.000628	6.283849	1.064513	-0.000126
1037	1.0308e+02	-0.6371	6.859094	0.000689	6.891964	1.167530	-0.000138
1038	1.0318e+02	-0.6564	6.742017	0.000588	5.878439	0.995835	-0.000118
1039	1.0328e+02	-0.6770	6.612828	0.000649	6.486554	1.098852	-0.000130
1040	1.0338e+02	-0.6970	6.459417	0.000770	7.702783	1.304887	-0.000154
1041	1.0348e+02	-0.7163	6.322155	0.000689	6.891964	1.167530	-0.000138
1042	1.0358e+02	-0.7351	6.201040	0.000608	6.081144	1.030174	-0.000122
1043	1.0368e+02	-0.7564	6.059741	0.000709	7.094668	1.201869	-0.000142
1044	1.0378e+02	-0.7768	5.950738	0.000547	5.473030	0.927156	-0.000110
1045	1.0388e+02	-0.7964	5.785216	0.000831	8.310897	1.407904	-0.000166
1046	1.0398e+02	-0.8157	5.643916	0.000709	7.094668	1.201869	-0.000142
1047	1.0408e+02	-0.8356	5.506653	0.000689	6.891964	1.167530	-0.000138
1048	1.0418e+02	-0.8569	5.397650	0.000547	5.473030	0.927156	-0.000110
1049	1.0428e+02	-0.8761	5.272499	0.000628	6.283849	1.064513	-0.000126
1050	1.0438e+02	-0.8951	5.127162	0.000730	7.297373	1.236208	-0.000146
1051	1.0447e+02	-0.9159	4.993937	0.000669	6.689259	1.133191	-0.000134
1052	1.0457e+02	-0.9355	4.844563	0.000750	7.500078	1.270548	-0.000150
1053	1.0467e+02	-0.9552	4.699226	0.000730	7.297373	1.236208	-0.000146
1054	1.0477e+02	-0.9756	4.606372	0.000466	4.662211	0.789800	-0.000093
1055	1.0487e+02	-0.9956	4.452961	0.000770	7.702783	1.304887	-0.000154
1056	1.0497e+02	-1.0161	4.352032	0.000507	5.067620	0.858478	-0.000101
1057	1.0507e+02	-1.0347	4.186510	0.000831	8.310897	1.407904	-0.000166
1058	1.0517e+02	-1.0552	4.073470	0.000568	5.675735	0.961495	-0.000114
1059	1.0527e+02	-1.0761	3.907947	0.000831	8.310897	1.407904	-0.000166
1060	1.0537e+02	-1.0957	3.794908	0.000568	5.675735	0.961495	-0.000114
1061	1.0547e+02	-1.1143	3.673794	0.000608	6.081144	1.030174	-0.000122
1062	1.0557e+02	-1.1344	3.540568	0.000669	6.689259	1.133191	-0.000134
1063	1.0567e+02	-1.1552	3.366971	0.000872	8.716307	1.476582	-0.000174
1064	1.0577e+02	-1.1745	3.266043	0.000507	5.067620	0.858478	-0.000101
1065	1.0587e+02	-1.1942	3.128780	0.000689	6.891964	1.167530	-0.000138
1066	1.0597e+02	-1.2157	2.999592	0.000649	6.486554	1.098852	-0.000130
1067	1.0607e+02	-1.2350	2.882515	0.000588	5.878439	0.995835	-0.000118
1068	1.0617e+02	-1.2549	2.757364	0.000628	6.283849	1.064513	-0.000126
1069	1.0627e+02	-1.2746	2.587804	0.000851	8.513602	1.442243	-0.000170
1070	1.0637e+02	-1.2947	2.482838	0.000527	5.270325	0.892817	-0.000105
1071	1.0647e+02	-1.3141	2.357687	0.000628	6.283849	1.064513	-0.000126
1072	1.0656e+02	-1.3338	2.204276	0.000770	7.702783	1.304887	-0.000154
1073	1.0666e+02	-1.3540	2.079125	0.000628	6.283849	1.064513	-0.000126
1074	1.0676e+02	-1.3738	1.941862	0.000689	6.891964	1.167530	-0.000138
1075	1.0686e+02	-1.3934	1.808637	0.000669	6.689259	1.133191	-0.000134
1076	1.0696e+02	-1.4143	1.667337	0.000709	7.094668	1.201869	-0.000142
1077	1.0706e+02	-1.4339	1.522000	0.000730	7.297373	1.236208	-0.000146
1078	1.0716e+02	-1.4546	1.408960	0.000568	5.675735	0.961495	-0.000114
1079	1.0726e+02	-1.4724	1.283809	0.000628	6.283849	1.064513	-0.000126
1080	1.0736e+02	-1.4928	1.162695	0.000608	6.081144	1.030174	-0.000122
1081	1.0746e+02	-1.5134	1.005247	0.000791	7.905488	1.339226	-0.000158
1082	1.0756e+02	-1.5333	0.908356	0.000486	4.864915	0.824139	-0.000097
1083	1.0766e+02	-1.5535	0.734759	0.000872	8.716307	1.476582	-0.000174
1084	1.0776e+02	-1.5726	0.609607	0.000628	6.283849	1.064513	-0.000126
1085	1.0786e+02	-1.5931	0.480419	0.000649	6.486554	1.098852	-0.000130
1086	1.0796e+02	-1.6134	0.294711	0.000932	9.324421	1.579600	-0.000187
1087	1.0806e+02	-1.6319	0.218005	0.000385	3.851391	0.652443	-0.000077
1088	1.0816e+02	-1.6524	0.096891	0.000608	6.081144	1.030174	-0.000122
1089	1.0826e+02	-1.6716	-0.016149	0.000568	5.675735	0.961495	-0.000114
1090	1.0836e+02	-1.6924	-0.181671	0.000831	8.310897	1.407904	-0.000166
1091	1.0845e+02	-1.7123	-0.318934	0.000689	6.891964	1.167530	-0.000138
1092	1.0855e+02	-1.7336	-0.423899	0.000527	5.270325	0.892817	-0.000105
1093	1.0865e+02	-1.7516	-0.601533	0.000892	8.919012	1.510921	-0.000179
1094	1.0875e+02	-1.7717	-0.718610	0.000588	5.878439	0.995835	-0.000118
1095	1.0885e+02	-1.7916	-0.847799	0.000649	6.486554	1.098852	-0.000130
1096	1.0895e+02	-1.8133	-0.976987	0.000649	6.486554	1.098852	-0.000130
1097	1.0905e+02	-1.8329	-1.134435	0.000791	7.905488	1.339226	-0.000158
1098	1.0915e+02	-1.8516	-1.267661	0.000669	6.689259	1.133191	-0.000134
1099	1.0925e+02	-1.8719	-1.356478	0.000446	4.459506	0.755461	-0.000089
1100	1.0935e+02	-1.8925	-1.513926	0.000791	7.905488	1.339226	-0.000158
1101	1.0945e+02	-1.9109	-1.651189	0.000689	6.891964	1.167530	-0.000138
1102	1.0955e+02	-1.9313	-1.776340	0.000628	6.283849	1.064513	-0.000126
1103	1.0965e+02	-1.9515	-1.889380	0.000568	5.675735	0.961495	-0.000114
1104	1.0975e+02	-1.9717	-2.050865	0.000811	8.108192	1.373565	-0.000162
1105	1.0985e+02	-1.9914	-2.184090	0.000669	6.689259	1.133191	-0.000134
1106	1.0995e+02	-2.0116	-2.256759	0.000365	3.648687	0.618104	-0.000073
1107	1.1005e+02	-2.0312	-2.426319	0.000851	8.513602	1.442243	-0.000170
1108	1.1015e+02	-2.0512	-2.591841	0.000831	8.310897	1.407904	-0.000166
1109	1.1025e+02	-2.0712	-2.704881	0.000568	5.675735	0.961495	-0.000114
1110	1.1035e+02	-2.0907	-2.846181	0.000709	7.094668	1.201869	-0.000142
1111	1.1044e+02	-2.1115	-2.971332	0.000628	6.283849	1.064513	-0.000126
1112	1.1054e+02	-2.1311	-3.100520	0.000649	6.486554	1.098852	-0.000130
1113	1.1064e+02	-2.1507	-3.205486	0.000527	5.270325	0.892817	-0.000105
1114	1.1074e+02	-2.1716	-3.342748	0.000689	6.891964	1.167530	-0.000138
1115	1.1084e+02	-2.1908	-3.500197	0.000791	7.905488	1.339226	-0.000158
1116	1.1094e+02	-2.2104	-3.629385	0.000649	6.486554	1.098852	-0.000130
1117	1.1104e+02	-2.2299	-3.742425	0.000568	5.675735	0.961495	-0.000114
1118	1.1114e+02	-2.2506	-3.895836	0.000770	7.702783	1.304887	-0.000154
1119	1.1124e+02	-2.2699	-4.029061	0.000669	6.689259	1.133191	-0.000134
1120	1.1134e+02	-2.2905	-4.154213	0.000628	6.283849	1.064513	-0.000126
1121	1.1144e+02	-2.3106	-4.311661	0.000791	7.905488	1.339226	-0.000158
1122	1.1154e+02	-2.3299	-4.416626	0.000527	5.270325	0.892817	-0.000105
1123	1.1164e+02	-2.3492	-4.566001	0.000750	7.500078	1.270548	-0.000150
1124	1.1174e+02	-2.3698	-4.658855	0.000466	4.662211	0.789800	-0.000093
1125	1.1184e+02	-2.3898	-4.800154	0.000709	7.094668	1.201869	-0.000142
1126	1.1194e+02	-2.4102	-4.925306	0.000628	6.283849	1.064513	-0.000126
1127	1.1204e+02	-2.4306	-5.078717	0.000770	7.702783	1.304887	-0.000154
1128	1.1214e+02	-2.4501	-5.215979	0.000689	6.891964	1.167530	-0.000138
1129	1.1224e+02	-2.4694	-5.324982	0.000547	5.473030	0.927156	-0.000110
1130	1.1234e+02	-2.4905	-5.474356	0.000750	7.500078	1.270548	-0.000150
1131	1.1244e+02	-2.5101	-5.603544	0.000649	6.486554	1.098852	-0.000130
1132	1.1253e+02	-2.5285	-5.712547	0.000547	5.473030	0.927156	-0.000110
1133	1.1263e+02	-2.5494	-5.845773	0.000669	6.689259	1.133191	-0.000134
1134	1.1273e+02	-2.5695	-5.991109	0.000730	7.297373	1.236208	-0.000146
1135	1.1283e+02	-2.5890	-6.128372	0.000689	6.891964	1.167530	-0.000138
1136	1.1293e+02	-2.6085	-6.293895	0.000831	8.310897	1.407904	-0.000166
1137	1.1303e+02	-2.6283	-6.374637	0.000405	4.054096	0.686782	-0.000081
1138	1.1313e+02	-2.6485	-6.495751	0.000608	6.081144	1.030174	-0.000122
1139	1.1323e+02	-2.6694	-6.637051	0.000709	7.094668	1.201869	-0.000142
1140	1.1333e+02	-2.6885	-6.766239	0.000649	6.486554	1.098852	-0.000130
1141	1.1343e+02	-2.7081	-6.875242	0.000547	5.473030	0.927156	-0.000110
1142	1.1353e+02	-2.7282	-7.036728	0.000811	8.108192	1.373565	-0.000162
1143	1.1363e+02	-2.7483	-7.157842	0.000608	6.081144	1.030174	-0.000122
1144	1.1373e+02	-2.7694	-7.266844	0.000547	5.473030	0.927156	-0.000110
1145	1.1383e+02	-2.7885	-7.391996	0.000628	6.283849	1.064513	-0.000126
1146	1.1393e+02	-2.8087	-7.537332	0.000730	7.297373	1.236208	-0.000146
1147	1.1403e+02	-2.8277	-7.694781	0.000791	7.905488	1.339226	-0.000158
1148	1.1413e+02	-2.8478	-7.832043	0.000689	6.891964	1.167530	-0.000138
1149	1.1423e+02	-2.8678	-7.949120	0.000588	5.878439	0.995835	-0.000118
1150	1.1433e+02	-2.8878	-8.110606	0.000811	8.108192	1.373565	-0.000162
1151	1.1442e+02	-2.9077	-8.219608	0.000547	5.473030	0.927156	-0.000110
1152	1.1452e+02	-2.9276	-8.320537	0.000507	5.067620	0.858478	-0.000101
1153	1.1462e+02	-2.9471	-8.465874	0.000730	7.297373	1.236208	-0.000146
1154	1.1472e+02	-2.9674	-8.619285	0.000770	7.702783	1.304887	-0.000154
1155	1.1482e+02	-2.9874	-8.752510	0.000669	6.689259	1.133191	-0.000134
1156	1.1492e+02	-3.0076	-8.885736	0.000669	6.689259	1.133191	-0.000134
1157	1.1502e+02	-3.0271	-9.010887	0.000628	6.283849	1.064513	-0.000126
1158	1.1512e+02	-3.0464	-9.115852	0.000527	5.270325	0.892817	-0.000105
1159	1.1522e+02	-3.0680	-9.236967	0.000608	6.081144	1.030174	-0.000122
1160	1.1532e+02	-3.0864	-9.358081	0.000608	6.081144	1.030174	-0.000122
1161	1.1542e+02	-3.1071	-9.519566	0.000811	8.108192	1.373565	-0.000162
1162	1.1552e+02	-3.1268	-9.640680	0.000608	6.081144	1.030174	-0.000122
1163	1.1562e+02	-3.1465	-9.761794	0.000608	6.081144	1.030174	-0.000122
1164	1.1572e+02	-3.1665	-9.919243	0.000791	7.905488	1.339226	-0.000158
1165	1.1582e+02	-3.1865	-10.024208	0.000527	5.270325	0.892817	-0.000105
1166	1.1592e+02	-3.2062	-10.157434	0.000669	6.689259	1.133191	-0.000134
1167	1.1602e+02	-3.2268	-10.290659	0.000669	6.689259	1.133191	-0.000134
1168	1.1612e+02	-3.2470	-10.407736	0.000588	5.878439	0.995835	-0.000118
1169	1.1622e+02	-3.2662	-10.549036	0.000709	7.094668	1.201869	-0.000142
1170	1.1632e+02	-3.2870	-10.658038	0.000547	5.473030	0.927156	-0.000110
1171	1.1642e+02	-3.3064	-10.807412	0.000750	7.500078	1.270548	-0.000150
1172	1.1651e+02	-3.3261	-10.952749	0.000730	7.297373	1.236208	-0.000146
1173	1.1661e+02	-3.3467	-11.081938	0.000649	6.486554	1.098852	-0.000130
1174	1.1671e+02	-3.3658	-11.154606	0.000365	3.648687	0.618104	-0.000073
1175	1.1681e+02	-3.3852	-11.348389	0.000973	9.729831	1.648278	-0.000195
1176	1.1691e+02	-3.4063	-11.489688	0.000709	7.094668	1.201869	-0.000142
1177	1.1701e+02	-3.4256	-11.586580	0.000486	4.864915	0.824139	-0.000097
1178	1.1711e+02	-3.4469	-11.703657	0.000588	5.878439	0.995835	-0.000118
1179	1.1721e+02	-3.4662	-11.848993	0.000730	7.297373	1.236208	-0.000146
1180	1.1731e+02	-3.4853	-11.957996	0.000547	5.473030	0.927156	-0.000110
1181	1.1741e+02	-3.5056	-12.091222	0.000669	6.689259	1.133191	-0.000134
1182	1.1751e+02	-3.5252	-12.212336	0.000608	6.081144	1.030174	-0.000122
1183	1.1761e+02	-3.5458	-12.349598	0.000689	6.891964	1.167530	-0.000138
1184	1.1771e+02	-3.5648	-12.474749	0.000628	6.283849	1.064513	-0.000126
1185	1.1781e+02	-3.5847	-12.595864	0.000608	6.081144	1.030174	-0.000122
1186	1.1791e+02	-3.6047	-12.721015	0.000628	6.283849	1.064513	-0.000126
1187	1.1801e+02	-3.6259	-12.882500	0.000811	8.108192	1.373565	-0.000162
1188	1.1811e+02	-3.6456	-12.983429	0.000507	5.067620	0.858478	-0.000101
1189	1.1821e+02	-3.6655	-13.120691	0.000689	6.891964	1.167530	-0.000138
1190	1.1831e+02	-3.6848	-13.217582	0.000486	4.864915	0.824139	-0.000097
1191	1.1841e+02	-3.7044	-13.358882	0.000709	7.094668	1.201869	-0.000142
1192	1.1850e+02	-3.7247	-13.475959	0.000588	5.878439	0.995835	-0.000118
1193	1.1860e+02	-3.7447	-13.601110	0.000628	6.283849	1.064513	-0.000126
1194	1.1870e+02	-3.7650	-13.742410	0.000709	7.094668	1.201869	-0.000142
1195	1.1880e+02	-3.7842	-13.875636	0.000669	6.689259	1.133191	-0.000134
1196	1.1890e+02	-3.8035	-13.964453	0.000446	4.459506	0.755461	-0.000089
1197	1.1900e+02	-3.8245	-14.109789	0.000730	7.297373	1.236208	-0.000146
1198	1.1910e+02	-3.8450	-14.238978	0.000649	6.486554	1.098852	-0.000130
1199	1.1920e+02	-3.8634	-14.364129	0.000628	6.283849	1.064513	-0.000126
1200	1.1930e+02	-3.8835	-14.456983	0.000466	4.662211	0.789800	-0.000093
1201	1.1940e+02	-3.9037	-14.602320	0.000730	7.297373	1.236208	-0.000146
1202	1.1950e+02	-3.9232	-14.715360	0.000568	5.675735	0.961495	-0.000114
1203	1.1960e+02	-3.9430	-14.892994	0.000892	8.919012	1.510921	-0.000179
1204	1.1970e+02	-3.9636	-14.997959	0.000527	5.270325	0.892817	-0.000105
1205	1.1980e+02	-3.9827	-15.131185	0.000669	6.689259	1.133191	-0.000134
1206	1.1990e+02	-4.0039	-15.244225	0.000568	5.675735	0.961495	-0.000114
1207	1.2000e+02	-4.0240	-15.385524	0.000709	7.094668	1.201869	-0.000142
1208	1.2010e+02	-4.0437	-15.470304	0.000426	4.256801	0.721122	-0.000085
1209	1.2020e+02	-4.0631	-15.575270	0.000527	5.270325	0.892817	-0.000105
1210	1.2030e+02	-4.0828	-15.744829	0.000851	8.513602	1.442243	-0.000170
1211	1.2039e+02	-4.1026	-15.894203	0.000750	7.500078	1.270548	-0.000150
1212	1.2049e+02	-4.1228	-15.978983	0.000426	4.256801	0.721122	-0.000085
1213	1.2059e+02	-4.1425	-16.116246	0.000689	6.891964	1.167530	-0.000138
1214	1.2069e+02	-4.1629	-16.253508	0.000689	6.891964	1.167530	-0.000138
1215	1.2079e+02	-4.1830	-16.366548	0.000568	5.675735	0.961495	-0.000114
1216	1.2089e+02	-4.2028	-16.483625	0.000588	5.878439	0.995835	-0.000118
1217	1.2099e+02	-4.2221	-16.628962	0.000730	7.297373	1.236208	-0.000146
1218	1.2109e+02	-4.2435	-16.733928	0.000527	5.270325	0.892817	-0.000105
1219	1.2119e+02	-4.2628	-16.842930	0.000547	5.473030	0.927156	-0.000110
1220	1.2129e+02	-4.2827	-17.008453	0.000831	8.310897	1.407904	-0.000166
1221	1.2139e+02	-4.3017	-17.097270	0.000446	4.459506	0.755461	-0.000089
1222	1.2149e+02	-4.3228	-17.242607	0.000730	7.297373	1.236208	-0.000146
1223	1.2159e+02	-4.3414	-17.383906	0.000709	7.094668	1.201869	-0.000142
1224	1.2169e+02	-4.3618	-17.492909	0.000547	5.473030	0.927156	-0.000110
1225	1.2179e+02	-4.3831	-17.601912	0.000547	5.473030	0.927156	-0.000110
1226	1.2189e+02	-4.4022	-17.702840	0.000507	5.067620	0.858478	-0.000101
1227	1.2199e+02	-4.4219	-17.852214	0.000750	7.500078	1.270548	-0.000150
1228	1.2209e+02	-4.4412	-17.985440	0.000669	6.689259	1.133191	-0.000134
1229	1.2219e+02	-4.4621	-18.090405	0.000527	5.270325	0.892817	-0.000105
1230	1.2229e+02	-4.4814	-18.215556	0.000628	6.283849	1.064513	-0.000126
1231	1.2239e+02	-4.5010	-18.308411	0.000466	4.662211	0.789800	-0.000093
1232	1.2248e+02	-4.5213	-18.441636	0.000669	6.689259	1.133191	-0.000134
1233	1.2258e+02	-4.5409	-18.542564	0.000507	5.067620	0.858478	-0.000101
1234	1.2268e+02	-4.5605	-18.675790	0.000669	6.689259	1.133191	-0.000134
1235	1.2278e+02	-4.5807	-18.772681	0.000486	4.864915	0.824139	-0.000097
1236	1.2288e+02	-4.6013	-18.926092	0.000770	7.702783	1.304887	-0.000154
1237	1.2298e+02	-4.6213	-19.051244	0.000628	6.283849	1.064513	-0.000126
1238	1.2308e+02	-4.6404	-19.148135	0.000486	4.864915	0.824139	-0.000097
1239	1.2318e+02	-4.6611	-19.236952	0.000446	4.459506	0.755461	-0.000089
1240	1.2328e+02	-4.6808	-19.406511	0.000851	8.513602	1.442243	-0.000170
1241	1.2338e+02	-4.7006	-19.539737	0.000669	6.689259	1.133191	-0.000134
1242	1.2348e+02	-4.7206	-19.604331	0.000324	3.243277	0.549426	-0.000065
1243	1.2358e+02	-4.7412	-19.769854	0.000831	8.310897	1.407904	-0.000166
1244	1.2368e+02	-4.7604	-19.846559	0.000385	3.851391	0.652443	-0.000077
1245	1.2378e+02	-4.7797	-19.967673	0.000608	6.081144	1.030174	-0.000122
1246	1.2388e+02	-4.7999	-20.113010	0.000730	7.297373	1.236208	-0.000146
1247	1.2398e+02	-4.8196	-20.254310	0.000709	7.094668	1.201869	-0.000142
1248	1.2408e+02	-4.8408	-20.351201	0.000486	4.864915	0.824139	-0.000097
1249	1.2418e+02	-4.8610	-20.472315	0.000608	6.081144	1.030174	-0.000122
1250	1.2428e+02	-4.8807	-20.593429	0.000608	6.081144	1.030174	-0.000122
1251	1.2438e+02	-4.8996	-20.706469	0.000568	5.675735	0.961495	-0.000114
1252	1.2447e+02	-4.9191	-20.767026	0.000304	3.040572	0.515087	-0.000061
1253	1.2457e+02	-4.9404	-20.944660	0.000892	8.919012	1.510921	-0.000179
1254	1.2467e+02	-4.9604	-21.049626	0.000527	5.270325	0.892817	-0.000105
1255	1.2477e+02	-4.9802	-21.154591	0.000527	5.270325	0.892817	-0.000105
1256	1.2487e+02	-4.9991	-21.295891	0.000709	7.094668	1.201869	-0.000142
1257	1.2497e+02	-5.0202	-21.372597	0.000385	3.851391	0.652443	-0.000077
1258	1.2507e+02	-5.0398	-21.546193	0.000872	8.716307	1.476582	-0.000174
1259	1.2517e+02	-5.0595	-21.651159	0.000527	5.270325	0.892817	-0.000105
1260	1.2527e+02	-5.0787	-21.784384	0.000669	6.689259	1.133191	-0.000134
1261	1.2537e+02	-5.0986	-21.909536	0.000628	6.283849	1.064513	-0.000126
1262	1.2547e+02	-5.1193	-21.994316	0.000426	4.256801	0.721122	-0.000085
1263	1.2557e+02	-5.1385	-22.103318	0.000547	5.473030	0.927156	-0.000110
1264	1.2567e+02	-5.1586	-22.264804	0.000811	8.108192	1.373565	-0.000162
1265	1.2577e+02	-5.1791	-22.341509	0.000385	3.851391	0.652443	-0.000077
1266	1.2587e+02	-5.1987	-22.466660	0.000628	6.283849	1.064513	-0.000126
1267	1.2597e+02	-5.2189	-22.579700	0.000568	5.675735	0.961495	-0.000114
1268	1.2607e+02	-5.2389	-22.741186	0.000811	8.108192	1.373565	-0.000162
1269	1.2617e+02	-5.2581	-22.805780	0.000324	3.243277	0.549426	-0.000065
1270	1.2627e+02	-5.2778	-22.951117	0.000730	7.297373	1.236208	-0.000146
1271	1.2636e+02	-5.2988	-23.060119	0.000547	5.473030	0.927156	-0.000110
1272	1.2646e+02	-5.3188	-23.148936	0.000446	4.459506	0.755461	-0.000089
1273	1.2656e+02	-5.3385	-23.286199	0.000689	6.891964	1.167530	-0.000138
1274	1.2666e+02	-5.3571	-23.395202	0.000547	5.473030	0.927156	-0.000110
1275	1.2676e+02	-5.3787	-23.568798	0.000872	8.716307	1.476582	-0.000174
1276	1.2686e+02	-5.3988	-23.661653	0.000466	4.662211	0.789800	-0.000093
1277	1.2696e+02	-5.4172	-23.762581	0.000507	5.067620	0.858478	-0.000101
1278	1.2706e+02	-5.4382	-23.895806	0.000669	6.689259	1.133191	-0.000134
1279	1.2716e+02	-5.4573	-24.024995	0.000649	6.486554	1.098852	-0.000130
1280	1.2726e+02	-5.4779	-24.129960	0.000527	5.270325	0.892817	-0.000105
1281	1.2736e+02	-5.4977	-24.251074	0.000608	6.081144	1.030174	-0.000122
1282	1.2746e+02	-5.5172	-24.380263	0.000649	6.486554	1.098852	-0.000130
1283	1.2756e+02	-5.5383	-24.473117	0.000466	4.662211	0.789800	-0.000093
1284	1.2766e+02	-5.5574	-24.622491	0.000750	7.500078	1.270548	-0.000150
1285	1.2776e+02	-5.5772	-24.719382	0.000486	4.864915	0.824139	-0.000097
1286	1.2786e+02	-5.5975	-24.860682	0.000709	7.094668	1.201869	-0.000142
1287	1.2796e+02	-5.6174	-24.941425	0.000405	4.054096	0.686782	-0.000081
1288	1.2806e+02	-5.6371	-25.074650	0.000669	6.689259	1.133191	-0.000134
1289	1.2816e+02	-5.6573	-25.215950	0.000709	7.094668	1.201869	-0.000142
1290	1.2826e+02	-5.6766	-25.333027	0.000588	5.878439	0.995835	-0.000118
1291	1.2835e+02	-5.6978	-25.454141	0.000608	6.081144	1.030174	-0.000122
1292	1.2845e+02	-5.7163	-25.559106	0.000527	5.270325	0.892817	-0.000105
1293	1.2855e+02	-5.7370	-25.696369	0.000689	6.891964	1.167530	-0.000138
1294	1.2865e+02	-5.7556	-25.797297	0.000507	5.067620	0.858478	-0.000101
1295	1.2875e+02	-5.7770	-25.902263	0.000527	5.270325	0.892817	-0.000105
1296	1.2885e+02	-5.7973	-26.011266	0.000547	5.473030	0.927156	-0.000110
1297	1.2895e+02	-5.8151	-26.176788	0.000831	8.310897	1.407904	-0.000166
1298	1.2905e+02	-5.8362	-26.297902	0.000608	6.081144	1.030174	-0.000122
1299	1.2915e+02	-5.8566	-26.402868	0.000527	5.270325	0.892817	-0.000105
1300	1.2925e+02	-5.8765	-26.519945	0.000588	5.878439	0.995835	-0.000118
1301	1.2935e+02	-5.8959	-26.616836	0.000486	4.864915	0.824139	-0.000097
1302	1.2945e+02	-5.9160	-26.725839	0.000547	5.473030	0.927156	-0.000110
1303	1.2955e+02	-5.9361	-26.879250	0.000770	7.702783	1.304887	-0.000154
1304	1.2965e+02	-5.9565	-27.008438	0.000649	6.486554	1.098852	-0.000130
1305	1.2975e+02	-5.9749	-27.117441	0.000547	5.473030	0.927156	-0.000110
1306	1.2985e+02	-5.9953	-27.258741	0.000709	7.094668	1.201869	-0.000142
1307	1.2995e+02	-6.0161	-27.367743	0.000547	5.473030	0.927156	-0.000110
1308	1.3005e+02	-6.0357	-27.436374	0.000345	3.445982	0.583765	-0.000069
1309	1.3015e+02	-6.0554	-27.605934	0.000851	8.513602	1.442243	-0.000170
1310	1.3025e+02	-6.0768	-27.735123	0.000649	6.486554	1.098852	-0.000130
1311	1.3034e+02	-6.0956	-27.840088	0.000527	5.270325	0.892817	-0.000105
1312	1.3044e+02	-6.1150	-27.961202	0.000608	6.081144	1.030174	-0.000122
1313	1.3054e+02	-6.1352	-28.110576	0.000750	7.500078	1.270548	-0.000150
1314	1.3064e+02	-6.1560	-28.239764	0.000649	6.486554	1.098852	-0.000130
1315	1.3074e+02	-6.1755	-28.381064	0.000709	7.094668	1.201869	-0.000142
1316	1.3084e+02	-6.1942	-28.518327	0.000689	6.891964	1.167530	-0.000138
1317	1.3094e+02	-6.2146	-28.623292	0.000527	5.270325	0.892817	-0.000105
1318	1.3104e+02	-6.2349	-28.732295	0.000547	5.473030	0.927156	-0.000110
1319	1.3114e+02	-6.2555	-28.869558	0.000689	6.891964	1.167530	-0.000138
1320	1.3124e+02	-6.2747	-28.990672	0.000608	6.081144	1.030174	-0.000122
1321	1.3134e+02	-6.2955	-29.156194	0.000831	8.310897	1.407904	-0.000166
1322	1.3144e+02	-6.3142	-29.285383	0.000649	6.486554	1.098852	-0.000130
1323	1.3154e+02	-6.3348	-29.362088	0.000385	3.851391	0.652443	-0.000077
1324	1.3164e+02	-6.3540	-29.479165	0.000588	5.878439	0.995835	-0.000118
1325	1.3174e+02	-6.3744	-29.652762	0.000872	8.716307	1.476582	-0.000174
1326	1.3184e+02	-6.3947	-29.757728	0.000527	5.270325	0.892817	-0.000105
1327	1.3194e+02	-6.4133	-29.886916	0.000649	6.486554	1.098852	-0.000130
1328	1.3204e+02	-6.4339	-29.983807	0.000486	4.864915	0.824139	-0.000097
1329	1.3214e+02	-6.4530	-30.141255	0.000791	7.905488	1.339226	-0.000158
1330	1.3224e+02	-6.4737	-30.266407	0.000628	6.283849	1.064513	-0.000126
1331	1.3234e+02	-6.4923	-30.371372	0.000527	5.270325	0.892817	-0.000105
1332	1.3243e+02	-6.5134	-30.532858	0.000811	8.108192	1.373565	-0.000162
1333	1.3253e+02	-6.5337	-30.694343	0.000811	8.108192	1.373565	-0.000162
1334	1.3263e+02	-6.5538	-30.783160	0.000446	4.459506	0.755461	-0.000089
1335	1.3273e+02	-6.5738	-30.920423	0.000689	6.891964	1.167530	-0.000138
1336	1.3283e+02	-6.5945	-31.069797	0.000750	7.500078	1.270548	-0.000150
1337	1.3293e+02	-6.6132	-31.194948	0.000628	6.283849	1.064513	-0.000126
1338	1.3303e+02	-6.6335	-31.307988	0.000568	5.675735	0.961495	-0.000114
1339	1.3313e+02	-6.6527	-31.453325	0.000730	7.297373	1.236208	-0.000146
1340	1.3323e+02	-6.6730	-31.550216	0.000486	4.864915	0.824139	-0.000097
1341	1.3333e+02	-6.6930	-31.683441	0.000669	6.689259	1.133191	-0.000134
1342	1.3343e+02	-6.7133	-31.869150	0.000932	9.324421	1.579600	-0.000187
1343	1.3353e+02	-6.7323	-31.966041	0.000486	4.864915	0.824139	-0.000097
1344	1.3363e+02	-6.7529	-32.139638	0.000872	8.716307	1.476582	-0.000174
1345	1.3373e+02	-6.7721	-32.216343	0.000385	3.851391	0.652443	-0.000077
1346	1.3383e+02	-6.7929	-32.418200	0.001014	10.135241	1.716956	-0.000203
1347	1.3393e+02	-6.8126	-32.490868	0.000365	3.648687	0.618104	-0.000073
1348	1.3403e+02	-6.8320	-32.656391	0.000831	8.310897	1.407904	-0.000166
1349	1.3413e+02	-6.8535	-32.757319	0.000507	5.067620	0.858478	-0.000101
1350	1.3423e+02	-6.8713	-32.914768	0.000791	7.905488	1.339226	-0.000158
1351	1.3432e+02	-6.8929	-33.084327	0.000851	8.513602	1.442243	-0.000170
1352	1.3442e+02	-6.9121	-33.185256	0.000507	5.067620	0.858478	-0.000101
1353	1.3452e+02	-6.9322	-33.310407	0.000628	6.283849	1.064513	-0.000126
1354	1.3462e+02	-6.9519	-33.447670	0.000689	6.891964	1.167530	-0.000138
1355	1.3472e+02	-6.9721	-33.605118	0.000791	7.905488	1.339226	-0.000158
1356	1.3482e+02	-6.9908	-33.702009	0.000486	4.864915	0.824139	-0.000097
1357	1.3492e+02	-7.0108	-33.843309	0.000709	7.094668	1.201869	-0.000142
1358	1.3502e+02	-7.0321	-34.008831	0.000831	8.310897	1.407904	-0.000166
1359	1.3512e+02	-7.0512	-34.125908	0.000588	5.878439	0.995835	-0.000118
1360	1.3522e+02	-7.0723	-34.259134	0.000669	6.689259	1.133191	-0.000134
1361	1.3532e+02	-7.0914	-34.420619	0.000811	8.108192	1.373565	-0.000162
1362	1.3542e+02	-7.1121	-34.578068	0.000791	7.905488	1.339226	-0.000158
1363	1.3552e+02	-7.1318	-34.687070	0.000547	5.473030	0.927156	-0.000110
1364	1.3562e+02	-7.1515	-34.836444	0.000750	7.500078	1.270548	-0.000150
1365	1.3572e+02	-7.1704	-34.989855	0.000770	7.702783	1.304887	-0.000154
1366	1.3582e+02	-7.1919	-35.127118	0.000689	6.891964	1.167530	-0.000138
1367	1.3592e+02	-7.2107	-35.240158	0.000568	5.675735	0.961495	-0.000114
1368	1.3602e+02	-7.2318	-35.393569	0.000770	7.702783	1.304887	-0.000154
1369	1.3612e+02	-7.2508	-35.518720	0.000628	6.283849	1.064513	-0.000126
1370	1.3622e+02	-7.2717	-35.676169	0.000791	7.905488	1.339226	-0.000158
1371	1.3631e+02	-7.2918	-35.809394	0.000669	6.689259	1.133191	-0.000134
1372	1.3641e+02	-7.3105	-35.950694	0.000709	7.094668	1.201869	-0.000142
1373	1.3651e+02	-7.3306	-36.083919	0.000669	6.689259	1.133191	-0.000134
1374	1.3661e+02	-7.3512	-36.257516	0.000872	8.716307	1.476582	-0.000174
1375	1.3671e+02	-7.3703	-36.414964	0.000791	7.905488	1.339226	-0.000158
1376	1.3681e+02	-7.3906	-36.548190	0.000669	6.689259	1.133191	-0.000134
1377	1.3691e+02	-7.4102	-36.693527	0.000730	7.297373	1.236208	-0.000146
1378	1.3701e+02	-7.4304	-36.830789	0.000689	6.891964	1.167530	-0.000138
1379	1.3711e+02	-7.4499	-36.964015	0.000669	6.689259	1.133191	-0.000134
1380	1.3721e+02	-7.4701	-37.089166	0.000628	6.283849	1.064513	-0.000126
1381	1.3731e+02	-7.4905	-37.234503	0.000730	7.297373	1.236208	-0.000146
1382	1.3741e+02	-7.5107	-37.432323	0.000993	9.932536	1.682617	-0.000199
1383	1.3751e+02	-7.5304	-37.585734	0.000770	7.702783	1.304887	-0.000154
1384	1.3761e+02	-7.5491	-37.731071	0.000730	7.297373	1.236208	-0.000146
1385	1.3771e+02	-7.5698	-37.872370	0.000709	7.094668	1.201869	-0.000142
1386	1.3781e+02	-7.5887	-37.941002	0.000345	3.445982	0.583765	-0.000069
1387	1.3791e+02	-7.6089	-38.171118	0.001155	11.554174	1.957330	-0.000231
1388	1.3801e+02	-7.6280	-38.284158	0.000568	5.675735	0.961495	-0.000114
1389	1.3811e+02	-7.6486	-38.469866	0.000932	9.324421	1.579600	-0.000187
1390	1.3821e+02	-7.6686	-38.582906	0.000568	5.675735	0.961495	-0.000114
1391	1.3831e+02	-7.6883	-38.744392	0.000811	8.108192	1.373565	-0.000162
1392	1.3840e+02	-7.7084	-38.861469	0.000588	5.878439	0.995835	-0.000118
1393	1.3850e+02	-7.7282	-39.026991	0.000831	8.310897	1.407904	-0.000166
1394	1.3860e+02	-7.7476	-39.184439	0.000791	7.905488	1.339226	-0.000158
1395	1.3870e+02	-7.7693	-39.362073	0.000892	8.919012	1.510921	-0.000179
1396	1.3880e+02	-7.7881	-39.507410	0.000730	7.297373	1.236208	-0.000146
1397	1.3890e+02	-7.8085	-39.672933	0.000831	8.310897	1.407904	-0.000166
1398	1.3900e+02	-7.8273	-39.777898	0.000527	5.270325	0.892817	-0.000105
1399	1.3910e+02	-7.8482	-39.963607	0.000932	9.324421	1.579600	-0.000187
1400	1.3920e+02	-7.8676	-40.121055	0.000791	7.905488	1.339226	-0.000158
1401	1.3930e+02	-7.8877	-40.238132	0.000588	5.878439	0.995835	-0.000118
1402	1.3940e+02	-7.9080	-40.411729	0.000872	8.716307	1.476582	-0.000174
1403	1.3950e+02	-7.9274	-40.548991	0.000689	6.891964	1.167530	-0.000138
1404	1.3960e+02	-7.9480	-40.714514	0.000831	8.310897	1.407904	-0.000166
1405	1.3970e+02	-7.9678	-40.875999	0.000811	8.108192	1.373565	-0.000162
1406	1.3980e+02	-7.9877	-41.041522	0.000831	8.310897	1.407904	-0.000166
1407	1.3990e+02	-8.0081	-41.207044	0.000831	8.310897	1.407904	-0.000166
1408	1.4000e+02	-8.0273	-41.324121	0.000588	5.878439	0.995835	-0.000118
1409	1.4010e+02	-8.0470	-41.485607	0.000811	8.108192	1.373565	-0.000162
1410	1.4020e+02	-8.0679	-41.687464	0.001014	10.135241	1.716956	-0.000203
1411	1.4029e+02	-8.0872	-41.820689	0.000669	6.689259	1.133191	-0.000134
1412	1.4039e+02	-8.1082	-41.990249	0.000851	8.513602	1.442243	-0.000170
1413	1.4049e+02	-8.1264	-42.147697	0.000791	7.905488	1.339226	-0.000158
1414	1.4059e+02	-8.1467	-42.341480	0.000973	9.729831	1.648278	-0.000195
1415	1.4069e+02	-8.1671	-42.466631	0.000628	6.283849	1.064513	-0.000126
1416	1.4079e+02	-8.1869	-42.656376	0.000953	9.527126	1.613939	-0.000191
1417	1.4089e+02	-8.2064	-42.797676	0.000709	7.094668	1.201869	-0.000142
1418	1.4099e+02	-8.2275	-42.999533	0.001014	10.135241	1.716956	-0.000203
1419	1.4109e+02	-8.2468	-43.116610	0.000588	5.878439	0.995835	-0.000118
1420	1.4119e+02	-8.2664	-43.314429	0.000993	9.932536	1.682617	-0.000199
1421	1.4129e+02	-8.2866	-43.492063	0.000892	8.919012	1.510921	-0.000179
1422	1.4139e+02	-8.3067	-43.661623	0.000851	8.513602	1.442243	-0.000170
1423	1.4149e+02	-8.3257	-43.798886	0.000689	6.891964	1.167530	-0.000138
1424	1.4159e+02	-8.3450	-43.964408	0.000831	8.310897	1.407904	-0.000166
1425	1.4169e+02	-8.3661	-44.138005	0.000872	8.716307	1.476582	-0.000174
1426	1.4179e+02	-8.3862	-44.343899	0.001034	10.337945	1.751295	-0.000207
1427	1.4189e+02	-8.4062	-44.477124	0.000669	6.689259	1.133191	-0.000134
1428	1.4199e+02	-8.4259	-44.638610	0.000811	8.108192	1.373565	-0.000162
1429	1.4209e+02	-8.4447	-44.844504	0.001034	10.337945	1.751295	-0.000207
1430	1.4219e+02	-8.4663	-44.997915	0.000770	7.702783	1.304887	-0.000154
1431	1.4228e+02	-8.4858	-45.159400	0.000811	8.108192	1.373565	-0.000162
1432	1.4238e+02	-8.5059	-45.337034	0.000892	8.919012	1.510921	-0.000179
1433	1.4248e+02	-8.5255	-45.510631	0.000872	8.716307	1.476582	-0.000174
1434	1.4258e+02	-8.5457	-45.672117	0.000811	8.108192	1.373565	-0.000162
1435	1.4268e+02	-8.5652	-45.910308	0.001196	11.959584	2.026008	-0.000239
1436	1.4278e+02	-8.5846	-46.055644	0.000730	7.297373	1.236208	-0.000146
1437	1.4288e+02	-8.6053	-46.229241	0.000872	8.716307	1.476582	-0.000174
1438	1.4298e+02	-8.6252	-46.402838	0.000872	8.716307	1.476582	-0.000174
1439	1.4308e+02	-8.6452	-46.564324	0.000811	8.108192	1.373565	-0.000162
1440	1.4318e+02	-8.6655	-46.758106	0.000973	9.729831	1.648278	-0.000195
1441	1.4328e+02	-8.6852	-46.943814	0.000932	9.324421	1.579600	-0.000187
1442	1.4338e+02	-8.7055	-47.121448	0.000892	8.919012	1.510921	-0.000179
1443	1.4348e+02	-8.7233	-47.274859	0.000770	7.702783	1.304887	-0.000154
1444	1.4358e+02	-8.7447	-47.456531	0.000912	9.121716	1.545261	-0.000183
1445	1.4368e+02	-8.7634	-47.718944	0.001318	13.175813	2.232043	-0.000264
1446	1.4378e+02	-8.7850	-47.844096	0.000628	6.283849	1.064513	-0.000126
1447	1.4388e+02	-8.8046	-48.062101	0.001095	10.946060	1.854313	-0.000219
1448	1.4398e+02	-8.8247	-48.247809	0.000932	9.324421	1.579600	-0.000187
1449	1.4408e+02	-8.8431	-48.405257	0.000791	7.905488	1.339226	-0.000158
1450	1.4418e+02	-8.8639	-48.603077	0.000993	9.932536	1.682617	-0.000199
1451	1.4428e+02	-8.8833	-48.792823	0.000953	9.527126	1.613939	-0.000191
1452	1.4437e+02	-8.9037	-48.990642	0.000993	9.932536	1.682617	-0.000199
1453	1.4447e+02	-8.9230	-49.160202	0.000851	8.513602	1.442243	-0.000170
1454	1.4457e+02	-8.9448	-49.394356	0.001176	11.756879	1.991669	-0.000235
1455	1.4467e+02	-8.9636	-49.604287	0.001054	10.540650	1.785634	-0.000211
1456	1.4477e+02	-8.9833	-49.818255	0.001074	10.743355	1.819974	-0.000215
1457	1.4487e+02	-9.0027	-49.947443	0.000649	6.486554	1.098852	-0.000130
1458	1.4497e+02	-9.0224	-50.133152	0.000932	9.324421	1.579600	-0.000187
1459	1.4507e+02	-9.0428	-50.383454	0.001257	12.567698	2.129026	-0.000252
1460	1.4517e+02	-9.0631	-50.573199	0.000953	9.527126	1.613939	-0.000191
1461	1.4527e+02	-9.0826	-50.762945	0.000953	9.527126	1.613939	-0.000191
1462	1.4537e+02	-9.1024	-50.924430	0.000811	8.108192	1.373565	-0.000162
1463	1.4547e+02	-9.1216	-51.118213	0.000973	9.729831	1.648278	-0.000195
1464	1.4557e+02	-9.1427	-51.364478	0.001236	12.364993	2.094687	-0.000248
1465	1.4567e+02	-9.1634	-51.558261	0.000973	9.729831	1.648278	-0.000195
1466	1.4577e+02	-9.1836	-51.735894	0.000892	8.919012	1.510921	-0.000179
1467	1.4587e+02	-9.2026	-51.945826	0.001054	10.540650	1.785634	-0.000211
1468	1.4597e+02	-9.2221	-52.127497	0.000912	9.121716	1.545261	-0.000183
1469	1.4607e+02	-9.2422	-52.385873	0.001297	12.973108	2.197704	-0.000260
1470	1.4617e+02	-9.2627	-52.551396	0.000831	8.310897	1.407904	-0.000166
1471	1.4626e+02	-9.2818	-52.745178	0.000973	9.729831	1.648278	-0.000195
1472	1.4636e+02	-9.3037	-52.987407	0.001216	12.162289	2.060347	-0.000243
1473	1.4646e+02	-9.3209	-53.201375	0.001074	10.743355	1.819974	-0.000215
1474	1.4656e+02	-9.3419	-53.379009	0.000892	8.919012	1.510921	-0.000179
1475	1.4666e+02	-9.3623	-53.609125	0.001155	11.554174	1.957330	-0.000231
1476	1.4676e+02	-9.3819	-53.843279	0.001176	11.756879	1.991669	-0.000235
1477	1.4686e+02	-9.4013	-54.057248	0.001074	10.743355	1.819974	-0.000215
1478	1.4696e+02	-9.4209	-54.287364	0.001155	11.554174	1.957330	-0.000231
1479	1.4706e+02	-9.4422	-54.473073	0.000932	9.324421	1.579600	-0.000187
1480	1.4716e+02	-9.4609	-54.723375	0.001257	12.567698	2.129026	-0.000252
1481	1.4726e+02	-9.4809	-54.901009	0.000892	8.919012	1.510921	-0.000179
1482	1.4736e+02	-9.5010	-55.127089	0.001135	11.351469	1.922991	-0.000227
1483	1.4746e+02	-9.5210	-55.389502	0.001318	13.175813	2.232043	-0.000264
1484	1.4756e+02	-9.5405	-55.623656	0.001176	11.756879	1.991669	-0.000235
1485	1.4766e+02	-9.5607	-55.841662	0.001095	10.946060	1.854313	-0.000219
1486	1.4776e+02	-9.5810	-56.083890	0.001216	12.162289	2.060347	-0.000243
1487	1.4786e+02	-9.6011	-56.277672	0.000973	9.729831	1.648278	-0.000195
1488	1.4796e+02	-9.6210	-56.515863	0.001196	11.959584	2.026008	-0.000239
1489	1.4806e+02	-9.6399	-56.758091	0.001216	12.162289	2.060347	-0.000243
1490	1.4816e+02	-9.6609	-57.024542	0.001338	13.378517	2.266382	-0.000268
1491	1.4825e+02	-9.6810	-57.234473	0.001054	10.540650	1.785634	-0.000211
1492	1.4835e+02	-9.6999	-57.464590	0.001155	11.554174	1.957330	-0.000231
1493	1.4845e+02	-9.7211	-57.694707	0.001155	11.554174	1.957330	-0.000231
1494	1.4855e+02	-9.7400	-57.928861	0.001176	11.756879	1.991669	-0.000235
1495	1.4865e+02	-9.7604	-58.203386	0.001378	13.783927	2.335060	-0.000276
1496	1.4875e+02	-9.7801	-58.389094	0.000932	9.324421	1.579600	-0.000187
1497	1.4885e+02	-9.8001	-58.667657	0.001399	13.986632	2.369400	-0.000280
1498	1.4895e+02	-9.8193	-58.901810	0.001176	11.756879	1.991669	-0.000235
1499	1.4905e+02	-9.8392	-59.140001	0.001196	11.959584	2.026008	-0.000239
1500	1.4915e+02	-9.8603	-59.386267	0.001236	12.364993	2.094687	-0.000248
1501	1.4925e+02	-9.8798	-59.596198	0.001054	10.540650	1.785634	-0.000211
1502	1.4935e+02	-9.8997	-59.886872	0.001459	14.594746	2.472417	-0.000292
1503	1.4945e+02	-9.9191	-60.121025	0.001176	11.756879	1.991669	-0.000235
1504	1.4955e+02	-9.9394	-60.407662	0.001439	14.392042	2.438078	-0.000288
1505	1.4965e+02	-9.9594	-60.625667	0.001095	10.946060	1.854313	-0.000219
1506	1.4975e+02	-9.9780	-60.884044	0.001297	12.973108	2.197704	-0.000260
1507	1.4985e+02	-9.9986	-61.186829	0.001520	15.202861	2.575434	-0.000304
1508	1.4995e+02	-9.9789	-61.291795	-0.000527	-5.270325	-0.892817	-0.000105
1509	1.5005e+02	-9.9597	-61.328129	-0.000182	-1.824343	-0.309052	-0.000037
1510	1.5015e+02	-9.9391	-61.457317	-0.000649	-6.486554	-1.098852	-0.000130
1511	1.5025e+02	-9.9197	-61.517874	-0.000304	-3.040572	-0.515087	-0.000061
1512	1.5034e+02	-9.9001	-61.598617	-0.000405	-4.054096	-0.686782	-0.000081
1513	1.5044e+02	-9.8804	-61.618803	-0.000101	-1.013524	-0.171696	-0.000020
1514	1.5054e+02	-9.8603	-61.711657	-0.000466	-4.662211	-0.789800	-0.000093
1515	1.5064e+02	-9.8405	-61.743954	-0.000162	-1.621638	-0.274713	-0.000032
1516	1.5074e+02	-9.8204	-61.788362	-0.000223	-2.229753	-0.377730	-0.000045
1517	1.5084e+02	-9.8002	-61.869105	-0.000405	-4.054096	-0.686782	-0.000081
1518	1.5094e+02	-9.7798	-61.844882	0.000122	1.216229	0.206035	0.000024
1519	1.5104e+02	-9.7597	-61.917551	-0.000365	-3.648687	-0.618104	-0.000073
1520	1.5114e+02	-9.7408	-61.974071	-0.000284	-2.837867	-0.480748	-0.000057
1521	1.5124e+02	-9.7212	-62.006368	-0.000162	-1.621638	-0.274713	-0.000032
1522	1.5134e+02	-9.6992	-62.022516	-0.000081	-0.810819	-0.137356	-0.000016
1523	1.5144e+02	-9.6797	-62.066925	-0.000223	-2.229753	-0.377730	-0.000045
1524	1.5154e+02	-9.6605	-62.058851	0.000041	0.405410	0.068678	0.000008
1525	1.5164e+02	-9.6407	-62.083073	-0.000122	-1.216229	-0.206035	-0.000024
1526	1.5174e+02	-9.6201	-62.107296	-0.000122	-1.216229	-0.206035	-0.000024
1527	1.5184e+02	-9.6005	-62.115370	-0.000041	-0.405410	-0.068678	-0.000008
1528	1.5194e+02	-9.5812	-62.123445	-0.000041	-0.405410	-0.068678	-0.000008
1529	1.5204e+02	-9.5610	-62.135556	-0.000061	-0.608114	-0.103017	-0.000012
1530	1.5214e+02	-9.5406	-62.131519	0.000020	0.202705	0.034339	0.000004
1531	1.5224e+02	-9.5216	-62.159779	-0.000142	-1.418934	-0.240374	-0.000028
1532	1.5233e+02	-9.5006	-62.196113	-0.000182	-1.824343	-0.309052	-0.000037
1533	1.5243e+02	-9.4814	-62.151705	0.000223	2.229753	0.377730	0.000045
1534	1.5253e+02	-9.4610	-62.139593	0.000061	0.608114	0.103017	0.000012
1535	1.5263e+02	-9.4406	-62.163816	-0.000122	-1.216229	-0.206035	-0.000024
1536	1.5273e+02	-9.4211	-62.135556	0.000142	1.418934	0.240374	0.000028
1537	1.5283e+02	-9.4003	-62.127482	0.000041	0.405410	0.068678	0.000008
1538	1.5293e+02	-9.3819	-62.119408	0.000041	0.405410	0.068678	0.000008
1539	1.5303e+02	-9.3623	-62.171890	-0.000264	-2.635163	-0.446409	-0.000053
1540	1.5313e+02	-9.3423	-62.091148	0.000405	4.054096	0.686782	0.000081
1541	1.5323e+02	-9.3213	-62.139593	-0.000243	-2.432458	-0.412069	-0.000049
1542	1.5333e+02	-9.3028	-62.062888	0.000385	3.851391	0.652443	0.000077
1543	1.5343e+02	-9.2825	-62.046739	0.000081	0.810819	0.137356	0.000016
1544	1.5353e+02	-9.2610	-62.074999	-0.000142	-1.418934	-0.240374	-0.000028
1545	1.5363e+02	-9.2431	-62.083073	-0.000041	-0.405410	-0.068678	-0.000008
1546	1.5373e+02	-9.2221	-61.986182	0.000486	4.864915	0.824139	0.000097
1547	1.5383e+02	-9.2036	-61.990219	-0.000020	-0.202705	-0.034339	-0.000004
1548	1.5393e+02	-9.1827	-61.953885	0.000182	1.824343	0.309052	0.000037
1549	1.5403e+02	-9.1626	-61.949848	0.000020	0.202705	0.034339	0.000004
1550	1.5413e+02	-9.1423	-61.921588	0.000142	1.418934	0.240374	0.000028
1551	1.5422e+02	-9.1231	-61.925625	-0.000020	-0.202705	-0.034339	-0.000004
1552	1.5432e+02	-9.1035	-61.877179	0.000243	2.432458	0.412069	0.000049
1553	1.5442e+02	-9.0829	-61.832771	0.000223	2.229753	0.377730	0.000045
1554	1.5452e+02	-9.0637	-61.812585	0.000101	1.013524	0.171696	0.000020
1555	1.5462e+02	-9.0430	-61.780288	0.000162	1.621638	0.274713	0.000032
1556	1.5472e+02	-9.0234	-61.756065	0.000122	1.216229	0.206035	0.000024
1557	1.5482e+02	-9.0028	-61.719731	0.000182	1.824343	0.309052	0.000037
1558	1.5492e+02	-8.9832	-61.695508	0.000122	1.216229	0.206035	0.000024
1559	1.5502e+02	-8.9632	-61.671286	0.000122	1.216229	0.206035	0.000024
1560	1.5512e+02	-8.9433	-61.598617	0.000365	3.648687	0.618104	0.000073
1561	1.5522e+02	-8.9243	-61.558246	0.000203	2.027048	0.343391	0.000041
1562	1.5532e+02	-8.9044	-61.509800	0.000243	2.432458	0.412069	0.000049
1563	1.5542e+02	-8.8831	-61.465392	0.000223	2.229753	0.377730	0.000045
1564	1.5552e+02	-8.8638	-61.433095	0.000162	1.621638	0.274713	0.000032
1565	1.5562e+02	-8.8441	-61.408872	0.000122	1.216229	0.206035	0.000024
1566	1.5572e+02	-8.8243	-61.340240	0.000345	3.445982	0.583765	0.000069
1567	1.5582e+02	-8.8040	-61.307943	0.000162	1.621638	0.274713	0.000032
1568	1.5592e+02	-8.7837	-61.287758	0.000101	1.013524	0.171696	0.000020
1569	1.5602e+02	-8.7643	-61.223163	0.000324	3.243277	0.549426	0.000065
1570	1.5612e+02	-8.7446	-61.190866	0.000162	1.621638	0.274713	0.000032
1571	1.5622e+02	-8.7242	-61.102049	0.000446	4.459506	0.755461	0.000089
1572	1.5631e+02	-8.7045	-61.065715	0.000182	1.824343	0.309052	0.000037
1573	1.5641e+02	-8.6860	-61.017270	0.000243	2.432458	0.412069	0.000049
1574	1.5651e+02	-8.6643	-60.964787	0.000264	2.635163	0.446409	0.000053
1575	1.5661e+02	-8.6445	-60.940564	0.000122	1.216229	0.206035	0.000024
1576	1.5671e+02	-8.6243	-60.908267	0.000162	1.621638	0.274713	0.000032
1577	1.5681e+02	-8.6044	-60.791190	0.000588	5.878439	0.995835	0.000118
1578	1.5691e+02	-8.5849	-60.750819	0.000203	2.027048	0.343391	0.000041
1579	1.5701e+02	-8.5650	-60.686224	0.000324	3.243277	0.549426	0.000065
1580	1.5711e+02	-8.5451	-60.645853	0.000203	2.027048	0.343391	0.000041
1581	1.5721e+02	-8.5252	-60.621630	0.000122	1.216229	0.206035	0.000024
1582	1.5731e+02	-8.5056	-60.557036	0.000324	3.243277	0.549426	0.000065
1583	1.5741e+02	-8.4851	-60.480330	0.000385	3.851391	0.652443	0.000077
1584	1.5751e+02	-8.4652	-60.452071	0.000142	1.418934	0.240374	0.000028
1585	1.5761e+02	-8.4448	-60.387476	0.000324	3.243277	0.549426	0.000065
1586	1.5771e+02	-8.4259	-60.318845	0.000345	3.445982	0.583765	0.000069
1587	1.5781e+02	-8.4062	-60.290585	0.000142	1.418934	0.240374	0.000028
1588	1.5791e+02	-8.3859	-60.213880	0.000385	3.851391	0.652443	0.000077
1589	1.5801e+02	-8.3653	-60.165434	0.000243	2.432458	0.412069	0.000049
1590	1.5811e+02	-8.3462	-60.129100	0.000182	1.824343	0.309052	0.000037
1591	1.5821e+02	-8.3265	-60.024134	0.000527	5.270325	0.892817	0.000105
1592	1.5830e+02	-8.3054	-59.955503	0.000345	3.445982	0.583765	0.000069
1593	1.5840e+02	-8.2857	-59.907057	0.000243	2.432458	0.412069	0.000049
1594	1.5850e+02	-8.2655	-59.862649	0.000223	2.229753	0.377730	0.000045
1595	1.5860e+02	-8.2460	-59.789980	0.000365	3.648687	0.618104	0.000073
1596	1.5870e+02	-8.2271	-59.737498	0.000264	2.635163	0.446409	0.000053
1597	1.5880e+02	-8.2067	-59.672903	0.000324	3.243277	0.549426	0.000065
1598	1.5890e+02	-8.1876	-59.612346	0.000304	3.040572	0.515087	0.000061
1599	1.5900e+02	-8.1667	-59.576012	0.000182	1.824343	0.309052	0.000037
1600	1.5910e+02	-8.1467	-59.499307	0.000385	3.851391	0.652443	0.000077
1601	1.5920e+02	-8.1262	-59.434712	0.000324	3.243277	0.549426	0.000065
1602	1.5930e+02	-8.1064	-59.374155	0.000304	3.040572	0.515087	0.000061
1603	1.5940e+02	-8.0872	-59.281301	0.000466	4.662211	0.789800	0.000093
1604	1.5950e+02	-8.0667	-59.232856	0.000243	2.432458	0.412069	0.000049
1605	1.5960e+02	-8.0482	-59.164224	0.000345	3.445982	0.583765	0.000069
1606	1.5970e+02	-8.0273	-59.087519	0.000385	3.851391	0.652443	0.000077
1607	1.5980e+02	-8.0078	-59.018887	0.000345	3.445982	0.583765	0.000069
1608	1.5990e+02	-7.9873	-58.946219	0.000365	3.648687	0.618104	0.000073
1609	1.6000e+02	-7.9679	-58.905848	0.000203	2.027048	0.343391	0.000041
1610	1.6010e+02	-7.9480	-58.829142	0.000385	3.851391	0.652443	0.000077
1611	1.6019e+02	-7.9279	-58.768585	0.000304	3.040572	0.515087	0.000061
1612	1.6029e+02	-7.9079	-58.732251	0.000182	1.824343	0.309052	0.000037
1613	1.6039e+02	-7.8882	-58.635359	0.000486	4.864915	0.824139	0.000097
1614	1.6049e+02	-7.8675	-58.574802	0.000304	3.040572	0.515087	0.000061
1615	1.6059e+02	-7.8482	-58.461763	0.000568	5.675735	0.961495	0.000114
1616	1.6069e+02	-7.8284	-58.437540	0.000122	1.216229	0.206035	0.000024
1617	1.6079e+02	-7.8082	-58.372946	0.000324	3.243277	0.549426	0.000065
1618	1.6089e+02	-7.7878	-58.259906	0.000568	5.675735	0.961495	0.000114
1619	1.6099e+02	-7.7680	-58.207423	0.000264	2.635163	0.446409	0.000053
1620	1.6109e+02	-7.7470	-58.134755	0.000365	3.648687	0.618104	0.000073
1621	1.6119e+02	-7.7277	-58.082272	0.000264	2.635163	0.446409	0.000053
1622	1.6129e+02	-7.7087	-58.005566	0.000385	3.851391	0.652443	0.000077
1623	1.6139e+02	-7.6885	-57.985381	0.000101	1.013524	0.171696	0.000020
1624	1.6149e+02	-7.6691	-57.872341	0.000568	5.675735	0.961495	0.000114
1625	1.6159e+02	-7.6480	-57.775450	0.000486	4.864915	0.824139	0.000097
1626	1.6169e+02	-7.6294	-57.698744	0.000385	3.851391	0.652443	0.000077
1627	1.6179e+02	-7.6096	-57.638187	0.000304	3.040572	0.515087	0.000061
1628	1.6189e+02	-7.5898	-57.541296	0.000486	4.864915	0.824139	0.000097
1629	1.6199e+02	-7.5691	-57.488813	0.000264	2.635163	0.446409	0.000053
1630	1.6209e+02	-7.5494	-57.399996	0.000446	4.459506	0.755461	0.000089
1631	1.6219e+02	-7.5298	-57.319253	0.000405	4.054096	0.686782	0.000081
1632	1.6228e+02	-7.5105	-57.307142	0.000061	0.608114	0.103017	0.000012
1633	1.6238e+02	-7.4897	-57.206213	0.000507	5.067620	0.858478	0.000101
1634	1.6248e+02	-7.4692	-57.121434	0.000426	4.256801	0.721122	0.000085
1635	1.6258e+02	-7.4507	-57.024542	0.000486	4.864915	0.824139	0.000097
1636	1.6268e+02	-7.4312	-56.955911	0.000345	3.445982	0.583765	0.000069
1637	1.6278e+02	-7.4103	-56.927651	0.000142	1.418934	0.240374	0.000028
1638	1.6288e+02	-7.3898	-56.822686	0.000527	5.270325	0.892817	0.000105
1639	1.6298e+02	-7.3704	-56.733869	0.000446	4.459506	0.755461	0.000089
1640	1.6308e+02	-7.3511	-56.657163	0.000385	3.851391	0.652443	0.000077
1641	1.6318e+02	-7.3318	-56.568346	0.000446	4.459506	0.755461	0.000089
1642	1.6328e+02	-7.3104	-56.499715	0.000345	3.445982	0.583765	0.000069
1643	1.6338e+02	-7.2916	-56.455306	0.000223	2.229753	0.377730	0.000045
1644	1.6348e+02	-7.2701	-56.346303	0.000547	5.473030	0.927156	0.000110
1645	1.6358e+02	-7.2508	-56.225189	0.000608	6.081144	1.030174	0.000122
1646	1.6368e+02	-7.2308	-56.188855	0.000182	1.824343	0.309052	0.000037
1647	1.6378e+02	-7.2108	-56.079853	0.000547	5.473030	0.927156	0.000110
1648	1.6388e+02	-7.1921	-56.039481	0.000203	2.027048	0.343391	0.000041
1649	1.6398e+02	-7.1701	-55.966813	0.000365	3.648687	0.618104	0.000073
1650	1.6408e+02	-7.1509	-55.914330	0.000264	2.635163	0.446409	0.000053
1651	1.6418e+02	-7.1315	-55.785142	0.000649	6.486554	1.098852	0.000130
1652	1.6427e+02	-7.1112	-55.704399	0.000405	4.054096	0.686782	0.000081
1653	1.6437e+02	-7.0915	-55.619619	0.000426	4.256801	0.721122	0.000085
1654	1.6447e+02	-7.0717	-55.563099	0.000284	2.837867	0.480748	0.000057
1655	1.6457e+02	-7.0515	-55.526765	0.000182	1.824343	0.309052	0.000037
1656	1.6467e+02	-7.0316	-55.413725	0.000568	5.675735	0.961495	0.000114
1657	1.6477e+02	-7.0117	-55.320871	0.000466	4.662211	0.789800	0.000093
1658	1.6487e+02	-6.9925	-55.268388	0.000264	2.635163	0.446409	0.000053
1659	1.6497e+02	-6.9717	-55.215905	0.000264	2.635163	0.446409	0.000053
1660	1.6507e+02	-6.9530	-55.131126	0.000426	4.256801	0.721122	0.000085
1661	1.6517e+02	-6.9321	-55.018086	0.000568	5.675735	0.961495	0.000114
1662	1.6527e+02	-6.9122	-54.929269	0.000446	4.459506	0.755461	0.000089
1663	1.6537e+02	-6.8926	-54.836415	0.000466	4.662211	0.789800	0.000093
1664	1.6547e+02	-6.8721	-54.763746	0.000365	3.648687	0.618104	0.000073
1665	1.6557e+02	-6.8529	-54.703189	0.000304	3.040572	0.515087	0.000061
1666	1.6567e+02	-6.8330	-54.602261	0.000507	5.067620	0.858478	0.000101
1667	1.6577e+02	-6.8127	-54.525555	0.000385	3.851391	0.652443	0.000077
1668	1.6587e+02	-6.7922	-54.444813	0.000405	4.054096	0.686782	0.000081
1669	1.6597e+02	-6.7728	-54.388293	0.000284	2.837867	0.480748	0.000057
1670	1.6607e+02	-6.7525	-54.279290	0.000547	5.473030	0.927156	0.000110
1671	1.6616e+02	-6.7329	-54.202584	0.000385	3.851391	0.652443	0.000077
1672	1.6626e+02	-6.7133	-54.125879	0.000385	3.851391	0.652443	0.000077
1673	1.6636e+02	-6.6933	-54.033025	0.000466	4.662211	0.789800	0.000093
1674	1.6646e+02	-6.6736	-53.984579	0.000243	2.432458	0.412069	0.000049
1675	1.6656e+02	-6.6528	-53.835205	0.000750	7.500078	1.270548	0.000150
1676	1.6666e+02	-6.6330	-53.794834	0.000203	2.027048	0.343391	0.000041
1677	1.6676e+02	-6.6125	-53.685831	0.000547	5.473030	0.927156	0.000110
1678	1.6686e+02	-6.5941	-53.588940	0.000486	4.864915	0.824139	0.000097
1679	1.6696e+02	-6.5736	-53.524346	0.000324	3.243277	0.549426	0.000065
1680	1.6706e+02	-6.5532	-53.399194	0.000628	6.283849	1.064513	0.000126
1681	1.6716e+02	-6.5346	-53.338637	0.000304	3.040572	0.515087	0.000061
1682	1.6726e+02	-6.5137	-53.245783	0.000466	4.662211	0.789800	0.000093
1683	1.6736e+02	-6.4934	-53.181189	0.000324	3.243277	0.549426	0.000065
1684	1.6746e+02	-6.4734	-53.084298	0.000486	4.864915	0.824139	0.000097
1685	1.6756e+02	-6.4546	-52.999518	0.000426	4.256801	0.721122	0.000085
1686	1.6766e+02	-6.4337	-52.959147	0.000203	2.027048	0.343391	0.000041
1687	1.6776e+02	-6.4140	-52.797661	0.000811	8.108192	1.373565	0.000162
1688	1.6786e+02	-6.3940	-52.720956	0.000385	3.851391	0.652443	0.000077
1689	1.6796e+02	-6.3733	-52.636176	0.000426	4.256801	0.721122	0.000085
1690	1.6806e+02	-6.3541	-52.563507	0.000365	3.648687	0.618104	0.000073
1691	1.6816e+02	-6.3345	-52.454505	0.000547	5.473030	0.927156	0.000110
1692	1.6825e+02	-6.3145	-52.369725	0.000426	4.256801	0.721122	0.000085
1693	1.6835e+02	-6.2946	-52.293019	0.000385	3.851391	0.652443	0.000077
1694	1.6845e+02	-6.2740	-52.196128	0.000486	4.864915	0.824139	0.000097
1695	1.6855e+02	-6.2542	-52.079051	0.000588	5.878439	0.995835	0.000118
1696	1.6865e+02	-6.2349	-51.998308	0.000405	4.054096	0.686782	0.000081
1697	1.6875e+02	-6.2143	-51.982160	0.000081	0.810819	0.137356	0.000016
1698	1.6885e+02	-6.1954	-51.857009	0.000628	6.283849	1.064513	0.000126
1699	1.6895e+02	-6.1748	-51.760117	0.000486	4.864915	0.824139	0.000097
1700	1.6905e+02	-6.1560	-51.683412	0.000385	3.851391	0.652443	0.000077
1701	1.6915e+02	-6.1359	-51.558261	0.000628	6.283849	1.064513	0.000126
1702	1.6925e+02	-6.1147	-51.530001	0.000142	1.418934	0.240374	0.000028
1703	1.6935e+02	-6.0948	-51.392738	0.000689	6.891964	1.167530	0.000138
1704	1.6945e+02	-6.0753	-51.299884	0.000466	4.662211	0.789800	0.000093
1705	1.6955e+02	-6.0558	-51.186844	0.000568	5.675735	0.961495	0.000114
1706	1.6965e+02	-6.0355	-51.102064	0.000426	4.256801	0.721122	0.000085
1707	1.6975e+02	-6.0162	-51.045544	0.000284	2.837867	0.480748	0.000057
1708	1.6985e+02	-5.9969	-50.920393	0.000628	6.283849	1.064513	0.000126
1709	1.6995e+02	-5.9755	-50.855799	0.000324	3.243277	0.549426	0.000065
1710	1.7005e+02	-5.9561	-50.762945	0.000466	4.662211	0.789800	0.000093
1711	1.7015e+02	-5.9354	-50.694313	0.000345	3.445982	0.583765	0.000069
1712	1.7024e+02	-5.9171	-50.625682	0.000345	3.445982	0.583765	0.000069
1713	1.7034e+02	-5.8954	-50.464197	0.000811	8.108192	1.373565	0.000162
1714	1.7044e+02	-5.8762	-50.419788	0.000223	2.229753	0.377730	0.000045
1715	1.7054e+02	-5.8564	-50.302711	0.000588	5.878439	0.995835	0.000118
1716	1.7064e+02	-5.8369	-50.217931	0.000426	4.256801	0.721122	0.000085
1717	1.7074e+02	-5.8160	-50.125077	0.000466	4.662211	0.789800	0.000093
1718	1.7084e+02	-5.7967	-50.060483	0.000324	3.243277	0.549426	0.000065
1719	1.7094e+02	-5.7774	-49.915146	0.000730	7.297373	1.236208	0.000146
1720	1.7104e+02	-5.7561	-49.850552	0.000324	3.243277	0.549426	0.000065
1721	1.7114e+02	-5.7368	-49.773847	0.000385	3.851391	0.652443	0.000077
1722	1.7124e+02	-5.7160	-49.689067	0.000426	4.256801	0.721122	0.000085
1723	1.7134e+02	-5.6967	-49.571990	0.000588	5.878439	0.995835	0.000118
1724	1.7144e+02	-5.6776	-49.483173	0.000446	4.459506	0.755461	0.000089
1725	1.7154e+02	-5.6570	-49.378207	0.000527	5.270325	0.892817	0.000105
1726	1.7164e+02	-5.6369	-49.305539	0.000365	3.648687	0.618104	0.000073
1727	1.7174e+02	-5.6171	-49.156165	0.000750	7.500078	1.270548	0.000150
1728	1.7184e+02	-5.5963	-49.115793	0.000203	2.027048	0.343391	0.000041
1729	1.7194e+02	-5.5778	-48.990642	0.000628	6.283849	1.064513	0.000126
1730	1.7204e+02	-5.5582	-48.901825	0.000446	4.459506	0.755461	0.000089
1731	1.7213e+02	-5.5371	-48.817045	0.000426	4.256801	0.721122	0.000085
1732	1.7223e+02	-5.5172	-48.720154	0.000486	4.864915	0.824139	0.000097
1733	1.7233e+02	-5.4982	-48.603077	0.000588	5.878439	0.995835	0.000118
1734	1.7243e+02	-5.4771	-48.498112	0.000527	5.270325	0.892817	0.000105
1735	1.7253e+02	-5.4576	-48.421406	0.000385	3.851391	0.652443	0.000077
1736	1.7263e+02	-5.4376	-48.296255	0.000628	6.283849	1.064513	0.000126
1737	1.7273e+02	-5.4181	-48.251846	0.000223	2.229753	0.377730	0.000045
1738	1.7283e+02	-5.3976	-48.098435	0.000770	7.702783	1.304887	0.000154
1739	1.7293e+02	-5.3780	-48.021730	0.000385	3.851391	0.652443	0.000077
1740	1.7303e+02	-5.3581	-47.912727	0.000547	5.473030	0.927156	0.000110
1741	1.7313e+02	-5.3381	-47.856207	0.000284	2.837867	0.480748	0.000057
1742	1.7323e+02	-5.3186	-47.690684	0.000831	8.310897	1.407904	0.000166
1743	1.7333e+02	-5.2982	-47.589756	0.000507	5.067620	0.858478	0.000101
1744	1.7343e+02	-5.2783	-47.488828	0.000507	5.067620	0.858478	0.000101
1745	1.7353e+02	-5.2594	-47.424234	0.000324	3.243277	0.549426	0.000065
1746	1.7363e+02	-5.2388	-47.315231	0.000547	5.473030	0.927156	0.000110
1747	1.7373e+02	-5.2177	-47.234488	0.000405	4.054096	0.686782	0.000081
1748	1.7383e+02	-5.1986	-47.081077	0.000770	7.702783	1.304887	0.000154
1749	1.7393e+02	-5.1781	-47.036668	0.000223	2.229753	0.377730	0.000045
1750	1.7403e+02	-5.1596	-46.927666	0.000547	5.473030	0.927156	0.000110
1751	1.7413e+02	-5.1384	-46.830775	0.000486	4.864915	0.824139	0.000097
1752	1.7422e+02	-5.1190	-46.721772	0.000547	5.473030	0.927156	0.000110
1753	1.7432e+02	-5.0995	-46.624881	0.000486	4.864915	0.824139	0.000097
1754	1.7442e+02	-5.0790	-46.507804	0.000588	5.878439	0.995835	0.000118
1755	1.7452e+02	-5.0594	-46.406875	0.000507	5.067620	0.858478	0.000101
1756	1.7462e+02	-5.0391	-46.342281	0.000324	3.243277	0.549426	0.000065
1757	1.7472e+02	-5.0191	-46.196944	0.000730	7.297373	1.236208	0.000146
1758	1.7482e+02	-4.9996	-46.091979	0.000527	5.270325	0.892817	0.000105
1759	1.7492e+02	-4.9789	-46.035459	0.000284	2.837867	0.480748	0.000057
1760	1.7502e+02	-4.9603	-45.918382	0.000588	5.878439	0.995835	0.000118
1761	1.7512e+02	-4.9400	-45.805342	0.000568	5.675735	0.961495	0.000114
1762	1.7522e+02	-4.9197	-45.748822	0.000284	2.837867	0.480748	0.000057
1763	1.7532e+02	-4.9004	-45.619634	0.000649	6.486554	1.098852	0.000130
1764	1.7542e+02	-4.8801	-45.506594	0.000568	5.675735	0.961495	0.000114
1765	1.7552e+02	-4.8599	-45.377406	0.000649	6.486554	1.098852	0.000130
1766	1.7562e+02	-4.8396	-45.324923	0.000264	2.635163	0.446409	0.000053
1767	1.7572e+02	-4.8207	-45.179586	0.000730	7.297373	1.236208	0.000146
1768	1.7582e+02	-4.7993	-45.102880	0.000385	3.851391	0.652443	0.000077
1769	1.7592e+02	-4.7798	-44.957544	0.000730	7.297373	1.236208	0.000146
1770	1.7602e+02	-4.7603	-44.917172	0.000203	2.027048	0.343391	0.000041
1771	1.7612e+02	-4.7410	-44.792021	0.000628	6.283849	1.064513	0.000126
1772	1.7621e+02	-4.7210	-44.703204	0.000446	4.459506	0.755461	0.000089
1773	1.7631e+02	-4.7006	-44.594201	0.000547	5.473030	0.927156	0.000110
1774	1.7641e+02	-4.6815	-44.444827	0.000750	7.500078	1.270548	0.000150
1775	1.7651e+02	-4.6611	-44.307565	0.000689	6.891964	1.167530	0.000138
1776	1.7661e+02	-4.6417	-44.263156	0.000223	2.229753	0.377730	0.000045
1777	1.7671e+02	-4.6214	-44.113782	0.000750	7.500078	1.270548	0.000150
1778	1.7681e+02	-4.6017	-44.037077	0.000385	3.851391	0.652443	0.000077
1779	1.7691e+02	-4.5815	-43.956334	0.000405	4.054096	0.686782	0.000081
1780	1.7701e+02	-4.5612	-43.851368	0.000527	5.270325	0.892817	0.000105
1781	1.7711e+02	-4.5410	-43.742366	0.000547	5.473030	0.927156	0.000110
1782	1.7721e+02	-4.5218	-43.625289	0.000588	5.878439	0.995835	0.000118
1783	1.7731e+02	-4.5020	-43.548583	0.000385	3.851391	0.652443	0.000077
1784	1.7741e+02	-4.4822	-43.403246	0.000730	7.297373	1.236208	0.000146
1785	1.7751e+02	-4.4619	-43.302318	0.000507	5.067620	0.858478	0.000101
1786	1.7761e+02	-4.4421	-43.205427	0.000486	4.864915	0.824139	0.000097
1787	1.7771e+02	-4.4214	-43.108535	0.000486	4.864915	0.824139	0.000097
1788	1.7781e+02	-4.4025	-42.971273	0.000689	6.891964	1.167530	0.000138
1789	1.7791e+02	-4.3825	-42.870344	0.000507	5.067620	0.858478	0.000101
1790	1.7801e+02	-4.3620	-42.757305	0.000568	5.675735	0.961495	0.000114
1791	1.7810e+02	-4.3423	-42.696748	0.000304	3.040572	0.515087	0.000061
1792	1.7820e+02	-4.3218	-42.535262	0.000811	8.108192	1.373565	0.000162
1793	1.7830e+02	-4.3015	-42.446445	0.000446	4.459506	0.755461	0.000089
1794	1.7840e+02	-4.2828	-42.349554	0.000486	4.864915	0.824139	0.000097
1795	1.7850e+02	-4.2632	-42.216328	0.000669	6.689259	1.133191	0.000134
1796	1.7860e+02	-4.2437	-42.131549	0.000426	4.256801	0.721122	0.000085
1797	1.7870e+02	-4.2224	-42.050806	0.000405	4.054096	0.686782	0.000081
1798	1.7880e+02	-4.2043	-41.905469	0.000730	7.297373	1.236208	0.000146
1799	1.7890e+02	-4.1818	-41.812615	0.000466	4.662211	0.789800	0.000093
1800	1.7900e+02	-4.1631	-41.715724	0.000486	4.864915	0.824139	0.000097
1801	1.7910e+02	-4.1429	-41.594610	0.000608	6.081144	1.030174	0.000122
1802	1.7920e+02	-4.1237	-41.469458	0.000628	6.283849	1.064513	0.000126
1803	1.7930e+02	-4.1029	-41.360456	0.000547	5.473030	0.927156	0.000110
1804	1.7940e+02	-4.0825	-41.251453	0.000547	5.473030	0.927156	0.000110
1805	1.7950e+02	-4.0635	-41.146487	0.000527	5.270325	0.892817	0.000105
1806	1.7960e+02	-4.0438	-41.045559	0.000507	5.067620	0.858478	0.000101
1807	1.7970e+02	-4.0237	-40.900222	0.000730	7.297373	1.236208	0.000146
1808	1.7980e+02	-4.0038	-40.835628	0.000324	3.243277	0.549426	0.000065
1809	1.7990e+02	-3.9837	-40.714514	0.000608	6.081144	1.030174	0.000122
1810	1.8000e+02	-3.9645	-40.573214	0.000709	7.094668	1.201869	0.000142
1811	1.8009e+02	-3.9441	-40.464212	0.000547	5.473030	0.927156	0.000110
1812	1.8019e+02	-3.9238	-40.399617	0.000324	3.243277	0.549426	0.000065
1813	1.8029e+02	-3.9041	-40.302726	0.000486	4.864915	0.824139	0.000097
1814	1.8039e+02	-3.8835	-40.169501	0.000669	6.689259	1.133191	0.000134
1815	1.8049e+02	-3.8635	-40.040312	0.000649	6.486554	1.098852	0.000130
1816	1.8059e+02	-3.8436	-39.911124	0.000649	6.486554	1.098852	0.000130
1817	1.8069e+02	-3.8231	-39.834418	0.000385	3.851391	0.652443	0.000077
1818	1.8079e+02	-3.8033	-39.705230	0.000649	6.486554	1.098852	0.000130
1819	1.8089e+02	-3.7839	-39.636599	0.000345	3.445982	0.583765	0.000069
1820	1.8099e+02	-3.7653	-39.515485	0.000608	6.081144	1.030174	0.000122
1821	1.8109e+02	-3.7447	-39.382259	0.000669	6.689259	1.133191	0.000134
1822	1.8119e+02	-3.7246	-39.269219	0.000568	5.675735	0.961495	0.000114
1823	1.8129e+02	-3.7047	-39.156180	0.000568	5.675735	0.961495	0.000114
1824	1.8139e+02	-3.6845	-39.071400	0.000426	4.256801	0.721122	0.000085
1825	1.8149e+02	-3.6656	-38.934137	0.000689	6.891964	1.167530	0.000138
1826	1.8159e+02	-3.6449	-38.873580	0.000304	3.040572	0.515087	0.000061
1827	1.8169e+02	-3.6250	-38.732280	0.000709	7.094668	1.201869	0.000142
1828	1.8179e+02	-3.6050	-38.639426	0.000466	4.662211	0.789800	0.000093
1829	1.8189e+02	-3.5857	-38.510238	0.000649	6.486554	1.098852	0.000130
1830	1.8199e+02	-3.5649	-38.389124	0.000608	6.081144	1.030174	0.000122
1831	1.8209e+02	-3.5455	-38.276084	0.000568	5.675735	0.961495	0.000114
1832	1.8218e+02	-3.5252	-38.191304	0.000426	4.256801	0.721122	0.000085
1833	1.8228e+02	-3.5049	-38.062116	0.000649	6.486554	1.098852	0.000130
1834	1.8238e+02	-3.4859	-37.965224	0.000486	4.864915	0.824139	0.000097
1835	1.8248e+02	-3.4651	-37.844110	0.000608	6.081144	1.030174	0.000122
1836	1.8258e+02	-3.4457	-37.739145	0.000527	5.270325	0.892817	0.000105
1837	1.8268e+02	-3.4261	-37.589771	0.000750	7.500078	1.270548	0.000150
1838	1.8278e+02	-3.4068	-37.500954	0.000446	4.459506	0.755461	0.000089
1839	1.8288e+02	-3.3862	-37.383877	0.000588	5.878439	0.995835	0.000118
1840	1.8298e+02	-3.3664	-37.278911	0.000527	5.270325	0.892817	0.000105
1841	1.8308e+02	-3.3455	-37.173946	0.000527	5.270325	0.892817	0.000105
1842	1.8318e+02	-3.3258	-37.048795	0.000628	6.283849	1.064513	0.000126
1843	1.8328e+02	-3.3060	-36.907495	0.000709	7.094668	1.201869	0.000142
1844	1.8338e+02	-3.2861	-36.798492	0.000547	5.473030	0.927156	0.000110
1845	1.8348e+02	-3.2658	-36.693527	0.000527	5.270325	0.892817	0.000105
1846	1.8358e+02	-3.2470	-36.604710	0.000446	4.459506	0.755461	0.000089
1847	1.8368e+02	-3.2268	-36.451299	0.000770	7.702783	1.304887	0.000154
1848	1.8378e+02	-3.2057	-36.322110	0.000649	6.486554	1.098852	0.000130
1849	1.8388e+02	-3.1860	-36.217145	0.000527	5.270325	0.892817	0.000105
1850	1.8398e+02	-3.1673	-36.132365	0.000426	4.256801	0.721122	0.000085
1851	1.8407e+02	-3.1467	-35.987028	0.000730	7.297373	1.236208	0.000146
1852	1.8417e+02	-3.1258	-35.890137	0.000486	4.864915	0.824139	0.000097
1853	1.8427e+02	-3.1064	-35.781134	0.000547	5.473030	0.927156	0.000110
1854	1.8437e+02	-3.0868	-35.692317	0.000446	4.459506	0.755461	0.000089
1855	1.8447e+02	-3.0675	-35.546980	0.000730	7.297373	1.236208	0.000146
1856	1.8457e+02	-3.0468	-35.442015	0.000527	5.270325	0.892817	0.000105
1857	1.8467e+02	-3.0275	-35.300715	0.000709	7.094668	1.201869	0.000142
1858	1.8477e+02	-3.0073	-35.159415	0.000709	7.094668	1.201869	0.000142
1859	1.8487e+02	-2.9866	-35.086747	0.000365	3.648687	0.618104	0.000073
1860	1.8497e+02	-2.9680	-34.969670	0.000588	5.878439	0.995835	0.000118
1861	1.8507e+02	-2.9477	-34.832407	0.000689	6.891964	1.167530	0.000138
1862	1.8517e+02	-2.9279	-34.771850	0.000304	3.040572	0.515087	0.000061
1863	1.8527e+02	-2.9074	-34.586142	0.000932	9.324421	1.579600	0.000187
1864	1.8537e+02	-2.8873	-34.493288	0.000466	4.662211	0.789800	0.000093
1865	1.8547e+02	-2.8679	-34.323728	0.000851	8.513602	1.442243	0.000170
1866	1.8557e+02	-2.8477	-34.202614	0.000608	6.081144	1.030174	0.000122
1867	1.8567e+02	-2.8279	-34.154168	0.000243	2.432458	0.412069	0.000049
1868	1.8577e+02	-2.8079	-34.016906	0.000689	6.891964	1.167530	0.000138
1869	1.8587e+02	-2.7883	-33.920014	0.000486	4.864915	0.824139	0.000097
1870	1.8597e+02	-2.7692	-33.794863	0.000628	6.283849	1.064513	0.000126
1871	1.8606e+02	-2.7468	-33.677786	0.000588	5.878439	0.995835	0.000118
1872	1.8616e+02	-2.7284	-33.532449	0.000730	7.297373	1.236208	0.000146
1873	1.8626e+02	-2.7075	-33.407298	0.000628	6.283849	1.064513	0.000126
1874	1.8636e+02	-2.6881	-33.310407	0.000486	4.864915	0.824139	0.000097
1875	1.8646e+02	-2.6688	-33.165070	0.000730	7.297373	1.236208	0.000146
1876	1.8656e+02	-2.6476	-33.039919	0.000628	6.283849	1.064513	0.000126
1877	1.8666e+02	-2.6294	-32.963213	0.000385	3.851391	0.652443	0.000077
1878	1.8676e+02	-2.6089	-32.834025	0.000649	6.486554	1.098852	0.000130
1879	1.8686e+02	-2.5889	-32.741171	0.000466	4.662211	0.789800	0.000093
1880	1.8696e+02	-2.5694	-32.587760	0.000770	7.702783	1.304887	0.000154
1881	1.8706e+02	-2.5488	-32.470683	0.000588	5.878439	0.995835	0.000118
1882	1.8716e+02	-2.5285	-32.369754	0.000507	5.067620	0.858478	0.000101
1883	1.8726e+02	-2.5099	-32.220380	0.000750	7.500078	1.270548	0.000150
1884	1.8736e+02	-2.4895	-32.127526	0.000466	4.662211	0.789800	0.000093
1885	1.8746e+02	-2.4692	-31.994301	0.000669	6.689259	1.133191	0.000134
1886	1.8756e+02	-2.4506	-31.893372	0.000507	5.067620	0.858478	0.000101
1887	1.8766e+02	-2.4294	-31.776295	0.000588	5.878439	0.995835	0.000118
1888	1.8776e+02	-2.4098	-31.663256	0.000568	5.675735	0.961495	0.000114
1889	1.8786e+02	-2.3902	-31.525993	0.000689	6.891964	1.167530	0.000138
1890	1.8796e+02	-2.3696	-31.408916	0.000588	5.878439	0.995835	0.000118
1891	1.8806e+02	-2.3494	-31.263579	0.000730	7.297373	1.236208	0.000146
1892	1.8815e+02	-2.3297	-31.170725	0.000466	4.662211	0.789800	0.000093
1893	1.8825e+02	-2.3099	-31.065760	0.000527	5.270325	0.892817	0.000105
1894	1.8835e+02	-2.2903	-30.912348	0.000770	7.702783	1.304887	0.000154
1895	1.8845e+02	-2.2694	-30.823531	0.000446	4.459506	0.755461	0.000089
1896	1.8855e+02	-2.2510	-30.702417	0.000608	6.081144	1.030174	0.000122
1897	1.8865e+02	-2.2304	-30.557080	0.000730	7.297373	1.236208	0.000146
1898	1.8875e+02	-2.2109	-30.440003	0.000588	5.878439	0.995835	0.000118
1899	1.8885e+02	-2.1925	-30.294667	0.000730	7.297373	1.236208	0.000146
1900	1.8895e+02	-2.1713	-30.173553	0.000608	6.081144	1.030174	0.000122
1901	1.8905e+02	-2.1515	-30.072624	0.000507	5.067620	0.858478	0.000101
1902	1.8915e+02	-2.1307	-29.943436	0.000649	6.486554	1.098852	0.000130
1903	1.8925e+02	-2.1112	-29.826359	0.000588	5.878439	0.995835	0.000118
1904	1.8935e+02	-2.0912	-29.713319	0.000568	5.675735	0.961495	0.000114
1905	1.8945e+02	-2.0712	-29.555871	0.000791	7.905488	1.339226	0.000158
1906	1.8955e+02	-2.0512	-29.463017	0.000466	4.662211	0.789800	0.000093
1907	1.8965e+02	-2.0309	-29.337865	0.000628	6.283849	1.064513	0.000126
1908	1.8975e+02	-2.0121	-29.172343	0.000831	8.310897	1.407904	0.000166
1909	1.8985e+02	-1.9918	-29.079489	0.000466	4.662211	0.789800	0.000093
1910	1.8995e+02	-1.9719	-28.974523	0.000527	5.270325	0.892817	0.000105
1911	1.9004e+02	-1.9516	-28.829186	0.000730	7.297373	1.236208	0.000146
1912	1.9014e+02	-1.9330	-28.704035	0.000628	6.283849	1.064513	0.000126
1913	1.9024e+02	-1.9113	-28.562735	0.000709	7.094668	1.201869	0.000142
1914	1.9034e+02	-1.8917	-28.465844	0.000486	4.864915	0.824139	0.000097
1915	1.9044e+02	-1.8718	-28.320507	0.000730	7.297373	1.236208	0.000146
1916	1.9054e+02	-1.8517	-28.191319	0.000649	6.486554	1.098852	0.000130
1917	1.9064e+02	-1.8323	-28.078279	0.000568	5.675735	0.961495	0.000114
1918	1.9074e+02	-1.8130	-27.981388	0.000486	4.864915	0.824139	0.000097
1919	1.9084e+02	-1.7918	-27.856237	0.000628	6.283849	1.064513	0.000126
1920	1.9094e+02	-1.7723	-27.678603	0.000892	8.919012	1.510921	0.000179
1921	1.9104e+02	-1.7515	-27.593823	0.000426	4.256801	0.721122	0.000085
1922	1.9114e+02	-1.7331	-27.448486	0.000730	7.297373	1.236208	0.000146
1923	1.9124e+02	-1.7123	-27.327372	0.000608	6.081144	1.030174	0.000122
1924	1.9134e+02	-1.6919	-27.222406	0.000527	5.270325	0.892817	0.000105
1925	1.9144e+02	-1.6726	-27.089181	0.000669	6.689259	1.133191	0.000134
1926	1.9154e+02	-1.6531	-26.931733	0.000791	7.905488	1.339226	0.000158
1927	1.9164e+02	-1.6328	-26.842916	0.000446	4.459506	0.755461	0.000089
1928	1.9174e+02	-1.6131	-26.681430	0.000811	8.108192	1.373565	0.000162
1929	1.9184e+02	-1.5928	-26.572427	0.000547	5.473030	0.927156	0.000110
1930	1.9194e+02	-1.5730	-26.475536	0.000486	4.864915	0.824139	0.000097
1931	1.9203e+02	-1.5524	-26.386719	0.000446	4.459506	0.755461	0.000089
1932	1.9213e+02	-1.5332	-26.225234	0.000811	8.108192	1.373565	0.000162
1933	1.9223e+02	-1.5131	-26.071823	0.000770	7.702783	1.304887	0.000154
1934	1.9233e+02	-1.4928	-25.938597	0.000669	6.689259	1.133191	0.000134
1935	1.9243e+02	-1.4732	-25.841706	0.000486	4.864915	0.824139	0.000097
1936	1.9253e+02	-1.4531	-25.716555	0.000628	6.283849	1.064513	0.000126
1937	1.9263e+02	-1.4340	-25.555069	0.000811	8.108192	1.373565	0.000162
1938	1.9273e+02	-1.4130	-25.450104	0.000527	5.270325	0.892817	0.000105
1939	1.9283e+02	-1.3933	-25.304767	0.000730	7.297373	1.236208	0.000146
1940	1.9293e+02	-1.3744	-25.224024	0.000405	4.054096	0.686782	0.000081
1941	1.9303e+02	-1.3537	-25.054464	0.000851	8.513602	1.442243	0.000170
1942	1.9313e+02	-1.3344	-24.945462	0.000547	5.473030	0.927156	0.000110
1943	1.9323e+02	-1.3137	-24.816273	0.000649	6.486554	1.098852	0.000130
1944	1.9333e+02	-1.2943	-24.674974	0.000709	7.094668	1.201869	0.000142
1945	1.9343e+02	-1.2746	-24.574045	0.000507	5.067620	0.858478	0.000101
1946	1.9353e+02	-1.2545	-24.440820	0.000669	6.689259	1.133191	0.000134
1947	1.9363e+02	-1.2345	-24.311631	0.000649	6.486554	1.098852	0.000130
1948	1.9373e+02	-1.2148	-24.146109	0.000831	8.310897	1.407904	0.000166
1949	1.9383e+02	-1.1944	-24.061329	0.000426	4.256801	0.721122	0.000085
1950	1.9393e+02	-1.1746	-23.924066	0.000689	6.891964	1.167530	0.000138
1951	1.9403e+02	-1.1551	-23.815064	0.000547	5.473030	0.927156	0.000110
1952	1.9412e+02	-1.1346	-23.685875	0.000649	6.486554	1.098852	0.000130
1953	1.9422e+02	-1.1151	-23.584947	0.000507	5.067620	0.858478	0.000101
1954	1.9432e+02	-1.0954	-23.411350	0.000872	8.716307	1.476582	0.000174
1955	1.9442e+02	-1.0755	-23.290236	0.000608	6.081144	1.030174	0.000122
1956	1.9452e+02	-1.0557	-23.157011	0.000669	6.689259	1.133191	0.000134
1957	1.9462e+02	-1.0353	-23.060119	0.000486	4.864915	0.824139	0.000097
1958	1.9472e+02	-1.0158	-22.910745	0.000750	7.500078	1.270548	0.000150
1959	1.9482e+02	-0.9953	-22.801743	0.000547	5.473030	0.927156	0.000110
1960	1.9492e+02	-0.9756	-22.700814	0.000507	5.067620	0.858478	0.000101
1961	1.9502e+02	-0.9553	-22.543366	0.000791	7.905488	1.339226	0.000158
1962	1.9512e+02	-0.9364	-22.377843	0.000831	8.310897	1.407904	0.000166
1963	1.9522e+02	-0.9155	-22.272878	0.000527	5.270325	0.892817	0.000105
1964	1.9532e+02	-0.8960	-22.151764	0.000608	6.081144	1.030174	0.000122
1965	1.9542e+02	-0.8760	-22.030650	0.000608	6.081144	1.030174	0.000122
1966	1.9552e+02	-0.8570	-21.897424	0.000669	6.689259	1.133191	0.000134
1967	1.9562e+02	-0.8361	-21.735939	0.000811	8.108192	1.373565	0.000162
1968	1.9572e+02	-0.8160	-21.606750	0.000649	6.486554	1.098852	0.000130
1969	1.9582e+02	-0.7956	-21.481599	0.000628	6.283849	1.064513	0.000126
1970	1.9592e+02	-0.7767	-21.360485	0.000608	6.081144	1.030174	0.000122
1971	1.9601e+02	-0.7556	-21.263594	0.000486	4.864915	0.824139	0.000097
1972	1.9611e+02	-0.7377	-21.114220	0.000750	7.500078	1.270548	0.000150
1973	1.9621e+02	-0.7172	-20.985032	0.000649	6.486554	1.098852	0.000130
1974	1.9631e+02	-0.6963	-20.855843	0.000649	6.486554	1.098852	0.000130
1975	1.9641e+02	-0.6761	-20.746841	0.000547	5.473030	0.927156	0.000110
1976	1.9651e+02	-0.6564	-20.581318	0.000831	8.310897	1.407904	0.000166
1977	1.9661e+02	-0.6367	-20.464241	0.000588	5.878439	0.995835	0.000118
1978	1.9671e+02	-0.6164	-20.322941	0.000709	7.094668	1.201869	0.000142
1979	1.9681e+02	-0.5972	-20.230087	0.000466	4.662211	0.789800	0.000093
1980	1.9691e+02	-0.5765	-20.080713	0.000750	7.500078	1.270548	0.000150
1981	1.9701e+02	-0.5562	-19.931339	0.000750	7.500078	1.270548	0.000150
1982	1.9711e+02	-0.5381	-19.810225	0.000608	6.081144	1.030174	0.000122
1983	1.9721e+02	-0.5175	-19.693148	0.000588	5.878439	0.995835	0.000118
1984	1.9731e+02	-0.4973	-19.547811	0.000730	7.297373	1.236208	0.000146
1985	1.9741e+02	-0.4764	-19.446883	0.000507	5.067620	0.858478	0.000101
1986	1.9751e+02	-0.4581	-19.309620	0.000689	6.891964	1.167530	0.000138
1987	1.9761e+02	-0.4373	-19.168320	0.000709	7.094668	1.201869	0.000142
1988	1.9771e+02	-0.4172	-19.067392	0.000507	5.067620	0.858478	0.000101
1989	1.9781e+02	-0.3973	-18.934167	0.000669	6.689259	1.133191	0.000134
1990	1.9791e+02	-0.3779	-18.784793	0.000750	7.500078	1.270548	0.000150
1991	1.9800e+02	-0.3576	-18.695976	0.000446	4.459506	0.755461	0.000089
1992	1.9810e+02	-0.3380	-18.542564	0.000770	7.702783	1.304887	0.000154
1993	1.9820e+02	-0.3174	-18.465859	0.000385	3.851391	0.652443	0.000077
1994	1.9830e+02	-0.2979	-18.296299	0.000851	8.513602	1.442243	0.000170
1995	1.9840e+02	-0.2777	-18.199408	0.000486	4.864915	0.824139	0.000097
1996	1.9850e+02	-0.2575	-18.041960	0.000791	7.905488	1.339226	0.000158
1997	1.9860e+02	-0.2390	-17.928920	0.000568	5.675735	0.961495	0.000114
1998	1.9870e+02	-0.2186	-17.791657	0.000689	6.891964	1.167530	0.000138
1999	1.9880e+02	-0.1990	-17.666506	0.000628	6.283849	1.064513	0.000126
2000	1.9890e+02	-0.1793	-17.549429	0.000588	5.878439	0.995835	0.000118
2001	1.9900e+02	-0.1580	-17.424278	0.000628	6.283849	1.064513	0.000126
2002	1.9910e+02	-0.1383	-17.266830	0.000791	7.905488	1.339226	0.000158
2003	1.9920e+02	-0.1193	-17.153790	0.000568	5.675735	0.961495	0.000114
2004	1.9930e+02	-0.0992	-17.020564	0.000669	6.689259	1.133191	0.000134
2005	1.9940e+02	-0.0783	-16.915599	0.000527	5.270325	0.892817	0.000105
2006	1.9950e+02	-0.0603	-16.766225	0.000750	7.500078	1.270548	0.000150
2007	1.9960e+02	-0.0385	-16.677408	0.000446	4.459506	0.755461	0.000089
2008	1.9970e+02	-0.0188	-16.491699	0.000932	9.324421	1.579600	0.000187
2009	1.9980e+02	-0.0001	-16.370585	0.000932	9.324421	1.579600	0.000122

Smooth data before PMax, +/-Pr and +/-Vc Calc.

PMax (uC/cm2):	5.41e+01
Pr (uC/cm2):	3.03e+00
-Pr (uC/cm2):	-2.45e+01
PLoss (uC/cm2):	-2.45e+01
-Vc:	-4.59e-01
C (Max-Eff) (nF):	5.41e-01
K (Eff):	9.16e+02
Vert. (+/-Pr) Shift (uC/cm2):	-1.07e+01
Offset (uC/cm2):	-8.07e+00

A (Loop Area - uC/cm2·Volts):	-3.11e-02



Hysteresis Version: 5.48.1 - Radiant Technologies, Inc., 1999 - 9/12/24

