»»»»»»»»»»»»»»»»»»»»»»»»»»»»»»»»»»»» Hysteresis ««««««««««««««««««««««««««««««««««««
»»»  Executed Version:	5.48.1
»»»  Vision Version:	5.48.4 (R)
»»»  Vision Compiled:	9/18/24
»»»  Driver Version:	5.47.0
»»»  Windows Version:	Windows 8 or 8.1
»»»  Processor Information:	x86 (AMD or Intel) - 32 Processors
»»»  Tester Name:	PMF21124-494 (100V)
»»»  Tester S/N:	PMF21124-494
»»»  Internal Amp Type:	100V RevK 270k
»»»  Internal Amp S/N:	iAB2-596/K     
»»»  Execution Count:	1
»»»»»»»»»»»»»»»»»»»»»»»»»»»»»»»»»»»»»»»»»»««««««««««««««««««««««««««««««««««««««««««

Stored:	7/10/2025 - 13:34:41
Configured:	07/10/25 01:31:25 PM
Executed:	07/10/25 01:34:13 PM

»»»»»»»»»»»»»»»»»»»»»»»»»»»»»»»»»»» Sample Info ««««««««««««««««««««««««««««««««««««
Sample Name:	
Lot Name:	
Wafer Name:	
Die Row/Column:	0/0
Capacitor Number:	0
Sample Area (cm2):	1.00e-04
Sample Thickness (microns):	1.50e-01

Amplifier:	Internal

»»»»»»»»»»»»»»»»»»»»»»»»»»»»»»»»»»» Tester Info «««««««««««««««««««««««««««««««««««
Tester Name:	PMF21124-494 (100V)
Tester Serial Number:	PMF21124-494
Return Signal Amp. Level:	0.19 [Index: 3]

»»»»»»»»»»»»»»»»»»»»»»»»»»»»»»»» Hysteresis Info ««««««««««««««««««««««««««««««««««
Task Name:	Hyst-3361
Volts:	10.00
Field:	666.67 (kV/cm)
DCBias:	0.00
DCField:	0.00 (kV/cm)
Hysteresis Period (ms):	2.00e+02
Preset:	Enabled
Preset Delay (ms):	1.00e+03
Profile:	Standard Bipolar

»»»»»»»»»»»»»»»»»»»»»»»»»»»»»»»»»»»»»» Data «««««««««««««««««««««««««««««««««««««««
Points:	2009

Valid Data

Point	Time (ms)	Drive Voltage	Measured Polarization (uC/cm2)	Capacitance (uF)	Normalized Capacitance (uF/cm2)	Dielectric Constant	Instantaneous Current (mA)
   1	0.0000e+00	0.0020	10.161471	0.000811	8.106677	1.373308	0.000162
   2	9.9500e-02	0.0211	10.322956	0.000811	8.106677	1.373308	0.000162
   3	1.9900e-01	0.0413	10.423884	0.000507	5.066673	0.858318	0.000101
   4	2.9850e-01	0.0604	10.565184	0.000709	7.093342	1.201645	0.000142
   5	3.9800e-01	0.0806	10.690335	0.000628	6.282675	1.064314	0.000126
   6	4.9750e-01	0.1018	10.843747	0.000770	7.701343	1.304643	0.000154
   7	5.9700e-01	0.1207	10.960824	0.000588	5.877341	0.995648	0.000118
   8	6.9650e-01	0.1405	11.061752	0.000507	5.066673	0.858318	0.000101
   9	7.9600e-01	0.1612	11.203052	0.000709	7.093342	1.201645	0.000142
  10	8.9550e-01	0.1803	11.344351	0.000709	7.093342	1.201645	0.000142
  11	9.9500e-01	0.2000	11.445280	0.000507	5.066673	0.858318	0.000101
  12	1.0945e+00	0.2209	11.558320	0.000567	5.674674	0.961316	0.000114
  13	1.1940e+00	0.2408	11.683471	0.000628	6.282675	1.064314	0.000126
  14	1.2935e+00	0.2599	11.873216	0.000953	9.525345	1.613637	0.000191
  15	1.3930e+00	0.2793	11.970107	0.000486	4.864006	0.823985	0.000097
  16	1.4925e+00	0.3006	12.111407	0.000709	7.093342	1.201645	0.000142
  17	1.5920e+00	0.3200	12.220410	0.000547	5.472007	0.926983	0.000110
  18	1.6915e+00	0.3407	12.377858	0.000790	7.904010	1.338976	0.000158
  19	1.7910e+00	0.3596	12.498972	0.000608	6.080008	1.029981	0.000122
  20	1.8905e+00	0.3804	12.640272	0.000709	7.093342	1.201645	0.000142
  21	1.9900e+00	0.4004	12.757349	0.000588	5.877341	0.995648	0.000118
  22	2.0895e+00	0.4199	12.902686	0.000730	7.296009	1.235977	0.000146
  23	2.1890e+00	0.4400	13.068208	0.000831	8.309344	1.407641	0.000166
  24	2.2885e+00	0.4592	13.157025	0.000446	4.458672	0.755320	0.000089
  25	2.3880e+00	0.4801	13.298325	0.000709	7.093342	1.201645	0.000142
  26	2.4875e+00	0.5013	13.431551	0.000669	6.688008	1.132979	0.000134
  27	2.5870e+00	0.5193	13.548628	0.000588	5.877341	0.995648	0.000118
  28	2.6865e+00	0.5399	13.698002	0.000750	7.498676	1.270310	0.000150
  29	2.7860e+00	0.5606	13.827190	0.000649	6.485341	1.098647	0.000130
  30	2.8855e+00	0.5807	13.944267	0.000588	5.877341	0.995648	0.000118
  31	2.9850e+00	0.5994	14.057307	0.000567	5.674674	0.961316	0.000114
  32	3.0845e+00	0.6195	14.234941	0.000892	8.917344	1.510639	0.000179
  33	3.1840e+00	0.6394	14.360092	0.000628	6.282675	1.064314	0.000126
  34	3.2835e+00	0.6593	14.481206	0.000608	6.080008	1.029981	0.000122
  35	3.3830e+00	0.6798	14.642691	0.000811	8.106677	1.373308	0.000162
  36	3.4825e+00	0.6992	14.747657	0.000527	5.269340	0.892650	0.000105
  37	3.5820e+00	0.7195	14.868771	0.000608	6.080008	1.029981	0.000122
  38	3.6815e+00	0.7381	15.018145	0.000750	7.498676	1.270310	0.000150
  39	3.7810e+00	0.7588	15.127148	0.000547	5.472007	0.926983	0.000110
  40	3.8805e+00	0.7796	15.272484	0.000730	7.296009	1.235977	0.000146
  41	3.9800e+00	0.7983	15.429933	0.000790	7.904010	1.338976	0.000158
  42	4.0795e+00	0.8187	15.530861	0.000507	5.066673	0.858318	0.000101
  43	4.1790e+00	0.8395	15.696384	0.000831	8.309344	1.407641	0.000166
  44	4.2785e+00	0.8578	15.797312	0.000507	5.066673	0.858318	0.000101
  45	4.3780e+00	0.8787	15.950723	0.000770	7.701343	1.304643	0.000154
  46	4.4775e+00	0.8990	16.104134	0.000770	7.701343	1.304643	0.000154
  47	4.5770e+00	0.9196	16.209100	0.000527	5.269340	0.892650	0.000105
  48	4.6765e+00	0.9383	16.346363	0.000689	6.890675	1.167312	0.000138
  49	4.7760e+00	0.9572	16.451328	0.000527	5.269340	0.892650	0.000105
  50	4.8755e+00	0.9791	16.653185	0.001013	10.133346	1.716635	0.000203
  51	4.9750e+00	0.9981	16.750076	0.000486	4.864006	0.823985	0.000097
  52	5.0745e+00	1.0174	16.927710	0.000892	8.917344	1.510639	0.000179
  53	5.1740e+00	1.0381	17.020564	0.000466	4.661339	0.789652	0.000093
  54	5.2735e+00	1.0574	17.137641	0.000588	5.877341	0.995648	0.000118
  55	5.3730e+00	1.0778	17.331424	0.000973	9.728012	1.647970	0.000195
  56	5.4725e+00	1.0983	17.448501	0.000588	5.877341	0.995648	0.000118
  57	5.5720e+00	1.1182	17.581726	0.000669	6.688008	1.132979	0.000134
  58	5.6715e+00	1.1376	17.674580	0.000466	4.661339	0.789652	0.000093
  59	5.7710e+00	1.1575	17.836066	0.000811	8.106677	1.373308	0.000162
  60	5.8705e+00	1.1772	17.981403	0.000730	7.296009	1.235977	0.000146
  61	5.9700e+00	1.1973	18.142888	0.000811	8.106677	1.373308	0.000162
  62	6.0695e+00	1.2171	18.215556	0.000365	3.648005	0.617989	0.000073
  63	6.1690e+00	1.2383	18.381079	0.000831	8.309344	1.407641	0.000166
  64	6.2685e+00	1.2572	18.506230	0.000628	6.282675	1.064314	0.000126
  65	6.3680e+00	1.2766	18.611196	0.000527	5.269340	0.892650	0.000105
  66	6.4675e+00	1.2966	18.732310	0.000608	6.080008	1.029981	0.000122
  67	6.5670e+00	1.3158	18.877647	0.000730	7.296009	1.235977	0.000146
  68	6.6665e+00	1.3367	19.063355	0.000932	9.322678	1.579304	0.000187
  69	6.7660e+00	1.3563	19.176395	0.000567	5.674674	0.961316	0.000114
  70	6.8655e+00	1.3756	19.293472	0.000588	5.877341	0.995648	0.000118
  71	6.9650e+00	1.3965	19.450920	0.000790	7.904010	1.338976	0.000158
  72	7.0645e+00	1.4162	19.555886	0.000527	5.269340	0.892650	0.000105
  73	7.1640e+00	1.4362	19.664888	0.000547	5.472007	0.926983	0.000110
  74	7.2635e+00	1.4561	19.838485	0.000871	8.714678	1.476306	0.000174
  75	7.3630e+00	1.4754	19.967673	0.000649	6.485341	1.098647	0.000130
  76	7.4625e+00	1.4953	20.096862	0.000649	6.485341	1.098647	0.000130
  77	7.5620e+00	1.5157	20.246236	0.000750	7.498676	1.270310	0.000150
  78	7.6615e+00	1.5355	20.367350	0.000608	6.080008	1.029981	0.000122
  79	7.7610e+00	1.5554	20.492501	0.000628	6.282675	1.064314	0.000126
  80	7.8605e+00	1.5752	20.589392	0.000486	4.864006	0.823985	0.000097
  81	7.9600e+00	1.5957	20.779138	0.000953	9.525345	1.613637	0.000191
  82	8.0595e+00	1.6152	20.908326	0.000649	6.485341	1.098647	0.000130
  83	8.1590e+00	1.6348	21.021366	0.000567	5.674674	0.961316	0.000114
  84	8.2585e+00	1.6555	21.166703	0.000730	7.296009	1.235977	0.000146
  85	8.3580e+00	1.6753	21.291854	0.000628	6.282675	1.064314	0.000126
  86	8.4575e+00	1.6948	21.485636	0.000973	9.728012	1.647970	0.000195
  87	8.5570e+00	1.7150	21.590602	0.000527	5.269340	0.892650	0.000105
  88	8.6565e+00	1.7345	21.727865	0.000689	6.890675	1.167312	0.000138
  89	8.7560e+00	1.7549	21.836867	0.000547	5.472007	0.926983	0.000110
  90	8.8555e+00	1.7740	21.990278	0.000770	7.701343	1.304643	0.000154
  91	8.9550e+00	1.7944	22.107355	0.000588	5.877341	0.995648	0.000118
  92	9.0545e+00	1.8151	22.248655	0.000709	7.093342	1.201645	0.000142
  93	9.1540e+00	1.8359	22.438400	0.000953	9.525345	1.613637	0.000191
  94	9.2535e+00	1.8548	22.567589	0.000649	6.485341	1.098647	0.000130
  95	9.3530e+00	1.8740	22.692740	0.000628	6.282675	1.064314	0.000126
  96	9.4525e+00	1.8946	22.834040	0.000709	7.093342	1.201645	0.000142
  97	9.5520e+00	1.9140	22.999562	0.000831	8.309344	1.407641	0.000166
  98	9.6515e+00	1.9335	23.112602	0.000567	5.674674	0.961316	0.000114
  99	9.7510e+00	1.9545	23.253902	0.000709	7.093342	1.201645	0.000142
 100	9.8505e+00	1.9732	23.399239	0.000730	7.296009	1.235977	0.000146
 101	9.9500e+00	1.9930	23.516316	0.000588	5.877341	0.995648	0.000118
 102	1.0050e+01	2.0138	23.689913	0.000871	8.714678	1.476306	0.000174
 103	1.0149e+01	2.0342	23.819101	0.000649	6.485341	1.098647	0.000130
 104	1.0248e+01	2.0546	23.956363	0.000689	6.890675	1.167312	0.000138
 105	1.0348e+01	2.0733	24.069403	0.000567	5.674674	0.961316	0.000114
 106	1.0447e+01	2.0937	24.218777	0.000750	7.498676	1.270310	0.000150
 107	1.0547e+01	2.1137	24.356040	0.000689	6.890675	1.167312	0.000138
 108	1.0646e+01	2.1337	24.481191	0.000628	6.282675	1.064314	0.000126
 109	1.0746e+01	2.1533	24.626528	0.000730	7.296009	1.235977	0.000146
 110	1.0845e+01	2.1735	24.751679	0.000628	6.282675	1.064314	0.000126
 111	1.0945e+01	2.1941	24.921239	0.000851	8.512011	1.441974	0.000170
 112	1.1044e+01	2.2137	25.050427	0.000649	6.485341	1.098647	0.000130
 113	1.1144e+01	2.2326	25.203838	0.000770	7.701343	1.304643	0.000154
 114	1.1243e+01	2.2536	25.337064	0.000669	6.688008	1.132979	0.000134
 115	1.1343e+01	2.2724	25.482401	0.000730	7.296009	1.235977	0.000146
 116	1.1443e+01	2.2945	25.619663	0.000689	6.890675	1.167312	0.000138
 117	1.1542e+01	2.3125	25.773075	0.000770	7.701343	1.304643	0.000154
 118	1.1642e+01	2.3325	25.886114	0.000567	5.674674	0.961316	0.000114
 119	1.1741e+01	2.3528	26.023377	0.000689	6.890675	1.167312	0.000138
 120	1.1841e+01	2.3727	26.172751	0.000750	7.498676	1.270310	0.000150
 121	1.1940e+01	2.3928	26.338274	0.000831	8.309344	1.407641	0.000166
 122	1.2040e+01	2.4133	26.451313	0.000567	5.674674	0.961316	0.000114
 123	1.2139e+01	2.4334	26.580502	0.000649	6.485341	1.098647	0.000130
 124	1.2239e+01	2.4528	26.721801	0.000709	7.093342	1.201645	0.000142
 125	1.2338e+01	2.4726	26.850990	0.000649	6.485341	1.098647	0.000130
 126	1.2438e+01	2.4926	27.004401	0.000770	7.701343	1.304643	0.000154
 127	1.2537e+01	2.5126	27.145701	0.000709	7.093342	1.201645	0.000142
 128	1.2636e+01	2.5323	27.311223	0.000831	8.309344	1.407641	0.000166
 129	1.2736e+01	2.5518	27.404077	0.000466	4.661339	0.789652	0.000093
 130	1.2835e+01	2.5718	27.573637	0.000851	8.512011	1.441974	0.000170
 131	1.2935e+01	2.5922	27.723011	0.000750	7.498676	1.270310	0.000150
 132	1.3034e+01	2.6116	27.852199	0.000649	6.485341	1.098647	0.000130
 133	1.3134e+01	2.6318	28.005611	0.000770	7.701343	1.304643	0.000154
 134	1.3233e+01	2.6517	28.118650	0.000567	5.674674	0.961316	0.000114
 135	1.3333e+01	2.6714	28.243802	0.000628	6.282675	1.064314	0.000126
 136	1.3432e+01	2.6914	28.413361	0.000851	8.512011	1.441974	0.000170
 137	1.3532e+01	2.7117	28.534475	0.000608	6.080008	1.029981	0.000122
 138	1.3632e+01	2.7312	28.631367	0.000486	4.864006	0.823985	0.000097
 139	1.3731e+01	2.7511	28.833223	0.001013	10.133346	1.716635	0.000203
 140	1.3831e+01	2.7715	28.990672	0.000790	7.904010	1.338976	0.000158
 141	1.3930e+01	2.7901	29.119860	0.000649	6.485341	1.098647	0.000130
 142	1.4030e+01	2.8112	29.236937	0.000588	5.877341	0.995648	0.000118
 143	1.4129e+01	2.8309	29.378237	0.000709	7.093342	1.201645	0.000142
 144	1.4229e+01	2.8516	29.523574	0.000730	7.296009	1.235977	0.000146
 145	1.4328e+01	2.8709	29.656799	0.000669	6.688008	1.132979	0.000134
 146	1.4428e+01	2.8907	29.773876	0.000588	5.877341	0.995648	0.000118
 147	1.4527e+01	2.9113	29.923250	0.000750	7.498676	1.270310	0.000150
 148	1.4627e+01	2.9314	30.084736	0.000811	8.106677	1.373308	0.000162
 149	1.4726e+01	2.9507	30.226035	0.000709	7.093342	1.201645	0.000142
 150	1.4825e+01	2.9703	30.351186	0.000628	6.282675	1.064314	0.000126
 151	1.4925e+01	2.9906	30.508635	0.000790	7.904010	1.338976	0.000158
 152	1.5024e+01	3.0108	30.637823	0.000649	6.485341	1.098647	0.000130
 153	1.5124e+01	3.0315	30.795271	0.000790	7.904010	1.338976	0.000158
 154	1.5223e+01	3.0505	30.916385	0.000608	6.080008	1.029981	0.000122
 155	1.5323e+01	3.0706	31.069797	0.000770	7.701343	1.304643	0.000154
 156	1.5422e+01	3.0901	31.194948	0.000628	6.282675	1.064314	0.000126
 157	1.5522e+01	3.1112	31.348359	0.000770	7.701343	1.304643	0.000154
 158	1.5621e+01	3.1303	31.509844	0.000811	8.106677	1.373308	0.000162
 159	1.5721e+01	3.1506	31.618847	0.000547	5.472007	0.926983	0.000110
 160	1.5820e+01	3.1707	31.768221	0.000750	7.498676	1.270310	0.000150
 161	1.5920e+01	3.1896	31.889335	0.000608	6.080008	1.029981	0.000122
 162	1.6020e+01	3.2103	32.030635	0.000709	7.093342	1.201645	0.000142
 163	1.6119e+01	3.2293	32.175972	0.000730	7.296009	1.235977	0.000146
 164	1.6218e+01	3.2504	32.280937	0.000527	5.269340	0.892650	0.000105
 165	1.6318e+01	3.2691	32.438386	0.000790	7.904010	1.338976	0.000158
 166	1.6418e+01	3.2900	32.611982	0.000871	8.714678	1.476306	0.000174
 167	1.6517e+01	3.3099	32.737134	0.000628	6.282675	1.064314	0.000126
 168	1.6616e+01	3.3297	32.886508	0.000750	7.498676	1.270310	0.000150
 169	1.6716e+01	3.3501	32.995510	0.000547	5.472007	0.926983	0.000110
 170	1.6816e+01	3.3697	33.148922	0.000770	7.701343	1.304643	0.000154
 171	1.6915e+01	3.3894	33.282147	0.000669	6.688008	1.132979	0.000134
 172	1.7015e+01	3.4100	33.423447	0.000709	7.093342	1.201645	0.000142
 173	1.7114e+01	3.4298	33.548598	0.000628	6.282675	1.064314	0.000126
 174	1.7213e+01	3.4499	33.706046	0.000790	7.904010	1.338976	0.000158
 175	1.7313e+01	3.4696	33.806975	0.000507	5.066673	0.858318	0.000101
 176	1.7413e+01	3.4899	33.948274	0.000709	7.093342	1.201645	0.000142
 177	1.7512e+01	3.5082	34.073426	0.000628	6.282675	1.064314	0.000126
 178	1.7611e+01	3.5287	34.198577	0.000628	6.282675	1.064314	0.000126
 179	1.7711e+01	3.5490	34.356025	0.000790	7.904010	1.338976	0.000158
 180	1.7811e+01	3.5690	34.489251	0.000669	6.688008	1.132979	0.000134
 181	1.7910e+01	3.5882	34.610365	0.000608	6.080008	1.029981	0.000122
 182	1.8009e+01	3.6077	34.731479	0.000608	6.080008	1.029981	0.000122
 183	1.8109e+01	3.6279	34.921224	0.000953	9.525345	1.613637	0.000191
 184	1.8209e+01	3.6480	35.026190	0.000527	5.269340	0.892650	0.000105
 185	1.8308e+01	3.6692	35.143267	0.000588	5.877341	0.995648	0.000118
 186	1.8407e+01	3.6893	35.264381	0.000608	6.080008	1.029981	0.000122
 187	1.8507e+01	3.7086	35.433940	0.000851	8.512011	1.441974	0.000170
 188	1.8607e+01	3.7286	35.555054	0.000608	6.080008	1.029981	0.000122
 189	1.8706e+01	3.7490	35.708466	0.000770	7.701343	1.304643	0.000154
 190	1.8805e+01	3.7688	35.817468	0.000547	5.472007	0.926983	0.000110
 191	1.8905e+01	3.7878	35.934545	0.000588	5.877341	0.995648	0.000118
 192	1.9005e+01	3.8082	36.100068	0.000831	8.309344	1.407641	0.000166
 193	1.9104e+01	3.8287	36.196959	0.000486	4.864006	0.823985	0.000097
 194	1.9203e+01	3.8470	36.346333	0.000750	7.498676	1.270310	0.000150
 195	1.9303e+01	3.8677	36.471484	0.000628	6.282675	1.064314	0.000126
 196	1.9402e+01	3.8866	36.608747	0.000689	6.890675	1.167312	0.000138
 197	1.9502e+01	3.9073	36.705638	0.000486	4.864006	0.823985	0.000097
 198	1.9602e+01	3.9275	36.855012	0.000750	7.498676	1.270310	0.000150
 199	1.9701e+01	3.9471	36.968052	0.000567	5.674674	0.961316	0.000114
 200	1.9800e+01	3.9669	37.113389	0.000730	7.296009	1.235977	0.000146
 201	1.9900e+01	3.9867	37.218354	0.000527	5.269340	0.892650	0.000105
 202	2.0000e+01	4.0075	37.351580	0.000669	6.688008	1.132979	0.000134
 203	2.0099e+01	4.0270	37.504991	0.000770	7.701343	1.304643	0.000154
 204	2.0198e+01	4.0472	37.626105	0.000608	6.080008	1.029981	0.000122
 205	2.0298e+01	4.0672	37.775479	0.000750	7.498676	1.270310	0.000150
 206	2.0398e+01	4.0865	37.860259	0.000426	4.256005	0.720987	0.000085
 207	2.0497e+01	4.1068	38.009633	0.000750	7.498676	1.270310	0.000150
 208	2.0596e+01	4.1274	38.106524	0.000486	4.864006	0.823985	0.000097
 209	2.0696e+01	4.1467	38.276084	0.000851	8.512011	1.441974	0.000170
 210	2.0796e+01	4.1665	38.385087	0.000547	5.472007	0.926983	0.000110
 211	2.0895e+01	4.1857	38.502164	0.000588	5.877341	0.995648	0.000118
 212	2.0994e+01	4.2069	38.659612	0.000790	7.904010	1.338976	0.000158
 213	2.1094e+01	4.2254	38.780726	0.000608	6.080008	1.029981	0.000122
 214	2.1194e+01	4.2464	38.889729	0.000547	5.472007	0.926983	0.000110
 215	2.1293e+01	4.2663	39.022954	0.000669	6.688008	1.132979	0.000134
 216	2.1392e+01	4.2864	39.148105	0.000628	6.282675	1.064314	0.000126
 217	2.1492e+01	4.3056	39.321702	0.000871	8.714678	1.476306	0.000174
 218	2.1591e+01	4.3261	39.434742	0.000567	5.674674	0.961316	0.000114
 219	2.1691e+01	4.3465	39.576042	0.000709	7.093342	1.201645	0.000142
 220	2.1791e+01	4.3664	39.676970	0.000507	5.066673	0.858318	0.000101
 221	2.1890e+01	4.3859	39.777898	0.000507	5.066673	0.858318	0.000101
 222	2.1989e+01	4.4065	39.903050	0.000628	6.282675	1.064314	0.000126
 223	2.2089e+01	4.4250	40.040312	0.000689	6.890675	1.167312	0.000138
 224	2.2189e+01	4.4463	40.153352	0.000567	5.674674	0.961316	0.000114
 225	2.2288e+01	4.4653	40.294652	0.000709	7.093342	1.201645	0.000142
 226	2.2387e+01	4.4854	40.423840	0.000649	6.485341	1.098647	0.000130
 227	2.2487e+01	4.5055	40.504583	0.000405	4.053338	0.686654	0.000081
 228	2.2587e+01	4.5257	40.670105	0.000831	8.309344	1.407641	0.000166
 229	2.2686e+01	4.5445	40.758922	0.000446	4.458672	0.755320	0.000089
 230	2.2785e+01	4.5649	40.908296	0.000750	7.498676	1.270310	0.000150
 231	2.2885e+01	4.5855	41.017299	0.000547	5.472007	0.926983	0.000110
 232	2.2985e+01	4.6059	41.178785	0.000811	8.106677	1.373308	0.000162
 233	2.3084e+01	4.6252	41.215119	0.000182	1.824002	0.308994	0.000037
 234	2.3183e+01	4.6452	41.400827	0.000932	9.322678	1.579304	0.000187
 235	2.3283e+01	4.6645	41.538090	0.000689	6.890675	1.167312	0.000138
 236	2.3383e+01	4.6856	41.630944	0.000466	4.661339	0.789652	0.000093
 237	2.3482e+01	4.7045	41.731872	0.000507	5.066673	0.858318	0.000101
 238	2.3581e+01	4.7250	41.869135	0.000689	6.890675	1.167312	0.000138
 239	2.3681e+01	4.7442	41.986212	0.000588	5.877341	0.995648	0.000118
 240	2.3780e+01	4.7649	42.115400	0.000649	6.485341	1.098647	0.000130
 241	2.3880e+01	4.7842	42.236514	0.000608	6.080008	1.029981	0.000122
 242	2.3980e+01	4.8049	42.373777	0.000689	6.890675	1.167312	0.000138
 243	2.4079e+01	4.8248	42.470668	0.000486	4.864006	0.823985	0.000097
 244	2.4178e+01	4.8440	42.636191	0.000831	8.309344	1.407641	0.000166
 245	2.4278e+01	4.8647	42.708859	0.000365	3.648005	0.617989	0.000073
 246	2.4378e+01	4.8843	42.838047	0.000649	6.485341	1.098647	0.000130
 247	2.4477e+01	4.9033	42.910716	0.000365	3.648005	0.617989	0.000073
 248	2.4576e+01	4.9242	43.112573	0.001013	10.133346	1.716635	0.000203
 249	2.4676e+01	4.9448	43.185241	0.000365	3.648005	0.617989	0.000073
 250	2.4776e+01	4.9642	43.346726	0.000811	8.106677	1.373308	0.000162
 251	2.4875e+01	4.9845	43.455729	0.000547	5.472007	0.926983	0.000110
 252	2.4974e+01	5.0036	43.580880	0.000628	6.282675	1.064314	0.000126
 253	2.5074e+01	5.0246	43.673734	0.000466	4.661339	0.789652	0.000093
 254	2.5174e+01	5.0426	43.766589	0.000466	4.661339	0.789652	0.000093
 255	2.5273e+01	5.0634	43.936148	0.000851	8.512011	1.441974	0.000170
 256	2.5372e+01	5.0834	44.041114	0.000527	5.269340	0.892650	0.000105
 257	2.5472e+01	5.1028	44.166265	0.000628	6.282675	1.064314	0.000126
 258	2.5572e+01	5.1218	44.275268	0.000547	5.472007	0.926983	0.000110
 259	2.5671e+01	5.1424	44.420605	0.000730	7.296009	1.235977	0.000146
 260	2.5770e+01	5.1623	44.517496	0.000486	4.864006	0.823985	0.000097
 261	2.5870e+01	5.1830	44.658796	0.000709	7.093342	1.201645	0.000142
 262	2.5970e+01	5.2020	44.751650	0.000466	4.661339	0.789652	0.000093
 263	2.6069e+01	5.2221	44.913135	0.000811	8.106677	1.373308	0.000162
 264	2.6169e+01	5.2428	45.022138	0.000547	5.472007	0.926983	0.000110
 265	2.6268e+01	5.2624	45.123066	0.000507	5.066673	0.858318	0.000101
 266	2.6367e+01	5.2825	45.252254	0.000649	6.485341	1.098647	0.000130
 267	2.6467e+01	5.3027	45.377406	0.000628	6.282675	1.064314	0.000126
 268	2.6567e+01	5.3225	45.518705	0.000709	7.093342	1.201645	0.000142
 269	2.6666e+01	5.3423	45.627708	0.000547	5.472007	0.926983	0.000110
 270	2.6765e+01	5.3628	45.760934	0.000669	6.688008	1.132979	0.000134
 271	2.6865e+01	5.3820	45.869936	0.000547	5.472007	0.926983	0.000110
 272	2.6965e+01	5.4021	45.946642	0.000385	3.850671	0.652321	0.000077
 273	2.7064e+01	5.4217	46.079867	0.000669	6.688008	1.132979	0.000134
 274	2.7163e+01	5.4415	46.225204	0.000730	7.296009	1.235977	0.000146
 275	2.7263e+01	5.4620	46.285761	0.000304	3.040004	0.514991	0.000061
 276	2.7363e+01	5.4827	46.471469	0.000932	9.322678	1.579304	0.000187
 277	2.7462e+01	5.5029	46.588546	0.000588	5.877341	0.995648	0.000118
 278	2.7561e+01	5.5212	46.697549	0.000547	5.472007	0.926983	0.000110
 279	2.7661e+01	5.5416	46.842886	0.000730	7.296009	1.235977	0.000146
 280	2.7761e+01	5.5621	46.903443	0.000304	3.040004	0.514991	0.000061
 281	2.7860e+01	5.5820	47.048780	0.000730	7.296009	1.235977	0.000146
 282	2.7959e+01	5.6020	47.161820	0.000567	5.674674	0.961316	0.000114
 283	2.8059e+01	5.6219	47.331379	0.000851	8.512011	1.441974	0.000170
 284	2.8159e+01	5.6414	47.416159	0.000426	4.256005	0.720987	0.000085
 285	2.8258e+01	5.6609	47.541310	0.000628	6.282675	1.064314	0.000126
 286	2.8358e+01	5.6811	47.686647	0.000730	7.296009	1.235977	0.000146
 287	2.8457e+01	5.7015	47.787576	0.000507	5.066673	0.858318	0.000101
 288	2.8556e+01	5.7214	47.912727	0.000628	6.282675	1.064314	0.000126
 289	2.8656e+01	5.7409	48.037878	0.000628	6.282675	1.064314	0.000126
 290	2.8756e+01	5.7604	48.122658	0.000426	4.256005	0.720987	0.000085
 291	2.8855e+01	5.7803	48.267995	0.000730	7.296009	1.235977	0.000146
 292	2.8954e+01	5.8013	48.356812	0.000446	4.458672	0.755320	0.000089
 293	2.9054e+01	5.8208	48.494074	0.000689	6.890675	1.167312	0.000138
 294	2.9154e+01	5.8398	48.639411	0.000730	7.296009	1.235977	0.000146
 295	2.9253e+01	5.8605	48.740340	0.000507	5.066673	0.858318	0.000101
 296	2.9352e+01	5.8807	48.873565	0.000669	6.688008	1.132979	0.000134
 297	2.9452e+01	5.9002	48.962382	0.000446	4.458672	0.755320	0.000089
 298	2.9552e+01	5.9203	49.071385	0.000547	5.472007	0.926983	0.000110
 299	2.9651e+01	5.9402	49.212685	0.000709	7.093342	1.201645	0.000142
 300	2.9750e+01	5.9603	49.317650	0.000527	5.269340	0.892650	0.000105
 301	2.9850e+01	5.9795	49.438764	0.000608	6.080008	1.029981	0.000122
 302	2.9950e+01	6.0003	49.567953	0.000649	6.485341	1.098647	0.000130
 303	3.0049e+01	6.0198	49.721364	0.000770	7.701343	1.304643	0.000154
 304	3.0148e+01	6.0400	49.806144	0.000426	4.256005	0.720987	0.000085
 305	3.0248e+01	6.0595	49.943406	0.000689	6.890675	1.167312	0.000138
 306	3.0348e+01	6.0790	50.056446	0.000567	5.674674	0.961316	0.000114
 307	3.0447e+01	6.1001	50.161412	0.000527	5.269340	0.892650	0.000105
 308	3.0547e+01	6.1193	50.238117	0.000385	3.850671	0.652321	0.000077
 309	3.0646e+01	6.1398	50.371343	0.000669	6.688008	1.132979	0.000134
 310	3.0745e+01	6.1608	50.504568	0.000669	6.688008	1.132979	0.000134
 311	3.0845e+01	6.1791	50.621645	0.000588	5.877341	0.995648	0.000118
 312	3.0945e+01	6.1996	50.750833	0.000649	6.485341	1.098647	0.000130
 313	3.1044e+01	6.2212	50.867910	0.000588	5.877341	0.995648	0.000118
 314	3.1143e+01	6.2399	50.964802	0.000486	4.864006	0.823985	0.000097
 315	3.1243e+01	6.2591	51.098027	0.000669	6.688008	1.132979	0.000134
 316	3.1343e+01	6.2780	51.223178	0.000628	6.282675	1.064314	0.000126
 317	3.1442e+01	6.2992	51.348329	0.000628	6.282675	1.064314	0.000126
 318	3.1541e+01	6.3180	51.449258	0.000507	5.066673	0.858318	0.000101
 319	3.1641e+01	6.3386	51.546149	0.000486	4.864006	0.823985	0.000097
 320	3.1741e+01	6.3580	51.707635	0.000811	8.106677	1.373308	0.000162
 321	3.1840e+01	6.3786	51.816637	0.000547	5.472007	0.926983	0.000110
 322	3.1939e+01	6.3976	51.925640	0.000547	5.472007	0.926983	0.000110
 323	3.2039e+01	6.4181	52.050791	0.000628	6.282675	1.064314	0.000126
 324	3.2139e+01	6.4379	52.171905	0.000608	6.080008	1.029981	0.000122
 325	3.2238e+01	6.4577	52.297056	0.000628	6.282675	1.064314	0.000126
 326	3.2337e+01	6.4782	52.426245	0.000649	6.485341	1.098647	0.000130
 327	3.2437e+01	6.4983	52.519099	0.000466	4.661339	0.789652	0.000093
 328	3.2536e+01	6.5179	52.636176	0.000588	5.877341	0.995648	0.000118
 329	3.2636e+01	6.5372	52.753253	0.000588	5.877341	0.995648	0.000118
 330	3.2736e+01	6.5575	52.838033	0.000426	4.256005	0.720987	0.000085
 331	3.2835e+01	6.5777	52.979332	0.000709	7.093342	1.201645	0.000142
 332	3.2934e+01	6.5972	53.128706	0.000750	7.498676	1.270310	0.000150
 333	3.3034e+01	6.6180	53.209449	0.000405	4.053338	0.686654	0.000081
 334	3.3133e+01	6.6369	53.350749	0.000709	7.093342	1.201645	0.000142
 335	3.3233e+01	6.6567	53.451677	0.000507	5.066673	0.858318	0.000101
 336	3.3333e+01	6.6772	53.588940	0.000689	6.890675	1.167312	0.000138
 337	3.3432e+01	6.6979	53.669683	0.000405	4.053338	0.686654	0.000081
 338	3.3532e+01	6.7162	53.810982	0.000709	7.093342	1.201645	0.000142
 339	3.3631e+01	6.7364	53.907874	0.000486	4.864006	0.823985	0.000097
 340	3.3730e+01	6.7564	54.049173	0.000709	7.093342	1.201645	0.000142
 341	3.3830e+01	6.7764	54.121842	0.000365	3.648005	0.617989	0.000073
 342	3.3929e+01	6.7962	54.251030	0.000649	6.485341	1.098647	0.000130
 343	3.4029e+01	6.8176	54.355996	0.000527	5.269340	0.892650	0.000105
 344	3.4129e+01	6.8371	54.444813	0.000446	4.458672	0.755320	0.000089
 345	3.4228e+01	6.8563	54.569964	0.000628	6.282675	1.064314	0.000126
 346	3.4328e+01	6.8764	54.683004	0.000567	5.674674	0.961316	0.000114
 347	3.4427e+01	6.8961	54.800081	0.000588	5.877341	0.995648	0.000118
 348	3.4526e+01	6.9164	54.913120	0.000567	5.674674	0.961316	0.000114
 349	3.4626e+01	6.9366	55.038272	0.000628	6.282675	1.064314	0.000126
 350	3.4725e+01	6.9561	55.123051	0.000426	4.256005	0.720987	0.000085
 351	3.4825e+01	6.9756	55.264351	0.000709	7.093342	1.201645	0.000142
 352	3.4925e+01	6.9939	55.337020	0.000365	3.648005	0.617989	0.000073
 353	3.5024e+01	7.0147	55.462171	0.000628	6.282675	1.064314	0.000126
 354	3.5123e+01	7.0367	55.595396	0.000669	6.688008	1.132979	0.000134
 355	3.5223e+01	7.0556	55.659990	0.000324	3.242671	0.549323	0.000065
 356	3.5322e+01	7.0760	55.781104	0.000608	6.080008	1.029981	0.000122
 357	3.5422e+01	7.0947	55.922404	0.000709	7.093342	1.201645	0.000142
 358	3.5522e+01	7.1160	56.019296	0.000486	4.864006	0.823985	0.000097
 359	3.5621e+01	7.1349	56.100038	0.000405	4.053338	0.686654	0.000081
 360	3.5721e+01	7.1587	56.245375	0.000730	7.296009	1.235977	0.000146
 361	3.5820e+01	7.1749	56.289784	0.000223	2.229336	0.377660	0.000045
 362	3.5919e+01	7.1951	56.455306	0.000831	8.309344	1.407641	0.000166
 363	3.6019e+01	7.2149	56.584495	0.000649	6.485341	1.098647	0.000130
 364	3.6118e+01	7.2363	56.620829	0.000182	1.824002	0.308994	0.000037
 365	3.6218e+01	7.2552	56.794426	0.000871	8.714678	1.476306	0.000174
 366	3.6318e+01	7.2753	56.838834	0.000223	2.229336	0.377660	0.000045
 367	3.6417e+01	7.2952	56.976097	0.000689	6.890675	1.167312	0.000138
 368	3.6517e+01	7.3141	57.085099	0.000547	5.472007	0.926983	0.000110
 369	3.6616e+01	7.3345	57.169879	0.000426	4.256005	0.720987	0.000085
 370	3.6715e+01	7.3553	57.295030	0.000628	6.282675	1.064314	0.000126
 371	3.6815e+01	7.3742	57.387885	0.000466	4.661339	0.789652	0.000093
 372	3.6914e+01	7.3943	57.521110	0.000669	6.688008	1.132979	0.000134
 373	3.7014e+01	7.4157	57.626076	0.000527	5.269340	0.892650	0.000105
 374	3.7114e+01	7.4352	57.735078	0.000547	5.472007	0.926983	0.000110
 375	3.7213e+01	7.4541	57.819858	0.000426	4.256005	0.720987	0.000085
 376	3.7313e+01	7.4737	57.916749	0.000486	4.864006	0.823985	0.000097
 377	3.7412e+01	7.4938	58.045938	0.000649	6.485341	1.098647	0.000130
 378	3.7511e+01	7.5149	58.134755	0.000446	4.458672	0.755320	0.000089
 379	3.7611e+01	7.5341	58.255869	0.000608	6.080008	1.029981	0.000122
 380	3.7711e+01	7.5530	58.348723	0.000466	4.661339	0.789652	0.000093
 381	3.7810e+01	7.5744	58.449651	0.000507	5.066673	0.858318	0.000101
 382	3.7910e+01	7.5938	58.526357	0.000385	3.850671	0.652321	0.000077
 383	3.8009e+01	7.6134	58.643434	0.000588	5.877341	0.995648	0.000118
 384	3.8108e+01	7.6336	58.784733	0.000709	7.093342	1.201645	0.000142
 385	3.8208e+01	7.6531	58.857402	0.000365	3.648005	0.617989	0.000073
 386	3.8307e+01	7.6730	58.962367	0.000527	5.269340	0.892650	0.000105
 387	3.8407e+01	7.6922	59.083482	0.000608	6.080008	1.029981	0.000122
 388	3.8507e+01	7.7129	59.172299	0.000446	4.458672	0.755320	0.000089
 389	3.8606e+01	7.7331	59.293413	0.000608	6.080008	1.029981	0.000122
 390	3.8706e+01	7.7532	59.374155	0.000405	4.053338	0.686654	0.000081
 391	3.8805e+01	7.7728	59.479121	0.000527	5.269340	0.892650	0.000105
 392	3.8904e+01	7.7935	59.596198	0.000588	5.877341	0.995648	0.000118
 393	3.9004e+01	7.8124	59.689052	0.000466	4.661339	0.789652	0.000093
 394	3.9103e+01	7.8326	59.806129	0.000588	5.877341	0.995648	0.000118
 395	3.9203e+01	7.8533	59.903020	0.000486	4.864006	0.823985	0.000097
 396	3.9303e+01	7.8725	60.012023	0.000547	5.472007	0.926983	0.000110
 397	3.9402e+01	7.8924	60.112951	0.000507	5.066673	0.858318	0.000101
 398	3.9502e+01	7.9119	60.213880	0.000507	5.066673	0.858318	0.000101
 399	3.9601e+01	7.9327	60.326919	0.000567	5.674674	0.961316	0.000114
 400	3.9700e+01	7.9522	60.415736	0.000446	4.458672	0.755320	0.000089
 401	3.9800e+01	7.9729	60.488405	0.000365	3.648005	0.617989	0.000073
 402	3.9900e+01	7.9925	60.597407	0.000547	5.472007	0.926983	0.000110
 403	3.9999e+01	8.0126	60.706410	0.000547	5.472007	0.926983	0.000110
 404	4.0099e+01	8.0322	60.815413	0.000547	5.472007	0.926983	0.000110
 405	4.0198e+01	8.0511	60.892118	0.000385	3.850671	0.652321	0.000077
 406	4.0297e+01	8.0709	61.001121	0.000547	5.472007	0.926983	0.000110
 407	4.0397e+01	8.0914	61.098012	0.000486	4.864006	0.823985	0.000097
 408	4.0496e+01	8.1115	61.182792	0.000426	4.256005	0.720987	0.000085
 409	4.0596e+01	8.1316	61.303906	0.000608	6.080008	1.029981	0.000122
 410	4.0696e+01	8.1512	61.384649	0.000405	4.053338	0.686654	0.000081
 411	4.0795e+01	8.1719	61.525949	0.000709	7.093342	1.201645	0.000142
 412	4.0895e+01	8.1911	61.574394	0.000243	2.432003	0.411992	0.000049
 413	4.0994e+01	8.2110	61.715694	0.000709	7.093342	1.201645	0.000142
 414	4.1093e+01	8.2311	61.788362	0.000365	3.648005	0.617989	0.000073
 415	4.1193e+01	8.2519	61.869105	0.000405	4.053338	0.686654	0.000081
 416	4.1292e+01	8.2708	62.002331	0.000669	6.688008	1.132979	0.000134
 417	4.1392e+01	8.2914	62.074999	0.000365	3.648005	0.617989	0.000073
 418	4.1492e+01	8.3117	62.192076	0.000588	5.877341	0.995648	0.000118
 419	4.1591e+01	8.3306	62.288967	0.000486	4.864006	0.823985	0.000097
 420	4.1691e+01	8.3514	62.406044	0.000588	5.877341	0.995648	0.000118
 421	4.1790e+01	8.3709	62.502935	0.000486	4.864006	0.823985	0.000097
 422	4.1889e+01	8.3898	62.563493	0.000304	3.040004	0.514991	0.000061
 423	4.1989e+01	8.4106	62.712867	0.000750	7.498676	1.270310	0.000150
 424	4.2089e+01	8.4304	62.793609	0.000405	4.053338	0.686654	0.000081
 425	4.2188e+01	8.4496	62.890501	0.000486	4.864006	0.823985	0.000097
 426	4.2288e+01	8.4710	63.015652	0.000628	6.282675	1.064314	0.000126
 427	4.2387e+01	8.4899	63.120617	0.000527	5.269340	0.892650	0.000105
 428	4.2486e+01	8.5107	63.193286	0.000365	3.648005	0.617989	0.000073
 429	4.2586e+01	8.5302	63.318437	0.000628	6.282675	1.064314	0.000126
 430	4.2685e+01	8.5503	63.387068	0.000345	3.445338	0.583656	0.000069
 431	4.2785e+01	8.5705	63.524331	0.000689	6.890675	1.167312	0.000138
 432	4.2885e+01	8.5888	63.576814	0.000263	2.634670	0.446325	0.000053
 433	4.2984e+01	8.6095	63.697928	0.000608	6.080008	1.029981	0.000122
 434	4.3084e+01	8.6291	63.819042	0.000608	6.080008	1.029981	0.000122
 435	4.3183e+01	8.6492	63.875562	0.000284	2.837337	0.480658	0.000057
 436	4.3282e+01	8.6700	63.996676	0.000608	6.080008	1.029981	0.000122
 437	4.3382e+01	8.6895	64.101641	0.000527	5.269340	0.892650	0.000105
 438	4.3481e+01	8.7093	64.202570	0.000507	5.066673	0.858318	0.000101
 439	4.3581e+01	8.7304	64.299461	0.000486	4.864006	0.823985	0.000097
 440	4.3681e+01	8.7496	64.400389	0.000507	5.066673	0.858318	0.000101
 441	4.3780e+01	8.7698	64.456909	0.000284	2.837337	0.480658	0.000057
 442	4.3880e+01	8.7887	64.594172	0.000689	6.890675	1.167312	0.000138
 443	4.3979e+01	8.8079	64.707212	0.000567	5.674674	0.961316	0.000114
 444	4.4078e+01	8.8290	64.812177	0.000527	5.269340	0.892650	0.000105
 445	4.4178e+01	8.8479	64.925217	0.000567	5.674674	0.961316	0.000114
 446	4.4278e+01	8.8674	65.005960	0.000405	4.053338	0.686654	0.000081
 447	4.4377e+01	8.8873	65.094777	0.000446	4.458672	0.755320	0.000089
 448	4.4477e+01	8.9080	65.219928	0.000628	6.282675	1.064314	0.000126
 449	4.4576e+01	8.9275	65.276448	0.000284	2.837337	0.480658	0.000057
 450	4.4675e+01	8.9477	65.425822	0.000750	7.498676	1.270310	0.000150
 451	4.4775e+01	8.9675	65.542899	0.000588	5.877341	0.995648	0.000118
 452	4.4874e+01	8.9884	65.627679	0.000426	4.256005	0.720987	0.000085
 453	4.4974e+01	9.0069	65.744755	0.000588	5.877341	0.995648	0.000118
 454	4.5074e+01	9.0273	65.825498	0.000405	4.053338	0.686654	0.000081
 455	4.5173e+01	9.0472	65.894130	0.000345	3.445338	0.583656	0.000069
 456	4.5273e+01	9.0679	66.031392	0.000689	6.890675	1.167312	0.000138
 457	4.5372e+01	9.0868	66.091949	0.000304	3.040004	0.514991	0.000061
 458	4.5471e+01	9.1064	66.213063	0.000608	6.080008	1.029981	0.000122
 459	4.5571e+01	9.1262	66.318029	0.000527	5.269340	0.892650	0.000105
 460	4.5670e+01	9.1473	66.447217	0.000649	6.485341	1.098647	0.000130
 461	4.5770e+01	9.1671	66.544108	0.000486	4.864006	0.823985	0.000097
 462	4.5870e+01	9.1863	66.636962	0.000466	4.661339	0.789652	0.000093
 463	4.5969e+01	9.2071	66.725779	0.000446	4.458672	0.755320	0.000089
 464	4.6069e+01	9.2254	66.842856	0.000588	5.877341	0.995648	0.000118
 465	4.6168e+01	9.2471	66.923599	0.000405	4.053338	0.686654	0.000081
 466	4.6267e+01	9.2663	67.036639	0.000567	5.674674	0.961316	0.000114
 467	4.6367e+01	9.2873	67.113345	0.000385	3.850671	0.652321	0.000077
 468	4.6467e+01	9.3069	67.222347	0.000547	5.472007	0.926983	0.000110
 469	4.6566e+01	9.3273	67.286941	0.000324	3.242671	0.549323	0.000065
 470	4.6666e+01	9.3456	67.404018	0.000588	5.877341	0.995648	0.000118
 471	4.6765e+01	9.3658	67.525132	0.000608	6.080008	1.029981	0.000122
 472	4.6864e+01	9.3856	67.666432	0.000709	7.093342	1.201645	0.000142
 473	4.6964e+01	9.4061	67.763323	0.000486	4.864006	0.823985	0.000097
 474	4.7063e+01	9.4262	67.807732	0.000223	2.229336	0.377660	0.000045
 475	4.7163e+01	9.4466	67.949032	0.000709	7.093342	1.201645	0.000142
 476	4.7263e+01	9.4665	68.021700	0.000365	3.648005	0.617989	0.000073
 477	4.7362e+01	9.4854	68.142814	0.000608	6.080008	1.029981	0.000122
 478	4.7462e+01	9.5055	68.255854	0.000567	5.674674	0.961316	0.000114
 479	4.7561e+01	9.5257	68.332560	0.000385	3.850671	0.652321	0.000077
 480	4.7660e+01	9.5464	68.429451	0.000486	4.864006	0.823985	0.000097
 481	4.7760e+01	9.5654	68.522305	0.000466	4.661339	0.789652	0.000093
 482	4.7859e+01	9.5855	68.635345	0.000567	5.674674	0.961316	0.000114
 483	4.7959e+01	9.6050	68.740310	0.000527	5.269340	0.892650	0.000105
 484	4.8059e+01	9.6258	68.869499	0.000649	6.485341	1.098647	0.000130
 485	4.8158e+01	9.6453	68.946204	0.000385	3.850671	0.652321	0.000077
 486	4.8258e+01	9.6648	69.059244	0.000567	5.674674	0.961316	0.000114
 487	4.8357e+01	9.6850	69.148061	0.000446	4.458672	0.755320	0.000089
 488	4.8456e+01	9.7051	69.269175	0.000608	6.080008	1.029981	0.000122
 489	4.8556e+01	9.7240	69.341843	0.000365	3.648005	0.617989	0.000073
 490	4.8656e+01	9.7451	69.471032	0.000649	6.485341	1.098647	0.000130
 491	4.8755e+01	9.7637	69.535626	0.000324	3.242671	0.549323	0.000065
 492	4.8855e+01	9.7842	69.676926	0.000709	7.093342	1.201645	0.000142
 493	4.8954e+01	9.8049	69.777854	0.000507	5.066673	0.858318	0.000101
 494	4.9053e+01	9.8254	69.882820	0.000527	5.269340	0.892650	0.000105
 495	4.9153e+01	9.8449	69.987785	0.000527	5.269340	0.892650	0.000105
 496	4.9252e+01	9.8644	70.088714	0.000507	5.066673	0.858318	0.000101
 497	4.9352e+01	9.8833	70.201753	0.000567	5.674674	0.961316	0.000114
 498	4.9452e+01	9.9041	70.278459	0.000385	3.850671	0.652321	0.000077
 499	4.9551e+01	9.9242	70.371313	0.000466	4.661339	0.789652	0.000093
 500	4.9651e+01	9.9438	70.476279	0.000527	5.269340	0.892650	0.000105
 501	4.9750e+01	9.9639	70.593356	0.000588	5.877341	0.995648	0.000118
 502	4.9849e+01	9.9834	70.678135	0.000426	4.256005	0.720987	0.000085
 503	4.9949e+01	9.9999	70.787138	0.000547	5.472007	0.926983	0.000110
 504	5.0048e+01	9.9834	70.718507	0.000345	3.445338	0.583656	-0.000069
 505	5.0148e+01	9.9645	70.645838	0.000365	3.648005	0.617989	-0.000073
 506	5.0248e+01	9.9438	70.561058	0.000426	4.256005	0.720987	-0.000085
 507	5.0347e+01	9.9242	70.484353	0.000385	3.850671	0.652321	-0.000077
 508	5.0447e+01	9.9041	70.464167	0.000101	1.013335	0.171664	-0.000020
 509	5.0546e+01	9.8840	70.395536	0.000345	3.445338	0.583656	-0.000069
 510	5.0645e+01	9.8638	70.294607	0.000507	5.066673	0.858318	-0.000101
 511	5.0745e+01	9.8437	70.185605	0.000547	5.472007	0.926983	-0.000110
 512	5.0844e+01	9.8241	70.145233	0.000203	2.026669	0.343327	-0.000041
 513	5.0944e+01	9.8052	70.076602	0.000345	3.445338	0.583656	-0.000069
 514	5.1044e+01	9.7851	70.007971	0.000345	3.445338	0.583656	-0.000069
 515	5.1143e+01	9.7655	69.939340	0.000345	3.445338	0.583656	-0.000069
 516	5.1242e+01	9.7448	69.858597	0.000405	4.053338	0.686654	-0.000081
 517	5.1342e+01	9.7247	69.802077	0.000284	2.837337	0.480658	-0.000057
 518	5.1441e+01	9.7051	69.668851	0.000669	6.688008	1.132979	-0.000134
 519	5.1541e+01	9.6850	69.640591	0.000142	1.418668	0.240329	-0.000028
 520	5.1641e+01	9.6655	69.567923	0.000365	3.648005	0.617989	-0.000073
 521	5.1740e+01	9.6447	69.491217	0.000385	3.850671	0.652321	-0.000077
 522	5.1840e+01	9.6252	69.374141	0.000588	5.877341	0.995648	-0.000118
 523	5.1939e+01	9.6050	69.297435	0.000385	3.850671	0.652321	-0.000077
 524	5.2038e+01	9.5849	69.240915	0.000284	2.837337	0.480658	-0.000057
 525	5.2138e+01	9.5647	69.164209	0.000385	3.850671	0.652321	-0.000077
 526	5.2237e+01	9.5446	69.071355	0.000466	4.661339	0.789652	-0.000093
 527	5.2337e+01	9.5257	68.994650	0.000385	3.850671	0.652321	-0.000077
 528	5.2437e+01	9.5061	68.934093	0.000304	3.040004	0.514991	-0.000061
 529	5.2536e+01	9.4860	68.841239	0.000466	4.661339	0.789652	-0.000093
 530	5.2636e+01	9.4653	68.756459	0.000426	4.256005	0.720987	-0.000085
 531	5.2735e+01	9.4463	68.691865	0.000324	3.242671	0.549323	-0.000065
 532	5.2834e+01	9.4256	68.599010	0.000466	4.661339	0.789652	-0.000093
 533	5.2934e+01	9.4061	68.502119	0.000486	4.864006	0.823985	-0.000097
 534	5.3033e+01	9.3865	68.453674	0.000243	2.432003	0.411992	-0.000049
 535	5.3133e+01	9.3664	68.397154	0.000284	2.837337	0.480658	-0.000057
 536	5.3233e+01	9.3475	68.292188	0.000527	5.269340	0.892650	-0.000105
 537	5.3332e+01	9.3261	68.219520	0.000365	3.648005	0.617989	-0.000073
 538	5.3431e+01	9.3066	68.102443	0.000588	5.877341	0.995648	-0.000118
 539	5.3531e+01	9.2876	68.045923	0.000284	2.837337	0.480658	-0.000057
 540	5.3630e+01	9.2675	67.961143	0.000426	4.256005	0.720987	-0.000085
 541	5.3730e+01	9.2467	67.888475	0.000365	3.648005	0.617989	-0.000073
 542	5.3830e+01	9.2263	67.787546	0.000507	5.066673	0.858318	-0.000101
 543	5.3929e+01	9.2071	67.702766	0.000426	4.256005	0.720987	-0.000085
 544	5.4029e+01	9.1869	67.581652	0.000608	6.080008	1.029981	-0.000122
 545	5.4128e+01	9.1680	67.513021	0.000345	3.445338	0.583656	-0.000069
 546	5.4227e+01	9.1473	67.444390	0.000345	3.445338	0.583656	-0.000069
 547	5.4327e+01	9.1274	67.359610	0.000426	4.256005	0.720987	-0.000085
 548	5.4426e+01	9.1076	67.270793	0.000446	4.458672	0.755320	-0.000089
 549	5.4526e+01	9.0874	67.169864	0.000507	5.066673	0.858318	-0.000101
 550	5.4626e+01	9.0673	67.113345	0.000284	2.837337	0.480658	-0.000057
 551	5.4725e+01	9.0472	67.028565	0.000426	4.256005	0.720987	-0.000085
 552	5.4825e+01	9.0276	66.923599	0.000527	5.269340	0.892650	-0.000105
 553	5.4924e+01	9.0075	66.883228	0.000203	2.026669	0.343327	-0.000041
 554	5.5023e+01	8.9877	66.794411	0.000446	4.458672	0.755320	-0.000089
 555	5.5123e+01	8.9678	66.677334	0.000588	5.877341	0.995648	-0.000118
 556	5.5222e+01	8.9477	66.580443	0.000486	4.864006	0.823985	-0.000097
 557	5.5322e+01	8.9281	66.503737	0.000385	3.850671	0.652321	-0.000077
 558	5.5422e+01	8.9080	66.427031	0.000385	3.850671	0.652321	-0.000077
 559	5.5521e+01	8.8879	66.362437	0.000324	3.242671	0.549323	-0.000065
 560	5.5620e+01	8.8689	66.281695	0.000405	4.053338	0.686654	-0.000081
 561	5.5720e+01	8.8482	66.172692	0.000547	5.472007	0.926983	-0.000110
 562	5.5819e+01	8.8293	66.128283	0.000223	2.229336	0.377660	-0.000045
 563	5.5919e+01	8.8094	65.999095	0.000649	6.485341	1.098647	-0.000130
 564	5.6019e+01	8.7884	65.934501	0.000324	3.242671	0.549323	-0.000065
 565	5.6118e+01	8.7695	65.853758	0.000405	4.053338	0.686654	-0.000081
 566	5.6218e+01	8.7493	65.748793	0.000527	5.269340	0.892650	-0.000105
 567	5.6317e+01	8.7298	65.639790	0.000547	5.472007	0.926983	-0.000110
 568	5.6416e+01	8.7090	65.591344	0.000243	2.432003	0.411992	-0.000049
 569	5.6516e+01	8.6895	65.506564	0.000426	4.256005	0.720987	-0.000085
 570	5.6615e+01	8.6694	65.373339	0.000669	6.688008	1.132979	-0.000134
 571	5.6715e+01	8.6492	65.236076	0.000689	6.890675	1.167312	-0.000138
 572	5.6815e+01	8.6297	65.199742	0.000182	1.824002	0.308994	-0.000037
 573	5.6914e+01	8.6083	65.123037	0.000385	3.850671	0.652321	-0.000077
 574	5.7014e+01	8.5906	65.001923	0.000608	6.080008	1.029981	-0.000122
 575	5.7113e+01	8.5699	64.961551	0.000203	2.026669	0.343327	-0.000041
 576	5.7212e+01	8.5497	64.828326	0.000669	6.688008	1.132979	-0.000134
 577	5.7312e+01	8.5308	64.735472	0.000466	4.661339	0.789652	-0.000093
 578	5.7411e+01	8.5094	64.630506	0.000527	5.269340	0.892650	-0.000105
 579	5.7511e+01	8.4905	64.553800	0.000385	3.850671	0.652321	-0.000077
 580	5.7611e+01	8.4710	64.460946	0.000466	4.661339	0.789652	-0.000093
 581	5.7710e+01	8.4499	64.368092	0.000466	4.661339	0.789652	-0.000093
 582	5.7809e+01	8.4301	64.283312	0.000426	4.256005	0.720987	-0.000085
 583	5.7909e+01	8.4109	64.178347	0.000527	5.269340	0.892650	-0.000105
 584	5.8008e+01	8.3916	64.121827	0.000284	2.837337	0.480658	-0.000057
 585	5.8108e+01	8.3709	64.016861	0.000527	5.269340	0.892650	-0.000105
 586	5.8208e+01	8.3508	63.903822	0.000567	5.674674	0.961316	-0.000114
 587	5.8307e+01	8.3312	63.815005	0.000446	4.458672	0.755320	-0.000089
 588	5.8407e+01	8.3117	63.714076	0.000507	5.066673	0.858318	-0.000101
 589	5.8506e+01	8.2909	63.617185	0.000486	4.864006	0.823985	-0.000097
 590	5.8605e+01	8.2708	63.540479	0.000385	3.850671	0.652321	-0.000077
 591	5.8705e+01	8.2513	63.479922	0.000304	3.040004	0.514991	-0.000061
 592	5.8804e+01	8.2305	63.354771	0.000628	6.282675	1.064314	-0.000126
 593	5.8904e+01	8.2104	63.306326	0.000243	2.432003	0.411992	-0.000049
 594	5.9004e+01	8.1921	63.193286	0.000567	5.674674	0.961316	-0.000114
 595	5.9103e+01	8.1713	63.112543	0.000405	4.053338	0.686654	-0.000081
 596	5.9203e+01	8.1515	63.019689	0.000466	4.661339	0.789652	-0.000093
 597	5.9302e+01	8.1319	62.918760	0.000507	5.066673	0.858318	-0.000101
 598	5.9401e+01	8.1118	62.838018	0.000405	4.053338	0.686654	-0.000081
 599	5.9501e+01	8.0920	62.769386	0.000345	3.445338	0.583656	-0.000069
 600	5.9600e+01	8.0712	62.644235	0.000628	6.282675	1.064314	-0.000126
 601	5.9700e+01	8.0523	62.579641	0.000324	3.242671	0.549323	-0.000065
 602	5.9800e+01	8.0315	62.498898	0.000405	4.053338	0.686654	-0.000081
 603	5.9899e+01	8.0120	62.389896	0.000547	5.472007	0.926983	-0.000110
 604	5.9998e+01	7.9925	62.313190	0.000385	3.850671	0.652321	-0.000077
 605	6.0098e+01	7.9723	62.175928	0.000689	6.890675	1.167312	-0.000138
 606	6.0197e+01	7.9531	62.103259	0.000365	3.648005	0.617989	-0.000073
 607	6.0297e+01	7.9327	62.030591	0.000365	3.648005	0.617989	-0.000073
 608	6.0397e+01	7.9125	61.925625	0.000527	5.269340	0.892650	-0.000105
 609	6.0496e+01	7.8915	61.869105	0.000284	2.837337	0.480658	-0.000057
 610	6.0596e+01	7.8716	61.743954	0.000628	6.282675	1.064314	-0.000126
 611	6.0695e+01	7.8521	61.663211	0.000405	4.053338	0.686654	-0.000081
 612	6.0794e+01	7.8326	61.586506	0.000385	3.850671	0.652321	-0.000077
 613	6.0894e+01	7.8130	61.457317	0.000649	6.485341	1.098647	-0.000130
 614	6.0993e+01	7.7923	61.372537	0.000426	4.256005	0.720987	-0.000085
 615	6.1093e+01	7.7721	61.316018	0.000284	2.837337	0.480658	-0.000057
 616	6.1193e+01	7.7526	61.166644	0.000750	7.498676	1.270310	-0.000150
 617	6.1292e+01	7.7331	61.118198	0.000243	2.432003	0.411992	-0.000049
 618	6.1392e+01	7.7142	61.037455	0.000405	4.053338	0.686654	-0.000081
 619	6.1491e+01	7.6928	60.916341	0.000608	6.080008	1.029981	-0.000122
 620	6.1590e+01	7.6733	60.839636	0.000385	3.850671	0.652321	-0.000077
 621	6.1690e+01	7.6525	60.746781	0.000466	4.661339	0.789652	-0.000093
 622	6.1789e+01	7.6336	60.670076	0.000385	3.850671	0.652321	-0.000077
 623	6.1889e+01	7.6141	60.593370	0.000385	3.850671	0.652321	-0.000077
 624	6.1989e+01	7.5933	60.480330	0.000567	5.674674	0.961316	-0.000114
 625	6.2088e+01	7.5735	60.415736	0.000324	3.242671	0.549323	-0.000065
 626	6.2188e+01	7.5549	60.282511	0.000669	6.688008	1.132979	-0.000134
 627	6.2287e+01	7.5347	60.197731	0.000426	4.256005	0.720987	-0.000085
 628	6.2386e+01	7.5140	60.100840	0.000486	4.864006	0.823985	-0.000097
 629	6.2486e+01	7.4944	60.032208	0.000345	3.445338	0.583656	-0.000069
 630	6.2586e+01	7.4743	59.939354	0.000466	4.661339	0.789652	-0.000093
 631	6.2685e+01	7.4548	59.814203	0.000628	6.282675	1.064314	-0.000126
 632	6.2785e+01	7.4339	59.717312	0.000486	4.864006	0.823985	-0.000097
 633	6.2884e+01	7.4139	59.656755	0.000304	3.040004	0.514991	-0.000061
 634	6.2983e+01	7.3956	59.555826	0.000507	5.066673	0.858318	-0.000101
 635	6.3083e+01	7.3766	59.442787	0.000567	5.674674	0.961316	-0.000114
 636	6.3182e+01	7.3547	59.345895	0.000486	4.864006	0.823985	-0.000097
 637	6.3282e+01	7.3339	59.269190	0.000385	3.850671	0.652321	-0.000077
 638	6.3382e+01	7.3138	59.164224	0.000527	5.269340	0.892650	-0.000105
 639	6.3481e+01	7.2948	59.079444	0.000426	4.256005	0.720987	-0.000085
 640	6.3581e+01	7.2744	59.002739	0.000385	3.850671	0.652321	-0.000077
 641	6.3680e+01	7.2546	58.921996	0.000405	4.053338	0.686654	-0.000081
 642	6.3779e+01	7.2350	58.821068	0.000507	5.066673	0.858318	-0.000101
 643	6.3879e+01	7.2153	58.736288	0.000426	4.256005	0.720987	-0.000085
 644	6.3978e+01	7.1960	58.635359	0.000507	5.066673	0.858318	-0.000101
 645	6.4078e+01	7.1764	58.526357	0.000547	5.472007	0.926983	-0.000110
 646	6.4177e+01	7.1557	58.425428	0.000507	5.066673	0.858318	-0.000101
 647	6.4277e+01	7.1355	58.360834	0.000324	3.242671	0.549323	-0.000065
 648	6.4376e+01	7.1160	58.251832	0.000547	5.472007	0.926983	-0.000110
 649	6.4476e+01	7.0953	58.154940	0.000486	4.864006	0.823985	-0.000097
 650	6.4576e+01	7.0751	58.058049	0.000486	4.864006	0.823985	-0.000097
 651	6.4675e+01	7.0556	57.957121	0.000507	5.066673	0.858318	-0.000101
 652	6.4775e+01	7.0348	57.876378	0.000405	4.053338	0.686654	-0.000081
 653	6.4874e+01	7.0165	57.799672	0.000385	3.850671	0.652321	-0.000077
 654	6.4974e+01	6.9958	57.718930	0.000405	4.053338	0.686654	-0.000081
 655	6.5073e+01	6.9759	57.577630	0.000709	7.093342	1.201645	-0.000142
 656	6.5172e+01	6.9564	57.480739	0.000486	4.864006	0.823985	-0.000097
 657	6.5272e+01	6.9366	57.424219	0.000284	2.837337	0.480658	-0.000057
 658	6.5371e+01	6.9170	57.319253	0.000527	5.269340	0.892650	-0.000105
 659	6.5471e+01	6.8963	57.238510	0.000405	4.053338	0.686654	-0.000081
 660	6.5570e+01	6.8774	57.157768	0.000405	4.053338	0.686654	-0.000081
 661	6.5670e+01	6.8560	57.032617	0.000628	6.282675	1.064314	-0.000126
 662	6.5769e+01	6.8374	56.939762	0.000466	4.661339	0.789652	-0.000093
 663	6.5869e+01	6.8176	56.854983	0.000426	4.256005	0.720987	-0.000085
 664	6.5969e+01	6.7968	56.762128	0.000466	4.661339	0.789652	-0.000093
 665	6.6068e+01	6.7767	56.693497	0.000345	3.445338	0.583656	-0.000069
 666	6.6168e+01	6.7571	56.568346	0.000628	6.282675	1.064314	-0.000126
 667	6.6267e+01	6.7370	56.479529	0.000446	4.458672	0.755320	-0.000089
 668	6.6367e+01	6.7168	56.370526	0.000547	5.472007	0.926983	-0.000110
 669	6.6466e+01	6.6970	56.322081	0.000243	2.432003	0.411992	-0.000049
 670	6.6566e+01	6.6772	56.184818	0.000689	6.890675	1.167312	-0.000138
 671	6.6665e+01	6.6570	56.116187	0.000345	3.445338	0.583656	-0.000069
 672	6.6764e+01	6.6375	55.974887	0.000709	7.093342	1.201645	-0.000142
 673	6.6864e+01	6.6174	55.886070	0.000446	4.458672	0.755320	-0.000089
 674	6.6963e+01	6.5987	55.768993	0.000588	5.877341	0.995648	-0.000118
 675	6.7063e+01	6.5771	55.700362	0.000345	3.445338	0.583656	-0.000069
 676	6.7162e+01	6.5569	55.575211	0.000628	6.282675	1.064314	-0.000126
 677	6.7262e+01	6.5386	55.510616	0.000324	3.242671	0.549323	-0.000065
 678	6.7362e+01	6.5173	55.397577	0.000567	5.674674	0.961316	-0.000114
 679	6.7461e+01	6.4968	55.300685	0.000486	4.864006	0.823985	-0.000097
 680	6.7561e+01	6.4770	55.215905	0.000426	4.256005	0.720987	-0.000085
 681	6.7660e+01	6.4568	55.094791	0.000608	6.080008	1.029981	-0.000122
 682	6.7760e+01	6.4379	54.985789	0.000547	5.472007	0.926983	-0.000110
 683	6.7859e+01	6.4184	54.884860	0.000507	5.066673	0.858318	-0.000101
 684	6.7959e+01	6.3976	54.800081	0.000426	4.256005	0.720987	-0.000085
 685	6.8058e+01	6.3781	54.703189	0.000486	4.864006	0.823985	-0.000097
 686	6.8157e+01	6.3580	54.602261	0.000507	5.066673	0.858318	-0.000101
 687	6.8257e+01	6.3378	54.485184	0.000588	5.877341	0.995648	-0.000118
 688	6.8356e+01	6.3183	54.400404	0.000426	4.256005	0.720987	-0.000085
 689	6.8456e+01	6.2994	54.275253	0.000628	6.282675	1.064314	-0.000126
 690	6.8555e+01	6.2786	54.158176	0.000588	5.877341	0.995648	-0.000118
 691	6.8655e+01	6.2597	54.113767	0.000223	2.229336	0.377660	-0.000045
 692	6.8754e+01	6.2395	53.980542	0.000669	6.688008	1.132979	-0.000134
 693	6.8854e+01	6.2194	53.879614	0.000507	5.066673	0.858318	-0.000101
 694	6.8954e+01	6.1993	53.750425	0.000649	6.485341	1.098647	-0.000130
 695	6.9053e+01	6.1788	53.693905	0.000284	2.837337	0.480658	-0.000057
 696	6.9153e+01	6.1602	53.592977	0.000507	5.066673	0.858318	-0.000101
 697	6.9252e+01	6.1395	53.439566	0.000770	7.701343	1.304643	-0.000154
 698	6.9352e+01	6.1193	53.354786	0.000426	4.256005	0.720987	-0.000085
 699	6.9451e+01	6.0995	53.257895	0.000486	4.864006	0.823985	-0.000097
 700	6.9550e+01	6.0793	53.116595	0.000709	7.093342	1.201645	-0.000142
 701	6.9650e+01	6.0595	53.052001	0.000324	3.242671	0.549323	-0.000065
 702	6.9749e+01	6.0387	52.930887	0.000608	6.080008	1.029981	-0.000122
 703	6.9849e+01	6.0198	52.825921	0.000527	5.269340	0.892650	-0.000105
 704	6.9948e+01	6.0003	52.757290	0.000345	3.445338	0.583656	-0.000069
 705	7.0048e+01	5.9795	52.611953	0.000730	7.296009	1.235977	-0.000146
 706	7.0147e+01	5.9600	52.498913	0.000567	5.674674	0.961316	-0.000114
 707	7.0247e+01	5.9411	52.414133	0.000426	4.256005	0.720987	-0.000085
 708	7.0347e+01	5.9197	52.317242	0.000486	4.864006	0.823985	-0.000097
 709	7.0446e+01	5.8996	52.175942	0.000709	7.093342	1.201645	-0.000142
 710	7.0546e+01	5.8807	52.066940	0.000547	5.472007	0.926983	-0.000110
 711	7.0645e+01	5.8611	51.982160	0.000426	4.256005	0.720987	-0.000085
 712	7.0745e+01	5.8404	51.893343	0.000446	4.458672	0.755320	-0.000089
 713	7.0844e+01	5.8212	51.768192	0.000628	6.282675	1.064314	-0.000126
 714	7.0944e+01	5.8007	51.630929	0.000689	6.890675	1.167312	-0.000138
 715	7.1043e+01	5.7815	51.570372	0.000304	3.040004	0.514991	-0.000061
 716	7.1142e+01	5.7604	51.412924	0.000790	7.904010	1.338976	-0.000158
 717	7.1242e+01	5.7407	51.360441	0.000263	2.634670	0.446325	-0.000053
 718	7.1341e+01	5.7204	51.223178	0.000689	6.890675	1.167312	-0.000138
 719	7.1441e+01	5.7006	51.098027	0.000628	6.282675	1.064314	-0.000126
 720	7.1540e+01	5.6805	51.025359	0.000365	3.648005	0.617989	-0.000073
 721	7.1640e+01	5.6614	50.916356	0.000547	5.472007	0.926983	-0.000110
 722	7.1740e+01	5.6408	50.766982	0.000750	7.498676	1.270310	-0.000150
 723	7.1839e+01	5.6222	50.670091	0.000486	4.864006	0.823985	-0.000097
 724	7.1939e+01	5.6014	50.589348	0.000405	4.053338	0.686654	-0.000081
 725	7.2038e+01	5.5822	50.484382	0.000527	5.269340	0.892650	-0.000105
 726	7.2138e+01	5.5608	50.391528	0.000466	4.661339	0.789652	-0.000093
 727	7.2237e+01	5.5413	50.246191	0.000730	7.296009	1.235977	-0.000146
 728	7.2337e+01	5.5216	50.165449	0.000405	4.053338	0.686654	-0.000081
 729	7.2436e+01	5.5016	50.028186	0.000689	6.890675	1.167312	-0.000138
 730	7.2535e+01	5.4824	49.886886	0.000709	7.093342	1.201645	-0.000142
 731	7.2635e+01	5.4617	49.785958	0.000507	5.066673	0.858318	-0.000101
 732	7.2734e+01	5.4418	49.664844	0.000608	6.080008	1.029981	-0.000122
 733	7.2834e+01	5.4220	49.576027	0.000446	4.458672	0.755320	-0.000089
 734	7.2933e+01	5.4018	49.467024	0.000547	5.472007	0.926983	-0.000110
 735	7.3033e+01	5.3826	49.358022	0.000547	5.472007	0.926983	-0.000110
 736	7.3132e+01	5.3617	49.265167	0.000466	4.661339	0.789652	-0.000093
 737	7.3232e+01	5.3417	49.119831	0.000730	7.296009	1.235977	-0.000146
 738	7.3332e+01	5.3231	48.998716	0.000608	6.080008	1.029981	-0.000122
 739	7.3431e+01	5.3020	48.897788	0.000507	5.066673	0.858318	-0.000101
 740	7.3531e+01	5.2823	48.768600	0.000649	6.485341	1.098647	-0.000130
 741	7.3630e+01	5.2624	48.679783	0.000446	4.458672	0.755320	-0.000089
 742	7.3730e+01	5.2428	48.550594	0.000649	6.485341	1.098647	-0.000130
 743	7.3829e+01	5.2221	48.413332	0.000689	6.890675	1.167312	-0.000138
 744	7.3928e+01	5.2029	48.284143	0.000649	6.485341	1.098647	-0.000130
 745	7.4028e+01	5.1836	48.183215	0.000507	5.066673	0.858318	-0.000101
 746	7.4127e+01	5.1621	48.078250	0.000527	5.269340	0.892650	-0.000105
 747	7.4227e+01	5.1433	47.973284	0.000527	5.269340	0.892650	-0.000105
 748	7.4326e+01	5.1232	47.856207	0.000588	5.877341	0.995648	-0.000118
 749	7.4426e+01	5.1028	47.722982	0.000669	6.688008	1.132979	-0.000134
 750	7.4525e+01	5.0826	47.634165	0.000446	4.458672	0.755320	-0.000089
 751	7.4625e+01	5.0628	47.484791	0.000750	7.498676	1.270310	-0.000150
 752	7.4725e+01	5.0445	47.400011	0.000426	4.256005	0.720987	-0.000085
 753	7.4824e+01	5.0237	47.258711	0.000709	7.093342	1.201645	-0.000142
 754	7.4924e+01	5.0036	47.169894	0.000446	4.458672	0.755320	-0.000089
 755	7.5023e+01	4.9837	47.068966	0.000507	5.066673	0.858318	-0.000101
 756	7.5123e+01	4.9632	46.915554	0.000770	7.701343	1.304643	-0.000154
 757	7.5222e+01	4.9442	46.834812	0.000405	4.053338	0.686654	-0.000081
 758	7.5322e+01	4.9236	46.729846	0.000527	5.269340	0.892650	-0.000105
 759	7.5421e+01	4.9035	46.600658	0.000649	6.485341	1.098647	-0.000130
 760	7.5520e+01	4.8840	46.475507	0.000628	6.282675	1.064314	-0.000126
 761	7.5620e+01	4.8638	46.394764	0.000405	4.053338	0.686654	-0.000081
 762	7.5719e+01	4.8440	46.253464	0.000709	7.093342	1.201645	-0.000142
 763	7.5819e+01	4.8248	46.164647	0.000446	4.458672	0.755320	-0.000089
 764	7.5918e+01	4.8040	46.027385	0.000689	6.890675	1.167312	-0.000138
 765	7.6018e+01	4.7846	45.906270	0.000608	6.080008	1.029981	-0.000122
 766	7.6118e+01	4.7655	45.817453	0.000446	4.458672	0.755320	-0.000089
 767	7.6217e+01	4.7445	45.680191	0.000689	6.890675	1.167312	-0.000138
 768	7.6317e+01	4.7247	45.579262	0.000507	5.066673	0.858318	-0.000101
 769	7.6416e+01	4.7048	45.433926	0.000730	7.296009	1.235977	-0.000146
 770	7.6516e+01	4.6844	45.345109	0.000446	4.458672	0.755320	-0.000089
 771	7.6615e+01	4.6648	45.232069	0.000567	5.674674	0.961316	-0.000114
 772	7.6715e+01	4.6450	45.110955	0.000608	6.080008	1.029981	-0.000122
 773	7.6814e+01	4.6258	45.034249	0.000385	3.850671	0.652321	-0.000077
 774	7.6913e+01	4.6056	44.884875	0.000750	7.498676	1.270310	-0.000150
 775	7.7013e+01	4.5849	44.767798	0.000588	5.877341	0.995648	-0.000118
 776	7.7112e+01	4.5650	44.670907	0.000486	4.864006	0.823985	-0.000097
 777	7.7212e+01	4.5460	44.561904	0.000547	5.472007	0.926983	-0.000110
 778	7.7311e+01	4.5257	44.448864	0.000567	5.674674	0.961316	-0.000114
 779	7.7411e+01	4.5058	44.315639	0.000669	6.688008	1.132979	-0.000134
 780	7.7510e+01	4.4859	44.214711	0.000507	5.066673	0.858318	-0.000101
 781	7.7610e+01	4.4646	44.049188	0.000831	8.309344	1.407641	-0.000166
 782	7.7710e+01	4.4456	43.984594	0.000324	3.242671	0.549323	-0.000065
 783	7.7809e+01	4.4253	43.839257	0.000730	7.296009	1.235977	-0.000146
 784	7.7909e+01	4.4057	43.726217	0.000567	5.674674	0.961316	-0.000114
 785	7.8008e+01	4.3865	43.629326	0.000486	4.864006	0.823985	-0.000097
 786	7.8108e+01	4.3658	43.500138	0.000649	6.485341	1.098647	-0.000130
 787	7.8207e+01	4.3468	43.387098	0.000567	5.674674	0.961316	-0.000114
 788	7.8306e+01	4.3261	43.286169	0.000507	5.066673	0.858318	-0.000101
 789	7.8406e+01	4.3061	43.148907	0.000689	6.890675	1.167312	-0.000138
 790	7.8505e+01	4.2866	43.035867	0.000567	5.674674	0.961316	-0.000114
 791	7.8605e+01	4.2667	42.914753	0.000608	6.080008	1.029981	-0.000122
 792	7.8704e+01	4.2464	42.785565	0.000649	6.485341	1.098647	-0.000130
 793	7.8804e+01	4.2260	42.660413	0.000628	6.282675	1.064314	-0.000126
 794	7.8903e+01	4.2071	42.543336	0.000588	5.877341	0.995648	-0.000118
 795	7.9003e+01	4.1866	42.450482	0.000466	4.661339	0.789652	-0.000093
 796	7.9103e+01	4.1662	42.341480	0.000547	5.472007	0.926983	-0.000110
 797	7.9202e+01	4.1473	42.224403	0.000588	5.877341	0.995648	-0.000118
 798	7.9302e+01	4.1270	42.087140	0.000689	6.890675	1.167312	-0.000138
 799	7.9401e+01	4.1070	41.945840	0.000709	7.093342	1.201645	-0.000142
 800	7.9501e+01	4.0868	41.885283	0.000304	3.040004	0.514991	-0.000061
 801	7.9600e+01	4.0667	41.748021	0.000689	6.890675	1.167312	-0.000138
 802	7.9700e+01	4.0464	41.634981	0.000567	5.674674	0.961316	-0.000114
 803	7.9799e+01	4.0282	41.538090	0.000486	4.864006	0.823985	-0.000097
 804	7.9898e+01	4.0069	41.376604	0.000811	8.106677	1.373308	-0.000162
 805	7.9998e+01	3.9870	41.263564	0.000567	5.674674	0.961316	-0.000114
 806	8.0097e+01	3.9678	41.142450	0.000608	6.080008	1.029981	-0.000122
 807	8.0197e+01	3.9483	41.077856	0.000324	3.242671	0.549323	-0.000065
 808	8.0296e+01	3.9278	40.948668	0.000649	6.485341	1.098647	-0.000130
 809	8.0396e+01	3.9083	40.771034	0.000892	8.917344	1.510639	-0.000179
 810	8.0496e+01	3.8879	40.686254	0.000426	4.256005	0.720987	-0.000085
 811	8.0595e+01	3.8683	40.565140	0.000608	6.080008	1.029981	-0.000122
 812	8.0695e+01	3.8481	40.464212	0.000507	5.066673	0.858318	-0.000101
 813	8.0794e+01	3.8279	40.335023	0.000649	6.485341	1.098647	-0.000130
 814	8.0894e+01	3.8073	40.205835	0.000649	6.485341	1.098647	-0.000130
 815	8.0993e+01	3.7881	40.096832	0.000547	5.472007	0.926983	-0.000110
 816	8.1093e+01	3.7685	39.967644	0.000649	6.485341	1.098647	-0.000130
 817	8.1192e+01	3.7484	39.874790	0.000466	4.661339	0.789652	-0.000093
 818	8.1291e+01	3.7278	39.733490	0.000709	7.093342	1.201645	-0.000142
 819	8.1391e+01	3.7090	39.628524	0.000527	5.269340	0.892650	-0.000105
 820	8.1490e+01	3.6890	39.503373	0.000628	6.282675	1.064314	-0.000126
 821	8.1590e+01	3.6694	39.414556	0.000446	4.458672	0.755320	-0.000089
 822	8.1689e+01	3.6483	39.228848	0.000932	9.322678	1.579304	-0.000187
 823	8.1789e+01	3.6294	39.160217	0.000345	3.445338	0.583656	-0.000069
 824	8.1888e+01	3.6089	39.031028	0.000649	6.485341	1.098647	-0.000130
 825	8.1988e+01	3.5885	38.934137	0.000486	4.864006	0.823985	-0.000097
 826	8.2088e+01	3.5683	38.788800	0.000730	7.296009	1.235977	-0.000146
 827	8.2187e+01	3.5488	38.655575	0.000669	6.688008	1.132979	-0.000134
 828	8.2287e+01	3.5296	38.542535	0.000567	5.674674	0.961316	-0.000114
 829	8.2386e+01	3.5088	38.417384	0.000628	6.282675	1.064314	-0.000126
 830	8.2486e+01	3.4892	38.300307	0.000588	5.877341	0.995648	-0.000118
 831	8.2585e+01	3.4686	38.191304	0.000547	5.472007	0.926983	-0.000110
 832	8.2684e+01	3.4496	38.066153	0.000628	6.282675	1.064314	-0.000126
 833	8.2784e+01	3.4301	37.945039	0.000608	6.080008	1.029981	-0.000122
 834	8.2883e+01	3.4095	37.856222	0.000446	4.458672	0.755320	-0.000089
 835	8.2983e+01	3.3884	37.710885	0.000730	7.296009	1.235977	-0.000146
 836	8.3082e+01	3.3700	37.585734	0.000628	6.282675	1.064314	-0.000126
 837	8.3182e+01	3.3494	37.472694	0.000567	5.674674	0.961316	-0.000114
 838	8.3281e+01	3.3300	37.383877	0.000446	4.458672	0.755320	-0.000089
 839	8.3381e+01	3.3099	37.230466	0.000770	7.701343	1.304643	-0.000154
 840	8.3481e+01	3.2894	37.109352	0.000608	6.080008	1.029981	-0.000122
 841	8.3580e+01	3.2699	36.947866	0.000811	8.106677	1.373308	-0.000162
 842	8.3680e+01	3.2496	36.875198	0.000365	3.648005	0.617989	-0.000073
 843	8.3779e+01	3.2293	36.733898	0.000709	7.093342	1.201645	-0.000142
 844	8.3879e+01	3.2092	36.580487	0.000770	7.701343	1.304643	-0.000154
 845	8.3978e+01	3.1896	36.483596	0.000486	4.864006	0.823985	-0.000097
 846	8.4078e+01	3.1698	36.326147	0.000790	7.904010	1.338976	-0.000158
 847	8.4177e+01	3.1499	36.249442	0.000385	3.850671	0.652321	-0.000077
 848	8.4276e+01	3.1297	36.100068	0.000750	7.498676	1.270310	-0.000150
 849	8.4376e+01	3.1113	35.987028	0.000567	5.674674	0.961316	-0.000114
 850	8.4475e+01	3.0901	35.853802	0.000669	6.688008	1.132979	-0.000134
 851	8.4575e+01	3.0703	35.732688	0.000608	6.080008	1.029981	-0.000122
 852	8.4674e+01	3.0502	35.599463	0.000669	6.688008	1.132979	-0.000134
 853	8.4774e+01	3.0289	35.454126	0.000730	7.296009	1.235977	-0.000146
 854	8.4874e+01	3.0108	35.349161	0.000527	5.269340	0.892650	-0.000105
 855	8.4973e+01	2.9897	35.191712	0.000790	7.904010	1.338976	-0.000158
 856	8.5073e+01	2.9702	35.090784	0.000507	5.066673	0.858318	-0.000101
 857	8.5172e+01	2.9507	34.925261	0.000831	8.309344	1.407641	-0.000166
 858	8.5272e+01	2.9308	34.852593	0.000365	3.648005	0.617989	-0.000073
 859	8.5371e+01	2.9110	34.674959	0.000892	8.917344	1.510639	-0.000179
 860	8.5471e+01	2.8915	34.553845	0.000608	6.080008	1.029981	-0.000122
 861	8.5570e+01	2.8722	34.469065	0.000426	4.256005	0.720987	-0.000085
 862	8.5669e+01	2.8514	34.291431	0.000892	8.917344	1.510639	-0.000179
 863	8.5769e+01	2.8310	34.178391	0.000567	5.674674	0.961316	-0.000114
 864	8.5868e+01	2.8117	34.033054	0.000730	7.296009	1.235977	-0.000146
 865	8.5968e+01	2.7919	33.911940	0.000608	6.080008	1.029981	-0.000122
 866	8.6067e+01	2.7718	33.786789	0.000628	6.282675	1.064314	-0.000126
 867	8.6167e+01	2.7506	33.629341	0.000790	7.904010	1.338976	-0.000158
 868	8.6266e+01	2.7319	33.471892	0.000790	7.904010	1.338976	-0.000158
 869	8.6366e+01	2.7114	33.407298	0.000324	3.242671	0.549323	-0.000065
 870	8.6466e+01	2.6916	33.270036	0.000689	6.890675	1.167312	-0.000138
 871	8.6565e+01	2.6720	33.116624	0.000770	7.701343	1.304643	-0.000154
 872	8.6665e+01	2.6514	33.011659	0.000527	5.269340	0.892650	-0.000105
 873	8.6764e+01	2.6316	32.829988	0.000912	9.120011	1.544972	-0.000183
 874	8.6864e+01	2.6116	32.729059	0.000507	5.066673	0.858318	-0.000101
 875	8.6963e+01	2.5921	32.579685	0.000750	7.498676	1.270310	-0.000150
 876	8.7063e+01	2.5726	32.458571	0.000608	6.080008	1.029981	-0.000122
 877	8.7162e+01	2.5527	32.353606	0.000527	5.269340	0.892650	-0.000105
 878	8.7261e+01	2.5317	32.180009	0.000871	8.714678	1.476306	-0.000174
 879	8.7361e+01	2.5115	32.038709	0.000709	7.093342	1.201645	-0.000142
 880	8.7460e+01	2.4924	31.913558	0.000628	6.282675	1.064314	-0.000126
 881	8.7560e+01	2.4728	31.780333	0.000669	6.688008	1.132979	-0.000134
 882	8.7659e+01	2.4523	31.655181	0.000628	6.282675	1.064314	-0.000126
 883	8.7759e+01	2.4333	31.513882	0.000709	7.093342	1.201645	-0.000142
 884	8.7859e+01	2.4129	31.380656	0.000669	6.688008	1.132979	-0.000134
 885	8.7958e+01	2.3928	31.307988	0.000365	3.648005	0.617989	-0.000073
 886	8.8058e+01	2.3733	31.138428	0.000851	8.512011	1.441974	-0.000170
 887	8.8157e+01	2.3534	30.976943	0.000811	8.106677	1.373308	-0.000162
 888	8.8257e+01	2.3331	30.876014	0.000507	5.066673	0.858318	-0.000101
 889	8.8356e+01	2.3135	30.718566	0.000790	7.904010	1.338976	-0.000158
 890	8.8456e+01	2.2933	30.565155	0.000770	7.701343	1.304643	-0.000154
 891	8.8555e+01	2.2732	30.415781	0.000750	7.498676	1.270310	-0.000150
 892	8.8654e+01	2.2536	30.294667	0.000608	6.080008	1.029981	-0.000122
 893	8.8754e+01	2.2334	30.169515	0.000628	6.282675	1.064314	-0.000126
 894	8.8853e+01	2.2136	30.036290	0.000669	6.688008	1.132979	-0.000134
 895	8.8953e+01	2.1937	29.931324	0.000527	5.269340	0.892650	-0.000105
 896	8.9052e+01	2.1733	29.761765	0.000851	8.512011	1.441974	-0.000170
 897	8.9152e+01	2.1542	29.616428	0.000730	7.296009	1.235977	-0.000146
 898	8.9251e+01	2.1337	29.499351	0.000588	5.877341	0.995648	-0.000118
 899	8.9351e+01	2.1150	29.354014	0.000730	7.296009	1.235977	-0.000146
 900	8.9451e+01	2.0940	29.240974	0.000567	5.674674	0.961316	-0.000114
 901	8.9550e+01	2.0734	29.063340	0.000892	8.917344	1.510639	-0.000179
 902	8.9650e+01	2.0541	28.950300	0.000567	5.674674	0.961316	-0.000114
 903	8.9749e+01	2.0342	28.809001	0.000709	7.093342	1.201645	-0.000142
 904	8.9849e+01	2.0138	28.635404	0.000871	8.714678	1.476306	-0.000174
 905	8.9948e+01	1.9942	28.518327	0.000588	5.877341	0.995648	-0.000118
 906	9.0047e+01	1.9701	28.389139	0.000649	6.485341	1.098647	-0.000130
 907	9.0147e+01	1.9540	28.223616	0.000831	8.309344	1.407641	-0.000166
 908	9.0246e+01	1.9344	28.078279	0.000730	7.296009	1.235977	-0.000146
 909	9.0346e+01	1.9144	27.957165	0.000608	6.080008	1.029981	-0.000122
 910	9.0445e+01	1.8951	27.795680	0.000811	8.106677	1.373308	-0.000162
 911	9.0545e+01	1.8748	27.662454	0.000669	6.688008	1.132979	-0.000134
 912	9.0644e+01	1.8544	27.533266	0.000649	6.485341	1.098647	-0.000130
 913	9.0744e+01	1.8346	27.379855	0.000770	7.701343	1.304643	-0.000154
 914	9.0844e+01	1.8153	27.254703	0.000628	6.282675	1.064314	-0.000126
 915	9.0943e+01	1.7944	27.105329	0.000750	7.498676	1.270310	-0.000150
 916	9.1043e+01	1.7754	26.951918	0.000770	7.701343	1.304643	-0.000154
 917	9.1142e+01	1.7553	26.782358	0.000851	8.512011	1.441974	-0.000170
 918	9.1242e+01	1.7350	26.697579	0.000426	4.256005	0.720987	-0.000085
 919	9.1341e+01	1.7152	26.552242	0.000730	7.296009	1.235977	-0.000146
 920	9.1441e+01	1.6950	26.406905	0.000730	7.296009	1.235977	-0.000146
 921	9.1540e+01	1.6745	26.269642	0.000689	6.890675	1.167312	-0.000138
 922	9.1639e+01	1.6553	26.120268	0.000750	7.498676	1.270310	-0.000150
 923	9.1739e+01	1.6354	26.015303	0.000527	5.269340	0.892650	-0.000105
 924	9.1838e+01	1.6146	25.825557	0.000953	9.525345	1.613637	-0.000191
 925	9.1938e+01	1.5956	25.700406	0.000628	6.282675	1.064314	-0.000126
 926	9.2037e+01	1.5755	25.534884	0.000831	8.309344	1.407641	-0.000166
 927	9.2137e+01	1.5554	25.462215	0.000365	3.648005	0.617989	-0.000073
 928	9.2237e+01	1.5359	25.288618	0.000871	8.714678	1.476306	-0.000174
 929	9.2336e+01	1.5160	25.159430	0.000649	6.485341	1.098647	-0.000130
 930	9.2436e+01	1.4960	25.001982	0.000790	7.904010	1.338976	-0.000158
 931	9.2535e+01	1.4745	24.832422	0.000851	8.512011	1.441974	-0.000170
 932	9.2635e+01	1.4554	24.751679	0.000405	4.053338	0.686654	-0.000081
 933	9.2734e+01	1.4359	24.570008	0.000912	9.120011	1.544972	-0.000183
 934	9.2834e+01	1.4151	24.408523	0.000811	8.106677	1.373308	-0.000162
 935	9.2933e+01	1.3958	24.303557	0.000527	5.269340	0.892650	-0.000105
 936	9.3032e+01	1.3769	24.170332	0.000669	6.688008	1.132979	-0.000134
 937	9.3132e+01	1.3566	24.029032	0.000709	7.093342	1.201645	-0.000142
 938	9.3231e+01	1.3360	23.887732	0.000709	7.093342	1.201645	-0.000142
 939	9.3331e+01	1.3158	23.754507	0.000669	6.688008	1.132979	-0.000134
 940	9.3430e+01	1.2963	23.629355	0.000628	6.282675	1.064314	-0.000126
 941	9.3530e+01	1.2768	23.484019	0.000730	7.296009	1.235977	-0.000146
 942	9.3629e+01	1.2576	23.350793	0.000669	6.688008	1.132979	-0.000134
 943	9.3729e+01	1.2369	23.181233	0.000851	8.512011	1.441974	-0.000170
 944	9.3829e+01	1.2170	23.060119	0.000608	6.080008	1.029981	-0.000122
 945	9.3928e+01	1.1974	22.918820	0.000709	7.093342	1.201645	-0.000142
 946	9.4028e+01	1.1774	22.781557	0.000689	6.890675	1.167312	-0.000138
 947	9.4127e+01	1.1571	22.656406	0.000628	6.282675	1.064314	-0.000126
 948	9.4227e+01	1.1378	22.511069	0.000730	7.296009	1.235977	-0.000146
 949	9.4326e+01	1.1176	22.317286	0.000973	9.728012	1.647970	-0.000195
 950	9.4425e+01	1.0977	22.204247	0.000567	5.674674	0.961316	-0.000114
 951	9.4525e+01	1.0772	22.099281	0.000527	5.269340	0.892650	-0.000105
 952	9.4624e+01	1.0587	21.921647	0.000892	8.917344	1.510639	-0.000179
 953	9.4724e+01	1.0377	21.796496	0.000628	6.282675	1.064314	-0.000126
 954	9.4823e+01	1.0178	21.695567	0.000507	5.066673	0.858318	-0.000101
 955	9.4923e+01	0.9982	21.513896	0.000912	9.120011	1.544972	-0.000183
 956	9.5022e+01	0.9782	21.408931	0.000527	5.269340	0.892650	-0.000105
 957	9.5122e+01	0.9585	21.243408	0.000831	8.309344	1.407641	-0.000166
 958	9.5222e+01	0.9383	21.094034	0.000750	7.498676	1.270310	-0.000150
 959	9.5321e+01	0.9181	20.944660	0.000750	7.498676	1.270310	-0.000150
 960	9.5421e+01	0.8978	20.811435	0.000669	6.688008	1.132979	-0.000134
 961	9.5520e+01	0.8785	20.694358	0.000588	5.877341	0.995648	-0.000118
 962	9.5620e+01	0.8587	20.536909	0.000790	7.904010	1.338976	-0.000158
 963	9.5719e+01	0.8371	20.371387	0.000831	8.309344	1.407641	-0.000166
 964	9.5819e+01	0.8181	20.238161	0.000669	6.688008	1.132979	-0.000134
 965	9.5918e+01	0.7979	20.104936	0.000669	6.688008	1.132979	-0.000134
 966	9.6017e+01	0.7785	19.955562	0.000750	7.498676	1.270310	-0.000150
 967	9.6117e+01	0.7584	19.846559	0.000547	5.472007	0.926983	-0.000110
 968	9.6216e+01	0.7394	19.672962	0.000871	8.714678	1.476306	-0.000174
 969	9.6316e+01	0.7185	19.527626	0.000730	7.296009	1.235977	-0.000146
 970	9.6415e+01	0.6998	19.386326	0.000709	7.093342	1.201645	-0.000142
 971	9.6515e+01	0.6795	19.273286	0.000567	5.674674	0.961316	-0.000114
 972	9.6615e+01	0.6593	19.111801	0.000811	8.106677	1.373308	-0.000162
 973	9.6714e+01	0.6387	18.978575	0.000669	6.688008	1.132979	-0.000134
 974	9.6814e+01	0.6194	18.829201	0.000750	7.498676	1.270310	-0.000150
 975	9.6913e+01	0.5981	18.728273	0.000507	5.066673	0.858318	-0.000101
 976	9.7013e+01	0.5793	18.566787	0.000811	8.106677	1.373308	-0.000162
 977	9.7112e+01	0.5595	18.417413	0.000750	7.498676	1.270310	-0.000150
 978	9.7212e+01	0.5400	18.284188	0.000669	6.688008	1.132979	-0.000134
 979	9.7311e+01	0.5180	18.114628	0.000851	8.512011	1.441974	-0.000170
 980	9.7410e+01	0.4988	17.977365	0.000689	6.890675	1.167312	-0.000138
 981	9.7510e+01	0.4791	17.864326	0.000567	5.674674	0.961316	-0.000114
 982	9.7609e+01	0.4594	17.727063	0.000689	6.890675	1.167312	-0.000138
 983	9.7709e+01	0.4395	17.634209	0.000466	4.661339	0.789652	-0.000093
 984	9.7808e+01	0.4192	17.448501	0.000932	9.322678	1.579304	-0.000187
 985	9.7908e+01	0.4002	17.315275	0.000669	6.688008	1.132979	-0.000134
 986	9.8007e+01	0.3802	17.157827	0.000790	7.904010	1.338976	-0.000158
 987	9.8107e+01	0.3601	16.980193	0.000892	8.917344	1.510639	-0.000179
 988	9.8207e+01	0.3397	16.879265	0.000507	5.066673	0.858318	-0.000101
 989	9.8306e+01	0.3208	16.725853	0.000770	7.701343	1.304643	-0.000154
 990	9.8406e+01	0.3003	16.584554	0.000709	7.093342	1.201645	-0.000142
 991	9.8505e+01	0.2811	16.471514	0.000567	5.674674	0.961316	-0.000114
 992	9.8605e+01	0.2605	16.330214	0.000709	7.093342	1.201645	-0.000142
 993	9.8704e+01	0.2401	16.192951	0.000689	6.890675	1.167312	-0.000138
 994	9.8803e+01	0.2202	16.035503	0.000790	7.904010	1.338976	-0.000158
 995	9.8903e+01	0.2010	15.918426	0.000588	5.877341	0.995648	-0.000118
 996	9.9002e+01	0.1802	15.720607	0.000993	9.930679	1.682303	-0.000199
 997	9.9102e+01	0.1610	15.619678	0.000507	5.066673	0.858318	-0.000101
 998	9.9201e+01	0.1412	15.502601	0.000588	5.877341	0.995648	-0.000118
 999	9.9301e+01	0.1208	15.361301	0.000709	7.093342	1.201645	-0.000142
1000	9.9400e+01	0.1009	15.195779	0.000831	8.309344	1.407641	-0.000166
1001	9.9500e+01	0.0802	15.058516	0.000689	6.890675	1.167312	-0.000138
1002	9.9600e+01	0.0612	14.953551	0.000527	5.269340	0.892650	-0.000105
1003	9.9699e+01	0.0408	14.779954	0.000871	8.714678	1.476306	-0.000174
1004	9.9799e+01	0.0220	14.610394	0.000851	8.512011	1.441974	-0.000170
1005	9.9898e+01	0.0020	14.481206	0.000649	6.485341	1.098647	-0.000130
1006	9.9998e+01	-0.0175	14.319720	0.000811	8.106677	1.373308	-0.000162
1007	1.0010e+02	-0.0359	14.226866	0.000466	4.661339	0.789652	-0.000093
1008	1.0020e+02	-0.0569	14.093641	0.000669	6.688008	1.132979	-0.000134
1009	1.0030e+02	-0.0773	13.928118	0.000831	8.309344	1.407641	-0.000166
1010	1.0040e+02	-0.0969	13.762596	0.000831	8.309344	1.407641	-0.000166
1011	1.0050e+02	-0.1160	13.576887	0.000932	9.322678	1.579304	-0.000187
1012	1.0059e+02	-0.1353	13.467885	0.000547	5.472007	0.926983	-0.000110
1013	1.0069e+02	-0.1572	13.326585	0.000709	7.093342	1.201645	-0.000142
1014	1.0079e+02	-0.1761	13.177211	0.000750	7.498676	1.270310	-0.000150
1015	1.0089e+02	-0.1972	13.052060	0.000628	6.282675	1.064314	-0.000126
1016	1.0099e+02	-0.2165	12.910760	0.000709	7.093342	1.201645	-0.000142
1017	1.0109e+02	-0.2368	12.765423	0.000730	7.296009	1.235977	-0.000146
1018	1.0119e+02	-0.2557	12.616049	0.000750	7.498676	1.270310	-0.000150
1019	1.0129e+02	-0.2760	12.462638	0.000770	7.701343	1.304643	-0.000154
1020	1.0139e+02	-0.2957	12.264818	0.000993	9.930679	1.682303	-0.000199
1021	1.0149e+02	-0.3162	12.119481	0.000730	7.296009	1.235977	-0.000146
1022	1.0159e+02	-0.3352	12.026627	0.000466	4.661339	0.789652	-0.000093
1023	1.0169e+02	-0.3558	11.853031	0.000871	8.714678	1.476306	-0.000174
1024	1.0179e+02	-0.3751	11.707694	0.000730	7.296009	1.235977	-0.000146
1025	1.0189e+02	-0.3956	11.570431	0.000689	6.890675	1.167312	-0.000138
1026	1.0199e+02	-0.4156	11.412983	0.000790	7.904010	1.338976	-0.000158
1027	1.0209e+02	-0.4356	11.239386	0.000871	8.714678	1.476306	-0.000174
1028	1.0219e+02	-0.4549	11.073863	0.000831	8.309344	1.407641	-0.000166
1029	1.0229e+02	-0.4755	10.972935	0.000507	5.066673	0.858318	-0.000101
1030	1.0239e+02	-0.4946	10.831635	0.000709	7.093342	1.201645	-0.000142
1031	1.0248e+02	-0.5154	10.710521	0.000608	6.080008	1.029981	-0.000122
1032	1.0258e+02	-0.5354	10.516739	0.000973	9.728012	1.647970	-0.000195
1033	1.0268e+02	-0.5549	10.399662	0.000588	5.877341	0.995648	-0.000118
1034	1.0278e+02	-0.5753	10.250288	0.000750	7.498676	1.270310	-0.000150
1035	1.0288e+02	-0.5951	10.084765	0.000831	8.309344	1.407641	-0.000166
1036	1.0298e+02	-0.6144	9.951540	0.000669	6.688008	1.132979	-0.000134
1037	1.0308e+02	-0.6356	9.802166	0.000750	7.498676	1.270310	-0.000150
1038	1.0318e+02	-0.6543	9.664903	0.000689	6.890675	1.167312	-0.000138
1039	1.0328e+02	-0.6753	9.507455	0.000790	7.904010	1.338976	-0.000158
1040	1.0338e+02	-0.6955	9.354044	0.000770	7.701343	1.304643	-0.000154
1041	1.0348e+02	-0.7146	9.208707	0.000730	7.296009	1.235977	-0.000146
1042	1.0358e+02	-0.7346	9.087593	0.000608	6.080008	1.029981	-0.000122
1043	1.0368e+02	-0.7542	8.901884	0.000932	9.322678	1.579304	-0.000187
1044	1.0378e+02	-0.7748	8.776733	0.000628	6.282675	1.064314	-0.000126
1045	1.0388e+02	-0.7947	8.607173	0.000851	8.512011	1.441974	-0.000170
1046	1.0398e+02	-0.8143	8.490096	0.000588	5.877341	0.995648	-0.000118
1047	1.0408e+02	-0.8337	8.340722	0.000750	7.498676	1.270310	-0.000150
1048	1.0418e+02	-0.8542	8.171163	0.000851	8.512011	1.441974	-0.000170
1049	1.0428e+02	-0.8740	8.021789	0.000750	7.498676	1.270310	-0.000150
1050	1.0438e+02	-0.8932	7.860303	0.000811	8.106677	1.373308	-0.000162
1051	1.0447e+02	-0.9142	7.686706	0.000871	8.714678	1.476306	-0.000174
1052	1.0457e+02	-0.9343	7.577704	0.000547	5.472007	0.926983	-0.000110
1053	1.0467e+02	-0.9542	7.428330	0.000750	7.498676	1.270310	-0.000150
1054	1.0477e+02	-0.9737	7.287030	0.000709	7.093342	1.201645	-0.000142
1055	1.0487e+02	-0.9930	7.133619	0.000770	7.701343	1.304643	-0.000154
1056	1.0497e+02	-1.0143	6.939836	0.000973	9.728012	1.647970	-0.000195
1057	1.0507e+02	-1.0336	6.818722	0.000608	6.080008	1.029981	-0.000122
1058	1.0517e+02	-1.0550	6.669348	0.000750	7.498676	1.270310	-0.000150
1059	1.0527e+02	-1.0728	6.491714	0.000892	8.917344	1.510639	-0.000179
1060	1.0537e+02	-1.0935	6.342340	0.000750	7.498676	1.270310	-0.000150
1061	1.0547e+02	-1.1135	6.205078	0.000689	6.890675	1.167312	-0.000138
1062	1.0557e+02	-1.1334	6.083964	0.000608	6.080008	1.029981	-0.000122
1063	1.0567e+02	-1.1546	5.922478	0.000811	8.106677	1.373308	-0.000162
1064	1.0577e+02	-1.1731	5.793290	0.000649	6.485341	1.098647	-0.000130
1065	1.0587e+02	-1.1938	5.591433	0.001013	10.133346	1.716635	-0.000203
1066	1.0597e+02	-1.2135	5.478393	0.000567	5.674674	0.961316	-0.000114
1067	1.0607e+02	-1.2320	5.316908	0.000811	8.106677	1.373308	-0.000162
1068	1.0617e+02	-1.2523	5.183682	0.000669	6.688008	1.132979	-0.000134
1069	1.0627e+02	-1.2722	4.989900	0.000973	9.728012	1.647970	-0.000195
1070	1.0637e+02	-1.2921	4.860711	0.000649	6.485341	1.098647	-0.000130
1071	1.0647e+02	-1.3125	4.719412	0.000709	7.093342	1.201645	-0.000142
1072	1.0656e+02	-1.3314	4.541778	0.000892	8.917344	1.510639	-0.000179
1073	1.0666e+02	-1.3526	4.388367	0.000770	7.701343	1.304643	-0.000154
1074	1.0676e+02	-1.3721	4.247067	0.000709	7.093342	1.201645	-0.000142
1075	1.0686e+02	-1.3921	4.101730	0.000730	7.296009	1.235977	-0.000146
1076	1.0696e+02	-1.4123	3.936207	0.000831	8.309344	1.407641	-0.000166
1077	1.0706e+02	-1.4313	3.794908	0.000709	7.093342	1.201645	-0.000142
1078	1.0716e+02	-1.4511	3.637459	0.000790	7.904010	1.338976	-0.000158
1079	1.0726e+02	-1.4724	3.484048	0.000770	7.701343	1.304643	-0.000154
1080	1.0736e+02	-1.4913	3.387157	0.000486	4.864006	0.823985	-0.000097
1081	1.0746e+02	-1.5120	3.173189	0.001074	10.741347	1.819633	-0.000215
1082	1.0756e+02	-1.5324	3.019778	0.000770	7.701343	1.304643	-0.000154
1083	1.0766e+02	-1.5531	2.866366	0.000770	7.701343	1.304643	-0.000154
1084	1.0776e+02	-1.5717	2.745252	0.000608	6.080008	1.029981	-0.000122
1085	1.0786e+02	-1.5918	2.575693	0.000851	8.512011	1.441974	-0.000170
1086	1.0796e+02	-1.6106	2.414207	0.000811	8.106677	1.373308	-0.000162
1087	1.0806e+02	-1.6304	2.240610	0.000871	8.714678	1.476306	-0.000174
1088	1.0816e+02	-1.6525	2.119496	0.000608	6.080008	1.029981	-0.000122
1089	1.0826e+02	-1.6716	1.958011	0.000811	8.106677	1.373308	-0.000162
1090	1.0836e+02	-1.6913	1.804600	0.000770	7.701343	1.304643	-0.000154
1091	1.0845e+02	-1.7111	1.655226	0.000750	7.498676	1.270310	-0.000150
1092	1.0855e+02	-1.7307	1.522000	0.000669	6.688008	1.132979	-0.000134
1093	1.0865e+02	-1.7521	1.336292	0.000932	9.322678	1.579304	-0.000187
1094	1.0875e+02	-1.7709	1.227289	0.000547	5.472007	0.926983	-0.000110
1095	1.0885e+02	-1.7896	1.098101	0.000649	6.485341	1.098647	-0.000130
1096	1.0895e+02	-1.8106	0.916430	0.000912	9.120011	1.544972	-0.000183
1097	1.0905e+02	-1.8311	0.775130	0.000709	7.093342	1.201645	-0.000142
1098	1.0915e+02	-1.8503	0.629793	0.000730	7.296009	1.235977	-0.000146
1099	1.0925e+02	-1.8713	0.468308	0.000811	8.106677	1.373308	-0.000162
1100	1.0935e+02	-1.8890	0.343157	0.000628	6.282675	1.064314	-0.000126
1101	1.0945e+02	-1.9101	0.177634	0.000831	8.309344	1.407641	-0.000166
1102	1.0955e+02	-1.9308	0.016149	0.000811	8.106677	1.373308	-0.000162
1103	1.0965e+02	-1.9504	-0.141300	0.000790	7.904010	1.338976	-0.000158
1104	1.0975e+02	-1.9711	-0.246265	0.000527	5.269340	0.892650	-0.000105
1105	1.0985e+02	-1.9903	-0.407751	0.000811	8.106677	1.373308	-0.000162
1106	1.0995e+02	-2.0097	-0.565199	0.000790	7.904010	1.338976	-0.000158
1107	1.1005e+02	-2.0306	-0.718610	0.000770	7.701343	1.304643	-0.000154
1108	1.1015e+02	-2.0511	-0.835687	0.000588	5.877341	0.995648	-0.000118
1109	1.1025e+02	-2.0699	-0.989098	0.000770	7.701343	1.304643	-0.000154
1110	1.1035e+02	-2.0906	-1.146547	0.000790	7.904010	1.338976	-0.000158
1111	1.1044e+02	-2.1097	-1.275735	0.000649	6.485341	1.098647	-0.000130
1112	1.1054e+02	-2.1295	-1.400886	0.000628	6.282675	1.064314	-0.000126
1113	1.1064e+02	-2.1500	-1.602743	0.001013	10.133346	1.716635	-0.000203
1114	1.1074e+02	-2.1698	-1.740006	0.000689	6.890675	1.167312	-0.000138
1115	1.1084e+02	-2.1899	-1.897454	0.000790	7.904010	1.338976	-0.000158
1116	1.1094e+02	-2.2093	-2.030679	0.000669	6.688008	1.132979	-0.000134
1117	1.1104e+02	-2.2288	-2.167942	0.000689	6.890675	1.167312	-0.000138
1118	1.1114e+02	-2.2494	-2.333464	0.000831	8.309344	1.407641	-0.000166
1119	1.1124e+02	-2.2690	-2.470727	0.000689	6.890675	1.167312	-0.000138
1120	1.1134e+02	-2.2900	-2.595878	0.000628	6.282675	1.064314	-0.000126
1121	1.1144e+02	-2.3091	-2.757364	0.000811	8.106677	1.373308	-0.000162
1122	1.1154e+02	-2.3291	-2.846181	0.000446	4.458672	0.755320	-0.000089
1123	1.1164e+02	-2.3494	-3.031889	0.000932	9.322678	1.579304	-0.000187
1124	1.1174e+02	-2.3698	-3.148966	0.000588	5.877341	0.995648	-0.000118
1125	1.1184e+02	-2.3895	-3.354860	0.001034	10.336013	1.750968	-0.000207
1126	1.1194e+02	-2.4081	-3.455788	0.000507	5.066673	0.858318	-0.000101
1127	1.1204e+02	-2.4286	-3.593051	0.000689	6.890675	1.167312	-0.000138
1128	1.1214e+02	-2.4486	-3.762611	0.000851	8.512011	1.441974	-0.000170
1129	1.1224e+02	-2.4694	-3.928133	0.000831	8.309344	1.407641	-0.000166
1130	1.1234e+02	-2.4885	-4.057321	0.000649	6.485341	1.098647	-0.000130
1131	1.1244e+02	-2.5085	-4.170361	0.000567	5.674674	0.961316	-0.000114
1132	1.1253e+02	-2.5287	-4.327810	0.000790	7.904010	1.338976	-0.000158
1133	1.1263e+02	-2.5474	-4.456998	0.000649	6.485341	1.098647	-0.000130
1134	1.1273e+02	-2.5674	-4.614446	0.000790	7.904010	1.338976	-0.000158
1135	1.1283e+02	-2.5874	-4.743634	0.000649	6.485341	1.098647	-0.000130
1136	1.1293e+02	-2.6073	-4.933380	0.000953	9.525345	1.613637	-0.000191
1137	1.1303e+02	-2.6288	-5.022197	0.000446	4.458672	0.755320	-0.000089
1138	1.1313e+02	-2.6489	-5.191757	0.000851	8.512011	1.441974	-0.000170
1139	1.1323e+02	-2.6678	-5.345168	0.000770	7.701343	1.304643	-0.000154
1140	1.1333e+02	-2.6874	-5.494542	0.000750	7.498676	1.270310	-0.000150
1141	1.1343e+02	-2.7069	-5.627767	0.000669	6.688008	1.132979	-0.000134
1142	1.1353e+02	-2.7281	-5.801364	0.000871	8.714678	1.476306	-0.000174
1143	1.1363e+02	-2.7464	-5.934590	0.000669	6.688008	1.132979	-0.000134
1144	1.1373e+02	-2.7679	-6.055704	0.000608	6.080008	1.029981	-0.000122
1145	1.1383e+02	-2.7875	-6.209115	0.000770	7.701343	1.304643	-0.000154
1146	1.1393e+02	-2.8070	-6.358489	0.000750	7.498676	1.270310	-0.000150
1147	1.1403e+02	-2.8267	-6.475566	0.000588	5.877341	0.995648	-0.000118
1148	1.1413e+02	-2.8470	-6.624940	0.000750	7.498676	1.270310	-0.000150
1149	1.1423e+02	-2.8665	-6.778351	0.000770	7.701343	1.304643	-0.000154
1150	1.1433e+02	-2.8870	-6.923688	0.000730	7.296009	1.235977	-0.000146
1151	1.1442e+02	-2.9071	-7.048839	0.000628	6.282675	1.064314	-0.000126
1152	1.1452e+02	-2.9271	-7.186102	0.000689	6.890675	1.167312	-0.000138
1153	1.1462e+02	-2.9462	-7.363736	0.000892	8.917344	1.510639	-0.000179
1154	1.1472e+02	-2.9662	-7.480813	0.000588	5.877341	0.995648	-0.000118
1155	1.1482e+02	-2.9861	-7.605964	0.000628	6.282675	1.064314	-0.000126
1156	1.1492e+02	-3.0072	-7.767449	0.000811	8.106677	1.373308	-0.000162
1157	1.1502e+02	-3.0267	-7.904712	0.000689	6.890675	1.167312	-0.000138
1158	1.1512e+02	-3.0468	-8.054086	0.000750	7.498676	1.270310	-0.000150
1159	1.1522e+02	-3.0664	-8.187311	0.000669	6.688008	1.132979	-0.000134
1160	1.1532e+02	-3.0868	-8.296314	0.000547	5.472007	0.926983	-0.000110
1161	1.1542e+02	-3.1065	-8.445688	0.000750	7.498676	1.270310	-0.000150
1162	1.1552e+02	-3.1256	-8.623322	0.000892	8.917344	1.510639	-0.000179
1163	1.1562e+02	-3.1457	-8.720213	0.000486	4.864006	0.823985	-0.000097
1164	1.1572e+02	-3.1653	-8.889773	0.000851	8.512011	1.441974	-0.000170
1165	1.1582e+02	-3.1866	-8.994738	0.000527	5.269340	0.892650	-0.000105
1166	1.1592e+02	-3.2059	-9.136038	0.000709	7.093342	1.201645	-0.000142
1167	1.1602e+02	-3.2257	-9.293486	0.000790	7.904010	1.338976	-0.000158
1168	1.1612e+02	-3.2458	-9.442860	0.000750	7.498676	1.270310	-0.000150
1169	1.1622e+02	-3.2664	-9.555900	0.000567	5.674674	0.961316	-0.000114
1170	1.1632e+02	-3.2861	-9.713349	0.000790	7.904010	1.338976	-0.000158
1171	1.1642e+02	-3.3051	-9.850611	0.000689	6.890675	1.167312	-0.000138
1172	1.1651e+02	-3.3252	-9.991911	0.000709	7.093342	1.201645	-0.000142
1173	1.1661e+02	-3.3447	-10.153396	0.000811	8.106677	1.373308	-0.000162
1174	1.1671e+02	-3.3655	-10.270473	0.000588	5.877341	0.995648	-0.000118
1175	1.1681e+02	-3.3844	-10.427922	0.000790	7.904010	1.338976	-0.000158
1176	1.1691e+02	-3.4064	-10.480404	0.000263	2.634670	0.446325	-0.000053
1177	1.1701e+02	-3.4253	-10.690335	0.001054	10.538680	1.785301	-0.000211
1178	1.1711e+02	-3.4452	-10.791264	0.000507	5.066673	0.858318	-0.000101
1179	1.1721e+02	-3.4655	-10.981009	0.000953	9.525345	1.613637	-0.000191
1180	1.1731e+02	-3.4854	-11.085975	0.000527	5.269340	0.892650	-0.000105
1181	1.1741e+02	-3.5043	-11.251497	0.000831	8.309344	1.407641	-0.000166
1182	1.1751e+02	-3.5248	-11.352426	0.000507	5.066673	0.858318	-0.000101
1183	1.1761e+02	-3.5449	-11.566394	0.001074	10.741347	1.819633	-0.000215
1184	1.1771e+02	-3.5651	-11.651174	0.000426	4.256005	0.720987	-0.000085
1185	1.1781e+02	-3.5843	-11.820733	0.000851	8.512011	1.441974	-0.000170
1186	1.1791e+02	-3.6041	-11.994330	0.000871	8.714678	1.476306	-0.000174
1187	1.1801e+02	-3.6246	-12.123519	0.000649	6.485341	1.098647	-0.000130
1188	1.1811e+02	-3.6447	-12.212336	0.000446	4.458672	0.755320	-0.000089
1189	1.1821e+02	-3.6642	-12.389970	0.000892	8.917344	1.510639	-0.000179
1190	1.1831e+02	-3.6841	-12.535306	0.000730	7.296009	1.235977	-0.000146
1191	1.1841e+02	-3.7036	-12.672569	0.000689	6.890675	1.167312	-0.000138
1192	1.1850e+02	-3.7236	-12.777535	0.000527	5.269340	0.892650	-0.000105
1193	1.1860e+02	-3.7445	-12.971317	0.000973	9.728012	1.647970	-0.000195
1194	1.1870e+02	-3.7646	-13.092431	0.000608	6.080008	1.029981	-0.000122
1195	1.1880e+02	-3.7834	-13.209508	0.000588	5.877341	0.995648	-0.000118
1196	1.1890e+02	-3.8034	-13.366956	0.000790	7.904010	1.338976	-0.000158
1197	1.1900e+02	-3.8243	-13.492108	0.000628	6.282675	1.064314	-0.000126
1198	1.1910e+02	-3.8439	-13.661667	0.000851	8.512011	1.441974	-0.000170
1199	1.1920e+02	-3.8631	-13.798930	0.000689	6.890675	1.167312	-0.000138
1200	1.1930e+02	-3.8834	-13.916007	0.000588	5.877341	0.995648	-0.000118
1201	1.1940e+02	-3.9038	-14.057307	0.000709	7.093342	1.201645	-0.000142
1202	1.1950e+02	-3.9237	-14.218792	0.000811	8.106677	1.373308	-0.000162
1203	1.1960e+02	-3.9429	-14.392389	0.000871	8.714678	1.476306	-0.000174
1204	1.1970e+02	-3.9636	-14.501392	0.000547	5.472007	0.926983	-0.000110
1205	1.1980e+02	-3.9831	-14.626543	0.000628	6.282675	1.064314	-0.000126
1206	1.1990e+02	-4.0033	-14.800140	0.000871	8.714678	1.476306	-0.000174
1207	1.2000e+02	-4.0234	-14.925291	0.000628	6.282675	1.064314	-0.000126
1208	1.2010e+02	-4.0430	-15.070628	0.000730	7.296009	1.235977	-0.000146
1209	1.2020e+02	-4.0631	-15.191742	0.000608	6.080008	1.029981	-0.000122
1210	1.2030e+02	-4.0826	-15.349190	0.000790	7.904010	1.338976	-0.000158
1211	1.2039e+02	-4.1025	-15.466267	0.000588	5.877341	0.995648	-0.000118
1212	1.2049e+02	-4.1223	-15.627752	0.000811	8.106677	1.373308	-0.000162
1213	1.2059e+02	-4.1428	-15.765015	0.000689	6.890675	1.167312	-0.000138
1214	1.2069e+02	-4.1626	-15.890166	0.000628	6.282675	1.064314	-0.000126
1215	1.2079e+02	-4.1815	-16.043577	0.000770	7.701343	1.304643	-0.000154
1216	1.2089e+02	-4.2029	-16.221211	0.000892	8.917344	1.510639	-0.000179
1217	1.2099e+02	-4.2212	-16.318103	0.000486	4.864006	0.823985	-0.000097
1218	1.2109e+02	-4.2419	-16.439217	0.000608	6.080008	1.029981	-0.000122
1219	1.2119e+02	-4.2621	-16.600702	0.000811	8.106677	1.373308	-0.000162
1220	1.2129e+02	-4.2819	-16.717779	0.000588	5.877341	0.995648	-0.000118
1221	1.2139e+02	-4.3021	-16.875227	0.000790	7.904010	1.338976	-0.000158
1222	1.2149e+02	-4.3217	-17.020564	0.000730	7.296009	1.235977	-0.000146
1223	1.2159e+02	-4.3427	-17.141678	0.000608	6.080008	1.029981	-0.000122
1224	1.2169e+02	-4.3622	-17.307201	0.000831	8.309344	1.407641	-0.000166
1225	1.2179e+02	-4.3823	-17.460612	0.000770	7.701343	1.304643	-0.000154
1226	1.2189e+02	-4.4019	-17.597875	0.000689	6.890675	1.167312	-0.000138
1227	1.2199e+02	-4.4211	-17.706877	0.000547	5.472007	0.926983	-0.000110
1228	1.2209e+02	-4.4412	-17.872400	0.000831	8.309344	1.407641	-0.000166
1229	1.2219e+02	-4.4609	-17.993514	0.000608	6.080008	1.029981	-0.000122
1230	1.2229e+02	-4.4810	-18.134814	0.000709	7.093342	1.201645	-0.000142
1231	1.2239e+02	-4.5013	-18.300336	0.000831	8.309344	1.407641	-0.000166
1232	1.2248e+02	-4.5209	-18.421450	0.000608	6.080008	1.029981	-0.000122
1233	1.2258e+02	-4.5416	-18.542564	0.000608	6.080008	1.029981	-0.000122
1234	1.2268e+02	-4.5605	-18.716161	0.000871	8.714678	1.476306	-0.000174
1235	1.2278e+02	-4.5807	-18.873610	0.000790	7.904010	1.338976	-0.000158
1236	1.2288e+02	-4.6011	-18.990687	0.000588	5.877341	0.995648	-0.000118
1237	1.2298e+02	-4.6208	-19.107763	0.000588	5.877341	0.995648	-0.000118
1238	1.2308e+02	-4.6413	-19.281360	0.000871	8.714678	1.476306	-0.000174
1239	1.2318e+02	-4.6612	-19.374214	0.000466	4.661339	0.789652	-0.000093
1240	1.2328e+02	-4.6802	-19.527626	0.000770	7.701343	1.304643	-0.000154
1241	1.2338e+02	-4.7009	-19.733519	0.001034	10.336013	1.750968	-0.000207
1242	1.2348e+02	-4.7211	-19.826374	0.000466	4.661339	0.789652	-0.000093
1243	1.2358e+02	-4.7409	-19.963636	0.000689	6.890675	1.167312	-0.000138
1244	1.2368e+02	-4.7614	-20.108973	0.000730	7.296009	1.235977	-0.000146
1245	1.2378e+02	-4.7800	-20.262384	0.000770	7.701343	1.304643	-0.000154
1246	1.2388e+02	-4.8007	-20.403684	0.000709	7.093342	1.201645	-0.000142
1247	1.2398e+02	-4.8204	-20.512687	0.000547	5.472007	0.926983	-0.000110
1248	1.2408e+02	-4.8404	-20.670135	0.000790	7.904010	1.338976	-0.000158
1249	1.2418e+02	-4.8613	-20.815472	0.000730	7.296009	1.235977	-0.000146
1250	1.2428e+02	-4.8808	-20.972920	0.000790	7.904010	1.338976	-0.000158
1251	1.2438e+02	-4.9011	-21.106146	0.000669	6.688008	1.132979	-0.000134
1252	1.2447e+02	-4.9200	-21.251483	0.000730	7.296009	1.235977	-0.000146
1253	1.2457e+02	-4.9402	-21.392782	0.000709	7.093342	1.201645	-0.000142
1254	1.2467e+02	-4.9603	-21.558305	0.000831	8.309344	1.407641	-0.000166
1255	1.2477e+02	-4.9796	-21.659233	0.000507	5.066673	0.858318	-0.000101
1256	1.2487e+02	-4.9994	-21.788422	0.000649	6.485341	1.098647	-0.000130
1257	1.2497e+02	-5.0201	-21.949907	0.000811	8.106677	1.373308	-0.000162
1258	1.2507e+02	-5.0403	-22.054873	0.000527	5.269340	0.892650	-0.000105
1259	1.2517e+02	-5.0586	-22.204247	0.000750	7.498676	1.270310	-0.000150
1260	1.2527e+02	-5.0793	-22.398029	0.000973	9.728012	1.647970	-0.000195
1261	1.2537e+02	-5.0988	-22.523180	0.000628	6.282675	1.064314	-0.000126
1262	1.2547e+02	-5.1178	-22.656406	0.000669	6.688008	1.132979	-0.000134
1263	1.2557e+02	-5.1392	-22.777520	0.000608	6.080008	1.029981	-0.000122
1264	1.2567e+02	-5.1587	-22.890560	0.000567	5.674674	0.961316	-0.000114
1265	1.2577e+02	-5.1794	-23.056082	0.000831	8.309344	1.407641	-0.000166
1266	1.2587e+02	-5.1990	-23.185271	0.000649	6.485341	1.098647	-0.000130
1267	1.2597e+02	-5.2176	-23.375016	0.000953	9.525345	1.613637	-0.000191
1268	1.2607e+02	-5.2386	-23.479981	0.000527	5.269340	0.892650	-0.000105
1269	1.2617e+02	-5.2600	-23.605133	0.000628	6.282675	1.064314	-0.000126
1270	1.2627e+02	-5.2783	-23.738358	0.000669	6.688008	1.132979	-0.000134
1271	1.2636e+02	-5.2985	-23.859472	0.000608	6.080008	1.029981	-0.000122
1272	1.2646e+02	-5.3186	-24.004809	0.000730	7.296009	1.235977	-0.000146
1273	1.2656e+02	-5.3381	-24.182443	0.000892	8.917344	1.510639	-0.000179
1274	1.2666e+02	-5.3577	-24.331817	0.000750	7.498676	1.270310	-0.000150
1275	1.2676e+02	-5.3781	-24.452931	0.000608	6.080008	1.029981	-0.000122
1276	1.2686e+02	-5.3979	-24.630565	0.000892	8.917344	1.510639	-0.000179
1277	1.2696e+02	-5.4181	-24.707271	0.000385	3.850671	0.652321	-0.000077
1278	1.2706e+02	-5.4376	-24.852608	0.000730	7.296009	1.235977	-0.000146
1279	1.2716e+02	-5.4578	-24.965647	0.000567	5.674674	0.961316	-0.000114
1280	1.2726e+02	-5.4779	-25.119059	0.000770	7.701343	1.304643	-0.000154
1281	1.2736e+02	-5.4982	-25.276507	0.000790	7.904010	1.338976	-0.000158
1282	1.2746e+02	-5.5173	-25.413769	0.000689	6.890675	1.167312	-0.000138
1283	1.2756e+02	-5.5380	-25.571218	0.000790	7.904010	1.338976	-0.000158
1284	1.2766e+02	-5.5579	-25.696369	0.000628	6.282675	1.064314	-0.000126
1285	1.2776e+02	-5.5780	-25.793260	0.000486	4.864006	0.823985	-0.000097
1286	1.2786e+02	-5.5980	-25.946671	0.000770	7.701343	1.304643	-0.000154
1287	1.2796e+02	-5.6183	-26.087971	0.000709	7.093342	1.201645	-0.000142
1288	1.2806e+02	-5.6371	-26.261568	0.000871	8.714678	1.476306	-0.000174
1289	1.2816e+02	-5.6558	-26.386719	0.000628	6.282675	1.064314	-0.000126
1290	1.2826e+02	-5.6772	-26.536093	0.000750	7.498676	1.270310	-0.000150
1291	1.2835e+02	-5.6970	-26.677393	0.000709	7.093342	1.201645	-0.000142
1292	1.2845e+02	-5.7175	-26.830804	0.000770	7.701343	1.304643	-0.000154
1293	1.2855e+02	-5.7376	-26.935770	0.000527	5.269340	0.892650	-0.000105
1294	1.2865e+02	-5.7574	-27.081107	0.000730	7.296009	1.235977	-0.000146
1295	1.2875e+02	-5.7764	-27.246629	0.000831	8.309344	1.407641	-0.000166
1296	1.2885e+02	-5.7959	-27.391966	0.000730	7.296009	1.235977	-0.000146
1297	1.2895e+02	-5.8167	-27.525191	0.000669	6.688008	1.132979	-0.000134
1298	1.2905e+02	-5.8374	-27.666491	0.000709	7.093342	1.201645	-0.000142
1299	1.2915e+02	-5.8572	-27.832014	0.000831	8.309344	1.407641	-0.000166
1300	1.2925e+02	-5.8765	-27.924868	0.000466	4.661339	0.789652	-0.000093
1301	1.2935e+02	-5.8954	-28.110576	0.000932	9.322678	1.579304	-0.000187
1302	1.2945e+02	-5.9161	-28.235727	0.000628	6.282675	1.064314	-0.000126
1303	1.2955e+02	-5.9357	-28.332619	0.000486	4.864006	0.823985	-0.000097
1304	1.2965e+02	-5.9567	-28.526401	0.000973	9.728012	1.647970	-0.000195
1305	1.2975e+02	-5.9760	-28.659627	0.000669	6.688008	1.132979	-0.000134
1306	1.2985e+02	-5.9967	-28.788815	0.000649	6.485341	1.098647	-0.000130
1307	1.2995e+02	-6.0150	-28.958375	0.000851	8.512011	1.441974	-0.000170
1308	1.3005e+02	-6.0355	-29.119860	0.000811	8.106677	1.373308	-0.000162
1309	1.3015e+02	-6.0556	-29.249048	0.000649	6.485341	1.098647	-0.000130
1310	1.3025e+02	-6.0759	-29.345940	0.000486	4.864006	0.823985	-0.000097
1311	1.3034e+02	-6.0956	-29.515499	0.000851	8.512011	1.441974	-0.000170
1312	1.3044e+02	-6.1157	-29.689096	0.000871	8.714678	1.476306	-0.000174
1313	1.3054e+02	-6.1359	-29.802136	0.000567	5.674674	0.961316	-0.000114
1314	1.3064e+02	-6.1554	-29.955547	0.000770	7.701343	1.304643	-0.000154
1315	1.3074e+02	-6.1752	-30.076661	0.000608	6.080008	1.029981	-0.000122
1316	1.3084e+02	-6.1963	-30.230072	0.000770	7.701343	1.304643	-0.000154
1317	1.3094e+02	-6.2158	-30.383484	0.000770	7.701343	1.304643	-0.000154
1318	1.3104e+02	-6.2347	-30.569192	0.000932	9.322678	1.579304	-0.000187
1319	1.3114e+02	-6.2549	-30.706454	0.000689	6.890675	1.167312	-0.000138
1320	1.3124e+02	-6.2756	-30.795271	0.000446	4.458672	0.755320	-0.000089
1321	1.3134e+02	-6.2952	-30.972905	0.000892	8.917344	1.510639	-0.000179
1322	1.3144e+02	-6.3153	-31.106131	0.000669	6.688008	1.132979	-0.000134
1323	1.3154e+02	-6.3348	-31.219171	0.000567	5.674674	0.961316	-0.000114
1324	1.3164e+02	-6.3547	-31.408916	0.000953	9.525345	1.613637	-0.000191
1325	1.3174e+02	-6.3751	-31.562327	0.000770	7.701343	1.304643	-0.000154
1326	1.3184e+02	-6.3953	-31.695553	0.000669	6.688008	1.132979	-0.000134
1327	1.3194e+02	-6.4146	-31.804555	0.000547	5.472007	0.926983	-0.000110
1328	1.3204e+02	-6.4355	-31.974115	0.000851	8.512011	1.441974	-0.000170
1329	1.3214e+02	-6.4545	-32.111378	0.000689	6.890675	1.167312	-0.000138
1330	1.3224e+02	-6.4746	-32.264789	0.000770	7.701343	1.304643	-0.000154
1331	1.3234e+02	-6.4941	-32.398014	0.000669	6.688008	1.132979	-0.000134
1332	1.3243e+02	-6.5137	-32.579685	0.000912	9.120011	1.544972	-0.000183
1333	1.3253e+02	-6.5350	-32.716948	0.000689	6.890675	1.167312	-0.000138
1334	1.3263e+02	-6.5533	-32.858248	0.000709	7.093342	1.201645	-0.000142
1335	1.3273e+02	-6.5739	-33.031845	0.000871	8.714678	1.476306	-0.000174
1336	1.3283e+02	-6.5948	-33.144884	0.000567	5.674674	0.961316	-0.000114
1337	1.3293e+02	-6.6142	-33.294258	0.000750	7.498676	1.270310	-0.000150
1338	1.3303e+02	-6.6338	-33.492078	0.000993	9.930679	1.682303	-0.000199
1339	1.3313e+02	-6.6537	-33.605118	0.000567	5.674674	0.961316	-0.000114
1340	1.3323e+02	-6.6734	-33.766603	0.000811	8.106677	1.373308	-0.000162
1341	1.3333e+02	-6.6943	-33.907903	0.000709	7.093342	1.201645	-0.000142
1342	1.3343e+02	-6.7132	-34.081500	0.000871	8.714678	1.476306	-0.000174
1343	1.3353e+02	-6.7337	-34.222800	0.000709	7.093342	1.201645	-0.000142
1344	1.3363e+02	-6.7529	-34.368137	0.000730	7.296009	1.235977	-0.000146
1345	1.3373e+02	-6.7737	-34.529622	0.000811	8.106677	1.373308	-0.000162
1346	1.3383e+02	-6.7929	-34.670922	0.000709	7.093342	1.201645	-0.000142
1347	1.3393e+02	-6.8140	-34.844519	0.000871	8.714678	1.476306	-0.000174
1348	1.3403e+02	-6.8332	-34.953521	0.000547	5.472007	0.926983	-0.000110
1349	1.3413e+02	-6.8530	-35.123081	0.000851	8.512011	1.441974	-0.000170
1350	1.3423e+02	-6.8726	-35.308789	0.000932	9.322678	1.579304	-0.000187
1351	1.3432e+02	-6.8942	-35.482386	0.000871	8.714678	1.476306	-0.000174
1352	1.3442e+02	-6.9131	-35.635797	0.000770	7.701343	1.304643	-0.000154
1353	1.3452e+02	-6.9330	-35.781134	0.000730	7.296009	1.235977	-0.000146
1354	1.3462e+02	-6.9531	-35.886100	0.000527	5.269340	0.892650	-0.000105
1355	1.3472e+02	-6.9730	-36.075845	0.000953	9.525345	1.613637	-0.000191
1356	1.3482e+02	-6.9916	-36.261553	0.000932	9.322678	1.579304	-0.000187
1357	1.3492e+02	-7.0123	-36.423039	0.000811	8.106677	1.373308	-0.000162
1358	1.3502e+02	-7.0319	-36.544153	0.000608	6.080008	1.029981	-0.000122
1359	1.3512e+02	-7.0529	-36.770232	0.001135	11.349348	1.922632	-0.000227
1360	1.3522e+02	-7.0709	-36.879235	0.000547	5.472007	0.926983	-0.000110
1361	1.3532e+02	-7.0917	-37.085129	0.001034	10.336013	1.750968	-0.000207
1362	1.3542e+02	-7.1118	-37.234503	0.000750	7.498676	1.270310	-0.000150
1363	1.3552e+02	-7.1326	-37.400025	0.000831	8.309344	1.407641	-0.000166
1364	1.3562e+02	-7.1513	-37.525177	0.000628	6.282675	1.064314	-0.000126
1365	1.3572e+02	-7.1716	-37.694736	0.000851	8.512011	1.441974	-0.000170
1366	1.3582e+02	-7.1927	-37.928890	0.001175	11.754681	1.991297	-0.000235
1367	1.3592e+02	-7.2119	-38.025782	0.000486	4.864006	0.823985	-0.000097
1368	1.3602e+02	-7.2318	-38.199378	0.000871	8.714678	1.476306	-0.000174
1369	1.3612e+02	-7.2519	-38.417384	0.001094	10.944014	1.853966	-0.000219
1370	1.3622e+02	-7.2717	-38.510238	0.000466	4.661339	0.789652	-0.000093
1371	1.3631e+02	-7.2913	-38.695946	0.000932	9.322678	1.579304	-0.000187
1372	1.3641e+02	-7.3114	-38.849357	0.000770	7.701343	1.304643	-0.000154
1373	1.3651e+02	-7.3315	-39.018917	0.000851	8.512011	1.441974	-0.000170
1374	1.3661e+02	-7.3505	-39.196551	0.000892	8.917344	1.510639	-0.000179
1375	1.3671e+02	-7.3706	-39.366111	0.000851	8.512011	1.441974	-0.000170
1376	1.3681e+02	-7.3907	-39.539707	0.000871	8.714678	1.476306	-0.000174
1377	1.3691e+02	-7.4112	-39.713304	0.000871	8.714678	1.476306	-0.000174
1378	1.3701e+02	-7.4310	-39.870753	0.000790	7.904010	1.338976	-0.000158
1379	1.3711e+02	-7.4512	-40.036275	0.000831	8.309344	1.407641	-0.000166
1380	1.3721e+02	-7.4707	-40.217946	0.000912	9.120011	1.544972	-0.000183
1381	1.3731e+02	-7.4915	-40.383469	0.000831	8.309344	1.407641	-0.000166
1382	1.3741e+02	-7.5119	-40.597437	0.001074	10.741347	1.819633	-0.000215
1383	1.3751e+02	-7.5311	-40.746811	0.000750	7.498676	1.270310	-0.000150
1384	1.3761e+02	-7.5507	-40.908296	0.000811	8.106677	1.373308	-0.000162
1385	1.3771e+02	-7.5702	-41.114190	0.001034	10.336013	1.750968	-0.000207
1386	1.3781e+02	-7.5902	-41.291824	0.000892	8.917344	1.510639	-0.000179
1387	1.3791e+02	-7.6105	-41.429087	0.000689	6.890675	1.167312	-0.000138
1388	1.3801e+02	-7.6312	-41.651129	0.001115	11.146681	1.888299	-0.000223
1389	1.3811e+02	-7.6508	-41.808578	0.000790	7.904010	1.338976	-0.000158
1390	1.3821e+02	-7.6703	-41.994286	0.000932	9.322678	1.579304	-0.000187
1391	1.3831e+02	-7.6898	-42.127511	0.000669	6.688008	1.132979	-0.000134
1392	1.3840e+02	-7.7100	-42.329368	0.001013	10.133346	1.716635	-0.000203
1393	1.3850e+02	-7.7295	-42.511039	0.000912	9.120011	1.544972	-0.000183
1394	1.3860e+02	-7.7490	-42.676562	0.000831	8.309344	1.407641	-0.000166
1395	1.3870e+02	-7.7686	-42.858233	0.000912	9.120011	1.544972	-0.000183
1396	1.3880e+02	-7.7893	-43.076238	0.001094	10.944014	1.853966	-0.000219
1397	1.3890e+02	-7.8094	-43.249835	0.000871	8.714678	1.476306	-0.000174
1398	1.3900e+02	-7.8299	-43.419395	0.000851	8.512011	1.441974	-0.000170
1399	1.3910e+02	-7.8482	-43.661623	0.001216	12.160015	2.059962	-0.000243
1400	1.3920e+02	-7.8687	-43.782737	0.000608	6.080008	1.029981	-0.000122
1401	1.3930e+02	-7.8888	-43.952297	0.000851	8.512011	1.441974	-0.000170
1402	1.3940e+02	-7.9083	-44.166265	0.001074	10.741347	1.819633	-0.000215
1403	1.3950e+02	-7.9291	-44.368122	0.001013	10.133346	1.716635	-0.000203
1404	1.3960e+02	-7.9491	-44.533644	0.000831	8.309344	1.407641	-0.000166
1405	1.3970e+02	-7.9694	-44.723390	0.000953	9.525345	1.613637	-0.000191
1406	1.3980e+02	-7.9895	-44.905061	0.000912	9.120011	1.544972	-0.000183
1407	1.3990e+02	-8.0087	-45.143252	0.001196	11.957348	2.025630	-0.000239
1408	1.4000e+02	-8.0286	-45.357220	0.001074	10.741347	1.819633	-0.000215
1409	1.4010e+02	-8.0481	-45.518705	0.000811	8.106677	1.373308	-0.000162
1410	1.4020e+02	-8.0688	-45.700377	0.000912	9.120011	1.544972	-0.000183
1411	1.4029e+02	-8.0878	-45.890122	0.000953	9.525345	1.613637	-0.000191
1412	1.4039e+02	-8.1079	-46.043533	0.000770	7.701343	1.304643	-0.000154
1413	1.4049e+02	-8.1259	-46.309984	0.001338	13.376017	2.265959	-0.000268
1414	1.4059e+02	-8.1476	-46.487618	0.000892	8.917344	1.510639	-0.000179
1415	1.4069e+02	-8.1677	-46.689475	0.001013	10.133346	1.716635	-0.000203
1416	1.4079e+02	-8.1873	-46.891332	0.001013	10.133346	1.716635	-0.000203
1417	1.4089e+02	-8.2086	-47.101263	0.001054	10.538680	1.785301	-0.000211
1418	1.4099e+02	-8.2272	-47.278897	0.000892	8.917344	1.510639	-0.000179
1419	1.4109e+02	-8.2465	-47.448456	0.000851	8.512011	1.441974	-0.000170
1420	1.4119e+02	-8.2675	-47.674536	0.001135	11.349348	1.922632	-0.000227
1421	1.4129e+02	-8.2880	-47.888504	0.001074	10.741347	1.819633	-0.000215
1422	1.4139e+02	-8.3069	-48.106509	0.001094	10.944014	1.853966	-0.000219
1423	1.4149e+02	-8.3270	-48.272032	0.000831	8.309344	1.407641	-0.000166
1424	1.4159e+02	-8.3472	-48.461777	0.000953	9.525345	1.613637	-0.000191
1425	1.4169e+02	-8.3667	-48.691894	0.001155	11.552014	1.956964	-0.000231
1426	1.4179e+02	-8.3868	-48.889714	0.000993	9.930679	1.682303	-0.000199
1427	1.4189e+02	-8.4070	-49.099645	0.001054	10.538680	1.785301	-0.000211
1428	1.4199e+02	-8.4265	-49.273242	0.000871	8.714678	1.476306	-0.000174
1429	1.4209e+02	-8.4460	-49.483173	0.001054	10.538680	1.785301	-0.000211
1430	1.4219e+02	-8.4662	-49.741549	0.001297	12.970683	2.197293	-0.000260
1431	1.4228e+02	-8.4863	-49.927258	0.000932	9.322678	1.579304	-0.000187
1432	1.4238e+02	-8.5065	-50.145263	0.001094	10.944014	1.853966	-0.000219
1433	1.4248e+02	-8.5272	-50.302711	0.000790	7.904010	1.338976	-0.000158
1434	1.4258e+02	-8.5464	-50.544939	0.001216	12.160015	2.059962	-0.000243
1435	1.4268e+02	-8.5669	-50.771019	0.001135	11.349348	1.922632	-0.000227
1436	1.4278e+02	-8.5870	-50.940579	0.000851	8.512011	1.441974	-0.000170
1437	1.4288e+02	-8.6060	-51.178770	0.001196	11.957348	2.025630	-0.000239
1438	1.4298e+02	-8.6264	-51.416961	0.001196	11.957348	2.025630	-0.000239
1439	1.4308e+02	-8.6469	-51.590558	0.000871	8.714678	1.476306	-0.000174
1440	1.4318e+02	-8.6664	-51.808563	0.001094	10.944014	1.853966	-0.000219
1441	1.4328e+02	-8.6865	-52.022531	0.001074	10.741347	1.819633	-0.000215
1442	1.4338e+02	-8.7054	-52.220351	0.000993	9.930679	1.682303	-0.000199
1443	1.4348e+02	-8.7256	-52.470653	0.001257	12.565349	2.128628	-0.000252
1444	1.4358e+02	-8.7445	-52.680584	0.001054	10.538680	1.785301	-0.000211
1445	1.4368e+02	-8.7659	-52.898590	0.001094	10.944014	1.853966	-0.000219
1446	1.4378e+02	-8.7848	-53.128706	0.001155	11.552014	1.956964	-0.000231
1447	1.4388e+02	-8.8062	-53.383046	0.001277	12.768016	2.162960	-0.000256
1448	1.4398e+02	-8.8251	-53.556643	0.000871	8.714678	1.476306	-0.000174
1449	1.4408e+02	-8.8452	-53.794834	0.001196	11.957348	2.025630	-0.000239
1450	1.4418e+02	-8.8660	-54.016876	0.001115	11.146681	1.888299	-0.000223
1451	1.4428e+02	-8.8849	-54.246993	0.001155	11.552014	1.956964	-0.000231
1452	1.4437e+02	-8.9063	-54.493258	0.001236	12.362682	2.094295	-0.000248
1453	1.4447e+02	-8.9246	-54.719338	0.001135	11.349348	1.922632	-0.000227
1454	1.4457e+02	-8.9447	-54.888897	0.000851	8.512011	1.441974	-0.000170
1455	1.4467e+02	-8.9642	-55.131126	0.001216	12.160015	2.059962	-0.000243
1456	1.4477e+02	-8.9844	-55.369317	0.001196	11.957348	2.025630	-0.000239
1457	1.4487e+02	-9.0051	-55.607508	0.001196	11.957348	2.025630	-0.000239
1458	1.4497e+02	-9.0247	-55.833587	0.001135	11.349348	1.922632	-0.000227
1459	1.4507e+02	-9.0451	-56.075815	0.001216	12.160015	2.059962	-0.000243
1460	1.4517e+02	-9.0637	-56.285746	0.001054	10.538680	1.785301	-0.000211
1461	1.4527e+02	-9.0839	-56.572383	0.001439	14.389351	2.437622	-0.000288
1462	1.4537e+02	-9.1034	-56.822686	0.001257	12.565349	2.128628	-0.000252
1463	1.4547e+02	-9.1245	-57.000319	0.000892	8.917344	1.510639	-0.000179
1464	1.4557e+02	-9.1443	-57.262733	0.001317	13.173350	2.231626	-0.000264
1465	1.4567e+02	-9.1638	-57.508999	0.001236	12.362682	2.094295	-0.000248
1466	1.4577e+02	-9.1846	-57.759301	0.001257	12.565349	2.128628	-0.000252
1467	1.4587e+02	-9.2047	-57.989418	0.001155	11.552014	1.956964	-0.000231
1468	1.4597e+02	-9.2249	-58.227609	0.001196	11.957348	2.025630	-0.000239
1469	1.4607e+02	-9.2432	-58.469837	0.001216	12.160015	2.059962	-0.000243
1470	1.4617e+02	-9.2639	-58.736288	0.001338	13.376017	2.265959	-0.000268
1471	1.4626e+02	-9.2834	-58.994665	0.001297	12.970683	2.197293	-0.000260
1472	1.4636e+02	-9.3036	-59.240930	0.001236	12.362682	2.094295	-0.000248
1473	1.4646e+02	-9.3231	-59.454898	0.001074	10.741347	1.819633	-0.000215
1474	1.4656e+02	-9.3423	-59.737498	0.001419	14.186684	2.403289	-0.000284
1475	1.4666e+02	-9.3640	-59.999911	0.001317	13.173350	2.231626	-0.000264
1476	1.4676e+02	-9.3829	-60.294622	0.001479	14.794685	2.506288	-0.000296
1477	1.4686e+02	-9.4025	-60.544925	0.001257	12.565349	2.128628	-0.000252
1478	1.4696e+02	-9.4232	-60.779079	0.001175	11.754681	1.991297	-0.000235
1479	1.4706e+02	-9.4434	-61.005158	0.001135	11.349348	1.922632	-0.000227
1480	1.4716e+02	-9.4629	-61.307943	0.001520	15.200019	2.574953	-0.000304
1481	1.4726e+02	-9.4836	-61.582469	0.001378	13.781351	2.334624	-0.000276
1482	1.4736e+02	-9.5032	-61.832771	0.001257	12.565349	2.128628	-0.000252
1483	1.4746e+02	-9.5233	-62.070962	0.001196	11.957348	2.025630	-0.000239
1484	1.4756e+02	-9.5428	-62.381821	0.001561	15.605353	2.643618	-0.000312
1485	1.4766e+02	-9.5636	-62.640198	0.001297	12.970683	2.197293	-0.000260
1486	1.4776e+02	-9.5831	-62.926835	0.001439	14.389351	2.437622	-0.000288
1487	1.4786e+02	-9.6014	-63.132729	0.001034	10.336013	1.750968	-0.000207
1488	1.4796e+02	-9.6216	-63.459737	0.001642	16.416021	2.780949	-0.000329
1489	1.4806e+02	-9.6417	-63.697928	0.001196	11.957348	2.025630	-0.000239
1490	1.4816e+02	-9.6619	-64.041084	0.001723	17.226688	2.918280	-0.000345
1491	1.4825e+02	-9.6823	-64.299461	0.001297	12.970683	2.197293	-0.000260
1492	1.4835e+02	-9.7018	-64.578023	0.001398	13.984017	2.368957	-0.000280
1493	1.4845e+02	-9.7217	-64.836400	0.001297	12.970683	2.197293	-0.000260
1494	1.4855e+02	-9.7423	-65.139185	0.001520	15.200019	2.574953	-0.000304
1495	1.4865e+02	-9.7620	-65.446007	0.001540	15.402686	2.609286	-0.000308
1496	1.4875e+02	-9.7827	-65.700347	0.001277	12.768016	2.162960	-0.000256
1497	1.4885e+02	-9.8010	-65.999095	0.001500	14.997352	2.540620	-0.000300
1498	1.4895e+02	-9.8212	-66.318029	0.001601	16.010687	2.712284	-0.000321
1499	1.4905e+02	-9.8419	-66.592554	0.001378	13.781351	2.334624	-0.000276
1500	1.4915e+02	-9.8615	-66.871116	0.001398	13.984017	2.368957	-0.000280
1501	1.4925e+02	-9.8816	-67.145642	0.001378	13.781351	2.334624	-0.000276
1502	1.4935e+02	-9.9023	-67.436315	0.001459	14.592018	2.471955	-0.000292
1503	1.4945e+02	-9.9213	-67.747175	0.001561	15.605353	2.643618	-0.000312
1504	1.4955e+02	-9.9408	-68.058034	0.001561	15.605353	2.643618	-0.000312
1505	1.4965e+02	-9.9619	-68.376968	0.001601	16.010687	2.712284	-0.000321
1506	1.4975e+02	-9.9805	-68.647456	0.001358	13.578684	2.300291	-0.000272
1507	1.4985e+02	-10.0000	-69.006761	0.001804	18.037356	3.055611	-0.000361
1508	1.4995e+02	-9.9805	-69.107690	-0.000507	-5.066673	-0.858318	-0.000101
1509	1.5005e+02	-9.9615	-69.281286	-0.000871	-8.714678	-1.476306	-0.000174
1510	1.5015e+02	-9.9408	-69.382215	-0.000507	-5.066673	-0.858318	-0.000101
1511	1.5025e+02	-9.9200	-69.495255	-0.000567	-5.674674	-0.961316	-0.000114
1512	1.5034e+02	-9.9011	-69.575997	-0.000405	-4.053338	-0.686654	-0.000081
1513	1.5044e+02	-9.8816	-69.713260	-0.000689	-6.890675	-1.167312	-0.000138
1514	1.5054e+02	-9.8608	-69.777854	-0.000324	-3.242671	-0.549323	-0.000065
1515	1.5064e+02	-9.8413	-69.874745	-0.000486	-4.864006	-0.823985	-0.000097
1516	1.5074e+02	-9.8218	-69.951451	-0.000385	-3.850671	-0.652321	-0.000077
1517	1.5084e+02	-9.8016	-70.016045	-0.000324	-3.242671	-0.549323	-0.000065
1518	1.5094e+02	-9.7815	-70.080639	-0.000324	-3.242671	-0.549323	-0.000065
1519	1.5104e+02	-9.7607	-70.133122	-0.000263	-2.634670	-0.446325	-0.000053
1520	1.5114e+02	-9.7424	-70.217902	-0.000426	-4.256005	-0.720987	-0.000085
1521	1.5124e+02	-9.7229	-70.266348	-0.000243	-2.432003	-0.411992	-0.000049
1522	1.5134e+02	-9.7018	-70.306719	-0.000203	-2.026669	-0.343327	-0.000041
1523	1.5144e+02	-9.6826	-70.367276	-0.000304	-3.040004	-0.514991	-0.000061
1524	1.5154e+02	-9.6625	-70.411684	-0.000223	-2.229336	-0.377660	-0.000045
1525	1.5164e+02	-9.6417	-70.472241	-0.000304	-3.040004	-0.514991	-0.000061
1526	1.5174e+02	-9.6228	-70.508576	-0.000182	-1.824002	-0.308994	-0.000037
1527	1.5184e+02	-9.6021	-70.532798	-0.000122	-1.216002	-0.205996	-0.000024
1528	1.5194e+02	-9.5819	-70.528761	0.000020	0.202667	0.034333	0.000004
1529	1.5204e+02	-9.5630	-70.625653	-0.000486	-4.864006	-0.823985	-0.000097
1530	1.5214e+02	-9.5428	-70.605467	0.000101	1.013335	0.171664	0.000020
1531	1.5224e+02	-9.5238	-70.641801	-0.000182	-1.824002	-0.308994	-0.000037
1532	1.5233e+02	-9.5026	-70.653913	-0.000061	-0.608001	-0.102998	-0.000012
1533	1.5243e+02	-9.4830	-70.657950	-0.000020	-0.202667	-0.034333	-0.000004
1534	1.5253e+02	-9.4629	-70.694284	-0.000182	-1.824002	-0.308994	-0.000037
1535	1.5263e+02	-9.4431	-70.686210	0.000041	0.405334	0.068665	0.000008
1536	1.5273e+02	-9.4232	-70.706395	-0.000101	-1.013335	-0.171664	-0.000020
1537	1.5283e+02	-9.4025	-70.726581	-0.000101	-1.013335	-0.171664	-0.000020
1538	1.5293e+02	-9.3829	-70.726581	0.000000	0.000000	0.000000	0.000000
1539	1.5303e+02	-9.3634	-70.762915	-0.000182	-1.824002	-0.308994	-0.000037
1540	1.5313e+02	-9.3433	-70.726581	0.000182	1.824002	0.308994	0.000037
1541	1.5323e+02	-9.3237	-70.718507	0.000041	0.405334	0.068665	0.000008
1542	1.5333e+02	-9.3030	-70.734655	-0.000081	-0.810668	-0.137331	-0.000016
1543	1.5343e+02	-9.2828	-70.787138	-0.000263	-2.634670	-0.446325	-0.000053
1544	1.5353e+02	-9.2627	-70.750804	0.000182	1.824002	0.308994	0.000037
1545	1.5363e+02	-9.2432	-70.730618	0.000101	1.013335	0.171664	0.000020
1546	1.5373e+02	-9.2236	-70.702358	0.000142	1.418668	0.240329	0.000028
1547	1.5383e+02	-9.2041	-70.714470	-0.000061	-0.608001	-0.102998	-0.000012
1548	1.5393e+02	-9.1840	-70.726581	-0.000061	-0.608001	-0.102998	-0.000012
1549	1.5403e+02	-9.1644	-70.686210	0.000203	2.026669	0.343327	0.000041
1550	1.5413e+02	-9.1443	-70.653913	0.000162	1.621335	0.274662	0.000032
1551	1.5422e+02	-9.1248	-70.629690	0.000122	1.216002	0.205996	0.000024
1552	1.5432e+02	-9.1034	-70.641801	-0.000061	-0.608001	-0.102998	-0.000012
1553	1.5442e+02	-9.0851	-70.577207	0.000324	3.242671	0.549323	0.000065
1554	1.5452e+02	-9.0643	-70.597393	-0.000101	-1.013335	-0.171664	-0.000020
1555	1.5462e+02	-9.0442	-70.569133	0.000142	1.418668	0.240329	0.000028
1556	1.5472e+02	-9.0234	-70.512613	0.000284	2.837337	0.480658	0.000057
1557	1.5482e+02	-9.0051	-70.512613	0.000000	0.000000	0.000000	0.000000
1558	1.5492e+02	-8.9850	-70.472241	0.000203	2.026669	0.343327	0.000041
1559	1.5502e+02	-8.9648	-70.452056	0.000101	1.013335	0.171664	0.000020
1560	1.5512e+02	-8.9441	-70.407647	0.000223	2.229336	0.377660	0.000045
1561	1.5522e+02	-8.9255	-70.423796	-0.000081	-0.810668	-0.137331	-0.000016
1562	1.5532e+02	-8.9056	-70.330942	0.000466	4.661339	0.789652	0.000093
1563	1.5542e+02	-8.8846	-70.298645	0.000162	1.621335	0.274662	0.000032
1564	1.5552e+02	-8.8660	-70.262310	0.000182	1.824002	0.308994	0.000037
1565	1.5562e+02	-8.8449	-70.246162	0.000081	0.810668	0.137331	0.000016
1566	1.5572e+02	-8.8263	-70.234050	0.000061	0.608001	0.102998	0.000012
1567	1.5582e+02	-8.8062	-70.173493	0.000304	3.040004	0.514991	0.000061
1568	1.5592e+02	-8.7860	-70.129085	0.000223	2.229336	0.377660	0.000045
1569	1.5602e+02	-8.7671	-70.112936	0.000081	0.810668	0.137331	0.000016
1570	1.5612e+02	-8.7460	-70.044305	0.000345	3.445338	0.583656	0.000069
1571	1.5622e+02	-8.7262	-70.016045	0.000142	1.418668	0.240329	0.000028
1572	1.5631e+02	-8.7073	-70.007971	0.000041	0.405334	0.068665	0.000008
1573	1.5641e+02	-8.6865	-69.967599	0.000203	2.026669	0.343327	0.000041
1574	1.5651e+02	-8.6664	-69.894931	0.000365	3.648005	0.617989	0.000073
1575	1.5661e+02	-8.6469	-69.846485	0.000243	2.432003	0.411992	0.000049
1576	1.5671e+02	-8.6261	-69.846485	0.000000	0.000000	0.000000	0.000000
1577	1.5681e+02	-8.6060	-69.773817	0.000365	3.648005	0.617989	0.000073
1578	1.5691e+02	-8.5858	-69.713260	0.000304	3.040004	0.514991	0.000061
1579	1.5701e+02	-8.5672	-69.693074	0.000101	1.013335	0.171664	0.000020
1580	1.5711e+02	-8.5468	-69.672889	0.000101	1.013335	0.171664	0.000020
1581	1.5721e+02	-8.5272	-69.571960	0.000507	5.066673	0.858318	0.000101
1582	1.5731e+02	-8.5059	-69.563886	0.000041	0.405334	0.068665	0.000008
1583	1.5741e+02	-8.4875	-69.495255	0.000345	3.445338	0.583656	0.000069
1584	1.5751e+02	-8.4665	-69.458920	0.000182	1.824002	0.308994	0.000037
1585	1.5761e+02	-8.4460	-69.378178	0.000405	4.053338	0.686654	0.000081
1586	1.5771e+02	-8.4271	-69.386252	-0.000041	-0.405334	-0.068665	-0.000008
1587	1.5781e+02	-8.4073	-69.305509	0.000405	4.053338	0.686654	0.000081
1588	1.5791e+02	-8.3868	-69.236878	0.000345	3.445338	0.583656	0.000069
1589	1.5801e+02	-8.3667	-69.180358	0.000284	2.837337	0.480658	0.000057
1590	1.5811e+02	-8.3469	-69.103652	0.000385	3.850671	0.652321	0.000077
1591	1.5821e+02	-8.3276	-69.047133	0.000284	2.837337	0.480658	0.000057
1592	1.5830e+02	-8.3066	-69.006761	0.000203	2.026669	0.343327	0.000041
1593	1.5840e+02	-8.2874	-68.946204	0.000304	3.040004	0.514991	0.000061
1594	1.5850e+02	-8.2669	-68.901796	0.000223	2.229336	0.377660	0.000045
1595	1.5860e+02	-8.2477	-68.841239	0.000304	3.040004	0.514991	0.000061
1596	1.5870e+02	-8.2269	-68.796830	0.000223	2.229336	0.377660	0.000045
1597	1.5880e+02	-8.2080	-68.699939	0.000486	4.864006	0.823985	0.000097
1598	1.5890e+02	-8.1885	-68.647456	0.000263	2.634670	0.446325	0.000053
1599	1.5900e+02	-8.1677	-68.558639	0.000446	4.458672	0.755320	0.000089
1600	1.5910e+02	-8.1476	-68.514231	0.000223	2.229336	0.377660	0.000045
1601	1.5920e+02	-8.1274	-68.465785	0.000243	2.432003	0.411992	0.000049
1602	1.5930e+02	-8.1079	-68.364857	0.000507	5.066673	0.858318	0.000101
1603	1.5940e+02	-8.0884	-68.336597	0.000142	1.418668	0.240329	0.000028
1604	1.5950e+02	-8.0682	-68.231631	0.000527	5.269340	0.892650	0.000105
1605	1.5960e+02	-8.0487	-68.175111	0.000284	2.837337	0.480658	0.000057
1606	1.5970e+02	-8.0273	-68.171074	0.000020	0.202667	0.034333	0.000004
1607	1.5980e+02	-8.0078	-68.025737	0.000730	7.296009	1.235977	0.000146
1608	1.5990e+02	-7.9883	-67.969217	0.000284	2.837337	0.480658	0.000057
1609	1.6000e+02	-7.9686	-67.916735	0.000263	2.634670	0.446325	0.000053
1610	1.6010e+02	-7.9486	-67.848103	0.000345	3.445338	0.583656	0.000069
1611	1.6019e+02	-7.9291	-67.767360	0.000405	4.053338	0.686654	0.000081
1612	1.6029e+02	-7.9095	-67.674506	0.000466	4.661339	0.789652	0.000093
1613	1.6039e+02	-7.8888	-67.597801	0.000385	3.850671	0.652321	0.000077
1614	1.6049e+02	-7.8699	-67.549355	0.000243	2.432003	0.411992	0.000049
1615	1.6059e+02	-7.8497	-67.488798	0.000304	3.040004	0.514991	0.000061
1616	1.6069e+02	-7.8290	-67.387870	0.000507	5.066673	0.858318	0.000101
1617	1.6079e+02	-7.8094	-67.351536	0.000182	1.824002	0.308994	0.000037
1618	1.6089e+02	-7.7899	-67.266756	0.000426	4.256005	0.720987	0.000085
1619	1.6099e+02	-7.7698	-67.169864	0.000486	4.864006	0.823985	0.000097
1620	1.6109e+02	-7.7496	-67.109307	0.000304	3.040004	0.514991	0.000061
1621	1.6119e+02	-7.7295	-67.036639	0.000365	3.648005	0.617989	0.000073
1622	1.6129e+02	-7.7100	-66.972045	0.000324	3.242671	0.549323	0.000065
1623	1.6139e+02	-7.6895	-66.875154	0.000486	4.864006	0.823985	0.000097
1624	1.6149e+02	-7.6694	-66.786337	0.000446	4.458672	0.755320	0.000089
1625	1.6159e+02	-7.6489	-66.713668	0.000365	3.648005	0.617989	0.000073
1626	1.6169e+02	-7.6294	-66.636962	0.000385	3.850671	0.652321	0.000077
1627	1.6179e+02	-7.6099	-66.596591	0.000203	2.026669	0.343327	0.000041
1628	1.6189e+02	-7.5900	-66.459329	0.000689	6.890675	1.167312	0.000138
1629	1.6199e+02	-7.5702	-66.402809	0.000284	2.837337	0.480658	0.000057
1630	1.6209e+02	-7.5513	-66.318029	0.000426	4.256005	0.720987	0.000085
1631	1.6219e+02	-7.5310	-66.237286	0.000405	4.053338	0.686654	0.000081
1632	1.6228e+02	-7.5107	-66.152506	0.000426	4.256005	0.720987	0.000085
1633	1.6238e+02	-7.4927	-66.087912	0.000324	3.242671	0.549323	0.000065
1634	1.6248e+02	-7.4707	-65.995058	0.000466	4.661339	0.789652	0.000093
1635	1.6258e+02	-7.4512	-65.918352	0.000385	3.850671	0.652321	0.000077
1636	1.6268e+02	-7.4310	-65.825498	0.000466	4.661339	0.789652	0.000093
1637	1.6278e+02	-7.4118	-65.732644	0.000466	4.661339	0.789652	0.000093
1638	1.6288e+02	-7.3901	-65.655939	0.000385	3.850671	0.652321	0.000077
1639	1.6298e+02	-7.3706	-65.546936	0.000547	5.472007	0.926983	0.000110
1640	1.6308e+02	-7.3520	-65.482342	0.000324	3.242671	0.549323	0.000065
1641	1.6318e+02	-7.3300	-65.429859	0.000263	2.634670	0.446325	0.000053
1642	1.6328e+02	-7.3108	-65.312782	0.000588	5.877341	0.995648	0.000118
1643	1.6338e+02	-7.2919	-65.211854	0.000507	5.066673	0.858318	0.000101
1644	1.6348e+02	-7.2723	-65.167445	0.000223	2.229336	0.377660	0.000045
1645	1.6358e+02	-7.2516	-65.102851	0.000324	3.242671	0.549323	0.000065
1646	1.6368e+02	-7.2324	-64.985774	0.000588	5.877341	0.995648	0.000118
1647	1.6378e+02	-7.2116	-64.925217	0.000304	3.040004	0.514991	0.000061
1648	1.6388e+02	-7.1924	-64.804103	0.000608	6.080008	1.029981	0.000122
1649	1.6398e+02	-7.1716	-64.711249	0.000466	4.661339	0.789652	0.000093
1650	1.6408e+02	-7.1521	-64.630506	0.000405	4.053338	0.686654	0.000081
1651	1.6418e+02	-7.1323	-64.553800	0.000385	3.850671	0.652321	0.000077
1652	1.6427e+02	-7.1124	-64.416538	0.000689	6.890675	1.167312	0.000138
1653	1.6437e+02	-7.0923	-64.343869	0.000365	3.648005	0.617989	0.000073
1654	1.6447e+02	-7.0721	-64.271201	0.000365	3.648005	0.617989	0.000073
1655	1.6457e+02	-7.0529	-64.178347	0.000466	4.661339	0.789652	0.000093
1656	1.6467e+02	-7.0331	-64.069344	0.000547	5.472007	0.926983	0.000110
1657	1.6477e+02	-7.0123	-64.012824	0.000284	2.837337	0.480658	0.000057
1658	1.6487e+02	-6.9928	-63.899784	0.000567	5.674674	0.961316	0.000114
1659	1.6497e+02	-6.9727	-63.823079	0.000385	3.850671	0.652321	0.000077
1660	1.6507e+02	-6.9531	-63.706002	0.000588	5.877341	0.995648	0.000118
1661	1.6517e+02	-6.9327	-63.645445	0.000304	3.040004	0.514991	0.000061
1662	1.6527e+02	-6.9128	-63.528368	0.000588	5.877341	0.995648	0.000118
1663	1.6537e+02	-6.8921	-63.391105	0.000689	6.890675	1.167312	0.000138
1664	1.6547e+02	-6.8732	-63.362845	0.000142	1.418668	0.240329	0.000028
1665	1.6557e+02	-6.8524	-63.245768	0.000588	5.877341	0.995648	0.000118
1666	1.6567e+02	-6.8326	-63.128692	0.000588	5.877341	0.995648	0.000118
1667	1.6577e+02	-6.8146	-63.080246	0.000243	2.432003	0.411992	0.000049
1668	1.6587e+02	-6.7926	-62.975280	0.000527	5.269340	0.892650	0.000105
1669	1.6597e+02	-6.7743	-62.838018	0.000689	6.890675	1.167312	0.000138
1670	1.6607e+02	-6.7538	-62.773424	0.000324	3.242671	0.549323	0.000065
1671	1.6616e+02	-6.7340	-62.632124	0.000709	7.093342	1.201645	0.000142
1672	1.6626e+02	-6.7131	-62.579641	0.000263	2.634670	0.446325	0.000053
1673	1.6636e+02	-6.6937	-62.470638	0.000547	5.472007	0.926983	0.000110
1674	1.6646e+02	-6.6742	-62.365673	0.000527	5.269340	0.892650	0.000105
1675	1.6656e+02	-6.6541	-62.284930	0.000405	4.053338	0.686654	0.000081
1676	1.6666e+02	-6.6345	-62.167853	0.000588	5.877341	0.995648	0.000118
1677	1.6676e+02	-6.6147	-62.087111	0.000405	4.053338	0.686654	0.000081
1678	1.6686e+02	-6.5936	-61.945811	0.000709	7.093342	1.201645	0.000142
1679	1.6696e+02	-6.5747	-61.881217	0.000324	3.242671	0.549323	0.000065
1680	1.6706e+02	-6.5540	-61.816622	0.000324	3.242671	0.549323	0.000065
1681	1.6716e+02	-6.5344	-61.675323	0.000709	7.093342	1.201645	0.000142
1682	1.6726e+02	-6.5143	-61.598617	0.000385	3.850671	0.652321	0.000077
1683	1.6736e+02	-6.4941	-61.469429	0.000649	6.485341	1.098647	0.000130
1684	1.6746e+02	-6.4740	-61.412909	0.000284	2.837337	0.480658	0.000057
1685	1.6756e+02	-6.4549	-61.303906	0.000547	5.472007	0.926983	0.000110
1686	1.6766e+02	-6.4337	-61.211052	0.000466	4.661339	0.789652	0.000093
1687	1.6776e+02	-6.4139	-61.134346	0.000385	3.850671	0.652321	0.000077
1688	1.6786e+02	-6.3940	-61.061678	0.000365	3.648005	0.617989	0.000073
1689	1.6796e+02	-6.3745	-60.964787	0.000486	4.864006	0.823985	0.000097
1690	1.6806e+02	-6.3556	-60.847710	0.000588	5.877341	0.995648	0.000118
1691	1.6816e+02	-6.3348	-60.726596	0.000608	6.080008	1.029981	0.000122
1692	1.6825e+02	-6.3153	-60.662002	0.000324	3.242671	0.549323	0.000065
1693	1.6835e+02	-6.2949	-60.552999	0.000547	5.472007	0.926983	0.000110
1694	1.6845e+02	-6.2744	-60.468219	0.000426	4.256005	0.720987	0.000085
1695	1.6855e+02	-6.2554	-60.367291	0.000507	5.066673	0.858318	0.000101
1696	1.6865e+02	-6.2357	-60.246177	0.000608	6.080008	1.029981	0.000122
1697	1.6875e+02	-6.2152	-60.157360	0.000446	4.458672	0.755320	0.000089
1698	1.6885e+02	-6.1957	-60.080654	0.000385	3.850671	0.652321	0.000077
1699	1.6895e+02	-6.1749	-59.931280	0.000750	7.498676	1.270310	0.000150
1700	1.6905e+02	-6.1554	-59.874760	0.000284	2.837337	0.480658	0.000057
1701	1.6915e+02	-6.1365	-59.769795	0.000527	5.269340	0.892650	0.000105
1702	1.6925e+02	-6.1157	-59.652718	0.000588	5.877341	0.995648	0.000118
1703	1.6935e+02	-6.0962	-59.559864	0.000466	4.661339	0.789652	0.000093
1704	1.6945e+02	-6.0767	-59.487195	0.000365	3.648005	0.617989	0.000073
1705	1.6955e+02	-6.0559	-59.349932	0.000689	6.890675	1.167312	0.000138
1706	1.6965e+02	-6.0349	-59.285338	0.000324	3.242671	0.549323	0.000065
1707	1.6975e+02	-6.0168	-59.176336	0.000547	5.472007	0.926983	0.000110
1708	1.6985e+02	-5.9967	-59.067333	0.000547	5.472007	0.926983	0.000110
1709	1.6995e+02	-5.9763	-58.966405	0.000507	5.066673	0.858318	0.000101
1710	1.7005e+02	-5.9558	-58.889699	0.000385	3.850671	0.652321	0.000077
1711	1.7015e+02	-5.9354	-58.776659	0.000567	5.674674	0.961316	0.000114
1712	1.7024e+02	-5.9167	-58.667657	0.000547	5.472007	0.926983	0.000110
1713	1.7034e+02	-5.8966	-58.582877	0.000426	4.256005	0.720987	0.000085
1714	1.7044e+02	-5.8768	-58.498097	0.000426	4.256005	0.720987	0.000085
1715	1.7054e+02	-5.8563	-58.376983	0.000608	6.080008	1.029981	0.000122
1716	1.7064e+02	-5.8374	-58.276054	0.000507	5.066673	0.858318	0.000101
1717	1.7074e+02	-5.8167	-58.175126	0.000507	5.066673	0.858318	0.000101
1718	1.7084e+02	-5.7962	-58.070160	0.000527	5.269340	0.892650	0.000105
1719	1.7094e+02	-5.7776	-57.961158	0.000547	5.472007	0.926983	0.000110
1720	1.7104e+02	-5.7568	-57.836007	0.000628	6.282675	1.064314	0.000126
1721	1.7114e+02	-5.7367	-57.743152	0.000466	4.661339	0.789652	0.000093
1722	1.7124e+02	-5.7166	-57.682595	0.000304	3.040004	0.514991	0.000061
1723	1.7134e+02	-5.6970	-57.529184	0.000770	7.701343	1.304643	0.000154
1724	1.7144e+02	-5.6772	-57.424219	0.000527	5.269340	0.892650	0.000105
1725	1.7154e+02	-5.6570	-57.351550	0.000365	3.648005	0.617989	0.000073
1726	1.7164e+02	-5.6372	-57.234473	0.000588	5.877341	0.995648	0.000118
1727	1.7174e+02	-5.6183	-57.125471	0.000547	5.472007	0.926983	0.000110
1728	1.7184e+02	-5.5981	-57.020505	0.000527	5.269340	0.892650	0.000105
1729	1.7194e+02	-5.5780	-56.935725	0.000426	4.256005	0.720987	0.000085
1730	1.7204e+02	-5.5582	-56.834797	0.000507	5.066673	0.858318	0.000101
1731	1.7213e+02	-5.5380	-56.697534	0.000689	6.890675	1.167312	0.000138
1732	1.7223e+02	-5.5173	-56.600643	0.000486	4.864006	0.823985	0.000097
1733	1.7233e+02	-5.4984	-56.479529	0.000608	6.080008	1.029981	0.000122
1734	1.7243e+02	-5.4779	-56.427046	0.000263	2.634670	0.446325	0.000053
1735	1.7253e+02	-5.4570	-56.293821	0.000669	6.688008	1.132979	0.000134
1736	1.7263e+02	-5.4376	-56.196929	0.000486	4.864006	0.823985	0.000097
1737	1.7273e+02	-5.4190	-56.120224	0.000385	3.850671	0.652321	0.000077
1738	1.7283e+02	-5.3986	-56.011221	0.000547	5.472007	0.926983	0.000110
1739	1.7293e+02	-5.3787	-55.898181	0.000567	5.674674	0.961316	0.000114
1740	1.7303e+02	-5.3589	-55.781104	0.000588	5.877341	0.995648	0.000118
1741	1.7313e+02	-5.3384	-55.692288	0.000446	4.458672	0.755320	0.000089
1742	1.7323e+02	-5.3174	-55.579248	0.000567	5.674674	0.961316	0.000114
1743	1.7333e+02	-5.2982	-55.474282	0.000527	5.269340	0.892650	0.000105
1744	1.7343e+02	-5.2777	-55.373354	0.000507	5.066673	0.858318	0.000101
1745	1.7353e+02	-5.2594	-55.236091	0.000689	6.890675	1.167312	0.000138
1746	1.7363e+02	-5.2390	-55.155348	0.000405	4.053338	0.686654	0.000081
1747	1.7373e+02	-5.2185	-55.046346	0.000547	5.472007	0.926983	0.000110
1748	1.7383e+02	-5.1990	-54.957529	0.000446	4.458672	0.755320	0.000089
1749	1.7393e+02	-5.1788	-54.836415	0.000608	6.080008	1.029981	0.000122
1750	1.7403e+02	-5.1590	-54.751635	0.000426	4.256005	0.720987	0.000085
1751	1.7413e+02	-5.1382	-54.614372	0.000689	6.890675	1.167312	0.000138
1752	1.7422e+02	-5.1187	-54.509407	0.000527	5.269340	0.892650	0.000105
1753	1.7432e+02	-5.0993	-54.428664	0.000405	4.053338	0.686654	0.000081
1754	1.7442e+02	-5.0781	-54.303513	0.000628	6.282675	1.064314	0.000126
1755	1.7452e+02	-5.0586	-54.202584	0.000507	5.066673	0.858318	0.000101
1756	1.7462e+02	-5.0397	-54.085507	0.000588	5.877341	0.995648	0.000118
1757	1.7472e+02	-5.0201	-53.992653	0.000466	4.661339	0.789652	0.000093
1758	1.7482e+02	-4.9992	-53.867502	0.000628	6.282675	1.064314	0.000126
1759	1.7492e+02	-4.9792	-53.762537	0.000527	5.269340	0.892650	0.000105
1760	1.7502e+02	-4.9594	-53.637385	0.000628	6.282675	1.064314	0.000126
1761	1.7512e+02	-4.9402	-53.560680	0.000385	3.850671	0.652321	0.000077
1762	1.7522e+02	-4.9207	-53.447640	0.000567	5.674674	0.961316	0.000114
1763	1.7532e+02	-4.8996	-53.310377	0.000689	6.890675	1.167312	0.000138
1764	1.7542e+02	-4.8798	-53.189263	0.000608	6.080008	1.029981	0.000122
1765	1.7552e+02	-4.8602	-53.100446	0.000446	4.458672	0.755320	0.000089
1766	1.7562e+02	-4.8395	-52.955109	0.000730	7.296009	1.235977	0.000146
1767	1.7572e+02	-4.8199	-52.878404	0.000385	3.850671	0.652321	0.000077
1768	1.7582e+02	-4.7998	-52.753253	0.000628	6.282675	1.064314	0.000126
1769	1.7592e+02	-4.7797	-52.628101	0.000628	6.282675	1.064314	0.000126
1770	1.7602e+02	-4.7601	-52.519099	0.000547	5.472007	0.926983	0.000110
1771	1.7612e+02	-4.7403	-52.426245	0.000466	4.661339	0.789652	0.000093
1772	1.7621e+02	-4.7205	-52.288982	0.000689	6.890675	1.167312	0.000138
1773	1.7631e+02	-4.7003	-52.204202	0.000426	4.256005	0.720987	0.000085
1774	1.7641e+02	-4.6805	-52.083088	0.000608	6.080008	1.029981	0.000122
1775	1.7651e+02	-4.6613	-51.966011	0.000588	5.877341	0.995648	0.000118
1776	1.7661e+02	-4.6411	-51.816637	0.000750	7.498676	1.270310	0.000150
1777	1.7671e+02	-4.6216	-51.719746	0.000486	4.864006	0.823985	0.000097
1778	1.7681e+02	-4.6008	-51.582483	0.000689	6.890675	1.167312	0.000138
1779	1.7691e+02	-4.5807	-51.473481	0.000547	5.472007	0.926983	0.000110
1780	1.7701e+02	-4.5616	-51.412924	0.000304	3.040004	0.514991	0.000061
1781	1.7711e+02	-4.5410	-51.287772	0.000628	6.282675	1.064314	0.000126
1782	1.7721e+02	-4.5212	-51.166658	0.000608	6.080008	1.029981	0.000122
1783	1.7731e+02	-4.5016	-51.021321	0.000730	7.296009	1.235977	0.000146
1784	1.7741e+02	-4.4812	-50.916356	0.000527	5.269340	0.892650	0.000105
1785	1.7751e+02	-4.4617	-50.771019	0.000730	7.296009	1.235977	0.000146
1786	1.7761e+02	-4.4415	-50.706425	0.000324	3.242671	0.549323	0.000065
1787	1.7771e+02	-4.4212	-50.581274	0.000628	6.282675	1.064314	0.000126
1788	1.7781e+02	-4.4017	-50.452085	0.000649	6.485341	1.098647	0.000130
1789	1.7791e+02	-4.3823	-50.359231	0.000466	4.661339	0.789652	0.000093
1790	1.7801e+02	-4.3619	-50.217931	0.000709	7.093342	1.201645	0.000142
1791	1.7810e+02	-4.3417	-50.104892	0.000567	5.674674	0.961316	0.000114
1792	1.7820e+02	-4.3200	-49.967629	0.000689	6.890675	1.167312	0.000138
1793	1.7830e+02	-4.3024	-49.850552	0.000588	5.877341	0.995648	0.000118
1794	1.7840e+02	-4.2828	-49.757698	0.000466	4.661339	0.789652	0.000093
1795	1.7850e+02	-4.2633	-49.620435	0.000689	6.890675	1.167312	0.000138
1796	1.7860e+02	-4.2432	-49.483173	0.000689	6.890675	1.167312	0.000138
1797	1.7870e+02	-4.2221	-49.317650	0.000831	8.309344	1.407641	0.000166
1798	1.7880e+02	-4.2029	-49.244982	0.000365	3.648005	0.617989	0.000073
1799	1.7890e+02	-4.1827	-49.111756	0.000669	6.688008	1.132979	0.000134
1800	1.7900e+02	-4.1620	-48.974494	0.000689	6.890675	1.167312	0.000138
1801	1.7910e+02	-4.1424	-48.877602	0.000486	4.864006	0.823985	0.000097
1802	1.7920e+02	-4.1217	-48.760525	0.000588	5.877341	0.995648	0.000118
1803	1.7930e+02	-4.1022	-48.659597	0.000507	5.066673	0.858318	0.000101
1804	1.7940e+02	-4.0833	-48.526372	0.000669	6.688008	1.132979	0.000134
1805	1.7950e+02	-4.0628	-48.385072	0.000709	7.093342	1.201645	0.000142
1806	1.7960e+02	-4.0427	-48.272032	0.000567	5.674674	0.961316	0.000114
1807	1.7970e+02	-4.0231	-48.138807	0.000669	6.688008	1.132979	0.000134
1808	1.7980e+02	-4.0030	-48.021730	0.000588	5.877341	0.995648	0.000118
1809	1.7990e+02	-3.9838	-47.904653	0.000588	5.877341	0.995648	0.000118
1810	1.8000e+02	-3.9636	-47.815836	0.000446	4.458672	0.755320	0.000089
1811	1.8009e+02	-3.9429	-47.642239	0.000871	8.714678	1.476306	0.000174
1812	1.8019e+02	-3.9238	-47.545348	0.000486	4.864006	0.823985	0.000097
1813	1.8029e+02	-3.9038	-47.424234	0.000608	6.080008	1.029981	0.000122
1814	1.8039e+02	-3.8831	-47.299082	0.000628	6.282675	1.064314	0.000126
1815	1.8049e+02	-3.8635	-47.149708	0.000750	7.498676	1.270310	0.000150
1816	1.8059e+02	-3.8425	-47.024557	0.000628	6.282675	1.064314	0.000126
1817	1.8069e+02	-3.8239	-46.927666	0.000486	4.864006	0.823985	0.000097
1818	1.8079e+02	-3.8036	-46.778292	0.000750	7.498676	1.270310	0.000150
1819	1.8089e+02	-3.7836	-46.681401	0.000486	4.864006	0.823985	0.000097
1820	1.8099e+02	-3.7643	-46.548175	0.000669	6.688008	1.132979	0.000134
1821	1.8109e+02	-3.7439	-46.394764	0.000770	7.701343	1.304643	0.000154
1822	1.8119e+02	-3.7238	-46.293836	0.000507	5.066673	0.858318	0.000101
1823	1.8129e+02	-3.7042	-46.148499	0.000730	7.296009	1.235977	0.000146
1824	1.8139e+02	-3.6844	-45.982976	0.000831	8.309344	1.407641	0.000166
1825	1.8149e+02	-3.6646	-45.918382	0.000324	3.242671	0.549323	0.000065
1826	1.8159e+02	-3.6444	-45.801305	0.000588	5.877341	0.995648	0.000118
1827	1.8169e+02	-3.6246	-45.631745	0.000851	8.512011	1.441974	0.000170
1828	1.8179e+02	-3.6053	-45.494483	0.000689	6.890675	1.167312	0.000138
1829	1.8189e+02	-3.5840	-45.353183	0.000709	7.093342	1.201645	0.000142
1830	1.8199e+02	-3.5649	-45.280514	0.000365	3.648005	0.617989	0.000073
1831	1.8209e+02	-3.5446	-45.127103	0.000770	7.701343	1.304643	0.000154
1832	1.8218e+02	-3.5248	-44.989841	0.000689	6.890675	1.167312	0.000138
1833	1.8228e+02	-3.5045	-44.892949	0.000486	4.864006	0.823985	0.000097
1834	1.8238e+02	-3.4851	-44.715315	0.000892	8.917344	1.510639	0.000179
1835	1.8248e+02	-3.4650	-44.606313	0.000547	5.472007	0.926983	0.000110
1836	1.8258e+02	-3.4451	-44.489236	0.000588	5.877341	0.995648	0.000118
1837	1.8268e+02	-3.4251	-44.356010	0.000669	6.688008	1.132979	0.000134
1838	1.8278e+02	-3.4055	-44.230859	0.000628	6.282675	1.064314	0.000126
1839	1.8288e+02	-3.3850	-44.093597	0.000689	6.890675	1.167312	0.000138
1840	1.8298e+02	-3.3655	-43.960371	0.000669	6.688008	1.132979	0.000134
1841	1.8308e+02	-3.3450	-43.867517	0.000466	4.661339	0.789652	0.000093
1842	1.8318e+02	-3.3250	-43.697957	0.000851	8.512011	1.441974	0.000170
1843	1.8328e+02	-3.3063	-43.613177	0.000426	4.256005	0.720987	0.000085
1844	1.8338e+02	-3.2864	-43.411321	0.001013	10.133346	1.716635	0.000203
1845	1.8348e+02	-3.2663	-43.318466	0.000466	4.661339	0.789652	0.000093
1846	1.8358e+02	-3.2452	-43.185241	0.000669	6.688008	1.132979	0.000134
1847	1.8368e+02	-3.2257	-43.068164	0.000588	5.877341	0.995648	0.000118
1848	1.8378e+02	-3.2054	-42.914753	0.000770	7.701343	1.304643	0.000154
1849	1.8388e+02	-3.1860	-42.821899	0.000466	4.661339	0.789652	0.000093
1850	1.8398e+02	-3.1659	-42.684636	0.000689	6.890675	1.167312	0.000138
1851	1.8407e+02	-3.1467	-42.555448	0.000649	6.485341	1.098647	0.000130
1852	1.8417e+02	-3.1261	-42.398000	0.000790	7.904010	1.338976	0.000158
1853	1.8427e+02	-3.1067	-42.361665	0.000182	1.824002	0.308994	0.000037
1854	1.8437e+02	-3.0862	-42.175957	0.000932	9.322678	1.579304	0.000187
1855	1.8447e+02	-3.0667	-42.058880	0.000588	5.877341	0.995648	0.000118
1856	1.8457e+02	-3.0466	-41.925655	0.000669	6.688008	1.132979	0.000134
1857	1.8467e+02	-3.0266	-41.800503	0.000628	6.282675	1.064314	0.000126
1858	1.8477e+02	-3.0072	-41.614795	0.000932	9.322678	1.579304	0.000187
1859	1.8487e+02	-2.9871	-41.530015	0.000426	4.256005	0.720987	0.000085
1860	1.8497e+02	-2.9666	-41.404864	0.000628	6.282675	1.064314	0.000126
1861	1.8507e+02	-2.9468	-41.259527	0.000730	7.296009	1.235977	0.000146
1862	1.8517e+02	-2.9269	-41.110153	0.000750	7.498676	1.270310	0.000150
1863	1.8527e+02	-2.9071	-41.037485	0.000365	3.648005	0.617989	0.000073
1864	1.8537e+02	-2.8867	-40.880036	0.000790	7.904010	1.338976	0.000158
1865	1.8547e+02	-2.8674	-40.750848	0.000649	6.485341	1.098647	0.000130
1866	1.8557e+02	-2.8470	-40.617623	0.000669	6.688008	1.132979	0.000134
1867	1.8567e+02	-2.8268	-40.520731	0.000486	4.864006	0.823985	0.000097
1868	1.8577e+02	-2.8076	-40.399617	0.000608	6.080008	1.029981	0.000122
1869	1.8587e+02	-2.7863	-40.242169	0.000790	7.904010	1.338976	0.000158
1870	1.8597e+02	-2.7673	-40.133166	0.000547	5.472007	0.926983	0.000110
1871	1.8606e+02	-2.7478	-39.923235	0.001054	10.538680	1.785301	0.000211
1872	1.8616e+02	-2.7284	-39.822307	0.000507	5.066673	0.858318	0.000101
1873	1.8626e+02	-2.7073	-39.709267	0.000567	5.674674	0.961316	0.000114
1874	1.8636e+02	-2.6874	-39.596227	0.000567	5.674674	0.961316	0.000114
1875	1.8646e+02	-2.6672	-39.434742	0.000811	8.106677	1.373308	0.000162
1876	1.8656e+02	-2.6479	-39.349962	0.000426	4.256005	0.720987	0.000085
1877	1.8666e+02	-2.6276	-39.216737	0.000669	6.688008	1.132979	0.000134
1878	1.8676e+02	-2.6080	-39.087548	0.000649	6.485341	1.098647	0.000130
1879	1.8686e+02	-2.5876	-38.970471	0.000588	5.877341	0.995648	0.000118
1880	1.8696e+02	-2.5674	-38.796874	0.000871	8.714678	1.476306	0.000174
1881	1.8706e+02	-2.5478	-38.679798	0.000588	5.877341	0.995648	0.000118
1882	1.8716e+02	-2.5281	-38.590981	0.000446	4.458672	0.755320	0.000089
1883	1.8726e+02	-2.5081	-38.441606	0.000750	7.498676	1.270310	0.000150
1884	1.8736e+02	-2.4890	-38.300307	0.000709	7.093342	1.201645	0.000142
1885	1.8746e+02	-2.4693	-38.191304	0.000547	5.472007	0.926983	0.000110
1886	1.8756e+02	-2.4490	-38.017707	0.000871	8.714678	1.476306	0.000174
1887	1.8766e+02	-2.4285	-37.880445	0.000689	6.890675	1.167312	0.000138
1888	1.8776e+02	-2.4091	-37.747219	0.000669	6.688008	1.132979	0.000134
1889	1.8786e+02	-2.3898	-37.638216	0.000547	5.472007	0.926983	0.000110
1890	1.8796e+02	-2.3691	-37.517102	0.000608	6.080008	1.029981	0.000122
1891	1.8806e+02	-2.3488	-37.440397	0.000385	3.850671	0.652321	0.000077
1892	1.8815e+02	-2.3291	-37.254689	0.000932	9.322678	1.579304	0.000187
1893	1.8825e+02	-2.3093	-37.149723	0.000527	5.269340	0.892650	0.000105
1894	1.8835e+02	-2.2905	-37.008423	0.000709	7.093342	1.201645	0.000142
1895	1.8845e+02	-2.2684	-36.867124	0.000709	7.093342	1.201645	0.000142
1896	1.8855e+02	-2.2493	-36.750047	0.000588	5.877341	0.995648	0.000118
1897	1.8865e+02	-2.2293	-36.588561	0.000811	8.106677	1.373308	0.000162
1898	1.8875e+02	-2.2099	-36.479559	0.000547	5.472007	0.926983	0.000110
1899	1.8885e+02	-2.1904	-36.326147	0.000770	7.701343	1.304643	0.000154
1900	1.8895e+02	-2.1689	-36.196959	0.000649	6.485341	1.098647	0.000130
1901	1.8905e+02	-2.1497	-36.075845	0.000608	6.080008	1.029981	0.000122
1902	1.8915e+02	-2.1300	-35.978954	0.000486	4.864006	0.823985	0.000097
1903	1.8925e+02	-2.1097	-35.833617	0.000730	7.296009	1.235977	0.000146
1904	1.8935e+02	-2.0900	-35.696354	0.000689	6.890675	1.167312	0.000138
1905	1.8945e+02	-2.0702	-35.555054	0.000709	7.093342	1.201645	0.000142
1906	1.8955e+02	-2.0494	-35.433940	0.000608	6.080008	1.029981	0.000122
1907	1.8965e+02	-2.0294	-35.304752	0.000649	6.485341	1.098647	0.000130
1908	1.8975e+02	-2.0096	-35.127118	0.000892	8.917344	1.510639	0.000179
1909	1.8985e+02	-1.9902	-35.034264	0.000466	4.661339	0.789652	0.000093
1910	1.8995e+02	-1.9701	-34.913150	0.000608	6.080008	1.029981	0.000122
1911	1.9004e+02	-1.9515	-34.771850	0.000709	7.093342	1.201645	0.000142
1912	1.9014e+02	-1.9302	-34.642662	0.000649	6.485341	1.098647	0.000130
1913	1.9024e+02	-1.9104	-34.541733	0.000507	5.066673	0.858318	0.000101
1914	1.9034e+02	-1.8903	-34.384285	0.000790	7.904010	1.338976	0.000158
1915	1.9044e+02	-1.8703	-34.283357	0.000507	5.066673	0.858318	0.000101
1916	1.9054e+02	-1.8509	-34.150131	0.000669	6.688008	1.132979	0.000134
1917	1.9064e+02	-1.8310	-34.004794	0.000730	7.296009	1.235977	0.000146
1918	1.9074e+02	-1.8115	-33.879643	0.000628	6.282675	1.064314	0.000126
1919	1.9084e+02	-1.7907	-33.714121	0.000831	8.309344	1.407641	0.000166
1920	1.9094e+02	-1.7714	-33.601081	0.000567	5.674674	0.961316	0.000114
1921	1.9104e+02	-1.7498	-33.471892	0.000649	6.485341	1.098647	0.000130
1922	1.9114e+02	-1.7316	-33.302333	0.000851	8.512011	1.441974	0.000170
1923	1.9124e+02	-1.7114	-33.213516	0.000446	4.458672	0.755320	0.000089
1924	1.9134e+02	-1.6905	-33.080290	0.000669	6.688008	1.132979	0.000134
1925	1.9144e+02	-1.6716	-32.922842	0.000790	7.904010	1.338976	0.000158
1926	1.9154e+02	-1.6516	-32.813839	0.000547	5.472007	0.926983	0.000110
1927	1.9164e+02	-1.6315	-32.668502	0.000730	7.296009	1.235977	0.000146
1928	1.9174e+02	-1.6111	-32.519128	0.000750	7.498676	1.270310	0.000150
1929	1.9184e+02	-1.5908	-32.418200	0.000507	5.066673	0.858318	0.000101
1930	1.9194e+02	-1.5718	-32.244603	0.000871	8.714678	1.476306	0.000174
1931	1.9203e+02	-1.5515	-32.123489	0.000608	6.080008	1.029981	0.000122
1932	1.9213e+02	-1.5315	-31.998338	0.000628	6.282675	1.064314	0.000126
1933	1.9223e+02	-1.5121	-31.881261	0.000588	5.877341	0.995648	0.000118
1934	1.9233e+02	-1.4917	-31.711701	0.000851	8.512011	1.441974	0.000170
1935	1.9243e+02	-1.4721	-31.598661	0.000567	5.674674	0.961316	0.000114
1936	1.9253e+02	-1.4514	-31.441213	0.000790	7.904010	1.338976	0.000158
1937	1.9263e+02	-1.4326	-31.316062	0.000628	6.282675	1.064314	0.000126
1938	1.9273e+02	-1.4122	-31.174762	0.000709	7.093342	1.201645	0.000142
1939	1.9283e+02	-1.3925	-31.065760	0.000547	5.472007	0.926983	0.000110
1940	1.9293e+02	-1.3721	-30.884088	0.000912	9.120011	1.544972	0.000183
1941	1.9303e+02	-1.3522	-30.779123	0.000527	5.269340	0.892650	0.000105
1942	1.9313e+02	-1.3324	-30.645897	0.000669	6.688008	1.132979	0.000134
1943	1.9323e+02	-1.3121	-30.484412	0.000811	8.106677	1.373308	0.000162
1944	1.9333e+02	-1.2918	-30.367335	0.000588	5.877341	0.995648	0.000118
1945	1.9343e+02	-1.2727	-30.234110	0.000669	6.688008	1.132979	0.000134
1946	1.9353e+02	-1.2531	-30.072624	0.000811	8.106677	1.373308	0.000162
1947	1.9363e+02	-1.2329	-29.915176	0.000790	7.904010	1.338976	0.000158
1948	1.9373e+02	-1.2138	-29.818285	0.000486	4.864006	0.823985	0.000097
1949	1.9383e+02	-1.1937	-29.652762	0.000831	8.309344	1.407641	0.000166
1950	1.9393e+02	-1.1736	-29.527611	0.000628	6.282675	1.064314	0.000126
1951	1.9403e+02	-1.1538	-29.418608	0.000547	5.472007	0.926983	0.000110
1952	1.9412e+02	-1.1332	-29.249048	0.000851	8.512011	1.441974	0.000170
1953	1.9422e+02	-1.1145	-29.123897	0.000628	6.282675	1.064314	0.000126
1954	1.9432e+02	-1.0931	-28.958375	0.000831	8.309344	1.407641	0.000166
1955	1.9442e+02	-1.0738	-28.809001	0.000750	7.498676	1.270310	0.000150
1956	1.9452e+02	-1.0535	-28.675775	0.000669	6.688008	1.132979	0.000134
1957	1.9462e+02	-1.0335	-28.570810	0.000527	5.269340	0.892650	0.000105
1958	1.9472e+02	-1.0143	-28.401250	0.000851	8.512011	1.441974	0.000170
1959	1.9482e+02	-0.9933	-28.259950	0.000709	7.093342	1.201645	0.000142
1960	1.9492e+02	-0.9738	-28.122688	0.000689	6.890675	1.167312	0.000138
1961	1.9502e+02	-0.9547	-27.993499	0.000649	6.485341	1.098647	0.000130
1962	1.9512e+02	-0.9341	-27.864311	0.000649	6.485341	1.098647	0.000130
1963	1.9522e+02	-0.9137	-27.670528	0.000973	9.728012	1.647970	0.000195
1964	1.9532e+02	-0.8936	-27.561526	0.000547	5.472007	0.926983	0.000110
1965	1.9542e+02	-0.8743	-27.460597	0.000507	5.066673	0.858318	0.000101
1966	1.9552e+02	-0.8550	-27.278926	0.000912	9.120011	1.544972	0.000183
1967	1.9562e+02	-0.8350	-27.125515	0.000770	7.701343	1.304643	0.000154
1968	1.9572e+02	-0.8144	-27.008438	0.000588	5.877341	0.995648	0.000118
1969	1.9582e+02	-0.7950	-26.875213	0.000669	6.688008	1.132979	0.000134
1970	1.9592e+02	-0.7746	-26.733913	0.000709	7.093342	1.201645	0.000142
1971	1.9601e+02	-0.7552	-26.560316	0.000871	8.714678	1.476306	0.000174
1972	1.9611e+02	-0.7349	-26.431128	0.000649	6.485341	1.098647	0.000130
1973	1.9621e+02	-0.7141	-26.301939	0.000649	6.485341	1.098647	0.000130
1974	1.9631e+02	-0.6947	-26.140454	0.000811	8.106677	1.373308	0.000162
1975	1.9641e+02	-0.6750	-25.970894	0.000851	8.512011	1.441974	0.000170
1976	1.9651e+02	-0.6546	-25.845743	0.000628	6.282675	1.064314	0.000126
1977	1.9661e+02	-0.6350	-25.700406	0.000730	7.296009	1.235977	0.000146
1978	1.9671e+02	-0.6155	-25.579292	0.000608	6.080008	1.029981	0.000122
1979	1.9681e+02	-0.5957	-25.458178	0.000608	6.080008	1.029981	0.000122
1980	1.9691e+02	-0.5756	-25.304767	0.000770	7.701343	1.304643	0.000154
1981	1.9701e+02	-0.5559	-25.167504	0.000689	6.890675	1.167312	0.000138
1982	1.9711e+02	-0.5362	-24.985833	0.000912	9.120011	1.544972	0.000183
1983	1.9721e+02	-0.5149	-24.840496	0.000730	7.296009	1.235977	0.000146
1984	1.9731e+02	-0.4955	-24.727456	0.000567	5.674674	0.961316	0.000114
1985	1.9741e+02	-0.4745	-24.598268	0.000649	6.485341	1.098647	0.000130
1986	1.9751e+02	-0.4556	-24.448894	0.000750	7.498676	1.270310	0.000150
1987	1.9761e+02	-0.4355	-24.295483	0.000770	7.701343	1.304643	0.000154
1988	1.9771e+02	-0.4150	-24.154183	0.000709	7.093342	1.201645	0.000142
1989	1.9781e+02	-0.3961	-23.976549	0.000892	8.917344	1.510639	0.000179
1990	1.9791e+02	-0.3751	-23.851398	0.000628	6.282675	1.064314	0.000126
1991	1.9800e+02	-0.3557	-23.722210	0.000649	6.485341	1.098647	0.000130
1992	1.9810e+02	-0.3354	-23.597058	0.000628	6.282675	1.064314	0.000126
1993	1.9820e+02	-0.3160	-23.439610	0.000790	7.904010	1.338976	0.000158
1994	1.9830e+02	-0.2962	-23.298310	0.000709	7.093342	1.201645	0.000142
1995	1.9840e+02	-0.2757	-23.116639	0.000912	9.120011	1.544972	0.000183
1996	1.9850e+02	-0.2557	-22.995525	0.000608	6.080008	1.029981	0.000122
1997	1.9860e+02	-0.2373	-22.813854	0.000912	9.120011	1.544972	0.000183
1998	1.9870e+02	-0.2171	-22.721000	0.000466	4.661339	0.789652	0.000093
1999	1.9880e+02	-0.1973	-22.555477	0.000831	8.309344	1.407641	0.000166
2000	1.9890e+02	-0.1757	-22.385918	0.000851	8.512011	1.441974	0.000170
2001	1.9900e+02	-0.1570	-22.276915	0.000547	5.472007	0.926983	0.000110
2002	1.9910e+02	-0.1356	-22.115430	0.000811	8.106677	1.373308	0.000162
2003	1.9920e+02	-0.1167	-21.966056	0.000750	7.498676	1.270310	0.000150
2004	1.9930e+02	-0.0957	-21.832830	0.000669	6.688008	1.132979	0.000134
2005	1.9940e+02	-0.0760	-21.695567	0.000689	6.890675	1.167312	0.000138
2006	1.9950e+02	-0.0573	-21.530045	0.000831	8.309344	1.407641	0.000166
2007	1.9960e+02	-0.0369	-21.344337	0.000932	9.322678	1.579304	0.000187
2008	1.9970e+02	-0.0169	-21.247445	0.000486	4.864006	0.823985	0.000097
2009	1.9980e+02	0.0016	-21.106146	0.000486	4.864006	0.823985	0.000142

Smooth data before PMax, +/-Pr and +/-Vc Calc.

PMax (uC/cm2):	6.06e+01
Pr (uC/cm2):	4.30e+00
-Pr (uC/cm2):	-3.13e+01
PLoss (uC/cm2):	-3.14e+01
-Vc:	-5.88e-01
C (Max-Eff) (nF):	6.06e-01
K (Eff):	1.03e+03
Vert. (+/-Pr) Shift (uC/cm2):	-1.35e+01
Offset (uC/cm2):	-1.01e+01

A (Loop Area - uC/cm2·Volts):	-6.56e-02



Hysteresis Version: 5.48.1 - Radiant Technologies, Inc., 1999 - 9/12/24

