»»»»»»»»»»»»»»»»»»»»»»»»»»»»»»»»»»»» Hysteresis ««««««««««««««««««««««««««««««««««««
»»»  Executed Version:	5.48.1
»»»  Vision Version:	5.48.4 (R)
»»»  Vision Compiled:	9/18/24
»»»  Driver Version:	5.47.0
»»»  Windows Version:	Windows 8 or 8.1
»»»  Processor Information:	x86 (AMD or Intel) - 32 Processors
»»»  Tester Name:	PMF21124-494 (100V)
»»»  Tester S/N:	PMF21124-494
»»»  Internal Amp Type:	100V RevK 270k
»»»  Internal Amp S/N:	iAB2-596/K     
»»»  Execution Count:	1
»»»»»»»»»»»»»»»»»»»»»»»»»»»»»»»»»»»»»»»»»»««««««««««««««««««««««««««««««««««««««««««

Stored:	7/10/2025 - 14:44:28
Configured:	07/10/25 01:31:25 PM
Executed:	07/10/25 02:43:56 PM

»»»»»»»»»»»»»»»»»»»»»»»»»»»»»»»»»»» Sample Info ««««««««««««««««««««««««««««««««««««
Sample Name:	
Lot Name:	
Wafer Name:	
Die Row/Column:	0/0
Capacitor Number:	0
Sample Area (cm2):	1.00e-04
Sample Thickness (microns):	1.50e-01

Amplifier:	Internal

»»»»»»»»»»»»»»»»»»»»»»»»»»»»»»»»»»» Tester Info «««««««««««««««««««««««««««««««««««
Tester Name:	PMF21124-494 (100V)
Tester Serial Number:	PMF21124-494
Return Signal Amp. Level:	0.19 [Index: 3]

»»»»»»»»»»»»»»»»»»»»»»»»»»»»»»»» Hysteresis Info ««««««««««««««««««««««««««««««««««
Task Name:	Hyst-3361
Volts:	10.00
Field:	666.67 (kV/cm)
DCBias:	0.00
DCField:	0.00 (kV/cm)
Hysteresis Period (ms):	2.00e+02
Preset:	Enabled
Preset Delay (ms):	1.00e+03
Profile:	Standard Bipolar

»»»»»»»»»»»»»»»»»»»»»»»»»»»»»»»»»»»»»» Data «««««««««««««««««««««««««««««««««««««««
Points:	2009

Valid Data

Point	Time (ms)	Drive Voltage	Measured Polarization (uC/cm2)	Capacitance (uF)	Normalized Capacitance (uF/cm2)	Dielectric Constant	Instantaneous Current (mA)
   1	0.0000e+00	0.0002	6.675404	0.000709	7.093802	1.201723	0.000142
   2	9.9500e-02	0.0193	6.816704	0.000709	7.093802	1.201723	0.000142
   3	1.9900e-01	0.0387	6.941855	0.000628	6.283082	1.064383	0.000126
   4	2.9850e-01	0.0594	7.062969	0.000608	6.080402	1.030048	0.000122
   5	3.9800e-01	0.0795	7.176009	0.000568	5.675042	0.961378	0.000114
   6	4.9750e-01	0.0988	7.272900	0.000486	4.864322	0.824038	0.000097
   7	5.9700e-01	0.1202	7.385940	0.000568	5.675042	0.961378	0.000114
   8	6.9650e-01	0.1389	7.503017	0.000588	5.877722	0.995713	0.000118
   9	7.9600e-01	0.1593	7.599908	0.000486	4.864322	0.824038	0.000097
  10	8.9550e-01	0.1785	7.700836	0.000507	5.067002	0.858373	0.000101
  11	9.9500e-01	0.1981	7.882508	0.000912	9.120603	1.545072	0.000183
  12	1.0945e+00	0.2186	7.939027	0.000284	2.837521	0.480689	0.000057
  13	1.1940e+00	0.2396	8.052067	0.000568	5.675042	0.961378	0.000114
  14	1.2935e+00	0.2583	8.165107	0.000568	5.675042	0.961378	0.000114
  15	1.3930e+00	0.2785	8.330630	0.000831	8.309883	1.407732	0.000166
  16	1.4925e+00	0.2988	8.419447	0.000446	4.458961	0.755369	0.000089
  17	1.5920e+00	0.3183	8.560746	0.000709	7.093802	1.201723	0.000142
  18	1.6915e+00	0.3384	8.673786	0.000568	5.675042	0.961378	0.000114
  19	1.7910e+00	0.3580	8.758566	0.000426	4.256281	0.721034	0.000085
  20	1.8905e+00	0.3786	8.863532	0.000527	5.269682	0.892708	0.000105
  21	1.9900e+00	0.3983	9.020980	0.000790	7.904522	1.339062	0.000158
  22	2.0895e+00	0.4174	9.097685	0.000385	3.850921	0.652364	0.000077
  23	2.1890e+00	0.4371	9.259171	0.000811	8.107203	1.373397	0.000162
  24	2.2885e+00	0.4574	9.364136	0.000527	5.269682	0.892708	0.000105
  25	2.3880e+00	0.4784	9.469102	0.000527	5.269682	0.892708	0.000105
  26	2.4875e+00	0.4977	9.598290	0.000649	6.485762	1.098718	0.000130
  27	2.5870e+00	0.5168	9.727479	0.000649	6.485762	1.098718	0.000130
  28	2.6865e+00	0.5379	9.844555	0.000588	5.877722	0.995713	0.000118
  29	2.7860e+00	0.5579	9.957595	0.000568	5.675042	0.961378	0.000114
  30	2.8855e+00	0.5769	10.066598	0.000547	5.472362	0.927043	0.000110
  31	2.9850e+00	0.5975	10.171563	0.000527	5.269682	0.892708	0.000105
  32	3.0845e+00	0.6171	10.337086	0.000831	8.309883	1.407732	0.000166
  33	3.1840e+00	0.6383	10.458200	0.000608	6.080402	1.030048	0.000122
  34	3.2835e+00	0.6570	10.534906	0.000385	3.850921	0.652364	0.000077
  35	3.3830e+00	0.6772	10.712540	0.000892	8.917923	1.510737	0.000179
  36	3.4825e+00	0.6972	10.805394	0.000466	4.661641	0.789703	0.000093
  37	3.5820e+00	0.7165	10.906322	0.000507	5.067002	0.858373	0.000101
  38	3.6815e+00	0.7368	11.015325	0.000547	5.472362	0.927043	0.000110
  39	3.7810e+00	0.7573	11.188922	0.000872	8.715243	1.476402	0.000174
  40	3.8805e+00	0.7759	11.326184	0.000689	6.891122	1.167388	0.000138
  41	3.9800e+00	0.7961	11.415001	0.000446	4.458961	0.755369	0.000089
  42	4.0795e+00	0.8167	11.568412	0.000770	7.701842	1.304727	0.000154
  43	4.1790e+00	0.8369	11.673378	0.000527	5.269682	0.892708	0.000105
  44	4.2785e+00	0.8567	11.822752	0.000750	7.499162	1.270392	0.000150
  45	4.3780e+00	0.8768	11.919643	0.000486	4.864322	0.824038	0.000097
  46	4.4775e+00	0.8956	12.036720	0.000588	5.877722	0.995713	0.000118
  47	4.5770e+00	0.9152	12.165909	0.000649	6.485762	1.098718	0.000130
  48	4.6765e+00	0.9344	12.270874	0.000527	5.269682	0.892708	0.000105
  49	4.7760e+00	0.9558	12.391988	0.000608	6.080402	1.030048	0.000122
  50	4.8755e+00	0.9753	12.537325	0.000730	7.296482	1.236058	0.000146
  51	4.9750e+00	0.9955	12.670551	0.000669	6.688442	1.133053	0.000134
  52	5.0745e+00	1.0155	12.799739	0.000649	6.485762	1.098718	0.000130
  53	5.1740e+00	1.0358	12.912779	0.000568	5.675042	0.961378	0.000114
  54	5.2735e+00	1.0551	13.033893	0.000608	6.080402	1.030048	0.000122
  55	5.3730e+00	1.0749	13.159044	0.000628	6.283082	1.064383	0.000126
  56	5.4725e+00	1.0959	13.288232	0.000649	6.485762	1.098718	0.000130
  57	5.5720e+00	1.1157	13.429532	0.000709	7.093802	1.201723	0.000142
  58	5.6715e+00	1.1353	13.510275	0.000405	4.053601	0.686699	0.000081
  59	5.7710e+00	1.1552	13.675797	0.000831	8.309883	1.407732	0.000166
  60	5.8705e+00	1.1761	13.817097	0.000709	7.093802	1.201723	0.000142
  61	5.9700e+00	1.1953	13.926100	0.000547	5.472362	0.927043	0.000110
  62	6.0695e+00	1.2148	14.043177	0.000588	5.877722	0.995713	0.000118
  63	6.1690e+00	1.2354	14.180439	0.000689	6.891122	1.167388	0.000138
  64	6.2685e+00	1.2556	14.293479	0.000568	5.675042	0.961378	0.000114
  65	6.3680e+00	1.2751	14.426705	0.000669	6.688442	1.133053	0.000134
  66	6.4675e+00	1.2943	14.547819	0.000608	6.080402	1.030048	0.000122
  67	6.5670e+00	1.3144	14.644710	0.000486	4.864322	0.824038	0.000097
  68	6.6665e+00	1.3342	14.761787	0.000588	5.877722	0.995713	0.000118
  69	6.7660e+00	1.3531	14.874827	0.000568	5.675042	0.961378	0.000114
  70	6.8655e+00	1.3738	15.088795	0.001074	10.742043	1.819751	0.000215
  71	6.9650e+00	1.3936	15.173575	0.000426	4.256281	0.721034	0.000085
  72	7.0645e+00	1.4137	15.322949	0.000750	7.499162	1.270392	0.000150
  73	7.1640e+00	1.4347	15.407729	0.000426	4.256281	0.721034	0.000085
  74	7.2635e+00	1.4527	15.516731	0.000547	5.472362	0.927043	0.000110
  75	7.3630e+00	1.4732	15.698402	0.000912	9.120603	1.545072	0.000183
  76	7.4625e+00	1.4938	15.803368	0.000527	5.269682	0.892708	0.000105
  77	7.5620e+00	1.5139	15.884111	0.000405	4.053601	0.686699	0.000081
  78	7.6615e+00	1.5337	16.009262	0.000628	6.283082	1.064383	0.000126
  79	7.7610e+00	1.5530	16.174784	0.000831	8.309883	1.407732	0.000166
  80	7.8605e+00	1.5734	16.308010	0.000669	6.688442	1.133053	0.000134
  81	7.9600e+00	1.5933	16.400864	0.000466	4.661641	0.789703	0.000093
  82	8.0595e+00	1.6125	16.550238	0.000750	7.499162	1.270392	0.000150
  83	8.1590e+00	1.6328	16.675389	0.000628	6.283082	1.064383	0.000126
  84	8.2585e+00	1.6531	16.764206	0.000446	4.458961	0.755369	0.000089
  85	8.3580e+00	1.6731	16.933766	0.000851	8.512563	1.442067	0.000170
  86	8.4575e+00	1.6930	17.054880	0.000608	6.080402	1.030048	0.000122
  87	8.5570e+00	1.7130	17.204254	0.000750	7.499162	1.270392	0.000150
  88	8.6565e+00	1.7327	17.313257	0.000547	5.472362	0.927043	0.000110
  89	8.7560e+00	1.7514	17.458593	0.000730	7.296482	1.236058	0.000146
  90	8.8555e+00	1.7728	17.587782	0.000649	6.485762	1.098718	0.000130
  91	8.9550e+00	1.7920	17.708896	0.000608	6.080402	1.030048	0.000122
  92	9.0545e+00	1.8128	17.834047	0.000628	6.283082	1.064383	0.000126
  93	9.1540e+00	1.8330	17.971310	0.000689	6.891122	1.167388	0.000138
  94	9.2535e+00	1.8522	18.068201	0.000486	4.864322	0.824038	0.000097
  95	9.3530e+00	1.8720	18.189315	0.000608	6.080402	1.030048	0.000122
  96	9.4525e+00	1.8919	18.362912	0.000872	8.715243	1.476402	0.000174
  97	9.5520e+00	1.9120	18.467877	0.000527	5.269682	0.892708	0.000105
  98	9.6515e+00	1.9320	18.597066	0.000649	6.485762	1.098718	0.000130
  99	9.7510e+00	1.9526	18.706068	0.000547	5.472362	0.927043	0.000110
 100	9.8505e+00	1.9711	18.851405	0.000730	7.296482	1.236058	0.000146
 101	9.9500e+00	1.9912	18.980594	0.000649	6.485762	1.098718	0.000130
 102	1.0050e+01	2.0112	19.081522	0.000507	5.067002	0.858373	0.000101
 103	1.0149e+01	2.0324	19.202636	0.000608	6.080402	1.030048	0.000122
 104	1.0248e+01	2.0512	19.360084	0.000790	7.904522	1.339062	0.000158
 105	1.0348e+01	2.0719	19.517533	0.000790	7.904522	1.339062	0.000158
 106	1.0447e+01	2.0909	19.606350	0.000446	4.458961	0.755369	0.000089
 107	1.0547e+01	2.1124	19.763798	0.000790	7.904522	1.339062	0.000158
 108	1.0646e+01	2.1308	19.872801	0.000547	5.472362	0.927043	0.000110
 109	1.0746e+01	2.1519	19.985840	0.000568	5.675042	0.961378	0.000114
 110	1.0845e+01	2.1720	20.098880	0.000568	5.675042	0.961378	0.000114
 111	1.0945e+01	2.1907	20.272477	0.000872	8.715243	1.476402	0.000174
 112	1.1044e+01	2.2108	20.361294	0.000446	4.458961	0.755369	0.000089
 113	1.1144e+01	2.2304	20.538928	0.000892	8.917923	1.510737	0.000179
 114	1.1243e+01	2.2509	20.651968	0.000568	5.675042	0.961378	0.000114
 115	1.1343e+01	2.2710	20.769045	0.000588	5.877722	0.995713	0.000118
 116	1.1443e+01	2.2912	20.874010	0.000527	5.269682	0.892708	0.000105
 117	1.1542e+01	2.3105	21.027421	0.000770	7.701842	1.304727	0.000154
 118	1.1642e+01	2.3309	21.172758	0.000730	7.296482	1.236058	0.000146
 119	1.1741e+01	2.3508	21.273687	0.000507	5.067002	0.858373	0.000101
 120	1.1841e+01	2.3705	21.419024	0.000730	7.296482	1.236058	0.000146
 121	1.1940e+01	2.3901	21.507841	0.000446	4.458961	0.755369	0.000089
 122	1.2040e+01	2.4102	21.657215	0.000750	7.499162	1.270392	0.000150
 123	1.2139e+01	2.4310	21.774292	0.000588	5.877722	0.995713	0.000118
 124	1.2239e+01	2.4500	21.907517	0.000669	6.688442	1.133053	0.000134
 125	1.2338e+01	2.4700	22.016520	0.000547	5.472362	0.927043	0.000110
 126	1.2438e+01	2.4908	22.149745	0.000669	6.688442	1.133053	0.000134
 127	1.2537e+01	2.5103	22.250674	0.000507	5.067002	0.858373	0.000101
 128	1.2636e+01	2.5291	22.400048	0.000750	7.499162	1.270392	0.000150
 129	1.2736e+01	2.5503	22.488865	0.000446	4.458961	0.755369	0.000089
 130	1.2835e+01	2.5691	22.646313	0.000790	7.904522	1.339062	0.000158
 131	1.2935e+01	2.5893	22.751278	0.000527	5.269682	0.892708	0.000105
 132	1.3034e+01	2.6090	22.912764	0.000811	8.107203	1.373397	0.000162
 133	1.3134e+01	2.6298	23.045989	0.000669	6.688442	1.133053	0.000134
 134	1.3233e+01	2.6488	23.150955	0.000527	5.269682	0.892708	0.000105
 135	1.3333e+01	2.6691	23.300329	0.000750	7.499162	1.270392	0.000150
 136	1.3432e+01	2.6894	23.417406	0.000588	5.877722	0.995713	0.000118
 137	1.3532e+01	2.7090	23.518334	0.000507	5.067002	0.858373	0.000101
 138	1.3632e+01	2.7286	23.623300	0.000527	5.269682	0.892708	0.000105
 139	1.3731e+01	2.7480	23.764600	0.000709	7.093802	1.201723	0.000142
 140	1.3831e+01	2.7678	23.897825	0.000669	6.688442	1.133053	0.000134
 141	1.3930e+01	2.7881	24.047199	0.000750	7.499162	1.270392	0.000150
 142	1.4030e+01	2.8093	24.144090	0.000486	4.864322	0.824038	0.000097
 143	1.4129e+01	2.8281	24.309613	0.000831	8.309883	1.407732	0.000166
 144	1.4229e+01	2.8481	24.394393	0.000426	4.256281	0.721034	0.000085
 145	1.4328e+01	2.8677	24.527618	0.000669	6.688442	1.133053	0.000134
 146	1.4428e+01	2.8883	24.652769	0.000628	6.283082	1.064383	0.000126
 147	1.4527e+01	2.9086	24.790032	0.000689	6.891122	1.167388	0.000138
 148	1.4627e+01	2.9274	24.894998	0.000527	5.269682	0.892708	0.000105
 149	1.4726e+01	2.9478	24.991889	0.000486	4.864322	0.824038	0.000097
 150	1.4825e+01	2.9679	25.117040	0.000628	6.283082	1.064383	0.000126
 151	1.4925e+01	2.9879	25.246228	0.000649	6.485762	1.098718	0.000130
 152	1.5024e+01	3.0083	25.363305	0.000588	5.877722	0.995713	0.000118
 153	1.5124e+01	3.0286	25.500568	0.000689	6.891122	1.167388	0.000138
 154	1.5223e+01	3.0478	25.589385	0.000446	4.458961	0.755369	0.000089
 155	1.5323e+01	3.0678	25.771056	0.000912	9.120603	1.545072	0.000183
 156	1.5422e+01	3.0881	25.876022	0.000527	5.269682	0.892708	0.000105
 157	1.5522e+01	3.1076	25.997136	0.000608	6.080402	1.030048	0.000122
 158	1.5621e+01	3.1270	26.126324	0.000649	6.485762	1.098718	0.000130
 159	1.5721e+01	3.1472	26.235327	0.000547	5.472362	0.927043	0.000110
 160	1.5820e+01	3.1674	26.384701	0.000750	7.499162	1.270392	0.000150
 161	1.5920e+01	3.1877	26.477555	0.000466	4.661641	0.789703	0.000093
 162	1.6020e+01	3.2070	26.618854	0.000709	7.093802	1.201723	0.000142
 163	1.6119e+01	3.2269	26.752080	0.000669	6.688442	1.133053	0.000134
 164	1.6218e+01	3.2466	26.844934	0.000466	4.661641	0.789703	0.000093
 165	1.6318e+01	3.2681	26.953937	0.000547	5.472362	0.927043	0.000110
 166	1.6418e+01	3.2874	27.054865	0.000507	5.067002	0.858373	0.000101
 167	1.6517e+01	3.3076	27.208276	0.000770	7.701842	1.304727	0.000154
 168	1.6616e+01	3.3261	27.337465	0.000649	6.485762	1.098718	0.000130
 169	1.6716e+01	3.3459	27.466653	0.000649	6.485762	1.098718	0.000130
 170	1.6816e+01	3.3662	27.551433	0.000426	4.256281	0.721034	0.000085
 171	1.6915e+01	3.3871	27.700807	0.000750	7.499162	1.270392	0.000150
 172	1.7015e+01	3.4060	27.797698	0.000486	4.864322	0.824038	0.000097
 173	1.7114e+01	3.4267	27.930924	0.000669	6.688442	1.133053	0.000134
 174	1.7213e+01	3.4461	28.052038	0.000608	6.080402	1.030048	0.000122
 175	1.7313e+01	3.4658	28.120669	0.000345	3.445561	0.583694	0.000069
 176	1.7413e+01	3.4861	28.266006	0.000730	7.296482	1.236058	0.000146
 177	1.7512e+01	3.5065	28.370971	0.000527	5.269682	0.892708	0.000105
 178	1.7611e+01	3.5264	28.500160	0.000649	6.485762	1.098718	0.000130
 179	1.7711e+01	3.5452	28.633385	0.000669	6.688442	1.133053	0.000134
 180	1.7811e+01	3.5655	28.726239	0.000466	4.661641	0.789703	0.000093
 181	1.7910e+01	3.5855	28.827168	0.000507	5.067002	0.858373	0.000101
 182	1.8009e+01	3.6053	28.968467	0.000709	7.093802	1.201723	0.000142
 183	1.8109e+01	3.6260	29.053247	0.000426	4.256281	0.721034	0.000085
 184	1.8209e+01	3.6449	29.182436	0.000649	6.485762	1.098718	0.000130
 185	1.8308e+01	3.6665	29.295475	0.000568	5.675042	0.961378	0.000114
 186	1.8407e+01	3.6855	29.392367	0.000486	4.864322	0.824038	0.000097
 187	1.8507e+01	3.7054	29.521555	0.000649	6.485762	1.098718	0.000130
 188	1.8607e+01	3.7246	29.650743	0.000649	6.485762	1.098718	0.000130
 189	1.8706e+01	3.7455	29.792043	0.000709	7.093802	1.201723	0.000142
 190	1.8805e+01	3.7653	29.848563	0.000284	2.837521	0.480689	0.000057
 191	1.8905e+01	3.7847	29.985826	0.000689	6.891122	1.167388	0.000138
 192	1.9005e+01	3.8039	30.110977	0.000628	6.283082	1.064383	0.000126
 193	1.9104e+01	3.8247	30.195757	0.000426	4.256281	0.721034	0.000085
 194	1.9203e+01	3.8437	30.349168	0.000770	7.701842	1.304727	0.000154
 195	1.9303e+01	3.8648	30.446059	0.000486	4.864322	0.824038	0.000097
 196	1.9402e+01	3.8837	30.563136	0.000588	5.877722	0.995713	0.000118
 197	1.9502e+01	3.9049	30.680213	0.000588	5.877722	0.995713	0.000118
 198	1.9602e+01	3.9246	30.769030	0.000446	4.458961	0.755369	0.000089
 199	1.9701e+01	3.9443	30.906293	0.000689	6.891122	1.167388	0.000138
 200	1.9800e+01	3.9634	31.011258	0.000527	5.269682	0.892708	0.000105
 201	1.9900e+01	3.9845	31.132372	0.000608	6.080402	1.030048	0.000122
 202	2.0000e+01	4.0029	31.245412	0.000568	5.675042	0.961378	0.000114
 203	2.0099e+01	4.0240	31.358452	0.000568	5.675042	0.961378	0.000114
 204	2.0198e+01	4.0431	31.475529	0.000588	5.877722	0.995713	0.000118
 205	2.0298e+01	4.0636	31.560309	0.000426	4.256281	0.721034	0.000085
 206	2.0398e+01	4.0841	31.697571	0.000689	6.891122	1.167388	0.000138
 207	2.0497e+01	4.1036	31.814648	0.000588	5.877722	0.995713	0.000118
 208	2.0596e+01	4.1236	31.907502	0.000466	4.661641	0.789703	0.000093
 209	2.0696e+01	4.1439	32.028616	0.000608	6.080402	1.030048	0.000122
 210	2.0796e+01	4.1628	32.169916	0.000709	7.093802	1.201723	0.000142
 211	2.0895e+01	4.1839	32.254696	0.000426	4.256281	0.721034	0.000085
 212	2.0994e+01	4.2027	32.404070	0.000750	7.499162	1.270392	0.000150
 213	2.1094e+01	4.2229	32.509036	0.000527	5.269682	0.892708	0.000105
 214	2.1194e+01	4.2425	32.573630	0.000324	3.242881	0.549359	0.000065
 215	2.1293e+01	4.2632	32.690707	0.000588	5.877722	0.995713	0.000118
 216	2.1392e+01	4.2825	32.832006	0.000709	7.093802	1.201723	0.000142
 217	2.1492e+01	4.3032	32.945046	0.000568	5.675042	0.961378	0.000114
 218	2.1591e+01	4.3223	33.045975	0.000507	5.067002	0.858373	0.000101
 219	2.1691e+01	4.3423	33.159014	0.000568	5.675042	0.961378	0.000114
 220	2.1791e+01	4.3618	33.259943	0.000507	5.067002	0.858373	0.000101
 221	2.1890e+01	4.3832	33.372983	0.000568	5.675042	0.961378	0.000114
 222	2.1989e+01	4.4028	33.490060	0.000588	5.877722	0.995713	0.000118
 223	2.2089e+01	4.4228	33.599062	0.000547	5.472362	0.927043	0.000110
 224	2.2189e+01	4.4428	33.712102	0.000568	5.675042	0.961378	0.000114
 225	2.2288e+01	4.4616	33.837253	0.000628	6.283082	1.064383	0.000126
 226	2.2387e+01	4.4817	33.926070	0.000446	4.458961	0.755369	0.000089
 227	2.2487e+01	4.5016	34.039110	0.000568	5.675042	0.961378	0.000114
 228	2.2587e+01	4.5229	34.184447	0.000730	7.296482	1.236058	0.000146
 229	2.2686e+01	4.5409	34.269227	0.000426	4.256281	0.721034	0.000085
 230	2.2785e+01	4.5620	34.345932	0.000385	3.850921	0.652364	0.000077
 231	2.2885e+01	4.5818	34.446861	0.000507	5.067002	0.858373	0.000101
 232	2.2985e+01	4.6015	34.604309	0.000790	7.904522	1.339062	0.000158
 233	2.3084e+01	4.6221	34.709275	0.000527	5.269682	0.892708	0.000105
 234	2.3183e+01	4.6418	34.810203	0.000507	5.067002	0.858373	0.000101
 235	2.3283e+01	4.6612	34.931317	0.000608	6.080402	1.030048	0.000122
 236	2.3383e+01	4.6815	35.036283	0.000527	5.269682	0.892708	0.000105
 237	2.3482e+01	4.7012	35.177582	0.000709	7.093802	1.201723	0.000142
 238	2.3581e+01	4.7226	35.221991	0.000223	2.229481	0.377684	0.000045
 239	2.3681e+01	4.7414	35.326956	0.000527	5.269682	0.892708	0.000105
 240	2.3780e+01	4.7605	35.476330	0.000750	7.499162	1.270392	0.000150
 241	2.3880e+01	4.7811	35.585333	0.000547	5.472362	0.927043	0.000110
 242	2.3980e+01	4.8013	35.686261	0.000507	5.067002	0.858373	0.000101
 243	2.4079e+01	4.8205	35.762967	0.000385	3.850921	0.652364	0.000077
 244	2.4178e+01	4.8400	35.892155	0.000649	6.485762	1.098718	0.000130
 245	2.4278e+01	4.8611	35.980972	0.000446	4.458961	0.755369	0.000089
 246	2.4378e+01	4.8810	36.094012	0.000568	5.675042	0.961378	0.000114
 247	2.4477e+01	4.9003	36.207052	0.000568	5.675042	0.961378	0.000114
 248	2.4576e+01	4.9203	36.328166	0.000608	6.080402	1.030048	0.000122
 249	2.4676e+01	4.9404	36.425057	0.000486	4.864322	0.824038	0.000097
 250	2.4776e+01	4.9596	36.542134	0.000588	5.877722	0.995713	0.000118
 251	2.4875e+01	4.9804	36.647100	0.000527	5.269682	0.892708	0.000105
 252	2.4974e+01	5.0005	36.776288	0.000649	6.485762	1.098718	0.000130
 253	2.5074e+01	5.0201	36.852994	0.000385	3.850921	0.652364	0.000077
 254	2.5174e+01	5.0393	36.953922	0.000507	5.067002	0.858373	0.000101
 255	2.5273e+01	5.0596	37.095222	0.000709	7.093802	1.201723	0.000142
 256	2.5372e+01	5.0792	37.180002	0.000426	4.256281	0.721034	0.000085
 257	2.5472e+01	5.1006	37.313227	0.000669	6.688442	1.133053	0.000134
 258	2.5572e+01	5.1188	37.410118	0.000486	4.864322	0.824038	0.000097
 259	2.5671e+01	5.1385	37.539307	0.000649	6.485762	1.098718	0.000130
 260	2.5770e+01	5.1597	37.603901	0.000324	3.242881	0.549359	0.000065
 261	2.5870e+01	5.1794	37.761349	0.000790	7.904522	1.339062	0.000158
 262	2.5970e+01	5.1995	37.846129	0.000426	4.256281	0.721034	0.000085
 263	2.6069e+01	5.2187	37.906686	0.000304	3.040201	0.515024	0.000061
 264	2.6169e+01	5.2387	38.056060	0.000750	7.499162	1.270392	0.000150
 265	2.6268e+01	5.2587	38.173137	0.000588	5.877722	0.995713	0.000118
 266	2.6367e+01	5.2776	38.253880	0.000405	4.053601	0.686699	0.000081
 267	2.6467e+01	5.2989	38.379031	0.000628	6.283082	1.064383	0.000126
 268	2.6567e+01	5.3193	38.479959	0.000507	5.067002	0.858373	0.000101
 269	2.6666e+01	5.3385	38.613185	0.000669	6.688442	1.133053	0.000134
 270	2.6765e+01	5.3592	38.714113	0.000507	5.067002	0.858373	0.000101
 271	2.6865e+01	5.3781	38.802930	0.000446	4.458961	0.755369	0.000089
 272	2.6965e+01	5.3978	38.932118	0.000649	6.485762	1.098718	0.000130
 273	2.7064e+01	5.4186	39.008824	0.000385	3.850921	0.652364	0.000077
 274	2.7163e+01	5.4375	39.133975	0.000628	6.283082	1.064383	0.000126
 275	2.7263e+01	5.4574	39.251052	0.000588	5.877722	0.995713	0.000118
 276	2.7363e+01	5.4786	39.347943	0.000486	4.864322	0.824038	0.000097
 277	2.7462e+01	5.4984	39.452909	0.000527	5.269682	0.892708	0.000105
 278	2.7561e+01	5.5187	39.537689	0.000426	4.256281	0.721034	0.000085
 279	2.7661e+01	5.5383	39.638617	0.000507	5.067002	0.858373	0.000101
 280	2.7761e+01	5.5582	39.747620	0.000547	5.472362	0.927043	0.000110
 281	2.7860e+01	5.5779	39.876808	0.000649	6.485762	1.098718	0.000130
 282	2.7959e+01	5.5962	39.937365	0.000304	3.040201	0.515024	0.000061
 283	2.8059e+01	5.6185	40.082702	0.000730	7.296482	1.236058	0.000146
 284	2.8159e+01	5.6373	40.236113	0.000770	7.701842	1.304727	0.000154
 285	2.8258e+01	5.6581	40.284559	0.000243	2.432161	0.412019	0.000049
 286	2.8358e+01	5.6768	40.417784	0.000669	6.688442	1.133053	0.000134
 287	2.8457e+01	5.6966	40.502564	0.000426	4.256281	0.721034	0.000085
 288	2.8556e+01	5.7165	40.607530	0.000527	5.269682	0.892708	0.000105
 289	2.8656e+01	5.7368	40.716532	0.000547	5.472362	0.927043	0.000110
 290	2.8756e+01	5.7558	40.825535	0.000547	5.472362	0.927043	0.000110
 291	2.8855e+01	5.7767	40.914352	0.000446	4.458961	0.755369	0.000089
 292	2.8954e+01	5.7963	40.978946	0.000324	3.242881	0.549359	0.000065
 293	2.9054e+01	5.8167	41.116209	0.000689	6.891122	1.167388	0.000138
 294	2.9154e+01	5.8376	41.205026	0.000446	4.458961	0.755369	0.000089
 295	2.9253e+01	5.8570	41.350363	0.000730	7.296482	1.236058	0.000146
 296	2.9352e+01	5.8755	41.423031	0.000365	3.648241	0.618029	0.000073
 297	2.9452e+01	5.8964	41.491663	0.000345	3.445561	0.583694	0.000069
 298	2.9552e+01	5.9162	41.645074	0.000770	7.701842	1.304727	0.000154
 299	2.9651e+01	5.9369	41.758114	0.000568	5.675042	0.961378	0.000114
 300	2.9750e+01	5.9562	41.838856	0.000405	4.053601	0.686699	0.000081
 301	2.9850e+01	5.9765	41.939785	0.000507	5.067002	0.858373	0.000101
 302	2.9950e+01	5.9962	42.036676	0.000486	4.864322	0.824038	0.000097
 303	3.0049e+01	6.0157	42.129530	0.000466	4.661641	0.789703	0.000093
 304	3.0148e+01	6.0354	42.226421	0.000486	4.864322	0.824038	0.000097
 305	3.0248e+01	6.0551	42.331387	0.000527	5.269682	0.892708	0.000105
 306	3.0348e+01	6.0757	42.416167	0.000426	4.256281	0.721034	0.000085
 307	3.0447e+01	6.0967	42.569578	0.000770	7.701842	1.304727	0.000154
 308	3.0547e+01	6.1144	42.658395	0.000446	4.458961	0.755369	0.000089
 309	3.0646e+01	6.1354	42.722989	0.000324	3.242881	0.549359	0.000065
 310	3.0745e+01	6.1559	42.840066	0.000588	5.877722	0.995713	0.000118
 311	3.0845e+01	6.1749	42.936957	0.000486	4.864322	0.824038	0.000097
 312	3.0945e+01	6.1950	43.070183	0.000669	6.688442	1.133053	0.000134
 313	3.1044e+01	6.2159	43.142851	0.000365	3.648241	0.618029	0.000073
 314	3.1143e+01	6.2354	43.243779	0.000507	5.067002	0.858373	0.000101
 315	3.1243e+01	6.2554	43.300299	0.000284	2.837521	0.480689	0.000057
 316	3.1343e+01	6.2749	43.433525	0.000669	6.688442	1.133053	0.000134
 317	3.1442e+01	6.2955	43.550602	0.000588	5.877722	0.995713	0.000118
 318	3.1541e+01	6.3142	43.635382	0.000426	4.256281	0.721034	0.000085
 319	3.1641e+01	6.3335	43.744384	0.000547	5.472362	0.927043	0.000110
 320	3.1741e+01	6.3535	43.857424	0.000568	5.675042	0.961378	0.000114
 321	3.1840e+01	6.3746	43.966427	0.000547	5.472362	0.927043	0.000110
 322	3.1939e+01	6.3937	44.014872	0.000243	2.432161	0.412019	0.000049
 323	3.2039e+01	6.4144	44.127912	0.000568	5.675042	0.961378	0.000114
 324	3.2139e+01	6.4334	44.240952	0.000568	5.675042	0.961378	0.000114
 325	3.2238e+01	6.4539	44.329769	0.000446	4.458961	0.755369	0.000089
 326	3.2337e+01	6.4736	44.422623	0.000466	4.661641	0.789703	0.000093
 327	3.2437e+01	6.4931	44.523551	0.000507	5.067002	0.858373	0.000101
 328	3.2536e+01	6.5139	44.644666	0.000608	6.080402	1.030048	0.000122
 329	3.2636e+01	6.5334	44.725408	0.000405	4.053601	0.686699	0.000081
 330	3.2736e+01	6.5540	44.814225	0.000446	4.458961	0.755369	0.000089
 331	3.2835e+01	6.5734	44.907079	0.000466	4.661641	0.789703	0.000093
 332	3.2934e+01	6.5936	44.999934	0.000466	4.661641	0.789703	0.000093
 333	3.3034e+01	6.6126	45.104899	0.000527	5.269682	0.892708	0.000105
 334	3.3133e+01	6.6322	45.205827	0.000507	5.067002	0.858373	0.000101
 335	3.3233e+01	6.6528	45.306756	0.000507	5.067002	0.858373	0.000101
 336	3.3333e+01	6.6738	45.399610	0.000466	4.661641	0.789703	0.000093
 337	3.3432e+01	6.6924	45.484390	0.000426	4.256281	0.721034	0.000085
 338	3.3532e+01	6.7123	45.601467	0.000588	5.877722	0.995713	0.000118
 339	3.3631e+01	6.7335	45.670098	0.000345	3.445561	0.583694	0.000069
 340	3.3730e+01	6.7528	45.803324	0.000669	6.688442	1.133053	0.000134
 341	3.3830e+01	6.7723	45.855806	0.000263	2.634841	0.446354	0.000053
 342	3.3929e+01	6.7927	45.952698	0.000486	4.864322	0.824038	0.000097
 343	3.4029e+01	6.8127	46.065737	0.000568	5.675042	0.961378	0.000114
 344	3.4129e+01	6.8324	46.166666	0.000507	5.067002	0.858373	0.000101
 345	3.4228e+01	6.8519	46.247408	0.000405	4.053601	0.686699	0.000081
 346	3.4328e+01	6.8727	46.320077	0.000365	3.648241	0.618029	0.000073
 347	3.4427e+01	6.8920	46.437154	0.000588	5.877722	0.995713	0.000118
 348	3.4526e+01	6.9120	46.534045	0.000486	4.864322	0.824038	0.000097
 349	3.4626e+01	6.9320	46.622862	0.000446	4.458961	0.755369	0.000089
 350	3.4725e+01	6.9517	46.687456	0.000324	3.242881	0.549359	0.000065
 351	3.4825e+01	6.9719	46.812607	0.000628	6.283082	1.064383	0.000126
 352	3.4925e+01	6.9915	46.917573	0.000527	5.269682	0.892708	0.000105
 353	3.5024e+01	7.0121	46.998316	0.000405	4.053601	0.686699	0.000081
 354	3.5123e+01	7.0313	47.083096	0.000426	4.256281	0.721034	0.000085
 355	3.5223e+01	7.0515	47.179987	0.000486	4.864322	0.824038	0.000097
 356	3.5322e+01	7.0713	47.280915	0.000507	5.067002	0.858373	0.000101
 357	3.5422e+01	7.0907	47.357621	0.000385	3.850921	0.652364	0.000077
 358	3.5522e+01	7.1111	47.458549	0.000507	5.067002	0.858373	0.000101
 359	3.5621e+01	7.1312	47.506995	0.000243	2.432161	0.412019	0.000049
 360	3.5721e+01	7.1511	47.607923	0.000507	5.067002	0.858373	0.000101
 361	3.5820e+01	7.1711	47.692703	0.000426	4.256281	0.721034	0.000085
 362	3.5919e+01	7.1908	47.765371	0.000365	3.648241	0.618029	0.000073
 363	3.6019e+01	7.2111	47.926857	0.000811	8.107203	1.373397	0.000162
 364	3.6118e+01	7.2300	48.023748	0.000486	4.864322	0.824038	0.000097
 365	3.6218e+01	7.2510	48.100454	0.000385	3.850921	0.652364	0.000077
 366	3.6318e+01	7.2709	48.128714	0.000142	1.418760	0.240345	0.000028
 367	3.6417e+01	7.2903	48.241754	0.000568	5.675042	0.961378	0.000114
 368	3.6517e+01	7.3096	48.362868	0.000608	6.080402	1.030048	0.000122
 369	3.6616e+01	7.3301	48.427462	0.000324	3.242881	0.549359	0.000065
 370	3.6715e+01	7.3502	48.540502	0.000568	5.675042	0.961378	0.000114
 371	3.6815e+01	7.3697	48.629319	0.000446	4.458961	0.755369	0.000089
 372	3.6914e+01	7.3898	48.722173	0.000466	4.661641	0.789703	0.000093
 373	3.7014e+01	7.4094	48.819064	0.000486	4.864322	0.824038	0.000097
 374	3.7114e+01	7.4305	48.871547	0.000263	2.634841	0.446354	0.000053
 375	3.7213e+01	7.4491	48.980549	0.000547	5.472362	0.927043	0.000110
 376	3.7313e+01	7.4693	49.073403	0.000466	4.661641	0.789703	0.000093
 377	3.7412e+01	7.4905	49.162220	0.000446	4.458961	0.755369	0.000089
 378	3.7511e+01	7.5094	49.238926	0.000385	3.850921	0.652364	0.000077
 379	3.7611e+01	7.5301	49.351966	0.000568	5.675042	0.961378	0.000114
 380	3.7711e+01	7.5497	49.400411	0.000243	2.432161	0.412019	0.000049
 381	3.7810e+01	7.5694	49.545748	0.000730	7.296482	1.236058	0.000146
 382	3.7910e+01	7.5887	49.646677	0.000507	5.067002	0.858373	0.000101
 383	3.8009e+01	7.6077	49.695122	0.000243	2.432161	0.412019	0.000049
 384	3.8108e+01	7.6287	49.804125	0.000547	5.472362	0.927043	0.000110
 385	3.8208e+01	7.6496	49.892942	0.000446	4.458961	0.755369	0.000089
 386	3.8307e+01	7.6685	49.957536	0.000324	3.242881	0.549359	0.000065
 387	3.8407e+01	7.6888	50.074613	0.000588	5.877722	0.995713	0.000118
 388	3.8507e+01	7.7086	50.171504	0.000486	4.864322	0.824038	0.000097
 389	3.8606e+01	7.7295	50.252247	0.000405	4.053601	0.686699	0.000081
 390	3.8706e+01	7.7491	50.353175	0.000507	5.067002	0.858373	0.000101
 391	3.8805e+01	7.7686	50.413733	0.000304	3.040201	0.515024	0.000061
 392	3.8904e+01	7.7879	50.514661	0.000507	5.067002	0.858373	0.000101
 393	3.9004e+01	7.8085	50.607515	0.000466	4.661641	0.789703	0.000093
 394	3.9103e+01	7.8273	50.688258	0.000405	4.053601	0.686699	0.000081
 395	3.9203e+01	7.8472	50.773038	0.000426	4.256281	0.721034	0.000085
 396	3.9303e+01	7.8676	50.894152	0.000608	6.080402	1.030048	0.000122
 397	3.9402e+01	7.8875	50.954709	0.000304	3.040201	0.515024	0.000061
 398	3.9502e+01	7.9087	51.039489	0.000426	4.256281	0.721034	0.000085
 399	3.9601e+01	7.9271	51.104083	0.000324	3.242881	0.549359	0.000065
 400	3.9700e+01	7.9492	51.205011	0.000507	5.067002	0.858373	0.000101
 401	3.9800e+01	7.9681	51.309977	0.000527	5.269682	0.892708	0.000105
 402	3.9900e+01	7.9871	51.431091	0.000608	6.080402	1.030048	0.000122
 403	3.9999e+01	8.0079	51.491648	0.000304	3.040201	0.515024	0.000061
 404	4.0099e+01	8.0276	51.580465	0.000446	4.458961	0.755369	0.000089
 405	4.0198e+01	8.0480	51.685430	0.000527	5.269682	0.892708	0.000105
 406	4.0297e+01	8.0680	51.737913	0.000263	2.634841	0.446354	0.000053
 407	4.0397e+01	8.0865	51.790396	0.000263	2.634841	0.446354	0.000053
 408	4.0496e+01	8.1081	51.919584	0.000649	6.485762	1.098718	0.000130
 409	4.0596e+01	8.1277	51.984178	0.000324	3.242881	0.549359	0.000065
 410	4.0696e+01	8.1467	52.101255	0.000588	5.877722	0.995713	0.000118
 411	4.0795e+01	8.1664	52.169887	0.000345	3.445561	0.583694	0.000069
 412	4.0895e+01	8.1873	52.238518	0.000345	3.445561	0.583694	0.000069
 413	4.0994e+01	8.2069	52.319261	0.000405	4.053601	0.686699	0.000081
 414	4.1093e+01	8.2264	52.424226	0.000527	5.269682	0.892708	0.000105
 415	4.1193e+01	8.2468	52.533229	0.000547	5.472362	0.927043	0.000110
 416	4.1292e+01	8.2677	52.609934	0.000385	3.850921	0.652364	0.000077
 417	4.1392e+01	8.2873	52.690677	0.000405	4.053601	0.686699	0.000081
 418	4.1492e+01	8.3061	52.775457	0.000426	4.256281	0.721034	0.000085
 419	4.1591e+01	8.3260	52.928868	0.000770	7.701842	1.304727	0.000154
 420	4.1691e+01	8.3448	52.957128	0.000142	1.418760	0.240345	0.000028
 421	4.1790e+01	8.3663	53.037871	0.000405	4.053601	0.686699	0.000081
 422	4.1889e+01	8.3858	53.134762	0.000486	4.864322	0.824038	0.000097
 423	4.1989e+01	8.4058	53.203393	0.000345	3.445561	0.583694	0.000069
 424	4.2089e+01	8.4255	53.328545	0.000628	6.283082	1.064383	0.000126
 425	4.2188e+01	8.4464	53.397176	0.000345	3.445561	0.583694	0.000069
 426	4.2288e+01	8.4653	53.469844	0.000365	3.648241	0.618029	0.000073
 427	4.2387e+01	8.4863	53.566736	0.000486	4.864322	0.824038	0.000097
 428	4.2486e+01	8.5053	53.651515	0.000426	4.256281	0.721034	0.000085
 429	4.2586e+01	8.5261	53.740332	0.000446	4.458961	0.755369	0.000089
 430	4.2685e+01	8.5461	53.808964	0.000345	3.445561	0.583694	0.000069
 431	4.2785e+01	8.5646	53.905855	0.000486	4.864322	0.824038	0.000097
 432	4.2885e+01	8.5851	54.026969	0.000608	6.080402	1.030048	0.000122
 433	4.2984e+01	8.6050	54.115786	0.000446	4.458961	0.755369	0.000089
 434	4.3084e+01	8.6251	54.228826	0.000568	5.675042	0.961378	0.000114
 435	4.3183e+01	8.6445	54.289383	0.000304	3.040201	0.515024	0.000061
 436	4.3282e+01	8.6655	54.378200	0.000446	4.458961	0.755369	0.000089
 437	4.3382e+01	8.6855	54.438757	0.000304	3.040201	0.515024	0.000061
 438	4.3481e+01	8.7046	54.539685	0.000507	5.067002	0.858373	0.000101
 439	4.3581e+01	8.7244	54.644651	0.000527	5.269682	0.892708	0.000105
 440	4.3681e+01	8.7441	54.737505	0.000466	4.661641	0.789703	0.000093
 441	4.3780e+01	8.7649	54.822285	0.000426	4.256281	0.721034	0.000085
 442	4.3880e+01	8.7842	54.890916	0.000345	3.445561	0.583694	0.000069
 443	4.3979e+01	8.8047	54.995882	0.000527	5.269682	0.892708	0.000105
 444	4.4078e+01	8.8242	55.064513	0.000345	3.445561	0.583694	0.000069
 445	4.4178e+01	8.8435	55.149293	0.000426	4.256281	0.721034	0.000085
 446	4.4278e+01	8.8630	55.225998	0.000385	3.850921	0.652364	0.000077
 447	4.4377e+01	8.8831	55.330964	0.000527	5.269682	0.892708	0.000105
 448	4.4477e+01	8.9038	55.391521	0.000304	3.040201	0.515024	0.000061
 449	4.4576e+01	8.9237	55.488412	0.000486	4.864322	0.824038	0.000097
 450	4.4675e+01	8.9423	55.613563	0.000628	6.283082	1.064383	0.000126
 451	4.4775e+01	8.9636	55.686232	0.000365	3.648241	0.618029	0.000073
 452	4.4874e+01	8.9820	55.722566	0.000182	1.824121	0.309014	0.000037
 453	4.4974e+01	9.0028	55.843680	0.000608	6.080402	1.030048	0.000122
 454	4.5074e+01	9.0224	55.892126	0.000243	2.432161	0.412019	0.000049
 455	4.5173e+01	9.0420	56.001128	0.000547	5.472362	0.927043	0.000110
 456	4.5273e+01	9.0625	56.114168	0.000568	5.675042	0.961378	0.000114
 457	4.5372e+01	9.0827	56.182799	0.000345	3.445561	0.583694	0.000069
 458	4.5471e+01	9.1017	56.263542	0.000405	4.053601	0.686699	0.000081
 459	4.5571e+01	9.1221	56.311988	0.000243	2.432161	0.412019	0.000049
 460	4.5670e+01	9.1434	56.416953	0.000527	5.269682	0.892708	0.000105
 461	4.5770e+01	9.1619	56.521919	0.000527	5.269682	0.892708	0.000105
 462	4.5870e+01	9.1824	56.606699	0.000426	4.256281	0.721034	0.000085
 463	4.5969e+01	9.2022	56.711664	0.000527	5.269682	0.892708	0.000105
 464	4.6069e+01	9.2217	56.727813	0.000081	0.810720	0.137340	0.000016
 465	4.6168e+01	9.2422	56.852964	0.000628	6.283082	1.064383	0.000126
 466	4.6267e+01	9.2619	56.957930	0.000527	5.269682	0.892708	0.000105
 467	4.6367e+01	9.2822	57.014449	0.000284	2.837521	0.480689	0.000057
 468	4.6467e+01	9.3005	57.099229	0.000426	4.256281	0.721034	0.000085
 469	4.6566e+01	9.3201	57.167861	0.000345	3.445561	0.583694	0.000069
 470	4.6666e+01	9.3413	57.232455	0.000324	3.242881	0.549359	0.000065
 471	4.6765e+01	9.3616	57.357606	0.000628	6.283082	1.064383	0.000126
 472	4.6864e+01	9.3823	57.442386	0.000426	4.256281	0.721034	0.000085
 473	4.6964e+01	9.4019	57.511017	0.000345	3.445561	0.583694	0.000069
 474	4.7063e+01	9.4210	57.607908	0.000486	4.864322	0.824038	0.000097
 475	4.7163e+01	9.4406	57.672503	0.000324	3.242881	0.549359	0.000065
 476	4.7263e+01	9.4611	57.761320	0.000446	4.458961	0.755369	0.000089
 477	4.7362e+01	9.4801	57.829951	0.000345	3.445561	0.583694	0.000069
 478	4.7462e+01	9.4994	57.942991	0.000568	5.675042	0.961378	0.000114
 479	4.7561e+01	9.5199	58.019696	0.000385	3.850921	0.652364	0.000077
 480	4.7660e+01	9.5405	58.084290	0.000324	3.242881	0.549359	0.000065
 481	4.7760e+01	9.5602	58.193293	0.000547	5.472362	0.927043	0.000110
 482	4.7859e+01	9.5808	58.265962	0.000365	3.648241	0.618029	0.000073
 483	4.7959e+01	9.6014	58.370927	0.000527	5.269682	0.892708	0.000105
 484	4.8059e+01	9.6204	58.443596	0.000365	3.648241	0.618029	0.000073
 485	4.8158e+01	9.6403	58.532412	0.000446	4.458961	0.755369	0.000089
 486	4.8258e+01	9.6598	58.601044	0.000345	3.445561	0.583694	0.000069
 487	4.8357e+01	9.6800	58.677749	0.000385	3.850921	0.652364	0.000077
 488	4.8456e+01	9.6995	58.754455	0.000385	3.850921	0.652364	0.000077
 489	4.8556e+01	9.7199	58.859420	0.000527	5.269682	0.892708	0.000105
 490	4.8656e+01	9.7394	58.936126	0.000385	3.850921	0.652364	0.000077
 491	4.8755e+01	9.7600	59.033017	0.000486	4.864322	0.824038	0.000097
 492	4.8855e+01	9.7791	59.101649	0.000345	3.445561	0.583694	0.000069
 493	4.8954e+01	9.7998	59.166243	0.000324	3.242881	0.549359	0.000065
 494	4.9053e+01	9.8194	59.263134	0.000486	4.864322	0.824038	0.000097
 495	4.9153e+01	9.8392	59.355988	0.000466	4.661641	0.789703	0.000093
 496	4.9252e+01	9.8591	59.424619	0.000345	3.445561	0.583694	0.000069
 497	4.9352e+01	9.8792	59.529585	0.000527	5.269682	0.892708	0.000105
 498	4.9452e+01	9.8993	59.578031	0.000243	2.432161	0.412019	0.000049
 499	4.9551e+01	9.9183	59.666848	0.000446	4.458961	0.755369	0.000089
 500	4.9651e+01	9.9384	59.771813	0.000527	5.269682	0.892708	0.000105
 501	4.9750e+01	9.9586	59.812185	0.000203	2.026801	0.343349	0.000041
 502	4.9849e+01	9.9783	59.905039	0.000466	4.661641	0.789703	0.000093
 503	4.9949e+01	9.9988	59.993856	0.000446	4.458961	0.755369	0.000089
 504	5.0048e+01	9.9792	59.921187	0.000365	3.648241	0.618029	-0.000073
 505	5.0148e+01	9.9596	59.888890	0.000162	1.621441	0.274679	-0.000032
 506	5.0248e+01	9.9390	59.824296	0.000324	3.242881	0.549359	-0.000065
 507	5.0347e+01	9.9183	59.755665	0.000345	3.445561	0.583694	-0.000069
 508	5.0447e+01	9.8992	59.670885	0.000426	4.256281	0.721034	-0.000085
 509	5.0546e+01	9.8792	59.638588	0.000162	1.621441	0.274679	-0.000032
 510	5.0645e+01	9.8589	59.557845	0.000405	4.053601	0.686699	-0.000081
 511	5.0745e+01	9.8396	59.477102	0.000405	4.053601	0.686699	-0.000081
 512	5.0844e+01	9.8196	59.408471	0.000345	3.445561	0.583694	-0.000069
 513	5.0944e+01	9.7998	59.368100	0.000203	2.026801	0.343349	-0.000041
 514	5.1044e+01	9.7793	59.275245	0.000466	4.661641	0.789703	-0.000093
 515	5.1143e+01	9.7598	59.182391	0.000466	4.661641	0.789703	-0.000093
 516	5.1242e+01	9.7396	59.150094	0.000162	1.621441	0.274679	-0.000032
 517	5.1342e+01	9.7197	59.077426	0.000365	3.648241	0.618029	-0.000073
 518	5.1441e+01	9.6986	59.008795	0.000345	3.445561	0.583694	-0.000069
 519	5.1541e+01	9.6803	58.932089	0.000385	3.850921	0.652364	-0.000077
 520	5.1641e+01	9.6601	58.879606	0.000263	2.634841	0.446354	-0.000053
 521	5.1740e+01	9.6400	58.782715	0.000486	4.864322	0.824038	-0.000097
 522	5.1840e+01	9.6207	58.730232	0.000263	2.634841	0.446354	-0.000053
 523	5.1939e+01	9.6000	58.669675	0.000304	3.040201	0.515024	-0.000061
 524	5.2038e+01	9.5811	58.597007	0.000365	3.648241	0.618029	-0.000073
 525	5.2138e+01	9.5606	58.524338	0.000365	3.648241	0.618029	-0.000073
 526	5.2237e+01	9.5399	58.435521	0.000446	4.458961	0.755369	-0.000089
 527	5.2337e+01	9.5201	58.362853	0.000365	3.648241	0.618029	-0.000073
 528	5.2437e+01	9.5004	58.314407	0.000243	2.432161	0.412019	-0.000049
 529	5.2536e+01	9.4814	58.249813	0.000324	3.242881	0.549359	-0.000065
 530	5.2636e+01	9.4604	58.173107	0.000385	3.850921	0.652364	-0.000077
 531	5.2735e+01	9.4414	58.092365	0.000405	4.053601	0.686699	-0.000081
 532	5.2834e+01	9.4215	58.015659	0.000385	3.850921	0.652364	-0.000077
 533	5.2934e+01	9.4019	57.942991	0.000365	3.648241	0.618029	-0.000073
 534	5.3033e+01	9.3815	57.890508	0.000263	2.634841	0.446354	-0.000053
 535	5.3133e+01	9.3618	57.829951	0.000304	3.040201	0.515024	-0.000061
 536	5.3233e+01	9.3417	57.745171	0.000426	4.256281	0.721034	-0.000085
 537	5.3332e+01	9.3223	57.664428	0.000405	4.053601	0.686699	-0.000081
 538	5.3431e+01	9.3018	57.595797	0.000345	3.445561	0.583694	-0.000069
 539	5.3531e+01	9.2822	57.523129	0.000365	3.648241	0.618029	-0.000073
 540	5.3630e+01	9.2627	57.470646	0.000263	2.634841	0.446354	-0.000053
 541	5.3730e+01	9.2425	57.377792	0.000466	4.661641	0.789703	-0.000093
 542	5.3830e+01	9.2225	57.357606	0.000101	1.013400	0.171675	-0.000020
 543	5.3929e+01	9.2017	57.244566	0.000568	5.675042	0.961378	-0.000114
 544	5.4029e+01	9.1815	57.155749	0.000446	4.458961	0.755369	-0.000089
 545	5.4128e+01	9.1627	57.062895	0.000466	4.661641	0.789703	-0.000093
 546	5.4227e+01	9.1428	57.058858	0.000020	0.202680	0.034335	-0.000004
 547	5.4327e+01	9.1222	56.974078	0.000426	4.256281	0.721034	-0.000085
 548	5.4426e+01	9.1018	56.848927	0.000628	6.283082	1.064383	-0.000126
 549	5.4526e+01	9.0823	56.800481	0.000243	2.432161	0.412019	-0.000049
 550	5.4626e+01	9.0627	56.715701	0.000426	4.256281	0.721034	-0.000085
 551	5.4725e+01	9.0421	56.679367	0.000182	1.824121	0.309014	-0.000037
 552	5.4825e+01	9.0219	56.598624	0.000405	4.053601	0.686699	-0.000081
 553	5.4924e+01	9.0025	56.521919	0.000385	3.850921	0.652364	-0.000077
 554	5.5023e+01	8.9825	56.461362	0.000304	3.040201	0.515024	-0.000061
 555	5.5123e+01	8.9631	56.392731	0.000345	3.445561	0.583694	-0.000069
 556	5.5222e+01	8.9429	56.311988	0.000405	4.053601	0.686699	-0.000081
 557	5.5322e+01	8.9227	56.211059	0.000507	5.067002	0.858373	-0.000101
 558	5.5422e+01	8.9036	56.138391	0.000365	3.648241	0.618029	-0.000073
 559	5.5521e+01	8.8830	56.089945	0.000243	2.432161	0.412019	-0.000049
 560	5.5620e+01	8.8632	55.980943	0.000547	5.472362	0.927043	-0.000110
 561	5.5720e+01	8.8438	55.916349	0.000324	3.242881	0.549359	-0.000065
 562	5.5819e+01	8.8236	55.875977	0.000203	2.026801	0.343349	-0.000041
 563	5.5919e+01	8.8042	55.791197	0.000426	4.256281	0.721034	-0.000085
 564	5.6019e+01	8.7842	55.726603	0.000324	3.242881	0.549359	-0.000065
 565	5.6118e+01	8.7650	55.649898	0.000385	3.850921	0.652364	-0.000077
 566	5.6218e+01	8.7444	55.561081	0.000446	4.458961	0.755369	-0.000089
 567	5.6317e+01	8.7244	55.480338	0.000405	4.053601	0.686699	-0.000081
 568	5.6416e+01	8.7045	55.407669	0.000365	3.648241	0.618029	-0.000073
 569	5.6516e+01	8.6860	55.355187	0.000263	2.634841	0.446354	-0.000053
 570	5.6615e+01	8.6643	55.234073	0.000608	6.080402	1.030048	-0.000122
 571	5.6715e+01	8.6454	55.153330	0.000405	4.053601	0.686699	-0.000081
 572	5.6815e+01	8.6252	55.092773	0.000304	3.040201	0.515024	-0.000061
 573	5.6914e+01	8.6058	54.987807	0.000527	5.269682	0.892708	-0.000105
 574	5.7014e+01	8.5851	54.919176	0.000345	3.445561	0.583694	-0.000069
 575	5.7113e+01	8.5658	54.862656	0.000284	2.837521	0.480689	-0.000057
 576	5.7212e+01	8.5444	54.814210	0.000243	2.432161	0.412019	-0.000049
 577	5.7312e+01	8.5263	54.725393	0.000446	4.458961	0.755369	-0.000089
 578	5.7411e+01	8.5052	54.612354	0.000568	5.675042	0.961378	-0.000114
 579	5.7511e+01	8.4847	54.563908	0.000243	2.432161	0.412019	-0.000049
 580	5.7611e+01	8.4658	54.487202	0.000385	3.850921	0.652364	-0.000077
 581	5.7710e+01	8.4460	54.394348	0.000466	4.661641	0.789703	-0.000093
 582	5.7809e+01	8.4250	54.325717	0.000345	3.445561	0.583694	-0.000069
 583	5.7909e+01	8.4068	54.249011	0.000385	3.850921	0.652364	-0.000077
 584	5.8008e+01	8.3860	54.212677	0.000182	1.824121	0.309014	-0.000037
 585	5.8108e+01	8.3657	54.099637	0.000568	5.675042	0.961378	-0.000114
 586	5.8208e+01	8.3462	54.014858	0.000426	4.256281	0.721034	-0.000085
 587	5.8307e+01	8.3265	53.946226	0.000345	3.445561	0.583694	-0.000069
 588	5.8407e+01	8.3065	53.889706	0.000284	2.837521	0.480689	-0.000057
 589	5.8506e+01	8.2874	53.796852	0.000466	4.661641	0.789703	-0.000093
 590	5.8605e+01	8.2658	53.748407	0.000243	2.432161	0.412019	-0.000049
 591	5.8705e+01	8.2465	53.671701	0.000385	3.850921	0.652364	-0.000077
 592	5.8804e+01	8.2264	53.590958	0.000405	4.053601	0.686699	-0.000081
 593	5.8904e+01	8.2076	53.518290	0.000365	3.648241	0.618029	-0.000073
 594	5.9004e+01	8.1867	53.409287	0.000547	5.472362	0.927043	-0.000110
 595	5.9103e+01	8.1666	53.316433	0.000466	4.661641	0.789703	-0.000093
 596	5.9203e+01	8.1472	53.296247	0.000101	1.013400	0.171675	-0.000020
 597	5.9302e+01	8.1271	53.199356	0.000486	4.864322	0.824038	-0.000097
 598	5.9401e+01	8.1072	53.114576	0.000426	4.256281	0.721034	-0.000085
 599	5.9501e+01	8.0875	53.082279	0.000162	1.621441	0.274679	-0.000032
 600	5.9600e+01	8.0672	52.981351	0.000507	5.067002	0.858373	-0.000101
 601	5.9700e+01	8.0482	52.900608	0.000405	4.053601	0.686699	-0.000081
 602	5.9800e+01	8.0285	52.844088	0.000284	2.837521	0.480689	-0.000057
 603	5.9899e+01	8.0070	52.783531	0.000304	3.040201	0.515024	-0.000061
 604	5.9998e+01	7.9870	52.686640	0.000486	4.864322	0.824038	-0.000097
 605	6.0098e+01	7.9682	52.658380	0.000142	1.418760	0.240345	-0.000028
 606	6.0197e+01	7.9483	52.557452	0.000507	5.067002	0.858373	-0.000101
 607	6.0297e+01	7.9273	52.452486	0.000527	5.269682	0.892708	-0.000105
 608	6.0397e+01	7.9074	52.395966	0.000284	2.837521	0.480689	-0.000057
 609	6.0496e+01	7.8872	52.315223	0.000405	4.053601	0.686699	-0.000081
 610	6.0596e+01	7.8680	52.234481	0.000405	4.053601	0.686699	-0.000081
 611	6.0695e+01	7.8486	52.181998	0.000263	2.634841	0.446354	-0.000053
 612	6.0794e+01	7.8281	52.081070	0.000507	5.067002	0.858373	-0.000101
 613	6.0894e+01	7.8086	52.008401	0.000365	3.648241	0.618029	-0.000073
 614	6.0993e+01	7.7884	51.943807	0.000324	3.242881	0.549359	-0.000065
 615	6.1093e+01	7.7680	51.883250	0.000304	3.040201	0.515024	-0.000061
 616	6.1193e+01	7.7486	51.770210	0.000568	5.675042	0.961378	-0.000114
 617	6.1292e+01	7.7280	51.721765	0.000243	2.432161	0.412019	-0.000049
 618	6.1392e+01	7.7082	51.620836	0.000507	5.067002	0.858373	-0.000101
 619	6.1491e+01	7.6894	51.572390	0.000243	2.432161	0.412019	-0.000049
 620	6.1590e+01	7.6689	51.467425	0.000527	5.269682	0.892708	-0.000105
 621	6.1690e+01	7.6493	51.358422	0.000547	5.472362	0.927043	-0.000110
 622	6.1789e+01	7.6292	51.285754	0.000365	3.648241	0.618029	-0.000073
 623	6.1889e+01	7.6092	51.225197	0.000304	3.040201	0.515024	-0.000061
 624	6.1989e+01	7.5895	51.156566	0.000345	3.445561	0.583694	-0.000069
 625	6.2088e+01	7.5698	51.027377	0.000649	6.485762	1.098718	-0.000130
 626	6.2188e+01	7.5497	51.011229	0.000081	0.810720	0.137340	-0.000016
 627	6.2287e+01	7.5293	50.950672	0.000304	3.040201	0.515024	-0.000061
 628	6.2386e+01	7.5092	50.861855	0.000446	4.458961	0.755369	-0.000089
 629	6.2486e+01	7.4902	50.728629	0.000669	6.688442	1.133053	-0.000134
 630	6.2586e+01	7.4699	50.700369	0.000142	1.418760	0.240345	-0.000028
 631	6.2685e+01	7.4506	50.599441	0.000507	5.067002	0.858373	-0.000101
 632	6.2785e+01	7.4306	50.482364	0.000588	5.877722	0.995713	-0.000118
 633	6.2884e+01	7.4103	50.450067	0.000162	1.621441	0.274679	-0.000032
 634	6.2983e+01	7.3907	50.361250	0.000446	4.458961	0.755369	-0.000089
 635	6.3083e+01	7.3702	50.268396	0.000466	4.661641	0.789703	-0.000093
 636	6.3182e+01	7.3502	50.191690	0.000385	3.850921	0.652364	-0.000077
 637	6.3282e+01	7.3309	50.074613	0.000588	5.877722	0.995713	-0.000118
 638	6.3382e+01	7.3095	50.014056	0.000304	3.040201	0.515024	-0.000061
 639	6.3481e+01	7.2900	49.937351	0.000385	3.850921	0.652364	-0.000077
 640	6.3581e+01	7.2705	49.852571	0.000426	4.256281	0.721034	-0.000085
 641	6.3680e+01	7.2501	49.759717	0.000466	4.661641	0.789703	-0.000093
 642	6.3779e+01	7.2308	49.678974	0.000405	4.053601	0.686699	-0.000081
 643	6.3879e+01	7.2112	49.626491	0.000263	2.634841	0.446354	-0.000053
 644	6.3978e+01	7.1902	49.525563	0.000507	5.067002	0.858373	-0.000101
 645	6.4078e+01	7.1712	49.465006	0.000304	3.040201	0.515024	-0.000061
 646	6.4177e+01	7.1503	49.364077	0.000507	5.067002	0.858373	-0.000101
 647	6.4277e+01	7.1310	49.275260	0.000446	4.458961	0.755369	-0.000089
 648	6.4376e+01	7.1105	49.210666	0.000324	3.242881	0.549359	-0.000065
 649	6.4476e+01	7.0922	49.121849	0.000446	4.458961	0.755369	-0.000089
 650	6.4576e+01	7.0718	49.033032	0.000446	4.458961	0.755369	-0.000089
 651	6.4675e+01	7.0516	48.948252	0.000426	4.256281	0.721034	-0.000085
 652	6.4775e+01	7.0310	48.863472	0.000426	4.256281	0.721034	-0.000085
 653	6.4874e+01	7.0126	48.806953	0.000284	2.837521	0.480689	-0.000057
 654	6.4974e+01	6.9910	48.730247	0.000385	3.850921	0.652364	-0.000077
 655	6.5073e+01	6.9721	48.621244	0.000547	5.472362	0.927043	-0.000110
 656	6.5172e+01	6.9512	48.544539	0.000385	3.850921	0.652364	-0.000077
 657	6.5272e+01	6.9316	48.492056	0.000263	2.634841	0.446354	-0.000053
 658	6.5371e+01	6.9118	48.387090	0.000527	5.269682	0.892708	-0.000105
 659	6.5471e+01	6.8926	48.330570	0.000284	2.837521	0.480689	-0.000057
 660	6.5570e+01	6.8717	48.205419	0.000628	6.283082	1.064383	-0.000126
 661	6.5670e+01	6.8521	48.152937	0.000263	2.634841	0.446354	-0.000053
 662	6.5769e+01	6.8328	48.064120	0.000446	4.458961	0.755369	-0.000089
 663	6.5869e+01	6.8137	47.955117	0.000547	5.472362	0.927043	-0.000110
 664	6.5969e+01	6.7916	47.858226	0.000486	4.864322	0.824038	-0.000097
 665	6.6068e+01	6.7720	47.769409	0.000446	4.458961	0.755369	-0.000089
 666	6.6168e+01	6.7524	47.696740	0.000365	3.648241	0.618029	-0.000073
 667	6.6267e+01	6.7326	47.636183	0.000304	3.040201	0.515024	-0.000061
 668	6.6367e+01	6.7126	47.547366	0.000446	4.458961	0.755369	-0.000089
 669	6.6466e+01	6.6924	47.450475	0.000486	4.864322	0.824038	-0.000097
 670	6.6566e+01	6.6736	47.377806	0.000365	3.648241	0.618029	-0.000073
 671	6.6665e+01	6.6526	47.284952	0.000466	4.661641	0.789703	-0.000093
 672	6.6764e+01	6.6323	47.224395	0.000304	3.040201	0.515024	-0.000061
 673	6.6864e+01	6.6131	47.103281	0.000608	6.080402	1.030048	-0.000122
 674	6.6963e+01	6.5923	47.030613	0.000365	3.648241	0.618029	-0.000073
 675	6.7063e+01	6.5732	46.945833	0.000426	4.256281	0.721034	-0.000085
 676	6.7162e+01	6.5537	46.840867	0.000527	5.269682	0.892708	-0.000105
 677	6.7262e+01	6.5340	46.748013	0.000466	4.661641	0.789703	-0.000093
 678	6.7362e+01	6.5130	46.679382	0.000345	3.445561	0.583694	-0.000069
 679	6.7461e+01	6.4938	46.602676	0.000385	3.850921	0.652364	-0.000077
 680	6.7561e+01	6.4736	46.546156	0.000284	2.837521	0.480689	-0.000057
 681	6.7660e+01	6.4538	46.412931	0.000669	6.688442	1.133053	-0.000134
 682	6.7760e+01	6.4336	46.271631	0.000709	7.093802	1.201723	-0.000142
 683	6.7859e+01	6.4141	46.198963	0.000365	3.648241	0.618029	-0.000073
 684	6.7959e+01	6.3934	46.122257	0.000385	3.850921	0.652364	-0.000077
 685	6.8058e+01	6.3744	46.041515	0.000405	4.053601	0.686699	-0.000081
 686	6.8157e+01	6.3540	45.936549	0.000527	5.269682	0.892708	-0.000105
 687	6.8257e+01	6.3344	45.859843	0.000385	3.850921	0.652364	-0.000077
 688	6.8356e+01	6.3151	45.811398	0.000243	2.432161	0.412019	-0.000049
 689	6.8456e+01	6.2954	45.714507	0.000486	4.864322	0.824038	-0.000097
 690	6.8555e+01	6.2749	45.633764	0.000405	4.053601	0.686699	-0.000081
 691	6.8655e+01	6.2550	45.488427	0.000730	7.296482	1.236058	-0.000146
 692	6.8754e+01	6.2347	45.391536	0.000486	4.864322	0.824038	-0.000097
 693	6.8854e+01	6.2151	45.310793	0.000405	4.053601	0.686699	-0.000081
 694	6.8954e+01	6.1947	45.230050	0.000405	4.053601	0.686699	-0.000081
 695	6.9053e+01	6.1755	45.153345	0.000385	3.850921	0.652364	-0.000077
 696	6.9153e+01	6.1559	45.028193	0.000628	6.283082	1.064383	-0.000126
 697	6.9252e+01	6.1358	44.971674	0.000284	2.837521	0.480689	-0.000057
 698	6.9352e+01	6.1158	44.862671	0.000547	5.472362	0.927043	-0.000110
 699	6.9451e+01	6.0957	44.781928	0.000405	4.053601	0.686699	-0.000081
 700	6.9550e+01	6.0751	44.701185	0.000405	4.053601	0.686699	-0.000081
 701	6.9650e+01	6.0554	44.571997	0.000649	6.485762	1.098718	-0.000130
 702	6.9749e+01	6.0361	44.491254	0.000405	4.053601	0.686699	-0.000081
 703	6.9849e+01	6.0165	44.410512	0.000405	4.053601	0.686699	-0.000081
 704	6.9948e+01	5.9966	44.321695	0.000446	4.458961	0.755369	-0.000089
 705	7.0048e+01	5.9763	44.196543	0.000628	6.283082	1.064383	-0.000126
 706	7.0147e+01	5.9566	44.144061	0.000263	2.634841	0.446354	-0.000053
 707	7.0247e+01	5.9351	44.055244	0.000446	4.458961	0.755369	-0.000089
 708	7.0347e+01	5.9168	43.978538	0.000385	3.850921	0.652364	-0.000077
 709	7.0446e+01	5.8965	43.865498	0.000568	5.675042	0.961378	-0.000114
 710	7.0546e+01	5.8762	43.780719	0.000426	4.256281	0.721034	-0.000085
 711	7.0645e+01	5.8575	43.651530	0.000649	6.485762	1.098718	-0.000130
 712	7.0745e+01	5.8361	43.582899	0.000345	3.445561	0.583694	-0.000069
 713	7.0844e+01	5.8166	43.490045	0.000466	4.661641	0.789703	-0.000093
 714	7.0944e+01	5.7971	43.372968	0.000588	5.877722	0.995713	-0.000118
 715	7.1043e+01	5.7766	43.296262	0.000385	3.850921	0.652364	-0.000077
 716	7.1142e+01	5.7571	43.191297	0.000527	5.269682	0.892708	-0.000105
 717	7.1242e+01	5.7378	43.150925	0.000203	2.026801	0.343349	-0.000041
 718	7.1341e+01	5.7182	43.001551	0.000750	7.499162	1.270392	-0.000150
 719	7.1441e+01	5.6971	42.928883	0.000365	3.648241	0.618029	-0.000073
 720	7.1540e+01	5.6780	42.848140	0.000405	4.053601	0.686699	-0.000081
 721	7.1640e+01	5.6569	42.743175	0.000527	5.269682	0.892708	-0.000105
 722	7.1740e+01	5.6380	42.646283	0.000486	4.864322	0.824038	-0.000097
 723	7.1839e+01	5.6170	42.589763	0.000284	2.837521	0.480689	-0.000057
 724	7.1939e+01	5.5974	42.472687	0.000588	5.877722	0.995713	-0.000118
 725	7.2038e+01	5.5779	42.387907	0.000426	4.256281	0.721034	-0.000085
 726	7.2138e+01	5.5572	42.282941	0.000527	5.269682	0.892708	-0.000105
 727	7.2237e+01	5.5386	42.198161	0.000426	4.256281	0.721034	-0.000085
 728	7.2337e+01	5.5180	42.109344	0.000446	4.458961	0.755369	-0.000089
 729	7.2436e+01	5.4980	42.008416	0.000507	5.067002	0.858373	-0.000101
 730	7.2535e+01	5.4787	41.895376	0.000568	5.675042	0.961378	-0.000114
 731	7.2635e+01	5.4566	41.826745	0.000345	3.445561	0.583694	-0.000069
 732	7.2734e+01	5.4388	41.725816	0.000507	5.067002	0.858373	-0.000101
 733	7.2834e+01	5.4180	41.620851	0.000527	5.269682	0.892708	-0.000105
 734	7.2933e+01	5.3983	41.527997	0.000466	4.661641	0.789703	-0.000093
 735	7.3033e+01	5.3788	41.431106	0.000486	4.864322	0.824038	-0.000097
 736	7.3132e+01	5.3579	41.326140	0.000527	5.269682	0.892708	-0.000105
 737	7.3232e+01	5.3390	41.261546	0.000324	3.242881	0.549359	-0.000065
 738	7.3332e+01	5.3190	41.164655	0.000486	4.864322	0.824038	-0.000097
 739	7.3431e+01	5.2982	41.051615	0.000568	5.675042	0.961378	-0.000114
 740	7.3531e+01	5.2789	40.950686	0.000507	5.067002	0.858373	-0.000101
 741	7.3630e+01	5.2589	40.845721	0.000527	5.269682	0.892708	-0.000105
 742	7.3730e+01	5.2389	40.724607	0.000608	6.080402	1.030048	-0.000122
 743	7.3829e+01	5.2187	40.680198	0.000223	2.229481	0.377684	-0.000045
 744	7.3928e+01	5.1986	40.542936	0.000689	6.891122	1.167388	-0.000138
 745	7.4028e+01	5.1792	40.442007	0.000507	5.067002	0.858373	-0.000101
 746	7.4127e+01	5.1583	40.377413	0.000324	3.242881	0.549359	-0.000065
 747	7.4227e+01	5.1392	40.292633	0.000426	4.256281	0.721034	-0.000085
 748	7.4326e+01	5.1192	40.135185	0.000790	7.904522	1.339062	-0.000158
 749	7.4426e+01	5.0991	40.086739	0.000243	2.432161	0.412019	-0.000049
 750	7.4525e+01	5.0790	39.985811	0.000507	5.067002	0.858373	-0.000101
 751	7.4625e+01	5.0597	39.876808	0.000547	5.472362	0.927043	-0.000110
 752	7.4725e+01	5.0390	39.800103	0.000385	3.850921	0.652364	-0.000077
 753	7.4824e+01	5.0208	39.687063	0.000568	5.675042	0.961378	-0.000114
 754	7.4924e+01	5.0003	39.602283	0.000426	4.256281	0.721034	-0.000085
 755	7.5023e+01	4.9795	39.473095	0.000649	6.485762	1.098718	-0.000130
 756	7.5123e+01	4.9612	39.396389	0.000385	3.850921	0.652364	-0.000077
 757	7.5222e+01	4.9407	39.275275	0.000608	6.080402	1.030048	-0.000122
 758	7.5322e+01	4.9206	39.186458	0.000446	4.458961	0.755369	-0.000089
 759	7.5421e+01	4.9007	39.089567	0.000486	4.864322	0.824038	-0.000097
 760	7.5520e+01	4.8806	39.004787	0.000426	4.256281	0.721034	-0.000085
 761	7.5620e+01	4.8611	38.875599	0.000649	6.485762	1.098718	-0.000130
 762	7.5719e+01	4.8406	38.802930	0.000365	3.648241	0.618029	-0.000073
 763	7.5819e+01	4.8217	38.714113	0.000446	4.458961	0.755369	-0.000089
 764	7.5918e+01	4.7995	38.629333	0.000426	4.256281	0.721034	-0.000085
 765	7.6018e+01	4.7808	38.528405	0.000507	5.067002	0.858373	-0.000101
 766	7.6118e+01	4.7607	38.431514	0.000486	4.864322	0.824038	-0.000097
 767	7.6217e+01	4.7407	38.310400	0.000608	6.080402	1.030048	-0.000122
 768	7.6317e+01	4.7226	38.241768	0.000345	3.445561	0.583694	-0.000069
 769	7.6416e+01	4.7013	38.128728	0.000568	5.675042	0.961378	-0.000114
 770	7.6516e+01	4.6804	38.035874	0.000466	4.661641	0.789703	-0.000093
 771	7.6615e+01	4.6604	37.951095	0.000426	4.256281	0.721034	-0.000085
 772	7.6715e+01	4.6418	37.817869	0.000669	6.688442	1.133053	-0.000134
 773	7.6814e+01	4.6220	37.741163	0.000385	3.850921	0.652364	-0.000077
 774	7.6913e+01	4.6013	37.680606	0.000304	3.040201	0.515024	-0.000061
 775	7.7013e+01	4.5809	37.543344	0.000689	6.891122	1.167388	-0.000138
 776	7.7112e+01	4.5618	37.442415	0.000507	5.067002	0.858373	-0.000101
 777	7.7212e+01	4.5411	37.385896	0.000284	2.837521	0.480689	-0.000057
 778	7.7311e+01	4.5219	37.264781	0.000608	6.080402	1.030048	-0.000122
 779	7.7411e+01	4.5018	37.192113	0.000365	3.648241	0.618029	-0.000073
 780	7.7510e+01	4.4817	37.070999	0.000608	6.080402	1.030048	-0.000122
 781	7.7610e+01	4.4619	36.974108	0.000486	4.864322	0.824038	-0.000097
 782	7.7710e+01	4.4421	36.844919	0.000649	6.485762	1.098718	-0.000130
 783	7.7809e+01	4.4219	36.800511	0.000223	2.229481	0.377684	-0.000045
 784	7.7909e+01	4.4026	36.687471	0.000568	5.675042	0.961378	-0.000114
 785	7.8008e+01	4.3822	36.590580	0.000486	4.864322	0.824038	-0.000097
 786	7.8108e+01	4.3619	36.497726	0.000466	4.661641	0.789703	-0.000093
 787	7.8207e+01	4.3426	36.384686	0.000568	5.675042	0.961378	-0.000114
 788	7.8306e+01	4.3226	36.279720	0.000527	5.269682	0.892708	-0.000105
 789	7.8406e+01	4.3038	36.186866	0.000466	4.661641	0.789703	-0.000093
 790	7.8505e+01	4.2829	36.053641	0.000669	6.688442	1.133053	-0.000134
 791	7.8605e+01	4.2632	35.960787	0.000466	4.661641	0.789703	-0.000093
 792	7.8704e+01	4.2432	35.863895	0.000486	4.864322	0.824038	-0.000097
 793	7.8804e+01	4.2236	35.742781	0.000608	6.080402	1.030048	-0.000122
 794	7.8903e+01	4.2027	35.686261	0.000284	2.837521	0.480689	-0.000057
 795	7.9003e+01	4.1827	35.553036	0.000669	6.688442	1.133053	-0.000134
 796	7.9103e+01	4.1633	35.468256	0.000426	4.256281	0.721034	-0.000085
 797	7.9202e+01	4.1430	35.339068	0.000649	6.485762	1.098718	-0.000130
 798	7.9302e+01	4.1236	35.213916	0.000628	6.283082	1.064383	-0.000126
 799	7.9401e+01	4.1035	35.153359	0.000304	3.040201	0.515024	-0.000061
 800	7.9501e+01	4.0833	35.032245	0.000608	6.080402	1.030048	-0.000122
 801	7.9600e+01	4.0639	34.919206	0.000568	5.675042	0.961378	-0.000114
 802	7.9700e+01	4.0446	34.830389	0.000446	4.458961	0.755369	-0.000089
 803	7.9799e+01	4.0244	34.721386	0.000547	5.472362	0.927043	-0.000110
 804	7.9898e+01	4.0040	34.612383	0.000547	5.472362	0.927043	-0.000110
 805	7.9998e+01	3.9848	34.479158	0.000669	6.688442	1.133053	-0.000134
 806	8.0097e+01	3.9629	34.475121	0.000020	0.202680	0.034335	-0.000004
 807	8.0197e+01	3.9440	34.293450	0.000912	9.120603	1.545072	-0.000183
 808	8.0296e+01	3.9239	34.208670	0.000426	4.256281	0.721034	-0.000085
 809	8.0396e+01	3.9043	34.099667	0.000547	5.472362	0.927043	-0.000110
 810	8.0496e+01	3.8840	33.974516	0.000628	6.283082	1.064383	-0.000126
 811	8.0595e+01	3.8638	33.889736	0.000426	4.256281	0.721034	-0.000085
 812	8.0695e+01	3.8436	33.784770	0.000527	5.269682	0.892708	-0.000105
 813	8.0794e+01	3.8253	33.691916	0.000466	4.661641	0.789703	-0.000093
 814	8.0894e+01	3.8042	33.558691	0.000669	6.688442	1.133053	-0.000134
 815	8.0993e+01	3.7846	33.469874	0.000446	4.458961	0.755369	-0.000089
 816	8.1093e+01	3.7656	33.397205	0.000365	3.648241	0.618029	-0.000073
 817	8.1192e+01	3.7452	33.272054	0.000628	6.283082	1.064383	-0.000126
 818	8.1291e+01	3.7258	33.142866	0.000649	6.485762	1.098718	-0.000130
 819	8.1391e+01	3.7057	33.050012	0.000466	4.661641	0.789703	-0.000093
 820	8.1490e+01	3.6858	32.920823	0.000649	6.485762	1.098718	-0.000130
 821	8.1590e+01	3.6651	32.856229	0.000324	3.242881	0.549359	-0.000065
 822	8.1689e+01	3.6456	32.735115	0.000608	6.080402	1.030048	-0.000122
 823	8.1789e+01	3.6247	32.630150	0.000527	5.269682	0.892708	-0.000105
 824	8.1888e+01	3.6068	32.557481	0.000365	3.648241	0.618029	-0.000073
 825	8.1988e+01	3.5853	32.404070	0.000770	7.701842	1.304727	-0.000154
 826	8.2088e+01	3.5653	32.327364	0.000385	3.850921	0.652364	-0.000077
 827	8.2187e+01	3.5455	32.202213	0.000628	6.283082	1.064383	-0.000126
 828	8.2287e+01	3.5259	32.121470	0.000405	4.053601	0.686699	-0.000081
 829	8.2386e+01	3.5059	31.984208	0.000689	6.891122	1.167388	-0.000138
 830	8.2486e+01	3.4859	31.855020	0.000649	6.485762	1.098718	-0.000130
 831	8.2585e+01	3.4659	31.762165	0.000466	4.661641	0.789703	-0.000093
 832	8.2684e+01	3.4455	31.673348	0.000446	4.458961	0.755369	-0.000089
 833	8.2784e+01	3.4258	31.564346	0.000547	5.472362	0.927043	-0.000110
 834	8.2883e+01	3.4068	31.443232	0.000608	6.080402	1.030048	-0.000122
 835	8.2983e+01	3.3862	31.342303	0.000507	5.067002	0.858373	-0.000101
 836	8.3082e+01	3.3665	31.196966	0.000730	7.296482	1.236058	-0.000146
 837	8.3182e+01	3.3466	31.108149	0.000446	4.458961	0.755369	-0.000089
 838	8.3281e+01	3.3270	30.987035	0.000608	6.080402	1.030048	-0.000122
 839	8.3381e+01	3.3069	30.869958	0.000588	5.877722	0.995713	-0.000118
 840	8.3481e+01	3.2873	30.764993	0.000527	5.269682	0.892708	-0.000105
 841	8.3580e+01	3.2672	30.680213	0.000426	4.256281	0.721034	-0.000085
 842	8.3680e+01	3.2471	30.571210	0.000547	5.472362	0.927043	-0.000110
 843	8.3779e+01	3.2278	30.413762	0.000790	7.904522	1.339062	-0.000158
 844	8.3879e+01	3.2069	30.337057	0.000385	3.850921	0.652364	-0.000077
 845	8.3978e+01	3.1871	30.232091	0.000527	5.269682	0.892708	-0.000105
 846	8.4078e+01	3.1670	30.062531	0.000851	8.512563	1.442067	-0.000170
 847	8.4177e+01	3.1480	29.989863	0.000365	3.648241	0.618029	-0.000073
 848	8.4276e+01	3.1270	29.840489	0.000750	7.499162	1.270392	-0.000150
 849	8.4376e+01	3.1077	29.743598	0.000486	4.864322	0.824038	-0.000097
 850	8.4475e+01	3.0883	29.646706	0.000486	4.864322	0.824038	-0.000097
 851	8.4575e+01	3.0676	29.537704	0.000547	5.472362	0.927043	-0.000110
 852	8.4674e+01	3.0479	29.452924	0.000426	4.256281	0.721034	-0.000085
 853	8.4774e+01	3.0277	29.303550	0.000750	7.499162	1.270392	-0.000150
 854	8.4874e+01	3.0087	29.202621	0.000507	5.067002	0.858373	-0.000101
 855	8.4973e+01	2.9881	29.069396	0.000669	6.688442	1.133053	-0.000134
 856	8.5073e+01	2.9674	28.980579	0.000446	4.458961	0.755369	-0.000089
 857	8.5172e+01	2.9491	28.855428	0.000628	6.283082	1.064383	-0.000126
 858	8.5272e+01	2.9281	28.726239	0.000649	6.485762	1.098718	-0.000130
 859	8.5371e+01	2.9087	28.597051	0.000649	6.485762	1.098718	-0.000130
 860	8.5471e+01	2.8878	28.512271	0.000426	4.256281	0.721034	-0.000085
 861	8.5570e+01	2.8692	28.387120	0.000628	6.283082	1.064383	-0.000126
 862	8.5669e+01	2.8487	28.241783	0.000730	7.296482	1.236058	-0.000146
 863	8.5769e+01	2.8280	28.157003	0.000426	4.256281	0.721034	-0.000085
 864	8.5868e+01	2.8094	28.039926	0.000588	5.877722	0.995713	-0.000118
 865	8.5968e+01	2.7890	27.934961	0.000527	5.269682	0.892708	-0.000105
 866	8.6067e+01	2.7688	27.801735	0.000669	6.688442	1.133053	-0.000134
 867	8.6167e+01	2.7476	27.664473	0.000689	6.891122	1.167388	-0.000138
 868	8.6266e+01	2.7295	27.547396	0.000588	5.877722	0.995713	-0.000118
 869	8.6366e+01	2.7088	27.434356	0.000568	5.675042	0.961378	-0.000114
 870	8.6466e+01	2.6885	27.329390	0.000527	5.269682	0.892708	-0.000105
 871	8.6565e+01	2.6686	27.232499	0.000486	4.864322	0.824038	-0.000097
 872	8.6665e+01	2.6488	27.143682	0.000446	4.458961	0.755369	-0.000089
 873	8.6764e+01	2.6282	26.978160	0.000831	8.309883	1.407732	-0.000166
 874	8.6864e+01	2.6093	26.857045	0.000608	6.080402	1.030048	-0.000122
 875	8.6963e+01	2.5893	26.752080	0.000527	5.269682	0.892708	-0.000105
 876	8.7063e+01	2.5695	26.630966	0.000608	6.080402	1.030048	-0.000122
 877	8.7162e+01	2.5501	26.521963	0.000547	5.472362	0.927043	-0.000110
 878	8.7261e+01	2.5288	26.396812	0.000628	6.283082	1.064383	-0.000126
 879	8.7361e+01	2.5094	26.239364	0.000790	7.904522	1.339062	-0.000158
 880	8.7460e+01	2.4897	26.142472	0.000486	4.864322	0.824038	-0.000097
 881	8.7560e+01	2.4707	26.069804	0.000365	3.648241	0.618029	-0.000073
 882	8.7659e+01	2.4509	25.896207	0.000872	8.715243	1.476402	-0.000174
 883	8.7759e+01	2.4301	25.819502	0.000385	3.850921	0.652364	-0.000077
 884	8.7859e+01	2.4094	25.678202	0.000709	7.093802	1.201723	-0.000142
 885	8.7958e+01	2.3891	25.561125	0.000588	5.877722	0.995713	-0.000118
 886	8.8058e+01	2.3698	25.472308	0.000446	4.458961	0.755369	-0.000089
 887	8.8157e+01	2.3501	25.318897	0.000770	7.701842	1.304727	-0.000154
 888	8.8257e+01	2.3307	25.213931	0.000527	5.269682	0.892708	-0.000105
 889	8.8356e+01	2.3100	25.096854	0.000588	5.877722	0.995713	-0.000118
 890	8.8456e+01	2.2909	24.967666	0.000649	6.485762	1.098718	-0.000130
 891	8.8555e+01	2.2710	24.854626	0.000568	5.675042	0.961378	-0.000114
 892	8.8654e+01	2.2503	24.729475	0.000628	6.283082	1.064383	-0.000126
 893	8.8754e+01	2.2308	24.660844	0.000345	3.445561	0.583694	-0.000069
 894	8.8853e+01	2.2105	24.539730	0.000608	6.080402	1.030048	-0.000122
 895	8.8953e+01	2.1909	24.386318	0.000770	7.701842	1.304727	-0.000154
 896	8.9052e+01	2.1714	24.277316	0.000547	5.472362	0.927043	-0.000110
 897	8.9152e+01	2.1514	24.152165	0.000628	6.283082	1.064383	-0.000126
 898	8.9251e+01	2.1308	24.043162	0.000547	5.472362	0.927043	-0.000110
 899	8.9351e+01	2.1120	23.901862	0.000709	7.093802	1.201723	-0.000142
 900	8.9451e+01	2.0910	23.792859	0.000547	5.472362	0.927043	-0.000110
 901	8.9550e+01	2.0722	23.663671	0.000649	6.485762	1.098718	-0.000130
 902	8.9650e+01	2.0513	23.530446	0.000669	6.688442	1.133053	-0.000134
 903	8.9749e+01	2.0321	23.405294	0.000628	6.283082	1.064383	-0.000126
 904	8.9849e+01	2.0118	23.328589	0.000385	3.850921	0.652364	-0.000077
 905	8.9948e+01	1.9922	23.223623	0.000527	5.269682	0.892708	-0.000105
 906	9.0047e+01	1.9720	23.050026	0.000872	8.715243	1.476402	-0.000174
 907	9.0147e+01	1.9515	22.912764	0.000689	6.891122	1.167388	-0.000138
 908	9.0246e+01	1.9318	22.811835	0.000507	5.067002	0.858373	-0.000101
 909	9.0346e+01	1.9120	22.678610	0.000669	6.688442	1.133053	-0.000134
 910	9.0445e+01	1.8919	22.549422	0.000649	6.485762	1.098718	-0.000130
 911	9.0545e+01	1.8723	22.432345	0.000588	5.877722	0.995713	-0.000118
 912	9.0644e+01	1.8523	22.303156	0.000649	6.485762	1.098718	-0.000130
 913	9.0744e+01	1.8320	22.206265	0.000486	4.864322	0.824038	-0.000097
 914	9.0844e+01	1.8127	22.085151	0.000608	6.080402	1.030048	-0.000122
 915	9.0943e+01	1.7928	21.915591	0.000851	8.512563	1.442067	-0.000170
 916	9.1043e+01	1.7726	21.826774	0.000446	4.458961	0.755369	-0.000089
 917	9.1142e+01	1.7533	21.725846	0.000507	5.067002	0.858373	-0.000101
 918	9.1242e+01	1.7329	21.572435	0.000770	7.701842	1.304727	-0.000154
 919	9.1341e+01	1.7133	21.463432	0.000547	5.472362	0.927043	-0.000110
 920	9.1441e+01	1.6926	21.354429	0.000547	5.472362	0.927043	-0.000110
 921	9.1540e+01	1.6726	21.201018	0.000770	7.701842	1.304727	-0.000154
 922	9.1639e+01	1.6535	21.112201	0.000446	4.458961	0.755369	-0.000089
 923	9.1739e+01	1.6327	20.970902	0.000709	7.093802	1.201723	-0.000142
 924	9.1838e+01	1.6137	20.841713	0.000649	6.485762	1.098718	-0.000130
 925	9.1938e+01	1.5934	20.769045	0.000365	3.648241	0.618029	-0.000073
 926	9.2037e+01	1.5737	20.615634	0.000770	7.701842	1.304727	-0.000154
 927	9.2137e+01	1.5538	20.474334	0.000709	7.093802	1.201723	-0.000142
 928	9.2237e+01	1.5334	20.385517	0.000446	4.458961	0.755369	-0.000089
 929	9.2336e+01	1.5139	20.244217	0.000709	7.093802	1.201723	-0.000142
 930	9.2436e+01	1.4931	20.155400	0.000446	4.458961	0.755369	-0.000089
 931	9.2535e+01	1.4738	20.018138	0.000689	6.891122	1.167388	-0.000138
 932	9.2635e+01	1.4529	19.892986	0.000628	6.283082	1.064383	-0.000126
 933	9.2734e+01	1.4340	19.779947	0.000568	5.675042	0.961378	-0.000114
 934	9.2834e+01	1.4128	19.662870	0.000588	5.877722	0.995713	-0.000118
 935	9.2933e+01	1.3939	19.557904	0.000527	5.269682	0.892708	-0.000105
 936	9.3032e+01	1.3740	19.404493	0.000770	7.701842	1.304727	-0.000154
 937	9.3132e+01	1.3540	19.259156	0.000730	7.296482	1.236058	-0.000146
 938	9.3231e+01	1.3330	19.142079	0.000588	5.877722	0.995713	-0.000118
 939	9.3331e+01	1.3140	19.045188	0.000486	4.864322	0.824038	-0.000097
 940	9.3430e+01	1.2944	18.948297	0.000486	4.864322	0.824038	-0.000097
 941	9.3530e+01	1.2748	18.774700	0.000872	8.715243	1.476402	-0.000174
 942	9.3629e+01	1.2557	18.714143	0.000304	3.040201	0.515024	-0.000061
 943	9.3729e+01	1.2350	18.536509	0.000892	8.917923	1.510737	-0.000179
 944	9.3829e+01	1.2154	18.451729	0.000426	4.256281	0.721034	-0.000085
 945	9.3928e+01	1.1958	18.322541	0.000649	6.485762	1.098718	-0.000130
 946	9.4028e+01	1.1749	18.185278	0.000689	6.891122	1.167388	-0.000138
 947	9.4127e+01	1.1557	18.096461	0.000446	4.458961	0.755369	-0.000089
 948	9.4227e+01	1.1357	17.934976	0.000811	8.107203	1.373397	-0.000162
 949	9.4326e+01	1.1153	17.813861	0.000608	6.080402	1.030048	-0.000122
 950	9.4425e+01	1.0962	17.712933	0.000507	5.067002	0.858373	-0.000101
 951	9.4525e+01	1.0755	17.587782	0.000628	6.283082	1.064383	-0.000126
 952	9.4624e+01	1.0564	17.466668	0.000608	6.080402	1.030048	-0.000122
 953	9.4724e+01	1.0363	17.333442	0.000669	6.688442	1.133053	-0.000134
 954	9.4823e+01	1.0158	17.216365	0.000588	5.877722	0.995713	-0.000118
 955	9.4923e+01	0.9961	17.066991	0.000750	7.499162	1.270392	-0.000150
 956	9.5022e+01	0.9759	16.978174	0.000446	4.458961	0.755369	-0.000089
 957	9.5122e+01	0.9567	16.780355	0.000993	9.931323	1.682412	-0.000199
 958	9.5222e+01	0.9355	16.735946	0.000223	2.229481	0.377684	-0.000045
 959	9.5321e+01	0.9177	16.594646	0.000709	7.093802	1.201723	-0.000142
 960	9.5421e+01	0.8965	16.441235	0.000770	7.701842	1.304727	-0.000154
 961	9.5520e+01	0.8763	16.316084	0.000628	6.283082	1.064383	-0.000126
 962	9.5620e+01	0.8569	16.211119	0.000527	5.269682	0.892708	-0.000105
 963	9.5719e+01	0.8360	16.085967	0.000628	6.283082	1.064383	-0.000126
 964	9.5819e+01	0.8165	15.912371	0.000872	8.715243	1.476402	-0.000174
 965	9.5918e+01	0.7961	15.831628	0.000405	4.053601	0.686699	-0.000081
 966	9.6017e+01	0.7762	15.690328	0.000709	7.093802	1.201723	-0.000142
 967	9.6117e+01	0.7561	15.577288	0.000568	5.675042	0.961378	-0.000114
 968	9.6216e+01	0.7366	15.444063	0.000669	6.688442	1.133053	-0.000134
 969	9.6316e+01	0.7172	15.322949	0.000608	6.080402	1.030048	-0.000122
 970	9.6415e+01	0.6973	15.197797	0.000628	6.283082	1.064383	-0.000126
 971	9.6515e+01	0.6771	15.044386	0.000770	7.701842	1.304727	-0.000154
 972	9.6615e+01	0.6571	14.931347	0.000568	5.675042	0.961378	-0.000114
 973	9.6714e+01	0.6373	14.749675	0.000912	9.120603	1.545072	-0.000183
 974	9.6814e+01	0.6177	14.664896	0.000426	4.256281	0.721034	-0.000085
 975	9.6913e+01	0.5974	14.543781	0.000608	6.080402	1.030048	-0.000122
 976	9.7013e+01	0.5781	14.422667	0.000608	6.080402	1.030048	-0.000122
 977	9.7112e+01	0.5578	14.289442	0.000669	6.688442	1.133053	-0.000134
 978	9.7212e+01	0.5376	14.180439	0.000547	5.472362	0.927043	-0.000110
 979	9.7311e+01	0.5180	14.059325	0.000608	6.080402	1.030048	-0.000122
 980	9.7410e+01	0.4986	13.893803	0.000831	8.309883	1.407732	-0.000166
 981	9.7510e+01	0.4773	13.780763	0.000568	5.675042	0.961378	-0.000114
 982	9.7609e+01	0.4577	13.671760	0.000547	5.472362	0.927043	-0.000110
 983	9.7709e+01	0.4385	13.522386	0.000750	7.499162	1.270392	-0.000150
 984	9.7808e+01	0.4172	13.385124	0.000689	6.891122	1.167388	-0.000138
 985	9.7908e+01	0.3976	13.292269	0.000466	4.661641	0.789703	-0.000093
 986	9.8007e+01	0.3779	13.199415	0.000466	4.661641	0.789703	-0.000093
 987	9.8107e+01	0.3587	13.041967	0.000790	7.904522	1.339062	-0.000158
 988	9.8207e+01	0.3384	12.900667	0.000709	7.093802	1.201723	-0.000142
 989	9.8306e+01	0.3189	12.771479	0.000649	6.485762	1.098718	-0.000130
 990	9.8406e+01	0.2982	12.638253	0.000669	6.688442	1.133053	-0.000134
 991	9.8505e+01	0.2782	12.513102	0.000628	6.283082	1.064383	-0.000126
 992	9.8605e+01	0.2591	12.367765	0.000730	7.296482	1.236058	-0.000146
 993	9.8704e+01	0.2382	12.254726	0.000568	5.675042	0.961378	-0.000114
 994	9.8803e+01	0.2187	12.153797	0.000507	5.067002	0.858373	-0.000101
 995	9.8903e+01	0.1991	12.060943	0.000466	4.661641	0.789703	-0.000093
 996	9.9002e+01	0.1781	11.911569	0.000750	7.499162	1.270392	-0.000150
 997	9.9102e+01	0.1589	11.737972	0.000872	8.715243	1.476402	-0.000174
 998	9.9201e+01	0.1385	11.633007	0.000527	5.269682	0.892708	-0.000105
 999	9.9301e+01	0.1192	11.503818	0.000649	6.485762	1.098718	-0.000130
1000	9.9400e+01	0.0990	11.326184	0.000892	8.917923	1.510737	-0.000179
1001	9.9500e+01	0.0795	11.213145	0.000568	5.675042	0.961378	-0.000114
1002	9.9600e+01	0.0596	11.112216	0.000507	5.067002	0.858373	-0.000101
1003	9.9699e+01	0.0387	11.003213	0.000547	5.472362	0.927043	-0.000110
1004	9.9799e+01	0.0201	10.861914	0.000709	7.093802	1.201723	-0.000142
1005	9.9898e+01	-0.0005	10.736762	0.000628	6.283082	1.064383	-0.000126
1006	9.9998e+01	-0.0185	10.627760	0.000547	5.472362	0.927043	-0.000110
1007	1.0010e+02	-0.0380	10.474349	0.000770	7.701842	1.304727	-0.000154
1008	1.0020e+02	-0.0581	10.353235	0.000608	6.080402	1.030048	-0.000122
1009	1.0030e+02	-0.0781	10.211935	0.000709	7.093802	1.201723	-0.000142
1010	1.0040e+02	-0.0986	10.058524	0.000770	7.701842	1.304727	-0.000154
1011	1.0050e+02	-0.1183	9.929335	0.000649	6.485762	1.098718	-0.000130
1012	1.0059e+02	-0.1379	9.836481	0.000466	4.661641	0.789703	-0.000093
1013	1.0069e+02	-0.1588	9.662884	0.000872	8.715243	1.476402	-0.000174
1014	1.0079e+02	-0.1790	9.521585	0.000709	7.093802	1.201723	-0.000142
1015	1.0089e+02	-0.1977	9.400471	0.000608	6.080402	1.030048	-0.000122
1016	1.0099e+02	-0.2177	9.311654	0.000446	4.458961	0.755369	-0.000089
1017	1.0109e+02	-0.2383	9.129982	0.000912	9.120603	1.545072	-0.000183
1018	1.0119e+02	-0.2571	8.996757	0.000669	6.688442	1.133053	-0.000134
1019	1.0129e+02	-0.2773	8.891791	0.000527	5.269682	0.892708	-0.000105
1020	1.0139e+02	-0.2983	8.738380	0.000770	7.701842	1.304727	-0.000154
1021	1.0149e+02	-0.3172	8.637452	0.000507	5.067002	0.858373	-0.000101
1022	1.0159e+02	-0.3381	8.484041	0.000770	7.701842	1.304727	-0.000154
1023	1.0169e+02	-0.3572	8.310444	0.000872	8.715243	1.476402	-0.000174
1024	1.0179e+02	-0.3775	8.205478	0.000527	5.269682	0.892708	-0.000105
1025	1.0189e+02	-0.3968	8.088401	0.000588	5.877722	0.995713	-0.000118
1026	1.0199e+02	-0.4176	7.963250	0.000628	6.283082	1.064383	-0.000126
1027	1.0209e+02	-0.4362	7.785616	0.000892	8.917923	1.510737	-0.000179
1028	1.0219e+02	-0.4568	7.664502	0.000608	6.080402	1.030048	-0.000122
1029	1.0229e+02	-0.4769	7.511091	0.000770	7.701842	1.304727	-0.000154
1030	1.0239e+02	-0.4968	7.410163	0.000507	5.067002	0.858373	-0.000101
1031	1.0248e+02	-0.5161	7.285011	0.000628	6.283082	1.064383	-0.000126
1032	1.0258e+02	-0.5367	7.163897	0.000608	6.080402	1.030048	-0.000122
1033	1.0268e+02	-0.5576	7.006449	0.000790	7.904522	1.339062	-0.000158
1034	1.0278e+02	-0.5775	6.865149	0.000709	7.093802	1.201723	-0.000142
1035	1.0288e+02	-0.5968	6.727887	0.000689	6.891122	1.167388	-0.000138
1036	1.0298e+02	-0.6163	6.598698	0.000649	6.485762	1.098718	-0.000130
1037	1.0308e+02	-0.6365	6.485659	0.000568	5.675042	0.961378	-0.000114
1038	1.0318e+02	-0.6564	6.360507	0.000628	6.283082	1.064383	-0.000126
1039	1.0328e+02	-0.6760	6.203059	0.000790	7.904522	1.339062	-0.000158
1040	1.0338e+02	-0.6963	6.073871	0.000649	6.485762	1.098718	-0.000130
1041	1.0348e+02	-0.7165	5.968905	0.000527	5.269682	0.892708	-0.000105
1042	1.0358e+02	-0.7362	5.799345	0.000851	8.512563	1.442067	-0.000170
1043	1.0368e+02	-0.7561	5.698417	0.000507	5.067002	0.858373	-0.000101
1044	1.0378e+02	-0.7765	5.573266	0.000628	6.283082	1.064383	-0.000126
1045	1.0388e+02	-0.7962	5.415818	0.000790	7.904522	1.339062	-0.000158
1046	1.0398e+02	-0.8159	5.306815	0.000547	5.472362	0.927043	-0.000110
1047	1.0408e+02	-0.8353	5.169552	0.000689	6.891122	1.167388	-0.000138
1048	1.0418e+02	-0.8556	5.032290	0.000689	6.891122	1.167388	-0.000138
1049	1.0428e+02	-0.8761	4.895027	0.000689	6.891122	1.167388	-0.000138
1050	1.0438e+02	-0.8957	4.765839	0.000649	6.485762	1.098718	-0.000130
1051	1.0447e+02	-0.9158	4.612428	0.000770	7.701842	1.304727	-0.000154
1052	1.0457e+02	-0.9351	4.511499	0.000507	5.067002	0.858373	-0.000101
1053	1.0467e+02	-0.9552	4.390385	0.000608	6.080402	1.030048	-0.000122
1054	1.0477e+02	-0.9755	4.245048	0.000730	7.296482	1.236058	-0.000146
1055	1.0487e+02	-0.9954	4.075489	0.000851	8.512563	1.442067	-0.000170
1056	1.0497e+02	-1.0155	3.970523	0.000527	5.269682	0.892708	-0.000105
1057	1.0507e+02	-1.0353	3.853446	0.000588	5.877722	0.995713	-0.000118
1058	1.0517e+02	-1.0545	3.720221	0.000669	6.688442	1.133053	-0.000134
1059	1.0527e+02	-1.0752	3.582958	0.000689	6.891122	1.167388	-0.000138
1060	1.0537e+02	-1.0953	3.421473	0.000811	8.107203	1.373397	-0.000162
1061	1.0547e+02	-1.1149	3.348804	0.000365	3.648241	0.618029	-0.000073
1062	1.0557e+02	-1.1344	3.150984	0.000993	9.931323	1.682412	-0.000199
1063	1.0567e+02	-1.1548	3.041982	0.000547	5.472362	0.927043	-0.000110
1064	1.0577e+02	-1.1748	2.912793	0.000649	6.485762	1.098718	-0.000130
1065	1.0587e+02	-1.1938	2.751308	0.000811	8.107203	1.373397	-0.000162
1066	1.0597e+02	-1.2146	2.634231	0.000588	5.877722	0.995713	-0.000118
1067	1.0607e+02	-1.2348	2.505043	0.000649	6.485762	1.098718	-0.000130
1068	1.0617e+02	-1.2543	2.379892	0.000628	6.283082	1.064383	-0.000126
1069	1.0627e+02	-1.2738	2.246666	0.000669	6.688442	1.133053	-0.000134
1070	1.0637e+02	-1.2940	2.113441	0.000669	6.688442	1.133053	-0.000134
1071	1.0647e+02	-1.3138	1.992326	0.000608	6.080402	1.030048	-0.000122
1072	1.0656e+02	-1.3340	1.855064	0.000689	6.891122	1.167388	-0.000138
1073	1.0666e+02	-1.3538	1.709727	0.000730	7.296482	1.236058	-0.000146
1074	1.0676e+02	-1.3732	1.592650	0.000588	5.877722	0.995713	-0.000118
1075	1.0686e+02	-1.3937	1.455387	0.000689	6.891122	1.167388	-0.000138
1076	1.0696e+02	-1.4129	1.326199	0.000649	6.485762	1.098718	-0.000130
1077	1.0706e+02	-1.4336	1.205085	0.000608	6.080402	1.030048	-0.000122
1078	1.0716e+02	-1.4534	1.043600	0.000811	8.107203	1.373397	-0.000162
1079	1.0726e+02	-1.4729	0.894226	0.000750	7.499162	1.270392	-0.000150
1080	1.0736e+02	-1.4929	0.809446	0.000426	4.256281	0.721034	-0.000085
1081	1.0746e+02	-1.5130	0.688332	0.000608	6.080402	1.030048	-0.000122
1082	1.0756e+02	-1.5327	0.534920	0.000770	7.701842	1.304727	-0.000154
1083	1.0766e+02	-1.5531	0.397658	0.000689	6.891122	1.167388	-0.000138
1084	1.0776e+02	-1.5735	0.276544	0.000608	6.080402	1.030048	-0.000122
1085	1.0786e+02	-1.5921	0.115058	0.000811	8.107203	1.373397	-0.000162
1086	1.0796e+02	-1.6124	-0.030279	0.000730	7.296482	1.236058	-0.000146
1087	1.0806e+02	-1.6327	-0.094873	0.000324	3.242881	0.549359	-0.000065
1088	1.0816e+02	-1.6525	-0.268470	0.000872	8.715243	1.476402	-0.000174
1089	1.0826e+02	-1.6724	-0.397658	0.000649	6.485762	1.098718	-0.000130
1090	1.0836e+02	-1.6919	-0.514735	0.000588	5.877722	0.995713	-0.000118
1091	1.0845e+02	-1.7125	-0.680257	0.000831	8.309883	1.407732	-0.000166
1092	1.0855e+02	-1.7321	-0.756963	0.000385	3.850921	0.652364	-0.000077
1093	1.0865e+02	-1.7520	-0.926523	0.000851	8.512563	1.442067	-0.000170
1094	1.0875e+02	-1.7729	-1.031488	0.000527	5.269682	0.892708	-0.000105
1095	1.0885e+02	-1.7909	-1.152602	0.000608	6.080402	1.030048	-0.000122
1096	1.0895e+02	-1.8121	-1.285828	0.000669	6.688442	1.133053	-0.000134
1097	1.0905e+02	-1.8315	-1.419053	0.000669	6.688442	1.133053	-0.000134
1098	1.0915e+02	-1.8518	-1.552279	0.000669	6.688442	1.133053	-0.000134
1099	1.0925e+02	-1.8718	-1.665318	0.000568	5.675042	0.961378	-0.000114
1100	1.0935e+02	-1.8916	-1.810655	0.000730	7.296482	1.236058	-0.000146
1101	1.0945e+02	-1.9109	-1.939844	0.000649	6.485762	1.098718	-0.000130
1102	1.0955e+02	-1.9315	-2.044809	0.000527	5.269682	0.892708	-0.000105
1103	1.0965e+02	-1.9514	-2.186109	0.000709	7.093802	1.201723	-0.000142
1104	1.0975e+02	-1.9711	-2.287037	0.000507	5.067002	0.858373	-0.000101
1105	1.0985e+02	-1.9911	-2.408151	0.000608	6.080402	1.030048	-0.000122
1106	1.0995e+02	-2.0111	-2.557525	0.000750	7.499162	1.270392	-0.000150
1107	1.1005e+02	-2.0310	-2.727085	0.000851	8.512563	1.442067	-0.000170
1108	1.1015e+02	-2.0516	-2.791679	0.000324	3.242881	0.549359	-0.000065
1109	1.1025e+02	-2.0712	-2.941053	0.000750	7.499162	1.270392	-0.000150
1110	1.1035e+02	-2.0908	-3.066205	0.000628	6.283082	1.064383	-0.000126
1111	1.1044e+02	-2.1112	-3.215579	0.000750	7.499162	1.270392	-0.000150
1112	1.1054e+02	-2.1305	-3.316507	0.000507	5.067002	0.858373	-0.000101
1113	1.1064e+02	-2.1504	-3.441658	0.000628	6.283082	1.064383	-0.000126
1114	1.1074e+02	-2.1703	-3.599107	0.000790	7.904522	1.339062	-0.000158
1115	1.1084e+02	-2.1915	-3.716183	0.000588	5.877722	0.995713	-0.000118
1116	1.1094e+02	-2.2109	-3.837298	0.000608	6.080402	1.030048	-0.000122
1117	1.1104e+02	-2.2307	-3.962449	0.000628	6.283082	1.064383	-0.000126
1118	1.1114e+02	-2.2507	-4.127971	0.000831	8.309883	1.407732	-0.000166
1119	1.1124e+02	-2.2710	-4.216788	0.000446	4.458961	0.755369	-0.000089
1120	1.1134e+02	-2.2904	-4.345977	0.000649	6.485762	1.098718	-0.000130
1121	1.1144e+02	-2.3109	-4.471128	0.000628	6.283082	1.064383	-0.000126
1122	1.1154e+02	-2.3305	-4.632613	0.000811	8.107203	1.373397	-0.000162
1123	1.1164e+02	-2.3505	-4.721430	0.000446	4.458961	0.755369	-0.000089
1124	1.1174e+02	-2.3700	-4.874841	0.000770	7.701842	1.304727	-0.000154
1125	1.1184e+02	-2.3901	-5.024215	0.000750	7.499162	1.270392	-0.000150
1126	1.1194e+02	-2.4103	-5.100921	0.000385	3.850921	0.652364	-0.000077
1127	1.1204e+02	-2.4307	-5.234146	0.000669	6.688442	1.133053	-0.000134
1128	1.1214e+02	-2.4490	-5.391595	0.000790	7.904522	1.339062	-0.000158
1129	1.1224e+02	-2.4698	-5.488486	0.000486	4.864322	0.824038	-0.000097
1130	1.1234e+02	-2.4900	-5.645934	0.000790	7.904522	1.339062	-0.000158
1131	1.1244e+02	-2.5095	-5.746863	0.000507	5.067002	0.858373	-0.000101
1132	1.1253e+02	-2.5283	-5.896237	0.000750	7.499162	1.270392	-0.000150
1133	1.1263e+02	-2.5486	-6.029462	0.000669	6.688442	1.133053	-0.000134
1134	1.1273e+02	-2.5685	-6.130391	0.000507	5.067002	0.858373	-0.000101
1135	1.1283e+02	-2.5882	-6.247468	0.000588	5.877722	0.995713	-0.000118
1136	1.1293e+02	-2.6089	-6.380693	0.000669	6.688442	1.133053	-0.000134
1137	1.1303e+02	-2.6274	-6.517956	0.000689	6.891122	1.167388	-0.000138
1138	1.1313e+02	-2.6488	-6.622921	0.000527	5.269682	0.892708	-0.000105
1139	1.1323e+02	-2.6685	-6.739998	0.000588	5.877722	0.995713	-0.000118
1140	1.1333e+02	-2.6882	-6.889372	0.000750	7.499162	1.270392	-0.000150
1141	1.1343e+02	-2.7081	-6.994338	0.000527	5.269682	0.892708	-0.000105
1142	1.1353e+02	-2.7283	-7.176009	0.000912	9.120603	1.545072	-0.000183
1143	1.1363e+02	-2.7472	-7.293086	0.000588	5.877722	0.995713	-0.000118
1144	1.1373e+02	-2.7682	-7.398051	0.000527	5.269682	0.892708	-0.000105
1145	1.1383e+02	-2.7878	-7.551462	0.000770	7.701842	1.304727	-0.000154
1146	1.1393e+02	-2.8079	-7.632205	0.000405	4.053601	0.686699	-0.000081
1147	1.1403e+02	-2.8278	-7.741208	0.000547	5.472362	0.927043	-0.000110
1148	1.1413e+02	-2.8484	-7.898656	0.000790	7.904522	1.339062	-0.000158
1149	1.1423e+02	-2.8680	-8.011696	0.000568	5.675042	0.961378	-0.000114
1150	1.1433e+02	-2.8884	-8.161070	0.000750	7.499162	1.270392	-0.000150
1151	1.1442e+02	-2.9076	-8.270073	0.000547	5.472362	0.927043	-0.000110
1152	1.1452e+02	-2.9276	-8.411372	0.000709	7.093802	1.201723	-0.000142
1153	1.1462e+02	-2.9473	-8.524412	0.000568	5.675042	0.961378	-0.000114
1154	1.1472e+02	-2.9681	-8.685898	0.000811	8.107203	1.373397	-0.000162
1155	1.1482e+02	-2.9861	-8.786826	0.000507	5.067002	0.858373	-0.000101
1156	1.1492e+02	-3.0084	-8.928126	0.000709	7.093802	1.201723	-0.000142
1157	1.1502e+02	-3.0269	-9.016943	0.000446	4.458961	0.755369	-0.000089
1158	1.1512e+02	-3.0466	-9.150168	0.000669	6.688442	1.133053	-0.000134
1159	1.1522e+02	-3.0663	-9.291468	0.000709	7.093802	1.201723	-0.000142
1160	1.1532e+02	-3.0862	-9.420656	0.000649	6.485762	1.098718	-0.000130
1161	1.1542e+02	-3.1067	-9.570030	0.000750	7.499162	1.270392	-0.000150
1162	1.1552e+02	-3.1281	-9.666922	0.000486	4.864322	0.824038	-0.000097
1163	1.1562e+02	-3.1467	-9.796110	0.000649	6.485762	1.098718	-0.000130
1164	1.1572e+02	-3.1667	-9.913187	0.000588	5.877722	0.995713	-0.000118
1165	1.1582e+02	-3.1870	-10.002004	0.000446	4.458961	0.755369	-0.000089
1166	1.1592e+02	-3.2069	-10.151378	0.000750	7.499162	1.270392	-0.000150
1167	1.1602e+02	-3.2270	-10.304789	0.000770	7.701842	1.304727	-0.000154
1168	1.1612e+02	-3.2465	-10.361309	0.000284	2.837521	0.480689	-0.000057
1169	1.1622e+02	-3.2662	-10.510683	0.000750	7.499162	1.270392	-0.000150
1170	1.1632e+02	-3.2867	-10.623723	0.000568	5.675042	0.961378	-0.000114
1171	1.1642e+02	-3.3069	-10.760985	0.000689	6.891122	1.167388	-0.000138
1172	1.1651e+02	-3.3269	-10.898248	0.000689	6.891122	1.167388	-0.000138
1173	1.1661e+02	-3.3458	-10.999176	0.000507	5.067002	0.858373	-0.000101
1174	1.1671e+02	-3.3658	-11.192959	0.000973	9.728643	1.648077	-0.000195
1175	1.1681e+02	-3.3850	-11.273702	0.000405	4.053601	0.686699	-0.000081
1176	1.1691e+02	-3.4059	-11.386741	0.000568	5.675042	0.961378	-0.000114
1177	1.1701e+02	-3.4251	-11.519967	0.000669	6.688442	1.133053	-0.000134
1178	1.1711e+02	-3.4457	-11.657229	0.000689	6.891122	1.167388	-0.000138
1179	1.1721e+02	-3.4650	-11.729898	0.000365	3.648241	0.618029	-0.000073
1180	1.1731e+02	-3.4863	-11.879272	0.000750	7.499162	1.270392	-0.000150
1181	1.1741e+02	-3.5049	-12.004423	0.000628	6.283082	1.064383	-0.000126
1182	1.1751e+02	-3.5258	-12.186094	0.000912	9.120603	1.545072	-0.000183
1183	1.1761e+02	-3.5452	-12.287023	0.000507	5.067002	0.858373	-0.000101
1184	1.1771e+02	-3.5646	-12.400062	0.000568	5.675042	0.961378	-0.000114
1185	1.1781e+02	-3.5852	-12.513102	0.000568	5.675042	0.961378	-0.000114
1186	1.1791e+02	-3.6052	-12.678625	0.000831	8.309883	1.407732	-0.000166
1187	1.1801e+02	-3.6249	-12.783590	0.000527	5.269682	0.892708	-0.000105
1188	1.1811e+02	-3.6451	-12.892593	0.000547	5.472362	0.927043	-0.000110
1189	1.1821e+02	-3.6646	-13.001596	0.000547	5.472362	0.927043	-0.000110
1190	1.1831e+02	-3.6858	-13.175192	0.000872	8.715243	1.476402	-0.000174
1191	1.1841e+02	-3.7045	-13.268047	0.000466	4.661641	0.789703	-0.000093
1192	1.1850e+02	-3.7251	-13.393198	0.000628	6.283082	1.064383	-0.000126
1193	1.1860e+02	-3.7451	-13.558720	0.000831	8.309883	1.407732	-0.000166
1194	1.1870e+02	-3.7640	-13.651574	0.000466	4.661641	0.789703	-0.000093
1195	1.1880e+02	-3.7836	-13.756540	0.000527	5.269682	0.892708	-0.000105
1196	1.1890e+02	-3.8034	-13.873617	0.000588	5.877722	0.995713	-0.000118
1197	1.1900e+02	-3.8248	-14.018954	0.000730	7.296482	1.236058	-0.000146
1198	1.1910e+02	-3.8454	-14.144105	0.000628	6.283082	1.064383	-0.000126
1199	1.1920e+02	-3.8632	-14.257145	0.000568	5.675042	0.961378	-0.000114
1200	1.1930e+02	-3.8832	-14.386333	0.000649	6.485762	1.098718	-0.000130
1201	1.1940e+02	-3.9037	-14.547819	0.000811	8.107203	1.373397	-0.000162
1202	1.1950e+02	-3.9233	-14.644710	0.000486	4.864322	0.824038	-0.000097
1203	1.1960e+02	-3.9441	-14.741601	0.000486	4.864322	0.824038	-0.000097
1204	1.1970e+02	-3.9630	-14.890975	0.000750	7.499162	1.270392	-0.000150
1205	1.1980e+02	-3.9825	-15.064572	0.000872	8.715243	1.476402	-0.000174
1206	1.1990e+02	-4.0042	-15.157426	0.000466	4.661641	0.789703	-0.000093
1207	1.2000e+02	-4.0221	-15.242206	0.000426	4.256281	0.721034	-0.000085
1208	1.2010e+02	-4.0436	-15.399654	0.000790	7.904522	1.339062	-0.000158
1209	1.2020e+02	-4.0628	-15.476360	0.000385	3.850921	0.652364	-0.000077
1210	1.2030e+02	-4.0833	-15.617660	0.000709	7.093802	1.201723	-0.000142
1211	1.2039e+02	-4.1025	-15.690328	0.000365	3.648241	0.618029	-0.000073
1212	1.2049e+02	-4.1231	-15.871999	0.000912	9.120603	1.545072	-0.000183
1213	1.2059e+02	-4.1427	-15.981002	0.000547	5.472362	0.927043	-0.000110
1214	1.2069e+02	-4.1629	-16.106153	0.000628	6.283082	1.064383	-0.000126
1215	1.2079e+02	-4.1821	-16.194970	0.000446	4.458961	0.755369	-0.000089
1216	1.2089e+02	-4.2026	-16.340307	0.000730	7.296482	1.236058	-0.000146
1217	1.2099e+02	-4.2227	-16.473532	0.000669	6.688442	1.133053	-0.000134
1218	1.2109e+02	-4.2429	-16.582535	0.000547	5.472362	0.927043	-0.000110
1219	1.2119e+02	-4.2632	-16.719798	0.000689	6.891122	1.167388	-0.000138
1220	1.2129e+02	-4.2831	-16.848986	0.000649	6.485762	1.098718	-0.000130
1221	1.2139e+02	-4.3027	-16.945877	0.000486	4.864322	0.824038	-0.000097
1222	1.2149e+02	-4.3224	-17.071028	0.000628	6.283082	1.064383	-0.000126
1223	1.2159e+02	-4.3420	-17.200217	0.000649	6.485762	1.098718	-0.000130
1224	1.2169e+02	-4.3614	-17.301145	0.000507	5.067002	0.858373	-0.000101
1225	1.2179e+02	-4.3813	-17.442445	0.000709	7.093802	1.201723	-0.000142
1226	1.2189e+02	-4.4020	-17.519151	0.000385	3.850921	0.652364	-0.000077
1227	1.2199e+02	-4.4215	-17.612005	0.000466	4.661641	0.789703	-0.000093
1228	1.2209e+02	-4.4418	-17.813861	0.001013	10.134003	1.716747	-0.000203
1229	1.2219e+02	-4.4617	-17.866344	0.000263	2.634841	0.446354	-0.000053
1230	1.2229e+02	-4.4815	-18.035904	0.000851	8.512563	1.442067	-0.000170
1231	1.2239e+02	-4.5019	-18.136832	0.000507	5.067002	0.858373	-0.000101
1232	1.2248e+02	-4.5222	-18.274095	0.000689	6.891122	1.167388	-0.000138
1233	1.2258e+02	-4.5421	-18.383098	0.000547	5.472362	0.927043	-0.000110
1234	1.2268e+02	-4.5615	-18.492100	0.000547	5.472362	0.927043	-0.000110
1235	1.2278e+02	-4.5815	-18.629363	0.000689	6.891122	1.167388	-0.000138
1236	1.2288e+02	-4.6014	-18.734328	0.000527	5.269682	0.892708	-0.000105
1237	1.2298e+02	-4.6207	-18.835257	0.000507	5.067002	0.858373	-0.000101
1238	1.2308e+02	-4.6416	-18.928111	0.000466	4.661641	0.789703	-0.000093
1239	1.2318e+02	-4.6606	-19.053262	0.000628	6.283082	1.064383	-0.000126
1240	1.2328e+02	-4.6809	-19.178413	0.000628	6.283082	1.064383	-0.000126
1241	1.2338e+02	-4.7003	-19.319713	0.000709	7.093802	1.201723	-0.000142
1242	1.2348e+02	-4.7205	-19.448901	0.000649	6.485762	1.098718	-0.000130
1243	1.2358e+02	-4.7406	-19.529644	0.000405	4.053601	0.686699	-0.000081
1244	1.2368e+02	-4.7607	-19.666907	0.000689	6.891122	1.167388	-0.000138
1245	1.2378e+02	-4.7806	-19.812244	0.000730	7.296482	1.236058	-0.000146
1246	1.2388e+02	-4.8003	-19.917209	0.000527	5.269682	0.892708	-0.000105
1247	1.2398e+02	-4.8208	-20.022175	0.000527	5.269682	0.892708	-0.000105
1248	1.2408e+02	-4.8405	-20.155400	0.000669	6.688442	1.133053	-0.000134
1249	1.2418e+02	-4.8608	-20.272477	0.000588	5.877722	0.995713	-0.000118
1250	1.2428e+02	-4.8807	-20.397628	0.000628	6.283082	1.064383	-0.000126
1251	1.2438e+02	-4.8993	-20.514705	0.000588	5.877722	0.995713	-0.000118
1252	1.2447e+02	-4.9205	-20.603522	0.000446	4.458961	0.755369	-0.000089
1253	1.2457e+02	-4.9400	-20.748859	0.000730	7.296482	1.236058	-0.000146
1254	1.2467e+02	-4.9606	-20.874010	0.000628	6.283082	1.064383	-0.000126
1255	1.2477e+02	-4.9805	-20.950716	0.000385	3.850921	0.652364	-0.000077
1256	1.2487e+02	-4.9993	-21.083941	0.000669	6.688442	1.133053	-0.000134
1257	1.2497e+02	-5.0195	-21.209093	0.000628	6.283082	1.064383	-0.000126
1258	1.2507e+02	-5.0397	-21.326170	0.000588	5.877722	0.995713	-0.000118
1259	1.2517e+02	-5.0595	-21.455358	0.000649	6.485762	1.098718	-0.000130
1260	1.2527e+02	-5.0778	-21.552249	0.000486	4.864322	0.824038	-0.000097
1261	1.2537e+02	-5.0995	-21.685475	0.000669	6.688442	1.133053	-0.000134
1262	1.2547e+02	-5.1196	-21.778329	0.000466	4.661641	0.789703	-0.000093
1263	1.2557e+02	-5.1384	-21.903480	0.000628	6.283082	1.064383	-0.000126
1264	1.2567e+02	-5.1587	-22.020557	0.000588	5.877722	0.995713	-0.000118
1265	1.2577e+02	-5.1782	-22.149745	0.000649	6.485762	1.098718	-0.000130
1266	1.2587e+02	-5.1988	-22.230488	0.000405	4.053601	0.686699	-0.000081
1267	1.2597e+02	-5.2192	-22.363713	0.000669	6.688442	1.133053	-0.000134
1268	1.2607e+02	-5.2393	-22.476753	0.000568	5.675042	0.961378	-0.000114
1269	1.2617e+02	-5.2585	-22.569607	0.000466	4.661641	0.789703	-0.000093
1270	1.2627e+02	-5.2785	-22.658424	0.000446	4.458961	0.755369	-0.000089
1271	1.2636e+02	-5.2985	-22.815873	0.000790	7.904522	1.339062	-0.000158
1272	1.2646e+02	-5.3181	-22.936987	0.000608	6.080402	1.030048	-0.000122
1273	1.2656e+02	-5.3378	-23.058101	0.000608	6.080402	1.030048	-0.000122
1274	1.2666e+02	-5.3584	-23.154992	0.000486	4.864322	0.824038	-0.000097
1275	1.2676e+02	-5.3770	-23.284180	0.000649	6.485762	1.098718	-0.000130
1276	1.2686e+02	-5.3975	-23.393183	0.000547	5.472362	0.927043	-0.000110
1277	1.2696e+02	-5.4174	-23.514297	0.000608	6.080402	1.030048	-0.000122
1278	1.2706e+02	-5.4384	-23.607151	0.000466	4.661641	0.789703	-0.000093
1279	1.2716e+02	-5.4572	-23.732302	0.000628	6.283082	1.064383	-0.000126
1280	1.2726e+02	-5.4776	-23.853417	0.000608	6.080402	1.030048	-0.000122
1281	1.2736e+02	-5.4971	-23.958382	0.000527	5.269682	0.892708	-0.000105
1282	1.2746e+02	-5.5179	-24.083533	0.000628	6.283082	1.064383	-0.000126
1283	1.2756e+02	-5.5387	-24.176387	0.000466	4.661641	0.789703	-0.000093
1284	1.2766e+02	-5.5584	-24.321724	0.000730	7.296482	1.236058	-0.000146
1285	1.2776e+02	-5.5774	-24.454950	0.000669	6.688442	1.133053	-0.000134
1286	1.2786e+02	-5.5966	-24.531655	0.000385	3.850921	0.652364	-0.000077
1287	1.2796e+02	-5.6175	-24.672955	0.000709	7.093802	1.201723	-0.000142
1288	1.2806e+02	-5.6390	-24.810218	0.000689	6.891122	1.167388	-0.000138
1289	1.2816e+02	-5.6573	-24.907109	0.000486	4.864322	0.824038	-0.000097
1290	1.2826e+02	-5.6765	-25.036297	0.000649	6.485762	1.098718	-0.000130
1291	1.2835e+02	-5.6964	-25.129151	0.000466	4.661641	0.789703	-0.000093
1292	1.2845e+02	-5.7178	-25.290637	0.000811	8.107203	1.373397	-0.000162
1293	1.2855e+02	-5.7373	-25.383491	0.000466	4.661641	0.789703	-0.000093
1294	1.2865e+02	-5.7567	-25.496531	0.000568	5.675042	0.961378	-0.000114
1295	1.2875e+02	-5.7771	-25.609571	0.000568	5.675042	0.961378	-0.000114
1296	1.2885e+02	-5.7968	-25.734722	0.000628	6.283082	1.064383	-0.000126
1297	1.2895e+02	-5.8163	-25.867947	0.000669	6.688442	1.133053	-0.000134
1298	1.2905e+02	-5.8368	-25.989061	0.000608	6.080402	1.030048	-0.000122
1299	1.2915e+02	-5.8568	-26.146510	0.000790	7.904522	1.339062	-0.000158
1300	1.2925e+02	-5.8771	-26.227252	0.000405	4.053601	0.686699	-0.000081
1301	1.2935e+02	-5.8965	-26.316069	0.000446	4.458961	0.755369	-0.000089
1302	1.2945e+02	-5.9170	-26.489666	0.000872	8.715243	1.476402	-0.000174
1303	1.2955e+02	-5.9355	-26.594632	0.000527	5.269682	0.892708	-0.000105
1304	1.2965e+02	-5.9567	-26.711709	0.000588	5.877722	0.995713	-0.000118
1305	1.2975e+02	-5.9750	-26.816674	0.000527	5.269682	0.892708	-0.000105
1306	1.2985e+02	-5.9959	-26.982197	0.000831	8.309883	1.407732	-0.000166
1307	1.2995e+02	-6.0156	-27.058902	0.000385	3.850921	0.652364	-0.000077
1308	1.3005e+02	-6.0362	-27.180016	0.000608	6.080402	1.030048	-0.000122
1309	1.3015e+02	-6.0556	-27.301130	0.000608	6.080402	1.030048	-0.000122
1310	1.3025e+02	-6.0764	-27.454542	0.000770	7.701842	1.304727	-0.000154
1311	1.3034e+02	-6.0954	-27.567581	0.000568	5.675042	0.961378	-0.000114
1312	1.3044e+02	-6.1154	-27.680621	0.000568	5.675042	0.961378	-0.000114
1313	1.3054e+02	-6.1356	-27.789624	0.000547	5.472362	0.927043	-0.000110
1314	1.3064e+02	-6.1554	-27.898627	0.000547	5.472362	0.927043	-0.000110
1315	1.3074e+02	-6.1752	-27.995518	0.000486	4.864322	0.824038	-0.000097
1316	1.3084e+02	-6.1954	-28.128743	0.000669	6.688442	1.133053	-0.000134
1317	1.3094e+02	-6.2143	-28.290229	0.000811	8.107203	1.373397	-0.000162
1318	1.3104e+02	-6.2357	-28.415380	0.000628	6.283082	1.064383	-0.000126
1319	1.3114e+02	-6.2552	-28.548605	0.000669	6.688442	1.133053	-0.000134
1320	1.3124e+02	-6.2747	-28.649534	0.000507	5.067002	0.858373	-0.000101
1321	1.3134e+02	-6.2952	-28.798908	0.000750	7.499162	1.270392	-0.000150
1322	1.3144e+02	-6.3141	-28.883688	0.000426	4.256281	0.721034	-0.000085
1323	1.3154e+02	-6.3348	-28.996727	0.000568	5.675042	0.961378	-0.000114
1324	1.3164e+02	-6.3547	-29.129953	0.000669	6.688442	1.133053	-0.000134
1325	1.3174e+02	-6.3742	-29.275290	0.000730	7.296482	1.236058	-0.000146
1326	1.3184e+02	-6.3947	-29.356033	0.000405	4.053601	0.686699	-0.000081
1327	1.3194e+02	-6.4151	-29.505407	0.000750	7.499162	1.270392	-0.000150
1328	1.3204e+02	-6.4339	-29.614409	0.000547	5.472362	0.927043	-0.000110
1329	1.3214e+02	-6.4536	-29.759746	0.000730	7.296482	1.236058	-0.000146
1330	1.3224e+02	-6.4749	-29.868749	0.000547	5.472362	0.927043	-0.000110
1331	1.3234e+02	-6.4929	-30.001974	0.000669	6.688442	1.133053	-0.000134
1332	1.3243e+02	-6.5140	-30.123088	0.000608	6.080402	1.030048	-0.000122
1333	1.3253e+02	-6.5344	-30.276499	0.000770	7.701842	1.304727	-0.000154
1334	1.3263e+02	-6.5536	-30.401651	0.000628	6.283082	1.064383	-0.000126
1335	1.3273e+02	-6.5738	-30.506616	0.000527	5.269682	0.892708	-0.000105
1336	1.3283e+02	-6.5936	-30.623693	0.000588	5.877722	0.995713	-0.000118
1337	1.3293e+02	-6.6132	-30.720584	0.000486	4.864322	0.824038	-0.000097
1338	1.3303e+02	-6.6338	-30.910330	0.000953	9.525963	1.613742	-0.000191
1339	1.3313e+02	-6.6522	-30.991072	0.000405	4.053601	0.686699	-0.000081
1340	1.3323e+02	-6.6730	-31.148521	0.000790	7.904522	1.339062	-0.000158
1341	1.3333e+02	-6.6930	-31.265598	0.000588	5.877722	0.995713	-0.000118
1342	1.3343e+02	-6.7126	-31.398823	0.000669	6.688442	1.133053	-0.000134
1343	1.3353e+02	-6.7329	-31.560309	0.000811	8.107203	1.373397	-0.000162
1344	1.3363e+02	-6.7528	-31.689497	0.000649	6.485762	1.098718	-0.000130
1345	1.3373e+02	-6.7721	-31.806574	0.000588	5.877722	0.995713	-0.000118
1346	1.3383e+02	-6.7931	-31.895391	0.000446	4.458961	0.755369	-0.000089
1347	1.3393e+02	-6.8124	-32.056876	0.000811	8.107203	1.373397	-0.000162
1348	1.3403e+02	-6.8321	-32.145693	0.000446	4.458961	0.755369	-0.000089
1349	1.3413e+02	-6.8533	-32.311216	0.000831	8.309883	1.407732	-0.000166
1350	1.3423e+02	-6.8731	-32.468664	0.000790	7.904522	1.339062	-0.000158
1351	1.3432e+02	-6.8918	-32.577667	0.000547	5.472362	0.927043	-0.000110
1352	1.3442e+02	-6.9131	-32.678595	0.000507	5.067002	0.858373	-0.000101
1353	1.3452e+02	-6.9322	-32.868341	0.000953	9.525963	1.613742	-0.000191
1354	1.3462e+02	-6.9519	-32.949083	0.000405	4.053601	0.686699	-0.000081
1355	1.3472e+02	-6.9727	-33.126717	0.000892	8.917923	1.510737	-0.000179
1356	1.3482e+02	-6.9922	-33.239757	0.000568	5.675042	0.961378	-0.000114
1357	1.3492e+02	-7.0114	-33.389131	0.000750	7.499162	1.270392	-0.000150
1358	1.3502e+02	-7.0319	-33.518319	0.000649	6.485762	1.098718	-0.000130
1359	1.3512e+02	-7.0520	-33.623285	0.000527	5.269682	0.892708	-0.000105
1360	1.3522e+02	-7.0716	-33.776696	0.000770	7.701842	1.304727	-0.000154
1361	1.3532e+02	-7.0917	-33.909922	0.000669	6.688442	1.133053	-0.000134
1362	1.3542e+02	-7.1121	-34.071407	0.000811	8.107203	1.373397	-0.000162
1363	1.3552e+02	-7.1313	-34.176373	0.000527	5.269682	0.892708	-0.000105
1364	1.3562e+02	-7.1518	-34.317672	0.000709	7.093802	1.201723	-0.000142
1365	1.3572e+02	-7.1713	-34.471083	0.000770	7.701842	1.304727	-0.000154
1366	1.3582e+02	-7.1918	-34.580086	0.000547	5.472362	0.927043	-0.000110
1367	1.3592e+02	-7.2116	-34.725423	0.000730	7.296482	1.236058	-0.000146
1368	1.3602e+02	-7.2313	-34.846537	0.000608	6.080402	1.030048	-0.000122
1369	1.3612e+02	-7.2513	-34.987837	0.000709	7.093802	1.201723	-0.000142
1370	1.3622e+02	-7.2711	-35.157397	0.000851	8.512563	1.442067	-0.000170
1371	1.3631e+02	-7.2906	-35.258325	0.000507	5.067002	0.858373	-0.000101
1372	1.3641e+02	-7.3108	-35.391550	0.000669	6.688442	1.133053	-0.000134
1373	1.3651e+02	-7.3309	-35.540924	0.000750	7.499162	1.270392	-0.000150
1374	1.3661e+02	-7.3511	-35.686261	0.000730	7.296482	1.236058	-0.000146
1375	1.3671e+02	-7.3709	-35.823524	0.000689	6.891122	1.167388	-0.000138
1376	1.3681e+02	-7.3904	-35.952712	0.000649	6.485762	1.098718	-0.000130
1377	1.3691e+02	-7.4100	-36.077864	0.000628	6.283082	1.064383	-0.000126
1378	1.3701e+02	-7.4360	-36.219163	0.000709	7.093802	1.201723	-0.000142
1379	1.3711e+02	-7.4500	-36.380649	0.000811	8.107203	1.373397	-0.000162
1380	1.3721e+02	-7.4702	-36.481577	0.000507	5.067002	0.858373	-0.000101
1381	1.3731e+02	-7.4903	-36.630951	0.000750	7.499162	1.270392	-0.000150
1382	1.3741e+02	-7.5104	-36.768214	0.000689	6.891122	1.167388	-0.000138
1383	1.3751e+02	-7.5299	-36.945848	0.000892	8.917923	1.510737	-0.000179
1384	1.3761e+02	-7.5488	-37.038702	0.000466	4.661641	0.789703	-0.000093
1385	1.3771e+02	-7.5702	-37.171927	0.000669	6.688442	1.133053	-0.000134
1386	1.3781e+02	-7.5897	-37.317264	0.000730	7.296482	1.236058	-0.000146
1387	1.3791e+02	-7.6082	-37.442415	0.000628	6.283082	1.064383	-0.000126
1388	1.3801e+02	-7.6299	-37.616012	0.000872	8.715243	1.476402	-0.000174
1389	1.3811e+02	-7.6488	-37.761349	0.000730	7.296482	1.236058	-0.000146
1390	1.3821e+02	-7.6685	-37.906686	0.000730	7.296482	1.236058	-0.000146
1391	1.3831e+02	-7.6884	-38.023763	0.000588	5.877722	0.995713	-0.000118
1392	1.3840e+02	-7.7078	-38.169100	0.000730	7.296482	1.236058	-0.000146
1393	1.3850e+02	-7.7290	-38.314437	0.000730	7.296482	1.236058	-0.000146
1394	1.3860e+02	-7.7493	-38.471885	0.000790	7.904522	1.339062	-0.000158
1395	1.3870e+02	-7.7680	-38.617222	0.000730	7.296482	1.236058	-0.000146
1396	1.3880e+02	-7.7890	-38.697965	0.000405	4.053601	0.686699	-0.000081
1397	1.3890e+02	-7.8093	-38.863487	0.000831	8.309883	1.407732	-0.000166
1398	1.3900e+02	-7.8290	-39.041121	0.000892	8.917923	1.510737	-0.000179
1399	1.3910e+02	-7.8476	-39.194532	0.000770	7.701842	1.304727	-0.000154
1400	1.3920e+02	-7.8683	-39.311609	0.000588	5.877722	0.995713	-0.000118
1401	1.3930e+02	-7.8873	-39.444835	0.000669	6.688442	1.133053	-0.000134
1402	1.3940e+02	-7.9074	-39.650729	0.001034	10.336683	1.751082	-0.000207
1403	1.3950e+02	-7.9279	-39.783954	0.000669	6.688442	1.133053	-0.000134
1404	1.3960e+02	-7.9477	-39.880845	0.000486	4.864322	0.824038	-0.000097
1405	1.3970e+02	-7.9674	-40.046368	0.000831	8.309883	1.407732	-0.000166
1406	1.3980e+02	-7.9871	-40.195742	0.000750	7.499162	1.270392	-0.000150
1407	1.3990e+02	-8.0075	-40.377413	0.000912	9.120603	1.545072	-0.000183
1408	1.4000e+02	-8.0280	-40.506601	0.000649	6.485762	1.098718	-0.000130
1409	1.4010e+02	-8.0467	-40.672124	0.000831	8.309883	1.407732	-0.000166
1410	1.4020e+02	-8.0663	-40.813424	0.000709	7.093802	1.201723	-0.000142
1411	1.4029e+02	-8.0879	-40.999132	0.000932	9.323283	1.579407	-0.000187
1412	1.4039e+02	-8.1070	-41.120246	0.000608	6.080402	1.030048	-0.000122
1413	1.4049e+02	-8.1274	-41.265583	0.000730	7.296482	1.236058	-0.000146
1414	1.4059e+02	-8.1458	-41.410920	0.000730	7.296482	1.236058	-0.000146
1415	1.4069e+02	-8.1661	-41.556257	0.000730	7.296482	1.236058	-0.000146
1416	1.4079e+02	-8.1866	-41.750039	0.000973	9.728643	1.648077	-0.000195
1417	1.4089e+02	-8.2064	-41.899413	0.000750	7.499162	1.270392	-0.000150
1418	1.4099e+02	-8.2270	-42.032639	0.000669	6.688442	1.133053	-0.000134
1419	1.4109e+02	-8.2466	-42.214310	0.000912	9.120603	1.545072	-0.000183
1420	1.4119e+02	-8.2672	-42.331387	0.000588	5.877722	0.995713	-0.000118
1421	1.4129e+02	-8.2864	-42.496909	0.000831	8.309883	1.407732	-0.000166
1422	1.4139e+02	-8.3072	-42.650321	0.000770	7.701842	1.304727	-0.000154
1423	1.4149e+02	-8.3263	-42.844103	0.000973	9.728643	1.648077	-0.000195
1424	1.4159e+02	-8.3459	-42.965217	0.000608	6.080402	1.030048	-0.000122
1425	1.4169e+02	-8.3667	-43.118628	0.000770	7.701842	1.304727	-0.000154
1426	1.4179e+02	-8.3867	-43.292225	0.000872	8.715243	1.476402	-0.000174
1427	1.4189e+02	-8.4060	-43.453711	0.000811	8.107203	1.373397	-0.000162
1428	1.4199e+02	-8.4259	-43.627307	0.000872	8.715243	1.476402	-0.000174
1429	1.4209e+02	-8.4460	-43.776681	0.000750	7.499162	1.270392	-0.000150
1430	1.4219e+02	-8.4656	-43.917981	0.000709	7.093802	1.201723	-0.000142
1431	1.4228e+02	-8.4850	-44.071392	0.000770	7.701842	1.304727	-0.000154
1432	1.4238e+02	-8.5056	-44.192506	0.000608	6.080402	1.030048	-0.000122
1433	1.4248e+02	-8.5254	-44.382252	0.000953	9.525963	1.613742	-0.000191
1434	1.4258e+02	-8.5455	-44.531626	0.000750	7.499162	1.270392	-0.000150
1435	1.4268e+02	-8.5651	-44.705223	0.000872	8.715243	1.476402	-0.000174
1436	1.4278e+02	-8.5860	-44.874782	0.000851	8.512563	1.442067	-0.000170
1437	1.4288e+02	-8.6060	-44.987822	0.000568	5.675042	0.961378	-0.000114
1438	1.4298e+02	-8.6255	-45.185642	0.000993	9.931323	1.682412	-0.000199
1439	1.4308e+02	-8.6453	-45.343090	0.000790	7.904522	1.339062	-0.000158
1440	1.4318e+02	-8.6649	-45.524761	0.000912	9.120603	1.545072	-0.000183
1441	1.4328e+02	-8.6846	-45.674135	0.000750	7.499162	1.270392	-0.000150
1442	1.4338e+02	-8.7042	-45.851769	0.000892	8.917923	1.510737	-0.000179
1443	1.4348e+02	-8.7244	-46.025366	0.000872	8.715243	1.476402	-0.000174
1444	1.4358e+02	-8.7447	-46.146480	0.000608	6.080402	1.030048	-0.000122
1445	1.4368e+02	-8.7651	-46.324114	0.000892	8.917923	1.510737	-0.000179
1446	1.4378e+02	-8.7854	-46.521934	0.000993	9.931323	1.682412	-0.000199
1447	1.4388e+02	-8.8040	-46.671308	0.000750	7.499162	1.270392	-0.000150
1448	1.4398e+02	-8.8239	-46.808570	0.000689	6.891122	1.167388	-0.000138
1449	1.4408e+02	-8.8448	-47.014464	0.001034	10.336683	1.751082	-0.000207
1450	1.4418e+02	-8.8640	-47.167875	0.000770	7.701842	1.304727	-0.000154
1451	1.4428e+02	-8.8829	-47.353584	0.000932	9.323283	1.579407	-0.000187
1452	1.4437e+02	-8.9041	-47.531218	0.000892	8.917923	1.510737	-0.000179
1453	1.4447e+02	-8.9233	-47.668480	0.000689	6.891122	1.167388	-0.000138
1454	1.4457e+02	-8.9439	-47.914746	0.001236	12.363484	2.094431	-0.000248
1455	1.4467e+02	-8.9629	-48.068157	0.000770	7.701842	1.304727	-0.000154
1456	1.4477e+02	-8.9841	-48.237716	0.000851	8.512563	1.442067	-0.000170
1457	1.4487e+02	-9.0042	-48.407276	0.000851	8.512563	1.442067	-0.000170
1458	1.4497e+02	-9.0228	-48.613170	0.001034	10.336683	1.751082	-0.000207
1459	1.4507e+02	-9.0439	-48.758507	0.000730	7.296482	1.236058	-0.000146
1460	1.4517e+02	-9.0637	-48.960364	0.001013	10.134003	1.716747	-0.000203
1461	1.4527e+02	-9.0831	-49.129923	0.000851	8.512563	1.442067	-0.000170
1462	1.4537e+02	-9.1034	-49.335817	0.001034	10.336683	1.751082	-0.000207
1463	1.4547e+02	-9.1229	-49.517488	0.000912	9.120603	1.545072	-0.000183
1464	1.4557e+02	-9.1422	-49.687048	0.000851	8.512563	1.442067	-0.000170
1465	1.4567e+02	-9.1632	-49.884868	0.000993	9.931323	1.682412	-0.000199
1466	1.4577e+02	-9.1821	-50.074613	0.000953	9.525963	1.613742	-0.000191
1467	1.4587e+02	-9.2029	-50.276470	0.001013	10.134003	1.716747	-0.000203
1468	1.4597e+02	-9.2218	-50.450067	0.000872	8.715243	1.476402	-0.000174
1469	1.4607e+02	-9.2427	-50.631738	0.000912	9.120603	1.545072	-0.000183
1470	1.4617e+02	-9.2622	-50.837632	0.001034	10.336683	1.751082	-0.000207
1471	1.4626e+02	-9.2819	-51.023340	0.000932	9.323283	1.579407	-0.000187
1472	1.4636e+02	-9.3029	-51.200974	0.000892	8.917923	1.510737	-0.000179
1473	1.4646e+02	-9.3210	-51.406868	0.001034	10.336683	1.751082	-0.000207
1474	1.4656e+02	-9.3420	-51.620836	0.001074	10.742043	1.819751	-0.000215
1475	1.4666e+02	-9.3623	-51.806544	0.000932	9.323283	1.579407	-0.000187
1476	1.4676e+02	-9.3829	-52.004364	0.000993	9.931323	1.682412	-0.000199
1477	1.4686e+02	-9.4021	-52.238518	0.001176	11.755444	1.991426	-0.000235
1478	1.4696e+02	-9.4217	-52.412115	0.000872	8.715243	1.476402	-0.000174
1479	1.4706e+02	-9.4423	-52.565526	0.000770	7.701842	1.304727	-0.000154
1480	1.4716e+02	-9.4614	-52.823903	0.001297	12.971524	2.197436	-0.000260
1481	1.4726e+02	-9.4819	-53.021722	0.000993	9.931323	1.682412	-0.000199
1482	1.4736e+02	-9.5015	-53.215505	0.000973	9.728643	1.648077	-0.000195
1483	1.4746e+02	-9.5213	-53.449659	0.001176	11.755444	1.991426	-0.000235
1484	1.4756e+02	-9.5413	-53.635367	0.000932	9.323283	1.579407	-0.000187
1485	1.4766e+02	-9.5612	-53.796852	0.000811	8.107203	1.373397	-0.000162
1486	1.4776e+02	-9.5820	-54.071378	0.001378	13.782244	2.334775	-0.000276
1487	1.4786e+02	-9.6016	-54.224789	0.000770	7.701842	1.304727	-0.000154
1488	1.4796e+02	-9.6204	-54.507388	0.001419	14.187604	2.403445	-0.000284
1489	1.4806e+02	-9.6407	-54.664836	0.000790	7.904522	1.339062	-0.000158
1490	1.4816e+02	-9.6613	-54.890916	0.001135	11.350084	1.922756	-0.000227
1491	1.4825e+02	-9.6805	-55.080661	0.000953	9.525963	1.613742	-0.000191
1492	1.4835e+02	-9.6999	-55.306741	0.001135	11.350084	1.922756	-0.000227
1493	1.4845e+02	-9.7212	-55.520709	0.001074	10.742043	1.819751	-0.000215
1494	1.4855e+02	-9.7407	-55.775049	0.001277	12.768844	2.163101	-0.000256
1495	1.4865e+02	-9.7594	-55.960757	0.000932	9.323283	1.579407	-0.000187
1496	1.4875e+02	-9.7801	-56.202985	0.001216	12.160804	2.060096	-0.000243
1497	1.4885e+02	-9.7993	-56.461362	0.001297	12.971524	2.197436	-0.000260
1498	1.4895e+02	-9.8207	-56.659182	0.000993	9.931323	1.682412	-0.000199
1499	1.4905e+02	-9.8407	-56.865075	0.001034	10.336683	1.751082	-0.000207
1500	1.4915e+02	-9.8608	-57.107304	0.001216	12.160804	2.060096	-0.000243
1501	1.4925e+02	-9.8807	-57.325309	0.001094	10.944723	1.854086	-0.000219
1502	1.4935e+02	-9.9002	-57.563500	0.001196	11.958124	2.025761	-0.000239
1503	1.4945e+02	-9.9191	-57.801691	0.001196	11.958124	2.025761	-0.000239
1504	1.4955e+02	-9.9396	-58.031808	0.001155	11.552764	1.957091	-0.000231
1505	1.4965e+02	-9.9606	-58.282110	0.001257	12.566164	2.128766	-0.000252
1506	1.4975e+02	-9.9799	-58.488004	0.001034	10.336683	1.751082	-0.000207
1507	1.4985e+02	-9.9999	-58.782715	0.001480	14.795645	2.506450	-0.000296
1508	1.4995e+02	-9.9792	-58.835198	-0.000263	-2.634841	-0.446354	-0.000053
1509	1.5005e+02	-9.9600	-58.944200	-0.000547	-5.472362	-0.927043	-0.000110
1510	1.5015e+02	-9.9393	-59.012832	-0.000345	-3.445561	-0.583694	-0.000069
1511	1.5025e+02	-9.9196	-59.105686	-0.000466	-4.661641	-0.789703	-0.000093
1512	1.5034e+02	-9.8994	-59.162206	-0.000284	-2.837521	-0.480689	-0.000057
1513	1.5044e+02	-9.8792	-59.259097	-0.000486	-4.864322	-0.824038	-0.000097
1514	1.5054e+02	-9.8608	-59.331765	-0.000365	-3.648241	-0.618029	-0.000073
1515	1.5064e+02	-9.8398	-59.380211	-0.000243	-2.432161	-0.412019	-0.000049
1516	1.5074e+02	-9.8204	-59.408471	-0.000142	-1.418760	-0.240345	-0.000028
1517	1.5084e+02	-9.8009	-59.469028	-0.000304	-3.040201	-0.515024	-0.000061
1518	1.5094e+02	-9.7808	-59.493251	-0.000122	-1.216080	-0.206010	-0.000024
1519	1.5104e+02	-9.7607	-59.537659	-0.000223	-2.229481	-0.377684	-0.000045
1520	1.5114e+02	-9.7398	-59.622439	-0.000426	-4.256281	-0.721034	-0.000085
1521	1.5124e+02	-9.7195	-59.658773	-0.000182	-1.824121	-0.309014	-0.000037
1522	1.5134e+02	-9.7005	-59.670885	-0.000061	-0.608040	-0.103005	-0.000012
1523	1.5144e+02	-9.6809	-59.727405	-0.000284	-2.837521	-0.480689	-0.000057
1524	1.5154e+02	-9.6617	-59.739516	-0.000061	-0.608040	-0.103005	-0.000012
1525	1.5164e+02	-9.6408	-59.783925	-0.000223	-2.229481	-0.377684	-0.000045
1526	1.5174e+02	-9.6210	-59.808147	-0.000122	-1.216080	-0.206010	-0.000024
1527	1.5184e+02	-9.5996	-59.832370	-0.000122	-1.216080	-0.206010	-0.000024
1528	1.5194e+02	-9.5815	-59.848519	-0.000081	-0.810720	-0.137340	-0.000016
1529	1.5204e+02	-9.5615	-59.868704	-0.000101	-1.013400	-0.171675	-0.000020
1530	1.5214e+02	-9.5410	-59.901002	-0.000162	-1.621441	-0.274679	-0.000032
1531	1.5224e+02	-9.5215	-59.905039	-0.000020	-0.202680	-0.034335	-0.000004
1532	1.5233e+02	-9.5016	-59.925224	-0.000101	-1.013400	-0.171675	-0.000020
1533	1.5243e+02	-9.4803	-59.917150	0.000041	0.405360	0.068670	0.000008
1534	1.5253e+02	-9.4614	-59.969633	-0.000263	-2.634841	-0.446354	-0.000053
1535	1.5263e+02	-9.4428	-59.957521	0.000061	0.608040	0.103005	0.000012
1536	1.5273e+02	-9.4223	-59.953484	0.000020	0.202680	0.034335	0.000004
1537	1.5283e+02	-9.4016	-59.941373	0.000061	0.608040	0.103005	0.000012
1538	1.5293e+02	-9.3823	-59.933299	0.000041	0.405360	0.068670	0.000008
1539	1.5303e+02	-9.3613	-59.993856	-0.000304	-3.040201	-0.515024	-0.000061
1540	1.5313e+02	-9.3414	-59.937336	0.000284	2.837521	0.480689	0.000057
1541	1.5323e+02	-9.3225	-59.945410	-0.000041	-0.405360	-0.068670	-0.000008
1542	1.5333e+02	-9.3027	-59.945410	0.000000	0.000000	0.000000	0.000000
1543	1.5343e+02	-9.2833	-59.921187	0.000122	1.216080	0.206010	0.000024
1544	1.5353e+02	-9.2616	-59.929261	-0.000041	-0.405360	-0.068670	-0.000008
1545	1.5363e+02	-9.2427	-59.901002	0.000142	1.418760	0.240345	0.000028
1546	1.5373e+02	-9.2231	-59.880816	0.000101	1.013400	0.171675	0.000020
1547	1.5383e+02	-9.2029	-59.880816	0.000000	0.000000	0.000000	0.000000
1548	1.5393e+02	-9.1818	-59.896964	-0.000081	-0.810720	-0.137340	-0.000016
1549	1.5403e+02	-9.1637	-59.888890	0.000041	0.405360	0.068670	0.000008
1550	1.5413e+02	-9.1429	-59.844482	0.000223	2.229481	0.377684	0.000045
1551	1.5422e+02	-9.1229	-59.828333	0.000081	0.810720	0.137340	0.000016
1552	1.5432e+02	-9.1022	-59.808147	0.000101	1.013400	0.171675	0.000020
1553	1.5442e+02	-9.0834	-59.808147	0.000000	0.000000	0.000000	0.000000
1554	1.5452e+02	-9.0631	-59.739516	0.000345	3.445561	0.583694	0.000069
1555	1.5462e+02	-9.0440	-59.759702	-0.000101	-1.013400	-0.171675	-0.000020
1556	1.5472e+02	-9.0237	-59.682996	0.000385	3.850921	0.652364	0.000077
1557	1.5482e+02	-9.0038	-59.719330	-0.000182	-1.824121	-0.309014	-0.000037
1558	1.5492e+02	-8.9830	-59.678959	0.000203	2.026801	0.343349	0.000041
1559	1.5502e+02	-8.9629	-59.630513	0.000243	2.432161	0.412019	0.000049
1560	1.5512e+02	-8.9433	-59.618402	0.000061	0.608040	0.103005	0.000012
1561	1.5522e+02	-8.9240	-59.606291	0.000061	0.608040	0.103005	0.000012
1562	1.5532e+02	-8.9038	-59.541696	0.000324	3.242881	0.549359	0.000065
1563	1.5542e+02	-8.8837	-59.517474	0.000122	1.216080	0.206010	0.000024
1564	1.5552e+02	-8.8645	-59.489214	0.000142	1.418760	0.240345	0.000028
1565	1.5562e+02	-8.8443	-59.505362	-0.000081	-0.810720	-0.137340	-0.000016
1566	1.5572e+02	-8.8239	-59.436731	0.000345	3.445561	0.583694	0.000069
1567	1.5582e+02	-8.8040	-59.400397	0.000182	1.824121	0.309014	0.000037
1568	1.5592e+02	-8.7836	-59.388285	0.000061	0.608040	0.103005	0.000012
1569	1.5602e+02	-8.7646	-59.343877	0.000223	2.229481	0.377684	0.000045
1570	1.5612e+02	-8.7447	-59.311580	0.000162	1.621441	0.274679	0.000032
1571	1.5622e+02	-8.7241	-59.251023	0.000304	3.040201	0.515024	0.000061
1572	1.5631e+02	-8.7044	-59.214688	0.000182	1.824121	0.309014	0.000037
1573	1.5641e+02	-8.6861	-59.178354	0.000182	1.824121	0.309014	0.000037
1574	1.5651e+02	-8.6658	-59.150094	0.000142	1.418760	0.240345	0.000028
1575	1.5661e+02	-8.6438	-59.117797	0.000162	1.621441	0.274679	0.000032
1576	1.5671e+02	-8.6259	-59.101649	0.000081	0.810720	0.137340	0.000016
1577	1.5681e+02	-8.6053	-59.045129	0.000284	2.837521	0.480689	0.000057
1578	1.5691e+02	-8.5852	-58.992646	0.000263	2.634841	0.446354	0.000053
1579	1.5701e+02	-8.5651	-58.948237	0.000223	2.229481	0.377684	0.000045
1580	1.5711e+02	-8.5452	-58.883643	0.000324	3.242881	0.549359	0.000065
1581	1.5721e+02	-8.5260	-58.883643	0.000000	0.000000	0.000000	0.000000
1582	1.5731e+02	-8.5052	-58.859420	0.000122	1.216080	0.206010	0.000024
1583	1.5741e+02	-8.4853	-58.802901	0.000284	2.837521	0.480689	0.000057
1584	1.5751e+02	-8.4659	-58.742344	0.000304	3.040201	0.515024	0.000061
1585	1.5761e+02	-8.4451	-58.669675	0.000365	3.648241	0.618029	0.000073
1586	1.5771e+02	-8.4258	-58.629304	0.000203	2.026801	0.343349	0.000041
1587	1.5781e+02	-8.4059	-58.544524	0.000426	4.256281	0.721034	0.000085
1588	1.5791e+02	-8.3862	-58.548561	-0.000020	-0.202680	-0.034335	-0.000004
1589	1.5801e+02	-8.3661	-58.500115	0.000243	2.432161	0.412019	0.000049
1590	1.5811e+02	-8.3463	-58.427447	0.000365	3.648241	0.618029	0.000073
1591	1.5821e+02	-8.3264	-58.399187	0.000142	1.418760	0.240345	0.000028
1592	1.5830e+02	-8.3057	-58.338630	0.000304	3.040201	0.515024	0.000061
1593	1.5840e+02	-8.2856	-58.265962	0.000365	3.648241	0.618029	0.000073
1594	1.5850e+02	-8.2663	-58.245776	0.000101	1.013400	0.171675	0.000020
1595	1.5860e+02	-8.2466	-58.185219	0.000304	3.040201	0.515024	0.000061
1596	1.5870e+02	-8.2270	-58.136773	0.000243	2.432161	0.412019	0.000049
1597	1.5880e+02	-8.2066	-58.076216	0.000304	3.040201	0.515024	0.000061
1598	1.5890e+02	-8.1860	-58.031808	0.000223	2.229481	0.377684	0.000045
1599	1.5900e+02	-8.1664	-57.971251	0.000304	3.040201	0.515024	0.000061
1600	1.5910e+02	-8.1471	-57.878397	0.000466	4.661641	0.789703	0.000093
1601	1.5920e+02	-8.1267	-57.878397	0.000000	0.000000	0.000000	0.000000
1602	1.5930e+02	-8.1067	-57.797654	0.000405	4.053601	0.686699	0.000081
1603	1.5940e+02	-8.0879	-57.745171	0.000263	2.634841	0.446354	0.000053
1604	1.5950e+02	-8.0676	-57.672503	0.000365	3.648241	0.618029	0.000073
1605	1.5960e+02	-8.0478	-57.628094	0.000223	2.229481	0.377684	0.000045
1606	1.5970e+02	-8.0273	-57.555426	0.000365	3.648241	0.618029	0.000073
1607	1.5980e+02	-8.0078	-57.506980	0.000243	2.432161	0.412019	0.000049
1608	1.5990e+02	-7.9881	-57.426237	0.000405	4.053601	0.686699	0.000081
1609	1.6000e+02	-7.9674	-57.349532	0.000385	3.850921	0.652364	0.000077
1610	1.6010e+02	-7.9479	-57.313198	0.000182	1.824121	0.309014	0.000037
1611	1.6019e+02	-7.9285	-57.220343	0.000466	4.661641	0.789703	0.000093
1612	1.6029e+02	-7.9083	-57.167861	0.000263	2.634841	0.446354	0.000053
1613	1.6039e+02	-7.8879	-57.107304	0.000304	3.040201	0.515024	0.000061
1614	1.6049e+02	-7.8677	-57.022524	0.000426	4.256281	0.721034	0.000085
1615	1.6059e+02	-7.8473	-57.010412	0.000061	0.608040	0.103005	0.000012
1616	1.6069e+02	-7.8287	-56.913521	0.000486	4.864322	0.824038	0.000097
1617	1.6079e+02	-7.8087	-56.852964	0.000304	3.040201	0.515024	0.000061
1618	1.6089e+02	-7.7881	-56.800481	0.000263	2.634841	0.446354	0.000053
1619	1.6099e+02	-7.7686	-56.747999	0.000263	2.634841	0.446354	0.000053
1620	1.6109e+02	-7.7478	-56.663219	0.000426	4.256281	0.721034	0.000085
1621	1.6119e+02	-7.7277	-56.598624	0.000324	3.242881	0.549359	0.000065
1622	1.6129e+02	-7.7087	-56.542105	0.000284	2.837521	0.480689	0.000057
1623	1.6139e+02	-7.6891	-56.465399	0.000385	3.850921	0.652364	0.000077
1624	1.6149e+02	-7.6688	-56.449250	0.000081	0.810720	0.137340	0.000016
1625	1.6159e+02	-7.6483	-56.344285	0.000527	5.269682	0.892708	0.000105
1626	1.6169e+02	-7.6292	-56.287765	0.000284	2.837521	0.480689	0.000057
1627	1.6179e+02	-7.6083	-56.219134	0.000345	3.445561	0.583694	0.000069
1628	1.6189e+02	-7.5900	-56.146465	0.000365	3.648241	0.618029	0.000073
1629	1.6199e+02	-7.5693	-56.057648	0.000446	4.458961	0.755369	0.000089
1630	1.6209e+02	-7.5497	-55.993054	0.000324	3.242881	0.549359	0.000065
1631	1.6219e+02	-7.5304	-55.916349	0.000385	3.850921	0.652364	0.000077
1632	1.6228e+02	-7.5104	-55.880014	0.000182	1.824121	0.309014	0.000037
1633	1.6238e+02	-7.4908	-55.807346	0.000365	3.648241	0.618029	0.000073
1634	1.6248e+02	-7.4697	-55.686232	0.000608	6.080402	1.030048	0.000122
1635	1.6258e+02	-7.4493	-55.674120	0.000061	0.608040	0.103005	0.000012
1636	1.6268e+02	-7.4307	-55.653935	0.000101	1.013400	0.171675	0.000020
1637	1.6278e+02	-7.4100	-55.536858	0.000588	5.877722	0.995713	0.000118
1638	1.6288e+02	-7.3901	-55.456115	0.000405	4.053601	0.686699	0.000081
1639	1.6298e+02	-7.3698	-55.415744	0.000203	2.026801	0.343349	0.000041
1640	1.6308e+02	-7.3509	-55.318852	0.000486	4.864322	0.824038	0.000097
1641	1.6318e+02	-7.3315	-55.234073	0.000426	4.256281	0.721034	0.000085
1642	1.6328e+02	-7.3105	-55.201776	0.000162	1.621441	0.274679	0.000032
1643	1.6338e+02	-7.2906	-55.096810	0.000527	5.269682	0.892708	0.000105
1644	1.6348e+02	-7.2711	-55.028179	0.000345	3.445561	0.583694	0.000069
1645	1.6358e+02	-7.2516	-54.991844	0.000182	1.824121	0.309014	0.000037
1646	1.6368e+02	-7.2313	-54.907065	0.000426	4.256281	0.721034	0.000085
1647	1.6378e+02	-7.2119	-54.818248	0.000446	4.458961	0.755369	0.000089
1648	1.6388e+02	-7.1920	-54.765765	0.000263	2.634841	0.446354	0.000053
1649	1.6398e+02	-7.1710	-54.689059	0.000385	3.850921	0.652364	0.000077
1650	1.6408e+02	-7.1519	-54.600242	0.000446	4.458961	0.755369	0.000089
1651	1.6418e+02	-7.1313	-54.571982	0.000142	1.418760	0.240345	0.000028
1652	1.6427e+02	-7.1120	-54.454905	0.000588	5.877722	0.995713	0.000118
1653	1.6437e+02	-7.0920	-54.402423	0.000263	2.634841	0.446354	0.000053
1654	1.6447e+02	-7.0712	-54.289383	0.000568	5.675042	0.961378	0.000114
1655	1.6457e+02	-7.0518	-54.228826	0.000304	3.040201	0.515024	0.000061
1656	1.6467e+02	-7.0322	-54.152120	0.000385	3.850921	0.652364	0.000077
1657	1.6477e+02	-7.0117	-54.107712	0.000223	2.229481	0.377684	0.000045
1658	1.6487e+02	-6.9923	-54.014858	0.000466	4.661641	0.789703	0.000093
1659	1.6497e+02	-6.9724	-53.934115	0.000405	4.053601	0.686699	0.000081
1660	1.6507e+02	-6.9528	-53.877595	0.000284	2.837521	0.480689	0.000057
1661	1.6517e+02	-6.9331	-53.800889	0.000385	3.850921	0.652364	0.000077
1662	1.6527e+02	-6.9131	-53.728221	0.000365	3.648241	0.618029	0.000073
1663	1.6537e+02	-6.8927	-53.619218	0.000547	5.472362	0.927043	0.000110
1664	1.6547e+02	-6.8725	-53.546550	0.000365	3.648241	0.618029	0.000073
1665	1.6557e+02	-6.8526	-53.433510	0.000568	5.675042	0.961378	0.000114
1666	1.6567e+02	-6.8327	-53.389102	0.000223	2.229481	0.377684	0.000045
1667	1.6577e+02	-6.8121	-53.320470	0.000345	3.445561	0.583694	0.000069
1668	1.6587e+02	-6.7929	-53.243765	0.000385	3.850921	0.652364	0.000077
1669	1.6597e+02	-6.7725	-53.179171	0.000324	3.242881	0.549359	0.000065
1670	1.6607e+02	-6.7532	-53.062094	0.000588	5.877722	0.995713	0.000118
1671	1.6616e+02	-6.7334	-52.997499	0.000324	3.242881	0.549359	0.000065
1672	1.6626e+02	-6.7130	-52.916757	0.000405	4.053601	0.686699	0.000081
1673	1.6636e+02	-6.6928	-52.860237	0.000284	2.837521	0.480689	0.000057
1674	1.6646e+02	-6.6730	-52.775457	0.000426	4.256281	0.721034	0.000085
1675	1.6656e+02	-6.6521	-52.706826	0.000345	3.445561	0.583694	0.000069
1676	1.6666e+02	-6.6330	-52.597823	0.000547	5.472362	0.927043	0.000110
1677	1.6676e+02	-6.6132	-52.541303	0.000284	2.837521	0.480689	0.000057
1678	1.6686e+02	-6.5932	-52.472672	0.000345	3.445561	0.583694	0.000069
1679	1.6696e+02	-6.5739	-52.387892	0.000426	4.256281	0.721034	0.000085
1680	1.6706e+02	-6.5532	-52.315223	0.000365	3.648241	0.618029	0.000073
1681	1.6716e+02	-6.5332	-52.206221	0.000547	5.472362	0.927043	0.000110
1682	1.6726e+02	-6.5146	-52.186035	0.000101	1.013400	0.171675	0.000020
1683	1.6736e+02	-6.4936	-52.113367	0.000365	3.648241	0.618029	0.000073
1684	1.6746e+02	-6.4741	-51.988215	0.000628	6.283082	1.064383	0.000126
1685	1.6756e+02	-6.4545	-51.935733	0.000263	2.634841	0.446354	0.000053
1686	1.6766e+02	-6.4342	-51.859027	0.000385	3.850921	0.652364	0.000077
1687	1.6776e+02	-6.4136	-51.802507	0.000284	2.837521	0.480689	0.000057
1688	1.6786e+02	-6.3939	-51.721765	0.000405	4.053601	0.686699	0.000081
1689	1.6796e+02	-6.3739	-51.612762	0.000547	5.472362	0.927043	0.000110
1690	1.6806e+02	-6.3545	-51.519908	0.000466	4.661641	0.789703	0.000093
1691	1.6816e+02	-6.3345	-51.451276	0.000345	3.445561	0.583694	0.000069
1692	1.6825e+02	-6.3145	-51.414942	0.000182	1.824121	0.309014	0.000037
1693	1.6835e+02	-6.2955	-51.314014	0.000507	5.067002	0.858373	0.000101
1694	1.6845e+02	-6.2750	-51.245382	0.000345	3.445561	0.583694	0.000069
1695	1.6855e+02	-6.2553	-51.168677	0.000385	3.850921	0.652364	0.000077
1696	1.6865e+02	-6.2344	-51.067749	0.000507	5.067002	0.858373	0.000101
1697	1.6875e+02	-6.2155	-50.995080	0.000365	3.648241	0.618029	0.000073
1698	1.6885e+02	-6.1954	-50.930486	0.000324	3.242881	0.549359	0.000065
1699	1.6895e+02	-6.1745	-50.849743	0.000405	4.053601	0.686699	0.000081
1700	1.6905e+02	-6.1563	-50.748815	0.000507	5.067002	0.858373	0.000101
1701	1.6915e+02	-6.1350	-50.659998	0.000446	4.458961	0.755369	0.000089
1702	1.6925e+02	-6.1145	-50.607515	0.000263	2.634841	0.446354	0.000053
1703	1.6935e+02	-6.0947	-50.526772	0.000405	4.053601	0.686699	0.000081
1704	1.6945e+02	-6.0751	-50.433918	0.000466	4.661641	0.789703	0.000093
1705	1.6955e+02	-6.0559	-50.320878	0.000568	5.675042	0.961378	0.000114
1706	1.6965e+02	-6.0367	-50.203801	0.000588	5.877722	0.995713	0.000118
1707	1.6975e+02	-6.0159	-50.171504	0.000162	1.621441	0.274679	0.000032
1708	1.6985e+02	-5.9972	-50.074613	0.000486	4.864322	0.824038	0.000097
1709	1.6995e+02	-5.9760	-50.014056	0.000304	3.040201	0.515024	0.000061
1710	1.7005e+02	-5.9566	-49.925239	0.000446	4.458961	0.755369	0.000089
1711	1.7015e+02	-5.9358	-49.800088	0.000628	6.283082	1.064383	0.000126
1712	1.7024e+02	-5.9160	-49.743568	0.000284	2.837521	0.480689	0.000057
1713	1.7034e+02	-5.8957	-49.650714	0.000466	4.661641	0.789703	0.000093
1714	1.7044e+02	-5.8762	-49.598231	0.000263	2.634841	0.446354	0.000053
1715	1.7054e+02	-5.8568	-49.485191	0.000568	5.675042	0.961378	0.000114
1716	1.7064e+02	-5.8372	-49.424634	0.000304	3.040201	0.515024	0.000061
1717	1.7074e+02	-5.8165	-49.323706	0.000507	5.067002	0.858373	0.000101
1718	1.7084e+02	-5.7959	-49.218740	0.000527	5.269682	0.892708	0.000105
1719	1.7094e+02	-5.7762	-49.186443	0.000162	1.621441	0.274679	0.000032
1720	1.7104e+02	-5.7558	-49.081478	0.000527	5.269682	0.892708	0.000105
1721	1.7114e+02	-5.7370	-48.968438	0.000568	5.675042	0.961378	0.000114
1722	1.7124e+02	-5.7164	-48.919992	0.000243	2.432161	0.412019	0.000049
1723	1.7134e+02	-5.6963	-48.835212	0.000426	4.256281	0.721034	0.000085
1724	1.7144e+02	-5.6769	-48.738321	0.000486	4.864322	0.824038	0.000097
1725	1.7154e+02	-5.6570	-48.669690	0.000345	3.445561	0.583694	0.000069
1726	1.7164e+02	-5.6366	-48.556650	0.000568	5.675042	0.961378	0.000114
1727	1.7174e+02	-5.6184	-48.439573	0.000588	5.877722	0.995713	0.000118
1728	1.7184e+02	-5.5969	-48.354793	0.000426	4.256281	0.721034	0.000085
1729	1.7194e+02	-5.5762	-48.298273	0.000284	2.837521	0.480689	0.000057
1730	1.7204e+02	-5.5566	-48.197345	0.000507	5.067002	0.858373	0.000101
1731	1.7213e+02	-5.5379	-48.084305	0.000568	5.675042	0.961378	0.000114
1732	1.7223e+02	-5.5174	-48.019711	0.000324	3.242881	0.549359	0.000065
1733	1.7233e+02	-5.4985	-47.906671	0.000568	5.675042	0.961378	0.000114
1734	1.7243e+02	-5.4787	-47.829966	0.000385	3.850921	0.652364	0.000077
1735	1.7253e+02	-5.4576	-47.741149	0.000446	4.458961	0.755369	0.000089
1736	1.7263e+02	-5.4385	-47.660406	0.000405	4.053601	0.686699	0.000081
1737	1.7273e+02	-5.4181	-47.563515	0.000486	4.864322	0.824038	0.000097
1738	1.7283e+02	-5.3978	-47.474698	0.000446	4.458961	0.755369	0.000089
1739	1.7293e+02	-5.3783	-47.381844	0.000466	4.661641	0.789703	0.000093
1740	1.7303e+02	-5.3580	-47.280915	0.000507	5.067002	0.858373	0.000101
1741	1.7313e+02	-5.3379	-47.175950	0.000527	5.269682	0.892708	0.000105
1742	1.7323e+02	-5.3188	-47.151727	0.000122	1.216080	0.206010	0.000024
1743	1.7333e+02	-5.2980	-47.046761	0.000527	5.269682	0.892708	0.000105
1744	1.7343e+02	-5.2780	-46.974093	0.000365	3.648241	0.618029	0.000073
1745	1.7353e+02	-5.2577	-46.832793	0.000709	7.093802	1.201723	0.000142
1746	1.7363e+02	-5.2390	-46.792422	0.000203	2.026801	0.343349	0.000041
1747	1.7373e+02	-5.2188	-46.711679	0.000405	4.053601	0.686699	0.000081
1748	1.7383e+02	-5.1984	-46.578454	0.000669	6.688442	1.133053	0.000134
1749	1.7393e+02	-5.1782	-46.497711	0.000405	4.053601	0.686699	0.000081
1750	1.7403e+02	-5.1590	-46.388708	0.000547	5.472362	0.927043	0.000110
1751	1.7413e+02	-5.1379	-46.316040	0.000365	3.648241	0.618029	0.000073
1752	1.7422e+02	-5.1189	-46.182814	0.000669	6.688442	1.133053	0.000134
1753	1.7432e+02	-5.0989	-46.142443	0.000203	2.026801	0.343349	0.000041
1754	1.7442e+02	-5.0790	-46.009217	0.000669	6.688442	1.133053	0.000134
1755	1.7452e+02	-5.0591	-45.944623	0.000324	3.242881	0.549359	0.000065
1756	1.7462e+02	-5.0394	-45.819472	0.000628	6.283082	1.064383	0.000126
1757	1.7472e+02	-5.0194	-45.746804	0.000365	3.648241	0.618029	0.000073
1758	1.7482e+02	-4.9991	-45.613578	0.000669	6.688442	1.133053	0.000134
1759	1.7492e+02	-4.9798	-45.544947	0.000345	3.445561	0.583694	0.000069
1760	1.7502e+02	-4.9596	-45.435944	0.000547	5.472362	0.927043	0.000110
1761	1.7512e+02	-4.9406	-45.355201	0.000405	4.053601	0.686699	0.000081
1762	1.7522e+02	-4.9207	-45.242162	0.000568	5.675042	0.961378	0.000114
1763	1.7532e+02	-4.9007	-45.169493	0.000365	3.648241	0.618029	0.000073
1764	1.7542e+02	-4.8801	-45.072602	0.000486	4.864322	0.824038	0.000097
1765	1.7552e+02	-4.8604	-44.987822	0.000426	4.256281	0.721034	0.000085
1766	1.7562e+02	-4.8404	-44.899005	0.000446	4.458961	0.755369	0.000089
1767	1.7572e+02	-4.8207	-44.781928	0.000588	5.877722	0.995713	0.000118
1768	1.7582e+02	-4.8001	-44.672926	0.000547	5.472362	0.927043	0.000110
1769	1.7592e+02	-4.7804	-44.563923	0.000547	5.472362	0.927043	0.000110
1770	1.7602e+02	-4.7604	-44.479143	0.000426	4.256281	0.721034	0.000085
1771	1.7612e+02	-4.7408	-44.370140	0.000547	5.472362	0.927043	0.000110
1772	1.7621e+02	-4.7210	-44.265175	0.000527	5.269682	0.892708	0.000105
1773	1.7631e+02	-4.7009	-44.180395	0.000426	4.256281	0.721034	0.000085
1774	1.7641e+02	-4.6808	-44.075429	0.000527	5.269682	0.892708	0.000105
1775	1.7651e+02	-4.6609	-43.978538	0.000486	4.864322	0.824038	0.000097
1776	1.7661e+02	-4.6410	-43.901833	0.000385	3.850921	0.652364	0.000077
1777	1.7671e+02	-4.6213	-43.760533	0.000709	7.093802	1.201723	0.000142
1778	1.7681e+02	-4.6008	-43.704013	0.000284	2.837521	0.480689	0.000057
1779	1.7691e+02	-4.5810	-43.574825	0.000649	6.485762	1.098718	0.000130
1780	1.7701e+02	-4.5618	-43.437562	0.000689	6.891122	1.167388	0.000138
1781	1.7711e+02	-4.5409	-43.389116	0.000243	2.432161	0.412019	0.000049
1782	1.7721e+02	-4.5210	-43.312411	0.000385	3.850921	0.652364	0.000077
1783	1.7731e+02	-4.5015	-43.154962	0.000790	7.904522	1.339062	0.000158
1784	1.7741e+02	-4.4823	-43.045960	0.000547	5.472362	0.927043	0.000110
1785	1.7751e+02	-4.4617	-42.928883	0.000588	5.877722	0.995713	0.000118
1786	1.7761e+02	-4.4418	-42.860252	0.000345	3.445561	0.583694	0.000069
1787	1.7771e+02	-4.4215	-42.803732	0.000284	2.837521	0.480689	0.000057
1788	1.7781e+02	-4.4018	-42.674543	0.000649	6.485762	1.098718	0.000130
1789	1.7791e+02	-4.3813	-42.565541	0.000547	5.472362	0.927043	0.000110
1790	1.7801e+02	-4.3621	-42.468649	0.000486	4.864322	0.824038	0.000097
1791	1.7810e+02	-4.3425	-42.339461	0.000649	6.485762	1.098718	0.000130
1792	1.7820e+02	-4.3214	-42.254681	0.000426	4.256281	0.721034	0.000085
1793	1.7830e+02	-4.3019	-42.109344	0.000730	7.296482	1.236058	0.000146
1794	1.7840e+02	-4.2825	-42.060899	0.000243	2.432161	0.412019	0.000049
1795	1.7850e+02	-4.2613	-41.935747	0.000628	6.283082	1.064383	0.000126
1796	1.7860e+02	-4.2435	-41.842893	0.000466	4.661641	0.789703	0.000093
1797	1.7870e+02	-4.2223	-41.746002	0.000486	4.864322	0.824038	0.000097
1798	1.7880e+02	-4.2023	-41.657185	0.000446	4.458961	0.755369	0.000089
1799	1.7890e+02	-4.1820	-41.544145	0.000568	5.675042	0.961378	0.000114
1800	1.7900e+02	-4.1631	-41.435143	0.000547	5.472362	0.927043	0.000110
1801	1.7910e+02	-4.1425	-41.342289	0.000466	4.661641	0.789703	0.000093
1802	1.7920e+02	-4.1232	-41.241360	0.000507	5.067002	0.858373	0.000101
1803	1.7930e+02	-4.1029	-41.116209	0.000628	6.283082	1.064383	0.000126
1804	1.7940e+02	-4.0831	-41.027392	0.000446	4.458961	0.755369	0.000089
1805	1.7950e+02	-4.0624	-40.930501	0.000486	4.864322	0.824038	0.000097
1806	1.7960e+02	-4.0430	-40.825535	0.000527	5.269682	0.892708	0.000105
1807	1.7970e+02	-4.0227	-40.704421	0.000608	6.080402	1.030048	0.000122
1808	1.7980e+02	-4.0036	-40.639827	0.000324	3.242881	0.549359	0.000065
1809	1.7990e+02	-3.9835	-40.482379	0.000790	7.904522	1.339062	0.000158
1810	1.8000e+02	-3.9632	-40.377413	0.000527	5.269682	0.892708	0.000105
1811	1.8009e+02	-3.9435	-40.296670	0.000405	4.053601	0.686699	0.000081
1812	1.8019e+02	-3.9261	-40.175556	0.000608	6.080402	1.030048	0.000122
1813	1.8029e+02	-3.9037	-40.114999	0.000304	3.040201	0.515024	0.000061
1814	1.8039e+02	-3.8843	-39.993885	0.000608	6.080402	1.030048	0.000122
1815	1.8049e+02	-3.8638	-39.892957	0.000507	5.067002	0.858373	0.000101
1816	1.8059e+02	-3.8435	-39.783954	0.000547	5.472362	0.927043	0.000110
1817	1.8069e+02	-3.8241	-39.658803	0.000628	6.283082	1.064383	0.000126
1818	1.8079e+02	-3.8031	-39.525577	0.000669	6.688442	1.133053	0.000134
1819	1.8089e+02	-3.7846	-39.465020	0.000304	3.040201	0.515024	0.000061
1820	1.8099e+02	-3.7648	-39.368129	0.000486	4.864322	0.824038	0.000097
1821	1.8109e+02	-3.7447	-39.247015	0.000608	6.080402	1.030048	0.000122
1822	1.8119e+02	-3.7252	-39.129938	0.000588	5.877722	0.995713	0.000118
1823	1.8129e+02	-3.7048	-39.020935	0.000547	5.472362	0.927043	0.000110
1824	1.8139e+02	-3.6849	-38.920007	0.000507	5.067002	0.858373	0.000101
1825	1.8149e+02	-3.6652	-38.827153	0.000466	4.661641	0.789703	0.000093
1826	1.8159e+02	-3.6445	-38.726225	0.000507	5.067002	0.858373	0.000101
1827	1.8169e+02	-3.6252	-38.609148	0.000588	5.877722	0.995713	0.000118
1828	1.8179e+02	-3.6050	-38.492071	0.000588	5.877722	0.995713	0.000118
1829	1.8189e+02	-3.5849	-38.379031	0.000568	5.675042	0.961378	0.000114
1830	1.8199e+02	-3.5651	-38.286177	0.000466	4.661641	0.789703	0.000093
1831	1.8209e+02	-3.5451	-38.185248	0.000507	5.067002	0.858373	0.000101
1832	1.8218e+02	-3.5251	-38.047986	0.000689	6.891122	1.167388	0.000138
1833	1.8228e+02	-3.5051	-37.934946	0.000568	5.675042	0.961378	0.000114
1834	1.8238e+02	-3.4851	-37.821906	0.000568	5.675042	0.961378	0.000114
1835	1.8248e+02	-3.4657	-37.729052	0.000466	4.661641	0.789703	0.000093
1836	1.8258e+02	-3.4460	-37.611975	0.000588	5.877722	0.995713	0.000118
1837	1.8268e+02	-3.4259	-37.470675	0.000709	7.093802	1.201723	0.000142
1838	1.8278e+02	-3.4058	-37.385896	0.000426	4.256281	0.721034	0.000085
1839	1.8288e+02	-3.3864	-37.297079	0.000446	4.458961	0.755369	0.000089
1840	1.8298e+02	-3.3656	-37.192113	0.000527	5.269682	0.892708	0.000105
1841	1.8308e+02	-3.3463	-37.083110	0.000547	5.472362	0.927043	0.000110
1842	1.8318e+02	-3.3264	-36.966033	0.000588	5.877722	0.995713	0.000118
1843	1.8328e+02	-3.3078	-36.865105	0.000507	5.067002	0.858373	0.000101
1844	1.8338e+02	-3.2864	-36.764177	0.000507	5.067002	0.858373	0.000101
1845	1.8348e+02	-3.2654	-36.630951	0.000669	6.688442	1.133053	0.000134
1846	1.8358e+02	-3.2458	-36.558283	0.000365	3.648241	0.618029	0.000073
1847	1.8368e+02	-3.2265	-36.412946	0.000730	7.296482	1.236058	0.000146
1848	1.8378e+02	-3.2070	-36.348352	0.000324	3.242881	0.549359	0.000065
1849	1.8388e+02	-3.1851	-36.211089	0.000689	6.891122	1.167388	0.000138
1850	1.8398e+02	-3.1659	-36.085938	0.000628	6.283082	1.064383	0.000126
1851	1.8407e+02	-3.1469	-35.976935	0.000547	5.472362	0.927043	0.000110
1852	1.8417e+02	-3.1261	-35.843710	0.000669	6.688442	1.133053	0.000134
1853	1.8427e+02	-3.1074	-35.803338	0.000203	2.026801	0.343349	0.000041
1854	1.8437e+02	-3.0875	-35.682224	0.000608	6.080402	1.030048	0.000122
1855	1.8447e+02	-3.0669	-35.577259	0.000527	5.269682	0.892708	0.000105
1856	1.8457e+02	-3.0469	-35.480367	0.000486	4.864322	0.824038	0.000097
1857	1.8467e+02	-3.0265	-35.314845	0.000831	8.309883	1.407732	0.000166
1858	1.8477e+02	-3.0078	-35.226028	0.000446	4.458961	0.755369	0.000089
1859	1.8487e+02	-2.9860	-35.068580	0.000790	7.904522	1.339062	0.000158
1860	1.8497e+02	-2.9671	-35.008023	0.000304	3.040201	0.515024	0.000061
1861	1.8507e+02	-2.9474	-34.907094	0.000507	5.067002	0.858373	0.000101
1862	1.8517e+02	-2.9279	-34.798091	0.000547	5.472362	0.927043	0.000110
1863	1.8527e+02	-2.9071	-34.689089	0.000547	5.472362	0.927043	0.000110
1864	1.8537e+02	-2.8874	-34.539715	0.000750	7.499162	1.270392	0.000150
1865	1.8547e+02	-2.8671	-34.450898	0.000446	4.458961	0.755369	0.000089
1866	1.8557e+02	-2.8468	-34.337858	0.000568	5.675042	0.961378	0.000114
1867	1.8567e+02	-2.8283	-34.224818	0.000568	5.675042	0.961378	0.000114
1868	1.8577e+02	-2.8079	-34.127927	0.000486	4.864322	0.824038	0.000097
1869	1.8587e+02	-2.7876	-33.990664	0.000689	6.891122	1.167388	0.000138
1870	1.8597e+02	-2.7682	-33.877625	0.000568	5.675042	0.961378	0.000114
1871	1.8606e+02	-2.7481	-33.829179	0.000243	2.432161	0.412019	0.000049
1872	1.8616e+02	-2.7282	-33.691916	0.000689	6.891122	1.167388	0.000138
1873	1.8626e+02	-2.7077	-33.554654	0.000689	6.891122	1.167388	0.000138
1874	1.8636e+02	-2.6886	-33.490060	0.000324	3.242881	0.549359	0.000065
1875	1.8646e+02	-2.6691	-33.352797	0.000689	6.891122	1.167388	0.000138
1876	1.8656e+02	-2.6492	-33.255906	0.000486	4.864322	0.824038	0.000097
1877	1.8666e+02	-2.6290	-33.122680	0.000669	6.688442	1.133053	0.000134
1878	1.8676e+02	-2.6074	-33.033863	0.000446	4.458961	0.755369	0.000089
1879	1.8686e+02	-2.5890	-32.888526	0.000730	7.296482	1.236058	0.000146
1880	1.8696e+02	-2.5696	-32.771449	0.000588	5.877722	0.995713	0.000118
1881	1.8706e+02	-2.5485	-32.674558	0.000486	4.864322	0.824038	0.000097
1882	1.8716e+02	-2.5291	-32.565555	0.000547	5.472362	0.927043	0.000110
1883	1.8726e+02	-2.5101	-32.424256	0.000709	7.093802	1.201723	0.000142
1884	1.8736e+02	-2.4902	-32.303142	0.000608	6.080402	1.030048	0.000122
1885	1.8746e+02	-2.4694	-32.218362	0.000426	4.256281	0.721034	0.000085
1886	1.8756e+02	-2.4493	-32.073025	0.000730	7.296482	1.236058	0.000146
1887	1.8766e+02	-2.4290	-32.016505	0.000284	2.837521	0.480689	0.000057
1888	1.8776e+02	-2.4103	-31.895391	0.000608	6.080402	1.030048	0.000122
1889	1.8786e+02	-2.3895	-31.750054	0.000730	7.296482	1.236058	0.000146
1890	1.8796e+02	-2.3703	-31.628940	0.000608	6.080402	1.030048	0.000122
1891	1.8806e+02	-2.3500	-31.528012	0.000507	5.067002	0.858373	0.000101
1892	1.8815e+02	-2.3312	-31.423046	0.000527	5.269682	0.892708	0.000105
1893	1.8825e+02	-2.3102	-31.253486	0.000851	8.512563	1.442067	0.000170
1894	1.8835e+02	-2.2896	-31.124298	0.000649	6.485762	1.098718	0.000130
1895	1.8845e+02	-2.2704	-31.051630	0.000365	3.648241	0.618029	0.000073
1896	1.8855e+02	-2.2504	-30.938590	0.000568	5.675042	0.961378	0.000114
1897	1.8865e+02	-2.2297	-30.821513	0.000588	5.877722	0.995713	0.000118
1898	1.8875e+02	-2.2105	-30.700399	0.000608	6.080402	1.030048	0.000122
1899	1.8885e+02	-2.1902	-30.607545	0.000466	4.661641	0.789703	0.000093
1900	1.8895e+02	-2.1712	-30.466245	0.000709	7.093802	1.201723	0.000142
1901	1.8905e+02	-2.1500	-30.320908	0.000730	7.296482	1.236058	0.000146
1902	1.8915e+02	-2.1306	-30.236128	0.000426	4.256281	0.721034	0.000085
1903	1.8925e+02	-2.1109	-30.110977	0.000628	6.283082	1.064383	0.000126
1904	1.8935e+02	-2.0910	-30.030234	0.000405	4.053601	0.686699	0.000081
1905	1.8945e+02	-2.0708	-29.880860	0.000750	7.499162	1.270392	0.000150
1906	1.8955e+02	-2.0515	-29.771858	0.000547	5.472362	0.927043	0.000110
1907	1.8965e+02	-2.0311	-29.666892	0.000527	5.269682	0.892708	0.000105
1908	1.8975e+02	-2.0110	-29.529629	0.000689	6.891122	1.167388	0.000138
1909	1.8985e+02	-1.9912	-29.400441	0.000649	6.485762	1.098718	0.000130
1910	1.8995e+02	-1.9720	-29.259141	0.000709	7.093802	1.201723	0.000142
1911	1.9004e+02	-1.9514	-29.234918	0.000122	1.216080	0.206010	0.000024
1912	1.9014e+02	-1.9320	-29.085544	0.000750	7.499162	1.270392	0.000150
1913	1.9024e+02	-1.9118	-28.948282	0.000689	6.891122	1.167388	0.000138
1914	1.9034e+02	-1.8910	-28.827168	0.000608	6.080402	1.030048	0.000122
1915	1.9044e+02	-1.8727	-28.730276	0.000486	4.864322	0.824038	0.000097
1916	1.9054e+02	-1.8517	-28.609162	0.000608	6.080402	1.030048	0.000122
1917	1.9064e+02	-1.8320	-28.488048	0.000608	6.080402	1.030048	0.000122
1918	1.9074e+02	-1.8130	-28.358860	0.000649	6.485762	1.098718	0.000130
1919	1.9084e+02	-1.7917	-28.221597	0.000689	6.891122	1.167388	0.000138
1920	1.9094e+02	-1.7715	-28.140855	0.000405	4.053601	0.686699	0.000081
1921	1.9104e+02	-1.7516	-27.991481	0.000750	7.499162	1.270392	0.000150
1922	1.9114e+02	-1.7327	-27.878441	0.000568	5.675042	0.961378	0.000114
1923	1.9124e+02	-1.7126	-27.749252	0.000649	6.485762	1.098718	0.000130
1924	1.9134e+02	-1.6920	-27.628138	0.000608	6.080402	1.030048	0.000122
1925	1.9144e+02	-1.6722	-27.531247	0.000486	4.864322	0.824038	0.000097
1926	1.9154e+02	-1.6525	-27.450504	0.000405	4.053601	0.686699	0.000081
1927	1.9164e+02	-1.6330	-27.309205	0.000709	7.093802	1.201723	0.000142
1928	1.9174e+02	-1.6125	-27.155794	0.000770	7.701842	1.304727	0.000154
1929	1.9184e+02	-1.5927	-27.006420	0.000750	7.499162	1.270392	0.000150
1930	1.9194e+02	-1.5734	-26.929714	0.000385	3.850921	0.652364	0.000077
1931	1.9203e+02	-1.5526	-26.780340	0.000750	7.499162	1.270392	0.000150
1932	1.9213e+02	-1.5338	-26.667300	0.000568	5.675042	0.961378	0.000114
1933	1.9223e+02	-1.5127	-26.534075	0.000669	6.688442	1.133053	0.000134
1934	1.9233e+02	-1.4924	-26.404886	0.000649	6.485762	1.098718	0.000130
1935	1.9243e+02	-1.4718	-26.263587	0.000709	7.093802	1.201723	0.000142
1936	1.9253e+02	-1.4529	-26.158621	0.000527	5.269682	0.892708	0.000105
1937	1.9263e+02	-1.4342	-26.017321	0.000709	7.093802	1.201723	0.000142
1938	1.9273e+02	-1.4132	-25.928504	0.000446	4.458961	0.755369	0.000089
1939	1.9283e+02	-1.3937	-25.754907	0.000872	8.715243	1.476402	0.000174
1940	1.9293e+02	-1.3736	-25.645905	0.000547	5.472362	0.927043	0.000110
1941	1.9303e+02	-1.3532	-25.540939	0.000527	5.269682	0.892708	0.000105
1942	1.9313e+02	-1.3339	-25.415788	0.000628	6.283082	1.064383	0.000126
1943	1.9323e+02	-1.3141	-25.266414	0.000750	7.499162	1.270392	0.000150
1944	1.9333e+02	-1.2936	-25.149337	0.000588	5.877722	0.995713	0.000118
1945	1.9343e+02	-1.2747	-25.044372	0.000527	5.269682	0.892708	0.000105
1946	1.9353e+02	-1.2540	-24.915183	0.000649	6.485762	1.098718	0.000130
1947	1.9363e+02	-1.2343	-24.794069	0.000608	6.080402	1.030048	0.000122
1948	1.9373e+02	-1.2146	-24.681029	0.000568	5.675042	0.961378	0.000114
1949	1.9383e+02	-1.1942	-24.519544	0.000811	8.107203	1.373397	0.000162
1950	1.9393e+02	-1.1752	-24.390356	0.000649	6.485762	1.098718	0.000130
1951	1.9403e+02	-1.1543	-24.285390	0.000527	5.269682	0.892708	0.000105
1952	1.9412e+02	-1.1348	-24.127942	0.000790	7.904522	1.339062	0.000158
1953	1.9422e+02	-1.1137	-24.018939	0.000547	5.472362	0.927043	0.000110
1954	1.9432e+02	-1.0950	-23.913974	0.000527	5.269682	0.892708	0.000105
1955	1.9442e+02	-1.0749	-23.780748	0.000669	6.688442	1.133053	0.000134
1956	1.9452e+02	-1.0555	-23.635411	0.000730	7.296482	1.236058	0.000146
1957	1.9462e+02	-1.0349	-23.498149	0.000689	6.891122	1.167388	0.000138
1958	1.9472e+02	-1.0146	-23.401257	0.000486	4.864322	0.824038	0.000097
1959	1.9482e+02	-0.9950	-23.268032	0.000669	6.688442	1.133053	0.000134
1960	1.9492e+02	-0.9755	-23.122695	0.000730	7.296482	1.236058	0.000146
1961	1.9502e+02	-0.9550	-23.009655	0.000568	5.675042	0.961378	0.000114
1962	1.9512e+02	-0.9348	-22.892578	0.000588	5.877722	0.995713	0.000118
1963	1.9522e+02	-0.9155	-22.787613	0.000527	5.269682	0.892708	0.000105
1964	1.9532e+02	-0.8962	-22.605942	0.000912	9.120603	1.545072	0.000183
1965	1.9542e+02	-0.8763	-22.505013	0.000507	5.067002	0.858373	0.000101
1966	1.9552e+02	-0.8565	-22.396011	0.000547	5.472362	0.927043	0.000110
1967	1.9562e+02	-0.8355	-22.303156	0.000466	4.661641	0.789703	0.000093
1968	1.9572e+02	-0.8167	-22.133597	0.000851	8.512563	1.442067	0.000170
1969	1.9582e+02	-0.7957	-21.964037	0.000851	8.512563	1.442067	0.000170
1970	1.9592e+02	-0.7757	-21.846960	0.000588	5.877722	0.995713	0.000118
1971	1.9601e+02	-0.7568	-21.741995	0.000527	5.269682	0.892708	0.000105
1972	1.9611e+02	-0.7359	-21.600695	0.000709	7.093802	1.201723	0.000142
1973	1.9621e+02	-0.7150	-21.487655	0.000568	5.675042	0.961378	0.000114
1974	1.9631e+02	-0.6964	-21.378652	0.000547	5.472362	0.927043	0.000110
1975	1.9641e+02	-0.6765	-21.265613	0.000568	5.675042	0.961378	0.000114
1976	1.9651e+02	-0.6553	-21.120276	0.000730	7.296482	1.236058	0.000146
1977	1.9661e+02	-0.6372	-20.978976	0.000709	7.093802	1.201723	0.000142
1978	1.9671e+02	-0.6165	-20.865936	0.000568	5.675042	0.961378	0.000114
1979	1.9681e+02	-0.5968	-20.720599	0.000730	7.296482	1.236058	0.000146
1980	1.9691e+02	-0.5769	-20.639856	0.000405	4.053601	0.686699	0.000081
1981	1.9701e+02	-0.5575	-20.474334	0.000831	8.309883	1.407732	0.000166
1982	1.9711e+02	-0.5366	-20.341108	0.000669	6.688442	1.133053	0.000134
1983	1.9721e+02	-0.5174	-20.219994	0.000608	6.080402	1.030048	0.000122
1984	1.9731e+02	-0.4968	-20.106955	0.000568	5.675042	0.961378	0.000114
1985	1.9741e+02	-0.4769	-19.981803	0.000628	6.283082	1.064383	0.000126
1986	1.9751e+02	-0.4568	-19.832429	0.000750	7.499162	1.270392	0.000150
1987	1.9761e+02	-0.4366	-19.683055	0.000750	7.499162	1.270392	0.000150
1988	1.9771e+02	-0.4177	-19.570015	0.000568	5.675042	0.961378	0.000114
1989	1.9781e+02	-0.3967	-19.461013	0.000547	5.472362	0.927043	0.000110
1990	1.9791e+02	-0.3772	-19.315676	0.000730	7.296482	1.236058	0.000146
1991	1.9800e+02	-0.3577	-19.194562	0.000608	6.080402	1.030048	0.000122
1992	1.9810e+02	-0.3391	-19.049225	0.000730	7.296482	1.236058	0.000146
1993	1.9820e+02	-0.3180	-18.907925	0.000709	7.093802	1.201723	0.000142
1994	1.9830e+02	-0.2971	-18.786811	0.000608	6.080402	1.030048	0.000122
1995	1.9840e+02	-0.2769	-18.657623	0.000649	6.485762	1.098718	0.000130
1996	1.9850e+02	-0.2583	-18.552657	0.000527	5.269682	0.892708	0.000105
1997	1.9860e+02	-0.2383	-18.427506	0.000628	6.283082	1.064383	0.000126
1998	1.9870e+02	-0.2185	-18.274095	0.000770	7.701842	1.304727	0.000154
1999	1.9880e+02	-0.1979	-18.144907	0.000649	6.485762	1.098718	0.000130
2000	1.9890e+02	-0.1779	-18.023793	0.000608	6.080402	1.030048	0.000122
2001	1.9900e+02	-0.1589	-17.886530	0.000689	6.891122	1.167388	0.000138
2002	1.9910e+02	-0.1381	-17.757342	0.000649	6.485762	1.098718	0.000130
2003	1.9920e+02	-0.1180	-17.632190	0.000628	6.283082	1.064383	0.000126
2004	1.9930e+02	-0.0982	-17.511076	0.000608	6.080402	1.030048	0.000122
2005	1.9940e+02	-0.0787	-17.398036	0.000568	5.675042	0.961378	0.000114
2006	1.9950e+02	-0.0586	-17.220402	0.000892	8.917923	1.510737	0.000179
2007	1.9960e+02	-0.0393	-17.087177	0.000669	6.688442	1.133053	0.000134
2008	1.9970e+02	-0.0189	-16.998360	0.000446	4.458961	0.755369	0.000089
2009	1.9980e+02	-0.0003	-16.848986	0.000446	4.458961	0.755369	0.000150

Smooth data before PMax, +/-Pr and +/-Vc Calc.

PMax (uC/cm2):	5.32e+01
Pr (uC/cm2):	4.04e+00
-Pr (uC/cm2):	-2.36e+01
PLoss (uC/cm2):	-2.36e+01
-Vc:	-6.00e-01
C (Max-Eff) (nF):	5.33e-01
K (Eff):	9.02e+02
Vert. (+/-Pr) Shift (uC/cm2):	-9.78e+00
Offset (uC/cm2):	-6.71e+00

A (Loop Area - uC/cm2·Volts):	-4.67e-02



Hysteresis Version: 5.48.1 - Radiant Technologies, Inc., 1999 - 9/12/24

