»»»»»»»»»»»»»»»»»»»»»»»»»»»»»»»»»»»» Hysteresis ««««««««««««««««««««««««««««««««««««
»»»  Executed Version:	5.48.1
»»»  Vision Version:	5.48.4 (R)
»»»  Vision Compiled:	9/18/24
»»»  Driver Version:	5.47.0
»»»  Windows Version:	Windows 8 or 8.1
»»»  Processor Information:	x86 (AMD or Intel) - 32 Processors
»»»  Tester Name:	PMF21124-494 (100V)
»»»  Tester S/N:	PMF21124-494
»»»  Internal Amp Type:	100V RevK 270k
»»»  Internal Amp S/N:	iAB2-596/K     
»»»  Execution Count:	1
»»»»»»»»»»»»»»»»»»»»»»»»»»»»»»»»»»»»»»»»»»««««««««««««««««««««««««««««««««««««««««««

Stored:	7/10/2025 - 15:34:44
Configured:	07/10/25 01:31:25 PM
Executed:	07/10/25 03:33:48 PM

»»»»»»»»»»»»»»»»»»»»»»»»»»»»»»»»»»» Sample Info ««««««««««««««««««««««««««««««««««««
Sample Name:	
Lot Name:	
Wafer Name:	
Die Row/Column:	0/0
Capacitor Number:	0
Sample Area (cm2):	1.00e-04
Sample Thickness (microns):	1.50e-01

Amplifier:	Internal

»»»»»»»»»»»»»»»»»»»»»»»»»»»»»»»»»»» Tester Info «««««««««««««««««««««««««««««««««««
Tester Name:	PMF21124-494 (100V)
Tester Serial Number:	PMF21124-494
Return Signal Amp. Level:	1.79 [Index: 2]

»»»»»»»»»»»»»»»»»»»»»»»»»»»»»»»» Hysteresis Info ««««««««««««««««««««««««««««««««««
Task Name:	Hyst-3361
Volts:	10.00
Field:	666.67 (kV/cm)
DCBias:	0.00
DCField:	0.00 (kV/cm)
Hysteresis Period (ms):	1.00e+00
Preset:	Enabled
Preset Delay (ms):	1.00e+03
Profile:	Standard Bipolar

»»»»»»»»»»»»»»»»»»»»»»»»»»»»»»»»»»»»»» Data «««««««««««««««««««««««««««««««««««««««
Points:	2001

Valid Data

Point	Time (ms)	Drive Voltage	Measured Polarization (uC/cm2)	Capacitance (uF)	Normalized Capacitance (uF/cm2)	Dielectric Constant	Instantaneous Current (mA)
   1	0.0000e+00	-0.0039	-3.703021	0.000644	6.436239	1.090328	0.025743
   2	5.0000e-04	0.0179	-3.574306	0.000644	6.436239	1.090328	0.025743
   3	1.0000e-03	0.0351	-3.493912	0.000402	4.019977	0.681002	0.016079
   4	1.5000e-03	0.0558	-3.431907	0.000310	3.100514	0.525241	0.012401
   5	2.0000e-03	0.0761	-3.339112	0.000464	4.640079	0.786051	0.018559
   6	2.5000e-03	0.0967	-3.257863	0.000406	4.062742	0.688247	0.016250
   7	3.0000e-03	0.1187	-3.203127	0.000274	2.737005	0.463661	0.010947
   8	3.5000e-03	0.1350	-3.121023	0.000411	4.105508	0.695492	0.016421
   9	4.0000e-03	0.1569	-3.036781	0.000421	4.212422	0.713604	0.016848
  10	4.5000e-03	0.1765	-2.958953	0.000389	3.891679	0.659268	0.015566
  11	5.0000e-03	0.1972	-2.867014	0.000460	4.597314	0.778806	0.018388
  12	5.5000e-03	0.2171	-2.790896	0.000381	3.806148	0.644779	0.015223
  13	6.0000e-03	0.2384	-2.708365	0.000413	4.126891	0.699114	0.016506
  14	6.5000e-03	0.2554	-2.651063	0.000287	2.865302	0.485395	0.011460
  15	7.0000e-03	0.2776	-2.549716	0.000507	5.067736	0.858498	0.020269
  16	7.5000e-03	0.2968	-2.486427	0.000316	3.164662	0.536108	0.012658
  17	8.0000e-03	0.3168	-2.412448	0.000370	3.699234	0.626667	0.014796
  18	8.5000e-03	0.3346	-2.326068	0.000432	4.319337	0.731715	0.017276
  19	9.0000e-03	0.3555	-2.243964	0.000411	4.105508	0.695492	0.016421
  20	9.5000e-03	0.3786	-2.162287	0.000408	4.084125	0.691870	0.016335
  21	1.0000e-02	0.3947	-2.081466	0.000404	4.041359	0.684625	0.016164
  22	1.0500e-02	0.4143	-1.992520	0.000445	4.447634	0.753450	0.017789
  23	1.1000e-02	0.4356	-1.924955	0.000338	3.378491	0.572332	0.013513
  24	1.1500e-02	0.4553	-1.852259	0.000364	3.635085	0.615800	0.014539
  25	1.2000e-02	0.4744	-1.765023	0.000436	4.362102	0.738960	0.017447
  26	1.2500e-02	0.4980	-1.692755	0.000361	3.613702	0.612178	0.014454
  27	1.3000e-02	0.5161	-1.607657	0.000426	4.255188	0.720848	0.017019
  28	1.3500e-02	0.5384	-1.504600	0.000515	5.153268	0.872987	0.020612
  29	1.4000e-02	0.5551	-1.439600	0.000325	3.250194	0.550598	0.013000
  30	1.4500e-02	0.5761	-1.350227	0.000447	4.469017	0.757072	0.017875
  31	1.5000e-02	0.5978	-1.266412	0.000419	4.191039	0.709981	0.016763
  32	1.5500e-02	0.6157	-1.197137	0.000346	3.464022	0.586821	0.013855
  33	1.6000e-02	0.6383	-1.137697	0.000297	2.972217	0.503507	0.011888
  34	1.6500e-02	0.6564	-1.038060	0.000498	4.982205	0.844008	0.019927
  35	1.7000e-02	0.6760	-0.952108	0.000430	4.297954	0.728093	0.017191
  36	1.7500e-02	0.6989	-0.870859	0.000406	4.062742	0.688247	0.016250
  37	1.8000e-02	0.7172	-0.801584	0.000346	3.464022	0.586821	0.013855
  38	1.8500e-02	0.7377	-0.714348	0.000436	4.362102	0.738960	0.017447
  39	1.9000e-02	0.7568	-0.612573	0.000509	5.089119	0.862120	0.020355
  40	1.9500e-02	0.7737	-0.536028	0.000383	3.827531	0.648401	0.015309
  41	2.0000e-02	0.7968	-0.446655	0.000447	4.469017	0.757072	0.017875
  42	2.0500e-02	0.8173	-0.365833	0.000404	4.041359	0.684625	0.016164
  43	2.1000e-02	0.8392	-0.302973	0.000314	3.143280	0.532486	0.012572
  44	2.1500e-02	0.8566	-0.199487	0.000517	5.174651	0.876610	0.020697
  45	2.2000e-02	0.8750	-0.132350	0.000336	3.357108	0.568710	0.013427
  46	2.2500e-02	0.8960	-0.053239	0.000396	3.955828	0.670135	0.015822
  47	2.3000e-02	0.9183	0.056233	0.000547	5.474011	0.927323	0.021894
  48	2.3500e-02	0.9373	0.122942	0.000334	3.335725	0.565087	0.013342
  49	2.4000e-02	0.9586	0.209750	0.000434	4.340719	0.735338	0.017362
  50	2.4500e-02	0.9757	0.306821	0.000485	4.853908	0.822274	0.019414
  51	2.5000e-02	0.9988	0.389780	0.000415	4.148274	0.702737	0.016592
  52	2.5500e-02	1.0202	0.476161	0.000432	4.319337	0.731715	0.017276
  53	2.6000e-02	1.0374	0.556554	0.000402	4.019977	0.681002	0.016079
  54	2.6500e-02	1.0571	0.640796	0.000421	4.212422	0.713604	0.016848
  55	2.7000e-02	1.0760	0.722901	0.000411	4.105508	0.695492	0.016421
  56	2.7500e-02	1.0959	0.802011	0.000396	3.955828	0.670135	0.015822
  57	2.8000e-02	1.1205	0.877273	0.000376	3.763382	0.637534	0.015052
  58	2.8500e-02	1.1383	0.966219	0.000445	4.447634	0.753450	0.017789
  59	2.9000e-02	1.1562	1.077402	0.000556	5.559542	0.941812	0.022237
  60	2.9500e-02	1.1768	1.137697	0.000301	3.014982	0.510752	0.012059
  61	3.0000e-02	1.1977	1.230919	0.000466	4.661462	0.789673	0.018644
  62	3.0500e-02	1.2196	1.322431	0.000458	4.575931	0.775184	0.018302
  63	3.1000e-02	1.2383	1.402825	0.000402	4.019977	0.681002	0.016079
  64	3.1500e-02	1.2575	1.504600	0.000509	5.089119	0.862120	0.020355
  65	3.2000e-02	1.2797	1.575585	0.000355	3.549554	0.601311	0.014197
  66	3.2500e-02	1.2967	1.670518	0.000475	4.746994	0.804162	0.018987
  67	3.3000e-02	1.3161	1.749201	0.000393	3.934445	0.666513	0.015737
  68	3.3500e-02	1.3387	1.836864	0.000438	4.383485	0.742582	0.017533
  69	3.4000e-02	1.3594	1.896732	0.000299	2.993600	0.507130	0.011974
  70	3.4500e-02	1.3770	1.999362	0.000513	5.131885	0.869365	0.020526
  71	3.5000e-02	1.3961	2.090019	0.000453	4.533165	0.767939	0.018131
  72	3.5500e-02	1.4175	2.168702	0.000393	3.934445	0.666513	0.015737
  73	3.6000e-02	1.4339	2.262352	0.000468	4.682845	0.793295	0.018730
  74	3.6500e-02	1.4593	2.341035	0.000393	3.934445	0.666513	0.015737
  75	3.7000e-02	1.4754	2.444948	0.000520	5.196034	0.880232	0.020783
  76	3.7500e-02	1.4971	2.542018	0.000485	4.853908	0.822274	0.019414
  77	3.8000e-02	1.5196	2.631392	0.000447	4.469017	0.757072	0.017875
  78	3.8500e-02	1.5386	2.714779	0.000417	4.169657	0.706359	0.016677
  79	3.9000e-02	1.5591	2.790041	0.000376	3.763382	0.637534	0.015052
  80	3.9500e-02	1.5781	2.880698	0.000453	4.533165	0.767939	0.018131
  81	4.0000e-02	1.5961	2.985466	0.000524	5.238799	0.887477	0.020954
  82	4.0500e-02	1.6175	3.050037	0.000323	3.228811	0.546975	0.012914
  83	4.1000e-02	1.6373	3.144542	0.000473	4.725611	0.800540	0.018901
  84	4.1500e-02	1.6537	3.241186	0.000483	4.832525	0.818652	0.019329
  85	4.2000e-02	1.6743	3.320296	0.000396	3.955828	0.670135	0.015822
  86	4.2500e-02	1.6989	3.420361	0.000500	5.003588	0.847631	0.020013
  87	4.3000e-02	1.7192	3.489208	0.000344	3.442640	0.583199	0.013770
  88	4.3500e-02	1.7383	3.578582	0.000447	4.469017	0.757072	0.017875
  89	4.4000e-02	1.7570	3.673515	0.000475	4.746994	0.804162	0.018987
  90	4.4500e-02	1.7767	3.753053	0.000398	3.977211	0.673758	0.015908
  91	4.5000e-02	1.7989	3.820618	0.000338	3.378491	0.572332	0.013513
  92	4.5500e-02	1.8191	3.921538	0.000505	5.046354	0.854875	0.020184
  93	4.6000e-02	1.8378	4.034858	0.000567	5.666456	0.959924	0.022664
  94	4.6500e-02	1.8575	4.115679	0.000404	4.041359	0.684625	0.016164
  95	4.7000e-02	1.8790	4.200349	0.000423	4.233805	0.717226	0.016934
  96	4.7500e-02	1.8973	4.268769	0.000342	3.421257	0.579577	0.013684
  97	4.8000e-02	1.9172	4.373965	0.000526	5.260182	0.891099	0.021039
  98	4.8500e-02	1.9354	4.479161	0.000526	5.260182	0.891099	0.021039
  99	4.9000e-02	1.9550	4.556989	0.000389	3.891679	0.659268	0.015566
 100	4.9500e-02	1.9768	4.635244	0.000391	3.913062	0.662891	0.015651
 101	5.0000e-02	1.9968	4.731032	0.000479	4.789759	0.811407	0.019158
 102	5.0500e-02	2.0193	4.804156	0.000366	3.656468	0.619422	0.014625
 103	5.1000e-02	2.0375	4.915339	0.000556	5.559542	0.941812	0.022237
 104	5.1500e-02	2.0567	4.990601	0.000376	3.763382	0.637534	0.015052
 105	5.2000e-02	2.0782	5.088955	0.000492	4.918056	0.833141	0.019671
 106	5.2500e-02	2.0930	5.189447	0.000502	5.024971	0.851253	0.020098
 107	5.3000e-02	2.1155	5.258722	0.000346	3.464022	0.586821	0.013855
 108	5.3500e-02	2.1355	5.361780	0.000515	5.153268	0.872987	0.020612
 109	5.4000e-02	2.1581	5.436186	0.000372	3.720617	0.630290	0.014881
 110	5.4500e-02	2.1783	5.520428	0.000421	4.212422	0.713604	0.016848
 111	5.5000e-02	2.1970	5.618782	0.000492	4.918056	0.833141	0.019671
 112	5.5500e-02	2.2173	5.713715	0.000475	4.746994	0.804162	0.018987
 113	5.6000e-02	2.2393	5.765885	0.000261	2.608708	0.441927	0.010434
 114	5.6500e-02	2.2562	5.872792	0.000535	5.345714	0.905588	0.021381
 115	5.7000e-02	2.2787	5.979270	0.000532	5.324331	0.901966	0.021296
 116	5.7500e-02	2.2971	6.072493	0.000466	4.661462	0.789673	0.018644
 117	5.8000e-02	2.3149	6.143479	0.000355	3.549554	0.601311	0.014197
 118	5.8500e-02	2.3367	6.233707	0.000451	4.511782	0.764317	0.018046
 119	5.9000e-02	2.3572	6.331634	0.000490	4.896674	0.829519	0.019585
 120	5.9500e-02	2.3752	6.381238	0.000248	2.480411	0.420193	0.009921
 121	6.0000e-02	2.3963	6.491565	0.000552	5.516776	0.934567	0.022065
 122	6.0500e-02	2.4148	6.584360	0.000464	4.640079	0.786051	0.018559
 123	6.1000e-02	2.4365	6.652353	0.000340	3.399874	0.575954	0.013598
 124	6.1500e-02	2.4542	6.757976	0.000528	5.281565	0.894721	0.021125
 125	6.2000e-02	2.4752	6.826824	0.000344	3.442640	0.583199	0.013770
 126	6.2500e-02	2.4979	6.912776	0.000430	4.297954	0.728093	0.017191
 127	6.3000e-02	2.5166	7.009847	0.000485	4.853908	0.822274	0.019414
 128	6.3500e-02	2.5359	7.084682	0.000374	3.742000	0.633912	0.014967
 129	6.4000e-02	2.5560	7.185601	0.000505	5.046354	0.854875	0.020184
 130	6.4500e-02	2.5774	7.268988	0.000417	4.169657	0.706359	0.016677
 131	6.5000e-02	2.6001	7.346388	0.000387	3.870297	0.655646	0.015480
 132	6.5500e-02	2.6163	7.454578	0.000541	5.409862	0.916455	0.021638
 133	6.6000e-02	2.6349	7.544379	0.000449	4.490399	0.760694	0.017960
 134	6.6500e-02	2.6559	7.609806	0.000327	3.271577	0.554220	0.013085
 135	6.7000e-02	2.6749	7.709870	0.000500	5.003588	0.847631	0.020013
 136	6.7500e-02	2.6972	7.772303	0.000312	3.121897	0.528864	0.012487
 137	6.8000e-02	2.7172	7.885196	0.000565	5.645074	0.956301	0.022579
 138	6.8500e-02	2.7383	7.960458	0.000376	3.763382	0.637534	0.015052
 139	6.9000e-02	2.7579	8.035720	0.000376	3.763382	0.637534	0.015052
 140	6.9500e-02	2.7778	8.129798	0.000470	4.704228	0.796918	0.018816
 141	7.0000e-02	2.7939	8.217033	0.000436	4.362102	0.738960	0.017447
 142	7.0500e-02	2.8162	8.297855	0.000404	4.041359	0.684625	0.016164
 143	7.1000e-02	2.8375	8.387656	0.000449	4.490399	0.760694	0.017960
 144	7.1500e-02	2.8604	8.464201	0.000383	3.827531	0.648401	0.015309
 145	7.2000e-02	2.8761	8.559989	0.000479	4.789759	0.811407	0.019158
 146	7.2500e-02	2.8979	8.643803	0.000419	4.191039	0.709981	0.016763
 147	7.3000e-02	2.9138	8.724625	0.000404	4.041359	0.684625	0.016164
 148	7.3500e-02	2.9367	8.802025	0.000387	3.870297	0.655646	0.015480
 149	7.4000e-02	2.9556	8.897813	0.000479	4.789759	0.811407	0.019158
 150	7.4500e-02	2.9768	8.991035	0.000466	4.661462	0.789673	0.018644
 151	7.5000e-02	2.9953	9.068008	0.000385	3.848914	0.652024	0.015395
 152	7.5500e-02	3.0167	9.139421	0.000357	3.570937	0.604933	0.014283
 153	7.6000e-02	3.0391	9.251031	0.000558	5.580925	0.945434	0.022322
 154	7.6500e-02	3.0577	9.313892	0.000314	3.143280	0.532486	0.012572
 155	7.7000e-02	3.0783	9.397279	0.000417	4.169657	0.706359	0.016677
 156	7.7500e-02	3.0970	9.491784	0.000473	4.725611	0.800540	0.018901
 157	7.8000e-02	3.1158	9.577309	0.000428	4.276571	0.724471	0.017105
 158	7.8500e-02	3.1368	9.652144	0.000374	3.742000	0.633912	0.014967
 159	7.9000e-02	3.1604	9.725268	0.000366	3.656468	0.619422	0.014625
 160	7.9500e-02	3.1757	9.818490	0.000466	4.661462	0.789673	0.018644
 161	8.0000e-02	3.1982	9.895463	0.000385	3.848914	0.652024	0.015395
 162	8.0500e-02	3.2170	9.984409	0.000445	4.447634	0.753450	0.017789
 163	8.1000e-02	3.2372	10.069079	0.000423	4.233805	0.717226	0.016934
 164	8.1500e-02	3.2556	10.138354	0.000346	3.464022	0.586821	0.013855
 165	8.2000e-02	3.2784	10.224307	0.000430	4.297954	0.728093	0.017191
 166	8.2500e-02	3.2979	10.311114	0.000434	4.340719	0.735338	0.017362
 167	8.3000e-02	3.3171	10.395784	0.000423	4.233805	0.717226	0.016934
 168	8.3500e-02	3.3348	10.471474	0.000378	3.784765	0.641157	0.015138
 169	8.4000e-02	3.3586	10.556999	0.000428	4.276571	0.724471	0.017105
 170	8.4500e-02	3.3786	10.619432	0.000312	3.121897	0.528864	0.012487
 171	8.5000e-02	3.3966	10.706668	0.000436	4.362102	0.738960	0.017447
 172	8.5500e-02	3.4164	10.813147	0.000532	5.324331	0.901966	0.021296
 173	8.6000e-02	3.4360	10.874297	0.000306	3.057748	0.517997	0.012230
 174	8.6500e-02	3.4572	10.966236	0.000460	4.597314	0.778806	0.018388
 175	8.7000e-02	3.4750	11.050906	0.000423	4.233805	0.717226	0.016934
 176	8.7500e-02	3.4980	11.126168	0.000376	3.763382	0.637534	0.015052
 177	8.8000e-02	3.5178	11.201430	0.000376	3.763382	0.637534	0.015052
 178	8.8500e-02	3.5376	11.285672	0.000421	4.212422	0.713604	0.016848
 179	8.9000e-02	3.5559	11.355803	0.000351	3.506788	0.594066	0.014026
 180	8.9500e-02	3.5779	11.448598	0.000464	4.640079	0.786051	0.018559
 181	9.0000e-02	3.5968	11.511031	0.000312	3.121897	0.528864	0.012487
 182	9.0500e-02	3.6194	11.601688	0.000453	4.533165	0.767939	0.018131
 183	9.1000e-02	3.6382	11.682509	0.000404	4.041359	0.684625	0.016164
 184	9.1500e-02	3.6569	11.783001	0.000502	5.024971	0.851253	0.020098
 185	9.2000e-02	3.6780	11.844579	0.000308	3.079131	0.521619	0.012316
 186	9.2500e-02	3.6996	11.912143	0.000338	3.378491	0.572332	0.013513
 187	9.3000e-02	3.7177	11.994248	0.000411	4.105508	0.695492	0.016421
 188	9.3500e-02	3.7367	12.095167	0.000505	5.046354	0.854875	0.020184
 189	9.4000e-02	3.7564	12.171712	0.000383	3.827531	0.648401	0.015309
 190	9.4500e-02	3.7753	12.243981	0.000361	3.613702	0.612178	0.014454
 191	9.5000e-02	3.7978	12.314111	0.000351	3.506788	0.594066	0.014026
 192	9.5500e-02	3.8159	12.379966	0.000329	3.292960	0.557842	0.013171
 193	9.6000e-02	3.8376	12.477036	0.000485	4.853908	0.822274	0.019414
 194	9.6500e-02	3.8571	12.552726	0.000378	3.784765	0.641157	0.015138
 195	9.7000e-02	3.8812	12.608745	0.000280	2.801154	0.474528	0.011204
 196	9.7500e-02	3.8983	12.700257	0.000458	4.575931	0.775184	0.018302
 197	9.8000e-02	3.9175	12.782361	0.000411	4.105508	0.695492	0.016421
 198	9.8500e-02	3.9368	12.874300	0.000460	4.597314	0.778806	0.018388
 199	9.9000e-02	3.9587	12.931174	0.000284	2.843920	0.481773	0.011375
 200	9.9500e-02	3.9825	13.030384	0.000496	4.960822	0.840386	0.019842
 201	1.0000e-01	3.9972	13.110349	0.000400	3.998594	0.677380	0.015993
 202	1.0050e-01	4.0161	13.168934	0.000293	2.929451	0.496262	0.011717
 203	1.0100e-01	4.0369	13.262156	0.000466	4.661462	0.789673	0.018644
 204	1.0150e-01	4.0552	13.336136	0.000370	3.699234	0.626667	0.014796
 205	1.0200e-01	4.0765	13.395576	0.000297	2.972217	0.503507	0.011888
 206	1.0250e-01	4.0964	13.487515	0.000460	4.597314	0.778806	0.018388
 207	1.0300e-01	4.1211	13.527712	0.000201	2.009988	0.340501	0.008039
 208	1.0350e-01	4.1382	13.634190	0.000532	5.324331	0.901966	0.021296
 209	1.0400e-01	4.1565	13.713301	0.000396	3.955828	0.670135	0.015822
 210	1.0450e-01	4.1774	13.800109	0.000434	4.340719	0.735338	0.017362
 211	1.0500e-01	4.1965	13.854845	0.000274	2.737005	0.463661	0.010947
 212	1.0550e-01	4.2145	13.964745	0.000550	5.495394	0.930945	0.021980
 213	1.0600e-01	4.2358	14.020336	0.000278	2.779771	0.470906	0.011118
 214	1.0650e-01	4.2572	14.084480	0.000321	3.207428	0.543353	0.012829
 215	1.0700e-01	4.2781	14.156321	0.000359	3.592320	0.608555	0.014368
 216	1.0750e-01	4.2984	14.224313	0.000340	3.399874	0.575954	0.013598
 217	1.0800e-01	4.3170	14.305990	0.000408	4.084125	0.691870	0.016335
 218	1.0850e-01	4.3372	14.368423	0.000312	3.121897	0.528864	0.012487
 219	1.0900e-01	4.3555	14.473619	0.000526	5.260182	0.891099	0.021039
 220	1.0950e-01	4.3769	14.539473	0.000329	3.292960	0.557842	0.013171
 221	1.1000e-01	4.3970	14.622860	0.000417	4.169657	0.706359	0.016677
 222	1.1050e-01	4.4189	14.672892	0.000250	2.501794	0.423815	0.010006
 223	1.1100e-01	4.4376	14.752431	0.000398	3.977211	0.673758	0.015908
 224	1.1150e-01	4.4528	14.855488	0.000515	5.153268	0.872987	0.020612
 225	1.1200e-01	4.4743	14.905093	0.000248	2.480411	0.420193	0.009921
 226	1.1250e-01	4.4989	14.974368	0.000346	3.464022	0.586821	0.013855
 227	1.1300e-01	4.5203	15.058183	0.000419	4.191039	0.709981	0.016763
 228	1.1350e-01	4.5374	15.138149	0.000400	3.998594	0.677380	0.015993
 229	1.1400e-01	4.5569	15.218542	0.000402	4.019977	0.681002	0.016079
 230	1.1450e-01	4.5779	15.275416	0.000284	2.843920	0.481773	0.011375
 231	1.1500e-01	4.5978	15.349395	0.000370	3.699234	0.626667	0.014796
 232	1.1550e-01	4.6167	15.423375	0.000370	3.699234	0.626667	0.014796
 233	1.1600e-01	4.6395	15.484525	0.000306	3.057748	0.517997	0.012230
 234	1.1650e-01	4.6574	15.561498	0.000385	3.848914	0.652024	0.015395
 235	1.1700e-01	4.6783	15.643602	0.000411	4.105508	0.695492	0.016421
 236	1.1750e-01	4.6960	15.704324	0.000304	3.036365	0.514374	0.012145
 237	1.1800e-01	4.7168	15.778731	0.000372	3.720617	0.630290	0.014881
 238	1.1850e-01	4.7391	15.846296	0.000338	3.378491	0.572332	0.013513
 239	1.1900e-01	4.7577	15.932676	0.000432	4.319337	0.731715	0.017276
 240	1.1950e-01	4.7815	16.006655	0.000370	3.699234	0.626667	0.014796
 241	1.2000e-01	4.7980	16.066523	0.000299	2.993600	0.507130	0.011974
 242	1.2050e-01	4.8206	16.140075	0.000368	3.677851	0.623045	0.014710
 243	1.2100e-01	4.8389	16.210205	0.000351	3.506788	0.594066	0.014026
 244	1.2150e-01	4.8570	16.303855	0.000468	4.682845	0.793295	0.018730
 245	1.2200e-01	4.8786	16.347900	0.000220	2.202434	0.373102	0.008809
 246	1.2250e-01	4.9019	16.424018	0.000381	3.806148	0.644779	0.015223
 247	1.2300e-01	4.9196	16.490300	0.000331	3.314342	0.561465	0.013256
 248	1.2350e-01	4.9387	16.575825	0.000428	4.276571	0.724471	0.017105
 249	1.2400e-01	4.9579	16.633126	0.000287	2.865302	0.485395	0.011460
 250	1.2450e-01	4.9771	16.697270	0.000321	3.207428	0.543353	0.012829
 251	1.2500e-01	4.9969	16.776809	0.000398	3.977211	0.673758	0.015908
 252	1.2550e-01	5.0186	16.837531	0.000304	3.036365	0.514374	0.012145
 253	1.2600e-01	5.0366	16.912793	0.000376	3.763382	0.637534	0.015052
 254	1.2650e-01	5.0600	16.976937	0.000321	3.207428	0.543353	0.012829
 255	1.2700e-01	5.0745	17.057758	0.000404	4.041359	0.684625	0.016164
 256	1.2750e-01	5.0984	17.130882	0.000366	3.656468	0.619422	0.014625
 257	1.2800e-01	5.1196	17.208282	0.000387	3.870297	0.655646	0.015480
 258	1.2850e-01	5.1373	17.261736	0.000267	2.672857	0.452794	0.010691
 259	1.2900e-01	5.1599	17.342557	0.000404	4.041359	0.684625	0.016164
 260	1.2950e-01	5.1758	17.399003	0.000282	2.822537	0.478151	0.011289
 261	1.3000e-01	5.1993	17.465285	0.000331	3.314342	0.561465	0.013256
 262	1.3050e-01	5.2197	17.530712	0.000327	3.271577	0.554220	0.013085
 263	1.3100e-01	5.2370	17.616237	0.000428	4.276571	0.724471	0.017105
 264	1.3150e-01	5.2563	17.687223	0.000355	3.549554	0.601311	0.014197
 265	1.3200e-01	5.2766	17.744952	0.000289	2.886685	0.489018	0.011546
 266	1.3250e-01	5.2985	17.806958	0.000310	3.100514	0.525241	0.012401
 267	1.3300e-01	5.3175	17.879227	0.000361	3.613702	0.612178	0.014454
 268	1.3350e-01	5.3376	17.958337	0.000396	3.955828	0.670135	0.015822
 269	1.3400e-01	5.3577	18.024619	0.000331	3.314342	0.561465	0.013256
 270	1.3450e-01	5.3784	18.084914	0.000301	3.014982	0.510752	0.012059
 271	1.3500e-01	5.3979	18.168301	0.000417	4.169657	0.706359	0.016677
 272	1.3550e-01	5.4181	18.214057	0.000229	2.287965	0.387592	0.009151
 273	1.3600e-01	5.4364	18.281622	0.000338	3.378491	0.572332	0.013513
 274	1.3650e-01	5.4587	18.368857	0.000436	4.362102	0.738960	0.017447
 275	1.3700e-01	5.4761	18.431291	0.000312	3.121897	0.528864	0.012487
 276	1.3750e-01	5.4987	18.489875	0.000293	2.929451	0.496262	0.011717
 277	1.3800e-01	5.5171	18.554019	0.000321	3.207428	0.543353	0.012829
 278	1.3850e-01	5.5377	18.635268	0.000406	4.062742	0.688247	0.016250
 279	1.3900e-01	5.5579	18.686583	0.000257	2.565943	0.434682	0.010263
 280	1.3950e-01	5.5780	18.757569	0.000355	3.549554	0.601311	0.014197
 281	1.4000e-01	5.6000	18.821285	0.000319	3.186045	0.539731	0.012743
 282	1.4050e-01	5.6195	18.899968	0.000393	3.934445	0.666513	0.015737
 283	1.4100e-01	5.6378	18.971381	0.000357	3.570937	0.604933	0.014283
 284	1.4150e-01	5.6598	19.040657	0.000346	3.464022	0.586821	0.013855
 285	1.4200e-01	5.6787	19.094965	0.000272	2.715622	0.460039	0.010862
 286	1.4250e-01	5.6960	19.162958	0.000340	3.399874	0.575954	0.013598
 287	1.4300e-01	5.7184	19.216411	0.000267	2.672857	0.452794	0.010691
 288	1.4350e-01	5.7388	19.317758	0.000507	5.067736	0.858498	0.020269
 289	1.4400e-01	5.7599	19.371211	0.000267	2.672857	0.452794	0.010691
 290	1.4450e-01	5.7764	19.452032	0.000404	4.041359	0.684625	0.016164
 291	1.4500e-01	5.7968	19.484959	0.000165	1.646480	0.278921	0.006585
 292	1.4550e-01	5.8168	19.563643	0.000393	3.934445	0.666513	0.015737
 293	1.4600e-01	5.8386	19.628642	0.000325	3.250194	0.550598	0.013000
 294	1.4650e-01	5.8575	19.677391	0.000244	2.437645	0.412948	0.009750
 295	1.4700e-01	5.8746	19.760350	0.000415	4.148274	0.702737	0.016592
 296	1.4750e-01	5.8984	19.819790	0.000297	2.972217	0.503507	0.011888
 297	1.4800e-01	5.9167	19.880513	0.000304	3.036365	0.514374	0.012145
 298	1.4850e-01	5.9352	19.945939	0.000327	3.271577	0.554220	0.013085
 299	1.4900e-01	5.9625	20.009228	0.000316	3.164662	0.536108	0.012658
 300	1.4950e-01	5.9778	20.107582	0.000492	4.918056	0.833141	0.019671
 301	1.5000e-01	5.9979	20.157614	0.000250	2.501794	0.423815	0.010006
 302	1.5050e-01	6.0175	20.217909	0.000301	3.014982	0.510752	0.012059
 303	1.5100e-01	6.0364	20.286757	0.000344	3.442640	0.583199	0.013770
 304	1.5150e-01	6.0596	20.320112	0.000167	1.667863	0.282544	0.006671
 305	1.5200e-01	6.0779	20.401360	0.000406	4.062742	0.688247	0.016250
 306	1.5250e-01	6.0980	20.477478	0.000381	3.806148	0.644779	0.015223
 307	1.5300e-01	6.1182	20.559154	0.000408	4.084125	0.691870	0.016335
 308	1.5350e-01	6.1359	20.615601	0.000282	2.822537	0.478151	0.011289
 309	1.5400e-01	6.1572	20.666488	0.000254	2.544560	0.431060	0.010177
 310	1.5450e-01	6.1761	20.748165	0.000408	4.084125	0.691870	0.016335
 311	1.5500e-01	6.1984	20.802473	0.000272	2.715622	0.460039	0.010862
 312	1.5550e-01	6.2166	20.858064	0.000278	2.779771	0.470906	0.011118
 313	1.5600e-01	6.2396	20.929050	0.000355	3.549554	0.601311	0.014197
 314	1.5650e-01	6.2610	20.980793	0.000259	2.587325	0.438305	0.010349
 315	1.5700e-01	6.2769	21.057338	0.000383	3.827531	0.648401	0.015309
 316	1.5750e-01	6.2979	21.122337	0.000325	3.250194	0.550598	0.013000
 317	1.5800e-01	6.3165	21.153553	0.000156	1.560948	0.264432	0.006243
 318	1.5850e-01	6.3379	21.240789	0.000436	4.362102	0.738960	0.017447
 319	1.5900e-01	6.3605	21.310064	0.000346	3.464022	0.586821	0.013855
 320	1.5950e-01	6.3766	21.370787	0.000304	3.036365	0.514374	0.012145
 321	1.6000e-01	6.3947	21.453319	0.000413	4.126891	0.699114	0.016506
 322	1.6050e-01	6.4191	21.504206	0.000254	2.544560	0.431060	0.010177
 323	1.6100e-01	6.4386	21.564074	0.000299	2.993600	0.507130	0.011974
 324	1.6150e-01	6.4594	21.639336	0.000376	3.763382	0.637534	0.015052
 325	1.6200e-01	6.4764	21.694927	0.000278	2.779771	0.470906	0.011118
 326	1.6250e-01	6.4972	21.731703	0.000184	1.838925	0.311522	0.007355
 327	1.6300e-01	6.5161	21.813379	0.000408	4.084125	0.691870	0.016335
 328	1.6350e-01	6.5375	21.900187	0.000434	4.340719	0.735338	0.017362
 329	1.6400e-01	6.5558	21.965186	0.000325	3.250194	0.550598	0.013000
 330	1.6450e-01	6.5787	22.019922	0.000274	2.737005	0.463661	0.010947
 331	1.6500e-01	6.5961	22.054987	0.000175	1.753394	0.297033	0.007013
 332	1.6550e-01	6.6174	22.136236	0.000406	4.062742	0.688247	0.016250
 333	1.6600e-01	6.6400	22.224327	0.000440	4.404868	0.746205	0.017618
 334	1.6650e-01	6.6608	22.269228	0.000225	2.245200	0.380347	0.008980
 335	1.6700e-01	6.6766	22.323536	0.000272	2.715622	0.460039	0.010862
 336	1.6750e-01	6.6940	22.400936	0.000387	3.870297	0.655646	0.015480
 337	1.6800e-01	6.7166	22.458666	0.000289	2.886685	0.489018	0.011546
 338	1.6850e-01	6.7377	22.512974	0.000272	2.715622	0.460039	0.010862
 339	1.6900e-01	6.7578	22.598927	0.000430	4.297954	0.728093	0.017191
 340	1.6950e-01	6.7744	22.650242	0.000257	2.565943	0.434682	0.010263
 341	1.7000e-01	6.7978	22.695998	0.000229	2.287965	0.387592	0.009151
 342	1.7050e-01	6.8170	22.769122	0.000366	3.656468	0.619422	0.014625
 343	1.7100e-01	6.8384	22.838397	0.000346	3.464022	0.586821	0.013855
 344	1.7150e-01	6.8567	22.908527	0.000351	3.506788	0.594066	0.014026
 345	1.7200e-01	6.8784	22.954283	0.000229	2.287965	0.387592	0.009151
 346	1.7250e-01	6.8948	23.042802	0.000443	4.426251	0.749827	0.017704
 347	1.7300e-01	6.9196	23.103952	0.000306	3.057748	0.517997	0.012230
 348	1.7350e-01	6.9391	23.120630	0.000083	0.833931	0.141272	0.003335
 349	1.7400e-01	6.9574	23.216418	0.000479	4.789759	0.811407	0.019158
 350	1.7450e-01	6.9783	23.282272	0.000329	3.292960	0.557842	0.013171
 351	1.7500e-01	6.9966	23.358389	0.000381	3.806148	0.644779	0.015223
 352	1.7550e-01	7.0166	23.399014	0.000203	2.031371	0.344124	0.008125
 353	1.7600e-01	7.0334	23.464440	0.000327	3.271577	0.554220	0.013085
 354	1.7650e-01	7.0593	23.547400	0.000415	4.148274	0.702737	0.016592
 355	1.7700e-01	7.0776	23.605984	0.000293	2.929451	0.496262	0.011717
 356	1.7750e-01	7.0990	23.666279	0.000301	3.014982	0.510752	0.012059
 357	1.7800e-01	7.1161	23.724009	0.000289	2.886685	0.489018	0.011546
 358	1.7850e-01	7.1378	23.800981	0.000385	3.848914	0.652024	0.015395
 359	1.7900e-01	7.1579	23.865980	0.000325	3.250194	0.550598	0.013000
 360	1.7950e-01	7.1771	23.915585	0.000248	2.480411	0.420193	0.009921
 361	1.8000e-01	7.1994	23.984005	0.000342	3.421257	0.579577	0.013684
 362	1.8050e-01	7.2165	24.032754	0.000244	2.437645	0.412948	0.009750
 363	1.8100e-01	7.2339	24.101602	0.000344	3.442640	0.583199	0.013770
 364	1.8150e-01	7.2592	24.162752	0.000306	3.057748	0.517997	0.012230
 365	1.8200e-01	7.2774	24.227324	0.000323	3.228811	0.546975	0.012914
 366	1.8250e-01	7.2977	24.292323	0.000325	3.250194	0.550598	0.013000
 367	1.8300e-01	7.3163	24.347914	0.000278	2.779771	0.470906	0.011118
 368	1.8350e-01	7.3364	24.410347	0.000312	3.121897	0.528864	0.012487
 369	1.8400e-01	7.3560	24.481761	0.000357	3.570937	0.604933	0.014283
 370	1.8450e-01	7.3795	24.521958	0.000201	2.009988	0.340501	0.008039
 371	1.8500e-01	7.3975	24.612186	0.000451	4.511782	0.764317	0.018046
 372	1.8550e-01	7.4182	24.664357	0.000261	2.608708	0.441927	0.010434
 373	1.8600e-01	7.4377	24.719093	0.000274	2.737005	0.463661	0.010947
 374	1.8650e-01	7.4585	24.774684	0.000278	2.779771	0.470906	0.011118
 375	1.8700e-01	7.4768	24.866624	0.000460	4.597314	0.778806	0.018388
 376	1.8750e-01	7.4951	24.909386	0.000214	2.138285	0.362235	0.008553
 377	1.8800e-01	7.5171	24.973957	0.000323	3.228811	0.546975	0.012914
 378	1.8850e-01	7.5374	25.058200	0.000421	4.212422	0.713604	0.016848
 379	1.8900e-01	7.5568	25.108659	0.000252	2.523177	0.427438	0.010092
 380	1.8950e-01	7.5793	25.145008	0.000182	1.817543	0.307900	0.007270
 381	1.9000e-01	7.6004	25.227539	0.000413	4.126891	0.699114	0.016506
 382	1.9050e-01	7.6147	25.280137	0.000263	2.630091	0.445549	0.010520
 383	1.9100e-01	7.6358	25.360531	0.000402	4.019977	0.681002	0.016079
 384	1.9150e-01	7.6538	25.418688	0.000291	2.908068	0.492640	0.011631
 385	1.9200e-01	7.6758	25.481976	0.000316	3.164662	0.536108	0.012658
 386	1.9250e-01	7.6984	25.514048	0.000160	1.603714	0.271677	0.006414
 387	1.9300e-01	7.7173	25.605132	0.000455	4.554548	0.771561	0.018217
 388	1.9350e-01	7.7369	25.668421	0.000316	3.164662	0.536108	0.012658
 389	1.9400e-01	7.7545	25.711611	0.000216	2.159668	0.365858	0.008638
 390	1.9450e-01	7.7762	25.799702	0.000440	4.404868	0.746205	0.017618
 391	1.9500e-01	7.7960	25.850162	0.000252	2.523177	0.427438	0.010092
 392	1.9550e-01	7.8192	25.893352	0.000216	2.159668	0.365858	0.008638
 393	1.9600e-01	7.8400	25.982726	0.000447	4.469017	0.757072	0.017875
 394	1.9650e-01	7.8595	26.030192	0.000237	2.373497	0.402081	0.009493
 395	1.9700e-01	7.8796	26.089632	0.000297	2.972217	0.503507	0.011888
 396	1.9750e-01	7.8999	26.161473	0.000359	3.592320	0.608555	0.014368
 397	1.9800e-01	7.9175	26.226044	0.000323	3.228811	0.546975	0.012914
 398	1.9850e-01	7.9370	26.271800	0.000229	2.287965	0.387592	0.009151
 399	1.9900e-01	7.9553	26.329957	0.000291	2.908068	0.492640	0.011631
 400	1.9950e-01	7.9791	26.404792	0.000374	3.742000	0.633912	0.014967
 401	2.0000e-01	7.9956	26.465087	0.000301	3.014982	0.510752	0.012059
 402	2.0050e-01	8.0164	26.539494	0.000372	3.720617	0.630290	0.014881
 403	2.0100e-01	8.0359	26.567289	0.000139	1.389886	0.235453	0.005559
 404	2.0150e-01	8.0585	26.628440	0.000306	3.057748	0.517997	0.012230
 405	2.0200e-01	8.0774	26.707550	0.000396	3.955828	0.670135	0.015822
 406	2.0250e-01	8.0969	26.754161	0.000233	2.330731	0.394837	0.009322
 407	2.0300e-01	8.1165	26.843963	0.000449	4.490399	0.760694	0.017960
 408	2.0350e-01	8.1378	26.895705	0.000259	2.587325	0.438305	0.010349
 409	2.0400e-01	8.1592	26.937613	0.000210	2.095520	0.354991	0.008381
 410	2.0450e-01	8.1781	27.012020	0.000372	3.720617	0.630290	0.014881
 411	2.0500e-01	8.1989	27.068894	0.000284	2.843920	0.481773	0.011375
 412	2.0550e-01	8.2196	27.106525	0.000188	1.881691	0.318767	0.007526
 413	2.0600e-01	8.2385	27.191195	0.000423	4.233805	0.717226	0.016934
 414	2.0650e-01	8.2581	27.249352	0.000291	2.908068	0.492640	0.011631
 415	2.0700e-01	8.2745	27.313923	0.000323	3.228811	0.546975	0.012914
 416	2.0750e-01	8.2983	27.371225	0.000287	2.865302	0.485395	0.011460
 417	2.0800e-01	8.3173	27.428954	0.000289	2.886685	0.489018	0.011546
 418	2.0850e-01	8.3350	27.486256	0.000287	2.865302	0.485395	0.011460
 419	2.0900e-01	8.3582	27.537571	0.000257	2.565943	0.434682	0.010263
 420	2.0950e-01	8.3783	27.606846	0.000346	3.464022	0.586821	0.013855
 421	2.1000e-01	8.3960	27.659017	0.000261	2.608708	0.441927	0.010434
 422	2.1050e-01	8.4161	27.742404	0.000417	4.169657	0.706359	0.016677
 423	2.1100e-01	8.4393	27.790298	0.000239	2.394880	0.405704	0.009579
 424	2.1150e-01	8.4595	27.838192	0.000239	2.394880	0.405704	0.009579
 425	2.1200e-01	8.4772	27.910033	0.000359	3.592320	0.608555	0.014368
 426	2.1250e-01	8.4961	27.970755	0.000304	3.036365	0.514374	0.012145
 427	2.1300e-01	8.5181	28.028912	0.000291	2.908068	0.492640	0.011631
 428	2.1350e-01	8.5382	28.088352	0.000297	2.972217	0.503507	0.011888
 429	2.1400e-01	8.5559	28.140095	0.000259	2.587325	0.438305	0.010349
 430	2.1450e-01	8.5736	28.221344	0.000406	4.062742	0.688247	0.016250
 431	2.1500e-01	8.5980	28.266244	0.000225	2.245200	0.380347	0.008980
 432	2.1550e-01	8.6157	28.319698	0.000267	2.672857	0.452794	0.010691
 433	2.1600e-01	8.6356	28.387690	0.000340	3.399874	0.575954	0.013598
 434	2.1650e-01	8.6578	28.444992	0.000287	2.865302	0.485395	0.011460
 435	2.1700e-01	8.6798	28.505715	0.000304	3.036365	0.514374	0.012145
 436	2.1750e-01	8.6963	28.570714	0.000325	3.250194	0.550598	0.013000
 437	2.1800e-01	8.7170	28.628443	0.000289	2.886685	0.489018	0.011546
 438	2.1850e-01	8.7384	28.690876	0.000312	3.121897	0.528864	0.012487
 439	2.1900e-01	8.7592	28.720383	0.000148	1.475417	0.249942	0.005901
 440	2.1950e-01	8.7775	28.808046	0.000438	4.383485	0.742582	0.017533
 441	2.2000e-01	8.7976	28.871334	0.000316	3.164662	0.536108	0.012658
 442	2.2050e-01	8.8190	28.943603	0.000361	3.613702	0.612178	0.014454
 443	2.2100e-01	8.8385	28.962418	0.000094	0.940846	0.159384	0.003763
 444	2.2150e-01	8.8562	29.031266	0.000344	3.442640	0.583199	0.013770
 445	2.2200e-01	8.8794	29.109094	0.000389	3.891679	0.659268	0.015566
 446	2.2250e-01	8.8962	29.148435	0.000197	1.967223	0.333257	0.007868
 447	2.2300e-01	8.9154	29.242941	0.000473	4.725611	0.800540	0.018901
 448	2.2350e-01	8.9362	29.291690	0.000244	2.437645	0.412948	0.009750
 449	2.2400e-01	8.9563	29.359682	0.000340	3.399874	0.575954	0.013598
 450	2.2450e-01	8.9771	29.407576	0.000239	2.394880	0.405704	0.009579
 451	2.2500e-01	8.9978	29.440503	0.000165	1.646480	0.278921	0.006585
 452	2.2550e-01	9.0179	29.518331	0.000389	3.891679	0.659268	0.015566
 453	2.2600e-01	9.0363	29.564942	0.000233	2.330731	0.394837	0.009322
 454	2.2650e-01	9.0546	29.617113	0.000261	2.608708	0.441927	0.010434
 455	2.2700e-01	9.0759	29.691520	0.000372	3.720617	0.630290	0.014881
 456	2.2750e-01	9.0973	29.736848	0.000227	2.266583	0.383969	0.009066
 457	2.2800e-01	9.1171	29.805268	0.000342	3.421257	0.579577	0.013684
 458	2.2850e-01	9.1364	29.873688	0.000342	3.421257	0.579577	0.013684
 459	2.2900e-01	9.1602	29.914740	0.000205	2.052754	0.347746	0.008210
 460	2.2950e-01	9.1766	29.980594	0.000329	3.292960	0.557842	0.013171
 461	2.3000e-01	9.1974	30.042600	0.000310	3.100514	0.525241	0.012401
 462	2.3050e-01	9.2169	30.089639	0.000235	2.352114	0.398459	0.009408
 463	2.3100e-01	9.2358	30.145230	0.000278	2.779771	0.470906	0.011118
 464	2.3150e-01	9.2581	30.209374	0.000321	3.207428	0.543353	0.012829
 465	2.3200e-01	9.2780	30.258551	0.000246	2.459028	0.416571	0.009835
 466	2.3250e-01	9.2987	30.337234	0.000393	3.934445	0.666513	0.015737
 467	2.3300e-01	9.3161	30.406937	0.000349	3.485405	0.590444	0.013941
 468	2.3350e-01	9.3390	30.449271	0.000212	2.116903	0.358613	0.008467
 469	2.3400e-01	9.3561	30.518119	0.000344	3.442640	0.583199	0.013770
 470	2.3450e-01	9.3787	30.558744	0.000203	2.031371	0.344124	0.008125
 471	2.3500e-01	9.3982	30.625453	0.000334	3.335725	0.565087	0.013342
 472	2.3550e-01	9.4208	30.685321	0.000299	2.993600	0.507130	0.011974
 473	2.3600e-01	9.4366	30.717820	0.000163	1.625097	0.275299	0.006500
 474	2.3650e-01	9.4592	30.783247	0.000327	3.271577	0.554220	0.013085
 475	2.3700e-01	9.4769	30.854233	0.000355	3.549554	0.601311	0.014197
 476	2.3750e-01	9.5013	30.903837	0.000248	2.480411	0.420193	0.009921
 477	2.3800e-01	9.5203	30.968409	0.000323	3.228811	0.546975	0.012914
 478	2.3850e-01	9.5343	31.021862	0.000267	2.672857	0.452794	0.010691
 479	2.3900e-01	9.5557	31.085578	0.000319	3.186045	0.539731	0.012743
 480	2.3950e-01	9.5752	31.162978	0.000387	3.870297	0.655646	0.015480
 481	2.4000e-01	9.5972	31.220707	0.000289	2.886685	0.489018	0.011546
 482	2.4050e-01	9.6167	31.280575	0.000299	2.993600	0.507130	0.011974
 483	2.4100e-01	9.6368	31.310509	0.000150	1.496800	0.253565	0.005987
 484	2.4150e-01	9.6564	31.378501	0.000340	3.399874	0.575954	0.013598
 485	2.4200e-01	9.6771	31.434093	0.000278	2.779771	0.470906	0.011118
 486	2.4250e-01	9.6960	31.496098	0.000310	3.100514	0.525241	0.012401
 487	2.4300e-01	9.7174	31.553400	0.000287	2.865302	0.485395	0.011460
 488	2.4350e-01	9.7348	31.616688	0.000316	3.164662	0.536108	0.012658
 489	2.4400e-01	9.7559	31.676556	0.000299	2.993600	0.507130	0.011974
 490	2.4450e-01	9.7778	31.720174	0.000218	2.181051	0.369480	0.008724
 491	2.4500e-01	9.7974	31.785173	0.000325	3.250194	0.550598	0.013000
 492	2.4550e-01	9.8181	31.849744	0.000323	3.228811	0.546975	0.012914
 493	2.4600e-01	9.8364	31.901915	0.000261	2.608708	0.441927	0.010434
 494	2.4650e-01	9.8566	31.945960	0.000220	2.202434	0.373102	0.008809
 495	2.4700e-01	9.8737	32.029775	0.000419	4.191039	0.709981	0.016763
 496	2.4750e-01	9.8975	32.068688	0.000195	1.945840	0.329634	0.007783
 497	2.4800e-01	9.9182	32.120859	0.000261	2.608708	0.441927	0.010434
 498	2.4850e-01	9.9353	32.196548	0.000378	3.784765	0.641157	0.015138
 499	2.4900e-01	9.9561	32.249574	0.000265	2.651474	0.449172	0.010605
 500	2.4950e-01	9.9792	32.309441	0.000299	2.993600	0.507130	0.011974
 501	2.5000e-01	9.9969	32.346645	0.000186	1.860308	0.315145	0.007441
 502	2.5050e-01	9.9774	32.306448	0.000201	2.009988	0.340501	-0.008039
 503	2.5100e-01	9.9554	32.272666	0.000169	1.689245	0.286166	-0.006756
 504	2.5150e-01	9.9371	32.238883	0.000169	1.689245	0.286166	-0.006756
 505	2.5200e-01	9.9139	32.212371	0.000133	1.325737	0.224586	-0.005303
 506	2.5250e-01	9.8969	32.218357	-0.000030	-0.299360	-0.050713	0.001197
 507	2.5300e-01	9.8743	32.178160	0.000201	2.009988	0.340501	-0.008039
 508	2.5350e-01	9.8547	32.134115	0.000220	2.202434	0.373102	-0.008809
 509	2.5400e-01	9.8364	32.096056	0.000190	1.903074	0.322389	-0.007612
 510	2.5450e-01	9.8126	32.072109	0.000120	1.197440	0.202852	-0.004789
 511	2.5500e-01	9.7986	32.063557	0.000043	0.427657	0.072447	-0.001711
 512	2.5550e-01	9.7751	31.992143	0.000357	3.570937	0.604933	-0.014283
 513	2.5600e-01	9.7589	31.987440	0.000024	0.235211	0.039846	-0.000941
 514	2.5650e-01	9.7339	31.947670	0.000199	1.988605	0.336879	-0.007954
 515	2.5700e-01	9.7150	31.907901	0.000199	1.988605	0.336879	-0.007954
 516	2.5750e-01	9.6936	31.907474	0.000002	0.021383	0.003622	-0.000086
 517	2.5800e-01	9.6796	31.892079	0.000077	0.769783	0.130405	-0.003079
 518	2.5850e-01	9.6564	31.823659	0.000342	3.421257	0.579577	-0.013684
 519	2.5900e-01	9.6326	31.806554	0.000086	0.855314	0.144894	-0.003421
 520	2.5950e-01	9.6173	31.773199	0.000167	1.667863	0.282544	-0.006671
 521	2.6000e-01	9.5953	31.717608	0.000278	2.779771	0.470906	-0.011118
 522	2.6050e-01	9.5746	31.697937	0.000098	0.983611	0.166628	-0.003934
 523	2.6100e-01	9.5538	31.680405	0.000088	0.876697	0.148516	-0.003507
 524	2.6150e-01	9.5367	31.645767	0.000173	1.732011	0.293411	-0.006928
 525	2.6200e-01	9.5154	31.615406	0.000152	1.518183	0.257187	-0.006072
 526	2.6250e-01	9.4958	31.565801	0.000248	2.480411	0.420193	-0.009921
 527	2.6300e-01	9.4751	31.534584	0.000156	1.560948	0.264432	-0.006243
 528	2.6350e-01	9.4531	31.510637	0.000120	1.197440	0.202852	-0.004789
 529	2.6400e-01	9.4354	31.475145	0.000177	1.774777	0.300655	-0.007099
 530	2.6450e-01	9.4135	31.437086	0.000190	1.903074	0.322389	-0.007612
 531	2.6500e-01	9.3951	31.396889	0.000201	2.009988	0.340501	-0.008039
 532	2.6550e-01	9.3762	31.363107	0.000169	1.689245	0.286166	-0.006756
 533	2.6600e-01	9.3549	31.323765	0.000197	1.967223	0.333257	-0.007868
 534	2.6650e-01	9.3390	31.323338	0.000002	0.021383	0.003622	-0.000086
 535	2.6700e-01	9.3170	31.277154	0.000231	2.309348	0.391214	-0.009237
 536	2.6750e-01	9.2966	31.211727	0.000327	3.271577	0.554220	-0.013085
 537	2.6800e-01	9.2755	31.188636	0.000115	1.154674	0.195607	-0.004618
 538	2.6850e-01	9.2566	31.161268	0.000137	1.368503	0.231831	-0.005474
 539	2.6900e-01	9.2352	31.110380	0.000254	2.544560	0.431060	-0.010177
 540	2.6950e-01	9.2151	31.090709	0.000098	0.983611	0.166628	-0.003934
 541	2.7000e-01	9.1949	31.047947	0.000214	2.138285	0.362235	-0.008553
 542	2.7050e-01	9.1760	31.026138	0.000109	1.090526	0.184740	-0.004362
 543	2.7100e-01	9.1534	30.982520	0.000218	2.181051	0.369480	-0.008724
 544	2.7150e-01	9.1345	30.941468	0.000205	2.052754	0.347746	-0.008210
 545	2.7200e-01	9.1144	30.929067	0.000062	0.620103	0.105048	-0.002480
 546	2.7250e-01	9.0942	30.862785	0.000331	3.314342	0.561465	-0.013256
 547	2.7300e-01	9.0741	30.845680	0.000086	0.855314	0.144894	-0.003421
 548	2.7350e-01	9.0533	30.804628	0.000205	2.052754	0.347746	-0.008210
 549	2.7400e-01	9.0344	30.766569	0.000190	1.903074	0.322389	-0.007612
 550	2.7450e-01	9.0155	30.711406	0.000276	2.758388	0.467284	-0.011033
 551	2.7500e-01	8.9960	30.667788	0.000218	2.181051	0.369480	-0.008724
 552	2.7550e-01	8.9722	30.654104	0.000068	0.684251	0.115915	-0.002737
 553	2.7600e-01	8.9587	30.623743	0.000152	1.518183	0.257187	-0.006072
 554	2.7650e-01	8.9355	30.582691	0.000205	2.052754	0.347746	-0.008210
 555	2.7700e-01	8.9160	30.521113	0.000308	3.079131	0.521619	-0.012316
 556	2.7750e-01	8.8940	30.495883	0.000126	1.261588	0.213719	-0.005046
 557	2.7800e-01	8.8745	30.447561	0.000242	2.416263	0.409326	-0.009664
 558	2.7850e-01	8.8556	30.436870	0.000053	0.534571	0.090559	-0.002138
 559	2.7900e-01	8.8391	30.385983	0.000254	2.544560	0.431060	-0.010177
 560	2.7950e-01	8.8159	30.370588	0.000077	0.769783	0.130405	-0.003079
 561	2.8000e-01	8.7970	30.306872	0.000319	3.186045	0.539731	-0.012743
 562	2.8050e-01	8.7750	30.280360	0.000133	1.325737	0.224586	-0.005303
 563	2.8100e-01	8.7549	30.236314	0.000220	2.202434	0.373102	-0.008809
 564	2.8150e-01	8.7347	30.202959	0.000167	1.667863	0.282544	-0.006671
 565	2.8200e-01	8.7177	30.155493	0.000237	2.373497	0.402081	-0.009493
 566	2.8250e-01	8.6960	30.106744	0.000244	2.437645	0.412948	-0.009750
 567	2.8300e-01	8.6780	30.068685	0.000190	1.903074	0.322389	-0.007612
 568	2.8350e-01	8.6554	30.022501	0.000231	2.309348	0.391214	-0.009237
 569	2.8400e-01	8.6377	30.001120	0.000107	1.069143	0.181118	-0.004276
 570	2.8450e-01	8.6169	29.961779	0.000197	1.967223	0.333257	-0.007868
 571	2.8500e-01	8.5962	29.922437	0.000197	1.967223	0.333257	-0.007868
 572	2.8550e-01	8.5730	29.885661	0.000184	1.838925	0.311522	-0.007355
 573	2.8600e-01	8.5547	29.839478	0.000231	2.309348	0.391214	-0.009237
 574	2.8650e-01	8.5345	29.818097	0.000107	1.069143	0.181118	-0.004276
 575	2.8700e-01	8.5144	29.772768	0.000227	2.266583	0.383969	-0.009066
 576	2.8750e-01	8.4961	29.742835	0.000150	1.496800	0.253565	-0.005987
 577	2.8800e-01	8.4772	29.697506	0.000227	2.266583	0.383969	-0.009066
 578	2.8850e-01	8.4552	29.634218	0.000316	3.164662	0.536108	-0.012658
 579	2.8900e-01	8.4357	29.611981	0.000111	1.111908	0.188362	-0.004447
 580	2.8950e-01	8.4137	29.571357	0.000203	2.031371	0.344124	-0.008125
 581	2.9000e-01	8.3984	29.535009	0.000182	1.817543	0.307900	-0.007270
 582	2.9050e-01	8.3774	29.494812	0.000201	2.009988	0.340501	-0.008039
 583	2.9100e-01	8.3545	29.463595	0.000156	1.560948	0.264432	-0.006243
 584	2.9150e-01	8.3362	29.406293	0.000287	2.865302	0.485395	-0.011460
 585	2.9200e-01	8.3148	29.349847	0.000282	2.822537	0.478151	-0.011289
 586	2.9250e-01	8.2953	29.316065	0.000169	1.689245	0.286166	-0.006756
 587	2.9300e-01	8.2794	29.270309	0.000229	2.287965	0.387592	-0.009151
 588	2.9350e-01	8.2556	29.251493	0.000094	0.940846	0.159384	-0.003763
 589	2.9400e-01	8.2349	29.192053	0.000297	2.972217	0.503507	-0.011888
 590	2.9450e-01	8.2117	29.162547	0.000148	1.475417	0.249942	-0.005901
 591	2.9500e-01	8.1934	29.121923	0.000203	2.031371	0.344124	-0.008125
 592	2.9550e-01	8.1763	29.100969	0.000105	1.047760	0.177495	-0.004191
 593	2.9600e-01	8.1549	29.047943	0.000265	2.651474	0.449172	-0.010605
 594	2.9650e-01	8.1360	28.980806	0.000336	3.357108	0.568710	-0.013427
 595	2.9700e-01	8.1152	28.960280	0.000103	1.026377	0.173873	-0.004105
 596	2.9750e-01	8.0981	28.888867	0.000357	3.570937	0.604933	-0.014283
 597	2.9800e-01	8.0750	28.856795	0.000160	1.603714	0.271677	-0.006414
 598	2.9850e-01	8.0566	28.814888	0.000210	2.095520	0.354991	-0.008381
 599	2.9900e-01	8.0365	28.758441	0.000282	2.822537	0.478151	-0.011289
 600	2.9950e-01	8.0157	28.745612	0.000064	0.641486	0.108671	-0.002566
 601	3.0000e-01	7.9938	28.685317	0.000301	3.014982	0.510752	-0.012059
 602	3.0050e-01	7.9755	28.661370	0.000120	1.197440	0.202852	-0.004789
 603	3.0100e-01	7.9535	28.623739	0.000188	1.881691	0.318767	-0.007526
 604	3.0150e-01	7.9346	28.567720	0.000280	2.801154	0.474528	-0.011204
 605	3.0200e-01	7.9138	28.531800	0.000180	1.796160	0.304278	-0.007184
 606	3.0250e-01	7.8961	28.492886	0.000195	1.945840	0.329634	-0.007783
 607	3.0300e-01	7.8760	28.435156	0.000289	2.886685	0.489018	-0.011546
 608	3.0350e-01	7.8534	28.397525	0.000188	1.881691	0.318767	-0.007526
 609	3.0400e-01	7.8363	28.349631	0.000239	2.394880	0.405704	-0.009579
 610	3.0450e-01	7.8143	28.292757	0.000284	2.843920	0.481773	-0.011375
 611	3.0500e-01	7.7979	28.270093	0.000113	1.133291	0.191985	-0.004533
 612	3.0550e-01	7.7747	28.219206	0.000254	2.544560	0.431060	-0.010177
 613	3.0600e-01	7.7533	28.165753	0.000267	2.672857	0.452794	-0.010691
 614	3.0650e-01	7.7344	28.122135	0.000218	2.181051	0.369480	-0.008724
 615	3.0700e-01	7.7130	28.087925	0.000171	1.710628	0.289788	-0.006842
 616	3.0750e-01	7.6968	28.033189	0.000274	2.737005	0.463661	-0.010947
 617	3.0800e-01	7.6724	28.003683	0.000148	1.475417	0.249942	-0.005901
 618	3.0850e-01	7.6544	27.953223	0.000252	2.523177	0.427438	-0.010092
 619	3.0900e-01	7.6367	27.921151	0.000160	1.603714	0.271677	-0.006414
 620	3.0950e-01	7.6154	27.863421	0.000289	2.886685	0.489018	-0.011546
 621	3.1000e-01	7.5946	27.810824	0.000263	2.630091	0.445549	-0.010520
 622	3.1050e-01	7.5760	27.773193	0.000188	1.881691	0.318767	-0.007526
 623	3.1100e-01	7.5525	27.750101	0.000115	1.154674	0.195607	-0.004618
 624	3.1150e-01	7.5348	27.692799	0.000287	2.865302	0.485395	-0.011460
 625	3.1200e-01	7.5153	27.640629	0.000261	2.608708	0.441927	-0.010434
 626	3.1250e-01	7.4951	27.591879	0.000244	2.437645	0.412948	-0.009750
 627	3.1300e-01	7.4750	27.553393	0.000192	1.924457	0.326012	-0.007697
 628	3.1350e-01	7.4554	27.496947	0.000282	2.822537	0.478151	-0.011289
 629	3.1400e-01	7.4374	27.453756	0.000216	2.159668	0.365858	-0.008638
 630	3.1450e-01	7.4155	27.424250	0.000148	1.475417	0.249942	-0.005901
 631	3.1500e-01	7.3962	27.360962	0.000316	3.164662	0.536108	-0.012658
 632	3.1550e-01	7.3761	27.304943	0.000280	2.801154	0.474528	-0.011204
 633	3.1600e-01	7.3575	27.260470	0.000222	2.223817	0.376725	-0.008895
 634	3.1650e-01	7.3364	27.214714	0.000229	2.287965	0.387592	-0.009151
 635	3.1700e-01	7.3145	27.155274	0.000297	2.972217	0.503507	-0.011888
 636	3.1750e-01	7.2968	27.119353	0.000180	1.796160	0.304278	-0.007184
 637	3.1800e-01	7.2774	27.083861	0.000177	1.774777	0.300655	-0.007099
 638	3.1850e-01	7.2583	27.037677	0.000231	2.309348	0.391214	-0.009237
 639	3.1900e-01	7.2339	27.011164	0.000133	1.325737	0.224586	-0.005303
 640	3.1950e-01	7.2157	26.926067	0.000426	4.255188	0.720848	-0.017019
 641	3.2000e-01	7.1960	26.885015	0.000205	2.052754	0.347746	-0.008210
 642	3.2050e-01	7.1777	26.847811	0.000186	1.860308	0.315145	-0.007441
 643	3.2100e-01	7.1576	26.794786	0.000265	2.651474	0.449172	-0.010605
 644	3.2150e-01	7.1381	26.752023	0.000214	2.138285	0.362235	-0.008553
 645	3.2200e-01	7.1143	26.713537	0.000192	1.924457	0.326012	-0.007697
 646	3.2250e-01	7.0959	26.665643	0.000239	2.394880	0.405704	-0.009579
 647	3.2300e-01	7.0746	26.614328	0.000257	2.565943	0.434682	-0.010263
 648	3.2350e-01	7.0557	26.551895	0.000312	3.121897	0.528864	-0.012487
 649	3.2400e-01	7.0352	26.516402	0.000177	1.774777	0.300655	-0.007099
 650	3.2450e-01	7.0160	26.460383	0.000280	2.801154	0.474528	-0.011204
 651	3.2500e-01	6.9946	26.423180	0.000186	1.860308	0.315145	-0.007441
 652	3.2550e-01	6.9742	26.357753	0.000327	3.271577	0.554220	-0.013085
 653	3.2600e-01	6.9556	26.328247	0.000148	1.475417	0.249942	-0.005901
 654	3.2650e-01	6.9373	26.286339	0.000210	2.095520	0.354991	-0.008381
 655	3.2700e-01	6.9159	26.240584	0.000229	2.287965	0.387592	-0.009151
 656	3.2750e-01	6.8964	26.175584	0.000325	3.250194	0.550598	-0.013000
 657	3.2800e-01	6.8768	26.126835	0.000244	2.437645	0.412948	-0.009750
 658	3.2850e-01	6.8536	26.092625	0.000171	1.710628	0.289788	-0.006842
 659	3.2900e-01	6.8365	26.037462	0.000276	2.758388	0.467284	-0.011033
 660	3.2950e-01	6.8182	25.972462	0.000325	3.250194	0.550598	-0.013000
 661	3.3000e-01	6.7934	25.925424	0.000235	2.352114	0.398459	-0.009408
 662	3.3050e-01	6.7755	25.880095	0.000227	2.266583	0.383969	-0.009066
 663	3.3100e-01	6.7569	25.843320	0.000184	1.838925	0.311522	-0.007355
 664	3.3150e-01	6.7365	25.792860	0.000252	2.523177	0.427438	-0.010092
 665	3.3200e-01	6.7157	25.727433	0.000327	3.271577	0.554220	-0.013085
 666	3.3250e-01	6.6957	25.671414	0.000280	2.801154	0.474528	-0.011204
 667	3.3300e-01	6.6760	25.628652	0.000214	2.138285	0.362235	-0.008553
 668	3.3350e-01	6.6583	25.577337	0.000257	2.565943	0.434682	-0.010263
 669	3.3400e-01	6.6364	25.539278	0.000190	1.903074	0.322389	-0.007612
 670	3.3450e-01	6.6138	25.478983	0.000301	3.014982	0.510752	-0.012059
 671	3.3500e-01	6.5979	25.439214	0.000199	1.988605	0.336879	-0.007954
 672	3.3550e-01	6.5771	25.388754	0.000252	2.523177	0.427438	-0.010092
 673	3.3600e-01	6.5564	25.344709	0.000220	2.202434	0.373102	-0.008809
 674	3.3650e-01	6.5344	25.289973	0.000274	2.737005	0.463661	-0.010947
 675	3.3700e-01	6.5158	25.240368	0.000248	2.480411	0.420193	-0.009921
 676	3.3750e-01	6.4978	25.182211	0.000291	2.908068	0.492640	-0.011631
 677	3.3800e-01	6.4746	25.137310	0.000225	2.245200	0.380347	-0.008980
 678	3.3850e-01	6.4514	25.088133	0.000246	2.459028	0.416571	-0.009835
 679	3.3900e-01	6.4363	25.012016	0.000381	3.806148	0.644779	-0.015223
 680	3.3950e-01	6.4166	24.983793	0.000141	1.411268	0.239075	-0.005645
 681	3.4000e-01	6.3928	24.925208	0.000293	2.929451	0.496262	-0.011717
 682	3.4050e-01	6.3770	24.860637	0.000323	3.228811	0.546975	-0.012914
 683	3.4100e-01	6.3538	24.800342	0.000301	3.014982	0.510752	-0.012059
 684	3.4150e-01	6.3376	24.769553	0.000154	1.539566	0.260809	-0.006158
 685	3.4200e-01	6.3171	24.719948	0.000248	2.480411	0.420193	-0.009921
 686	3.4250e-01	6.2964	24.710113	0.000049	0.491806	0.083314	-0.001967
 687	3.4300e-01	6.2756	24.622022	0.000440	4.404868	0.746205	-0.017618
 688	3.4350e-01	6.2592	24.558306	0.000319	3.186045	0.539731	-0.012743
 689	3.4400e-01	6.2357	24.489030	0.000346	3.464022	0.586821	-0.013855
 690	3.4450e-01	6.2152	24.456103	0.000165	1.646480	0.278921	-0.006585
 691	3.4500e-01	6.1984	24.415906	0.000201	2.009988	0.340501	-0.008039
 692	3.4550e-01	6.1746	24.353046	0.000314	3.143280	0.532486	-0.012572
 693	3.4600e-01	6.1581	24.299165	0.000269	2.694240	0.456417	-0.010776
 694	3.4650e-01	6.1362	24.243146	0.000280	2.801154	0.474528	-0.011204
 695	3.4700e-01	6.1158	24.181140	0.000310	3.100514	0.525241	-0.012401
 696	3.4750e-01	6.0931	24.136667	0.000222	2.223817	0.376725	-0.008895
 697	3.4800e-01	6.0754	24.080221	0.000282	2.822537	0.478151	-0.011289
 698	3.4850e-01	6.0577	24.043445	0.000184	1.838925	0.311522	-0.007355
 699	3.4900e-01	6.0364	23.991702	0.000259	2.587325	0.438305	-0.010349
 700	3.4950e-01	6.0162	23.921999	0.000349	3.485405	0.590444	-0.013941
 701	3.5000e-01	5.9952	23.871967	0.000250	2.501794	0.423815	-0.010006
 702	3.5050e-01	5.9778	23.824073	0.000239	2.394880	0.405704	-0.009579
 703	3.5100e-01	5.9583	23.762067	0.000310	3.100514	0.525241	-0.012401
 704	3.5150e-01	5.9360	23.711608	0.000252	2.523177	0.427438	-0.010092
 705	3.5200e-01	5.9161	23.662858	0.000244	2.437645	0.412948	-0.009750
 706	3.5250e-01	5.8948	23.602563	0.000301	3.014982	0.510752	-0.012059
 707	3.5300e-01	5.8762	23.560656	0.000210	2.095520	0.354991	-0.008381
 708	3.5350e-01	5.8527	23.500361	0.000301	3.014982	0.510752	-0.012059
 709	3.5400e-01	5.8356	23.440066	0.000301	3.014982	0.510752	-0.012059
 710	3.5450e-01	5.8139	23.403290	0.000184	1.838925	0.311522	-0.007355
 711	3.5500e-01	5.7953	23.343422	0.000299	2.993600	0.507130	-0.011974
 712	3.5550e-01	5.7764	23.276285	0.000336	3.357108	0.568710	-0.013427
 713	3.5600e-01	5.7562	23.222404	0.000269	2.694240	0.456417	-0.010776
 714	3.5650e-01	5.7352	23.174510	0.000239	2.394880	0.405704	-0.009579
 715	3.5700e-01	5.7153	23.110794	0.000319	3.186045	0.539731	-0.012743
 716	3.5750e-01	5.6976	23.052209	0.000293	2.929451	0.496262	-0.011717
 717	3.5800e-01	5.6744	23.008592	0.000218	2.181051	0.369480	-0.008724
 718	3.5850e-01	5.6555	22.946158	0.000312	3.121897	0.528864	-0.012487
 719	3.5900e-01	5.6384	22.873462	0.000364	3.635085	0.615800	-0.014539
 720	3.5950e-01	5.6171	22.833265	0.000201	2.009988	0.340501	-0.008039
 721	3.6000e-01	5.5988	22.772543	0.000304	3.036365	0.514374	-0.012145
 722	3.6050e-01	5.5756	22.730635	0.000210	2.095520	0.354991	-0.008381
 723	3.6100e-01	5.5554	22.665636	0.000325	3.250194	0.550598	-0.013000
 724	3.6150e-01	5.5365	22.613466	0.000261	2.608708	0.441927	-0.010434
 725	3.6200e-01	5.5157	22.574124	0.000197	1.967223	0.333257	-0.007868
 726	3.6250e-01	5.4956	22.494159	0.000400	3.998594	0.677380	-0.015993
 727	3.6300e-01	5.4742	22.435146	0.000295	2.950834	0.499885	-0.011802
 728	3.6350e-01	5.4572	22.380838	0.000272	2.715622	0.460039	-0.010862
 729	3.6400e-01	5.4349	22.326102	0.000274	2.737005	0.463661	-0.010947
 730	3.6450e-01	5.4141	22.262386	0.000319	3.186045	0.539731	-0.012743
 731	3.6500e-01	5.3986	22.201663	0.000304	3.036365	0.514374	-0.012145
 732	3.6550e-01	5.3741	22.162749	0.000195	1.945840	0.329634	-0.007783
 733	3.6600e-01	5.3534	22.100316	0.000312	3.121897	0.528864	-0.012487
 734	3.6650e-01	5.3345	22.046862	0.000267	2.672857	0.452794	-0.010691
 735	3.6700e-01	5.3146	21.987423	0.000297	2.972217	0.503507	-0.011888
 736	3.6750e-01	5.2942	21.937390	0.000250	2.501794	0.423815	-0.010006
 737	3.6800e-01	5.2747	21.856569	0.000404	4.041359	0.684625	-0.016164
 738	3.6850e-01	5.2545	21.819366	0.000186	1.860308	0.315145	-0.007441
 739	3.6900e-01	5.2365	21.741538	0.000389	3.891679	0.659268	-0.015566
 740	3.6950e-01	5.2139	21.664993	0.000383	3.827531	0.648401	-0.015309
 741	3.7000e-01	5.1955	21.614533	0.000252	2.523177	0.427438	-0.010092
 742	3.7050e-01	5.1761	21.562791	0.000259	2.587325	0.438305	-0.010349
 743	3.7100e-01	5.1546	21.515752	0.000235	2.352114	0.398459	-0.009408
 744	3.7150e-01	5.1352	21.443483	0.000361	3.613702	0.612178	-0.014454
 745	3.7200e-01	5.1149	21.400721	0.000214	2.138285	0.362235	-0.008553
 746	3.7250e-01	5.0940	21.337860	0.000314	3.143280	0.532486	-0.012572
 747	3.7300e-01	5.0735	21.280986	0.000284	2.843920	0.481773	-0.011375
 748	3.7350e-01	5.0546	21.215559	0.000327	3.271577	0.554220	-0.013085
 749	3.7400e-01	5.0342	21.152698	0.000314	3.143280	0.532486	-0.012572
 750	3.7450e-01	5.0197	21.090692	0.000310	3.100514	0.525241	-0.012401
 751	3.7500e-01	4.9969	21.026121	0.000323	3.228811	0.546975	-0.012914
 752	3.7550e-01	4.9768	20.964971	0.000306	3.057748	0.517997	-0.012230
 753	3.7600e-01	4.9573	20.922208	0.000214	2.138285	0.362235	-0.008553
 754	3.7650e-01	4.9347	20.846518	0.000378	3.784765	0.641157	-0.015138
 755	3.7700e-01	4.9164	20.801618	0.000225	2.245200	0.380347	-0.008980
 756	3.7750e-01	4.8953	20.733625	0.000340	3.399874	0.575954	-0.013598
 757	3.7800e-01	4.8764	20.687869	0.000229	2.287965	0.387592	-0.009151
 758	3.7850e-01	4.8547	20.628429	0.000297	2.972217	0.503507	-0.011888
 759	3.7900e-01	4.8364	20.558299	0.000351	3.506788	0.594066	-0.014026
 760	3.7950e-01	4.8178	20.498859	0.000297	2.972217	0.503507	-0.011888
 761	3.8000e-01	4.7945	20.439847	0.000295	2.950834	0.499885	-0.011802
 762	3.8050e-01	4.7769	20.381690	0.000291	2.908068	0.492640	-0.011631
 763	3.8100e-01	4.7556	20.319684	0.000310	3.100514	0.525241	-0.012401
 764	3.8150e-01	4.7357	20.232021	0.000438	4.383485	0.742582	-0.017533
 765	3.8200e-01	4.7150	20.190114	0.000210	2.095520	0.354991	-0.008381
 766	3.8250e-01	4.6959	20.124687	0.000327	3.271577	0.554220	-0.013085
 767	3.8300e-01	4.6765	20.067813	0.000284	2.843920	0.481773	-0.011375
 768	3.8350e-01	4.6588	19.981432	0.000432	4.319337	0.731715	-0.017276
 769	3.8400e-01	4.6362	19.903605	0.000389	3.891679	0.659268	-0.015566
 770	3.8450e-01	4.6161	19.877092	0.000133	1.325737	0.224586	-0.005303
 771	3.8500e-01	4.5926	19.801402	0.000378	3.784765	0.641157	-0.015138
 772	3.8550e-01	4.5764	19.753508	0.000239	2.394880	0.405704	-0.009579
 773	3.8600e-01	4.5557	19.688081	0.000327	3.271577	0.554220	-0.013085
 774	3.8650e-01	4.5367	19.632490	0.000278	2.779771	0.470906	-0.011118
 775	3.8700e-01	4.5161	19.570912	0.000308	3.079131	0.521619	-0.012316
 776	3.8750e-01	4.4968	19.510617	0.000301	3.014982	0.510752	-0.012059
 777	3.8800e-01	4.4756	19.427230	0.000417	4.169657	0.706359	-0.016677
 778	3.8850e-01	4.4556	19.374205	0.000265	2.651474	0.449172	-0.010605
 779	3.8900e-01	4.4351	19.322462	0.000259	2.587325	0.438305	-0.010349
 780	3.8950e-01	4.4160	19.247627	0.000374	3.742000	0.633912	-0.014967
 781	3.9000e-01	4.3933	19.190753	0.000284	2.843920	0.481773	-0.011375
 782	3.9050e-01	4.3747	19.100952	0.000449	4.490399	0.760694	-0.017960
 783	3.9100e-01	4.3552	19.060755	0.000201	2.009988	0.340501	-0.008039
 784	3.9150e-01	4.3372	18.982500	0.000391	3.913062	0.662891	-0.015651
 785	3.9200e-01	4.3127	18.922632	0.000299	2.993600	0.507130	-0.011974
 786	3.9250e-01	4.2963	18.875166	0.000237	2.373497	0.402081	-0.009493
 787	3.9300e-01	4.2786	18.787075	0.000440	4.404868	0.746205	-0.017618
 788	3.9350e-01	4.2555	18.739609	0.000237	2.373497	0.402081	-0.009493
 789	3.9400e-01	4.2346	18.668195	0.000357	3.570937	0.604933	-0.014283
 790	3.9450e-01	4.2133	18.598065	0.000351	3.506788	0.594066	-0.014026
 791	3.9500e-01	4.1919	18.526651	0.000357	3.570937	0.604933	-0.014283
 792	3.9550e-01	4.1768	18.469349	0.000287	2.865302	0.485395	-0.011460
 793	3.9600e-01	4.1534	18.404778	0.000323	3.228811	0.546975	-0.012914
 794	3.9650e-01	4.1337	18.342345	0.000312	3.121897	0.528864	-0.012487
 795	3.9700e-01	4.1174	18.270931	0.000357	3.570937	0.604933	-0.014283
 796	3.9750e-01	4.0964	18.218333	0.000263	2.630091	0.445549	-0.010520
 797	3.9800e-01	4.0762	18.143927	0.000372	3.720617	0.630290	-0.014881
 798	3.9850e-01	4.0569	18.081921	0.000310	3.100514	0.525241	-0.012401
 799	3.9900e-01	4.0335	18.019915	0.000310	3.100514	0.525241	-0.012401
 800	3.9950e-01	4.0167	17.937384	0.000413	4.126891	0.699114	-0.016506
 801	4.0000e-01	3.9967	17.878371	0.000295	2.950834	0.499885	-0.011802
 802	4.0050e-01	3.9758	17.809524	0.000344	3.442640	0.583199	-0.013770
 803	4.0100e-01	3.9548	17.765906	0.000218	2.181051	0.369480	-0.008724
 804	4.0150e-01	3.9334	17.687223	0.000393	3.934445	0.666513	-0.015737
 805	4.0200e-01	3.9125	17.634625	0.000263	2.630091	0.445549	-0.010520
 806	4.0250e-01	3.8953	17.540120	0.000473	4.725611	0.800540	-0.018901
 807	4.0300e-01	3.8773	17.485811	0.000272	2.715622	0.460039	-0.010862
 808	4.0350e-01	3.8562	17.420385	0.000327	3.271577	0.554220	-0.013085
 809	4.0400e-01	3.8306	17.345978	0.000372	3.720617	0.630290	-0.014881
 810	4.0450e-01	3.8129	17.270288	0.000378	3.784765	0.641157	-0.015138
 811	4.0500e-01	3.7946	17.199730	0.000353	3.528171	0.597688	-0.014112
 812	4.0550e-01	3.7729	17.151836	0.000239	2.394880	0.405704	-0.009579
 813	4.0600e-01	3.7576	17.077002	0.000374	3.742000	0.633912	-0.014967
 814	4.0650e-01	3.7357	17.003022	0.000370	3.699234	0.626667	-0.014796
 815	4.0700e-01	3.7171	16.958122	0.000225	2.245200	0.380347	-0.008980
 816	4.0750e-01	3.6981	16.849505	0.000543	5.431245	0.920078	-0.021723
 817	4.0800e-01	3.6752	16.801183	0.000242	2.416263	0.409326	-0.009664
 818	4.0850e-01	3.6555	16.746875	0.000272	2.715622	0.460039	-0.010862
 819	4.0900e-01	3.6355	16.669475	0.000387	3.870297	0.655646	-0.015480
 820	4.0950e-01	3.6137	16.610890	0.000293	2.929451	0.496262	-0.011717
 821	4.1000e-01	3.5919	16.528358	0.000413	4.126891	0.699114	-0.016506
 822	4.1050e-01	3.5742	16.445399	0.000415	4.148274	0.702737	-0.016592
 823	4.1100e-01	3.5548	16.381255	0.000321	3.207428	0.543353	-0.012829
 824	4.1150e-01	3.5349	16.326519	0.000274	2.737005	0.463661	-0.010947
 825	4.1200e-01	3.5156	16.244415	0.000411	4.105508	0.695492	-0.016421
 826	4.1250e-01	3.4943	16.186686	0.000289	2.886685	0.489018	-0.011546
 827	4.1300e-01	3.4766	16.121687	0.000325	3.250194	0.550598	-0.013000
 828	4.1350e-01	3.4529	16.036589	0.000426	4.255188	0.720848	-0.017019
 829	4.1400e-01	3.4375	15.969880	0.000334	3.335725	0.565087	-0.013342
 830	4.1450e-01	3.4149	15.891197	0.000393	3.934445	0.666513	-0.015737
 831	4.1500e-01	3.3954	15.822349	0.000344	3.442640	0.583199	-0.013770
 832	4.1550e-01	3.3752	15.760343	0.000310	3.100514	0.525241	-0.012401
 833	4.1600e-01	3.3540	15.689358	0.000355	3.549554	0.601311	-0.014197
 834	4.1650e-01	3.3363	15.614095	0.000376	3.763382	0.637534	-0.015052
 835	4.1700e-01	3.3148	15.533274	0.000404	4.041359	0.684625	-0.016164
 836	4.1750e-01	3.2944	15.463571	0.000349	3.485405	0.590444	-0.013941
 837	4.1800e-01	3.2773	15.403276	0.000301	3.014982	0.510752	-0.012059
 838	4.1850e-01	3.2550	15.348540	0.000274	2.737005	0.463661	-0.010947
 839	4.1900e-01	3.2349	15.271568	0.000385	3.848914	0.652024	-0.015395
 840	4.1950e-01	3.2153	15.191174	0.000402	4.019977	0.681002	-0.016079
 841	4.2000e-01	3.1958	15.112063	0.000396	3.955828	0.670135	-0.015822
 842	4.2050e-01	3.1737	15.045781	0.000331	3.314342	0.561465	-0.013256
 843	4.2100e-01	3.1554	14.981638	0.000321	3.207428	0.543353	-0.012829
 844	4.2150e-01	3.1348	14.892264	0.000447	4.469017	0.757072	-0.017875
 845	4.2200e-01	3.1153	14.852067	0.000201	2.009988	0.340501	-0.008039
 846	4.2250e-01	3.0936	14.756279	0.000479	4.789759	0.811407	-0.019158
 847	4.2300e-01	3.0731	14.707530	0.000244	2.437645	0.412948	-0.009750
 848	4.2350e-01	3.0537	14.610031	0.000488	4.875291	0.825897	-0.019500
 849	4.2400e-01	3.0353	14.547598	0.000312	3.121897	0.528864	-0.012487
 850	4.2450e-01	3.0136	14.474902	0.000364	3.635085	0.615800	-0.014539
 851	4.2500e-01	2.9938	14.373982	0.000505	5.046354	0.854875	-0.020184
 852	4.2550e-01	2.9761	14.309838	0.000321	3.207428	0.543353	-0.012829
 853	4.2600e-01	2.9559	14.252109	0.000289	2.886685	0.489018	-0.011546
 854	4.2650e-01	2.9346	14.161025	0.000455	4.554548	0.771561	-0.018217
 855	4.2700e-01	2.9116	14.110137	0.000254	2.544560	0.431060	-0.010177
 856	4.2750e-01	2.8949	14.034875	0.000376	3.763382	0.637534	-0.015052
 857	4.2800e-01	2.8720	13.948923	0.000430	4.297954	0.728093	-0.017191
 858	4.2850e-01	2.8555	13.879647	0.000346	3.464022	0.586821	-0.013855
 859	4.2900e-01	2.8377	13.789846	0.000449	4.490399	0.760694	-0.017960
 860	4.2950e-01	2.8131	13.742807	0.000235	2.352114	0.398459	-0.009408
 861	4.3000e-01	2.7991	13.657282	0.000428	4.276571	0.724471	-0.017105
 862	4.3050e-01	2.7784	13.588435	0.000344	3.442640	0.583199	-0.013770
 863	4.3100e-01	2.7566	13.502054	0.000432	4.319337	0.731715	-0.017276
 864	4.3150e-01	2.7357	13.424654	0.000387	3.870297	0.655646	-0.015480
 865	4.3200e-01	2.7142	13.365642	0.000295	2.950834	0.499885	-0.011802
 866	4.3250e-01	2.6954	13.271137	0.000473	4.725611	0.800540	-0.018901
 867	4.3300e-01	2.6721	13.224098	0.000235	2.352114	0.398459	-0.009408
 868	4.3350e-01	2.6559	13.139000	0.000426	4.255188	0.720848	-0.017019
 869	4.3400e-01	2.6335	13.051337	0.000438	4.383485	0.742582	-0.017533
 870	4.3450e-01	2.6147	12.963674	0.000438	4.383485	0.742582	-0.017533
 871	4.3500e-01	2.5935	12.916635	0.000235	2.352114	0.398459	-0.009408
 872	4.3550e-01	2.5748	12.796045	0.000603	6.029965	1.021504	-0.024118
 873	4.3600e-01	2.5534	12.763973	0.000160	1.603714	0.271677	-0.006414
 874	4.3650e-01	2.5360	12.688711	0.000376	3.763382	0.637534	-0.015052
 875	4.3700e-01	2.5142	12.615587	0.000366	3.656468	0.619422	-0.014625
 876	4.3750e-01	2.4960	12.522792	0.000464	4.640079	0.786051	-0.018559
 877	4.3800e-01	2.4741	12.442826	0.000400	3.998594	0.677380	-0.015993
 878	4.3850e-01	2.4551	12.370985	0.000359	3.592320	0.608555	-0.014368
 879	4.3900e-01	2.4352	12.283750	0.000436	4.362102	0.738960	-0.017447
 880	4.3950e-01	2.4155	12.210626	0.000366	3.656468	0.619422	-0.014625
 881	4.4000e-01	2.3953	12.154607	0.000280	2.801154	0.474528	-0.011204
 882	4.4050e-01	2.3755	12.063950	0.000453	4.533165	0.767939	-0.018131
 883	4.4100e-01	2.3550	11.990399	0.000368	3.677851	0.623045	-0.014710
 884	4.4150e-01	2.3364	11.911716	0.000393	3.934445	0.666513	-0.015737
 885	4.4200e-01	2.3165	11.833460	0.000391	3.913062	0.662891	-0.015651
 886	4.4250e-01	2.2946	11.751356	0.000411	4.105508	0.695492	-0.016421
 887	4.4300e-01	2.2731	11.678232	0.000366	3.656468	0.619422	-0.014625
 888	4.4350e-01	2.2564	11.602115	0.000381	3.806148	0.644779	-0.015223
 889	4.4400e-01	2.2351	11.518301	0.000419	4.191039	0.709981	-0.016763
 890	4.4450e-01	2.2157	11.437052	0.000406	4.062742	0.688247	-0.016250
 891	4.4500e-01	2.1968	11.351527	0.000428	4.276571	0.724471	-0.017105
 892	4.4550e-01	2.1748	11.295508	0.000280	2.801154	0.474528	-0.011204
 893	4.4600e-01	2.1527	11.192023	0.000517	5.174651	0.876610	-0.020697
 894	4.4650e-01	2.1356	11.133010	0.000295	2.950834	0.499885	-0.011802
 895	4.4700e-01	2.1156	11.052617	0.000402	4.019977	0.681002	-0.016079
 896	4.4750e-01	2.0926	10.973934	0.000393	3.934445	0.666513	-0.015737
 897	4.4800e-01	2.0753	10.880284	0.000468	4.682845	0.793295	-0.018730
 898	4.4850e-01	2.0557	10.791765	0.000443	4.426251	0.749827	-0.017704
 899	4.4900e-01	2.0386	10.747720	0.000220	2.202434	0.373102	-0.008809
 900	4.4950e-01	2.0125	10.641241	0.000532	5.324331	0.901966	-0.021296
 901	4.5000e-01	1.9961	10.594202	0.000235	2.352114	0.398459	-0.009408
 902	4.5050e-01	1.9745	10.512954	0.000406	4.062742	0.688247	-0.016250
 903	4.5100e-01	1.9553	10.405620	0.000537	5.367096	0.909211	-0.021467
 904	4.5150e-01	1.9366	10.328219	0.000387	3.870297	0.655646	-0.015480
 905	4.5200e-01	1.9114	10.248681	0.000398	3.977211	0.673758	-0.015908
 906	4.5250e-01	1.8933	10.164867	0.000419	4.191039	0.709981	-0.016763
 907	4.5300e-01	1.8755	10.085756	0.000396	3.955828	0.670135	-0.015822
 908	4.5350e-01	1.8559	10.007073	0.000393	3.934445	0.666513	-0.015737
 909	4.5400e-01	1.8367	9.946778	0.000301	3.014982	0.510752	-0.012059
 910	4.5450e-01	1.8143	9.840299	0.000532	5.324331	0.901966	-0.021296
 911	4.5500e-01	1.7929	9.777010	0.000316	3.164662	0.536108	-0.012658
 912	4.5550e-01	1.7738	9.706025	0.000355	3.549554	0.601311	-0.014197
 913	4.5600e-01	1.7551	9.614513	0.000458	4.575931	0.775184	-0.018302
 914	4.5650e-01	1.7335	9.544810	0.000349	3.485405	0.590444	-0.013941
 915	4.5700e-01	1.7140	9.473397	0.000357	3.570937	0.604933	-0.014283
 916	4.5750e-01	1.6977	9.366063	0.000537	5.367096	0.909211	-0.021467
 917	4.5800e-01	1.6753	9.291228	0.000374	3.742000	0.633912	-0.014967
 918	4.5850e-01	1.6537	9.220670	0.000353	3.528171	0.597688	-0.014112
 919	4.5900e-01	1.6356	9.134717	0.000430	4.297954	0.728093	-0.017191
 920	4.5950e-01	1.6158	9.028666	0.000530	5.302948	0.898344	-0.021210
 921	4.6000e-01	1.5950	8.976068	0.000263	2.630091	0.445549	-0.010520
 922	4.6050e-01	1.5752	8.882418	0.000468	4.682845	0.793295	-0.018730
 923	4.6100e-01	1.5552	8.809722	0.000364	3.635085	0.615800	-0.014539
 924	4.6150e-01	1.5348	8.709658	0.000500	5.003588	0.847631	-0.020013
 925	4.6200e-01	1.5121	8.616008	0.000468	4.682845	0.793295	-0.018730
 926	4.6250e-01	1.4958	8.569397	0.000233	2.330731	0.394837	-0.009322
 927	4.6300e-01	1.4754	8.489003	0.000402	4.019977	0.681002	-0.016079
 928	4.6350e-01	1.4565	8.392787	0.000481	4.811142	0.815030	-0.019243
 929	4.6400e-01	1.4333	8.304697	0.000440	4.404868	0.746205	-0.017618
 930	4.6450e-01	1.4128	8.214468	0.000451	4.511782	0.764317	-0.018046
 931	4.6500e-01	1.3953	8.122528	0.000460	4.597314	0.778806	-0.018388
 932	4.6550e-01	1.3730	8.060950	0.000308	3.079131	0.521619	-0.012316
 933	4.6600e-01	1.3532	7.981412	0.000398	3.977211	0.673758	-0.015908
 934	4.6650e-01	1.3335	7.895459	0.000430	4.297954	0.728093	-0.017191
 935	4.6700e-01	1.3152	7.800954	0.000473	4.725611	0.800540	-0.018901
 936	4.6750e-01	1.2937	7.726120	0.000374	3.742000	0.633912	-0.014967
 937	4.6800e-01	1.2750	7.640595	0.000428	4.276571	0.724471	-0.017105
 938	4.6850e-01	1.2546	7.585859	0.000274	2.737005	0.463661	-0.010947
 939	4.6900e-01	1.2378	7.484939	0.000505	5.046354	0.854875	-0.020184
 940	4.6950e-01	1.2164	7.387868	0.000485	4.853908	0.822274	-0.019414
 941	4.7000e-01	1.1957	7.300633	0.000436	4.362102	0.738960	-0.017447
 942	4.7050e-01	1.1745	7.245469	0.000276	2.758388	0.467284	-0.011033
 943	4.7100e-01	1.1547	7.152247	0.000466	4.661462	0.789673	-0.018644
 944	4.7150e-01	1.1359	7.057741	0.000473	4.725611	0.800540	-0.018901
 945	4.7200e-01	1.1150	6.968368	0.000447	4.469017	0.757072	-0.017875
 946	4.7250e-01	1.0968	6.887974	0.000402	4.019977	0.681002	-0.016079
 947	4.7300e-01	1.0744	6.814423	0.000368	3.677851	0.623045	-0.014710
 948	4.7350e-01	1.0532	6.731036	0.000417	4.169657	0.706359	-0.016677
 949	4.7400e-01	1.0350	6.629261	0.000509	5.089119	0.862120	-0.020355
 950	4.7450e-01	1.0144	6.550150	0.000396	3.955828	0.670135	-0.015822
 951	4.7500e-01	0.9928	6.472322	0.000389	3.891679	0.659268	-0.015566
 952	4.7550e-01	0.9718	6.392356	0.000400	3.998594	0.677380	-0.015993
 953	4.7600e-01	0.9555	6.301700	0.000453	4.533165	0.767939	-0.018131
 954	4.7650e-01	0.9354	6.216602	0.000426	4.255188	0.720848	-0.017019
 955	4.7700e-01	0.9161	6.141768	0.000374	3.742000	0.633912	-0.014967
 956	4.7750e-01	0.8930	6.052822	0.000445	4.447634	0.753450	-0.017789
 957	4.7800e-01	0.8727	5.960027	0.000464	4.640079	0.786051	-0.018559
 958	4.7850e-01	0.8536	5.862529	0.000488	4.875291	0.825897	-0.019500
 959	4.7900e-01	0.8350	5.788550	0.000370	3.699234	0.626667	-0.014796
 960	4.7950e-01	0.8163	5.697893	0.000453	4.533165	0.767939	-0.018131
 961	4.8000e-01	0.7950	5.604671	0.000466	4.661462	0.789673	-0.018644
 962	4.8050e-01	0.7739	5.553783	0.000254	2.544560	0.431060	-0.010177
 963	4.8100e-01	0.7529	5.450298	0.000517	5.174651	0.876610	-0.020697
 964	4.8150e-01	0.7340	5.383161	0.000336	3.357108	0.568710	-0.013427
 965	4.8200e-01	0.7146	5.267702	0.000577	5.773371	0.978035	-0.023092
 966	4.8250e-01	0.6970	5.186026	0.000408	4.084125	0.691870	-0.016335
 967	4.8300e-01	0.6740	5.099218	0.000434	4.340719	0.735338	-0.017362
 968	4.8350e-01	0.6564	5.036357	0.000314	3.143280	0.532486	-0.012572
 969	4.8400e-01	0.6334	4.943990	0.000462	4.618697	0.782428	-0.018473
 970	4.8450e-01	0.6130	4.853761	0.000451	4.511782	0.764317	-0.018046
 971	4.8500e-01	0.5940	4.751131	0.000513	5.131885	0.869365	-0.020526
 972	4.8550e-01	0.5759	4.674158	0.000385	3.848914	0.652024	-0.015395
 973	4.8600e-01	0.5549	4.582219	0.000460	4.597314	0.778806	-0.018388
 974	4.8650e-01	0.5335	4.501397	0.000404	4.041359	0.684625	-0.016164
 975	4.8700e-01	0.5135	4.414162	0.000436	4.362102	0.738960	-0.017447
 976	4.8750e-01	0.4951	4.329920	0.000421	4.212422	0.713604	-0.016848
 977	4.8800e-01	0.4731	4.248671	0.000406	4.062742	0.688247	-0.016250
 978	4.8850e-01	0.4538	4.169133	0.000398	3.977211	0.673758	-0.015908
 979	4.8900e-01	0.4347	4.066930	0.000511	5.110502	0.865743	-0.020440
 980	4.8950e-01	0.4140	3.973708	0.000466	4.661462	0.789673	-0.018644
 981	4.9000e-01	0.3931	3.893314	0.000402	4.019977	0.681002	-0.016079
 982	4.9050e-01	0.3733	3.819335	0.000370	3.699234	0.626667	-0.014796
 983	4.9100e-01	0.3552	3.726113	0.000466	4.661462	0.789673	-0.018644
 984	4.9150e-01	0.3336	3.637167	0.000445	4.447634	0.753450	-0.017789
 985	4.9200e-01	0.3156	3.565753	0.000357	3.570937	0.604933	-0.014283
 986	4.9250e-01	0.2934	3.461840	0.000520	5.196034	0.880232	-0.020783
 987	4.9300e-01	0.2748	3.383585	0.000391	3.913062	0.662891	-0.015651
 988	4.9350e-01	0.2538	3.277106	0.000532	5.324331	0.901966	-0.021296
 989	4.9400e-01	0.2362	3.200989	0.000381	3.806148	0.644779	-0.015223
 990	4.9450e-01	0.2143	3.122734	0.000391	3.913062	0.662891	-0.015651
 991	4.9500e-01	0.1962	3.031222	0.000458	4.575931	0.775184	-0.018302
 992	4.9550e-01	0.1743	2.932868	0.000492	4.918056	0.833141	-0.019671
 993	4.9600e-01	0.1543	2.839218	0.000468	4.682845	0.793295	-0.018730
 994	4.9650e-01	0.1371	2.789613	0.000248	2.480411	0.420193	-0.009921
 995	4.9700e-01	0.1141	2.689122	0.000502	5.024971	0.851253	-0.020098
 996	4.9750e-01	0.0938	2.605307	0.000419	4.191039	0.709981	-0.016763
 997	4.9800e-01	0.0729	2.503105	0.000511	5.110502	0.865743	-0.020440
 998	4.9850e-01	0.0547	2.406034	0.000485	4.853908	0.822274	-0.019414
 999	4.9900e-01	0.0349	2.343173	0.000314	3.143280	0.532486	-0.012572
1000	4.9950e-01	0.0155	2.243964	0.000496	4.960822	0.840386	-0.019842
1001	5.0000e-01	-0.0036	2.168274	0.000378	3.784765	0.641157	-0.015138
1002	5.0050e-01	-0.0260	2.099854	0.000342	3.421257	0.579577	-0.013684
1003	5.0100e-01	-0.0468	2.004921	0.000475	4.746994	0.804162	-0.018987
1004	5.0150e-01	-0.0631	1.892883	0.000560	5.602308	0.949057	-0.022408
1005	5.0200e-01	-0.0819	1.809924	0.000415	4.148274	0.702737	-0.016592
1006	5.0250e-01	-0.1031	1.734234	0.000378	3.784765	0.641157	-0.015138
1007	5.0300e-01	-0.1242	1.635025	0.000496	4.960822	0.840386	-0.019842
1008	5.0350e-01	-0.1443	1.539665	0.000477	4.768377	0.807785	-0.019072
1009	5.0400e-01	-0.1637	1.451146	0.000443	4.426251	0.749827	-0.017704
1010	5.0450e-01	-0.1836	1.366049	0.000426	4.255188	0.720848	-0.017019
1011	5.0500e-01	-0.2062	1.284373	0.000408	4.084125	0.691870	-0.016335
1012	5.0550e-01	-0.2264	1.196282	0.000440	4.404868	0.746205	-0.017618
1013	5.0600e-01	-0.2462	1.115888	0.000402	4.019977	0.681002	-0.016079
1014	5.0650e-01	-0.2655	1.028225	0.000438	4.383485	0.742582	-0.017533
1015	5.0700e-01	-0.2831	0.941845	0.000432	4.319337	0.731715	-0.017276
1016	5.0750e-01	-0.3046	0.843918	0.000490	4.896674	0.829519	-0.019585
1017	5.0800e-01	-0.3233	0.758821	0.000426	4.255188	0.720848	-0.017019
1018	5.0850e-01	-0.3449	0.680566	0.000391	3.913062	0.662891	-0.015651
1019	5.0900e-01	-0.3635	0.570666	0.000550	5.495394	0.930945	-0.021980
1020	5.0950e-01	-0.3852	0.501818	0.000344	3.442640	0.583199	-0.013770
1021	5.1000e-01	-0.4036	0.428267	0.000368	3.677851	0.623045	-0.014710
1022	5.1050e-01	-0.4217	0.313663	0.000573	5.730605	0.970791	-0.022921
1023	5.1100e-01	-0.4444	0.244815	0.000344	3.442640	0.583199	-0.013770
1024	5.1150e-01	-0.4638	0.139620	0.000526	5.260182	0.891099	-0.021039
1025	5.1200e-01	-0.4832	0.046397	0.000466	4.661462	0.789673	-0.018644
1026	5.1250e-01	-0.5037	-0.029720	0.000381	3.806148	0.644779	-0.015223
1027	5.1300e-01	-0.5257	-0.110969	0.000406	4.062742	0.688247	-0.016250
1028	5.1350e-01	-0.5436	-0.201625	0.000453	4.533165	0.767939	-0.018131
1029	5.1400e-01	-0.5650	-0.312808	0.000556	5.559542	0.941812	-0.022237
1030	5.1450e-01	-0.5848	-0.393629	0.000404	4.041359	0.684625	-0.016164
1031	5.1500e-01	-0.6049	-0.475305	0.000408	4.084125	0.691870	-0.016335
1032	5.1550e-01	-0.6258	-0.562541	0.000436	4.362102	0.738960	-0.017447
1033	5.1600e-01	-0.6450	-0.648066	0.000428	4.276571	0.724471	-0.017105
1034	5.1650e-01	-0.6638	-0.736157	0.000440	4.404868	0.746205	-0.017618
1035	5.1700e-01	-0.6853	-0.815268	0.000396	3.955828	0.670135	-0.015822
1036	5.1750e-01	-0.7027	-0.896089	0.000404	4.041359	0.684625	-0.016164
1037	5.1800e-01	-0.7207	-0.995725	0.000498	4.982205	0.844008	-0.019927
1038	5.1850e-01	-0.7430	-1.092796	0.000485	4.853908	0.822274	-0.019414
1039	5.1900e-01	-0.7633	-1.169769	0.000385	3.848914	0.652024	-0.015395
1040	5.1950e-01	-0.7841	-1.264274	0.000473	4.725611	0.800540	-0.018901
1041	5.2000e-01	-0.8043	-1.357924	0.000468	4.682845	0.793295	-0.018730
1042	5.2050e-01	-0.8240	-1.425916	0.000340	3.399874	0.575954	-0.013598
1043	5.2100e-01	-0.8450	-1.529402	0.000517	5.174651	0.876610	-0.020697
1044	5.2150e-01	-0.8652	-1.600388	0.000355	3.549554	0.601311	-0.014197
1045	5.2200e-01	-0.8829	-1.686768	0.000432	4.319337	0.731715	-0.017276
1046	5.2250e-01	-0.9060	-1.774431	0.000438	4.383485	0.742582	-0.017533
1047	5.2300e-01	-0.9241	-1.864232	0.000449	4.490399	0.760694	-0.017960
1048	5.2350e-01	-0.9431	-1.954889	0.000453	4.533165	0.767939	-0.018131
1049	5.2400e-01	-0.9638	-2.043407	0.000443	4.426251	0.749827	-0.017704
1050	5.2450e-01	-0.9855	-2.121663	0.000391	3.913062	0.662891	-0.015651
1051	5.2500e-01	-1.0036	-2.216596	0.000475	4.746994	0.804162	-0.018987
1052	5.2550e-01	-1.0227	-2.308963	0.000462	4.618697	0.782428	-0.018473
1053	5.2600e-01	-1.0407	-2.394488	0.000428	4.276571	0.724471	-0.017105
1054	5.2650e-01	-1.0632	-2.468467	0.000370	3.699234	0.626667	-0.014796
1055	5.2700e-01	-1.0830	-2.569386	0.000505	5.046354	0.854875	-0.020184
1056	5.2750e-01	-1.1066	-2.644649	0.000376	3.763382	0.637534	-0.015052
1057	5.2800e-01	-1.1228	-2.739154	0.000473	4.725611	0.800540	-0.018901
1058	5.2850e-01	-1.1446	-2.829810	0.000453	4.533165	0.767939	-0.018131
1059	5.2900e-01	-1.1601	-2.896092	0.000331	3.314342	0.561465	-0.013256
1060	5.2950e-01	-1.1852	-3.011979	0.000579	5.794754	0.981658	-0.023177
1061	5.3000e-01	-1.2028	-3.091089	0.000396	3.955828	0.670135	-0.015822
1062	5.3050e-01	-1.2247	-3.188588	0.000488	4.875291	0.825897	-0.019500
1063	5.3100e-01	-1.2430	-3.283948	0.000477	4.768377	0.807785	-0.019072
1064	5.3150e-01	-1.2650	-3.348092	0.000321	3.207428	0.543353	-0.012829
1065	5.3200e-01	-1.2852	-3.416940	0.000344	3.442640	0.583199	-0.013770
1066	5.3250e-01	-1.3029	-3.522991	0.000530	5.302948	0.898344	-0.021210
1067	5.3300e-01	-1.3275	-3.610226	0.000436	4.362102	0.738960	-0.017447
1068	5.3350e-01	-1.3419	-3.701311	0.000455	4.554548	0.771561	-0.018217
1069	5.3400e-01	-1.3638	-3.776573	0.000376	3.763382	0.637534	-0.015052
1070	5.3450e-01	-1.3850	-3.866802	0.000451	4.511782	0.764317	-0.018046
1071	5.3500e-01	-1.4037	-3.939070	0.000361	3.613702	0.612178	-0.014454
1072	5.3550e-01	-1.4250	-4.029727	0.000453	4.533165	0.767939	-0.018131
1073	5.3600e-01	-1.4431	-4.131502	0.000509	5.089119	0.862120	-0.020355
1074	5.3650e-01	-1.4645	-4.193507	0.000310	3.100514	0.525241	-0.012401
1075	5.3700e-01	-1.4817	-4.296993	0.000517	5.174651	0.876610	-0.020697
1076	5.3750e-01	-1.5052	-4.404754	0.000539	5.388479	0.912833	-0.021552
1077	5.3800e-01	-1.5244	-4.469326	0.000323	3.228811	0.546975	-0.012914
1078	5.3850e-01	-1.5449	-4.565541	0.000481	4.811142	0.815030	-0.019243
1079	5.3900e-01	-1.5641	-4.633961	0.000342	3.421257	0.579577	-0.013684
1080	5.3950e-01	-1.5826	-4.731887	0.000490	4.896674	0.829519	-0.019585
1081	5.4000e-01	-1.6033	-4.812281	0.000402	4.019977	0.681002	-0.016079
1082	5.4050e-01	-1.6225	-4.903793	0.000458	4.575931	0.775184	-0.018302
1083	5.4100e-01	-1.6435	-4.996588	0.000464	4.640079	0.786051	-0.018559
1084	5.4150e-01	-1.6622	-5.065008	0.000342	3.421257	0.579577	-0.013684
1085	5.4200e-01	-1.6841	-5.162079	0.000485	4.853908	0.822274	-0.019414
1086	5.4250e-01	-1.7039	-5.222801	0.000304	3.036365	0.514374	-0.012145
1087	5.4300e-01	-1.7240	-5.322438	0.000498	4.982205	0.844008	-0.019927
1088	5.4350e-01	-1.7460	-5.400266	0.000389	3.891679	0.659268	-0.015566
1089	5.4400e-01	-1.7625	-5.489212	0.000445	4.447634	0.753450	-0.017789
1090	5.4450e-01	-1.7849	-5.570461	0.000406	4.062742	0.688247	-0.016250
1091	5.4500e-01	-1.8058	-5.661117	0.000453	4.533165	0.767939	-0.018131
1092	5.4550e-01	-1.8258	-5.741511	0.000402	4.019977	0.681002	-0.016079
1093	5.4600e-01	-1.8427	-5.847134	0.000528	5.281565	0.894721	-0.021125
1094	5.4650e-01	-1.8644	-5.898449	0.000257	2.565943	0.434682	-0.010263
1095	5.4700e-01	-1.8820	-6.000652	0.000511	5.110502	0.865743	-0.020440
1096	5.4750e-01	-1.9047	-6.090453	0.000449	4.490399	0.760694	-0.017960
1097	5.4800e-01	-1.9233	-6.167426	0.000385	3.848914	0.652024	-0.015395
1098	5.4850e-01	-1.9441	-6.267062	0.000498	4.982205	0.844008	-0.019927
1099	5.4900e-01	-1.9645	-6.356008	0.000445	4.447634	0.753450	-0.017789
1100	5.4950e-01	-1.9836	-6.439395	0.000417	4.169657	0.706359	-0.016677
1101	5.5000e-01	-2.0052	-6.511664	0.000361	3.613702	0.612178	-0.014454
1102	5.5050e-01	-2.0241	-6.610873	0.000496	4.960822	0.840386	-0.019842
1103	5.5100e-01	-2.0412	-6.681003	0.000351	3.506788	0.594066	-0.014026
1104	5.5150e-01	-2.0655	-6.778074	0.000485	4.853908	0.822274	-0.019414
1105	5.5200e-01	-2.0852	-6.846494	0.000342	3.421257	0.579577	-0.013684
1106	5.5250e-01	-2.1046	-6.923039	0.000383	3.827531	0.648401	-0.015309
1107	5.5300e-01	-2.1264	-7.005999	0.000415	4.148274	0.702737	-0.016592
1108	5.5350e-01	-2.1438	-7.101787	0.000479	4.789759	0.811407	-0.019158
1109	5.5400e-01	-2.1657	-7.171490	0.000349	3.485405	0.590444	-0.013941
1110	5.5450e-01	-2.1848	-7.268561	0.000485	4.853908	0.822274	-0.019414
1111	5.5500e-01	-2.2076	-7.346816	0.000391	3.913062	0.662891	-0.015651
1112	5.5550e-01	-2.2244	-7.429775	0.000415	4.148274	0.702737	-0.016592
1113	5.5600e-01	-2.2443	-7.516583	0.000434	4.340719	0.735338	-0.017362
1114	5.5650e-01	-2.2681	-7.571319	0.000274	2.737005	0.463661	-0.010947
1115	5.5700e-01	-2.2869	-7.673522	0.000511	5.110502	0.865743	-0.020440
1116	5.5750e-01	-2.3020	-7.770165	0.000483	4.832525	0.818652	-0.019329
1117	5.5800e-01	-2.3244	-7.842861	0.000364	3.635085	0.615800	-0.014539
1118	5.5850e-01	-2.3469	-7.918979	0.000381	3.806148	0.644779	-0.015223
1119	5.5900e-01	-2.3652	-7.989537	0.000353	3.528171	0.597688	-0.014112
1120	5.5950e-01	-2.3824	-8.088746	0.000496	4.960822	0.840386	-0.019842
1121	5.6000e-01	-2.4046	-8.162725	0.000370	3.699234	0.626667	-0.014796
1122	5.6050e-01	-2.4232	-8.249105	0.000432	4.319337	0.731715	-0.017276
1123	5.6100e-01	-2.4435	-8.317098	0.000340	3.399874	0.575954	-0.013598
1124	5.6150e-01	-2.4627	-8.403478	0.000432	4.319337	0.731715	-0.017276
1125	5.6200e-01	-2.4839	-8.512950	0.000547	5.474011	0.927323	-0.021894
1126	5.6250e-01	-2.5047	-8.571535	0.000293	2.929451	0.496262	-0.011717
1127	5.6300e-01	-2.5263	-8.666040	0.000473	4.725611	0.800540	-0.018901
1128	5.6350e-01	-2.5480	-8.720776	0.000274	2.737005	0.463661	-0.010947
1129	5.6400e-01	-2.5654	-8.811860	0.000455	4.554548	0.771561	-0.018217
1130	5.6450e-01	-2.5837	-8.906793	0.000475	4.746994	0.804162	-0.018987
1131	5.6500e-01	-2.6057	-8.979062	0.000361	3.613702	0.612178	-0.014454
1132	5.6550e-01	-2.6254	-9.048765	0.000349	3.485405	0.590444	-0.013941
1133	5.6600e-01	-2.6426	-9.145408	0.000483	4.832525	0.818652	-0.019329
1134	5.6650e-01	-2.6635	-9.225374	0.000400	3.998594	0.677380	-0.015993
1135	5.6700e-01	-2.6862	-9.315175	0.000449	4.490399	0.760694	-0.017960
1136	5.6750e-01	-2.7046	-9.394713	0.000398	3.977211	0.673758	-0.015908
1137	5.6800e-01	-2.7256	-9.448594	0.000269	2.694240	0.456417	-0.010776
1138	5.6850e-01	-2.7412	-9.548231	0.000498	4.982205	0.844008	-0.019927
1139	5.6900e-01	-2.7644	-9.626486	0.000391	3.913062	0.662891	-0.015651
1140	5.6950e-01	-2.7839	-9.688920	0.000312	3.121897	0.528864	-0.012487
1141	5.7000e-01	-2.8047	-9.779576	0.000453	4.533165	0.767939	-0.018131
1142	5.7050e-01	-2.8255	-9.857404	0.000389	3.891679	0.659268	-0.015566
1143	5.7100e-01	-2.8454	-9.924114	0.000334	3.335725	0.565087	-0.013342
1144	5.7150e-01	-2.8659	-10.019902	0.000479	4.789759	0.811407	-0.019158
1145	5.7200e-01	-2.8806	-10.083618	0.000319	3.186045	0.539731	-0.012743
1146	5.7250e-01	-2.9044	-10.173847	0.000451	4.511782	0.764317	-0.018046
1147	5.7300e-01	-2.9256	-10.249964	0.000381	3.806148	0.644779	-0.015223
1148	5.7350e-01	-2.9440	-10.336772	0.000434	4.340719	0.735338	-0.017362
1149	5.7400e-01	-2.9644	-10.412889	0.000381	3.806148	0.644779	-0.015223
1150	5.7450e-01	-2.9832	-10.484730	0.000359	3.592320	0.608555	-0.014368
1151	5.7500e-01	-3.0012	-10.582229	0.000488	4.875291	0.825897	-0.019500
1152	5.7550e-01	-3.0235	-10.651504	0.000346	3.464022	0.586821	-0.013855
1153	5.7600e-01	-3.0449	-10.710516	0.000295	2.950834	0.499885	-0.011802
1154	5.7650e-01	-3.0656	-10.808015	0.000488	4.875291	0.825897	-0.019500
1155	5.7700e-01	-3.0866	-10.878573	0.000353	3.528171	0.597688	-0.014112
1156	5.7750e-01	-3.1065	-10.961532	0.000415	4.148274	0.702737	-0.016592
1157	5.7800e-01	-3.1251	-11.028242	0.000334	3.335725	0.565087	-0.013342
1158	5.7850e-01	-3.1457	-11.121464	0.000466	4.661462	0.789673	-0.018644
1159	5.7900e-01	-3.1644	-11.180904	0.000297	2.972217	0.503507	-0.011888
1160	5.7950e-01	-3.1861	-11.271561	0.000453	4.533165	0.767939	-0.018131
1161	5.8000e-01	-3.2035	-11.353237	0.000408	4.084125	0.691870	-0.016335
1162	5.8050e-01	-3.2270	-11.413960	0.000304	3.036365	0.514374	-0.012145
1163	5.8100e-01	-3.2417	-11.503334	0.000447	4.469017	0.757072	-0.017875
1164	5.8150e-01	-3.2629	-11.593563	0.000451	4.511782	0.764317	-0.018046
1165	5.8200e-01	-3.2850	-11.658134	0.000323	3.228811	0.546975	-0.012914
1166	5.8250e-01	-3.3045	-11.725271	0.000336	3.357108	0.568710	-0.013427
1167	5.8300e-01	-3.3278	-11.800106	0.000374	3.742000	0.633912	-0.014967
1168	5.8350e-01	-3.3451	-11.897604	0.000488	4.875291	0.825897	-0.019500
1169	5.8400e-01	-3.3649	-11.967735	0.000351	3.506788	0.594066	-0.014026
1170	5.8450e-01	-3.3854	-12.050266	0.000413	4.126891	0.699114	-0.016506
1171	5.8500e-01	-3.4052	-12.102009	0.000259	2.587325	0.438305	-0.010349
1172	5.8550e-01	-3.4267	-12.186251	0.000421	4.212422	0.713604	-0.016848
1173	5.8600e-01	-3.4420	-12.256809	0.000353	3.528171	0.597688	-0.014112
1174	5.8650e-01	-3.4663	-12.343617	0.000434	4.340719	0.735338	-0.017362
1175	5.8700e-01	-3.4859	-12.415886	0.000361	3.613702	0.612178	-0.014454
1176	5.8750e-01	-3.5029	-12.498418	0.000413	4.126891	0.699114	-0.016506
1177	5.8800e-01	-3.5226	-12.571969	0.000368	3.677851	0.623045	-0.014710
1178	5.8850e-01	-3.5444	-12.642527	0.000353	3.528171	0.597688	-0.014112
1179	5.8900e-01	-3.5650	-12.715224	0.000364	3.635085	0.615800	-0.014539
1180	5.8950e-01	-3.5865	-12.803315	0.000440	4.404868	0.746205	-0.017618
1181	5.9000e-01	-3.6060	-12.869169	0.000329	3.292960	0.557842	-0.013171
1182	5.9050e-01	-3.6253	-12.936306	0.000336	3.357108	0.568710	-0.013427
1183	5.9100e-01	-3.6457	-13.029528	0.000466	4.661462	0.789673	-0.018644
1184	5.9150e-01	-3.6658	-13.077850	0.000242	2.416263	0.409326	-0.009664
1185	5.9200e-01	-3.6855	-13.165941	0.000440	4.404868	0.746205	-0.017618
1186	5.9250e-01	-3.7049	-13.246762	0.000404	4.041359	0.684625	-0.016164
1187	5.9300e-01	-3.7251	-13.322452	0.000378	3.784765	0.641157	-0.015138
1188	5.9350e-01	-3.7440	-13.396431	0.000370	3.699234	0.626667	-0.014796
1189	5.9400e-01	-3.7672	-13.465278	0.000344	3.442640	0.583199	-0.013770
1190	5.9450e-01	-3.7849	-13.555935	0.000453	4.533165	0.767939	-0.018131
1191	5.9500e-01	-3.8060	-13.613237	0.000287	2.865302	0.485395	-0.011460
1192	5.9550e-01	-3.8270	-13.705176	0.000460	4.597314	0.778806	-0.018388
1193	5.9600e-01	-3.8441	-13.762050	0.000284	2.843920	0.481773	-0.011375
1194	5.9650e-01	-3.8640	-13.837740	0.000378	3.784765	0.641157	-0.015138
1195	5.9700e-01	-3.8837	-13.904450	0.000334	3.335725	0.565087	-0.013342
1196	5.9750e-01	-3.9014	-13.989119	0.000423	4.233805	0.717226	-0.016934
1197	5.9800e-01	-3.9240	-14.053263	0.000321	3.207428	0.543353	-0.012829
1198	5.9850e-01	-3.9451	-14.124677	0.000357	3.570937	0.604933	-0.014283
1199	5.9900e-01	-3.9661	-14.199939	0.000376	3.763382	0.637534	-0.015052
1200	5.9950e-01	-3.9826	-14.277766	0.000389	3.891679	0.659268	-0.015566
1201	6.0000e-01	-4.0022	-14.332930	0.000276	2.758388	0.467284	-0.011033
1202	6.0050e-01	-4.0263	-14.409047	0.000381	3.806148	0.644779	-0.015223
1203	6.0100e-01	-4.0449	-14.486020	0.000385	3.848914	0.652024	-0.015395
1204	6.0150e-01	-4.0656	-14.574966	0.000445	4.447634	0.753450	-0.017789
1205	6.0200e-01	-4.0861	-14.646807	0.000359	3.592320	0.608555	-0.014368
1206	6.0250e-01	-4.1062	-14.714800	0.000340	3.399874	0.575954	-0.013598
1207	6.0300e-01	-4.1248	-14.772529	0.000289	2.886685	0.489018	-0.011546
1208	6.0350e-01	-4.1444	-14.843515	0.000355	3.549554	0.601311	-0.014197
1209	6.0400e-01	-4.1648	-14.926902	0.000417	4.169657	0.706359	-0.016677
1210	6.0450e-01	-4.1850	-14.977361	0.000252	2.523177	0.427438	-0.010092
1211	6.0500e-01	-4.2078	-15.050913	0.000368	3.677851	0.623045	-0.014710
1212	6.0550e-01	-4.2262	-15.153543	0.000513	5.131885	0.869365	-0.020526
1213	6.0600e-01	-4.2454	-15.202720	0.000246	2.459028	0.416571	-0.009835
1214	6.0650e-01	-4.2658	-15.275844	0.000366	3.656468	0.619422	-0.014625
1215	6.0700e-01	-4.2808	-15.363507	0.000438	4.383485	0.742582	-0.017533
1216	6.0750e-01	-4.3055	-15.415250	0.000259	2.587325	0.438305	-0.010349
1217	6.0800e-01	-4.3275	-15.479394	0.000321	3.207428	0.543353	-0.012829
1218	6.0850e-01	-4.3452	-15.561925	0.000413	4.126891	0.699114	-0.016506
1219	6.0900e-01	-4.3623	-15.637187	0.000376	3.763382	0.637534	-0.015052
1220	6.0950e-01	-4.3827	-15.701331	0.000321	3.207428	0.543353	-0.012829
1221	6.1000e-01	-4.4041	-15.762481	0.000306	3.057748	0.517997	-0.012230
1222	6.1050e-01	-4.4276	-15.830474	0.000340	3.399874	0.575954	-0.013598
1223	6.1100e-01	-4.4437	-15.893335	0.000314	3.143280	0.532486	-0.012572
1224	6.1150e-01	-4.4651	-15.978860	0.000428	4.276571	0.724471	-0.017105
1225	6.1200e-01	-4.4855	-16.079352	0.000502	5.024971	0.851253	-0.020098
1226	6.1250e-01	-4.5066	-16.113134	0.000169	1.689245	0.286166	-0.006756
1227	6.1300e-01	-4.5263	-16.187113	0.000370	3.699234	0.626667	-0.014796
1228	6.1350e-01	-4.5444	-16.257244	0.000351	3.506788	0.594066	-0.014026
1229	6.1400e-01	-4.5655	-16.326519	0.000346	3.464022	0.586821	-0.013855
1230	6.1450e-01	-4.5835	-16.397505	0.000355	3.549554	0.601311	-0.014197
1231	6.1500e-01	-4.6046	-16.478326	0.000404	4.041359	0.684625	-0.016164
1232	6.1550e-01	-4.6241	-16.535200	0.000284	2.843920	0.481773	-0.011375
1233	6.1600e-01	-4.6468	-16.604903	0.000349	3.485405	0.590444	-0.013941
1234	6.1650e-01	-4.6638	-16.672040	0.000336	3.357108	0.568710	-0.013427
1235	6.1700e-01	-4.6854	-16.738322	0.000331	3.314342	0.561465	-0.013256
1236	6.1750e-01	-4.7028	-16.815722	0.000387	3.870297	0.655646	-0.015480
1237	6.1800e-01	-4.7248	-16.870031	0.000272	2.715622	0.460039	-0.010862
1238	6.1850e-01	-4.7443	-16.923056	0.000265	2.651474	0.449172	-0.010605
1239	6.1900e-01	-4.7639	-17.009864	0.000434	4.340719	0.735338	-0.017362
1240	6.1950e-01	-4.7852	-17.068877	0.000295	2.950834	0.499885	-0.011802
1241	6.2000e-01	-4.8048	-17.142428	0.000368	3.677851	0.623045	-0.014710
1242	6.2050e-01	-4.8267	-17.223677	0.000406	4.062742	0.688247	-0.016250
1243	6.2100e-01	-4.8438	-17.279696	0.000280	2.801154	0.474528	-0.011204
1244	6.2150e-01	-4.8658	-17.340419	0.000304	3.036365	0.514374	-0.012145
1245	6.2200e-01	-4.8838	-17.412260	0.000359	3.592320	0.608555	-0.014368
1246	6.2250e-01	-4.9055	-17.490088	0.000389	3.891679	0.659268	-0.015566
1247	6.2300e-01	-4.9247	-17.531140	0.000205	2.052754	0.347746	-0.008210
1248	6.2350e-01	-4.9433	-17.614527	0.000417	4.169657	0.706359	-0.016677
1249	6.2400e-01	-4.9668	-17.687223	0.000364	3.635085	0.615800	-0.014539
1250	6.2450e-01	-4.9860	-17.743242	0.000280	2.801154	0.474528	-0.011204
1251	6.2500e-01	-5.0092	-17.814655	0.000357	3.570937	0.604933	-0.014283
1252	6.2550e-01	-5.0242	-17.880509	0.000329	3.292960	0.557842	-0.013171
1253	6.2600e-01	-5.0434	-17.944653	0.000321	3.207428	0.543353	-0.012829
1254	6.2650e-01	-5.0669	-18.016494	0.000359	3.592320	0.608555	-0.014368
1255	6.2700e-01	-5.0855	-18.076789	0.000301	3.014982	0.510752	-0.012059
1256	6.2750e-01	-5.1081	-18.152907	0.000381	3.806148	0.644779	-0.015223
1257	6.2800e-01	-5.1229	-18.200801	0.000239	2.394880	0.405704	-0.009579
1258	6.2850e-01	-5.1453	-18.268793	0.000340	3.399874	0.575954	-0.013598
1259	6.2900e-01	-5.1643	-18.338496	0.000349	3.485405	0.590444	-0.013941
1260	6.2950e-01	-5.1844	-18.403495	0.000325	3.250194	0.550598	-0.013000
1261	6.3000e-01	-5.2052	-18.459514	0.000280	2.801154	0.474528	-0.011204
1262	6.3050e-01	-5.2247	-18.540763	0.000406	4.062742	0.688247	-0.016250
1263	6.3100e-01	-5.2467	-18.599348	0.000293	2.929451	0.496262	-0.011717
1264	6.3150e-01	-5.2656	-18.666485	0.000336	3.357108	0.568710	-0.013427
1265	6.3200e-01	-5.2857	-18.736615	0.000351	3.506788	0.594066	-0.014026
1266	6.3250e-01	-5.3078	-18.795628	0.000295	2.950834	0.499885	-0.011802
1267	6.3300e-01	-5.3248	-18.858061	0.000312	3.121897	0.528864	-0.012487
1268	6.3350e-01	-5.3461	-18.930329	0.000361	3.613702	0.612178	-0.014454
1269	6.3400e-01	-5.3635	-19.001743	0.000357	3.570937	0.604933	-0.014283
1270	6.3450e-01	-5.3828	-19.047926	0.000231	2.309348	0.391214	-0.009237
1271	6.3500e-01	-5.4060	-19.127037	0.000396	3.955828	0.670135	-0.015822
1272	6.3550e-01	-5.4249	-19.191609	0.000323	3.228811	0.546975	-0.012914
1273	6.3600e-01	-5.4438	-19.248910	0.000287	2.865302	0.485395	-0.011460
1274	6.3650e-01	-5.4627	-19.311771	0.000314	3.143280	0.532486	-0.012572
1275	6.3700e-01	-5.4844	-19.380191	0.000342	3.421257	0.579577	-0.013684
1276	6.3750e-01	-5.5048	-19.444763	0.000323	3.228811	0.546975	-0.012914
1277	6.3800e-01	-5.5276	-19.499499	0.000274	2.737005	0.463661	-0.010947
1278	6.3850e-01	-5.5451	-19.560222	0.000304	3.036365	0.514374	-0.012145
1279	6.3900e-01	-5.5656	-19.632490	0.000361	3.613702	0.612178	-0.014454
1280	6.3950e-01	-5.5825	-19.685943	0.000267	2.672857	0.452794	-0.010691
1281	6.4000e-01	-5.6049	-19.749232	0.000316	3.164662	0.536108	-0.012658
1282	6.4050e-01	-5.6239	-19.830481	0.000406	4.062742	0.688247	-0.016250
1283	6.4100e-01	-5.6470	-19.878802	0.000242	2.416263	0.409326	-0.009664
1284	6.4150e-01	-5.6669	-19.948505	0.000349	3.485405	0.590444	-0.013941
1285	6.4200e-01	-5.6861	-19.993406	0.000225	2.245200	0.380347	-0.008980
1286	6.4250e-01	-5.7059	-20.082780	0.000447	4.469017	0.757072	-0.017875
1287	6.4300e-01	-5.7264	-20.129391	0.000233	2.330731	0.394837	-0.009322
1288	6.4350e-01	-5.7441	-20.198666	0.000346	3.464022	0.586821	-0.013855
1289	6.4400e-01	-5.7658	-20.255540	0.000284	2.843920	0.481773	-0.011375
1290	6.4450e-01	-5.7862	-20.321394	0.000329	3.292960	0.557842	-0.013171
1291	6.4500e-01	-5.8051	-20.360736	0.000197	1.967223	0.333257	-0.007868
1292	6.4550e-01	-5.8259	-20.448399	0.000438	4.383485	0.742582	-0.017533
1293	6.4600e-01	-5.8463	-20.497576	0.000246	2.459028	0.416571	-0.009835
1294	6.4650e-01	-5.8649	-20.556161	0.000293	2.929451	0.496262	-0.011717
1295	6.4700e-01	-5.8869	-20.640831	0.000423	4.233805	0.717226	-0.016934
1296	6.4750e-01	-5.9052	-20.672902	0.000160	1.603714	0.271677	-0.006414
1297	6.4800e-01	-5.9261	-20.745599	0.000364	3.635085	0.615800	-0.014539
1298	6.4850e-01	-5.9461	-20.814019	0.000342	3.421257	0.579577	-0.013684
1299	6.4900e-01	-5.9669	-20.883722	0.000349	3.485405	0.590444	-0.013941
1300	6.4950e-01	-5.9864	-20.917932	0.000171	1.710628	0.289788	-0.006842
1301	6.5000e-01	-6.0044	-20.992766	0.000374	3.742000	0.633912	-0.014967
1302	6.5050e-01	-6.0242	-21.044936	0.000261	2.608708	0.441927	-0.010434
1303	6.5100e-01	-6.0432	-21.120199	0.000376	3.763382	0.637534	-0.015052
1304	6.5150e-01	-6.0676	-21.167237	0.000235	2.352114	0.398459	-0.009408
1305	6.5200e-01	-6.0859	-21.233519	0.000331	3.314342	0.561465	-0.013256
1306	6.5250e-01	-6.1051	-21.295097	0.000308	3.079131	0.521619	-0.012316
1307	6.5300e-01	-6.1292	-21.352399	0.000287	2.865302	0.485395	-0.011460
1308	6.5350e-01	-6.1469	-21.420391	0.000340	3.399874	0.575954	-0.013598
1309	6.5400e-01	-6.1658	-21.485390	0.000325	3.250194	0.550598	-0.013000
1310	6.5450e-01	-6.1835	-21.541837	0.000282	2.822537	0.478151	-0.011289
1311	6.5500e-01	-6.2055	-21.596145	0.000272	2.715622	0.460039	-0.010862
1312	6.5550e-01	-6.2275	-21.660289	0.000321	3.207428	0.543353	-0.012829
1313	6.5600e-01	-6.2476	-21.710749	0.000252	2.523177	0.427438	-0.010092
1314	6.5650e-01	-6.2659	-21.783445	0.000364	3.635085	0.615800	-0.014539
1315	6.5700e-01	-6.2858	-21.843740	0.000301	3.014982	0.510752	-0.012059
1316	6.5750e-01	-6.3044	-21.897194	0.000267	2.672857	0.452794	-0.010691
1317	6.5800e-01	-6.3264	-21.942522	0.000227	2.266583	0.383969	-0.009066
1318	6.5850e-01	-6.3456	-22.022060	0.000398	3.977211	0.673758	-0.015908
1319	6.5900e-01	-6.3657	-22.072092	0.000250	2.501794	0.423815	-0.010006
1320	6.5950e-01	-6.3868	-22.130249	0.000291	2.908068	0.492640	-0.011631
1321	6.6000e-01	-6.4069	-22.186268	0.000280	2.801154	0.474528	-0.011204
1322	6.6050e-01	-6.4262	-22.263241	0.000385	3.848914	0.652024	-0.015395
1323	6.6100e-01	-6.4442	-22.303438	0.000201	2.009988	0.340501	-0.008039
1324	6.6150e-01	-6.4643	-22.370575	0.000336	3.357108	0.568710	-0.013427
1325	6.6200e-01	-6.4863	-22.424028	0.000267	2.672857	0.452794	-0.010691
1326	6.6250e-01	-6.5079	-22.477053	0.000265	2.651474	0.449172	-0.010605
1327	6.6300e-01	-6.5243	-22.533500	0.000282	2.822537	0.478151	-0.011289
1328	6.6350e-01	-6.5443	-22.598499	0.000325	3.250194	0.550598	-0.013000
1329	6.6400e-01	-6.5650	-22.647248	0.000244	2.437645	0.412948	-0.009750
1330	6.6450e-01	-6.5876	-22.705833	0.000293	2.929451	0.496262	-0.011717
1331	6.6500e-01	-6.6062	-22.776391	0.000353	3.528171	0.597688	-0.014112
1332	6.6550e-01	-6.6254	-22.835403	0.000295	2.950834	0.499885	-0.011802
1333	6.6600e-01	-6.6468	-22.894843	0.000297	2.972217	0.503507	-0.011888
1334	6.6650e-01	-6.6676	-22.944020	0.000246	2.459028	0.416571	-0.009835
1335	6.6700e-01	-6.6853	-23.003888	0.000299	2.993600	0.507130	-0.011974
1336	6.6750e-01	-6.7048	-23.057341	0.000267	2.672857	0.452794	-0.010691
1337	6.6800e-01	-6.7262	-23.136879	0.000398	3.977211	0.673758	-0.015908
1338	6.6850e-01	-6.7439	-23.184773	0.000239	2.394880	0.405704	-0.009579
1339	6.6900e-01	-6.7649	-23.242075	0.000287	2.865302	0.485395	-0.011460
1340	6.6950e-01	-6.7861	-23.302798	0.000304	3.036365	0.514374	-0.012145
1341	6.7000e-01	-6.8063	-23.362238	0.000297	2.972217	0.503507	-0.011888
1342	6.7050e-01	-6.8275	-23.419540	0.000287	2.865302	0.485395	-0.011460
1343	6.7100e-01	-6.8461	-23.464013	0.000222	2.223817	0.376725	-0.008895
1344	6.7150e-01	-6.8679	-23.530722	0.000334	3.335725	0.565087	-0.013342
1345	6.7200e-01	-6.8867	-23.563649	0.000165	1.646480	0.278921	-0.006585
1346	6.7250e-01	-6.9050	-23.650457	0.000434	4.340719	0.735338	-0.017362
1347	6.7300e-01	-6.9276	-23.694503	0.000220	2.202434	0.373102	-0.008809
1348	6.7350e-01	-6.9450	-23.735555	0.000205	2.052754	0.347746	-0.008210
1349	6.7400e-01	-6.9691	-23.809106	0.000368	3.677851	0.623045	-0.014710
1350	6.7450e-01	-6.9874	-23.854862	0.000229	2.287965	0.387592	-0.009151
1351	6.7500e-01	-7.0045	-23.927558	0.000364	3.635085	0.615800	-0.014539
1352	6.7550e-01	-7.0240	-23.985715	0.000291	2.908068	0.492640	-0.011631
1353	6.7600e-01	-7.0441	-24.051142	0.000327	3.271577	0.554220	-0.013085
1354	6.7650e-01	-7.0649	-24.100747	0.000248	2.480411	0.420193	-0.009921
1355	6.7700e-01	-7.0866	-24.130253	0.000148	1.475417	0.249942	-0.005901
1356	6.7750e-01	-7.1064	-24.208081	0.000389	3.891679	0.659268	-0.015566
1357	6.7800e-01	-7.1253	-24.264100	0.000280	2.801154	0.474528	-0.011204
1358	6.7850e-01	-7.1473	-24.320974	0.000284	2.843920	0.481773	-0.011375
1359	6.7900e-01	-7.1662	-24.371861	0.000254	2.544560	0.431060	-0.010177
1360	6.7950e-01	-7.1839	-24.431729	0.000299	2.993600	0.507130	-0.011974
1361	6.8000e-01	-7.2053	-24.486465	0.000274	2.737005	0.463661	-0.010947
1362	6.8050e-01	-7.2260	-24.546332	0.000299	2.993600	0.507130	-0.011974
1363	6.8100e-01	-7.2468	-24.604489	0.000291	2.908068	0.492640	-0.011631
1364	6.8150e-01	-7.2663	-24.640410	0.000180	1.796160	0.304278	-0.007184
1365	6.8200e-01	-7.2852	-24.719948	0.000398	3.977211	0.673758	-0.015908
1366	6.8250e-01	-7.3042	-24.784092	0.000321	3.207428	0.543353	-0.012829
1367	6.8300e-01	-7.3252	-24.831131	0.000235	2.352114	0.398459	-0.009408
1368	6.8350e-01	-7.3460	-24.887150	0.000280	2.801154	0.474528	-0.011204
1369	6.8400e-01	-7.3658	-24.965405	0.000391	3.913062	0.662891	-0.015651
1370	6.8450e-01	-7.3853	-25.007740	0.000212	2.116903	0.358613	-0.008467
1371	6.8500e-01	-7.4049	-25.062048	0.000272	2.715622	0.460039	-0.010862
1372	6.8550e-01	-7.4250	-25.131324	0.000346	3.464022	0.586821	-0.013855
1373	6.8600e-01	-7.4442	-25.173231	0.000210	2.095520	0.354991	-0.008381
1374	6.8650e-01	-7.4647	-25.227112	0.000269	2.694240	0.456417	-0.010776
1375	6.8700e-01	-7.4866	-25.289117	0.000310	3.100514	0.525241	-0.012401
1376	6.8750e-01	-7.5043	-25.330169	0.000205	2.052754	0.347746	-0.008210
1377	6.8800e-01	-7.5254	-25.403721	0.000368	3.677851	0.623045	-0.014710
1378	6.8850e-01	-7.5459	-25.438359	0.000173	1.732011	0.293411	-0.006928
1379	6.8900e-01	-7.5666	-25.499509	0.000306	3.057748	0.517997	-0.012230
1380	6.8950e-01	-7.5864	-25.528160	0.000143	1.432651	0.242698	-0.005730
1381	6.9000e-01	-7.6057	-25.626514	0.000492	4.918056	0.833141	-0.019671
1382	6.9050e-01	-7.6252	-25.671414	0.000225	2.245200	0.380347	-0.008980
1383	6.9100e-01	-7.6435	-25.723585	0.000261	2.608708	0.441927	-0.010434
1384	6.9150e-01	-7.6630	-25.772761	0.000246	2.459028	0.416571	-0.009835
1385	6.9200e-01	-7.6838	-25.834340	0.000308	3.079131	0.521619	-0.012316
1386	6.9250e-01	-7.7039	-25.901477	0.000336	3.357108	0.568710	-0.013427
1387	6.9300e-01	-7.7253	-25.950226	0.000244	2.437645	0.412948	-0.009750
1388	6.9350e-01	-7.7430	-26.023350	0.000366	3.656468	0.619422	-0.014625
1389	6.9400e-01	-7.7659	-26.062264	0.000195	1.945840	0.329634	-0.007783
1390	6.9450e-01	-7.7833	-26.121276	0.000295	2.950834	0.499885	-0.011802
1391	6.9500e-01	-7.8059	-26.179861	0.000293	2.929451	0.496262	-0.011717
1392	6.9550e-01	-7.8273	-26.220058	0.000201	2.009988	0.340501	-0.008039
1393	6.9600e-01	-7.8455	-26.294464	0.000372	3.720617	0.630290	-0.014881
1394	6.9650e-01	-7.8623	-26.333806	0.000197	1.967223	0.333257	-0.007868
1395	6.9700e-01	-7.8834	-26.403081	0.000346	3.464022	0.586821	-0.013855
1396	6.9750e-01	-7.9023	-26.457390	0.000272	2.715622	0.460039	-0.010862
1397	6.9800e-01	-7.9249	-26.523244	0.000329	3.292960	0.557842	-0.013171
1398	6.9850e-01	-7.9469	-26.560020	0.000184	1.838925	0.311522	-0.007355
1399	6.9900e-01	-7.9642	-26.620742	0.000304	3.036365	0.514374	-0.012145
1400	6.9950e-01	-7.9868	-26.693866	0.000366	3.656468	0.619422	-0.014625
1401	7.0000e-01	-8.0042	-26.741333	0.000237	2.373497	0.402081	-0.009493
1402	7.0050e-01	-8.0244	-26.786661	0.000227	2.266583	0.383969	-0.009066
1403	7.0100e-01	-8.0439	-26.855081	0.000342	3.421257	0.579577	-0.013684
1404	7.0150e-01	-8.0653	-26.892284	0.000186	1.860308	0.315145	-0.007441
1405	7.0200e-01	-8.0842	-26.958566	0.000331	3.314342	0.561465	-0.013256
1406	7.0250e-01	-8.1059	-27.021427	0.000314	3.143280	0.532486	-0.012572
1407	7.0300e-01	-8.1284	-27.092841	0.000357	3.570937	0.604933	-0.014283
1408	7.0350e-01	-8.1458	-27.121919	0.000145	1.454034	0.246320	-0.005816
1409	7.0400e-01	-8.1629	-27.183925	0.000310	3.100514	0.525241	-0.012401
1410	7.0450e-01	-8.1855	-27.236950	0.000265	2.651474	0.449172	-0.010605
1411	7.0500e-01	-8.2069	-27.281851	0.000225	2.245200	0.380347	-0.008980
1412	7.0550e-01	-8.2258	-27.351126	0.000346	3.464022	0.586821	-0.013855
1413	7.0600e-01	-8.2441	-27.405007	0.000269	2.694240	0.456417	-0.010776
1414	7.0650e-01	-8.2642	-27.466585	0.000308	3.079131	0.521619	-0.012316
1415	7.0700e-01	-8.2844	-27.510203	0.000218	2.181051	0.369480	-0.008724
1416	7.0750e-01	-8.3064	-27.556814	0.000233	2.330731	0.394837	-0.009322
1417	7.0800e-01	-8.3247	-27.632931	0.000381	3.806148	0.644779	-0.015223
1418	7.0850e-01	-8.3451	-27.678687	0.000229	2.287965	0.387592	-0.009151
1419	7.0900e-01	-8.3662	-27.734279	0.000278	2.779771	0.470906	-0.011118
1420	7.0950e-01	-8.3851	-27.788587	0.000272	2.715622	0.460039	-0.010862
1421	7.1000e-01	-8.4040	-27.854014	0.000327	3.271577	0.554220	-0.013085
1422	7.1050e-01	-8.4241	-27.913026	0.000295	2.950834	0.499885	-0.011802
1423	7.1100e-01	-8.4467	-27.959637	0.000233	2.330731	0.394837	-0.009322
1424	7.1150e-01	-8.4663	-28.019505	0.000299	2.993600	0.507130	-0.011974
1425	7.1200e-01	-8.4852	-28.072958	0.000267	2.672857	0.452794	-0.010691
1426	7.1250e-01	-8.5053	-28.143088	0.000351	3.506788	0.594066	-0.014026
1427	7.1300e-01	-8.5218	-28.187561	0.000222	2.223817	0.376725	-0.008895
1428	7.1350e-01	-8.5456	-28.235455	0.000239	2.394880	0.405704	-0.009579
1429	7.1400e-01	-8.5645	-28.295323	0.000299	2.993600	0.507130	-0.011974
1430	7.1450e-01	-8.5865	-28.369302	0.000370	3.699234	0.626667	-0.014796
1431	7.1500e-01	-8.6036	-28.406933	0.000188	1.881691	0.318767	-0.007526
1432	7.1550e-01	-8.6271	-28.466801	0.000299	2.993600	0.507130	-0.011974
1433	7.1600e-01	-8.6463	-28.519826	0.000265	2.651474	0.449172	-0.010605
1434	7.1650e-01	-8.6640	-28.575845	0.000280	2.801154	0.474528	-0.011204
1435	7.1700e-01	-8.6860	-28.631436	0.000278	2.779771	0.470906	-0.011118
1436	7.1750e-01	-8.7052	-28.684034	0.000263	2.630091	0.445549	-0.010520
1437	7.1800e-01	-8.7269	-28.749033	0.000325	3.250194	0.550598	-0.013000
1438	7.1850e-01	-8.7440	-28.793079	0.000220	2.202434	0.373102	-0.008809
1439	7.1900e-01	-8.7666	-28.850808	0.000289	2.886685	0.489018	-0.011546
1440	7.1950e-01	-8.7849	-28.925643	0.000374	3.742000	0.633912	-0.014967
1441	7.2000e-01	-8.8056	-28.973964	0.000242	2.416263	0.409326	-0.009664
1442	7.2050e-01	-8.8264	-29.022714	0.000244	2.437645	0.412948	-0.009750
1443	7.2100e-01	-8.8465	-29.062910	0.000201	2.009988	0.340501	-0.008039
1444	7.2150e-01	-8.8667	-29.153567	0.000453	4.533165	0.767939	-0.018131
1445	7.2200e-01	-8.8856	-29.187777	0.000171	1.710628	0.289788	-0.006842
1446	7.2250e-01	-8.9075	-29.251921	0.000321	3.207428	0.543353	-0.012829
1447	7.2300e-01	-8.9243	-29.281854	0.000150	1.496800	0.253565	-0.005987
1448	7.2350e-01	-8.9460	-29.372083	0.000451	4.511782	0.764317	-0.018046
1449	7.2400e-01	-8.9664	-29.396458	0.000122	1.218823	0.206474	-0.004875
1450	7.2450e-01	-8.9848	-29.483266	0.000434	4.340719	0.735338	-0.017362
1451	7.2500e-01	-9.0064	-29.546982	0.000319	3.186045	0.539731	-0.012743
1452	7.2550e-01	-9.0253	-29.565370	0.000092	0.919463	0.155761	-0.003678
1453	7.2600e-01	-9.0461	-29.645764	0.000402	4.019977	0.681002	-0.016079
1454	7.2650e-01	-9.0650	-29.689381	0.000218	2.181051	0.369480	-0.008724
1455	7.2700e-01	-9.0864	-29.747966	0.000293	2.929451	0.496262	-0.011717
1456	7.2750e-01	-9.1022	-29.821518	0.000368	3.677851	0.623045	-0.014710
1457	7.2800e-01	-9.1251	-29.861714	0.000201	2.009988	0.340501	-0.008039
1458	7.2850e-01	-9.1468	-29.924575	0.000314	3.143280	0.532486	-0.012572
1459	7.2900e-01	-9.1657	-29.971186	0.000233	2.330731	0.394837	-0.009322
1460	7.2950e-01	-9.1865	-30.049014	0.000389	3.891679	0.659268	-0.015566
1461	7.3000e-01	-9.2060	-30.096481	0.000237	2.373497	0.402081	-0.009493
1462	7.3050e-01	-9.2268	-30.141381	0.000225	2.245200	0.380347	-0.008980
1463	7.3100e-01	-9.2445	-30.205097	0.000319	3.186045	0.539731	-0.012743
1464	7.3150e-01	-9.2646	-30.258123	0.000265	2.651474	0.449172	-0.010605
1465	7.3200e-01	-9.2841	-30.306872	0.000244	2.437645	0.412948	-0.009750
1466	7.3250e-01	-9.3031	-30.370588	0.000319	3.186045	0.539731	-0.012743
1467	7.3300e-01	-9.3262	-30.426180	0.000278	2.779771	0.470906	-0.011118
1468	7.3350e-01	-9.3455	-30.485620	0.000297	2.972217	0.503507	-0.011888
1469	7.3400e-01	-9.3653	-30.530093	0.000222	2.223817	0.376725	-0.008895
1470	7.3450e-01	-9.3848	-30.607493	0.000387	3.870297	0.655646	-0.015480
1471	7.3500e-01	-9.4062	-30.647262	0.000199	1.988605	0.336879	-0.007954
1472	7.3550e-01	-9.4270	-30.704136	0.000284	2.843920	0.481773	-0.011375
1473	7.3600e-01	-9.4459	-30.767852	0.000319	3.186045	0.539731	-0.012743
1474	7.3650e-01	-9.4636	-30.834989	0.000336	3.357108	0.568710	-0.013427
1475	7.3700e-01	-9.4849	-30.867061	0.000160	1.603714	0.271677	-0.006414
1476	7.3750e-01	-9.5057	-30.944889	0.000389	3.891679	0.659268	-0.015566
1477	7.3800e-01	-9.5261	-30.997059	0.000261	2.608708	0.441927	-0.010434
1478	7.3850e-01	-9.5478	-31.059065	0.000310	3.100514	0.525241	-0.012401
1479	7.3900e-01	-9.5661	-31.105249	0.000231	2.309348	0.391214	-0.009237
1480	7.3950e-01	-9.5844	-31.149722	0.000222	2.223817	0.376725	-0.008895
1481	7.4000e-01	-9.6064	-31.224984	0.000376	3.763382	0.637534	-0.015052
1482	7.4050e-01	-9.6250	-31.290838	0.000329	3.292960	0.557842	-0.013171
1483	7.4100e-01	-9.6455	-31.327614	0.000184	1.838925	0.311522	-0.007355
1484	7.4150e-01	-9.6668	-31.379356	0.000259	2.587325	0.438305	-0.010349
1485	7.4200e-01	-9.6851	-31.442645	0.000316	3.164662	0.536108	-0.012658
1486	7.4250e-01	-9.7053	-31.499947	0.000287	2.865302	0.485395	-0.011460
1487	7.4300e-01	-9.7251	-31.555538	0.000278	2.779771	0.470906	-0.011118
1488	7.4350e-01	-9.7456	-31.618399	0.000314	3.143280	0.532486	-0.012572
1489	7.4400e-01	-9.7645	-31.683398	0.000325	3.250194	0.550598	-0.013000
1490	7.4450e-01	-9.7822	-31.719746	0.000182	1.817543	0.307900	-0.007270
1491	7.4500e-01	-9.8048	-31.785600	0.000329	3.292960	0.557842	-0.013171
1492	7.4550e-01	-9.8243	-31.845468	0.000299	2.993600	0.507130	-0.011974
1493	7.4600e-01	-9.8432	-31.899349	0.000269	2.694240	0.456417	-0.010776
1494	7.4650e-01	-9.8664	-31.937407	0.000190	1.903074	0.322389	-0.007612
1495	7.4700e-01	-9.8823	-31.997275	0.000299	2.993600	0.507130	-0.011974
1496	7.4750e-01	-9.9027	-32.074248	0.000385	3.848914	0.652024	-0.015395
1497	7.4800e-01	-9.9262	-32.117010	0.000214	2.138285	0.362235	-0.008553
1498	7.4850e-01	-9.9439	-32.197404	0.000402	4.019977	0.681002	-0.016079
1499	7.4900e-01	-9.9635	-32.235462	0.000190	1.903074	0.322389	-0.007612
1500	7.4950e-01	-9.9862	-32.303027	0.000338	3.378491	0.572332	-0.013513
1501	7.5000e-01	-10.0000	-32.346645	0.000218	2.181051	0.369480	-0.008724
1502	7.5050e-01	-9.9854	-32.291054	0.000278	2.779771	0.470906	0.011118
1503	7.5100e-01	-9.9647	-32.260265	0.000154	1.539566	0.260809	0.006158
1504	7.5150e-01	-9.9433	-32.240166	0.000100	1.004994	0.170251	0.004020
1505	7.5200e-01	-9.9244	-32.203818	0.000182	1.817543	0.307900	0.007270
1506	7.5250e-01	-9.9049	-32.187996	0.000079	0.791166	0.134027	0.003164
1507	7.5300e-01	-9.8823	-32.160200	0.000139	1.389886	0.235453	0.005559
1508	7.5350e-01	-9.8682	-32.129411	0.000154	1.539566	0.260809	0.006158
1509	7.5400e-01	-9.8450	-32.105892	0.000118	1.176057	0.199229	0.004704
1510	7.5450e-01	-9.8237	-32.063557	0.000212	2.116903	0.358613	0.008467
1511	7.5500e-01	-9.8042	-32.026354	0.000186	1.860308	0.315145	0.007441
1512	7.5550e-01	-9.7840	-32.021222	0.000026	0.256594	0.043468	0.001026
1513	7.5600e-01	-9.7639	-31.981025	0.000201	2.009988	0.340501	0.008039
1514	7.5650e-01	-9.7431	-31.957506	0.000118	1.176057	0.199229	0.004704
1515	7.5700e-01	-9.7257	-31.920302	0.000186	1.860308	0.315145	0.007441
1516	7.5750e-01	-9.7056	-31.869843	0.000252	2.523177	0.427438	0.010092
1517	7.5800e-01	-9.6821	-31.851455	0.000092	0.919463	0.155761	0.003678
1518	7.5850e-01	-9.6638	-31.827080	0.000122	1.218823	0.206474	0.004875
1519	7.5900e-01	-9.6467	-31.798429	0.000143	1.432651	0.242698	0.005730
1520	7.5950e-01	-9.6235	-31.765074	0.000167	1.667863	0.282544	0.006671
1521	7.6000e-01	-9.6052	-31.744976	0.000100	1.004994	0.170251	0.004020
1522	7.6050e-01	-9.5863	-31.691523	0.000267	2.672857	0.452794	0.010691
1523	7.6100e-01	-9.5637	-31.665865	0.000128	1.282971	0.217341	0.005132
1524	7.6150e-01	-9.5448	-31.612840	0.000265	2.651474	0.449172	0.010605
1525	7.6200e-01	-9.5228	-31.594880	0.000090	0.898080	0.152139	0.003592
1526	7.6250e-01	-9.5026	-31.565373	0.000148	1.475417	0.249942	0.005901
1527	7.6300e-01	-9.4855	-31.511065	0.000272	2.715622	0.460039	0.010862
1528	7.6350e-01	-9.4636	-31.496953	0.000071	0.705634	0.119538	0.002822
1529	7.6400e-01	-9.4440	-31.440935	0.000280	2.801154	0.474528	0.011204
1530	7.6450e-01	-9.4251	-31.418270	0.000113	1.133291	0.191985	0.004533
1531	7.6500e-01	-9.4056	-31.370376	0.000239	2.394880	0.405704	0.009579
1532	7.6550e-01	-9.3848	-31.329324	0.000205	2.052754	0.347746	0.008210
1533	7.6600e-01	-9.3613	-31.302384	0.000135	1.347120	0.228208	0.005388
1534	7.6650e-01	-9.3452	-31.266463	0.000180	1.796160	0.304278	0.007184
1535	7.6700e-01	-9.3244	-31.227977	0.000192	1.924457	0.326012	0.007697
1536	7.6750e-01	-9.3055	-31.194195	0.000169	1.689245	0.286166	0.006756
1537	7.6800e-01	-9.2835	-31.160840	0.000167	1.667863	0.282544	0.006671
1538	7.6850e-01	-9.2646	-31.113374	0.000237	2.373497	0.402081	0.009493
1539	7.6900e-01	-9.2451	-31.071894	0.000207	2.074137	0.351368	0.008296
1540	7.6950e-01	-9.2237	-31.037256	0.000173	1.732011	0.293411	0.006928
1541	7.7000e-01	-9.2097	-30.996632	0.000203	2.031371	0.344124	0.008125
1542	7.7050e-01	-9.1834	-30.979954	0.000083	0.833931	0.141272	0.003335
1543	7.7100e-01	-9.1651	-30.931633	0.000242	2.416263	0.409326	0.009664
1544	7.7150e-01	-9.1438	-30.886732	0.000225	2.245200	0.380347	0.008980
1545	7.7200e-01	-9.1254	-30.843970	0.000214	2.138285	0.362235	0.008553
1546	7.7250e-01	-9.1022	-30.796503	0.000237	2.373497	0.402081	0.009493
1547	7.7300e-01	-9.0845	-30.771701	0.000124	1.240206	0.210097	0.004960
1548	7.7350e-01	-9.0617	-30.734925	0.000184	1.838925	0.311522	0.007355
1549	7.7400e-01	-9.0455	-30.682755	0.000261	2.608708	0.441927	0.010434
1550	7.7450e-01	-9.0272	-30.648545	0.000171	1.710628	0.289788	0.006842
1551	7.7500e-01	-9.0034	-30.617328	0.000156	1.560948	0.264432	0.006243
1552	7.7550e-01	-8.9832	-30.561737	0.000278	2.779771	0.470906	0.011118
1553	7.7600e-01	-8.9649	-30.548908	0.000064	0.641486	0.108671	0.002566
1554	7.7650e-01	-8.9454	-30.504435	0.000222	2.223817	0.376725	0.008895
1555	7.7700e-01	-8.9228	-30.453548	0.000254	2.544560	0.431060	0.010177
1556	7.7750e-01	-8.9024	-30.413351	0.000201	2.009988	0.340501	0.008039
1557	7.7800e-01	-8.8834	-30.371444	0.000210	2.095520	0.354991	0.008381
1558	7.7850e-01	-8.8639	-30.329109	0.000212	2.116903	0.358613	0.008467
1559	7.7900e-01	-8.8438	-30.293188	0.000180	1.796160	0.304278	0.007184
1560	7.7950e-01	-8.8203	-30.288057	0.000026	0.256594	0.043468	0.001026
1561	7.8000e-01	-8.8068	-30.208946	0.000396	3.955828	0.670135	0.015822
1562	7.8050e-01	-8.7836	-30.160624	0.000242	2.416263	0.409326	0.009664
1563	7.8100e-01	-8.7641	-30.130691	0.000150	1.496800	0.253565	0.005987
1564	7.8150e-01	-8.7455	-30.070396	0.000301	3.014982	0.510752	0.012059
1565	7.8200e-01	-8.7257	-30.072534	-0.000011	-0.106914	-0.018112	-0.000428
1566	7.8250e-01	-8.7037	-30.024212	0.000242	2.416263	0.409326	0.009664
1567	7.8300e-01	-8.6842	-29.969904	0.000272	2.715622	0.460039	0.010862
1568	7.8350e-01	-8.6658	-29.938687	0.000156	1.560948	0.264432	0.006243
1569	7.8400e-01	-8.6451	-29.888655	0.000250	2.501794	0.423815	0.010006
1570	7.8450e-01	-8.6250	-29.854872	0.000169	1.689245	0.286166	0.006756
1571	7.8500e-01	-8.6036	-29.804840	0.000250	2.501794	0.423815	0.010006
1572	7.8550e-01	-8.5828	-29.754380	0.000252	2.523177	0.427438	0.010092
1573	7.8600e-01	-8.5645	-29.716322	0.000190	1.903074	0.322389	0.007612
1574	7.8650e-01	-8.5444	-29.673132	0.000216	2.159668	0.365858	0.008638
1575	7.8700e-01	-8.5261	-29.650040	0.000115	1.154674	0.195607	0.004618
1576	7.8750e-01	-8.5023	-29.613692	0.000182	1.817543	0.307900	0.007270
1577	7.8800e-01	-8.4830	-29.551686	0.000310	3.100514	0.525241	0.012401
1578	7.8850e-01	-8.4638	-29.530305	0.000107	1.069143	0.181118	0.004276
1579	7.8900e-01	-8.4443	-29.477279	0.000265	2.651474	0.449172	0.010605
1580	7.8950e-01	-8.4238	-29.430240	0.000235	2.352114	0.398459	0.009408
1581	7.9000e-01	-8.4028	-29.392609	0.000188	1.881691	0.318767	0.007526
1582	7.9050e-01	-8.3833	-29.359255	0.000167	1.667863	0.282544	0.006671
1583	7.9100e-01	-8.3631	-29.309650	0.000248	2.480411	0.420193	0.009921
1584	7.9150e-01	-8.3439	-29.269881	0.000199	1.988605	0.336879	0.007954
1585	7.9200e-01	-8.3230	-29.204882	0.000325	3.250194	0.550598	0.013000
1586	7.9250e-01	-8.3033	-29.178369	0.000133	1.325737	0.224586	0.005303
1587	7.9300e-01	-8.2813	-29.136462	0.000210	2.095520	0.354991	0.008381
1588	7.9350e-01	-8.2645	-29.101397	0.000175	1.753394	0.297033	0.007013
1589	7.9400e-01	-8.2441	-29.030838	0.000353	3.528171	0.597688	0.014112
1590	7.9450e-01	-8.2240	-28.999622	0.000156	1.560948	0.264432	0.006243
1591	7.9500e-01	-8.2020	-28.964984	0.000173	1.732011	0.293411	0.006928
1592	7.9550e-01	-8.1824	-28.933768	0.000156	1.560948	0.264432	0.006243
1593	7.9600e-01	-8.1654	-28.884163	0.000248	2.480411	0.420193	0.009921
1594	7.9650e-01	-8.1440	-28.846104	0.000190	1.903074	0.322389	0.007612
1595	7.9700e-01	-8.1226	-28.798638	0.000237	2.373497	0.402081	0.009493
1596	7.9750e-01	-8.1025	-28.743902	0.000274	2.737005	0.463661	0.010947
1597	7.9800e-01	-8.0854	-28.691732	0.000261	2.608708	0.441927	0.010434
1598	7.9850e-01	-8.0610	-28.642127	0.000248	2.480411	0.420193	0.009921
1599	7.9900e-01	-8.0445	-28.625877	0.000081	0.812548	0.137649	0.003250
1600	7.9950e-01	-8.0225	-28.577128	0.000244	2.437645	0.412948	0.009750
1601	8.0000e-01	-8.0018	-28.527951	0.000246	2.459028	0.416571	0.009835
1602	8.0050e-01	-7.9835	-28.480485	0.000237	2.373497	0.402081	0.009493
1603	8.0100e-01	-7.9633	-28.426176	0.000272	2.715622	0.460039	0.010862
1604	8.0150e-01	-7.9426	-28.395815	0.000152	1.518183	0.257187	0.006072
1605	8.0200e-01	-7.9261	-28.359894	0.000180	1.796160	0.304278	0.007184
1606	8.0250e-01	-7.9029	-28.314138	0.000229	2.287965	0.387592	0.009151
1607	8.0300e-01	-7.8829	-28.262396	0.000259	2.587325	0.438305	0.010349
1608	8.0350e-01	-7.8651	-28.218778	0.000218	2.181051	0.369480	0.008724
1609	8.0400e-01	-7.8446	-28.185851	0.000165	1.646480	0.278921	0.006585
1610	8.0450e-01	-7.8239	-28.146082	0.000199	1.988605	0.336879	0.007954
1611	8.0500e-01	-7.8046	-28.089635	0.000282	2.822537	0.478151	0.011289
1612	8.0550e-01	-7.7808	-28.040031	0.000248	2.480411	0.420193	0.009921
1613	8.0600e-01	-7.7644	-28.027202	0.000064	0.641486	0.108671	0.002566
1614	8.0650e-01	-7.7424	-27.963486	0.000319	3.186045	0.539731	0.012743
1615	8.0700e-01	-7.7210	-27.899770	0.000319	3.186045	0.539731	0.012743
1616	8.0750e-01	-7.7045	-27.870691	0.000145	1.454034	0.246320	0.005816
1617	8.0800e-01	-7.6826	-27.818521	0.000261	2.608708	0.441927	0.010434
1618	8.0850e-01	-7.6649	-27.771054	0.000237	2.373497	0.402081	0.009493
1619	8.0900e-01	-7.6453	-27.720167	0.000254	2.544560	0.431060	0.010177
1620	8.0950e-01	-7.6252	-27.682536	0.000188	1.881691	0.318767	0.007526
1621	8.1000e-01	-7.6051	-27.632931	0.000248	2.480411	0.420193	0.009921
1622	8.1050e-01	-7.5831	-27.589314	0.000218	2.181051	0.369480	0.008724
1623	8.1100e-01	-7.5636	-27.567077	0.000111	1.111908	0.188362	0.004447
1624	8.1150e-01	-7.5428	-27.480697	0.000432	4.319337	0.731715	0.017276
1625	8.1200e-01	-7.5239	-27.460171	0.000103	1.026377	0.173873	0.004105
1626	8.1250e-01	-7.5056	-27.416981	0.000216	2.159668	0.365858	0.008638
1627	8.1300e-01	-7.4854	-27.372508	0.000222	2.223817	0.376725	0.008895
1628	8.1350e-01	-7.4628	-27.325041	0.000237	2.373497	0.402081	0.009493
1629	8.1400e-01	-7.4430	-27.272016	0.000265	2.651474	0.449172	0.010605
1630	8.1450e-01	-7.4268	-27.212576	0.000297	2.972217	0.503507	0.011888
1631	8.1500e-01	-7.4064	-27.181787	0.000154	1.539566	0.260809	0.006158
1632	8.1550e-01	-7.3835	-27.125340	0.000282	2.822537	0.478151	0.011289
1633	8.1600e-01	-7.3652	-27.087282	0.000190	1.903074	0.322389	0.007612
1634	8.1650e-01	-7.3426	-27.055637	0.000158	1.582331	0.268054	0.006329
1635	8.1700e-01	-7.3237	-27.004750	0.000254	2.544560	0.431060	0.010177
1636	8.1750e-01	-7.3035	-26.961560	0.000216	2.159668	0.365858	0.008638
1637	8.1800e-01	-7.2858	-26.900409	0.000306	3.057748	0.517997	0.012230
1638	8.1850e-01	-7.2639	-26.853371	0.000235	2.352114	0.398459	0.009408
1639	8.1900e-01	-7.2449	-26.817022	0.000182	1.817543	0.307900	0.007270
1640	8.1950e-01	-7.2257	-26.767846	0.000246	2.459028	0.416571	0.009835
1641	8.2000e-01	-7.2048	-26.708833	0.000295	2.950834	0.499885	0.011802
1642	8.2050e-01	-7.1833	-26.660939	0.000239	2.394880	0.405704	0.009579
1643	8.2100e-01	-7.1668	-26.608341	0.000263	2.630091	0.445549	0.010520
1644	8.2150e-01	-7.1436	-26.592947	0.000077	0.769783	0.130405	0.003079
1645	8.2200e-01	-7.1247	-26.513408	0.000398	3.977211	0.673758	0.015908
1646	8.2250e-01	-7.1040	-26.477488	0.000180	1.796160	0.304278	0.007184
1647	8.2300e-01	-7.0844	-26.442850	0.000173	1.732011	0.293411	0.006928
1648	8.2350e-01	-7.0621	-26.393673	0.000246	2.459028	0.416571	0.009835
1649	8.2400e-01	-7.0411	-26.347062	0.000233	2.330731	0.394837	0.009322
1650	8.2450e-01	-7.0234	-26.291471	0.000278	2.779771	0.470906	0.011118
1651	8.2500e-01	-7.0075	-26.224334	0.000336	3.357108	0.568710	0.013427
1652	8.2550e-01	-6.9849	-26.194400	0.000150	1.496800	0.253565	0.005987
1653	8.2600e-01	-6.9654	-26.128546	0.000329	3.292960	0.557842	0.013171
1654	8.2650e-01	-6.9465	-26.116572	0.000060	0.598720	0.101426	0.002395
1655	8.2700e-01	-6.9248	-26.061409	0.000276	2.758388	0.467284	0.011033
1656	8.2750e-01	-6.9067	-25.989140	0.000361	3.613702	0.612178	0.014454
1657	8.2800e-01	-6.8833	-25.952792	0.000182	1.817543	0.307900	0.007270
1658	8.2850e-01	-6.8635	-25.916016	0.000184	1.838925	0.311522	0.007355
1659	8.2900e-01	-6.8435	-25.871115	0.000225	2.245200	0.380347	0.008980
1660	8.2950e-01	-6.8246	-25.806116	0.000325	3.250194	0.550598	0.013000
1661	8.3000e-01	-6.8018	-25.770623	0.000177	1.774777	0.300655	0.007099
1662	8.3050e-01	-6.7854	-25.716315	0.000272	2.715622	0.460039	0.010862
1663	8.3100e-01	-6.7616	-25.682105	0.000171	1.710628	0.289788	0.006842
1664	8.3150e-01	-6.7445	-25.615395	0.000334	3.335725	0.565087	0.013342
1665	8.3200e-01	-6.7255	-25.544410	0.000355	3.549554	0.601311	0.014197
1666	8.3250e-01	-6.7042	-25.527732	0.000083	0.833931	0.141272	0.003335
1667	8.3300e-01	-6.6859	-25.464016	0.000319	3.186045	0.539731	0.012743
1668	8.3350e-01	-6.6627	-25.404149	0.000299	2.993600	0.507130	0.011974
1669	8.3400e-01	-6.6438	-25.363524	0.000203	2.031371	0.344124	0.008125
1670	8.3450e-01	-6.6230	-25.314347	0.000246	2.459028	0.416571	0.009835
1671	8.3500e-01	-6.6026	-25.262177	0.000261	2.608708	0.441927	0.010434
1672	8.3550e-01	-6.5839	-25.216849	0.000227	2.266583	0.383969	0.009066
1673	8.3600e-01	-6.5650	-25.156553	0.000301	3.014982	0.510752	0.012059
1674	8.3650e-01	-6.5430	-25.125764	0.000154	1.539566	0.260809	0.006158
1675	8.3700e-01	-6.5235	-25.058200	0.000338	3.378491	0.572332	0.013513
1676	8.3750e-01	-6.5034	-25.021424	0.000184	1.838925	0.311522	0.007355
1677	8.3800e-01	-6.4826	-24.984220	0.000186	1.860308	0.315145	0.007441
1678	8.3850e-01	-6.4631	-24.902116	0.000411	4.105508	0.695492	0.016421
1679	8.3900e-01	-6.4423	-24.869189	0.000165	1.646480	0.278921	0.006585
1680	8.3950e-01	-6.4234	-24.806328	0.000314	3.143280	0.532486	0.012572
1681	8.4000e-01	-6.4027	-24.769125	0.000186	1.860308	0.315145	0.007441
1682	8.4050e-01	-6.3850	-24.703271	0.000329	3.292960	0.557842	0.013171
1683	8.4100e-01	-6.3642	-24.654521	0.000244	2.437645	0.412948	0.009750
1684	8.4150e-01	-6.3453	-24.622022	0.000163	1.625097	0.275299	0.006500
1685	8.4200e-01	-6.3227	-24.565575	0.000282	2.822537	0.478151	0.011289
1686	8.4250e-01	-6.3038	-24.514260	0.000257	2.565943	0.434682	0.010263
1687	8.4300e-01	-6.2861	-24.478767	0.000177	1.774777	0.300655	0.007099
1688	8.4350e-01	-6.2638	-24.422748	0.000280	2.801154	0.474528	0.011204
1689	8.4400e-01	-6.2385	-24.353046	0.000349	3.485405	0.590444	0.013941
1690	8.4450e-01	-6.2244	-24.292750	0.000301	3.014982	0.510752	0.012059
1691	8.4500e-01	-6.2055	-24.266238	0.000133	1.325737	0.224586	0.005303
1692	8.4550e-01	-6.1835	-24.225186	0.000205	2.052754	0.347746	0.008210
1693	8.4600e-01	-6.1634	-24.155910	0.000346	3.464022	0.586821	0.013855
1694	8.4650e-01	-6.1420	-24.107161	0.000244	2.437645	0.412948	0.009750
1695	8.4700e-01	-6.1228	-24.058412	0.000244	2.437645	0.412948	0.009750
1696	8.4750e-01	-6.1027	-23.984005	0.000372	3.720617	0.630290	0.014881
1697	8.4800e-01	-6.0810	-23.972887	0.000056	0.555954	0.094181	0.002224
1698	8.4850e-01	-6.0630	-23.902329	0.000353	3.528171	0.597688	0.014112
1699	8.4900e-01	-6.0419	-23.847165	0.000276	2.758388	0.467284	0.011033
1700	8.4950e-01	-6.0244	-23.783021	0.000321	3.207428	0.543353	0.012829
1701	8.5000e-01	-6.0056	-23.743252	0.000199	1.988605	0.336879	0.007954
1702	8.5050e-01	-5.9840	-23.697496	0.000229	2.287965	0.387592	0.009151
1703	8.5100e-01	-5.9626	-23.641905	0.000278	2.779771	0.470906	0.011118
1704	8.5150e-01	-5.9443	-23.583320	0.000293	2.929451	0.496262	0.011717
1705	8.5200e-01	-5.9208	-23.509769	0.000368	3.677851	0.623045	0.014710
1706	8.5250e-01	-5.9034	-23.484539	0.000126	1.261588	0.213719	0.005046
1707	8.5300e-01	-5.8839	-23.430658	0.000269	2.694240	0.456417	0.010776
1708	8.5350e-01	-5.8620	-23.376349	0.000272	2.715622	0.460039	0.010862
1709	8.5400e-01	-5.8427	-23.326745	0.000248	2.480411	0.420193	0.009921
1710	8.5450e-01	-5.8222	-23.262174	0.000323	3.228811	0.546975	0.012914
1711	8.5500e-01	-5.8039	-23.210858	0.000257	2.565943	0.434682	0.010263
1712	8.5550e-01	-5.7853	-23.151419	0.000297	2.972217	0.503507	0.011888
1713	8.5600e-01	-5.7603	-23.094117	0.000287	2.865302	0.485395	0.011460
1714	8.5650e-01	-5.7404	-23.064611	0.000148	1.475417	0.249942	0.005901
1715	8.5700e-01	-5.7240	-22.993197	0.000357	3.570937	0.604933	0.014283
1716	8.5750e-01	-5.7026	-22.953428	0.000199	1.988605	0.336879	0.007954
1717	8.5800e-01	-5.6846	-22.894416	0.000295	2.950834	0.499885	0.011802
1718	8.5850e-01	-5.6632	-22.837542	0.000284	2.843920	0.481773	0.011375
1719	8.5900e-01	-5.6416	-22.786227	0.000257	2.565943	0.434682	0.010263
1720	8.5950e-01	-5.6220	-22.752444	0.000169	1.689245	0.286166	0.006756
1721	8.6000e-01	-5.6019	-22.674189	0.000391	3.913062	0.662891	0.015651
1722	8.6050e-01	-5.5824	-22.643827	0.000152	1.518183	0.257187	0.006072
1723	8.6100e-01	-5.5640	-22.571559	0.000361	3.613702	0.612178	0.014454
1724	8.6150e-01	-5.5415	-22.512974	0.000293	2.929451	0.496262	0.011717
1725	8.6200e-01	-5.5228	-22.462942	0.000250	2.501794	0.423815	0.010006
1726	8.6250e-01	-5.5058	-22.399653	0.000316	3.164662	0.536108	0.012658
1727	8.6300e-01	-5.4848	-22.357746	0.000210	2.095520	0.354991	0.008381
1728	8.6350e-01	-5.4630	-22.293602	0.000321	3.207428	0.543353	0.012829
1729	8.6400e-01	-5.4432	-22.236728	0.000284	2.843920	0.481773	0.011375
1730	8.6450e-01	-5.4212	-22.178571	0.000291	2.908068	0.492640	0.011631
1731	8.6500e-01	-5.4023	-22.135381	0.000216	2.159668	0.365858	0.008638
1732	8.6550e-01	-5.3848	-22.094329	0.000205	2.052754	0.347746	0.008210
1733	8.6600e-01	-5.3611	-22.026764	0.000338	3.378491	0.572332	0.013513
1734	8.6650e-01	-5.3434	-21.983574	0.000216	2.159668	0.365858	0.008638
1735	8.6700e-01	-5.3230	-21.921568	0.000310	3.100514	0.525241	0.012401
1736	8.6750e-01	-5.2982	-21.869398	0.000261	2.608708	0.441927	0.010434
1737	8.6800e-01	-5.2848	-21.809530	0.000299	2.993600	0.507130	0.011974
1738	8.6850e-01	-5.2631	-21.752656	0.000284	2.843920	0.481773	0.011375
1739	8.6900e-01	-5.2418	-21.698348	0.000272	2.715622	0.460039	0.010862
1740	8.6950e-01	-5.2238	-21.620092	0.000391	3.913062	0.662891	0.015651
1741	8.7000e-01	-5.2023	-21.587593	0.000163	1.625097	0.275299	0.006500
1742	8.7050e-01	-5.1820	-21.540982	0.000233	2.330731	0.394837	0.009322
1743	8.7100e-01	-5.1646	-21.463154	0.000389	3.891679	0.659268	0.015566
1744	8.7150e-01	-5.1426	-21.413122	0.000250	2.501794	0.423815	0.010006
1745	8.7200e-01	-5.1246	-21.357103	0.000280	2.801154	0.474528	0.011204
1746	8.7250e-01	-5.1014	-21.300229	0.000284	2.843920	0.481773	0.011375
1747	8.7300e-01	-5.0806	-21.229671	0.000353	3.528171	0.597688	0.014112
1748	8.7350e-01	-5.0611	-21.205724	0.000120	1.197440	0.202852	0.004789
1749	8.7400e-01	-5.0399	-21.125758	0.000400	3.998594	0.677380	0.015993
1750	8.7450e-01	-5.0254	-21.059903	0.000329	3.292960	0.557842	0.013171
1751	8.7500e-01	-5.0043	-21.016286	0.000218	2.181051	0.369480	0.008724
1752	8.7550e-01	-4.9827	-20.958129	0.000291	2.908068	0.492640	0.011631
1753	8.7600e-01	-4.9635	-20.898261	0.000299	2.993600	0.507130	0.011974
1754	8.7650e-01	-4.9409	-20.849939	0.000242	2.416263	0.409326	0.009664
1755	8.7700e-01	-4.9232	-20.789217	0.000304	3.036365	0.514374	0.012145
1756	8.7750e-01	-4.9024	-20.746026	0.000216	2.159668	0.365858	0.008638
1757	8.7800e-01	-4.8820	-20.670764	0.000376	3.763382	0.637534	0.015052
1758	8.7850e-01	-4.8647	-20.607048	0.000319	3.186045	0.539731	0.012743
1759	8.7900e-01	-4.8432	-20.558299	0.000244	2.437645	0.412948	0.009750
1760	8.7950e-01	-4.8234	-20.496293	0.000310	3.100514	0.525241	0.012401
1761	8.8000e-01	-4.8048	-20.445406	0.000254	2.544560	0.431060	0.010177
1762	8.8050e-01	-4.7852	-20.380407	0.000325	3.250194	0.550598	0.013000
1763	8.8100e-01	-4.7645	-20.331230	0.000246	2.459028	0.416571	0.009835
1764	8.8150e-01	-4.7474	-20.253830	0.000387	3.870297	0.655646	0.015480
1765	8.8200e-01	-4.7215	-20.211922	0.000210	2.095520	0.354991	0.008381
1766	8.8250e-01	-4.7041	-20.137943	0.000370	3.699234	0.626667	0.014796
1767	8.8300e-01	-4.6848	-20.094325	0.000218	2.181051	0.369480	0.008724
1768	8.8350e-01	-4.6616	-20.031037	0.000316	3.164662	0.536108	0.012658
1769	8.8400e-01	-4.6433	-19.965610	0.000327	3.271577	0.554220	0.013085
1770	8.8450e-01	-4.6244	-19.901039	0.000323	3.228811	0.546975	0.012914
1771	8.8500e-01	-4.6009	-19.862125	0.000195	1.945840	0.329634	0.007783
1772	8.8550e-01	-4.5820	-19.797126	0.000325	3.250194	0.550598	0.013000
1773	8.8600e-01	-4.5628	-19.739396	0.000289	2.886685	0.489018	0.011546
1774	8.8650e-01	-4.5424	-19.674397	0.000325	3.250194	0.550598	0.013000
1775	8.8700e-01	-4.5216	-19.614102	0.000301	3.014982	0.510752	0.012059
1776	8.8750e-01	-4.5017	-19.554662	0.000297	2.972217	0.503507	0.011888
1777	8.8800e-01	-4.4851	-19.499499	0.000276	2.758388	0.467284	0.011033
1778	8.8850e-01	-4.4648	-19.429368	0.000351	3.506788	0.594066	0.014026
1779	8.8900e-01	-4.4453	-19.374632	0.000274	2.737005	0.463661	0.010947
1780	8.8950e-01	-4.4239	-19.320751	0.000269	2.694240	0.456417	0.010776
1781	8.9000e-01	-4.4007	-19.237364	0.000417	4.169657	0.706359	0.016677
1782	8.9050e-01	-4.3833	-19.196312	0.000205	2.052754	0.347746	0.008210
1783	8.9100e-01	-4.3616	-19.149701	0.000233	2.330731	0.394837	0.009322
1784	8.9150e-01	-4.3423	-19.074439	0.000376	3.763382	0.637534	0.015052
1785	8.9200e-01	-4.3204	-19.016710	0.000289	2.886685	0.489018	0.011546
1786	8.9250e-01	-4.3052	-18.947862	0.000344	3.442640	0.583199	0.013770
1787	8.9300e-01	-4.2814	-18.882008	0.000329	3.292960	0.557842	0.013171
1788	8.9350e-01	-4.2641	-18.833686	0.000242	2.416263	0.409326	0.009664
1789	8.9400e-01	-4.2422	-18.775957	0.000289	2.886685	0.489018	0.011546
1790	8.9450e-01	-4.2200	-18.698129	0.000389	3.891679	0.659268	0.015566
1791	8.9500e-01	-4.2023	-18.661781	0.000182	1.817543	0.307900	0.007270
1792	8.9550e-01	-4.1834	-18.577111	0.000423	4.233805	0.717226	0.016934
1793	8.9600e-01	-4.1621	-18.522375	0.000274	2.737005	0.463661	0.010947
1794	8.9650e-01	-4.1425	-18.463363	0.000295	2.950834	0.499885	0.011802
1795	8.9700e-01	-4.1245	-18.400074	0.000316	3.164662	0.536108	0.012658
1796	8.9750e-01	-4.1047	-18.346621	0.000267	2.672857	0.452794	0.010691
1797	8.9800e-01	-4.0791	-18.270504	0.000381	3.806148	0.644779	0.015223
1798	8.9850e-01	-4.0620	-18.219189	0.000257	2.565943	0.434682	0.010263
1799	8.9900e-01	-4.0421	-18.132808	0.000432	4.319337	0.731715	0.017276
1800	8.9950e-01	-4.0229	-18.087908	0.000225	2.245200	0.380347	0.008980
1801	9.0000e-01	-4.0028	-18.014356	0.000368	3.677851	0.623045	0.014710
1802	9.0050e-01	-3.9832	-17.963469	0.000254	2.544560	0.431060	0.010177
1803	9.0100e-01	-3.9649	-17.895049	0.000342	3.421257	0.579577	0.013684
1804	9.0150e-01	-3.9419	-17.836036	0.000295	2.950834	0.499885	0.011802
1805	9.0200e-01	-3.9231	-17.781728	0.000272	2.715622	0.460039	0.010862
1806	9.0250e-01	-3.9034	-17.709887	0.000359	3.592320	0.608555	0.014368
1807	9.0300e-01	-3.8824	-17.665414	0.000222	2.223817	0.376725	0.008895
1808	9.0350e-01	-3.8627	-17.585020	0.000402	4.019977	0.681002	0.016079
1809	9.0400e-01	-3.8416	-17.527291	0.000289	2.886685	0.489018	0.011546
1810	9.0450e-01	-3.8230	-17.453739	0.000368	3.677851	0.623045	0.014710
1811	9.0500e-01	-3.8029	-17.396865	0.000284	2.843920	0.481773	0.011375
1812	9.0550e-01	-3.7797	-17.336998	0.000299	2.993600	0.507130	0.011974
1813	9.0600e-01	-3.7638	-17.272854	0.000321	3.207428	0.543353	0.012829
1814	9.0650e-01	-3.7415	-17.192888	0.000400	3.998594	0.677380	0.015993
1815	9.0700e-01	-3.7205	-17.158250	0.000173	1.732011	0.293411	0.006928
1816	9.0750e-01	-3.7031	-17.066739	0.000458	4.575931	0.775184	0.018302
1817	9.0800e-01	-3.6811	-17.025259	0.000207	2.074137	0.351368	0.008296
1818	9.0850e-01	-3.6628	-16.921774	0.000517	5.174651	0.876610	0.020697
1819	9.0900e-01	-3.6424	-16.879866	0.000210	2.095520	0.354991	0.008381
1820	9.0950e-01	-3.6210	-16.809308	0.000353	3.528171	0.597688	0.014112
1821	9.1000e-01	-3.6024	-16.745164	0.000321	3.207428	0.543353	0.012829
1822	9.1050e-01	-3.5850	-16.668192	0.000385	3.848914	0.652024	0.015395
1823	9.1100e-01	-3.5630	-16.610035	0.000291	2.908068	0.492640	0.011631
1824	9.1150e-01	-3.5432	-16.557009	0.000265	2.651474	0.449172	0.010605
1825	9.1200e-01	-3.5220	-16.463787	0.000466	4.661462	0.789673	0.018644
1826	9.1250e-01	-3.5035	-16.409478	0.000272	2.715622	0.460039	0.010862
1827	9.1300e-01	-3.4827	-16.373986	0.000177	1.774777	0.300655	0.007099
1828	9.1350e-01	-3.4641	-16.276915	0.000485	4.853908	0.822274	0.019414
1829	9.1400e-01	-3.4415	-16.221751	0.000276	2.758388	0.467284	0.011033
1830	9.1450e-01	-3.4229	-16.149055	0.000364	3.635085	0.615800	0.014539
1831	9.1500e-01	-3.4058	-16.117838	0.000156	1.560948	0.264432	0.006243
1832	9.1550e-01	-3.3845	-16.040010	0.000389	3.891679	0.659268	0.015566
1833	9.1600e-01	-3.3631	-15.939518	0.000502	5.024971	0.851253	0.020098
1834	9.1650e-01	-3.3439	-15.877085	0.000312	3.121897	0.528864	0.012487
1835	9.1700e-01	-3.3265	-15.809520	0.000338	3.378491	0.572332	0.013513
1836	9.1750e-01	-3.3033	-15.752646	0.000284	2.843920	0.481773	0.011375
1837	9.1800e-01	-3.2841	-15.687647	0.000325	3.250194	0.550598	0.013000
1838	9.1850e-01	-3.2630	-15.609819	0.000389	3.891679	0.659268	0.015566
1839	9.1900e-01	-3.2412	-15.545675	0.000321	3.207428	0.543353	0.012829
1840	9.1950e-01	-3.2227	-15.482815	0.000314	3.143280	0.532486	0.012572
1841	9.2000e-01	-3.2001	-15.431499	0.000257	2.565943	0.434682	0.010263
1842	9.2050e-01	-3.1858	-15.334856	0.000483	4.832525	0.818652	0.019329
1843	9.2100e-01	-3.1623	-15.260449	0.000372	3.720617	0.630290	0.014881
1844	9.2150e-01	-3.1437	-15.210845	0.000248	2.480411	0.420193	0.009921
1845	9.2200e-01	-3.1217	-15.138149	0.000364	3.635085	0.615800	0.014539
1846	9.2250e-01	-3.1033	-15.079564	0.000293	2.929451	0.496262	0.011717
1847	9.2300e-01	-3.0839	-15.000453	0.000396	3.955828	0.670135	0.015822
1848	9.2350e-01	-3.0613	-14.940158	0.000301	3.014982	0.510752	0.012059
1849	9.2400e-01	-3.0436	-14.859337	0.000404	4.041359	0.684625	0.016164
1850	9.2450e-01	-3.0229	-14.806311	0.000265	2.651474	0.449172	0.010605
1851	9.2500e-01	-3.0004	-14.743023	0.000316	3.164662	0.536108	0.012658
1852	9.2550e-01	-2.9841	-14.645524	0.000488	4.875291	0.825897	0.019500
1853	9.2600e-01	-2.9612	-14.601051	0.000222	2.223817	0.376725	0.008895
1854	9.2650e-01	-2.9438	-14.531776	0.000346	3.464022	0.586821	0.013855
1855	9.2700e-01	-2.9230	-14.454376	0.000387	3.870297	0.655646	0.015480
1856	9.2750e-01	-2.9032	-14.373555	0.000404	4.041359	0.684625	0.016164
1857	9.2800e-01	-2.8834	-14.312832	0.000304	3.036365	0.514374	0.012145
1858	9.2850e-01	-2.8623	-14.247405	0.000327	3.271577	0.554220	0.013085
1859	9.2900e-01	-2.8426	-14.180268	0.000336	3.357108	0.568710	0.013427
1860	9.2950e-01	-2.8226	-14.094315	0.000430	4.297954	0.728093	0.017191
1861	9.3000e-01	-2.8016	-14.031882	0.000312	3.121897	0.528864	0.012487
1862	9.3050e-01	-2.7821	-13.960896	0.000355	3.549554	0.601311	0.014197
1863	9.3100e-01	-2.7613	-13.900173	0.000304	3.036365	0.514374	0.012145
1864	9.3150e-01	-2.7435	-13.819780	0.000402	4.019977	0.681002	0.016079
1865	9.3200e-01	-2.7207	-13.747511	0.000361	3.613702	0.612178	0.014454
1866	9.3250e-01	-2.7036	-13.665407	0.000411	4.105508	0.695492	0.016421
1867	9.3300e-01	-2.6804	-13.606395	0.000295	2.950834	0.499885	0.011802
1868	9.3350e-01	-2.6624	-13.542679	0.000319	3.186045	0.539731	0.012743
1869	9.3400e-01	-2.6417	-13.472120	0.000353	3.528171	0.597688	0.014112
1870	9.3450e-01	-2.6188	-13.391299	0.000404	4.041359	0.684625	0.016164
1871	9.3500e-01	-2.6054	-13.318603	0.000364	3.635085	0.615800	0.014539
1872	9.3550e-01	-2.5832	-13.228802	0.000449	4.490399	0.760694	0.017960
1873	9.3600e-01	-2.5599	-13.176631	0.000261	2.608708	0.441927	0.010434
1874	9.3650e-01	-2.5417	-13.081699	0.000475	4.746994	0.804162	0.018987
1875	9.3700e-01	-2.5190	-13.032949	0.000244	2.437645	0.412948	0.009750
1876	9.3750e-01	-2.5018	-12.974365	0.000293	2.929451	0.496262	0.011717
1877	9.3800e-01	-2.4824	-12.894826	0.000398	3.977211	0.673758	0.015908
1878	9.3850e-01	-2.4638	-12.816999	0.000389	3.891679	0.659268	0.015566
1879	9.3900e-01	-2.4415	-12.746440	0.000353	3.528171	0.597688	0.014112
1880	9.3950e-01	-2.4232	-12.681014	0.000327	3.271577	0.554220	0.013085
1881	9.4000e-01	-2.4010	-12.608745	0.000361	3.613702	0.612178	0.014454
1882	9.4050e-01	-2.3783	-12.536904	0.000359	3.592320	0.608555	0.014368
1883	9.4100e-01	-2.3617	-12.461214	0.000378	3.784765	0.641157	0.015138
1884	9.4150e-01	-2.3396	-12.376545	0.000423	4.233805	0.717226	0.016934
1885	9.4200e-01	-2.3225	-12.302565	0.000370	3.699234	0.626667	0.014796
1886	9.4250e-01	-2.3020	-12.224310	0.000391	3.913062	0.662891	0.015651
1887	9.4300e-01	-2.2813	-12.162304	0.000310	3.100514	0.525241	0.012401
1888	9.4350e-01	-2.2639	-12.078917	0.000417	4.169657	0.706359	0.016677
1889	9.4400e-01	-2.2426	-11.995958	0.000415	4.148274	0.702737	0.016592
1890	9.4450e-01	-2.2230	-11.938229	0.000289	2.886685	0.489018	0.011546
1891	9.4500e-01	-2.2005	-11.874940	0.000316	3.164662	0.536108	0.012658
1892	9.4550e-01	-2.1818	-11.804382	0.000353	3.528171	0.597688	0.014112
1893	9.4600e-01	-2.1601	-11.710732	0.000468	4.682845	0.793295	0.018730
1894	9.4650e-01	-2.1412	-11.638463	0.000361	3.613702	0.612178	0.014454
1895	9.4700e-01	-2.1214	-11.562774	0.000378	3.784765	0.641157	0.015138
1896	9.4750e-01	-2.1036	-11.483235	0.000398	3.977211	0.673758	0.015908
1897	9.4800e-01	-2.0803	-11.411822	0.000357	3.570937	0.604933	0.014283
1898	9.4850e-01	-2.0628	-11.340836	0.000355	3.549554	0.601311	0.014197
1899	9.4900e-01	-2.0417	-11.273271	0.000338	3.378491	0.572332	0.013513
1900	9.4950e-01	-2.0216	-11.192878	0.000402	4.019977	0.681002	0.016079
1901	9.5000e-01	-2.0020	-11.097090	0.000479	4.789759	0.811407	0.019158
1902	9.5050e-01	-1.9825	-11.037222	0.000299	2.993600	0.507130	0.011974
1903	9.5100e-01	-1.9634	-10.955546	0.000408	4.084125	0.691870	0.016335
1904	9.5150e-01	-1.9404	-10.887126	0.000342	3.421257	0.579577	0.013684
1905	9.5200e-01	-1.9209	-10.795614	0.000458	4.575931	0.775184	0.018302
1906	9.5250e-01	-1.9023	-10.722918	0.000364	3.635085	0.615800	0.014539
1907	9.5300e-01	-1.8837	-10.677162	0.000229	2.287965	0.387592	0.009151
1908	9.5350e-01	-1.8623	-10.580518	0.000483	4.832525	0.818652	0.019329
1909	9.5400e-01	-1.8449	-10.517230	0.000316	3.164662	0.536108	0.012658
1910	9.5450e-01	-1.8221	-10.430850	0.000432	4.319337	0.731715	0.017276
1911	9.5500e-01	-1.8031	-10.338910	0.000460	4.597314	0.778806	0.018388
1912	9.5550e-01	-1.7826	-10.261082	0.000389	3.891679	0.659268	0.015566
1913	9.5600e-01	-1.7613	-10.186675	0.000372	3.720617	0.630290	0.014881
1914	9.5650e-01	-1.7435	-10.117400	0.000346	3.464022	0.586821	0.013855
1915	9.5700e-01	-1.7231	-10.045987	0.000357	3.570937	0.604933	0.014283
1916	9.5750e-01	-1.7022	-9.946778	0.000496	4.960822	0.840386	0.019842
1917	9.5800e-01	-1.6822	-9.879213	0.000338	3.378491	0.572332	0.013513
1918	9.5850e-01	-1.6624	-9.790694	0.000443	4.426251	0.749827	0.017704
1919	9.5900e-01	-1.6433	-9.746221	0.000222	2.223817	0.376725	0.008895
1920	9.5950e-01	-1.6210	-9.637605	0.000543	5.431245	0.920078	0.021723
1921	9.6000e-01	-1.6006	-9.575171	0.000312	3.121897	0.528864	0.012487
1922	9.6050e-01	-1.5804	-9.499054	0.000381	3.806148	0.644779	0.015223
1923	9.6100e-01	-1.5615	-9.409253	0.000449	4.490399	0.760694	0.017960
1924	9.6150e-01	-1.5441	-9.341688	0.000338	3.378491	0.572332	0.013513
1925	9.6200e-01	-1.5213	-9.254452	0.000436	4.362102	0.738960	0.017447
1926	9.6250e-01	-1.5028	-9.173204	0.000406	4.062742	0.688247	0.016250
1927	9.6300e-01	-1.4814	-9.118468	0.000274	2.737005	0.463661	0.010947
1928	9.6350e-01	-1.4649	-9.020969	0.000488	4.875291	0.825897	0.019500
1929	9.6400e-01	-1.4393	-8.945279	0.000378	3.784765	0.641157	0.015138
1930	9.6450e-01	-1.4222	-8.843504	0.000509	5.089119	0.862120	0.020355
1931	9.6500e-01	-1.4016	-8.799459	0.000220	2.202434	0.373102	0.008809
1932	9.6550e-01	-1.3802	-8.719921	0.000398	3.977211	0.673758	0.015908
1933	9.6600e-01	-1.3615	-8.638244	0.000408	4.084125	0.691870	0.016335
1934	9.6650e-01	-1.3429	-8.528345	0.000550	5.495394	0.930945	0.021980
1935	9.6700e-01	-1.3248	-8.456931	0.000357	3.570937	0.604933	0.014283
1936	9.6750e-01	-1.3041	-8.378676	0.000391	3.913062	0.662891	0.015651
1937	9.6800e-01	-1.2824	-8.308973	0.000349	3.485405	0.590444	0.013941
1938	9.6850e-01	-1.2599	-8.243546	0.000327	3.271577	0.554220	0.013085
1939	9.6900e-01	-1.2402	-8.133219	0.000552	5.516776	0.934567	0.022065
1940	9.6950e-01	-1.2226	-8.053253	0.000400	3.998594	0.677380	0.015993
1941	9.7000e-01	-1.1987	-7.972859	0.000402	4.019977	0.681002	0.016079
1942	9.7050e-01	-1.1829	-7.901446	0.000357	3.570937	0.604933	0.014283
1943	9.7100e-01	-1.1620	-7.839440	0.000310	3.100514	0.525241	0.012401
1944	9.7150e-01	-1.1410	-7.727403	0.000560	5.602308	0.949057	0.022408
1945	9.7200e-01	-1.1206	-7.640595	0.000434	4.340719	0.735338	0.017362
1946	9.7250e-01	-1.1005	-7.574740	0.000329	3.292960	0.557842	0.013171
1947	9.7300e-01	-1.0812	-7.478952	0.000479	4.789759	0.811407	0.019158
1948	9.7350e-01	-1.0628	-7.391717	0.000436	4.362102	0.738960	0.017447
1949	9.7400e-01	-1.0423	-7.330139	0.000308	3.079131	0.521619	0.012316
1950	9.7450e-01	-1.0232	-7.227509	0.000513	5.131885	0.869365	0.020526
1951	9.7500e-01	-0.9998	-7.174483	0.000265	2.651474	0.449172	0.010605
1952	9.7550e-01	-0.9828	-7.086820	0.000438	4.383485	0.742582	0.017533
1953	9.7600e-01	-0.9627	-6.994880	0.000460	4.597314	0.778806	0.018388
1954	9.7650e-01	-0.9410	-6.920901	0.000370	3.699234	0.626667	0.014796
1955	9.7700e-01	-0.9216	-6.845212	0.000378	3.784765	0.641157	0.015138
1956	9.7750e-01	-0.9011	-6.749424	0.000479	4.789759	0.811407	0.019158
1957	9.7800e-01	-0.8839	-6.674589	0.000374	3.742000	0.633912	0.014967
1958	9.7850e-01	-0.8608	-6.597617	0.000385	3.848914	0.652024	0.015395
1959	9.7900e-01	-0.8421	-6.504822	0.000464	4.640079	0.786051	0.018559
1960	9.7950e-01	-0.8257	-6.418869	0.000430	4.297954	0.728093	0.017191
1961	9.8000e-01	-0.8015	-6.340614	0.000391	3.913062	0.662891	0.015651
1962	9.8050e-01	-0.7827	-6.226010	0.000573	5.730605	0.970791	0.022921
1963	9.8100e-01	-0.7602	-6.175550	0.000252	2.523177	0.427438	0.010092
1964	9.8150e-01	-0.7425	-6.069499	0.000530	5.302948	0.898344	0.021210
1965	9.8200e-01	-0.7222	-5.994665	0.000374	3.742000	0.633912	0.014967
1966	9.8250e-01	-0.7008	-5.923679	0.000355	3.549554	0.601311	0.014197
1967	9.8300e-01	-0.6835	-5.847562	0.000381	3.806148	0.644779	0.015223
1968	9.8350e-01	-0.6583	-5.760326	0.000436	4.362102	0.738960	0.017447
1969	9.8400e-01	-0.6425	-5.676084	0.000421	4.212422	0.713604	0.016848
1970	9.8450e-01	-0.6223	-5.573882	0.000511	5.110502	0.865743	0.020440
1971	9.8500e-01	-0.5986	-5.500758	0.000366	3.656468	0.619422	0.014625
1972	9.8550e-01	-0.5830	-5.403259	0.000488	4.875291	0.825897	0.019500
1973	9.8600e-01	-0.5614	-5.348095	0.000276	2.758388	0.467284	0.011033
1974	9.8650e-01	-0.5431	-5.252307	0.000479	4.789759	0.811407	0.019158
1975	9.8700e-01	-0.5213	-5.156092	0.000481	4.811142	0.815030	0.019243
1976	9.8750e-01	-0.5015	-5.082113	0.000370	3.699234	0.626667	0.014796
1977	9.8800e-01	-0.4812	-4.994022	0.000440	4.404868	0.746205	0.017618
1978	9.8850e-01	-0.4627	-4.920470	0.000368	3.677851	0.623045	0.014710
1979	9.8900e-01	-0.4424	-4.834090	0.000432	4.319337	0.731715	0.017276
1980	9.8950e-01	-0.4223	-4.733598	0.000502	5.024971	0.851253	0.020098
1981	9.9000e-01	-0.4030	-4.643369	0.000451	4.511782	0.764317	0.018046
1982	9.9050e-01	-0.3828	-4.582219	0.000306	3.057748	0.517997	0.012230
1983	9.9100e-01	-0.3607	-4.469326	0.000565	5.645074	0.956301	0.022579
1984	9.9150e-01	-0.3414	-4.373110	0.000481	4.811142	0.815030	0.019243
1985	9.9200e-01	-0.3223	-4.307683	0.000327	3.271577	0.554220	0.013085
1986	9.9250e-01	-0.3017	-4.229855	0.000389	3.891679	0.659268	0.015566
1987	9.9300e-01	-0.2802	-4.133640	0.000481	4.811142	0.815030	0.019243
1988	9.9350e-01	-0.2606	-4.068213	0.000327	3.271577	0.554220	0.013085
1989	9.9400e-01	-0.2419	-3.987392	0.000404	4.041359	0.684625	0.016164
1990	9.9450e-01	-0.2216	-3.890321	0.000485	4.853908	0.822274	0.019414
1991	9.9500e-01	-0.2030	-3.811638	0.000393	3.934445	0.666513	0.015737
1992	9.9550e-01	-0.1806	-3.710718	0.000505	5.046354	0.854875	0.020184
1993	9.9600e-01	-0.1602	-3.628614	0.000411	4.105508	0.695492	0.016421
1994	9.9650e-01	-0.1365	-3.538813	0.000449	4.490399	0.760694	0.017960
1995	9.9700e-01	-0.1218	-3.439604	0.000496	4.960822	0.840386	0.019842
1996	9.9750e-01	-0.1009	-3.369473	0.000351	3.506788	0.594066	0.014026
1997	9.9800e-01	-0.0797	-3.269837	0.000498	4.982205	0.844008	0.019927
1998	9.9850e-01	-0.0617	-3.180463	0.000447	4.469017	0.757072	0.017875
1999	9.9900e-01	-0.0404	-3.107767	0.000364	3.635085	0.615800	0.014539
2000	9.9950e-01	-0.0208	-3.023097	0.000423	4.233805	0.717226	0.016934
2001	1.0000e+00	-0.0008	-2.937572	0.000423	4.233805	0.717226	0.017105

Smooth data before PMax, +/-Pr and +/-Vc Calc.

PMax (uC/cm2):	3.60e+01
Pr (uC/cm2):	5.89e+00
-Pr (uC/cm2):	7.36e-01
PLoss (uC/cm2):	6.91e-01
Vc:	-1.77e-01
-Vc:	-1.34e+00
C (Max-Eff) (nF):	3.60e-01
K (Eff):	6.11e+02
Vert. (+/-Pr) Shift (uC/cm2):	3.31e+00
Horiz. Shift (+/-Vc):	-7.60e-01
Offset (uC/cm2):	3.70e+00

A (Loop Area - uC/cm2·Volts):	-2.05e-02



Hysteresis Version: 5.48.1 - Radiant Technologies, Inc., 1999 - 9/12/24

