»»»»»»»»»»»»»»»»»»»»»»»»»»»»»»»»»»»» Hysteresis ««««««««««««««««««««««««««««««««««««
»»»  Executed Version:	5.48.1
»»»  Vision Version:	5.48.4 (R)
»»»  Vision Compiled:	9/18/24
»»»  Driver Version:	5.47.0
»»»  Windows Version:	Windows 8 or 8.1
»»»  Processor Information:	x86 (AMD or Intel) - 32 Processors
»»»  Tester Name:	PMF21124-494 (100V)
»»»  Tester S/N:	PMF21124-494
»»»  Internal Amp Type:	100V RevK 270k
»»»  Internal Amp S/N:	iAB2-596/K     
»»»  Execution Count:	1
»»»»»»»»»»»»»»»»»»»»»»»»»»»»»»»»»»»»»»»»»»««««««««««««««««««««««««««««««««««««««««««

Stored:	7/10/2025 - 17:56:25
Configured:	07/10/25 01:31:25 PM
Executed:	07/10/25 05:55:49 PM

»»»»»»»»»»»»»»»»»»»»»»»»»»»»»»»»»»» Sample Info ««««««««««««««««««««««««««««««««««««
Sample Name:	
Lot Name:	
Wafer Name:	
Die Row/Column:	0/0
Capacitor Number:	0
Sample Area (cm2):	1.00e-04
Sample Thickness (microns):	1.50e-01

Amplifier:	Internal

»»»»»»»»»»»»»»»»»»»»»»»»»»»»»»»»»»» Tester Info «««««««««««««««««««««««««««««««««««
Tester Name:	PMF21124-494 (100V)
Tester Serial Number:	PMF21124-494
Return Signal Amp. Level:	1.79 [Index: 2]

»»»»»»»»»»»»»»»»»»»»»»»»»»»»»»»» Hysteresis Info ««««««««««««««««««««««««««««««««««
Task Name:	Hyst-3361
Volts:	10.00
Field:	666.67 (kV/cm)
DCBias:	0.00
DCField:	0.00 (kV/cm)
Hysteresis Period (ms):	1.00e+00
Preset:	Enabled
Preset Delay (ms):	1.00e+03
Profile:	Standard Bipolar

»»»»»»»»»»»»»»»»»»»»»»»»»»»»»»»»»»»»»» Data «««««««««««««««««««««««««««««««««««««««
Points:	2001

Valid Data

Point	Time (ms)	Drive Voltage	Measured Polarization (uC/cm2)	Capacitance (uF)	Normalized Capacitance (uF/cm2)	Dielectric Constant	Instantaneous Current (mA)
   1	0.0000e+00	-0.0056	-1.937356	0.000338	3.379148	0.572443	0.013513
   2	5.0000e-04	0.0144	-1.869792	0.000338	3.379148	0.572443	0.013513
   3	1.0000e-03	0.0362	-1.835154	0.000173	1.732348	0.293468	0.006928
   4	1.5000e-03	0.0546	-1.803082	0.000160	1.604026	0.271729	0.006414
   5	2.0000e-03	0.0761	-1.769300	0.000169	1.689574	0.286222	0.006756
   6	2.5000e-03	0.0947	-1.735945	0.000167	1.668187	0.282599	0.006671
   7	3.0000e-03	0.1158	-1.702162	0.000169	1.689574	0.286222	0.006756
   8	3.5000e-03	0.1348	-1.662393	0.000199	1.988992	0.336944	0.007954
   9	4.0000e-03	0.1551	-1.624335	0.000190	1.903444	0.322452	0.007612
  10	4.5000e-03	0.1738	-1.590125	0.000171	1.710961	0.289845	0.006842
  11	5.0000e-03	0.1951	-1.539665	0.000252	2.523668	0.427521	0.010092
  12	5.5000e-03	0.2161	-1.505027	0.000173	1.732348	0.293468	0.006928
  13	6.0000e-03	0.2355	-1.468251	0.000184	1.839283	0.311583	0.007355
  14	6.5000e-03	0.2556	-1.417364	0.000255	2.545055	0.431144	0.010177
  15	7.0000e-03	0.2758	-1.401114	0.000081	0.812707	0.137676	0.003250
  16	7.5000e-03	0.2970	-1.346806	0.000272	2.716151	0.460128	0.010862
  17	8.0000e-03	0.3152	-1.304899	0.000210	2.095928	0.355060	0.008381
  18	8.5000e-03	0.3362	-1.276675	0.000141	1.411543	0.239122	0.005645
  19	9.0000e-03	0.3561	-1.241182	0.000178	1.775122	0.300714	0.007099
  20	9.5000e-03	0.3795	-1.187729	0.000267	2.673377	0.452882	0.010691
  21	1.0000e-02	0.3959	-1.166348	0.000107	1.069351	0.181153	0.004276
  22	1.0500e-02	0.4151	-1.109046	0.000287	2.865860	0.485490	0.011460
  23	1.1000e-02	0.4358	-1.073126	0.000180	1.796509	0.304337	0.007184
  24	1.1500e-02	0.4552	-1.036777	0.000182	1.817896	0.307960	0.007270
  25	1.2000e-02	0.4736	-0.993160	0.000218	2.181476	0.369552	0.008724
  26	1.2500e-02	0.4968	-0.951680	0.000207	2.074541	0.351437	0.008296
  27	1.3000e-02	0.5154	-0.918753	0.000165	1.646800	0.278976	0.006585
  28	1.3500e-02	0.5334	-0.880694	0.000190	1.903444	0.322452	0.007612
  29	1.4000e-02	0.5531	-0.830662	0.000250	2.502281	0.423898	0.010006
  30	1.4500e-02	0.5766	-0.795169	0.000178	1.775122	0.300714	0.007099
  31	1.5000e-02	0.5943	-0.753262	0.000210	2.095928	0.355060	0.008381
  32	1.5500e-02	0.6147	-0.708361	0.000225	2.245637	0.380421	0.008980
  33	1.6000e-02	0.6337	-0.683559	0.000124	1.240447	0.210137	0.004960
  34	1.6500e-02	0.6573	-0.639086	0.000222	2.224250	0.376798	0.008895
  35	1.7000e-02	0.6750	-0.596751	0.000212	2.117315	0.358683	0.008467
  36	1.7500e-02	0.6963	-0.568528	0.000141	1.411543	0.239122	0.005645
  37	1.8000e-02	0.7153	-0.522772	0.000229	2.288411	0.387667	0.009151
  38	1.8500e-02	0.7364	-0.488562	0.000171	1.710961	0.289845	0.006842
  39	1.9000e-02	0.7556	-0.421852	0.000334	3.336374	0.565197	0.013342
  40	1.9500e-02	0.7770	-0.393201	0.000143	1.432930	0.242745	0.005730
  41	2.0000e-02	0.7948	-0.360702	0.000163	1.625413	0.275352	0.006500
  42	2.0500e-02	0.8173	-0.317512	0.000216	2.160089	0.365929	0.008638
  43	2.1000e-02	0.8363	-0.282019	0.000178	1.775122	0.300714	0.007099
  44	2.1500e-02	0.8556	-0.241394	0.000203	2.031766	0.344191	0.008125
  45	2.2000e-02	0.8775	-0.193500	0.000240	2.395346	0.405783	0.009579
  46	2.2500e-02	0.8945	-0.162284	0.000156	1.561252	0.264483	0.006243
  47	2.3000e-02	0.9154	-0.112252	0.000250	2.502281	0.423898	0.010006
  48	2.3500e-02	0.9359	-0.072910	0.000197	1.967605	0.333321	0.007868
  49	2.4000e-02	0.9567	-0.031858	0.000205	2.053153	0.347814	0.008210
  50	2.4500e-02	0.9763	0.000641	0.000163	1.625413	0.275352	0.006500
  51	2.5000e-02	0.9983	0.030148	0.000148	1.475704	0.249991	0.005901
  52	2.5500e-02	1.0162	0.080180	0.000250	2.502281	0.423898	0.010006
  53	2.6000e-02	1.0376	0.128501	0.000242	2.416733	0.409406	0.009664
  54	2.6500e-02	1.0549	0.175540	0.000235	2.352572	0.398536	0.009408
  55	2.7000e-02	1.0752	0.219586	0.000220	2.202863	0.373175	0.008809
  56	2.7500e-02	1.0934	0.253368	0.000169	1.689574	0.286222	0.006756
  57	2.8000e-02	1.1159	0.288861	0.000178	1.775122	0.300714	0.007099
  58	2.8500e-02	1.1329	0.328202	0.000197	1.967605	0.333321	0.007868
  59	2.9000e-02	1.1572	0.373531	0.000227	2.267024	0.384044	0.009066
  60	2.9500e-02	1.1761	0.422708	0.000246	2.459507	0.416652	0.009835
  61	3.0000e-02	1.1951	0.465042	0.000212	2.117315	0.358683	0.008467
  62	3.0500e-02	1.2177	0.506095	0.000205	2.053153	0.347814	0.008210
  63	3.1000e-02	1.2369	0.555699	0.000248	2.480894	0.420275	0.009921
  64	3.1500e-02	1.2555	0.585633	0.000150	1.497091	0.253614	0.005987
  65	3.2000e-02	1.2775	0.604876	0.000096	0.962416	0.163038	0.003849
  66	3.2500e-02	1.2964	0.647638	0.000214	2.138702	0.362306	0.008553
  67	3.3000e-02	1.3172	0.706651	0.000295	2.951408	0.499982	0.011802
  68	3.3500e-02	1.3375	0.754972	0.000242	2.416733	0.409406	0.009664
  69	3.4000e-02	1.3567	0.781058	0.000130	1.304608	0.221007	0.005217
  70	3.4500e-02	1.3794	0.822965	0.000210	2.095928	0.355060	0.008381
  71	3.5000e-02	1.3932	0.878984	0.000280	2.801699	0.474621	0.011204
  72	3.5500e-02	1.4137	0.926023	0.000235	2.352572	0.398536	0.009408
  73	3.6000e-02	1.4339	0.961943	0.000180	1.796509	0.304337	0.007184
  74	3.6500e-02	1.4527	1.005988	0.000220	2.202863	0.373175	0.008809
  75	3.7000e-02	1.4738	1.046613	0.000203	2.031766	0.344191	0.008125
  76	3.7500e-02	1.4961	1.085527	0.000195	1.946218	0.329698	0.007783
  77	3.8000e-02	1.5170	1.130427	0.000225	2.245637	0.380421	0.008980
  78	3.8500e-02	1.5335	1.180887	0.000252	2.523668	0.427521	0.010092
  79	3.9000e-02	1.5581	1.225360	0.000222	2.224250	0.376798	0.008895
  80	3.9500e-02	1.5747	1.264274	0.000195	1.946218	0.329698	0.007783
  81	4.0000e-02	1.5970	1.300195	0.000180	1.796509	0.304337	0.007184
  82	4.0500e-02	1.6160	1.353220	0.000265	2.651990	0.449259	0.010605
  83	4.1000e-02	1.6358	1.375884	0.000113	1.133512	0.192022	0.004533
  84	4.1500e-02	1.6554	1.434469	0.000293	2.930021	0.496359	0.011717
  85	4.2000e-02	1.6763	1.469107	0.000173	1.732348	0.293468	0.006928
  86	4.2500e-02	1.6956	1.505455	0.000182	1.817896	0.307960	0.007270
  87	4.3000e-02	1.7168	1.557625	0.000261	2.609216	0.442013	0.010434
  88	4.3500e-02	1.7360	1.593546	0.000180	1.796509	0.304337	0.007184
  89	4.4000e-02	1.7590	1.644005	0.000252	2.523668	0.427521	0.010092
  90	4.4500e-02	1.7753	1.676933	0.000165	1.646800	0.278976	0.006585
  91	4.5000e-02	1.7973	1.726965	0.000250	2.502281	0.423898	0.010006
  92	4.5500e-02	1.8149	1.760747	0.000169	1.689574	0.286222	0.006756
  93	4.6000e-02	1.8327	1.818476	0.000289	2.887247	0.489113	0.011546
  94	4.6500e-02	1.8567	1.864660	0.000231	2.309798	0.391290	0.009237
  95	4.7000e-02	1.8776	1.904857	0.000201	2.010379	0.340567	0.008039
  96	4.7500e-02	1.8947	1.928376	0.000118	1.176286	0.199268	0.004704
  97	4.8000e-02	1.9148	1.992948	0.000323	3.229439	0.547082	0.012914
  98	4.8500e-02	1.9362	2.033572	0.000203	2.031766	0.344191	0.008125
  99	4.9000e-02	1.9572	2.067354	0.000169	1.689574	0.286222	0.006756
 100	4.9500e-02	1.9733	2.129360	0.000310	3.101117	0.525343	0.012401
 101	5.0000e-02	1.9960	2.178109	0.000244	2.438120	0.413029	0.009750
 102	5.0500e-02	2.0151	2.215740	0.000188	1.882057	0.318829	0.007526
 103	5.1000e-02	2.0370	2.257220	0.000207	2.074541	0.351437	0.008296
 104	5.1500e-02	2.0557	2.302976	0.000229	2.288411	0.387667	0.009151
 105	5.2000e-02	2.0793	2.332910	0.000150	1.497091	0.253614	0.005987
 106	5.2500e-02	2.0966	2.368403	0.000178	1.775122	0.300714	0.007099
 107	5.3000e-02	2.1184	2.418862	0.000252	2.523668	0.427521	0.010092
 108	5.3500e-02	2.1375	2.467612	0.000244	2.438120	0.413029	0.009750
 109	5.4000e-02	2.1568	2.512940	0.000227	2.267024	0.384044	0.009066
 110	5.4500e-02	2.1744	2.565538	0.000263	2.630603	0.445636	0.010520
 111	5.5000e-02	2.1950	2.610011	0.000222	2.224250	0.376798	0.008895
 112	5.5500e-02	2.2160	2.645931	0.000180	1.796509	0.304337	0.007184
 113	5.6000e-02	2.2339	2.703233	0.000287	2.865860	0.485490	0.011460
 114	5.6500e-02	2.2552	2.738726	0.000178	1.775122	0.300714	0.007099
 115	5.7000e-02	2.2748	2.797738	0.000295	2.951408	0.499982	0.011802
 116	5.7500e-02	2.2998	2.829810	0.000160	1.604026	0.271729	0.006414
 117	5.8000e-02	2.3155	2.866586	0.000184	1.839283	0.311583	0.007355
 118	5.8500e-02	2.3331	2.903789	0.000186	1.860670	0.315206	0.007441
 119	5.9000e-02	2.3556	2.961946	0.000291	2.908634	0.492736	0.011631
 120	5.9500e-02	2.3773	2.991453	0.000148	1.475704	0.249991	0.005901
 121	6.0000e-02	2.3944	3.050893	0.000297	2.972795	0.503605	0.011888
 122	6.0500e-02	2.4138	3.088524	0.000188	1.882057	0.318829	0.007526
 123	6.1000e-02	2.4368	3.129576	0.000205	2.053153	0.347814	0.008210
 124	6.1500e-02	2.4557	3.174476	0.000225	2.245637	0.380421	0.008980
 125	6.2000e-02	2.4759	3.233061	0.000293	2.930021	0.496359	0.011717
 126	6.2500e-02	2.4960	3.270692	0.000188	1.882057	0.318829	0.007526
 127	6.3000e-02	2.5150	3.331842	0.000306	3.058343	0.518097	0.012230
 128	6.3500e-02	2.5354	3.337401	0.000028	0.278031	0.047100	0.001112
 129	6.4000e-02	2.5556	3.388716	0.000257	2.566442	0.434767	0.010263
 130	6.4500e-02	2.5760	3.446874	0.000291	2.908634	0.492736	0.011631
 131	6.5000e-02	2.5968	3.489208	0.000212	2.117315	0.358683	0.008467
 132	6.5500e-02	2.6172	3.525129	0.000180	1.796509	0.304337	0.007184
 133	6.6000e-02	2.6351	3.567464	0.000212	2.117315	0.358683	0.008467
 134	6.6500e-02	2.6563	3.608944	0.000207	2.074541	0.351437	0.008296
 135	6.7000e-02	2.6758	3.668811	0.000299	2.994182	0.507228	0.011974
 136	6.7500e-02	2.6936	3.715850	0.000235	2.352572	0.398536	0.009408
 137	6.8000e-02	2.7182	3.730817	0.000075	0.748546	0.126807	0.002993
 138	6.8500e-02	2.7354	3.793678	0.000314	3.143891	0.532590	0.012572
 139	6.9000e-02	2.7563	3.822329	0.000143	1.432930	0.242745	0.005730
 140	6.9500e-02	2.7744	3.877492	0.000276	2.758925	0.467375	0.011033
 141	7.0000e-02	2.7965	3.912130	0.000173	1.732348	0.293468	0.006928
 142	7.0500e-02	2.8168	3.971142	0.000295	2.951408	0.499982	0.011802
 143	7.1000e-02	2.8364	3.998938	0.000139	1.390156	0.235499	0.005559
 144	7.1500e-02	2.8542	4.036569	0.000188	1.882057	0.318829	0.007526
 145	7.2000e-02	2.8743	4.095153	0.000293	2.930021	0.496359	0.011717
 146	7.2500e-02	2.8967	4.127225	0.000160	1.604026	0.271729	0.006414
 147	7.3000e-02	2.9156	4.163573	0.000182	1.817896	0.307960	0.007270
 148	7.3500e-02	2.9370	4.220448	0.000284	2.844473	0.481867	0.011375
 149	7.4000e-02	2.9575	4.255941	0.000178	1.775122	0.300714	0.007099
 150	7.4500e-02	2.9758	4.310677	0.000274	2.737538	0.463751	0.010947
 151	7.5000e-02	2.9974	4.346597	0.000180	1.796509	0.304337	0.007184
 152	7.5500e-02	3.0136	4.391498	0.000225	2.245637	0.380421	0.008980
 153	7.6000e-02	3.0371	4.443240	0.000259	2.587829	0.438390	0.010349
 154	7.6500e-02	3.0563	4.474885	0.000158	1.582639	0.268106	0.006329
 155	7.7000e-02	3.0774	4.516792	0.000210	2.095928	0.355060	0.008381
 156	7.7500e-02	3.0960	4.554423	0.000188	1.882057	0.318829	0.007526
 157	7.8000e-02	3.1166	4.608731	0.000272	2.716151	0.460128	0.010862
 158	7.8500e-02	3.1363	4.648073	0.000197	1.967605	0.333321	0.007868
 159	7.9000e-02	3.1553	4.687842	0.000199	1.988992	0.336944	0.007954
 160	7.9500e-02	3.1751	4.728039	0.000201	2.010379	0.340567	0.008039
 161	8.0000e-02	3.1940	4.782775	0.000274	2.737538	0.463751	0.010947
 162	8.0500e-02	3.2195	4.819123	0.000182	1.817896	0.307960	0.007270
 163	8.1000e-02	3.2352	4.849484	0.000152	1.518478	0.257237	0.006072
 164	8.1500e-02	3.2564	4.890109	0.000203	2.031766	0.344191	0.008125
 165	8.2000e-02	3.2746	4.952970	0.000314	3.143891	0.532590	0.012572
 166	8.2500e-02	3.2953	4.988463	0.000178	1.775122	0.300714	0.007099
 167	8.3000e-02	3.3167	5.028232	0.000199	1.988992	0.336944	0.007954
 168	8.3500e-02	3.3350	5.082968	0.000274	2.737538	0.463751	0.010947
 169	8.4000e-02	3.3563	5.122309	0.000197	1.967605	0.333321	0.007868
 170	8.4500e-02	3.3748	5.146256	0.000120	1.197673	0.202891	0.004789
 171	8.5000e-02	3.3954	5.207834	0.000308	3.079730	0.521720	0.012316
 172	8.5500e-02	3.4164	5.251880	0.000220	2.202863	0.373175	0.008809
 173	8.6000e-02	3.4369	5.277110	0.000126	1.261834	0.213760	0.005046
 174	8.6500e-02	3.4546	5.293359	0.000081	0.812707	0.137676	0.003250
 175	8.7000e-02	3.4771	5.352799	0.000297	2.972795	0.503605	0.011888
 176	8.7500e-02	3.4973	5.397272	0.000222	2.224250	0.376798	0.008895
 177	8.8000e-02	3.5159	5.440463	0.000216	2.160089	0.365929	0.008638
 178	8.8500e-02	3.5352	5.483225	0.000214	2.138702	0.362306	0.008553
 179	8.9000e-02	3.5565	5.524277	0.000205	2.053153	0.347814	0.008210
 180	8.9500e-02	3.5757	5.573882	0.000248	2.480894	0.420275	0.009921
 181	9.0000e-02	3.5968	5.607236	0.000167	1.668187	0.282599	0.006671
 182	9.0500e-02	3.6169	5.650854	0.000218	2.181476	0.369552	0.008724
 183	9.1000e-02	3.6353	5.678650	0.000139	1.390156	0.235499	0.005559
 184	9.1500e-02	3.6548	5.727827	0.000246	2.459507	0.416652	0.009835
 185	9.2000e-02	3.6768	5.779997	0.000261	2.609216	0.442013	0.010434
 186	9.2500e-02	3.6952	5.800951	0.000105	1.047964	0.177530	0.004191
 187	9.3000e-02	3.7163	5.859108	0.000291	2.908634	0.492736	0.011631
 188	9.3500e-02	3.7354	5.887331	0.000141	1.411543	0.239122	0.005645
 189	9.4000e-02	3.7592	5.948909	0.000308	3.079730	0.521720	0.012316
 190	9.4500e-02	3.7741	5.948481	-0.000002	-0.021387	-0.003623	-0.000086
 191	9.5000e-02	3.7967	5.985685	0.000186	1.860670	0.315206	0.007441
 192	9.5500e-02	3.8190	6.038283	0.000263	2.630603	0.445636	0.010520
 193	9.6000e-02	3.8367	6.085321	0.000235	2.352572	0.398536	0.009408
 194	9.6500e-02	3.8557	6.147755	0.000312	3.122504	0.528967	0.012487
 195	9.7000e-02	3.8776	6.170419	0.000113	1.133512	0.192022	0.004533
 196	9.7500e-02	3.8969	6.209760	0.000197	1.967605	0.333321	0.007868
 197	9.8000e-02	3.9148	6.260220	0.000252	2.523668	0.427521	0.010092
 198	9.8500e-02	3.9338	6.286305	0.000130	1.304608	0.221007	0.005217
 199	9.9000e-02	3.9560	6.336765	0.000252	2.523668	0.427521	0.010092
 200	9.9500e-02	3.9743	6.374824	0.000190	1.903444	0.322452	0.007612
 201	1.0000e-01	3.9955	6.415021	0.000201	2.010379	0.340567	0.008039
 202	1.0050e-01	4.0167	6.457355	0.000212	2.117315	0.358683	0.008467
 203	1.0100e-01	4.0369	6.490283	0.000165	1.646800	0.278976	0.006585
 204	1.0150e-01	4.0570	6.521072	0.000154	1.539865	0.260860	0.006158
 205	1.0200e-01	4.0756	6.553999	0.000165	1.646800	0.278976	0.006585
 206	1.0250e-01	4.0961	6.601038	0.000235	2.352572	0.398536	0.009408
 207	1.0300e-01	4.1162	6.647649	0.000233	2.331185	0.394913	0.009322
 208	1.0350e-01	4.1373	6.686990	0.000197	1.967605	0.333321	0.007868
 209	1.0400e-01	4.1568	6.721628	0.000173	1.732348	0.293468	0.006928
 210	1.0450e-01	4.1754	6.772088	0.000252	2.523668	0.427521	0.010092
 211	1.0500e-01	4.1953	6.809719	0.000188	1.882057	0.318829	0.007526
 212	1.0550e-01	4.2145	6.837087	0.000137	1.368769	0.231876	0.005474
 213	1.0600e-01	4.2360	6.876856	0.000199	1.988992	0.336944	0.007954
 214	1.0650e-01	4.2609	6.944421	0.000338	3.379148	0.572443	0.013513
 215	1.0700e-01	4.2749	6.951263	0.000034	0.342192	0.057969	0.001368
 216	1.0750e-01	4.2969	6.999584	0.000242	2.416733	0.409406	0.009664
 217	1.0800e-01	4.3149	7.025242	0.000128	1.283221	0.217384	0.005132
 218	1.0850e-01	4.3365	7.076129	0.000255	2.545055	0.431144	0.010177
 219	1.0900e-01	4.3558	7.102214	0.000130	1.304608	0.221007	0.005217
 220	1.0950e-01	4.3768	7.150108	0.000240	2.395346	0.405783	0.009579
 221	1.1000e-01	4.3986	7.197147	0.000235	2.352572	0.398536	0.009408
 222	1.1050e-01	4.4165	7.213397	0.000081	0.812707	0.137676	0.003250
 223	1.1100e-01	4.4391	7.257870	0.000222	2.224250	0.376798	0.008895
 224	1.1150e-01	4.4562	7.286948	0.000145	1.454317	0.246368	0.005816
 225	1.1200e-01	4.4775	7.327145	0.000201	2.010379	0.340567	0.008039
 226	1.1250e-01	4.4946	7.379316	0.000261	2.609216	0.442013	0.010434
 227	1.1300e-01	4.5155	7.420795	0.000207	2.074541	0.351437	0.008296
 228	1.1350e-01	4.5346	7.457999	0.000186	1.860670	0.315206	0.007441
 229	1.1400e-01	4.5538	7.499051	0.000205	2.053153	0.347814	0.008210
 230	1.1450e-01	4.5778	7.530267	0.000156	1.561252	0.264483	0.006243
 231	1.1500e-01	4.5966	7.552076	0.000109	1.090738	0.184776	0.004362
 232	1.1550e-01	4.6149	7.600398	0.000242	2.416733	0.409406	0.009664
 233	1.1600e-01	4.6362	7.644443	0.000220	2.202863	0.373175	0.008809
 234	1.1650e-01	4.6558	7.682929	0.000192	1.924831	0.326075	0.007697
 235	1.1700e-01	4.6768	7.707304	0.000122	1.219060	0.206514	0.004875
 236	1.1750e-01	4.6967	7.747073	0.000199	1.988992	0.336944	0.007954
 237	1.1800e-01	4.7131	7.782139	0.000175	1.753735	0.297091	0.007013
 238	1.1850e-01	4.7379	7.829177	0.000235	2.352572	0.398536	0.009408
 239	1.1900e-01	4.7572	7.861249	0.000160	1.604026	0.271729	0.006414
 240	1.1950e-01	4.7766	7.897170	0.000180	1.796509	0.304337	0.007184
 241	1.2000e-01	4.7925	7.926676	0.000148	1.475704	0.249991	0.005901
 242	1.2050e-01	4.8184	7.971577	0.000225	2.245637	0.380421	0.008980
 243	1.2100e-01	4.8352	7.999372	0.000139	1.390156	0.235499	0.005559
 244	1.2150e-01	4.8572	8.053253	0.000269	2.694764	0.456505	0.010776
 245	1.2200e-01	4.8766	8.077628	0.000122	1.219060	0.206514	0.004875
 246	1.2250e-01	4.8987	8.108844	0.000156	1.561252	0.264483	0.006243
 247	1.2300e-01	4.9168	8.160159	0.000257	2.566442	0.434767	0.010263
 248	1.2350e-01	4.9377	8.185817	0.000128	1.283221	0.217384	0.005132
 249	1.2400e-01	4.9548	8.224731	0.000195	1.946218	0.329698	0.007783
 250	1.2450e-01	4.9770	8.261506	0.000184	1.839283	0.311583	0.007355
 251	1.2500e-01	4.9960	8.299993	0.000192	1.924831	0.326075	0.007697
 252	1.2550e-01	5.0174	8.330782	0.000154	1.539865	0.260860	0.006158
 253	1.2600e-01	5.0366	8.367558	0.000184	1.839283	0.311583	0.007355
 254	1.2650e-01	5.0586	8.388511	0.000105	1.047964	0.177530	0.004191
 255	1.2700e-01	5.0797	8.425715	0.000186	1.860670	0.315206	0.007441
 256	1.2750e-01	5.0970	8.462490	0.000184	1.839283	0.311583	0.007355
 257	1.2800e-01	5.1178	8.527062	0.000323	3.229439	0.547082	0.012914
 258	1.2850e-01	5.1361	8.542884	0.000079	0.791320	0.134053	0.003164
 259	1.2900e-01	5.1544	8.598475	0.000278	2.780312	0.470998	0.011118
 260	1.2950e-01	5.1758	8.624988	0.000133	1.325995	0.224630	0.005303
 261	1.3000e-01	5.1962	8.650645	0.000128	1.283221	0.217384	0.005132
 262	1.3050e-01	5.2148	8.707520	0.000284	2.844473	0.481867	0.011375
 263	1.3100e-01	5.2386	8.736598	0.000145	1.454317	0.246368	0.005816
 264	1.3150e-01	5.2551	8.754558	0.000090	0.898255	0.152168	0.003592
 265	1.3200e-01	5.2771	8.788768	0.000171	1.710961	0.289845	0.006842
 266	1.3250e-01	5.2972	8.825972	0.000186	1.860670	0.315206	0.007441
 267	1.3300e-01	5.3149	8.881136	0.000276	2.758925	0.467375	0.011033
 268	1.3350e-01	5.3365	8.903372	0.000111	1.112125	0.188399	0.004447
 269	1.3400e-01	5.3564	8.943569	0.000201	2.010379	0.340567	0.008039
 270	1.3450e-01	5.3769	8.971792	0.000141	1.411543	0.239122	0.005645
 271	1.3500e-01	5.3979	9.002581	0.000154	1.539865	0.260860	0.006158
 272	1.3550e-01	5.4132	9.042778	0.000201	2.010379	0.340567	0.008039
 273	1.3600e-01	5.4364	9.066297	0.000118	1.176286	0.199268	0.004704
 274	1.3650e-01	5.4556	9.117612	0.000257	2.566442	0.434767	0.010263
 275	1.3700e-01	5.4749	9.159092	0.000207	2.074541	0.351437	0.008296
 276	1.3750e-01	5.4944	9.179190	0.000101	1.005190	0.170284	0.004020
 277	1.3800e-01	5.5164	9.230933	0.000259	2.587829	0.438390	0.010349
 278	1.3850e-01	5.5359	9.257018	0.000130	1.304608	0.221007	0.005217
 279	1.3900e-01	5.5573	9.286524	0.000148	1.475704	0.249991	0.005901
 280	1.3950e-01	5.5731	9.333135	0.000233	2.331185	0.394913	0.009322
 281	1.4000e-01	5.5963	9.361359	0.000141	1.411543	0.239122	0.005645
 282	1.4050e-01	5.6165	9.395996	0.000173	1.732348	0.293468	0.006928
 283	1.4100e-01	5.6354	9.429351	0.000167	1.668187	0.282599	0.006671
 284	1.4150e-01	5.6555	9.450732	0.000107	1.069351	0.181153	0.004276
 285	1.4200e-01	5.6818	9.488791	0.000190	1.903444	0.322452	0.007612
 286	1.4250e-01	5.6970	9.538396	0.000248	2.480894	0.420275	0.009921
 287	1.4300e-01	5.7135	9.574316	0.000180	1.796509	0.304337	0.007184
 288	1.4350e-01	5.7336	9.606388	0.000160	1.604026	0.271729	0.006414
 289	1.4400e-01	5.7550	9.622638	0.000081	0.812707	0.137676	0.003250
 290	1.4450e-01	5.7751	9.673098	0.000252	2.523668	0.427521	0.010092
 291	1.4500e-01	5.7948	9.697472	0.000122	1.219060	0.206514	0.004875
 292	1.4550e-01	5.8191	9.736814	0.000197	1.967605	0.333321	0.007868
 293	1.4600e-01	5.8356	9.764609	0.000139	1.390156	0.235499	0.005559
 294	1.4650e-01	5.8548	9.788556	0.000120	1.197673	0.202891	0.004789
 295	1.4700e-01	5.8759	9.837733	0.000246	2.459507	0.416652	0.009835
 296	1.4750e-01	5.8949	9.859542	0.000109	1.090738	0.184776	0.004362
 297	1.4800e-01	5.9155	9.898884	0.000197	1.967605	0.333321	0.007868
 298	1.4850e-01	5.9363	9.940791	0.000210	2.095928	0.355060	0.008381
 299	1.4900e-01	5.9555	9.953620	0.000064	0.641610	0.108692	0.002566
 300	1.4950e-01	5.9744	10.010066	0.000282	2.823086	0.478244	0.011289
 301	1.5000e-01	5.9976	10.034441	0.000122	1.219060	0.206514	0.004875
 302	1.5050e-01	6.0175	10.064802	0.000152	1.518478	0.257237	0.006072
 303	1.5100e-01	6.0345	10.100723	0.000180	1.796509	0.304337	0.007184
 304	1.5150e-01	6.0556	10.126380	0.000128	1.283221	0.217384	0.005132
 305	1.5200e-01	6.0767	10.162301	0.000180	1.796509	0.304337	0.007184
 306	1.5250e-01	6.0956	10.189669	0.000137	1.368769	0.231876	0.005474
 307	1.5300e-01	6.1163	10.221741	0.000160	1.604026	0.271729	0.006414
 308	1.5350e-01	6.1368	10.252957	0.000156	1.561252	0.264483	0.006243
 309	1.5400e-01	6.1569	10.286740	0.000169	1.689574	0.286222	0.006756
 310	1.5450e-01	6.1765	10.318812	0.000160	1.604026	0.271729	0.006414
 311	1.5500e-01	6.1945	10.344897	0.000130	1.304608	0.221007	0.005217
 312	1.5550e-01	6.2166	10.385949	0.000205	2.053153	0.347814	0.008210
 313	1.5600e-01	6.2402	10.421014	0.000175	1.753735	0.297091	0.007013
 314	1.5650e-01	6.2567	10.455652	0.000173	1.732348	0.293468	0.006928
 315	1.5700e-01	6.2756	10.491145	0.000178	1.775122	0.300714	0.007099
 316	1.5750e-01	6.2952	10.529631	0.000192	1.924831	0.326075	0.007697
 317	1.5800e-01	6.3147	10.533480	0.000019	0.192483	0.032608	0.000770
 318	1.5850e-01	6.3330	10.582656	0.000246	2.459507	0.416652	0.009835
 319	1.5900e-01	6.3531	10.622426	0.000199	1.988992	0.336944	0.007954
 320	1.5950e-01	6.3754	10.649794	0.000137	1.368769	0.231876	0.005474
 321	1.6000e-01	6.3940	10.682293	0.000163	1.625413	0.275352	0.006500
 322	1.6050e-01	6.4148	10.713510	0.000156	1.561252	0.264483	0.006243
 323	1.6100e-01	6.4355	10.731470	0.000090	0.898255	0.152168	0.003592
 324	1.6150e-01	6.4540	10.781930	0.000252	2.523668	0.427521	0.010092
 325	1.6200e-01	6.4771	10.795614	0.000068	0.684384	0.115938	0.002737
 326	1.6250e-01	6.4972	10.832390	0.000184	1.839283	0.311583	0.007355
 327	1.6300e-01	6.5135	10.867455	0.000175	1.753735	0.297091	0.007013
 328	1.6350e-01	6.5369	10.902948	0.000178	1.775122	0.300714	0.007099
 329	1.6400e-01	6.5540	10.931599	0.000143	1.432930	0.242745	0.005730
 330	1.6450e-01	6.5756	10.963243	0.000158	1.582639	0.268106	0.006329
 331	1.6500e-01	6.5945	10.986762	0.000118	1.176286	0.199268	0.004704
 332	1.6550e-01	6.6165	11.024393	0.000188	1.882057	0.318829	0.007526
 333	1.6600e-01	6.6357	11.048340	0.000120	1.197673	0.202891	0.004789
 334	1.6650e-01	6.6541	11.099228	0.000255	2.545055	0.431144	0.010177
 335	1.6700e-01	6.6748	11.136859	0.000188	1.882057	0.318829	0.007526
 336	1.6750e-01	6.6931	11.158240	0.000107	1.069351	0.181153	0.004276
 337	1.6800e-01	6.7140	11.186036	0.000139	1.390156	0.235499	0.005559
 338	1.6850e-01	6.7328	11.214259	0.000141	1.411543	0.239122	0.005645
 339	1.6900e-01	6.7560	11.243338	0.000145	1.454317	0.246368	0.005816
 340	1.6950e-01	6.7752	11.272844	0.000148	1.475704	0.249991	0.005901
 341	1.7000e-01	6.7932	11.313468	0.000203	2.031766	0.344191	0.008125
 342	1.7050e-01	6.8152	11.315606	0.000011	0.106935	0.018115	0.000428
 343	1.7100e-01	6.8352	11.366066	0.000252	2.523668	0.427521	0.010092
 344	1.7150e-01	6.8549	11.403697	0.000188	1.882057	0.318829	0.007526
 345	1.7200e-01	6.8762	11.417809	0.000071	0.705772	0.119561	0.002822
 346	1.7250e-01	6.8964	11.466558	0.000244	2.438120	0.413029	0.009750
 347	1.7300e-01	6.9168	11.476393	0.000049	0.491901	0.083330	0.001967
 348	1.7350e-01	6.9342	11.509748	0.000167	1.668187	0.282599	0.006671
 349	1.7400e-01	6.9525	11.552511	0.000214	2.138702	0.362306	0.008553
 350	1.7450e-01	6.9769	11.580306	0.000139	1.390156	0.235499	0.005559
 351	1.7500e-01	6.9952	11.617082	0.000184	1.839283	0.311583	0.007355
 352	1.7550e-01	7.0135	11.641884	0.000124	1.240447	0.210137	0.004960
 353	1.7600e-01	7.0361	11.665831	0.000120	1.197673	0.202891	0.004789
 354	1.7650e-01	7.0538	11.692344	0.000133	1.325995	0.224630	0.005303
 355	1.7700e-01	7.0737	11.741949	0.000248	2.480894	0.420275	0.009921
 356	1.7750e-01	7.0947	11.753067	0.000056	0.556062	0.094200	0.002224
 357	1.7800e-01	7.1155	11.773593	0.000103	1.026577	0.173907	0.004105
 358	1.7850e-01	7.1368	11.806520	0.000165	1.646800	0.278976	0.006585
 359	1.7900e-01	7.1545	11.853986	0.000237	2.373959	0.402159	0.009493
 360	1.7950e-01	7.1759	11.874940	0.000105	1.047964	0.177530	0.004191
 361	1.8000e-01	7.1936	11.900598	0.000128	1.283221	0.217384	0.005132
 362	1.8050e-01	7.2150	11.937801	0.000186	1.860670	0.315206	0.007441
 363	1.8100e-01	7.2357	11.960037	0.000111	1.112125	0.188399	0.004447
 364	1.8150e-01	7.2552	11.983985	0.000120	1.197673	0.202891	0.004789
 365	1.8200e-01	7.2742	12.025892	0.000210	2.095928	0.355060	0.008381
 366	1.8250e-01	7.2919	12.047701	0.000109	1.090738	0.184776	0.004362
 367	1.8300e-01	7.3163	12.060102	0.000062	0.620223	0.105069	0.002480
 368	1.8350e-01	7.3346	12.094739	0.000173	1.732348	0.293468	0.006928
 369	1.8400e-01	7.3560	12.113983	0.000096	0.962416	0.163038	0.003849
 370	1.8450e-01	7.3761	12.161449	0.000237	2.373959	0.402159	0.009493
 371	1.8500e-01	7.3932	12.198652	0.000186	1.860670	0.315206	0.007441
 372	1.8550e-01	7.4152	12.230297	0.000158	1.582639	0.268106	0.006329
 373	1.8600e-01	7.4353	12.266645	0.000182	1.817896	0.307960	0.007270
 374	1.8650e-01	7.4548	12.275197	0.000043	0.427740	0.072461	0.001711
 375	1.8700e-01	7.4756	12.308124	0.000165	1.646800	0.278976	0.006585
 376	1.8750e-01	7.4951	12.339769	0.000158	1.582639	0.268106	0.006329
 377	1.8800e-01	7.5159	12.363716	0.000120	1.197673	0.202891	0.004789
 378	1.8850e-01	7.5336	12.385952	0.000111	1.112125	0.188399	0.004447
 379	1.8900e-01	7.5549	12.418024	0.000160	1.604026	0.271729	0.006414
 380	1.8950e-01	7.5766	12.442826	0.000124	1.240447	0.210137	0.004960
 381	1.9000e-01	7.5958	12.483023	0.000201	2.010379	0.340567	0.008039
 382	1.9050e-01	7.6135	12.497562	0.000073	0.727159	0.123184	0.002908
 383	1.9100e-01	7.6352	12.545029	0.000237	2.373959	0.402159	0.009493
 384	1.9150e-01	7.6556	12.569831	0.000124	1.240447	0.210137	0.004960
 385	1.9200e-01	7.6764	12.591640	0.000109	1.090738	0.184776	0.004362
 386	1.9250e-01	7.6959	12.617298	0.000128	1.283221	0.217384	0.005132
 387	1.9300e-01	7.7138	12.630982	0.000068	0.684384	0.115938	0.002737
 388	1.9350e-01	7.7362	12.669895	0.000195	1.946218	0.329698	0.007783
 389	1.9400e-01	7.7551	12.709665	0.000199	1.988992	0.336944	0.007954
 390	1.9450e-01	7.7768	12.738315	0.000143	1.432930	0.242745	0.005730
 391	1.9500e-01	7.7924	12.765684	0.000137	1.368769	0.231876	0.005474
 392	1.9550e-01	7.8149	12.784071	0.000092	0.919642	0.155792	0.003678
 393	1.9600e-01	7.8333	12.813150	0.000145	1.454317	0.246368	0.005816
 394	1.9650e-01	7.8542	12.837952	0.000124	1.240447	0.210137	0.004960
 395	1.9700e-01	7.8745	12.880287	0.000212	2.117315	0.358683	0.008467
 396	1.9750e-01	7.8955	12.896537	0.000081	0.812707	0.137676	0.003250
 397	1.9800e-01	7.9156	12.925188	0.000143	1.432930	0.242745	0.005730
 398	1.9850e-01	7.9352	12.961108	0.000180	1.796509	0.304337	0.007184
 399	1.9900e-01	7.9553	12.986766	0.000128	1.283221	0.217384	0.005132
 400	1.9950e-01	7.9767	13.012851	0.000130	1.304608	0.221007	0.005217
 401	2.0000e-01	7.9944	13.013706	0.000004	0.042774	0.007246	0.000171
 402	2.0050e-01	8.0145	13.049627	0.000180	1.796509	0.304337	0.007184
 403	2.0100e-01	8.0365	13.076567	0.000135	1.347382	0.228253	0.005388
 404	2.0150e-01	8.0554	13.115909	0.000197	1.967605	0.333321	0.007868
 405	2.0200e-01	8.0759	13.133014	0.000086	0.855481	0.144922	0.003421
 406	2.0250e-01	8.0945	13.165513	0.000163	1.625413	0.275352	0.006500
 407	2.0300e-01	8.1146	13.198440	0.000165	1.646800	0.278976	0.006585
 408	2.0350e-01	8.1348	13.212552	0.000071	0.705772	0.119561	0.002822
 409	2.0400e-01	8.1573	13.245907	0.000167	1.668187	0.282599	0.006671
 410	2.0450e-01	8.1747	13.280544	0.000173	1.732348	0.293468	0.006928
 411	2.0500e-01	8.1946	13.292518	0.000060	0.598836	0.101446	0.002395
 412	2.0550e-01	8.2141	13.338274	0.000229	2.288411	0.387667	0.009151
 413	2.0600e-01	8.2349	13.354096	0.000079	0.791320	0.134053	0.003164
 414	2.0650e-01	8.2545	13.382747	0.000143	1.432930	0.242745	0.005730
 415	2.0700e-01	8.2767	13.410970	0.000141	1.411543	0.239122	0.005645
 416	2.0750e-01	8.2977	13.430213	0.000096	0.962416	0.163038	0.003849
 417	2.0800e-01	8.3160	13.464851	0.000173	1.732348	0.293468	0.006928
 418	2.0850e-01	8.3362	13.483666	0.000094	0.941029	0.159415	0.003763
 419	2.0900e-01	8.3563	13.526001	0.000212	2.117315	0.358683	0.008467
 420	2.0950e-01	8.3746	13.534126	0.000041	0.406353	0.068838	0.001625
 421	2.1000e-01	8.3972	13.561922	0.000139	1.390156	0.235499	0.005559
 422	2.1050e-01	8.4143	13.580737	0.000094	0.941029	0.159415	0.003763
 423	2.1100e-01	8.4351	13.624355	0.000218	2.181476	0.369552	0.008724
 424	2.1150e-01	8.4558	13.645736	0.000107	1.069351	0.181153	0.004276
 425	2.1200e-01	8.4775	13.654716	0.000045	0.449127	0.076084	0.001796
 426	2.1250e-01	8.4961	13.690637	0.000180	1.796509	0.304337	0.007184
 427	2.1300e-01	8.5156	13.715867	0.000126	1.261834	0.213760	0.005046
 428	2.1350e-01	8.5352	13.754781	0.000195	1.946218	0.329698	0.007783
 429	2.1400e-01	8.5553	13.777017	0.000111	1.112125	0.188399	0.004447
 430	2.1450e-01	8.5736	13.789846	0.000064	0.641610	0.108692	0.002566
 431	2.1500e-01	8.5968	13.825339	0.000178	1.775122	0.300714	0.007099
 432	2.1550e-01	8.6163	13.863398	0.000190	1.903444	0.322452	0.007612
 433	2.1600e-01	8.6353	13.878364	0.000075	0.748546	0.126807	0.002993
 434	2.1650e-01	8.6545	13.894187	0.000079	0.791320	0.134053	0.003164
 435	2.1700e-01	8.6768	13.913857	0.000098	0.983803	0.166661	0.003934
 436	2.1750e-01	8.6945	13.960041	0.000231	2.309798	0.391290	0.009237
 437	2.1800e-01	8.7155	13.988264	0.000141	1.411543	0.239122	0.005645
 438	2.1850e-01	8.7390	14.004514	0.000081	0.812707	0.137676	0.003250
 439	2.1900e-01	8.7552	14.021619	0.000086	0.855481	0.144922	0.003421
 440	2.1950e-01	8.7756	14.055829	0.000171	1.710961	0.289845	0.006842
 441	2.2000e-01	8.7964	14.066520	0.000053	0.534675	0.090576	0.002138
 442	2.2050e-01	8.8153	14.108427	0.000210	2.095928	0.355060	0.008381
 443	2.2100e-01	8.8397	14.105861	-0.000013	-0.128322	-0.021738	-0.000513
 444	2.2150e-01	8.8550	14.141354	0.000178	1.775122	0.300714	0.007099
 445	2.2200e-01	8.8727	14.171715	0.000152	1.518478	0.257237	0.006072
 446	2.2250e-01	8.8965	14.190531	0.000094	0.941029	0.159415	0.003763
 447	2.2300e-01	8.9166	14.228162	0.000188	1.882057	0.318829	0.007526
 448	2.2350e-01	8.9371	14.247405	0.000096	0.962416	0.163038	0.003849
 449	2.2400e-01	8.9590	14.273490	0.000130	1.304608	0.221007	0.005217
 450	2.2450e-01	8.9764	14.305135	0.000158	1.582639	0.268106	0.006329
 451	2.2500e-01	8.9960	14.341910	0.000184	1.839283	0.311583	0.007355
 452	2.2550e-01	9.0150	14.344476	0.000013	0.128322	0.021738	0.000513
 453	2.2600e-01	9.0350	14.374837	0.000152	1.518478	0.257237	0.006072
 454	2.2650e-01	9.0540	14.403916	0.000145	1.454317	0.246368	0.005816
 455	2.2700e-01	9.0756	14.433422	0.000148	1.475704	0.249991	0.005901
 456	2.2750e-01	9.0955	14.442402	0.000045	0.449127	0.076084	0.001796
 457	2.2800e-01	9.1138	14.474902	0.000163	1.625413	0.275352	0.006500
 458	2.2850e-01	9.1345	14.499704	0.000124	1.240447	0.210137	0.004960
 459	2.2900e-01	9.1577	14.512533	0.000064	0.641610	0.108692	0.002566
 460	2.2950e-01	9.1766	14.542039	0.000148	1.475704	0.249991	0.005901
 461	2.3000e-01	9.1956	14.566841	0.000124	1.240447	0.210137	0.004960
 462	2.3050e-01	9.2157	14.589078	0.000111	1.112125	0.188399	0.004447
 463	2.3100e-01	9.2380	14.613880	0.000124	1.240447	0.210137	0.004960
 464	2.3150e-01	9.2566	14.642531	0.000143	1.432930	0.242745	0.005730
 465	2.3200e-01	9.2737	14.673747	0.000156	1.561252	0.264483	0.006243
 466	2.3250e-01	9.2981	14.693846	0.000101	1.005190	0.170284	0.004020
 467	2.3300e-01	9.3140	14.726345	0.000163	1.625413	0.275352	0.006500
 468	2.3350e-01	9.3347	14.743878	0.000088	0.876868	0.148545	0.003507
 469	2.3400e-01	9.3567	14.772957	0.000145	1.454317	0.246368	0.005816
 470	2.3450e-01	9.3765	14.791344	0.000092	0.919642	0.155792	0.003678
 471	2.3500e-01	9.3951	14.819995	0.000143	1.432930	0.242745	0.005730
 472	2.3550e-01	9.4147	14.833679	0.000068	0.684384	0.115938	0.002737
 473	2.3600e-01	9.4324	14.861047	0.000137	1.368769	0.231876	0.005474
 474	2.3650e-01	9.4543	14.886277	0.000126	1.261834	0.213760	0.005046
 475	2.3700e-01	9.4754	14.909369	0.000115	1.154899	0.195645	0.004618
 476	2.3750e-01	9.4934	14.938020	0.000143	1.432930	0.242745	0.005730
 477	2.3800e-01	9.5184	14.950849	0.000064	0.641610	0.108692	0.002566
 478	2.3850e-01	9.5416	14.967526	0.000083	0.834094	0.141299	0.003335
 479	2.3900e-01	9.5560	14.993184	0.000128	1.283221	0.217384	0.005132
 480	2.3950e-01	9.5752	15.021834	0.000143	1.432930	0.242745	0.005730
 481	2.4000e-01	9.5947	15.044499	0.000113	1.133512	0.192022	0.004533
 482	2.4050e-01	9.6155	15.087261	0.000214	2.138702	0.362306	0.008553
 483	2.4100e-01	9.6362	15.080419	-0.000034	-0.342192	-0.057969	-0.001368
 484	2.4150e-01	9.6564	15.108642	0.000141	1.411543	0.239122	0.005645
 485	2.4200e-01	9.6753	15.142425	0.000169	1.689574	0.286222	0.006756
 486	2.4250e-01	9.6954	15.157819	0.000077	0.769933	0.130430	0.003079
 487	2.4300e-01	9.7153	15.195450	0.000188	1.882057	0.318829	0.007526
 488	2.4350e-01	9.7372	15.217259	0.000109	1.090738	0.184776	0.004362
 489	2.4400e-01	9.7546	15.238213	0.000105	1.047964	0.177530	0.004191
 490	2.4450e-01	9.7748	15.260449	0.000111	1.112125	0.188399	0.004447
 491	2.4500e-01	9.7937	15.279693	0.000096	0.962416	0.163038	0.003849
 492	2.4550e-01	9.8145	15.291238	0.000058	0.577449	0.097823	0.002309
 493	2.4600e-01	9.8340	15.329297	0.000190	1.903444	0.322452	0.007612
 494	2.4650e-01	9.8529	15.363935	0.000173	1.732348	0.293468	0.006928
 495	2.4700e-01	9.8740	15.373770	0.000049	0.491901	0.083330	0.001967
 496	2.4750e-01	9.8969	15.396434	0.000113	1.133512	0.192022	0.004533
 497	2.4800e-01	9.9158	15.414822	0.000092	0.919642	0.155792	0.003678
 498	2.4850e-01	9.9359	15.439197	0.000122	1.219060	0.206514	0.004875
 499	2.4900e-01	9.9542	15.461006	0.000109	1.090738	0.184776	0.004362
 500	2.4950e-01	9.9744	15.502058	0.000205	2.053153	0.347814	0.008210
 501	2.5000e-01	9.9933	15.504623	0.000013	0.128322	0.021738	0.000513
 502	2.5050e-01	9.9756	15.508472	-0.000019	-0.192483	-0.032608	0.000770
 503	2.5100e-01	9.9548	15.503341	0.000026	0.256644	0.043477	-0.001026
 504	2.5150e-01	9.9377	15.501202	0.000011	0.106935	0.018115	-0.000428
 505	2.5200e-01	9.9164	15.485808	0.000077	0.769933	0.130430	-0.003079
 506	2.5250e-01	9.8938	15.452453	0.000167	1.668187	0.282599	-0.006671
 507	2.5300e-01	9.8755	15.440052	0.000062	0.620223	0.105069	-0.002480
 508	2.5350e-01	9.8578	15.410973	0.000145	1.454317	0.246368	-0.005816
 509	2.5400e-01	9.8364	15.420381	-0.000047	-0.470514	-0.079707	0.001882
 510	2.5450e-01	9.8178	15.387454	0.000165	1.646800	0.278976	-0.006585
 511	2.5500e-01	9.7992	15.389592	-0.000011	-0.106935	-0.018115	0.000428
 512	2.5550e-01	9.7778	15.362224	0.000137	1.368769	0.231876	-0.005474
 513	2.5600e-01	9.7552	15.342553	0.000098	0.983803	0.166661	-0.003934
 514	2.5650e-01	9.7379	15.328014	0.000073	0.727159	0.123184	-0.002908
 515	2.5700e-01	9.7186	15.299791	0.000141	1.411543	0.239122	-0.005645
 516	2.5750e-01	9.6985	15.298508	0.000006	0.064161	0.010869	-0.000257
 517	2.5800e-01	9.6768	15.277127	0.000107	1.069351	0.181153	-0.004276
 518	2.5850e-01	9.6552	15.266436	0.000053	0.534675	0.090576	-0.002138
 519	2.5900e-01	9.6344	15.243772	0.000113	1.133512	0.192022	-0.004533
 520	2.5950e-01	9.6179	15.210845	0.000165	1.646800	0.278976	-0.006585
 521	2.6000e-01	9.5972	15.198444	0.000062	0.620223	0.105069	-0.002480
 522	2.6050e-01	9.5764	15.183477	0.000075	0.748546	0.126807	-0.002993
 523	2.6100e-01	9.5563	15.178345	0.000026	0.256644	0.043477	-0.001026
 524	2.6150e-01	9.5361	15.156964	0.000107	1.069351	0.181153	-0.004276
 525	2.6200e-01	9.5172	15.138576	0.000092	0.919642	0.155792	-0.003678
 526	2.6250e-01	9.4980	15.107360	0.000156	1.561252	0.264483	-0.006243
 527	2.6300e-01	9.4800	15.100090	0.000036	0.363579	0.061592	-0.001454
 528	2.6350e-01	9.4556	15.102228	-0.000011	-0.106935	-0.018115	0.000428
 529	2.6400e-01	9.4342	15.074005	0.000141	1.411543	0.239122	-0.005645
 530	2.6450e-01	9.4177	15.061176	0.000064	0.641610	0.108692	-0.002566
 531	2.6500e-01	9.3964	15.023117	0.000190	1.903444	0.322452	-0.007612
 532	2.6550e-01	9.3756	15.011999	0.000056	0.556062	0.094200	-0.002224
 533	2.6600e-01	9.3567	14.988052	0.000120	1.197673	0.202891	-0.004789
 534	2.6650e-01	9.3369	14.974368	0.000068	0.684384	0.115938	-0.002737
 535	2.6700e-01	9.3188	14.952987	0.000107	1.069351	0.181153	-0.004276
 536	2.6750e-01	9.2950	14.935882	0.000086	0.855481	0.144922	-0.003421
 537	2.6800e-01	9.2755	14.922625	0.000066	0.662997	0.112315	-0.002651
 538	2.6850e-01	9.2572	14.903810	0.000094	0.941029	0.159415	-0.003763
 539	2.6900e-01	9.2371	14.875159	0.000143	1.432930	0.242745	-0.005730
 540	2.6950e-01	9.2169	14.876014	-0.000004	-0.042774	-0.007246	0.000171
 541	2.7000e-01	9.1980	14.852495	0.000118	1.176286	0.199268	-0.004704
 542	2.7050e-01	9.1748	14.837956	0.000073	0.727159	0.123184	-0.002908
 543	2.7100e-01	9.1565	14.799897	0.000190	1.903444	0.322452	-0.007612
 544	2.7150e-01	9.1364	14.805884	-0.000030	-0.299418	-0.050723	0.001197
 545	2.7200e-01	9.1162	14.769536	0.000182	1.817896	0.307960	-0.007270
 546	2.7250e-01	9.0976	14.746444	0.000115	1.154899	0.195645	-0.004618
 547	2.7300e-01	9.0753	14.739602	0.000034	0.342192	0.057969	-0.001368
 548	2.7350e-01	9.0552	14.719503	0.000101	1.005190	0.170284	-0.004020
 549	2.7400e-01	9.0344	14.692991	0.000133	1.325995	0.224630	-0.005303
 550	2.7450e-01	9.0161	14.674175	0.000094	0.941029	0.159415	-0.003763
 551	2.7500e-01	8.9966	14.655787	0.000092	0.919642	0.155792	-0.003678
 552	2.7550e-01	8.9758	14.622005	0.000169	1.689574	0.286222	-0.006756
 553	2.7600e-01	8.9575	14.619867	0.000011	0.106935	0.018115	-0.000428
 554	2.7650e-01	8.9343	14.601906	0.000090	0.898255	0.152168	-0.003592
 555	2.7700e-01	8.9185	14.574538	0.000137	1.368769	0.231876	-0.005474
 556	2.7750e-01	8.8959	14.566841	0.000038	0.384966	0.065215	-0.001539
 557	2.7800e-01	8.8779	14.546743	0.000101	1.005190	0.170284	-0.004020
 558	2.7850e-01	8.8568	14.519375	0.000137	1.368769	0.231876	-0.005474
 559	2.7900e-01	8.8373	14.512533	0.000034	0.342192	0.057969	-0.001368
 560	2.7950e-01	8.8150	14.490724	0.000109	1.090738	0.184776	-0.004362
 561	2.8000e-01	8.7976	14.455231	0.000178	1.775122	0.300714	-0.007099
 562	2.8050e-01	8.7753	14.451810	0.000017	0.171096	0.028984	-0.000684
 563	2.8100e-01	8.7567	14.424014	0.000139	1.390156	0.235499	-0.005559
 564	2.8150e-01	8.7363	14.403488	0.000103	1.026577	0.173907	-0.004105
 565	2.8200e-01	8.7189	14.376976	0.000133	1.325995	0.224630	-0.005303
 566	2.8250e-01	8.6969	14.359443	0.000088	0.876868	0.148545	-0.003507
 567	2.8300e-01	8.6755	14.342766	0.000083	0.834094	0.141299	-0.003335
 568	2.8350e-01	8.6554	14.336351	0.000032	0.320805	0.054346	-0.001283
 569	2.8400e-01	8.6377	14.316253	0.000101	1.005190	0.170284	-0.004020
 570	2.8450e-01	8.6145	14.281187	0.000175	1.753735	0.297091	-0.007013
 571	2.8500e-01	8.5971	14.262372	0.000094	0.941029	0.159415	-0.003763
 572	2.8550e-01	8.5760	14.240135	0.000111	1.112125	0.188399	-0.004447
 573	2.8600e-01	8.5553	14.232866	0.000036	0.363579	0.061592	-0.001454
 574	2.8650e-01	8.5376	14.212340	0.000103	1.026577	0.173907	-0.004105
 575	2.8700e-01	8.5156	14.174709	0.000188	1.882057	0.318829	-0.007526
 576	2.8750e-01	8.4973	14.159742	0.000075	0.748546	0.126807	-0.002993
 577	2.8800e-01	8.4766	14.144775	0.000075	0.748546	0.126807	-0.002993
 578	2.8850e-01	8.4583	14.128525	0.000081	0.812707	0.137676	-0.003250
 579	2.8900e-01	8.4393	14.101585	0.000135	1.347382	0.228253	-0.005388
 580	2.8950e-01	8.4174	14.079776	0.000109	1.090738	0.184776	-0.004362
 581	2.9000e-01	8.3929	14.086618	-0.000034	-0.342192	-0.057969	0.001368
 582	2.9050e-01	8.3777	14.043000	0.000218	2.181476	0.369552	-0.008724
 583	2.9100e-01	8.3563	14.021191	0.000109	1.090738	0.184776	-0.004362
 584	2.9150e-01	8.3350	14.005797	0.000077	0.769933	0.130430	-0.003079
 585	2.9200e-01	8.3160	13.983133	0.000113	1.133512	0.192022	-0.004533
 586	2.9250e-01	8.2990	13.963890	0.000096	0.962416	0.163038	-0.003849
 587	2.9300e-01	8.2770	13.942081	0.000109	1.090738	0.184776	-0.004362
 588	2.9350e-01	8.2556	13.908726	0.000167	1.668187	0.282599	-0.006671
 589	2.9400e-01	8.2391	13.892476	0.000081	0.812707	0.137676	-0.003250
 590	2.9450e-01	8.2184	13.883496	0.000045	0.449127	0.076084	-0.001796
 591	2.9500e-01	8.2001	13.857838	0.000128	1.283221	0.217384	-0.005132
 592	2.9550e-01	8.1775	13.849286	0.000043	0.427740	0.072461	-0.001711
 593	2.9600e-01	8.1592	13.818069	0.000156	1.561252	0.264483	-0.006243
 594	2.9650e-01	8.1360	13.791984	0.000130	1.304608	0.221007	-0.005217
 595	2.9700e-01	8.1177	13.780866	0.000056	0.556062	0.094200	-0.002224
 596	2.9750e-01	8.0981	13.768037	0.000064	0.641610	0.108692	-0.002566
 597	2.9800e-01	8.0798	13.726130	0.000210	2.095928	0.355060	-0.008381
 598	2.9850e-01	8.0573	13.717150	0.000045	0.449127	0.076084	-0.001796
 599	2.9900e-01	8.0365	13.704321	0.000064	0.641610	0.108692	-0.002566
 600	2.9950e-01	8.0170	13.670966	0.000167	1.668187	0.282599	-0.006671
 601	3.0000e-01	7.9968	13.661131	0.000049	0.491901	0.083330	-0.001967
 602	3.0050e-01	7.9779	13.632908	0.000141	1.411543	0.239122	-0.005645
 603	3.0100e-01	7.9587	13.626493	0.000032	0.320805	0.054346	-0.001283
 604	3.0150e-01	7.9388	13.600408	0.000130	1.304608	0.221007	-0.005217
 605	3.0200e-01	7.9172	13.572612	0.000139	1.390156	0.235499	-0.005559
 606	3.0250e-01	7.8967	13.554225	0.000092	0.919642	0.155792	-0.003678
 607	3.0300e-01	7.8766	13.527712	0.000133	1.325995	0.224630	-0.005303
 608	3.0350e-01	7.8574	13.499916	0.000139	1.390156	0.235499	-0.005559
 609	3.0400e-01	7.8358	13.493074	0.000034	0.342192	0.057969	-0.001368
 610	3.0450e-01	7.8156	13.463568	0.000148	1.475704	0.249991	-0.005901
 611	3.0500e-01	7.7991	13.438766	0.000124	1.240447	0.210137	-0.004960
 612	3.0550e-01	7.7765	13.422944	0.000079	0.791320	0.134053	-0.003164
 613	3.0600e-01	7.7582	13.387451	0.000178	1.775122	0.300714	-0.007099
 614	3.0650e-01	7.7362	13.369918	0.000088	0.876868	0.148545	-0.003507
 615	3.0700e-01	7.7197	13.348109	0.000109	1.090738	0.184776	-0.004362
 616	3.0750e-01	7.6981	13.318175	0.000150	1.497091	0.253614	-0.005987
 617	3.0800e-01	7.6782	13.296366	0.000109	1.090738	0.184776	-0.004362
 618	3.0850e-01	7.6575	13.281400	0.000075	0.748546	0.126807	-0.002993
 619	3.0900e-01	7.6393	13.244624	0.000184	1.839283	0.311583	-0.007355
 620	3.0950e-01	7.6167	13.249328	-0.000024	-0.235257	-0.039854	0.000941
 621	3.1000e-01	7.5955	13.217683	0.000158	1.582639	0.268106	-0.006329
 622	3.1050e-01	7.5769	13.189460	0.000141	1.411543	0.239122	-0.005645
 623	3.1100e-01	7.5574	13.186467	0.000015	0.149709	0.025361	-0.000599
 624	3.1150e-01	7.5378	13.156105	0.000152	1.518478	0.257237	-0.006072
 625	3.1200e-01	7.5165	13.137718	0.000092	0.919642	0.155792	-0.003678
 626	3.1250e-01	7.4976	13.103507	0.000171	1.710961	0.289845	-0.006842
 627	3.1300e-01	7.4771	13.080843	0.000113	1.133512	0.192022	-0.004533
 628	3.1350e-01	7.4561	13.059462	0.000107	1.069351	0.181153	-0.004276
 629	3.1400e-01	7.4384	13.041502	0.000090	0.898255	0.152168	-0.003592
 630	3.1450e-01	7.4194	13.011140	0.000152	1.518478	0.257237	-0.006072
 631	3.1500e-01	7.3996	13.000450	0.000053	0.534675	0.090576	-0.002138
 632	3.1550e-01	7.3785	12.973082	0.000137	1.368769	0.231876	-0.005474
 633	3.1600e-01	7.3566	12.963246	0.000049	0.491901	0.083330	-0.001967
 634	3.1650e-01	7.3364	12.936306	0.000135	1.347382	0.228253	-0.005388
 635	3.1700e-01	7.3163	12.914925	0.000107	1.069351	0.181153	-0.004276
 636	3.1750e-01	7.2955	12.898675	0.000081	0.812707	0.137676	-0.003250
 637	3.1800e-01	7.2757	12.867458	0.000156	1.561252	0.264483	-0.006243
 638	3.1850e-01	7.2589	12.847360	0.000101	1.005190	0.170284	-0.004020
 639	3.1900e-01	7.2375	12.810157	0.000186	1.860670	0.315206	-0.007441
 640	3.1950e-01	7.2186	12.792196	0.000090	0.898255	0.152168	-0.003592
 641	3.2000e-01	7.1973	12.775519	0.000083	0.834094	0.141299	-0.003335
 642	3.2050e-01	7.1771	12.759269	0.000081	0.812707	0.137676	-0.003250
 643	3.2100e-01	7.1582	12.727197	0.000160	1.604026	0.271729	-0.006414
 644	3.2150e-01	7.1381	12.705816	0.000107	1.069351	0.181153	-0.004276
 645	3.2200e-01	7.1173	12.692560	0.000066	0.662997	0.112315	-0.002651
 646	3.2250e-01	7.0991	12.667330	0.000126	1.261834	0.213760	-0.005046
 647	3.2300e-01	7.0764	12.636541	0.000154	1.539865	0.260860	-0.006158
 648	3.2350e-01	7.0575	12.612594	0.000120	1.197673	0.202891	-0.004789
 649	3.2400e-01	7.0380	12.590785	0.000109	1.090738	0.184776	-0.004362
 650	3.2450e-01	7.0135	12.577101	0.000068	0.684384	0.115938	-0.002737
 651	3.2500e-01	6.9977	12.552298	0.000124	1.240447	0.210137	-0.004960
 652	3.2550e-01	6.9771	12.519371	0.000165	1.646800	0.278976	-0.006585
 653	3.2600e-01	6.9547	12.507398	0.000060	0.598836	0.101446	-0.002395
 654	3.2650e-01	6.9373	12.480885	0.000133	1.325995	0.224630	-0.005303
 655	3.2700e-01	6.9165	12.464208	0.000083	0.834094	0.141299	-0.003335
 656	3.2750e-01	6.8961	12.436840	0.000137	1.368769	0.231876	-0.005474
 657	3.2800e-01	6.8774	12.405195	0.000158	1.582639	0.268106	-0.006329
 658	3.2850e-01	6.8591	12.378683	0.000133	1.325995	0.224630	-0.005303
 659	3.2900e-01	6.8390	12.347894	0.000154	1.539865	0.260860	-0.006158
 660	3.2950e-01	6.8188	12.328223	0.000098	0.983803	0.166661	-0.003934
 661	3.3000e-01	6.7975	12.318815	0.000047	0.470514	0.079707	-0.001882
 662	3.3050e-01	6.7780	12.285888	0.000165	1.646800	0.278976	-0.006585
 663	3.3100e-01	6.7590	12.266217	0.000098	0.983803	0.166661	-0.003934
 664	3.3150e-01	6.7334	12.253388	0.000064	0.641610	0.108692	-0.002566
 665	3.3200e-01	6.7151	12.228586	0.000124	1.240447	0.210137	-0.004960
 666	3.3250e-01	6.6974	12.193093	0.000178	1.775122	0.300714	-0.007099
 667	3.3300e-01	6.6786	12.164870	0.000141	1.411543	0.239122	-0.005645
 668	3.3350e-01	6.6565	12.139640	0.000126	1.261834	0.213760	-0.005046
 669	3.3400e-01	6.6383	12.108851	0.000154	1.539865	0.260860	-0.006158
 670	3.3450e-01	6.6150	12.107996	0.000004	0.042774	0.007246	-0.000171
 671	3.3500e-01	6.5955	12.083194	0.000124	1.240447	0.210137	-0.004960
 672	3.3550e-01	6.5762	12.055826	0.000137	1.368769	0.231876	-0.005474
 673	3.3600e-01	6.5601	12.007932	0.000240	2.395346	0.405783	-0.009579
 674	3.3650e-01	6.5375	11.994675	0.000066	0.662997	0.112315	-0.002651
 675	3.3700e-01	6.5173	11.975432	0.000096	0.962416	0.163038	-0.003849
 676	3.3750e-01	6.4960	11.955334	0.000101	1.005190	0.170284	-0.004020
 677	3.3800e-01	6.4764	11.939939	0.000077	0.769933	0.130430	-0.003079
 678	3.3850e-01	6.4545	11.902736	0.000186	1.860670	0.315206	-0.007441
 679	3.3900e-01	6.4362	11.887769	0.000075	0.748546	0.126807	-0.002993
 680	3.3950e-01	6.4197	11.848427	0.000197	1.967605	0.333321	-0.007868
 681	3.4000e-01	6.3971	11.809513	0.000195	1.946218	0.329698	-0.007783
 682	3.4050e-01	6.3779	11.802244	0.000036	0.363579	0.061592	-0.001454
 683	3.4100e-01	6.3574	11.782145	0.000101	1.005190	0.170284	-0.004020
 684	3.4150e-01	6.3394	11.750501	0.000158	1.582639	0.268106	-0.006329
 685	3.4200e-01	6.3153	11.720567	0.000150	1.497091	0.253614	-0.005987
 686	3.4250e-01	6.2958	11.728692	-0.000041	-0.406353	-0.068838	0.001625
 687	3.4300e-01	6.2787	11.688923	0.000199	1.988992	0.336944	-0.007954
 688	3.4350e-01	6.2585	11.663266	0.000128	1.283221	0.217384	-0.005132
 689	3.4400e-01	6.2396	11.640174	0.000115	1.154899	0.195645	-0.004618
 690	3.4450e-01	6.2177	11.626062	0.000071	0.705772	0.119561	-0.002822
 691	3.4500e-01	6.1981	11.591852	0.000171	1.710961	0.289845	-0.006842
 692	3.4550e-01	6.1761	11.572609	0.000096	0.962416	0.163038	-0.003849
 693	3.4600e-01	6.1566	11.542675	0.000150	1.497091	0.253614	-0.005987
 694	3.4650e-01	6.1377	11.504617	0.000190	1.903444	0.322452	-0.007612
 695	3.4700e-01	6.1151	11.499913	0.000024	0.235257	0.039854	-0.000941
 696	3.4750e-01	6.0968	11.463137	0.000184	1.839283	0.311583	-0.007355
 697	3.4800e-01	6.0799	11.437907	0.000126	1.261834	0.213760	-0.005046
 698	3.4850e-01	6.0590	11.410967	0.000135	1.347382	0.228253	-0.005388
 699	3.4900e-01	6.0397	11.382316	0.000143	1.432930	0.242745	-0.005730
 700	3.4950e-01	6.0162	11.358369	0.000120	1.197673	0.202891	-0.004789
 701	3.5000e-01	5.9976	11.336987	0.000107	1.069351	0.181153	-0.004276
 702	3.5050e-01	5.9793	11.319027	0.000090	0.898255	0.152168	-0.003592
 703	3.5100e-01	5.9613	11.291232	0.000139	1.390156	0.235499	-0.005559
 704	3.5150e-01	5.9378	11.273271	0.000090	0.898255	0.152168	-0.003592
 705	3.5200e-01	5.9174	11.243338	0.000150	1.497091	0.253614	-0.005987
 706	3.5250e-01	5.8942	11.235640	0.000038	0.384966	0.065215	-0.001539
 707	3.5300e-01	5.8759	11.195871	0.000199	1.988992	0.336944	-0.007954
 708	3.5350e-01	5.8569	11.171924	0.000120	1.197673	0.202891	-0.004789
 709	3.5400e-01	5.8386	11.137714	0.000171	1.710961	0.289845	-0.006842
 710	3.5450e-01	5.8203	11.116760	0.000105	1.047964	0.177530	-0.004191
 711	3.5500e-01	5.7948	11.107353	0.000047	0.470514	0.079707	-0.001882
 712	3.5550e-01	5.7751	11.062880	0.000222	2.224250	0.376798	-0.008895
 713	3.5600e-01	5.7571	11.043209	0.000098	0.983803	0.166661	-0.003934
 714	3.5650e-01	5.7385	10.995742	0.000237	2.373959	0.402159	-0.009493
 715	3.5700e-01	5.7175	10.971368	0.000122	1.219060	0.206514	-0.004875
 716	3.5750e-01	5.6979	10.947848	0.000118	1.176286	0.199268	-0.004704
 717	3.5800e-01	5.6793	10.921336	0.000133	1.325995	0.224630	-0.005303
 718	3.5850e-01	5.6552	10.918342	0.000015	0.149709	0.025361	-0.000599
 719	3.5900e-01	5.6378	10.876435	0.000210	2.095928	0.355060	-0.008381
 720	3.5950e-01	5.6186	10.848212	0.000141	1.411543	0.239122	-0.005645
 721	3.6000e-01	5.5971	10.819133	0.000145	1.454317	0.246368	-0.005816
 722	3.6050e-01	5.5811	10.801173	0.000090	0.898255	0.152168	-0.003592
 723	3.6100e-01	5.5585	10.759266	0.000210	2.095928	0.355060	-0.008381
 724	3.6150e-01	5.5371	10.748575	0.000053	0.534675	0.090576	-0.002138
 725	3.6200e-01	5.5145	10.727194	0.000107	1.069351	0.181153	-0.004276
 726	3.6250e-01	5.4984	10.689135	0.000190	1.903444	0.322452	-0.007612
 727	3.6300e-01	5.4782	10.663905	0.000126	1.261834	0.213760	-0.005046
 728	3.6350e-01	5.4559	10.634827	0.000145	1.454317	0.246368	-0.005816
 729	3.6400e-01	5.4370	10.625847	0.000045	0.449127	0.076084	-0.001796
 730	3.6450e-01	5.4169	10.584795	0.000205	2.053153	0.347814	-0.008210
 731	3.6500e-01	5.3967	10.573249	0.000058	0.577449	0.097823	-0.002309
 732	3.6550e-01	5.3766	10.526210	0.000235	2.352572	0.398536	-0.009408
 733	3.6600e-01	5.3564	10.512526	0.000068	0.684384	0.115938	-0.002737
 734	3.6650e-01	5.3375	10.481309	0.000156	1.561252	0.264483	-0.006243
 735	3.6700e-01	5.3171	10.451803	0.000148	1.475704	0.249991	-0.005901
 736	3.6750e-01	5.2960	10.417593	0.000171	1.710961	0.289845	-0.006842
 737	3.6800e-01	5.2777	10.382100	0.000178	1.775122	0.300714	-0.007099
 738	3.6850e-01	5.2547	10.371837	0.000051	0.513288	0.086953	-0.002053
 739	3.6900e-01	5.2371	10.364140	0.000038	0.384966	0.065215	-0.001539
 740	3.6950e-01	5.2173	10.314535	0.000248	2.480894	0.420275	-0.009921
 741	3.7000e-01	5.1984	10.288023	0.000133	1.325995	0.224630	-0.005303
 742	3.7050e-01	5.1746	10.259372	0.000143	1.432930	0.242745	-0.005730
 743	3.7100e-01	5.1550	10.233287	0.000130	1.304608	0.221007	-0.005217
 744	3.7150e-01	5.1349	10.210622	0.000113	1.133512	0.192022	-0.004533
 745	3.7200e-01	5.1172	10.165294	0.000227	2.267024	0.384044	-0.009066
 746	3.7250e-01	5.0977	10.147762	0.000088	0.876868	0.148545	-0.003507
 747	3.7300e-01	5.0757	10.127663	0.000101	1.005190	0.170284	-0.004020
 748	3.7350e-01	5.0568	10.106710	0.000105	1.047964	0.177530	-0.004191
 749	3.7400e-01	5.0357	10.090460	0.000081	0.812707	0.137676	-0.003250
 750	3.7450e-01	5.0180	10.046414	0.000220	2.202863	0.373175	-0.008809
 751	3.7500e-01	4.9982	10.001941	0.000222	2.224250	0.376798	-0.008895
 752	3.7550e-01	4.9768	9.992106	0.000049	0.491901	0.083330	-0.001967
 753	3.7600e-01	4.9545	9.963883	0.000141	1.411543	0.239122	-0.005645
 754	3.7650e-01	4.9374	9.930528	0.000167	1.668187	0.282599	-0.006671
 755	3.7700e-01	4.9155	9.895890	0.000173	1.732348	0.293468	-0.006928
 756	3.7750e-01	4.8993	9.877930	0.000090	0.898255	0.152168	-0.003592
 757	3.7800e-01	4.8767	9.861680	0.000081	0.812707	0.137676	-0.003250
 758	3.7850e-01	4.8563	9.825760	0.000180	1.796509	0.304337	-0.007184
 759	3.7900e-01	4.8343	9.792405	0.000167	1.668187	0.282599	-0.006671
 760	3.7950e-01	4.8172	9.763754	0.000143	1.432930	0.242745	-0.005730
 761	3.8000e-01	4.7940	9.734248	0.000148	1.475704	0.249991	-0.005901
 762	3.8050e-01	4.7766	9.722274	0.000060	0.598836	0.101446	-0.002395
 763	3.8100e-01	4.7565	9.669677	0.000263	2.630603	0.445636	-0.010520
 764	3.8150e-01	4.7382	9.656848	0.000064	0.641610	0.108692	-0.002566
 765	3.8200e-01	4.7168	9.612375	0.000222	2.224250	0.376798	-0.008895
 766	3.8250e-01	4.6973	9.593559	0.000094	0.941029	0.159415	-0.003763
 767	3.8300e-01	4.6790	9.563625	0.000150	1.497091	0.253614	-0.005987
 768	3.8350e-01	4.6564	9.522146	0.000207	2.074541	0.351437	-0.008296
 769	3.8400e-01	4.6365	9.506324	0.000079	0.791320	0.134053	-0.003164
 770	3.8450e-01	4.6158	9.478956	0.000137	1.368769	0.231876	-0.005474
 771	3.8500e-01	4.5984	9.449022	0.000150	1.497091	0.253614	-0.005987
 772	3.8550e-01	4.5770	9.418233	0.000154	1.539865	0.260860	-0.006158
 773	3.8600e-01	4.5570	9.396852	0.000107	1.069351	0.181153	-0.004276
 774	3.8650e-01	4.5343	9.335701	0.000306	3.058343	0.518097	-0.012230
 775	3.8700e-01	4.5139	9.341260	-0.000028	-0.278031	-0.047100	0.001112
 776	3.8750e-01	4.4965	9.304057	0.000186	1.860670	0.315206	-0.007441
 777	3.8800e-01	4.4763	9.279255	0.000124	1.240447	0.210137	-0.004960
 778	3.8850e-01	4.4537	9.234354	0.000225	2.245637	0.380421	-0.008980
 779	3.8900e-01	4.4360	9.218104	0.000081	0.812707	0.137676	-0.003250
 780	3.8950e-01	4.4149	9.186032	0.000160	1.604026	0.271729	-0.006414
 781	3.9000e-01	4.3964	9.159947	0.000130	1.304608	0.221007	-0.005217
 782	3.9050e-01	4.3762	9.120178	0.000199	1.988992	0.336944	-0.007954
 783	3.9100e-01	4.3576	9.102218	0.000090	0.898255	0.152168	-0.003592
 784	3.9150e-01	4.3379	9.056462	0.000229	2.288411	0.387667	-0.009151
 785	3.9200e-01	4.3152	9.035936	0.000103	1.026577	0.173907	-0.004105
 786	3.9250e-01	4.2970	9.017120	0.000094	0.941029	0.159415	-0.003763
 787	3.9300e-01	4.2761	8.966661	0.000252	2.523668	0.427521	-0.010092
 788	3.9350e-01	4.2566	8.943996	0.000113	1.133512	0.192022	-0.004533
 789	3.9400e-01	4.2358	8.932451	0.000058	0.577449	0.097823	-0.002309
 790	3.9450e-01	4.2157	8.902089	0.000152	1.518478	0.257237	-0.006072
 791	3.9500e-01	4.1968	8.870873	0.000156	1.561252	0.264483	-0.006243
 792	3.9550e-01	4.1763	8.830248	0.000203	2.031766	0.344191	-0.008125
 793	3.9600e-01	4.1565	8.792617	0.000188	1.882057	0.318829	-0.007526
 794	3.9650e-01	4.1403	8.759262	0.000167	1.668187	0.282599	-0.006671
 795	3.9700e-01	4.1162	8.725908	0.000167	1.668187	0.282599	-0.006671
 796	3.9750e-01	4.0948	8.692553	0.000167	1.668187	0.282599	-0.006671
 797	3.9800e-01	4.0753	8.681862	0.000053	0.534675	0.090576	-0.002138
 798	3.9850e-01	4.0552	8.647224	0.000173	1.732348	0.293468	-0.006928
 799	3.9900e-01	4.0353	8.617291	0.000150	1.497091	0.253614	-0.005987
 800	3.9950e-01	4.0152	8.581370	0.000180	1.796509	0.304337	-0.007184
 801	4.0000e-01	3.9954	8.560417	0.000105	1.047964	0.177530	-0.004191
 802	4.0050e-01	3.9780	8.525779	0.000173	1.732348	0.293468	-0.006928
 803	4.0100e-01	3.9567	8.495418	0.000152	1.518478	0.257237	-0.006072
 804	4.0150e-01	3.9349	8.460780	0.000173	1.732348	0.293468	-0.006928
 805	4.0200e-01	3.9157	8.418017	0.000214	2.138702	0.362306	-0.008553
 806	4.0250e-01	3.8971	8.390222	0.000139	1.390156	0.235499	-0.005559
 807	4.0300e-01	3.8779	8.353018	0.000186	1.860670	0.315206	-0.007441
 808	4.0350e-01	3.8553	8.340617	0.000062	0.620223	0.105069	-0.002480
 809	4.0400e-01	3.8391	8.298710	0.000210	2.095928	0.355060	-0.008381
 810	4.0450e-01	3.8148	8.261506	0.000186	1.860670	0.315206	-0.007441
 811	4.0500e-01	3.7971	8.250388	0.000056	0.556062	0.094200	-0.002224
 812	4.0550e-01	3.7749	8.219599	0.000154	1.539865	0.260860	-0.006158
 813	4.0600e-01	3.7564	8.183679	0.000180	1.796509	0.304337	-0.007184
 814	4.0650e-01	3.7366	8.158876	0.000124	1.240447	0.210137	-0.004960
 815	4.0700e-01	3.7164	8.120390	0.000192	1.924831	0.326075	-0.007697
 816	4.0750e-01	3.6984	8.083187	0.000186	1.860670	0.315206	-0.007441
 817	4.0800e-01	3.6781	8.036576	0.000233	2.331185	0.394913	-0.009322
 818	4.0850e-01	3.6575	8.021181	0.000077	0.769933	0.130430	-0.003079
 819	4.0900e-01	3.6359	7.987399	0.000169	1.689574	0.286222	-0.006756
 820	4.0950e-01	3.6166	7.978846	0.000043	0.427740	0.072461	-0.001711
 821	4.1000e-01	3.5954	7.923255	0.000278	2.780312	0.470998	-0.011118
 822	4.1050e-01	3.5773	7.890328	0.000165	1.646800	0.278976	-0.006585
 823	4.1100e-01	3.5574	7.860394	0.000150	1.497091	0.253614	-0.005987
 824	4.1150e-01	3.5381	7.821052	0.000197	1.967605	0.333321	-0.007868
 825	4.1200e-01	3.5168	7.782994	0.000190	1.903444	0.322452	-0.007612
 826	4.1250e-01	3.5004	7.765034	0.000090	0.898255	0.152168	-0.003592
 827	4.1300e-01	3.4760	7.739376	0.000128	1.283221	0.217384	-0.005132
 828	4.1350e-01	3.4558	7.709442	0.000150	1.497091	0.253614	-0.005987
 829	4.1400e-01	3.4344	7.672666	0.000184	1.839283	0.311583	-0.007355
 830	4.1450e-01	3.4161	7.642733	0.000150	1.497091	0.253614	-0.005987
 831	4.1500e-01	3.3972	7.606812	0.000180	1.796509	0.304337	-0.007184
 832	4.1550e-01	3.3768	7.568754	0.000190	1.903444	0.322452	-0.007612
 833	4.1600e-01	3.3539	7.548655	0.000101	1.005190	0.170284	-0.004020
 834	4.1650e-01	3.3390	7.519577	0.000145	1.454317	0.246368	-0.005816
 835	4.1700e-01	3.3175	7.470400	0.000246	2.459507	0.416652	-0.009835
 836	4.1750e-01	3.2974	7.441749	0.000143	1.432930	0.242745	-0.005730
 837	4.1800e-01	3.2773	7.420795	0.000105	1.047964	0.177530	-0.004191
 838	4.1850e-01	3.2544	7.371618	0.000246	2.459507	0.416652	-0.009835
 839	4.1900e-01	3.2352	7.344678	0.000135	1.347382	0.228253	-0.005388
 840	4.1950e-01	3.2179	7.305764	0.000195	1.946218	0.329698	-0.007783
 841	4.2000e-01	3.1949	7.275403	0.000152	1.518478	0.257237	-0.006072
 842	4.2050e-01	3.1752	7.235206	0.000201	2.010379	0.340567	-0.008039
 843	4.2100e-01	3.1555	7.197147	0.000190	1.903444	0.322452	-0.007612
 844	4.2150e-01	3.1378	7.185174	0.000060	0.598836	0.101446	-0.002395
 845	4.2200e-01	3.1161	7.144549	0.000203	2.031766	0.344191	-0.008125
 846	4.2250e-01	3.0960	7.107774	0.000184	1.839283	0.311583	-0.007355
 847	4.2300e-01	3.0740	7.077412	0.000152	1.518478	0.257237	-0.006072
 848	4.2350e-01	3.0556	7.044485	0.000165	1.646800	0.278976	-0.006585
 849	4.2400e-01	3.0367	7.002150	0.000212	2.117315	0.358683	-0.008467
 850	4.2450e-01	3.0161	6.972644	0.000148	1.475704	0.249991	-0.005901
 851	4.2500e-01	2.9974	6.947842	0.000124	1.240447	0.210137	-0.004960
 852	4.2550e-01	2.9761	6.912776	0.000175	1.753735	0.297091	-0.007013
 853	4.2600e-01	2.9543	6.884981	0.000139	1.390156	0.235499	-0.005559
 854	4.2650e-01	2.9352	6.840508	0.000222	2.224250	0.376798	-0.008895
 855	4.2700e-01	2.9164	6.813995	0.000133	1.325995	0.224630	-0.005303
 856	4.2750e-01	2.8973	6.779785	0.000171	1.710961	0.289845	-0.006842
 857	4.2800e-01	2.8754	6.740016	0.000199	1.988992	0.336944	-0.007954
 858	4.2850e-01	2.8555	6.701102	0.000195	1.946218	0.329698	-0.007783
 859	4.2900e-01	2.8365	6.685280	0.000079	0.791320	0.134053	-0.003164
 860	4.2950e-01	2.8140	6.636530	0.000244	2.438120	0.413029	-0.009750
 861	4.3000e-01	2.7977	6.609590	0.000135	1.347382	0.228253	-0.005388
 862	4.3050e-01	2.7753	6.568966	0.000203	2.031766	0.344191	-0.008125
 863	4.3100e-01	2.7570	6.537749	0.000156	1.561252	0.264483	-0.006243
 864	4.3150e-01	2.7354	6.495842	0.000210	2.095928	0.355060	-0.008381
 865	4.3200e-01	2.7158	6.471895	0.000120	1.197673	0.202891	-0.004789
 866	4.3250e-01	2.6973	6.421863	0.000250	2.502281	0.423898	-0.010006
 867	4.3300e-01	2.6774	6.409034	0.000064	0.641610	0.108692	-0.002566
 868	4.3350e-01	2.6550	6.350877	0.000291	2.908634	0.492736	-0.011631
 869	4.3400e-01	2.6370	6.329496	0.000107	1.069351	0.181153	-0.004276
 870	4.3450e-01	2.6148	6.279463	0.000250	2.502281	0.423898	-0.010006
 871	4.3500e-01	2.5967	6.261503	0.000090	0.898255	0.152168	-0.003592
 872	4.3550e-01	2.5757	6.205484	0.000280	2.801699	0.474621	-0.011204
 873	4.3600e-01	2.5568	6.174695	0.000154	1.539865	0.260860	-0.006158
 874	4.3650e-01	2.5356	6.153314	0.000107	1.069351	0.181153	-0.004276
 875	4.3700e-01	2.5140	6.126801	0.000133	1.325995	0.224630	-0.005303
 876	4.3750e-01	2.4973	6.073348	0.000267	2.673377	0.452882	-0.010691
 877	4.3800e-01	2.4763	6.035717	0.000188	1.882057	0.318829	-0.007526
 878	4.3850e-01	2.4591	6.008777	0.000135	1.347382	0.228253	-0.005388
 879	4.3900e-01	2.4353	5.967297	0.000207	2.074541	0.351437	-0.008296
 880	4.3950e-01	2.4162	5.936508	0.000154	1.539865	0.260860	-0.006158
 881	4.4000e-01	2.3950	5.907429	0.000145	1.454317	0.246368	-0.005816
 882	4.4050e-01	2.3737	5.867233	0.000201	2.010379	0.340567	-0.008039
 883	4.4100e-01	2.3575	5.841147	0.000130	1.304608	0.221007	-0.005217
 884	4.4150e-01	2.3380	5.801378	0.000199	1.988992	0.336944	-0.007954
 885	4.4200e-01	2.3204	5.747925	0.000267	2.673377	0.452882	-0.010691
 886	4.4250e-01	2.2955	5.714570	0.000167	1.668187	0.282599	-0.006671
 887	4.4300e-01	2.2755	5.678650	0.000180	1.796509	0.304337	-0.007184
 888	4.4350e-01	2.2554	5.651709	0.000135	1.347382	0.228253	-0.005388
 889	4.4400e-01	2.2366	5.611085	0.000203	2.031766	0.344191	-0.008125
 890	4.4450e-01	2.2156	5.568323	0.000214	2.138702	0.362306	-0.008553
 891	4.4500e-01	2.1943	5.540099	0.000141	1.411543	0.239122	-0.005645
 892	4.4550e-01	2.1747	5.495199	0.000225	2.245637	0.380421	-0.008980
 893	4.4600e-01	2.1539	5.469969	0.000126	1.261834	0.213760	-0.005046
 894	4.4650e-01	2.1355	5.434476	0.000178	1.775122	0.300714	-0.007099
 895	4.4700e-01	2.1158	5.400266	0.000171	1.710961	0.289845	-0.006842
 896	4.4750e-01	2.0956	5.363490	0.000184	1.839283	0.311583	-0.007355
 897	4.4800e-01	2.0748	5.329708	0.000169	1.689574	0.286222	-0.006756
 898	4.4850e-01	2.0563	5.277537	0.000261	2.609216	0.442013	-0.010434
 899	4.4900e-01	2.0358	5.251880	0.000128	1.283221	0.217384	-0.005132
 900	4.4950e-01	2.0144	5.218525	0.000167	1.668187	0.282599	-0.006671
 901	4.5000e-01	1.9946	5.173197	0.000227	2.267024	0.384044	-0.009066
 902	4.5050e-01	1.9765	5.136849	0.000182	1.817896	0.307960	-0.007270
 903	4.5100e-01	1.9547	5.091948	0.000225	2.245637	0.380421	-0.008980
 904	4.5150e-01	1.9360	5.050468	0.000207	2.074541	0.351437	-0.008296
 905	4.5200e-01	1.9164	5.014120	0.000182	1.817896	0.307960	-0.007270
 906	4.5250e-01	1.8970	4.984186	0.000150	1.497091	0.253614	-0.005987
 907	4.5300e-01	1.8739	4.963233	0.000105	1.047964	0.177530	-0.004191
 908	4.5350e-01	1.8573	4.910207	0.000265	2.651990	0.449259	-0.010605
 909	4.5400e-01	1.8339	4.881984	0.000141	1.411543	0.239122	-0.005645
 910	4.5450e-01	1.8147	4.822544	0.000297	2.972795	0.503605	-0.011888
 911	4.5500e-01	1.7952	4.792610	0.000150	1.497091	0.253614	-0.005987
 912	4.5550e-01	1.7744	4.761821	0.000154	1.539865	0.260860	-0.006158
 913	4.5600e-01	1.7575	4.731460	0.000152	1.518478	0.257237	-0.006072
 914	4.5650e-01	1.7348	4.681428	0.000250	2.502281	0.423898	-0.010006
 915	4.5700e-01	1.7175	4.644224	0.000186	1.860670	0.315206	-0.007441
 916	4.5750e-01	1.6937	4.603600	0.000203	2.031766	0.344191	-0.008125
 917	4.5800e-01	1.6757	4.558272	0.000227	2.267024	0.384044	-0.009066
 918	4.5850e-01	1.6588	4.521496	0.000184	1.839283	0.311583	-0.007355
 919	4.5900e-01	1.6347	4.498404	0.000115	1.154899	0.195645	-0.004618
 920	4.5950e-01	1.6190	4.449227	0.000246	2.459507	0.416652	-0.009835
 921	4.6000e-01	1.5956	4.403899	0.000227	2.267024	0.384044	-0.009066
 922	4.6050e-01	1.5768	4.368406	0.000178	1.775122	0.300714	-0.007099
 923	4.6100e-01	1.5594	4.348308	0.000101	1.005190	0.170284	-0.004020
 924	4.6150e-01	1.5350	4.308966	0.000197	1.967605	0.333321	-0.007868
 925	4.6200e-01	1.5170	4.257651	0.000257	2.566442	0.434767	-0.010263
 926	4.6250e-01	1.4951	4.219592	0.000190	1.903444	0.322452	-0.007612
 927	4.6300e-01	1.4748	4.189231	0.000152	1.518478	0.257237	-0.006072
 928	4.6350e-01	1.4542	4.155021	0.000171	1.710961	0.289845	-0.006842
 929	4.6400e-01	1.4364	4.117818	0.000186	1.860670	0.315206	-0.007441
 930	4.6450e-01	1.4145	4.082752	0.000175	1.753735	0.297091	-0.007013
 931	4.6500e-01	1.3946	4.028444	0.000272	2.716151	0.460128	-0.010862
 932	4.6550e-01	1.3744	3.986109	0.000212	2.117315	0.358683	-0.008467
 933	4.6600e-01	1.3562	3.961734	0.000122	1.219060	0.206514	-0.004875
 934	4.6650e-01	1.3354	3.923676	0.000190	1.903444	0.322452	-0.007612
 935	4.6700e-01	1.3161	3.871933	0.000259	2.587829	0.438390	-0.010349
 936	4.6750e-01	1.2947	3.840289	0.000158	1.582639	0.268106	-0.006329
 937	4.6800e-01	1.2740	3.801803	0.000192	1.924831	0.326075	-0.007697
 938	4.6850e-01	1.2552	3.772724	0.000145	1.454317	0.246368	-0.005816
 939	4.6900e-01	1.2360	3.726968	0.000229	2.288411	0.387667	-0.009151
 940	4.6950e-01	1.2155	3.681640	0.000227	2.267024	0.384044	-0.009066
 941	4.7000e-01	1.1949	3.649140	0.000163	1.625413	0.275352	-0.006500
 942	4.7050e-01	1.1783	3.605523	0.000218	2.181476	0.369552	-0.008724
 943	4.7100e-01	1.1528	3.554207	0.000257	2.566442	0.434767	-0.010263
 944	4.7150e-01	1.1346	3.525557	0.000143	1.432930	0.242745	-0.005730
 945	4.7200e-01	1.1145	3.484932	0.000203	2.031766	0.344191	-0.008125
 946	4.7250e-01	1.0947	3.445163	0.000199	1.988992	0.336944	-0.007954
 947	4.7300e-01	1.0770	3.405822	0.000197	1.967605	0.333321	-0.007868
 948	4.7350e-01	1.0555	3.366052	0.000199	1.988992	0.336944	-0.007954
 949	4.7400e-01	1.0371	3.326283	0.000199	1.988992	0.336944	-0.007954
 950	4.7450e-01	1.0173	3.291646	0.000173	1.732348	0.293468	-0.006928
 951	4.7500e-01	0.9971	3.250594	0.000205	2.053153	0.347814	-0.008210
 952	4.7550e-01	0.9773	3.197568	0.000265	2.651990	0.449259	-0.010605
 953	4.7600e-01	0.9547	3.158226	0.000197	1.967605	0.333321	-0.007868
 954	4.7650e-01	0.9333	3.136845	0.000107	1.069351	0.181153	-0.004276
 955	4.7700e-01	0.9184	3.092800	0.000220	2.202863	0.373175	-0.008809
 956	4.7750e-01	0.8955	3.046189	0.000233	2.331185	0.394913	-0.009322
 957	4.7800e-01	0.8765	3.017538	0.000143	1.432930	0.242745	-0.005730
 958	4.7850e-01	0.8538	2.970927	0.000233	2.331185	0.394913	-0.009322
 959	4.7900e-01	0.8385	2.935006	0.000180	1.796509	0.304337	-0.007184
 960	4.7950e-01	0.8156	2.879842	0.000276	2.758925	0.467375	-0.011033
 961	4.8000e-01	0.7948	2.855040	0.000124	1.240447	0.210137	-0.004960
 962	4.8050e-01	0.7751	2.811850	0.000216	2.160089	0.365929	-0.008638
 963	4.8100e-01	0.7541	2.761818	0.000250	2.502281	0.423898	-0.010006
 964	4.8150e-01	0.7353	2.725470	0.000182	1.817896	0.307960	-0.007270
 965	4.8200e-01	0.7149	2.661326	0.000321	3.208052	0.543459	-0.012829
 966	4.8250e-01	0.6938	2.648497	0.000064	0.641610	0.108692	-0.002566
 967	4.8300e-01	0.6765	2.600175	0.000242	2.416733	0.409406	-0.009664
 968	4.8350e-01	0.6543	2.574518	0.000128	1.283221	0.217384	-0.005132
 969	4.8400e-01	0.6351	2.513368	0.000306	3.058343	0.518097	-0.012230
 970	4.8450e-01	0.6168	2.510802	0.000013	0.128322	0.021738	-0.000513
 971	4.8500e-01	0.5956	2.451790	0.000295	2.951408	0.499982	-0.011802
 972	4.8550e-01	0.5779	2.405178	0.000233	2.331185	0.394913	-0.009322
 973	4.8600e-01	0.5543	2.354719	0.000252	2.523668	0.427521	-0.010092
 974	4.8650e-01	0.5351	2.309818	0.000225	2.245637	0.380421	-0.008980
 975	4.8700e-01	0.5145	2.281167	0.000143	1.432930	0.242745	-0.005730
 976	4.8750e-01	0.4960	2.241398	0.000199	1.988992	0.336944	-0.007954
 977	4.8800e-01	0.4739	2.183668	0.000289	2.887247	0.489113	-0.011546
 978	4.8850e-01	0.4558	2.169557	0.000071	0.705772	0.119561	-0.002822
 979	4.8900e-01	0.4369	2.110117	0.000297	2.972795	0.503605	-0.011888
 980	4.8950e-01	0.4166	2.077190	0.000165	1.646800	0.278976	-0.006585
 981	4.9000e-01	0.3954	2.016467	0.000304	3.036956	0.514474	-0.012145
 982	4.9050e-01	0.3759	1.992520	0.000120	1.197673	0.202891	-0.004789
 983	4.9100e-01	0.3545	1.954034	0.000192	1.924831	0.326075	-0.007697
 984	4.9150e-01	0.3358	1.911699	0.000212	2.117315	0.358683	-0.008467
 985	4.9200e-01	0.3160	1.862522	0.000246	2.459507	0.416652	-0.009835
 986	4.9250e-01	0.2936	1.832160	0.000152	1.518478	0.257237	-0.006072
 987	4.9300e-01	0.2766	1.807786	0.000122	1.219060	0.206514	-0.004875
 988	4.9350e-01	0.2543	1.737228	0.000353	3.528858	0.597805	-0.014112
 989	4.9400e-01	0.2354	1.704728	0.000163	1.625413	0.275352	-0.006500
 990	4.9450e-01	0.2159	1.655979	0.000244	2.438120	0.413029	-0.009750
 991	4.9500e-01	0.1936	1.621769	0.000171	1.710961	0.289845	-0.006842
 992	4.9550e-01	0.1760	1.579006	0.000214	2.138702	0.362306	-0.008553
 993	4.9600e-01	0.1585	1.533678	0.000227	2.267024	0.384044	-0.009066
 994	4.9650e-01	0.1342	1.484929	0.000244	2.438120	0.413029	-0.009750
 995	4.9700e-01	0.1160	1.446870	0.000190	1.903444	0.322452	-0.007612
 996	4.9750e-01	0.0967	1.401969	0.000225	2.245637	0.380421	-0.008980
 997	4.9800e-01	0.0754	1.367332	0.000173	1.732348	0.293468	-0.006928
 998	4.9850e-01	0.0554	1.330984	0.000182	1.817896	0.307960	-0.007270
 999	4.9900e-01	0.0372	1.300622	0.000152	1.518478	0.257237	-0.006072
1000	4.9950e-01	0.0147	1.242038	0.000293	2.930021	0.496359	-0.011717
1001	5.0000e-01	-0.0040	1.189867	0.000261	2.609216	0.442013	-0.010434
1002	5.0050e-01	-0.0259	1.181315	0.000043	0.427740	0.072461	-0.001711
1003	5.0100e-01	-0.0450	1.140690	0.000203	2.031766	0.344191	-0.008125
1004	5.0150e-01	-0.0642	1.086382	0.000272	2.716151	0.460128	-0.010862
1005	5.0200e-01	-0.0842	1.049179	0.000186	1.860670	0.315206	-0.007441
1006	5.0250e-01	-0.1044	0.988456	0.000304	3.036956	0.514474	-0.012145
1007	5.0300e-01	-0.1234	0.953818	0.000173	1.732348	0.293468	-0.006928
1008	5.0350e-01	-0.1447	0.913194	0.000203	2.031766	0.344191	-0.008125
1009	5.0400e-01	-0.1656	0.870004	0.000216	2.160089	0.365929	-0.008638
1010	5.0450e-01	-0.1838	0.823392	0.000233	2.331185	0.394913	-0.009322
1011	5.0500e-01	-0.2049	0.787472	0.000180	1.796509	0.304337	-0.007184
1012	5.0550e-01	-0.2216	0.745992	0.000207	2.074541	0.351437	-0.008296
1013	5.0600e-01	-0.2464	0.687835	0.000291	2.908634	0.492736	-0.011631
1014	5.0650e-01	-0.2626	0.643790	0.000220	2.202863	0.373175	-0.008809
1015	5.0700e-01	-0.2827	0.618132	0.000128	1.283221	0.217384	-0.005132
1016	5.0750e-01	-0.3020	0.562969	0.000276	2.758925	0.467375	-0.011033
1017	5.0800e-01	-0.3225	0.531324	0.000158	1.582639	0.268106	-0.006329
1018	5.0850e-01	-0.3434	0.474878	0.000282	2.823086	0.478244	-0.011289
1019	5.0900e-01	-0.3626	0.445799	0.000145	1.454317	0.246368	-0.005816
1020	5.0950e-01	-0.3848	0.406458	0.000197	1.967605	0.333321	-0.007868
1021	5.1000e-01	-0.4051	0.361130	0.000227	2.267024	0.384044	-0.009066
1022	5.1050e-01	-0.4201	0.311525	0.000248	2.480894	0.420275	-0.009921
1023	5.1100e-01	-0.4457	0.277315	0.000171	1.710961	0.289845	-0.006842
1024	5.1150e-01	-0.4652	0.244388	0.000165	1.646800	0.278976	-0.006585
1025	5.1200e-01	-0.4830	0.211461	0.000165	1.646800	0.278976	-0.006585
1026	5.1250e-01	-0.5036	0.152876	0.000293	2.930021	0.496359	-0.011717
1027	5.1300e-01	-0.5221	0.089587	0.000317	3.165278	0.536213	-0.012658
1028	5.1350e-01	-0.5431	0.063502	0.000130	1.304608	0.221007	-0.005217
1029	5.1400e-01	-0.5647	0.028009	0.000178	1.775122	0.300714	-0.007099
1030	5.1450e-01	-0.5853	-0.004490	0.000163	1.625413	0.275352	-0.006500
1031	5.1500e-01	-0.6013	-0.050674	0.000231	2.309798	0.391290	-0.009237
1032	5.1550e-01	-0.6261	-0.110969	0.000302	3.015569	0.510851	-0.012059
1033	5.1600e-01	-0.6443	-0.143041	0.000160	1.604026	0.271729	-0.006414
1034	5.1650e-01	-0.6633	-0.186658	0.000218	2.181476	0.369552	-0.008724
1035	5.1700e-01	-0.6828	-0.249092	0.000312	3.122504	0.528967	-0.012487
1036	5.1750e-01	-0.7029	-0.276887	0.000139	1.390156	0.235499	-0.005559
1037	5.1800e-01	-0.7241	-0.312808	0.000180	1.796509	0.304337	-0.007184
1038	5.1850e-01	-0.7409	-0.362412	0.000248	2.480894	0.420275	-0.009921
1039	5.1900e-01	-0.7612	-0.408596	0.000231	2.309798	0.391290	-0.009237
1040	5.1950e-01	-0.7828	-0.462049	0.000267	2.673377	0.452882	-0.010691
1041	5.2000e-01	-0.8015	-0.495832	0.000169	1.689574	0.286222	-0.006756
1042	5.2050e-01	-0.8253	-0.535173	0.000197	1.967605	0.333321	-0.007868
1043	5.2100e-01	-0.8432	-0.565107	0.000150	1.497091	0.253614	-0.005987
1044	5.2150e-01	-0.8622	-0.620270	0.000276	2.758925	0.467375	-0.011033
1045	5.2200e-01	-0.8834	-0.657046	0.000184	1.839283	0.311583	-0.007355
1046	5.2250e-01	-0.9022	-0.710927	0.000269	2.694764	0.456505	-0.010776
1047	5.2300e-01	-0.9254	-0.736585	0.000128	1.283221	0.217384	-0.005132
1048	5.2350e-01	-0.9460	-0.771650	0.000175	1.753735	0.297091	-0.007013
1049	5.2400e-01	-0.9615	-0.813985	0.000212	2.117315	0.358683	-0.008467
1050	5.2450e-01	-0.9852	-0.849478	0.000178	1.775122	0.300714	-0.007099
1051	5.2500e-01	-1.0014	-0.904214	0.000274	2.737538	0.463751	-0.010947
1052	5.2550e-01	-1.0255	-0.951252	0.000235	2.352572	0.398536	-0.009408
1053	5.2600e-01	-1.0426	-0.994015	0.000214	2.138702	0.362306	-0.008553
1054	5.2650e-01	-1.0661	-1.042764	0.000244	2.438120	0.413029	-0.009750
1055	5.2700e-01	-1.0856	-1.079112	0.000182	1.817896	0.307960	-0.007270
1056	5.2750e-01	-1.1034	-1.121875	0.000214	2.138702	0.362306	-0.008553
1057	5.2800e-01	-1.1219	-1.168058	0.000231	2.309798	0.391290	-0.009237
1058	5.2850e-01	-1.1446	-1.207400	0.000197	1.967605	0.333321	-0.007868
1059	5.2900e-01	-1.1650	-1.245459	0.000190	1.903444	0.322452	-0.007612
1060	5.2950e-01	-1.1838	-1.304899	0.000297	2.972795	0.503605	-0.011888
1061	5.3000e-01	-1.2035	-1.343385	0.000192	1.924831	0.326075	-0.007697
1062	5.3050e-01	-1.2251	-1.375884	0.000163	1.625413	0.275352	-0.006500
1063	5.3100e-01	-1.2432	-1.412232	0.000182	1.817896	0.307960	-0.007270
1064	5.3150e-01	-1.2632	-1.472100	0.000299	2.994182	0.507228	-0.011974
1065	5.3200e-01	-1.2852	-1.489633	0.000088	0.876868	0.148545	-0.003507
1066	5.3250e-01	-1.3059	-1.534961	0.000227	2.267024	0.384044	-0.009066
1067	5.3300e-01	-1.3225	-1.585421	0.000252	2.523668	0.427521	-0.010092
1068	5.3350e-01	-1.3423	-1.638874	0.000267	2.673377	0.452882	-0.010691
1069	5.3400e-01	-1.3648	-1.672229	0.000167	1.668187	0.282599	-0.006671
1070	5.3450e-01	-1.3815	-1.711143	0.000195	1.946218	0.329698	-0.007783
1071	5.3500e-01	-1.4014	-1.770582	0.000297	2.972795	0.503605	-0.011888
1072	5.3550e-01	-1.4237	-1.808213	0.000188	1.882057	0.318829	-0.007526
1073	5.3600e-01	-1.4420	-1.841996	0.000169	1.689574	0.286222	-0.006756
1074	5.3650e-01	-1.4632	-1.877061	0.000175	1.753735	0.297091	-0.007013
1075	5.3700e-01	-1.4851	-1.938212	0.000306	3.058343	0.518097	-0.012230
1076	5.3750e-01	-1.5052	-1.969001	0.000154	1.539865	0.260860	-0.006158
1077	5.3800e-01	-1.5244	-2.003211	0.000171	1.710961	0.289845	-0.006842
1078	5.3850e-01	-1.5434	-2.062651	0.000297	2.972795	0.503605	-0.011888
1079	5.3900e-01	-1.5645	-2.090874	0.000141	1.411543	0.239122	-0.005645
1080	5.3950e-01	-1.5809	-2.147748	0.000284	2.844473	0.481867	-0.011375
1081	5.4000e-01	-1.6022	-2.181958	0.000171	1.710961	0.289845	-0.006842
1082	5.4050e-01	-1.6209	-2.219161	0.000186	1.860670	0.315206	-0.007441
1083	5.4100e-01	-1.6434	-2.276891	0.000289	2.887247	0.489113	-0.011546
1084	5.4150e-01	-1.6611	-2.319226	0.000212	2.117315	0.358683	-0.008467
1085	5.4200e-01	-1.6809	-2.350015	0.000154	1.539865	0.260860	-0.006158
1086	5.4250e-01	-1.7045	-2.402185	0.000261	2.609216	0.442013	-0.010434
1087	5.4300e-01	-1.7234	-2.434685	0.000163	1.625413	0.275352	-0.006500
1088	5.4350e-01	-1.7429	-2.470177	0.000178	1.775122	0.300714	-0.007099
1089	5.4400e-01	-1.7637	-2.512085	0.000210	2.095928	0.355060	-0.008381
1090	5.4450e-01	-1.7833	-2.560406	0.000242	2.416733	0.409406	-0.009664
1091	5.4500e-01	-1.8034	-2.604024	0.000218	2.181476	0.369552	-0.008724
1092	5.4550e-01	-1.8238	-2.657050	0.000265	2.651990	0.449259	-0.010605
1093	5.4600e-01	-1.8443	-2.683562	0.000133	1.325995	0.224630	-0.005303
1094	5.4650e-01	-1.8627	-2.734022	0.000252	2.523668	0.427521	-0.010092
1095	5.4700e-01	-1.8806	-2.781489	0.000237	2.373959	0.402159	-0.009493
1096	5.4750e-01	-1.9050	-2.804580	0.000115	1.154899	0.195645	-0.004618
1097	5.4800e-01	-1.9222	-2.849481	0.000225	2.245637	0.380421	-0.008980
1098	5.4850e-01	-1.9440	-2.904217	0.000274	2.737538	0.463751	-0.010947
1099	5.4900e-01	-1.9614	-2.935861	0.000158	1.582639	0.268106	-0.006329
1100	5.4950e-01	-1.9816	-2.981617	0.000229	2.288411	0.387667	-0.009151
1101	5.5000e-01	-2.0016	-3.030367	0.000244	2.438120	0.413029	-0.009750
1102	5.5050e-01	-2.0238	-3.073557	0.000216	2.160089	0.365929	-0.008638
1103	5.5100e-01	-2.0411	-3.103918	0.000152	1.518478	0.257237	-0.006072
1104	5.5150e-01	-2.0644	-3.143687	0.000199	1.988992	0.336944	-0.007954
1105	5.5200e-01	-2.0826	-3.184312	0.000203	2.031766	0.344191	-0.008125
1106	5.5250e-01	-2.1040	-3.235627	0.000257	2.566442	0.434767	-0.010263
1107	5.5300e-01	-2.1218	-3.271547	0.000180	1.796509	0.304337	-0.007184
1108	5.5350e-01	-2.1418	-3.310889	0.000197	1.967605	0.333321	-0.007868
1109	5.5400e-01	-2.1635	-3.360066	0.000246	2.459507	0.416652	-0.009835
1110	5.5450e-01	-2.1841	-3.395558	0.000178	1.775122	0.300714	-0.007099
1111	5.5500e-01	-2.2016	-3.431051	0.000178	1.775122	0.300714	-0.007099
1112	5.5550e-01	-2.2236	-3.471676	0.000203	2.031766	0.344191	-0.008125
1113	5.5600e-01	-2.2446	-3.517432	0.000229	2.288411	0.387667	-0.009151
1114	5.5650e-01	-2.2610	-3.563615	0.000231	2.309798	0.391290	-0.009237
1115	5.5700e-01	-2.2829	-3.605523	0.000210	2.095928	0.355060	-0.008381
1116	5.5750e-01	-2.3013	-3.635456	0.000150	1.497091	0.253614	-0.005987
1117	5.5800e-01	-2.3249	-3.693186	0.000289	2.887247	0.489113	-0.011546
1118	5.5850e-01	-2.3420	-3.717133	0.000120	1.197673	0.202891	-0.004789
1119	5.5900e-01	-2.3640	-3.754764	0.000188	1.882057	0.318829	-0.007526
1120	5.5950e-01	-2.3849	-3.799237	0.000222	2.224250	0.376798	-0.008895
1121	5.6000e-01	-2.4049	-3.833447	0.000171	1.710961	0.289845	-0.006842
1122	5.6050e-01	-2.4241	-3.875354	0.000210	2.095928	0.355060	-0.008381
1123	5.6100e-01	-2.4438	-3.934794	0.000297	2.972795	0.503605	-0.011888
1124	5.6150e-01	-2.4654	-3.966438	0.000158	1.582639	0.268106	-0.006329
1125	5.6200e-01	-2.4827	-4.020319	0.000269	2.694764	0.456505	-0.010776
1126	5.6250e-01	-2.5050	-4.061799	0.000207	2.074541	0.351437	-0.008296
1127	5.6300e-01	-2.5239	-4.093443	0.000158	1.582639	0.268106	-0.006329
1128	5.6350e-01	-2.5451	-4.092160	-0.000006	-0.064161	-0.010869	0.000257
1129	5.6400e-01	-2.5643	-4.173836	0.000408	4.084920	0.692004	-0.016335
1130	5.6450e-01	-2.5849	-4.205908	0.000160	1.604026	0.271729	-0.006414
1131	5.6500e-01	-2.6041	-4.251664	0.000229	2.288411	0.387667	-0.009151
1132	5.6550e-01	-2.6222	-4.279888	0.000141	1.411543	0.239122	-0.005645
1133	5.6600e-01	-2.6456	-4.317946	0.000190	1.903444	0.322452	-0.007612
1134	5.6650e-01	-2.6622	-4.378669	0.000304	3.036956	0.514474	-0.012145
1135	5.6700e-01	-2.6856	-4.418011	0.000197	1.967605	0.333321	-0.007868
1136	5.6750e-01	-2.7034	-4.450510	0.000163	1.625413	0.275352	-0.006500
1137	5.6800e-01	-2.7230	-4.490707	0.000201	2.010379	0.340567	-0.008039
1138	5.6850e-01	-2.7436	-4.540739	0.000250	2.502281	0.423898	-0.010006
1139	5.6900e-01	-2.7650	-4.565541	0.000124	1.240447	0.210137	-0.004960
1140	5.6950e-01	-2.7836	-4.595903	0.000152	1.518478	0.257237	-0.006072
1141	5.7000e-01	-2.8034	-4.657908	0.000310	3.101117	0.525343	-0.012401
1142	5.7050e-01	-2.8226	-4.701098	0.000216	2.160089	0.365929	-0.008638
1143	5.7100e-01	-2.8449	-4.718631	0.000088	0.876868	0.148545	-0.003507
1144	5.7150e-01	-2.8620	-4.778071	0.000297	2.972795	0.503605	-0.011888
1145	5.7200e-01	-2.8819	-4.816130	0.000190	1.903444	0.322452	-0.007612
1146	5.7250e-01	-2.9038	-4.852905	0.000184	1.839283	0.311583	-0.007355
1147	5.7300e-01	-2.9220	-4.881129	0.000141	1.411543	0.239122	-0.005645
1148	5.7350e-01	-2.9426	-4.945700	0.000323	3.229439	0.547082	-0.012914
1149	5.7400e-01	-2.9639	-4.974779	0.000145	1.454317	0.246368	-0.005816
1150	5.7450e-01	-2.9823	-5.017541	0.000214	2.138702	0.362306	-0.008553
1151	5.7500e-01	-3.0042	-5.037640	0.000101	1.005190	0.170284	-0.004020
1152	5.7550e-01	-3.0250	-5.076553	0.000195	1.946218	0.329698	-0.007783
1153	5.7600e-01	-3.0430	-5.127013	0.000252	2.523668	0.427521	-0.010092
1154	5.7650e-01	-3.0629	-5.164217	0.000186	1.860670	0.315206	-0.007441
1155	5.7700e-01	-3.0827	-5.204841	0.000203	2.031766	0.344191	-0.008125
1156	5.7750e-01	-3.1036	-5.242900	0.000190	1.903444	0.322452	-0.007612
1157	5.7800e-01	-3.1207	-5.273689	0.000154	1.539865	0.260860	-0.006158
1158	5.7850e-01	-3.1431	-5.329708	0.000280	2.801699	0.474621	-0.011204
1159	5.7900e-01	-3.1641	-5.345102	0.000077	0.769933	0.130430	-0.003079
1160	5.7950e-01	-3.1852	-5.396417	0.000257	2.566442	0.434767	-0.010263
1161	5.8000e-01	-3.2032	-5.438324	0.000210	2.095928	0.355060	-0.008381
1162	5.8050e-01	-3.2264	-5.464837	0.000133	1.325995	0.224630	-0.005303
1163	5.8100e-01	-3.2429	-5.520001	0.000276	2.758925	0.467375	-0.011033
1164	5.8150e-01	-3.2642	-5.559342	0.000197	1.967605	0.333321	-0.007868
1165	5.8200e-01	-3.2829	-5.589704	0.000152	1.518478	0.257237	-0.006072
1166	5.8250e-01	-3.3045	-5.628190	0.000192	1.924831	0.326075	-0.007697
1167	5.8300e-01	-3.3241	-5.658551	0.000152	1.518478	0.257237	-0.006072
1168	5.8350e-01	-3.3434	-5.696182	0.000188	1.882057	0.318829	-0.007526
1169	5.8400e-01	-3.3614	-5.749208	0.000265	2.651990	0.449259	-0.010605
1170	5.8450e-01	-3.3845	-5.788550	0.000197	1.967605	0.333321	-0.007868
1171	5.8500e-01	-3.4046	-5.824470	0.000180	1.796509	0.304337	-0.007184
1172	5.8550e-01	-3.4248	-5.863384	0.000195	1.946218	0.329698	-0.007783
1173	5.8600e-01	-3.4432	-5.901015	0.000188	1.882057	0.318829	-0.007526
1174	5.8650e-01	-3.4632	-5.951475	0.000252	2.523668	0.427521	-0.010092
1175	5.8700e-01	-3.4829	-5.977988	0.000133	1.325995	0.224630	-0.005303
1176	5.8750e-01	-3.5044	-6.017757	0.000199	1.988992	0.336944	-0.007954
1177	5.8800e-01	-3.5236	-6.058809	0.000205	2.053153	0.347814	-0.008210
1178	5.8850e-01	-3.5426	-6.093019	0.000171	1.710961	0.289845	-0.006842
1179	5.8900e-01	-3.5633	-6.121242	0.000141	1.411543	0.239122	-0.005645
1180	5.8950e-01	-3.5839	-6.172985	0.000259	2.587829	0.438390	-0.010349
1181	5.9000e-01	-3.6019	-6.200780	0.000139	1.390156	0.235499	-0.005559
1182	5.9050e-01	-3.6250	-6.234135	0.000167	1.668187	0.282599	-0.006671
1183	5.9100e-01	-3.6420	-6.271338	0.000186	1.860670	0.315206	-0.007441
1184	5.9150e-01	-3.6630	-6.318805	0.000237	2.373959	0.402159	-0.009493
1185	5.9200e-01	-3.6823	-6.353443	0.000173	1.732348	0.293468	-0.006928
1186	5.9250e-01	-3.7031	-6.389363	0.000180	1.796509	0.304337	-0.007184
1187	5.9300e-01	-3.7238	-6.421435	0.000160	1.604026	0.271729	-0.006414
1188	5.9350e-01	-3.7421	-6.468474	0.000235	2.352572	0.398536	-0.009408
1189	5.9400e-01	-3.7630	-6.519361	0.000255	2.545055	0.431144	-0.010177
1190	5.9450e-01	-3.7836	-6.530479	0.000056	0.556062	0.094200	-0.002224
1191	5.9500e-01	-3.8053	-6.555709	0.000126	1.261834	0.213760	-0.005046
1192	5.9550e-01	-3.8248	-6.592485	0.000184	1.839283	0.311583	-0.007355
1193	5.9600e-01	-3.8428	-6.654063	0.000308	3.079730	0.521720	-0.012316
1194	5.9650e-01	-3.8615	-6.689984	0.000180	1.796509	0.304337	-0.007184
1195	5.9700e-01	-3.8842	-6.722056	0.000160	1.604026	0.271729	-0.006414
1196	5.9750e-01	-3.9024	-6.752417	0.000152	1.518478	0.257237	-0.006072
1197	5.9800e-01	-3.9205	-6.799028	0.000233	2.331185	0.394913	-0.009322
1198	5.9850e-01	-3.9436	-6.834093	0.000175	1.753735	0.297091	-0.007013
1199	5.9900e-01	-3.9622	-6.853764	0.000098	0.983803	0.166661	-0.003934
1200	5.9950e-01	-3.9826	-6.902513	0.000244	2.438120	0.413029	-0.009750
1201	6.0000e-01	-4.0050	-6.949125	0.000233	2.331185	0.394913	-0.009322
1202	6.0050e-01	-4.0237	-6.965374	0.000081	0.812707	0.137676	-0.003250
1203	6.0100e-01	-4.0424	-7.005571	0.000201	2.010379	0.340567	-0.008039
1204	6.0150e-01	-4.0601	-7.044913	0.000197	1.967605	0.333321	-0.007868
1205	6.0200e-01	-4.0800	-7.100504	0.000278	2.780312	0.470998	-0.011118
1206	6.0250e-01	-4.1041	-7.125734	0.000126	1.261834	0.213760	-0.005046
1207	6.0300e-01	-4.1225	-7.161654	0.000180	1.796509	0.304337	-0.007184
1208	6.0350e-01	-4.1438	-7.189450	0.000139	1.390156	0.235499	-0.005559
1209	6.0400e-01	-4.1613	-7.230502	0.000205	2.053153	0.347814	-0.008210
1210	6.0450e-01	-4.1834	-7.269416	0.000195	1.946218	0.329698	-0.007783
1211	6.0500e-01	-4.2023	-7.304909	0.000178	1.775122	0.300714	-0.007099
1212	6.0550e-01	-4.2237	-7.343395	0.000192	1.924831	0.326075	-0.007697
1213	6.0600e-01	-4.2435	-7.376322	0.000165	1.646800	0.278976	-0.006585
1214	6.0650e-01	-4.2628	-7.409677	0.000167	1.668187	0.282599	-0.006671
1215	6.0700e-01	-4.2820	-7.441321	0.000158	1.582639	0.268106	-0.006329
1216	6.0750e-01	-4.3009	-7.481518	0.000201	2.010379	0.340567	-0.008039
1217	6.0800e-01	-4.3226	-7.531550	0.000250	2.502281	0.423898	-0.010006
1218	6.0850e-01	-4.3436	-7.539247	0.000038	0.384966	0.065215	-0.001539
1219	6.0900e-01	-4.3632	-7.593128	0.000269	2.694764	0.456505	-0.010776
1220	6.0950e-01	-4.3833	-7.605529	0.000062	0.620223	0.105069	-0.002480
1221	6.1000e-01	-4.4050	-7.658127	0.000263	2.630603	0.445636	-0.010520
1222	6.1050e-01	-4.4253	-7.683785	0.000128	1.283221	0.217384	-0.005132
1223	6.1100e-01	-4.4428	-7.727403	0.000218	2.181476	0.369552	-0.008724
1224	6.1150e-01	-4.4643	-7.765461	0.000190	1.903444	0.322452	-0.007612
1225	6.1200e-01	-4.4839	-7.786415	0.000105	1.047964	0.177530	-0.004191
1226	6.1250e-01	-4.5048	-7.826612	0.000201	2.010379	0.340567	-0.008039
1227	6.1300e-01	-4.5222	-7.853552	0.000135	1.347382	0.228253	-0.005388
1228	6.1350e-01	-4.5435	-7.895032	0.000207	2.074541	0.351437	-0.008296
1229	6.1400e-01	-4.5615	-7.939932	0.000225	2.245637	0.380421	-0.008980
1230	6.1450e-01	-4.5844	-7.973715	0.000169	1.689574	0.286222	-0.006756
1231	6.1500e-01	-4.6037	-8.012201	0.000192	1.924831	0.326075	-0.007697
1232	6.1550e-01	-4.6232	-8.047694	0.000178	1.775122	0.300714	-0.007099
1233	6.1600e-01	-4.6442	-8.066937	0.000096	0.962416	0.163038	-0.003849
1234	6.1650e-01	-4.6609	-8.104568	0.000188	1.882057	0.318829	-0.007526
1235	6.1700e-01	-4.6833	-8.153745	0.000246	2.459507	0.416652	-0.009835
1236	6.1750e-01	-4.7028	-8.175981	0.000111	1.112125	0.188399	-0.004447
1237	6.1800e-01	-4.7245	-8.205915	0.000150	1.497091	0.253614	-0.005987
1238	6.1850e-01	-4.7410	-8.247822	0.000210	2.095928	0.355060	-0.008381
1239	6.1900e-01	-4.7636	-8.292723	0.000225	2.245637	0.380421	-0.008980
1240	6.1950e-01	-4.7865	-8.294434	0.000009	0.085548	0.014492	-0.000342
1241	6.2000e-01	-4.8042	-8.345749	0.000257	2.566442	0.434767	-0.010263
1242	6.2050e-01	-4.8237	-8.385090	0.000197	1.967605	0.333321	-0.007868
1243	6.2100e-01	-4.8438	-8.412458	0.000137	1.368769	0.231876	-0.005474
1244	6.2150e-01	-4.8618	-8.444530	0.000160	1.604026	0.271729	-0.006414
1245	6.2200e-01	-4.8833	-8.489003	0.000222	2.224250	0.376798	-0.008895
1246	6.2250e-01	-4.9014	-8.521930	0.000165	1.646800	0.278976	-0.006585
1247	6.2300e-01	-4.9223	-8.547160	0.000126	1.261834	0.213760	-0.005046
1248	6.2350e-01	-4.9409	-8.583936	0.000184	1.839283	0.311583	-0.007355
1249	6.2400e-01	-4.9662	-8.613014	0.000145	1.454317	0.246368	-0.005816
1250	6.2450e-01	-4.9837	-8.642948	0.000150	1.497091	0.253614	-0.005987
1251	6.2500e-01	-5.0013	-8.684856	0.000210	2.095928	0.355060	-0.008381
1252	6.2550e-01	-5.0236	-8.713079	0.000141	1.411543	0.239122	-0.005645
1253	6.2600e-01	-5.0434	-8.747289	0.000171	1.710961	0.289845	-0.006842
1254	6.2650e-01	-5.0645	-8.755841	0.000043	0.427740	0.072461	-0.001711
1255	6.2700e-01	-5.0849	-8.808012	0.000261	2.609216	0.442013	-0.010434
1256	6.2750e-01	-5.1038	-8.836662	0.000143	1.432930	0.242745	-0.005730
1257	6.2800e-01	-5.1191	-8.894820	0.000291	2.908634	0.492736	-0.011631
1258	6.2850e-01	-5.1435	-8.911925	0.000086	0.855481	0.144922	-0.003421
1259	6.2900e-01	-5.1615	-8.953404	0.000207	2.074541	0.351437	-0.008296
1260	6.2950e-01	-5.1856	-8.962812	0.000047	0.470514	0.079707	-0.001882
1261	6.3000e-01	-5.2042	-9.004292	0.000207	2.074541	0.351437	-0.008296
1262	6.3050e-01	-5.2242	-9.038929	0.000173	1.732348	0.293468	-0.006928
1263	6.3100e-01	-5.2436	-9.075277	0.000182	1.817896	0.307960	-0.007270
1264	6.3150e-01	-5.2631	-9.112481	0.000186	1.860670	0.315206	-0.007441
1265	6.3200e-01	-5.2851	-9.130441	0.000090	0.898255	0.152168	-0.003592
1266	6.3250e-01	-5.3062	-9.169783	0.000197	1.967605	0.333321	-0.007868
1267	6.3300e-01	-5.3230	-9.205275	0.000178	1.775122	0.300714	-0.007099
1268	6.3350e-01	-5.3449	-9.226229	0.000105	1.047964	0.177530	-0.004191
1269	6.3400e-01	-5.3615	-9.267709	0.000207	2.074541	0.351437	-0.008296
1270	6.3450e-01	-5.3835	-9.301491	0.000169	1.689574	0.286222	-0.006756
1271	6.3500e-01	-5.4035	-9.336556	0.000175	1.753735	0.297091	-0.007013
1272	6.3550e-01	-5.4243	-9.367345	0.000154	1.539865	0.260860	-0.006158
1273	6.3600e-01	-5.4444	-9.390437	0.000115	1.154899	0.195645	-0.004618
1274	6.3650e-01	-5.4639	-9.418233	0.000139	1.390156	0.235499	-0.005559
1275	6.3700e-01	-5.4812	-9.456719	0.000192	1.924831	0.326075	-0.007697
1276	6.3750e-01	-5.5012	-9.505041	0.000242	2.416733	0.409406	-0.009664
1277	6.3800e-01	-5.5210	-9.528133	0.000115	1.154899	0.195645	-0.004618
1278	6.3850e-01	-5.5439	-9.556356	0.000141	1.411543	0.239122	-0.005645
1279	6.3900e-01	-5.5634	-9.585007	0.000143	1.432930	0.242745	-0.005730
1280	6.3950e-01	-5.5827	-9.620927	0.000180	1.796509	0.304337	-0.007184
1281	6.4000e-01	-5.6037	-9.649578	0.000143	1.432930	0.242745	-0.005730
1282	6.4050e-01	-5.6254	-9.677801	0.000141	1.411543	0.239122	-0.005645
1283	6.4100e-01	-5.6449	-9.698755	0.000105	1.047964	0.177530	-0.004191
1284	6.4150e-01	-5.6654	-9.737669	0.000195	1.946218	0.329698	-0.007783
1285	6.4200e-01	-5.6826	-9.767175	0.000148	1.475704	0.249991	-0.005901
1286	6.4250e-01	-5.7053	-9.797536	0.000152	1.518478	0.257237	-0.006072
1287	6.4300e-01	-5.7252	-9.832602	0.000175	1.753735	0.297091	-0.007013
1288	6.4350e-01	-5.7453	-9.866384	0.000169	1.689574	0.286222	-0.006756
1289	6.4400e-01	-5.7619	-9.890759	0.000122	1.219060	0.206514	-0.004875
1290	6.4450e-01	-5.7838	-9.927962	0.000186	1.860670	0.315206	-0.007441
1291	6.4500e-01	-5.8064	-9.960034	0.000160	1.604026	0.271729	-0.006414
1292	6.4550e-01	-5.8253	-10.000231	0.000201	2.010379	0.340567	-0.008039
1293	6.4600e-01	-5.8427	-10.020329	0.000101	1.005190	0.170284	-0.004020
1294	6.4650e-01	-5.8640	-10.054112	0.000169	1.689574	0.286222	-0.006756
1295	6.4700e-01	-5.8857	-10.073782	0.000098	0.983803	0.166661	-0.003934
1296	6.4750e-01	-5.9052	-10.107137	0.000167	1.668187	0.282599	-0.006671
1297	6.4800e-01	-5.9245	-10.145623	0.000192	1.924831	0.326075	-0.007697
1298	6.4850e-01	-5.9431	-10.181116	0.000178	1.775122	0.300714	-0.007099
1299	6.4900e-01	-5.9669	-10.202070	0.000105	1.047964	0.177530	-0.004191
1300	6.4950e-01	-5.9840	-10.242267	0.000201	2.010379	0.340567	-0.008039
1301	6.5000e-01	-6.0047	-10.261082	0.000094	0.941029	0.159415	-0.003763
1302	6.5050e-01	-6.0236	-10.292727	0.000158	1.582639	0.268106	-0.006329
1303	6.5100e-01	-6.0438	-10.332496	0.000199	1.988992	0.336944	-0.007954
1304	6.5150e-01	-6.0651	-10.349601	0.000086	0.855481	0.144922	-0.003421
1305	6.5200e-01	-6.0862	-10.385094	0.000178	1.775122	0.300714	-0.007099
1306	6.5250e-01	-6.1054	-10.412462	0.000137	1.368769	0.231876	-0.005474
1307	6.5300e-01	-6.1231	-10.447955	0.000178	1.775122	0.300714	-0.007099
1308	6.5350e-01	-6.1442	-10.470619	0.000113	1.133512	0.192022	-0.004533
1309	6.5400e-01	-6.1646	-10.498842	0.000141	1.411543	0.239122	-0.005645
1310	6.5450e-01	-6.1835	-10.530059	0.000156	1.561252	0.264483	-0.006243
1311	6.5500e-01	-6.2061	-10.576670	0.000233	2.331185	0.394913	-0.009322
1312	6.5550e-01	-6.2223	-10.600617	0.000120	1.197673	0.202891	-0.004789
1313	6.5600e-01	-6.2464	-10.613873	0.000066	0.662997	0.112315	-0.002651
1314	6.5650e-01	-6.2641	-10.644662	0.000154	1.539865	0.260860	-0.006158
1315	6.5700e-01	-6.2861	-10.677589	0.000165	1.646800	0.278976	-0.006585
1316	6.5750e-01	-6.3044	-10.708378	0.000154	1.539865	0.260860	-0.006158
1317	6.5800e-01	-6.3251	-10.718214	0.000049	0.491901	0.083330	-0.001967
1318	6.5850e-01	-6.3454	-10.759693	0.000207	2.074541	0.351437	-0.008296
1319	6.5900e-01	-6.3663	-10.800318	0.000203	2.031766	0.344191	-0.008125
1320	6.5950e-01	-6.3837	-10.839232	0.000195	1.946218	0.329698	-0.007783
1321	6.6000e-01	-6.4033	-10.860185	0.000105	1.047964	0.177530	-0.004191
1322	6.6050e-01	-6.4213	-10.890119	0.000150	1.497091	0.253614	-0.005987
1323	6.6100e-01	-6.4420	-10.918770	0.000143	1.432930	0.242745	-0.005730
1324	6.6150e-01	-6.4619	-10.961105	0.000212	2.117315	0.358683	-0.008467
1325	6.6200e-01	-6.4857	-10.971795	0.000053	0.534675	0.090576	-0.002138
1326	6.6250e-01	-6.5009	-11.003867	0.000160	1.604026	0.271729	-0.006414
1327	6.6300e-01	-6.5211	-11.043209	0.000197	1.967605	0.333321	-0.007868
1328	6.6350e-01	-6.5434	-11.061169	0.000090	0.898255	0.152168	-0.003592
1329	6.6400e-01	-6.5656	-11.099228	0.000190	1.903444	0.322452	-0.007612
1330	6.6450e-01	-6.5845	-11.119754	0.000103	1.026577	0.173907	-0.004105
1331	6.6500e-01	-6.6032	-11.144984	0.000126	1.261834	0.213760	-0.005046
1332	6.6550e-01	-6.6233	-11.181759	0.000184	1.839283	0.311583	-0.007355
1333	6.6600e-01	-6.6401	-11.216825	0.000175	1.753735	0.297091	-0.007013
1334	6.6650e-01	-6.6645	-11.233502	0.000083	0.834094	0.141299	-0.003335
1335	6.6700e-01	-6.6846	-11.280113	0.000233	2.331185	0.394913	-0.009322
1336	6.6750e-01	-6.7030	-11.298929	0.000094	0.941029	0.159415	-0.003763
1337	6.6800e-01	-6.7228	-11.329290	0.000152	1.518478	0.257237	-0.006072
1338	6.6850e-01	-6.7432	-11.349816	0.000103	1.026577	0.173907	-0.004105
1339	6.6900e-01	-6.7609	-11.388303	0.000192	1.924831	0.326075	-0.007697
1340	6.6950e-01	-6.7854	-11.399421	0.000056	0.556062	0.094200	-0.002224
1341	6.7000e-01	-6.8049	-11.427644	0.000141	1.411543	0.239122	-0.005645
1342	6.7050e-01	-6.8201	-11.455440	0.000139	1.390156	0.235499	-0.005559
1343	6.7100e-01	-6.8436	-11.494781	0.000197	1.967605	0.333321	-0.007868
1344	6.7150e-01	-6.8629	-11.519583	0.000124	1.240447	0.210137	-0.004960
1345	6.7200e-01	-6.8855	-11.542248	0.000113	1.133512	0.192022	-0.004533
1346	6.7250e-01	-6.9019	-11.582872	0.000203	2.031766	0.344191	-0.008125
1347	6.7300e-01	-6.9257	-11.603398	0.000103	1.026577	0.173907	-0.004105
1348	6.7350e-01	-6.9428	-11.635898	0.000163	1.625413	0.275352	-0.006500
1349	6.7400e-01	-6.9621	-11.653430	0.000088	0.876868	0.148545	-0.003507
1350	6.7450e-01	-6.9801	-11.684219	0.000154	1.539865	0.260860	-0.006158
1351	6.7500e-01	-7.0020	-11.715008	0.000154	1.539865	0.260860	-0.006158
1352	6.7550e-01	-7.0234	-11.749646	0.000173	1.732348	0.293468	-0.006928
1353	6.7600e-01	-7.0441	-11.774020	0.000122	1.219060	0.206514	-0.004875
1354	6.7650e-01	-7.0643	-11.794974	0.000105	1.047964	0.177530	-0.004191
1355	6.7700e-01	-7.0827	-11.822770	0.000139	1.390156	0.235499	-0.005559
1356	6.7750e-01	-7.1053	-11.848427	0.000128	1.283221	0.217384	-0.005132
1357	6.7800e-01	-7.1220	-11.886058	0.000188	1.882057	0.318829	-0.007526
1358	6.7850e-01	-7.1436	-11.921124	0.000175	1.753735	0.297091	-0.007013
1359	6.7900e-01	-7.1635	-11.933952	0.000064	0.641610	0.108692	-0.002566
1360	6.7950e-01	-7.1839	-11.963458	0.000148	1.475704	0.249991	-0.005901
1361	6.8000e-01	-7.2041	-11.986978	0.000118	1.176286	0.199268	-0.004704
1362	6.8050e-01	-7.2236	-12.020760	0.000169	1.689574	0.286222	-0.006756
1363	6.8100e-01	-7.2431	-12.040431	0.000098	0.983803	0.166661	-0.003934
1364	6.8150e-01	-7.2657	-12.071648	0.000156	1.561252	0.264483	-0.006243
1365	6.8200e-01	-7.2825	-12.107568	0.000180	1.796509	0.304337	-0.007184
1366	6.8250e-01	-7.3035	-12.125528	0.000090	0.898255	0.152168	-0.003592
1367	6.8300e-01	-7.3231	-12.162304	0.000184	1.839283	0.311583	-0.007355
1368	6.8350e-01	-7.3450	-12.177271	0.000075	0.748546	0.126807	-0.002993
1369	6.8400e-01	-7.3631	-12.205922	0.000143	1.432930	0.242745	-0.005730
1370	6.8450e-01	-7.3853	-12.217040	0.000056	0.556062	0.094200	-0.002224
1371	6.8500e-01	-7.4036	-12.276480	0.000297	2.972795	0.503605	-0.011888
1372	6.8550e-01	-7.4220	-12.276053	-0.000002	-0.021387	-0.003623	0.000086
1373	6.8600e-01	-7.4430	-12.316249	0.000201	2.010379	0.340567	-0.008039
1374	6.8650e-01	-7.4635	-12.331216	0.000075	0.748546	0.126807	-0.002993
1375	6.8700e-01	-7.4830	-12.368420	0.000186	1.860670	0.315206	-0.007441
1376	6.8750e-01	-7.5039	-12.398353	0.000150	1.497091	0.253614	-0.005987
1377	6.8800e-01	-7.5239	-12.416741	0.000092	0.919642	0.155792	-0.003678
1378	6.8850e-01	-7.5446	-12.457793	0.000205	2.053153	0.347814	-0.008210
1379	6.8900e-01	-7.5623	-12.474043	0.000081	0.812707	0.137676	-0.003250
1380	6.8950e-01	-7.5849	-12.472333	-0.000009	-0.085548	-0.014492	0.000342
1381	6.9000e-01	-7.6014	-12.522792	0.000252	2.523668	0.427521	-0.010092
1382	6.9050e-01	-7.6203	-12.568976	0.000231	2.309798	0.391290	-0.009237
1383	6.9100e-01	-7.6447	-12.581805	0.000064	0.641610	0.108692	-0.002566
1384	6.9150e-01	-7.6637	-12.601048	0.000096	0.962416	0.163038	-0.003849
1385	6.9200e-01	-7.6838	-12.639962	0.000195	1.946218	0.329698	-0.007783
1386	6.9250e-01	-7.7039	-12.660060	0.000101	1.005190	0.170284	-0.004020
1387	6.9300e-01	-7.7232	-12.689994	0.000150	1.497091	0.253614	-0.005987
1388	6.9350e-01	-7.7421	-12.717789	0.000139	1.390156	0.235499	-0.005559
1389	6.9400e-01	-7.7607	-12.743875	0.000130	1.304608	0.221007	-0.005217
1390	6.9450e-01	-7.7839	-12.752427	0.000043	0.427740	0.072461	-0.001711
1391	6.9500e-01	-7.8028	-12.787492	0.000175	1.753735	0.297091	-0.007013
1392	6.9550e-01	-7.8248	-12.809729	0.000111	1.112125	0.188399	-0.004447
1393	6.9600e-01	-7.8431	-12.833676	0.000120	1.197673	0.202891	-0.004789
1394	6.9650e-01	-7.8626	-12.870452	0.000184	1.839283	0.311583	-0.007355
1395	6.9700e-01	-7.8822	-12.899103	0.000143	1.432930	0.242745	-0.005730
1396	6.9750e-01	-7.9044	-12.917490	0.000092	0.919642	0.155792	-0.003678
1397	6.9800e-01	-7.9249	-12.952128	0.000173	1.732348	0.293468	-0.006928
1398	6.9850e-01	-7.9426	-12.986338	0.000171	1.710961	0.289845	-0.006842
1399	6.9900e-01	-7.9621	-13.001305	0.000075	0.748546	0.126807	-0.002993
1400	6.9950e-01	-7.9798	-13.029528	0.000141	1.411543	0.239122	-0.005645
1401	7.0000e-01	-8.0018	-13.059890	0.000152	1.518478	0.257237	-0.006072
1402	7.0050e-01	-8.0225	-13.083837	0.000120	1.197673	0.202891	-0.004789
1403	7.0100e-01	-8.0433	-13.106073	0.000111	1.112125	0.188399	-0.004447
1404	7.0150e-01	-8.0628	-13.124461	0.000092	0.919642	0.155792	-0.003678
1405	7.0200e-01	-8.0833	-13.154823	0.000152	1.518478	0.257237	-0.006072
1406	7.0250e-01	-8.1043	-13.173210	0.000092	0.919642	0.155792	-0.003678
1407	7.0300e-01	-8.1214	-13.205710	0.000163	1.625413	0.275352	-0.006500
1408	7.0350e-01	-8.1434	-13.231795	0.000130	1.304608	0.221007	-0.005217
1409	7.0400e-01	-8.1641	-13.240775	0.000045	0.449127	0.076084	-0.001796
1410	7.0450e-01	-8.1855	-13.270709	0.000150	1.497091	0.253614	-0.005987
1411	7.0500e-01	-8.2044	-13.294656	0.000120	1.197673	0.202891	-0.004789
1412	7.0550e-01	-8.2215	-13.324590	0.000150	1.497091	0.253614	-0.005987
1413	7.0600e-01	-8.2441	-13.351530	0.000135	1.347382	0.228253	-0.005388
1414	7.0650e-01	-8.2630	-13.381892	0.000152	1.518478	0.257237	-0.006072
1415	7.0700e-01	-8.2819	-13.416957	0.000175	1.753735	0.297091	-0.007013
1416	7.0750e-01	-8.3021	-13.435345	0.000092	0.919642	0.155792	-0.003678
1417	7.0800e-01	-8.3222	-13.457154	0.000109	1.090738	0.184776	-0.004362
1418	7.0850e-01	-8.3411	-13.484094	0.000135	1.347382	0.228253	-0.005388
1419	7.0900e-01	-8.3637	-13.512317	0.000141	1.411543	0.239122	-0.005645
1420	7.0950e-01	-8.3857	-13.540968	0.000143	1.432930	0.242745	-0.005730
1421	7.1000e-01	-8.4052	-13.551659	0.000053	0.534675	0.090576	-0.002138
1422	7.1050e-01	-8.4223	-13.574323	0.000113	1.133512	0.192022	-0.004533
1423	7.1100e-01	-8.4412	-13.602974	0.000143	1.432930	0.242745	-0.005730
1424	7.1150e-01	-8.4644	-13.630769	0.000139	1.390156	0.235499	-0.005559
1425	7.1200e-01	-8.4821	-13.665835	0.000175	1.753735	0.297091	-0.007013
1426	7.1250e-01	-8.5029	-13.682940	0.000086	0.855481	0.144922	-0.003421
1427	7.1300e-01	-8.5218	-13.716294	0.000167	1.668187	0.282599	-0.006671
1428	7.1350e-01	-8.5444	-13.735110	0.000094	0.941029	0.159415	-0.003763
1429	7.1400e-01	-8.5624	-13.757347	0.000111	1.112125	0.188399	-0.004447
1430	7.1450e-01	-8.5822	-13.791129	0.000169	1.689574	0.286222	-0.006756
1431	7.1500e-01	-8.6045	-13.812510	0.000107	1.069351	0.181153	-0.004276
1432	7.1550e-01	-8.6231	-13.838168	0.000128	1.283221	0.217384	-0.005132
1433	7.1600e-01	-8.6420	-13.857838	0.000098	0.983803	0.166661	-0.003934
1434	7.1650e-01	-8.6631	-13.875799	0.000090	0.898255	0.152168	-0.003592
1435	7.1700e-01	-8.6835	-13.909581	0.000169	1.689574	0.286222	-0.006756
1436	7.1750e-01	-8.7037	-13.933101	0.000118	1.176286	0.199268	-0.004704
1437	7.1800e-01	-8.7244	-13.961751	0.000143	1.432930	0.242745	-0.005730
1438	7.1850e-01	-8.7421	-13.986126	0.000122	1.219060	0.206514	-0.004875
1439	7.1900e-01	-8.7611	-14.016487	0.000152	1.518478	0.257237	-0.006072
1440	7.1950e-01	-8.7849	-14.025468	0.000045	0.449127	0.076084	-0.001796
1441	7.2000e-01	-8.8020	-14.054546	0.000145	1.454317	0.246368	-0.005816
1442	7.2050e-01	-8.8239	-14.071651	0.000086	0.855481	0.144922	-0.003421
1443	7.2100e-01	-8.8441	-14.112276	0.000203	2.031766	0.344191	-0.008125
1444	7.2150e-01	-8.8612	-14.144775	0.000163	1.625413	0.275352	-0.006500
1445	7.2200e-01	-8.8813	-14.148196	0.000017	0.171096	0.028984	-0.000684
1446	7.2250e-01	-8.9057	-14.174709	0.000133	1.325995	0.224630	-0.005303
1447	7.2300e-01	-8.9240	-14.209346	0.000173	1.732348	0.293468	-0.006928
1448	7.2350e-01	-8.9417	-14.232438	0.000115	1.154899	0.195645	-0.004618
1449	7.2400e-01	-8.9643	-14.254247	0.000109	1.090738	0.184776	-0.004362
1450	7.2450e-01	-8.9829	-14.276911	0.000113	1.133512	0.192022	-0.004533
1451	7.2500e-01	-9.0046	-14.302569	0.000128	1.283221	0.217384	-0.005132
1452	7.2550e-01	-9.0241	-14.315825	0.000066	0.662997	0.112315	-0.002651
1453	7.2600e-01	-9.0449	-14.344476	0.000143	1.432930	0.242745	-0.005730
1454	7.2650e-01	-9.0632	-14.378258	0.000169	1.689574	0.286222	-0.006756
1455	7.2700e-01	-9.0842	-14.413751	0.000178	1.775122	0.300714	-0.007099
1456	7.2750e-01	-9.1065	-14.419738	0.000030	0.299418	0.050723	-0.001197
1457	7.2800e-01	-9.1212	-14.440264	0.000103	1.026577	0.173907	-0.004105
1458	7.2850e-01	-9.1441	-14.459080	0.000094	0.941029	0.159415	-0.003763
1459	7.2900e-01	-9.1608	-14.490724	0.000158	1.582639	0.268106	-0.006329
1460	7.2950e-01	-9.1840	-14.518520	0.000139	1.390156	0.235499	-0.005559
1461	7.3000e-01	-9.1993	-14.547598	0.000145	1.454317	0.246368	-0.005816
1462	7.3050e-01	-9.2188	-14.562565	0.000075	0.748546	0.126807	-0.002993
1463	7.3100e-01	-9.2439	-14.598058	0.000178	1.775122	0.300714	-0.007099
1464	7.3150e-01	-9.2646	-14.617301	0.000096	0.962416	0.163038	-0.003849
1465	7.3200e-01	-9.2811	-14.632695	0.000077	0.769933	0.130430	-0.003079
1466	7.3250e-01	-9.3043	-14.665195	0.000163	1.625413	0.275352	-0.006500
1467	7.3300e-01	-9.3244	-14.687431	0.000111	1.112125	0.188399	-0.004447
1468	7.3350e-01	-9.3433	-14.707102	0.000098	0.983803	0.166661	-0.003934
1469	7.3400e-01	-9.3641	-14.743023	0.000180	1.796509	0.304337	-0.007184
1470	7.3450e-01	-9.3836	-14.769108	0.000130	1.304608	0.221007	-0.005217
1471	7.3500e-01	-9.4019	-14.795193	0.000130	1.304608	0.221007	-0.005217
1472	7.3550e-01	-9.4245	-14.811870	0.000083	0.834094	0.141299	-0.003335
1473	7.3600e-01	-9.4440	-14.833679	0.000109	1.090738	0.184776	-0.004362
1474	7.3650e-01	-9.4648	-14.851640	0.000090	0.898255	0.152168	-0.003592
1475	7.3700e-01	-9.4868	-14.861475	0.000049	0.491901	0.083330	-0.001967
1476	7.3750e-01	-9.5039	-14.904665	0.000216	2.160089	0.365929	-0.008638
1477	7.3800e-01	-9.5222	-14.938448	0.000169	1.689574	0.286222	-0.006756
1478	7.3850e-01	-9.5454	-14.949993	0.000058	0.577449	0.097823	-0.002309
1479	7.3900e-01	-9.5640	-14.961539	0.000058	0.577449	0.097823	-0.002309
1480	7.3950e-01	-9.5850	-14.997032	0.000178	1.775122	0.300714	-0.007099
1481	7.4000e-01	-9.6040	-15.030387	0.000167	1.668187	0.282599	-0.006671
1482	7.4050e-01	-9.6241	-15.051341	0.000105	1.047964	0.177530	-0.004191
1483	7.4100e-01	-9.6449	-15.069301	0.000090	0.898255	0.152168	-0.003592
1484	7.4150e-01	-9.6632	-15.089399	0.000101	1.005190	0.170284	-0.004020
1485	7.4200e-01	-9.6822	-15.120188	0.000154	1.539865	0.260860	-0.006158
1486	7.4250e-01	-9.7022	-15.147129	0.000135	1.347382	0.228253	-0.005388
1487	7.4300e-01	-9.7248	-15.174924	0.000139	1.390156	0.235499	-0.005559
1488	7.4350e-01	-9.7437	-15.195450	0.000103	1.026577	0.173907	-0.004105
1489	7.4400e-01	-9.7633	-15.221535	0.000130	1.304608	0.221007	-0.005217
1490	7.4450e-01	-9.7849	-15.233081	0.000058	0.577449	0.097823	-0.002309
1491	7.4500e-01	-9.8017	-15.258739	0.000128	1.283221	0.217384	-0.005132
1492	7.4550e-01	-9.8225	-15.287817	0.000145	1.454317	0.246368	-0.005816
1493	7.4600e-01	-9.8444	-15.316896	0.000145	1.454317	0.246368	-0.005816
1494	7.4650e-01	-9.8652	-15.332290	0.000077	0.769933	0.130430	-0.003079
1495	7.4700e-01	-9.8811	-15.358803	0.000133	1.325995	0.224630	-0.005303
1496	7.4750e-01	-9.9043	-15.384033	0.000126	1.261834	0.213760	-0.005046
1497	7.4800e-01	-9.9250	-15.412256	0.000141	1.411543	0.239122	-0.005645
1498	7.4850e-01	-9.9427	-15.432782	0.000103	1.026577	0.173907	-0.004105
1499	7.4900e-01	-9.9628	-15.468275	0.000178	1.775122	0.300714	-0.007099
1500	7.4950e-01	-9.9850	-15.483242	0.000075	0.748546	0.126807	-0.002993
1501	7.5000e-01	-10.0000	-15.508472	0.000126	1.261834	0.213760	-0.005046
1502	7.5050e-01	-9.9866	-15.492222	0.000081	0.812707	0.137676	0.003250
1503	7.5100e-01	-9.9653	-15.480249	0.000060	0.598836	0.101446	0.002395
1504	7.5150e-01	-9.9458	-15.477255	0.000015	0.149709	0.025361	0.000599
1505	7.5200e-01	-9.9250	-15.471696	0.000028	0.278031	0.047100	0.001112
1506	7.5250e-01	-9.9049	-15.451598	0.000101	1.005190	0.170284	0.004020
1507	7.5300e-01	-9.8859	-15.430217	0.000107	1.069351	0.181153	0.004276
1508	7.5350e-01	-9.8643	-15.420381	0.000049	0.491901	0.083330	0.001967
1509	7.5400e-01	-9.8457	-15.412684	0.000038	0.384966	0.065215	0.001539
1510	7.5450e-01	-9.8255	-15.404131	0.000043	0.427740	0.072461	0.001711
1511	7.5500e-01	-9.8057	-15.393441	0.000053	0.534675	0.090576	0.002138
1512	7.5550e-01	-9.7871	-15.368211	0.000126	1.261834	0.213760	0.005046
1513	7.5600e-01	-9.7663	-15.356665	0.000058	0.577449	0.097823	0.002309
1514	7.5650e-01	-9.7443	-15.347685	0.000045	0.449127	0.076084	0.001796
1515	7.5700e-01	-9.7266	-15.330152	0.000088	0.876868	0.148545	0.003507
1516	7.5750e-01	-9.7065	-15.321172	0.000045	0.449127	0.076084	0.001796
1517	7.5800e-01	-9.6857	-15.292521	0.000143	1.432930	0.242745	0.005730
1518	7.5850e-01	-9.6668	-15.294659	-0.000011	-0.106935	-0.018115	-0.000428
1519	7.5900e-01	-9.6461	-15.271140	0.000118	1.176286	0.199268	0.004704
1520	7.5950e-01	-9.6265	-15.272423	-0.000006	-0.064161	-0.010869	-0.000257
1521	7.6000e-01	-9.6064	-15.245910	0.000133	1.325995	0.224630	0.005303
1522	7.6050e-01	-9.5887	-15.229660	0.000081	0.812707	0.137676	0.003250
1523	7.6100e-01	-9.5673	-15.217687	0.000060	0.598836	0.101446	0.002395
1524	7.6150e-01	-9.5451	-15.193312	0.000122	1.219060	0.206514	0.004875
1525	7.6200e-01	-9.5246	-15.171931	0.000107	1.069351	0.181153	0.004276
1526	7.6250e-01	-9.5075	-15.171076	0.000004	0.042774	0.007246	0.000171
1527	7.6300e-01	-9.4855	-15.157819	0.000066	0.662997	0.112315	0.002651
1528	7.6350e-01	-9.4672	-15.144563	0.000066	0.662997	0.112315	0.002651
1529	7.6400e-01	-9.4459	-15.119333	0.000126	1.261834	0.213760	0.005046
1530	7.6450e-01	-9.4276	-15.106077	0.000066	0.662997	0.112315	0.002651
1531	7.6500e-01	-9.4068	-15.092820	0.000066	0.662997	0.112315	0.002651
1532	7.6550e-01	-9.3848	-15.085978	0.000034	0.342192	0.057969	0.001368
1533	7.6600e-01	-9.3671	-15.048347	0.000188	1.882057	0.318829	0.007526
1534	7.6650e-01	-9.3452	-15.056472	-0.000041	-0.406353	-0.068838	-0.001625
1535	7.6700e-01	-9.3250	-15.023545	0.000165	1.646800	0.278976	0.006585
1536	7.6750e-01	-9.3037	-15.007723	0.000079	0.791320	0.134053	0.003164
1537	7.6800e-01	-9.2832	-15.006440	0.000006	0.064161	0.010869	0.000257
1538	7.6850e-01	-9.2670	-14.973940	0.000163	1.625413	0.275352	0.006500
1539	7.6900e-01	-9.2451	-14.952987	0.000105	1.047964	0.177530	0.004191
1540	7.6950e-01	-9.2258	-14.935454	0.000088	0.876868	0.148545	0.003507
1541	7.7000e-01	-9.2066	-14.919632	0.000079	0.791320	0.134053	0.003164
1542	7.7050e-01	-9.1853	-14.916639	0.000015	0.149709	0.025361	0.000599
1543	7.7100e-01	-9.1657	-14.898678	0.000090	0.898255	0.152168	0.003592
1544	7.7150e-01	-9.1444	-14.883711	0.000075	0.748546	0.126807	0.002993
1545	7.7200e-01	-9.1242	-14.865751	0.000090	0.898255	0.152168	0.003592
1546	7.7250e-01	-9.1050	-14.843087	0.000113	1.133512	0.192022	0.004533
1547	7.7300e-01	-9.0845	-14.822133	0.000105	1.047964	0.177530	0.004191
1548	7.7350e-01	-9.0644	-14.803318	0.000094	0.941029	0.159415	0.003763
1549	7.7400e-01	-9.0455	-14.796476	0.000034	0.342192	0.057969	0.001368
1550	7.7450e-01	-9.0266	-14.785358	0.000056	0.556062	0.094200	0.002224
1551	7.7500e-01	-9.0028	-14.750292	0.000175	1.753735	0.297091	0.007013
1552	7.7550e-01	-8.9841	-14.746016	0.000021	0.213870	0.036231	0.000855
1553	7.7600e-01	-8.9643	-14.728484	0.000088	0.876868	0.148545	0.003507
1554	7.7650e-01	-8.9460	-14.716510	0.000060	0.598836	0.101446	0.002395
1555	7.7700e-01	-8.9259	-14.702826	0.000068	0.684384	0.115938	0.002737
1556	7.7750e-01	-8.9027	-14.676313	0.000133	1.325995	0.224630	0.005303
1557	7.7800e-01	-8.8834	-14.669899	0.000032	0.320805	0.054346	0.001283
1558	7.7850e-01	-8.8630	-14.656642	0.000066	0.662997	0.112315	0.002651
1559	7.7900e-01	-8.8447	-14.617301	0.000197	1.967605	0.333321	0.007868
1560	7.7950e-01	-8.8245	-14.615590	0.000009	0.085548	0.014492	0.000342
1561	7.8000e-01	-8.8056	-14.590361	0.000126	1.261834	0.213760	0.005046
1562	7.8050e-01	-8.7843	-14.580525	0.000049	0.491901	0.083330	0.001967
1563	7.8100e-01	-8.7644	-14.558289	0.000111	1.112125	0.188399	0.004447
1564	7.8150e-01	-8.7446	-14.540328	0.000090	0.898255	0.152168	0.003592
1565	7.8200e-01	-8.7232	-14.524079	0.000081	0.812707	0.137676	0.003250
1566	7.8250e-01	-8.7061	-14.505263	0.000094	0.941029	0.159415	0.003763
1567	7.8300e-01	-8.6835	-14.487303	0.000090	0.898255	0.152168	0.003592
1568	7.8350e-01	-8.6677	-14.470625	0.000083	0.834094	0.141299	0.003335
1569	7.8400e-01	-8.6439	-14.456941	0.000068	0.684384	0.115938	0.002737
1570	7.8450e-01	-8.6243	-14.433850	0.000115	1.154899	0.195645	0.004618
1571	7.8500e-01	-8.6060	-14.420166	0.000068	0.684384	0.115938	0.002737
1572	7.8550e-01	-8.5841	-14.400923	0.000096	0.962416	0.163038	0.003849
1573	7.8600e-01	-8.5664	-14.373982	0.000135	1.347382	0.228253	0.005388
1574	7.8650e-01	-8.5444	-14.362436	0.000058	0.577449	0.097823	0.002309
1575	7.8700e-01	-8.5267	-14.338489	0.000120	1.197673	0.202891	0.004789
1576	7.8750e-01	-8.5065	-14.322667	0.000079	0.791320	0.134053	0.003164
1577	7.8800e-01	-8.4864	-14.304707	0.000090	0.898255	0.152168	0.003592
1578	7.8850e-01	-8.4644	-14.285891	0.000094	0.941029	0.159415	0.003763
1579	7.8900e-01	-8.4455	-14.259806	0.000130	1.304608	0.221007	0.005217
1580	7.8950e-01	-8.4248	-14.243556	0.000081	0.812707	0.137676	0.003250
1581	7.9000e-01	-8.4025	-14.228590	0.000075	0.748546	0.126807	0.002993
1582	7.9050e-01	-8.3863	-14.202077	0.000133	1.325995	0.224630	0.005303
1583	7.9100e-01	-8.3662	-14.194807	0.000036	0.363579	0.061592	0.001454
1584	7.9150e-01	-8.3436	-14.179840	0.000075	0.748546	0.126807	0.002993
1585	7.9200e-01	-8.3234	-14.162735	0.000086	0.855481	0.144922	0.003421
1586	7.9250e-01	-8.3045	-14.123821	0.000195	1.946218	0.329698	0.007783
1587	7.9300e-01	-8.2841	-14.122966	0.000004	0.042774	0.007246	0.000171
1588	7.9350e-01	-8.2642	-14.087901	0.000175	1.753735	0.297091	0.007013
1589	7.9400e-01	-8.2453	-14.084052	0.000019	0.192483	0.032608	0.000770
1590	7.9450e-01	-8.2240	-14.070796	0.000066	0.662997	0.112315	0.002651
1591	7.9500e-01	-8.2038	-14.040862	0.000150	1.497091	0.253614	0.005987
1592	7.9550e-01	-8.1837	-14.027606	0.000066	0.662997	0.112315	0.002651
1593	7.9600e-01	-8.1672	-14.007935	0.000098	0.983803	0.166661	0.003934
1594	7.9650e-01	-8.1464	-13.997244	0.000053	0.534675	0.090576	0.002138
1595	7.9700e-01	-8.1263	-13.969876	0.000137	1.368769	0.231876	0.005474
1596	7.9750e-01	-8.1049	-13.949778	0.000101	1.005190	0.170284	0.004020
1597	7.9800e-01	-8.0848	-13.931390	0.000092	0.919642	0.155792	0.003678
1598	7.9850e-01	-8.0659	-13.910436	0.000105	1.047964	0.177530	0.004191
1599	7.9900e-01	-8.0433	-13.876654	0.000169	1.689574	0.286222	0.006756
1600	7.9950e-01	-8.0244	-13.862115	0.000073	0.727159	0.123184	0.002908
1601	8.0000e-01	-8.0054	-13.856983	0.000026	0.256644	0.043477	0.001026
1602	8.0050e-01	-7.9853	-13.840733	0.000081	0.812707	0.137676	0.003250
1603	8.0100e-01	-7.9670	-13.808234	0.000163	1.625413	0.275352	0.006500
1604	8.0150e-01	-7.9456	-13.800964	0.000036	0.363579	0.061592	0.001454
1605	8.0200e-01	-7.9249	-13.765471	0.000178	1.775122	0.300714	0.007099
1606	8.0250e-01	-7.9044	-13.753070	0.000062	0.620223	0.105069	0.002480
1607	8.0300e-01	-7.8876	-13.719288	0.000169	1.689574	0.286222	0.006756
1608	8.0350e-01	-7.8669	-13.709025	0.000051	0.513288	0.086953	0.002053
1609	8.0400e-01	-7.8443	-13.694058	0.000075	0.748546	0.126807	0.002993
1610	8.0450e-01	-7.8223	-13.677808	0.000081	0.812707	0.137676	0.003250
1611	8.0500e-01	-7.8028	-13.656855	0.000105	1.047964	0.177530	0.004191
1612	8.0550e-01	-7.7842	-13.632480	0.000122	1.219060	0.206514	0.004875
1613	8.0600e-01	-7.7662	-13.619651	0.000064	0.641610	0.108692	0.002566
1614	8.0650e-01	-7.7457	-13.587152	0.000163	1.625413	0.275352	0.006500
1615	8.0700e-01	-7.7235	-13.572612	0.000073	0.727159	0.123184	0.002908
1616	8.0750e-01	-7.7042	-13.558928	0.000068	0.684384	0.115938	0.002737
1617	8.0800e-01	-7.6826	-13.546100	0.000064	0.641610	0.108692	0.002566
1618	8.0850e-01	-7.6643	-13.507186	0.000195	1.946218	0.329698	0.007783
1619	8.0900e-01	-7.6435	-13.483239	0.000120	1.197673	0.202891	0.004789
1620	8.0950e-01	-7.6252	-13.477680	0.000028	0.278031	0.047100	0.001112
1621	8.1000e-01	-7.6032	-13.457581	0.000101	1.005190	0.170284	0.004020
1622	8.1050e-01	-7.5831	-13.442614	0.000075	0.748546	0.126807	0.002993
1623	8.1100e-01	-7.5623	-13.432351	0.000051	0.513288	0.086953	0.002053
1624	8.1150e-01	-7.5437	-13.382747	0.000248	2.480894	0.420275	0.009921
1625	8.1200e-01	-7.5251	-13.375905	0.000034	0.342192	0.057969	0.001368
1626	8.1250e-01	-7.5031	-13.347682	0.000141	1.411543	0.239122	0.005645
1627	8.1300e-01	-7.4848	-13.335708	0.000060	0.598836	0.101446	0.002395
1628	8.1350e-01	-7.4671	-13.315610	0.000101	1.005190	0.170284	0.004020
1629	8.1400e-01	-7.4464	-13.296794	0.000094	0.941029	0.159415	0.003763
1630	8.1450e-01	-7.4232	-13.289097	0.000038	0.384966	0.065215	0.001539
1631	8.1500e-01	-7.4073	-13.257453	0.000158	1.582639	0.268106	0.006329
1632	8.1550e-01	-7.3866	-13.225808	0.000158	1.582639	0.268106	0.006329
1633	8.1600e-01	-7.3634	-13.216828	0.000045	0.449127	0.076084	0.001796
1634	8.1650e-01	-7.3417	-13.193736	0.000115	1.154899	0.195645	0.004618
1635	8.1700e-01	-7.3243	-13.176631	0.000086	0.855481	0.144922	0.003421
1636	8.1750e-01	-7.3054	-13.153540	0.000115	1.154899	0.195645	0.004618
1637	8.1800e-01	-7.2852	-13.118047	0.000178	1.775122	0.300714	0.007099
1638	8.1850e-01	-7.2657	-13.103507	0.000073	0.727159	0.123184	0.002908
1639	8.1900e-01	-7.2431	-13.084264	0.000096	0.962416	0.163038	0.003849
1640	8.1950e-01	-7.2262	-13.062455	0.000109	1.090738	0.184776	0.004362
1641	8.2000e-01	-7.2053	-13.041502	0.000105	1.047964	0.177530	0.004191
1642	8.2050e-01	-7.1870	-13.020121	0.000107	1.069351	0.181153	0.004276
1643	8.2100e-01	-7.1650	-13.001733	0.000092	0.919642	0.155792	0.003678
1644	8.2150e-01	-7.1461	-12.981634	0.000101	1.005190	0.170284	0.004020
1645	8.2200e-01	-7.1250	-12.958115	0.000118	1.176286	0.199268	0.004704
1646	8.2250e-01	-7.1052	-12.932885	0.000126	1.261834	0.213760	0.005046
1647	8.2300e-01	-7.0832	-12.927326	0.000028	0.278031	0.047100	0.001112
1648	8.2350e-01	-7.0649	-12.900385	0.000135	1.347382	0.228253	0.005388
1649	8.2400e-01	-7.0448	-12.858906	0.000207	2.074541	0.351437	0.008296
1650	8.2450e-01	-7.0283	-12.833676	0.000126	1.261834	0.213760	0.005046
1651	8.2500e-01	-7.0054	-12.828117	0.000028	0.278031	0.047100	0.001112
1652	8.2550e-01	-6.9862	-12.808874	0.000096	0.962416	0.163038	0.003849
1653	8.2600e-01	-6.9637	-12.790913	0.000090	0.898255	0.152168	0.003592
1654	8.2650e-01	-6.9454	-12.766966	0.000120	1.197673	0.202891	0.004789
1655	8.2700e-01	-6.9251	-12.740454	0.000133	1.325995	0.224630	0.005303
1656	8.2750e-01	-6.9062	-12.721638	0.000094	0.941029	0.159415	0.003763
1657	8.2800e-01	-6.8842	-12.705816	0.000079	0.791320	0.134053	0.003164
1658	8.2850e-01	-6.8653	-12.673744	0.000160	1.604026	0.271729	0.006414
1659	8.2900e-01	-6.8446	-12.659205	0.000073	0.727159	0.123184	0.002908
1660	8.2950e-01	-6.8250	-12.629699	0.000148	1.475704	0.249991	0.005901
1661	8.3000e-01	-6.8037	-12.614304	0.000077	0.769933	0.130430	0.003079
1662	8.3050e-01	-6.7872	-12.597199	0.000086	0.855481	0.144922	0.003421
1663	8.3100e-01	-6.7652	-12.576246	0.000105	1.047964	0.177530	0.004191
1664	8.3150e-01	-6.7469	-12.538614	0.000188	1.882057	0.318829	0.007526
1665	8.3200e-01	-6.7249	-12.519371	0.000096	0.962416	0.163038	0.003849
1666	8.3250e-01	-6.7042	-12.497990	0.000107	1.069351	0.181153	0.004276
1667	8.3300e-01	-6.6853	-12.479175	0.000094	0.941029	0.159415	0.003763
1668	8.3350e-01	-6.6669	-12.451807	0.000137	1.368769	0.231876	0.005474
1669	8.3400e-01	-6.6468	-12.426149	0.000128	1.283221	0.217384	0.005132
1670	8.3450e-01	-6.6248	-12.414176	0.000060	0.598836	0.101446	0.002395
1671	8.3500e-01	-6.6047	-12.383387	0.000154	1.539865	0.260860	0.006158
1672	8.3550e-01	-6.5858	-12.363288	0.000101	1.005190	0.170284	0.004020
1673	8.3600e-01	-6.5626	-12.347894	0.000077	0.769933	0.130430	0.003079
1674	8.3650e-01	-6.5479	-12.315822	0.000160	1.604026	0.271729	0.006414
1675	8.3700e-01	-6.5266	-12.300855	0.000075	0.748546	0.126807	0.002993
1676	8.3750e-01	-6.5055	-12.273487	0.000137	1.368769	0.231876	0.005474
1677	8.3800e-01	-6.4820	-12.250395	0.000115	1.154899	0.195645	0.004618
1678	8.3850e-01	-6.4655	-12.225165	0.000126	1.261834	0.213760	0.005046
1679	8.3900e-01	-6.4462	-12.212336	0.000064	0.641610	0.108692	0.002566
1680	8.3950e-01	-6.4246	-12.187962	0.000122	1.219060	0.206514	0.004875
1681	8.4000e-01	-6.4057	-12.160594	0.000137	1.368769	0.231876	0.005474
1682	8.4050e-01	-6.3868	-12.129805	0.000154	1.539865	0.260860	0.006158
1683	8.4100e-01	-6.3621	-12.115693	0.000071	0.705772	0.119561	0.002822
1684	8.4150e-01	-6.3453	-12.092174	0.000118	1.176286	0.199268	0.004704
1685	8.4200e-01	-6.3239	-12.069510	0.000113	1.133512	0.192022	0.004533
1686	8.4250e-01	-6.3056	-12.063523	0.000030	0.299418	0.050723	0.001197
1687	8.4300e-01	-6.2833	-12.020333	0.000216	2.160089	0.365929	0.008638
1688	8.4350e-01	-6.2669	-11.994248	0.000130	1.304608	0.221007	0.005217
1689	8.4400e-01	-6.2446	-11.978425	0.000079	0.791320	0.134053	0.003164
1690	8.4450e-01	-6.2266	-11.956616	0.000109	1.090738	0.184776	0.004362
1691	8.4500e-01	-6.2074	-11.917703	0.000195	1.946218	0.329698	0.007783
1692	8.4550e-01	-6.1854	-11.905301	0.000062	0.620223	0.105069	0.002480
1693	8.4600e-01	-6.1640	-11.888196	0.000086	0.855481	0.144922	0.003421
1694	8.4650e-01	-6.1457	-11.854842	0.000167	1.668187	0.282599	0.006671
1695	8.4700e-01	-6.1250	-11.840730	0.000071	0.705772	0.119561	0.002822
1696	8.4750e-01	-6.1048	-11.812507	0.000141	1.411543	0.239122	0.005645
1697	8.4800e-01	-6.0868	-11.785139	0.000137	1.368769	0.231876	0.005474
1698	8.4850e-01	-6.0658	-11.759481	0.000128	1.283221	0.217384	0.005132
1699	8.4900e-01	-6.0450	-11.725271	0.000171	1.710961	0.289845	0.006842
1700	8.4950e-01	-6.0230	-11.720567	0.000024	0.235257	0.039854	0.000941
1701	8.5000e-01	-6.0059	-11.684219	0.000182	1.817896	0.307960	0.007270
1702	8.5050e-01	-5.9834	-11.670535	0.000068	0.684384	0.115938	0.002737
1703	8.5100e-01	-5.9650	-11.636753	0.000169	1.689574	0.286222	0.006756
1704	8.5150e-01	-5.9449	-11.623069	0.000068	0.684384	0.115938	0.002737
1705	8.5200e-01	-5.9275	-11.575175	0.000240	2.395346	0.405783	0.009579
1706	8.5250e-01	-5.9046	-11.573464	0.000009	0.085548	0.014492	0.000342
1707	8.5300e-01	-5.8851	-11.545241	0.000141	1.411543	0.239122	0.005645
1708	8.5350e-01	-5.8631	-11.509748	0.000178	1.775122	0.300714	0.007099
1709	8.5400e-01	-5.8466	-11.496064	0.000068	0.684384	0.115938	0.002737
1710	8.5450e-01	-5.8225	-11.487939	0.000041	0.406353	0.068838	0.001625
1711	8.5500e-01	-5.8036	-11.456723	0.000156	1.561252	0.264483	0.006243
1712	8.5550e-01	-5.7845	-11.413105	0.000218	2.181476	0.369552	0.008724
1713	8.5600e-01	-5.7648	-11.407546	0.000028	0.278031	0.047100	0.001112
1714	8.5650e-01	-5.7465	-11.363500	0.000220	2.202863	0.373175	0.008809
1715	8.5700e-01	-5.7232	-11.357513	0.000030	0.299418	0.050723	0.001197
1716	8.5750e-01	-5.7044	-11.335277	0.000111	1.112125	0.188399	0.004447
1717	8.5800e-01	-5.6824	-11.301495	0.000169	1.689574	0.286222	0.006756
1718	8.5850e-01	-5.6647	-11.280541	0.000105	1.047964	0.177530	0.004191
1719	8.5900e-01	-5.6467	-11.252318	0.000141	1.411543	0.239122	0.005645
1720	8.5950e-01	-5.6239	-11.217252	0.000175	1.753735	0.297091	0.007013
1721	8.6000e-01	-5.6068	-11.196299	0.000105	1.047964	0.177530	0.004191
1722	8.6050e-01	-5.5860	-11.163372	0.000165	1.646800	0.278976	0.006585
1723	8.6100e-01	-5.5653	-11.147977	0.000077	0.769933	0.130430	0.003079
1724	8.6150e-01	-5.5463	-11.124030	0.000120	1.197673	0.202891	0.004789
1725	8.6200e-01	-5.5225	-11.100938	0.000115	1.154899	0.195645	0.004618
1726	8.6250e-01	-5.5024	-11.078274	0.000113	1.133512	0.192022	0.004533
1727	8.6300e-01	-5.4871	-11.038505	0.000199	1.988992	0.336944	0.007954
1728	8.6350e-01	-5.4630	-11.020117	0.000092	0.919642	0.155792	0.003678
1729	8.6400e-01	-5.4444	-10.992749	0.000137	1.368769	0.231876	0.005474
1730	8.6450e-01	-5.4246	-10.970940	0.000109	1.090738	0.184776	0.004362
1731	8.6500e-01	-5.4066	-10.930743	0.000201	2.010379	0.340567	0.008039
1732	8.6550e-01	-5.3852	-10.913638	0.000086	0.855481	0.144922	0.003421
1733	8.6600e-01	-5.3666	-10.882849	0.000154	1.539865	0.260860	0.006158
1734	8.6650e-01	-5.3428	-10.867455	0.000077	0.769933	0.130430	0.003079
1735	8.6700e-01	-5.3254	-10.843508	0.000120	1.197673	0.202891	0.004789
1736	8.6750e-01	-5.3056	-10.815712	0.000139	1.390156	0.235499	0.005559
1737	8.6800e-01	-5.2847	-10.785778	0.000150	1.497091	0.253614	0.005987
1738	8.6850e-01	-5.2662	-10.776371	0.000047	0.470514	0.079707	0.001882
1739	8.6900e-01	-5.2431	-10.736602	0.000199	1.988992	0.336944	0.007954
1740	8.6950e-01	-5.2250	-10.703247	0.000167	1.668187	0.282599	0.006671
1741	8.7000e-01	-5.2036	-10.689563	0.000068	0.684384	0.115938	0.002737
1742	8.7050e-01	-5.1838	-10.658774	0.000154	1.539865	0.260860	0.006158
1743	8.7100e-01	-5.1643	-10.622853	0.000180	1.796509	0.304337	0.007184
1744	8.7150e-01	-5.1441	-10.604038	0.000094	0.941029	0.159415	0.003763
1745	8.7200e-01	-5.1240	-10.580091	0.000120	1.197673	0.202891	0.004789
1746	8.7250e-01	-5.1054	-10.561275	0.000094	0.941029	0.159415	0.003763
1747	8.7300e-01	-5.0831	-10.536045	0.000126	1.261834	0.213760	0.005046
1748	8.7350e-01	-5.0642	-10.495421	0.000203	2.031766	0.344191	0.008125
1749	8.7400e-01	-5.0430	-10.497987	-0.000013	-0.128322	-0.021738	-0.000513
1750	8.7450e-01	-5.0217	-10.444106	0.000269	2.694764	0.456505	0.010776
1751	8.7500e-01	-5.0037	-10.427856	0.000081	0.812707	0.137676	0.003250
1752	8.7550e-01	-4.9837	-10.383383	0.000222	2.224250	0.376798	0.008895
1753	8.7600e-01	-4.9662	-10.358581	0.000124	1.240447	0.210137	0.004960
1754	8.7650e-01	-4.9470	-10.326509	0.000160	1.604026	0.271729	0.006414
1755	8.7700e-01	-4.9259	-10.295292	0.000156	1.561252	0.264483	0.006243
1756	8.7750e-01	-4.9055	-10.281608	0.000068	0.684384	0.115938	0.002737
1757	8.7800e-01	-4.8826	-10.271345	0.000051	0.513288	0.086953	0.002053
1758	8.7850e-01	-4.8641	-10.232859	0.000192	1.924831	0.326075	0.007697
1759	8.7900e-01	-4.8420	-10.208484	0.000122	1.219060	0.206514	0.004875
1760	8.7950e-01	-4.8243	-10.191379	0.000086	0.855481	0.144922	0.003421
1761	8.8000e-01	-4.8054	-10.152038	0.000197	1.967605	0.333321	0.007868
1762	8.8050e-01	-4.7840	-10.116545	0.000178	1.775122	0.300714	0.007099
1763	8.8100e-01	-4.7626	-10.102006	0.000073	0.727159	0.123184	0.002908
1764	8.8150e-01	-4.7437	-10.075065	0.000135	1.347382	0.228253	0.005388
1765	8.8200e-01	-4.7236	-10.039572	0.000178	1.775122	0.300714	0.007099
1766	8.8250e-01	-4.7016	-10.007928	0.000158	1.582639	0.268106	0.006329
1767	8.8300e-01	-4.6845	-9.988257	0.000098	0.983803	0.166661	0.003934
1768	8.8350e-01	-4.6644	-9.955758	0.000163	1.625413	0.275352	0.006500
1769	8.8400e-01	-4.6458	-9.939508	0.000081	0.812707	0.137676	0.003250
1770	8.8450e-01	-4.6253	-9.893325	0.000231	2.309798	0.391290	0.009237
1771	8.8500e-01	-4.6061	-9.861253	0.000160	1.604026	0.271729	0.006414
1772	8.8550e-01	-4.5838	-9.844575	0.000083	0.834094	0.141299	0.003335
1773	8.8600e-01	-4.5637	-9.826187	0.000092	0.919642	0.155792	0.003678
1774	8.8650e-01	-4.5426	-9.799675	0.000133	1.325995	0.224630	0.005303
1775	8.8700e-01	-4.5258	-9.753063	0.000233	2.331185	0.394913	0.009322
1776	8.8750e-01	-4.5048	-9.733393	0.000098	0.983803	0.166661	0.003934
1777	8.8800e-01	-4.4819	-9.703031	0.000152	1.518478	0.257237	0.006072
1778	8.8850e-01	-4.4630	-9.676946	0.000130	1.304608	0.221007	0.005217
1779	8.8900e-01	-4.4437	-9.637605	0.000197	1.967605	0.333321	0.007868
1780	8.8950e-01	-4.4236	-9.609809	0.000139	1.390156	0.235499	0.005559
1781	8.9000e-01	-4.4032	-9.599118	0.000053	0.534675	0.090576	0.002138
1782	8.9050e-01	-4.3855	-9.571750	0.000137	1.368769	0.231876	0.005474
1783	8.9100e-01	-4.3647	-9.532409	0.000197	1.967605	0.333321	0.007868
1784	8.9150e-01	-4.3436	-9.515304	0.000086	0.855481	0.144922	0.003421
1785	8.9200e-01	-4.3227	-9.487081	0.000141	1.411543	0.239122	0.005645
1786	8.9250e-01	-4.3073	-9.440469	0.000233	2.331185	0.394913	0.009322
1787	8.9300e-01	-4.2834	-9.410963	0.000148	1.475704	0.249991	0.005901
1788	8.9350e-01	-4.2634	-9.395141	0.000079	0.791320	0.134053	0.003164
1789	8.9400e-01	-4.2448	-9.358793	0.000182	1.817896	0.307960	0.007270
1790	8.9450e-01	-4.2252	-9.322017	0.000184	1.839283	0.311583	0.007355
1791	8.9500e-01	-4.2042	-9.298070	0.000120	1.197673	0.202891	0.004789
1792	8.9550e-01	-4.1865	-9.272413	0.000128	1.283221	0.217384	0.005132
1793	8.9600e-01	-4.1634	-9.236492	0.000180	1.796509	0.304337	0.007184
1794	8.9650e-01	-4.1441	-9.204848	0.000158	1.582639	0.268106	0.006329
1795	8.9700e-01	-4.1224	-9.189881	0.000075	0.748546	0.126807	0.002993
1796	8.9750e-01	-4.1029	-9.156099	0.000169	1.689574	0.286222	0.006756
1797	8.9800e-01	-4.0842	-9.130869	0.000126	1.261834	0.213760	0.005046
1798	8.9850e-01	-4.0652	-9.083402	0.000237	2.373959	0.402159	0.009493
1799	8.9900e-01	-4.0470	-9.049192	0.000171	1.710961	0.289845	0.006842
1800	8.9950e-01	-4.0235	-9.031232	0.000090	0.898255	0.152168	0.003592
1801	9.0000e-01	-4.0049	-9.015837	0.000077	0.769933	0.130430	0.003079
1802	9.0050e-01	-3.9819	-8.976496	0.000197	1.967605	0.333321	0.007868
1803	9.0100e-01	-3.9643	-8.952549	0.000120	1.197673	0.202891	0.004789
1804	9.0150e-01	-3.9451	-8.923898	0.000143	1.432930	0.242745	0.005730
1805	9.0200e-01	-3.9240	-8.886267	0.000188	1.882057	0.318829	0.007526
1806	9.0250e-01	-3.9027	-8.856761	0.000148	1.475704	0.249991	0.005901
1807	9.0300e-01	-3.8837	-8.822978	0.000169	1.689574	0.286222	0.006756
1808	9.0350e-01	-3.8642	-8.789624	0.000167	1.668187	0.282599	0.006671
1809	9.0400e-01	-3.8407	-8.760118	0.000148	1.475704	0.249991	0.005901
1810	9.0450e-01	-3.8240	-8.735315	0.000124	1.240447	0.210137	0.004960
1811	9.0500e-01	-3.8047	-8.698967	0.000182	1.817896	0.307960	0.007270
1812	9.0550e-01	-3.7812	-8.678441	0.000103	1.026577	0.173907	0.004105
1813	9.0600e-01	-3.7629	-8.650645	0.000139	1.390156	0.235499	0.005559
1814	9.0650e-01	-3.7443	-8.605317	0.000227	2.267024	0.384044	0.009066
1815	9.0700e-01	-3.7226	-8.577949	0.000137	1.368769	0.231876	0.005474
1816	9.0750e-01	-3.7061	-8.535187	0.000214	2.138702	0.362306	0.008553
1817	9.0800e-01	-3.6849	-8.507819	0.000137	1.368769	0.231876	0.005474
1818	9.0850e-01	-3.6610	-8.483016	0.000124	1.240447	0.210137	0.004960
1819	9.0900e-01	-3.6463	-8.449234	0.000169	1.689574	0.286222	0.006756
1820	9.0950e-01	-3.6219	-8.430418	0.000094	0.941029	0.159415	0.003763
1821	9.1000e-01	-3.6005	-8.390649	0.000199	1.988992	0.336944	0.007954
1822	9.1050e-01	-3.5862	-8.353874	0.000184	1.839283	0.311583	0.007355
1823	9.1100e-01	-3.5641	-8.323940	0.000150	1.497091	0.253614	0.005987
1824	9.1150e-01	-3.5426	-8.293578	0.000152	1.518478	0.257237	0.006072
1825	9.1200e-01	-3.5249	-8.267066	0.000133	1.325995	0.224630	0.005303
1826	9.1250e-01	-3.5044	-8.231145	0.000180	1.796509	0.304337	0.007184
1827	9.1300e-01	-3.4803	-8.199928	0.000156	1.561252	0.264483	0.006243
1828	9.1350e-01	-3.4638	-8.188383	0.000058	0.577449	0.097823	0.002309
1829	9.1400e-01	-3.4437	-8.131508	0.000284	2.844473	0.481867	0.011375
1830	9.1450e-01	-3.4251	-8.090456	0.000205	2.053153	0.347814	0.008210
1831	9.1500e-01	-3.4046	-8.069503	0.000105	1.047964	0.177530	0.004191
1832	9.1550e-01	-3.3863	-8.038714	0.000154	1.539865	0.260860	0.006158
1833	9.1600e-01	-3.3634	-8.016050	0.000113	1.133512	0.192022	0.004533
1834	9.1650e-01	-3.3454	-7.973287	0.000214	2.138702	0.362306	0.008553
1835	9.1700e-01	-3.3234	-7.953616	0.000098	0.983803	0.166661	0.003934
1836	9.1750e-01	-3.3042	-7.923255	0.000152	1.518478	0.257237	0.006072
1837	9.1800e-01	-3.2833	-7.867664	0.000278	2.780312	0.470998	0.011118
1838	9.1850e-01	-3.2634	-7.849703	0.000090	0.898255	0.152168	0.003592
1839	9.1900e-01	-3.2450	-7.814210	0.000178	1.775122	0.300714	0.007099
1840	9.1950e-01	-3.2243	-7.780428	0.000169	1.689574	0.286222	0.006756
1841	9.2000e-01	-3.2023	-7.751777	0.000143	1.432930	0.242745	0.005730
1842	9.2050e-01	-3.1815	-7.716284	0.000178	1.775122	0.300714	0.007099
1843	9.2100e-01	-3.1654	-7.674377	0.000210	2.095928	0.355060	0.008381
1844	9.2150e-01	-3.1420	-7.649147	0.000126	1.261834	0.213760	0.005046
1845	9.2200e-01	-3.1245	-7.619213	0.000150	1.497091	0.253614	0.005987
1846	9.2250e-01	-3.1031	-7.587141	0.000160	1.604026	0.271729	0.006414
1847	9.2300e-01	-3.0831	-7.564050	0.000115	1.154899	0.195645	0.004618
1848	9.2350e-01	-3.0628	-7.517011	0.000235	2.352572	0.398536	0.009408
1849	9.2400e-01	-3.0445	-7.478525	0.000192	1.924831	0.326075	0.007697
1850	9.2450e-01	-3.0247	-7.447308	0.000156	1.561252	0.264483	0.006243
1851	9.2500e-01	-3.0042	-7.424216	0.000115	1.154899	0.195645	0.004618
1852	9.2550e-01	-2.9824	-7.390006	0.000171	1.710961	0.289845	0.006842
1853	9.2600e-01	-2.9652	-7.345106	0.000225	2.245637	0.380421	0.008980
1854	9.2650e-01	-2.9417	-7.310040	0.000175	1.753735	0.297091	0.007013
1855	9.2700e-01	-2.9218	-7.282672	0.000137	1.368769	0.231876	0.005474
1856	9.2750e-01	-2.9018	-7.246324	0.000182	1.817896	0.307960	0.007270
1857	9.2800e-01	-2.8846	-7.206983	0.000197	1.967605	0.333321	0.007868
1858	9.2850e-01	-2.8638	-7.177904	0.000145	1.454317	0.246368	0.005816
1859	9.2900e-01	-2.8428	-7.141556	0.000182	1.817896	0.307960	0.007270
1860	9.2950e-01	-2.8219	-7.123168	0.000092	0.919642	0.155792	0.003678
1861	9.3000e-01	-2.8049	-7.076557	0.000233	2.331185	0.394913	0.009322
1862	9.3050e-01	-2.7836	-7.036360	0.000201	2.010379	0.340567	0.008039
1863	9.3100e-01	-2.7619	-7.003005	0.000167	1.668187	0.282599	0.006671
1864	9.3150e-01	-2.7467	-6.966230	0.000184	1.839283	0.311583	0.007355
1865	9.3200e-01	-2.7202	-6.955111	0.000056	0.556062	0.094200	0.002224
1866	9.3250e-01	-2.7030	-6.913632	0.000207	2.074541	0.351437	0.008296
1867	9.3300e-01	-2.6829	-6.882415	0.000156	1.561252	0.264483	0.006243
1868	9.3350e-01	-2.6618	-6.849915	0.000163	1.625413	0.275352	0.006500
1869	9.3400e-01	-2.6442	-6.794752	0.000276	2.758925	0.467375	0.011033
1870	9.3450e-01	-2.6223	-6.761397	0.000167	1.668187	0.282599	0.006671
1871	9.3500e-01	-2.6038	-6.729325	0.000160	1.604026	0.271729	0.006414
1872	9.3550e-01	-2.5871	-6.670313	0.000295	2.951408	0.499982	0.011802
1873	9.3600e-01	-2.5610	-6.652780	0.000088	0.876868	0.148545	0.003507
1874	9.3650e-01	-2.5423	-6.624129	0.000143	1.432930	0.242745	0.005730
1875	9.3700e-01	-2.5230	-6.586071	0.000190	1.903444	0.322452	0.007612
1876	9.3750e-01	-2.5074	-6.534328	0.000259	2.587829	0.438390	0.010349
1877	9.3800e-01	-2.4818	-6.517651	0.000083	0.834094	0.141299	0.003335
1878	9.3850e-01	-2.4632	-6.491993	0.000128	1.283221	0.217384	0.005132
1879	9.3900e-01	-2.4442	-6.434691	0.000287	2.865860	0.485490	0.011460
1880	9.3950e-01	-2.4231	-6.415448	0.000096	0.962416	0.163038	0.003849
1881	9.4000e-01	-2.4027	-6.373969	0.000207	2.074541	0.351437	0.008296
1882	9.4050e-01	-2.3841	-6.342324	0.000158	1.582639	0.268106	0.006329
1883	9.4100e-01	-2.3649	-6.293575	0.000244	2.438120	0.413029	0.009750
1884	9.4150e-01	-2.3417	-6.282457	0.000056	0.556062	0.094200	0.002224
1885	9.4200e-01	-2.3231	-6.226438	0.000280	2.801699	0.474621	0.011204
1886	9.4250e-01	-2.3023	-6.196932	0.000148	1.475704	0.249991	0.005901
1887	9.4300e-01	-2.2819	-6.161011	0.000180	1.796509	0.304337	0.007184
1888	9.4350e-01	-2.2649	-6.128512	0.000163	1.625413	0.275352	0.006500
1889	9.4400e-01	-2.2433	-6.084039	0.000222	2.224250	0.376798	0.008895
1890	9.4450e-01	-2.2253	-6.042987	0.000205	2.053153	0.347814	0.008210
1891	9.4500e-01	-2.2016	-6.014336	0.000143	1.432930	0.242745	0.005730
1892	9.4550e-01	-2.1818	-5.965586	0.000244	2.438120	0.413029	0.009750
1893	9.4600e-01	-2.1641	-5.930093	0.000178	1.775122	0.300714	0.007099
1894	9.4650e-01	-2.1464	-5.898022	0.000160	1.604026	0.271729	0.006414
1895	9.4700e-01	-2.1247	-5.882627	0.000077	0.769933	0.130430	0.003079
1896	9.4750e-01	-2.1018	-5.828746	0.000269	2.694764	0.456505	0.010776
1897	9.4800e-01	-2.0818	-5.808648	0.000101	1.005190	0.170284	0.004020
1898	9.4850e-01	-2.0632	-5.765458	0.000216	2.160089	0.365929	0.008638
1899	9.4900e-01	-2.0448	-5.708584	0.000284	2.844473	0.481867	0.011375
1900	9.4950e-01	-2.0241	-5.688485	0.000101	1.005190	0.170284	0.004020
1901	9.5000e-01	-2.0018	-5.637598	0.000255	2.545055	0.431144	0.010177
1902	9.5050e-01	-1.9846	-5.599112	0.000192	1.924831	0.326075	0.007697
1903	9.5100e-01	-1.9627	-5.567040	0.000160	1.604026	0.271729	0.006414
1904	9.5150e-01	-1.9415	-5.525560	0.000207	2.074541	0.351437	0.008296
1905	9.5200e-01	-1.9225	-5.491778	0.000169	1.689574	0.286222	0.006756
1906	9.5250e-01	-1.9035	-5.459278	0.000163	1.625413	0.275352	0.006500
1907	9.5300e-01	-1.8819	-5.424640	0.000173	1.732348	0.293468	0.006928
1908	9.5350e-01	-1.8642	-5.377602	0.000235	2.352572	0.398536	0.009408
1909	9.5400e-01	-1.8446	-5.343392	0.000171	1.710961	0.289845	0.006842
1910	9.5450e-01	-1.8229	-5.294215	0.000246	2.459507	0.416652	0.009835
1911	9.5500e-01	-1.8037	-5.255728	0.000192	1.924831	0.326075	0.007697
1912	9.5550e-01	-1.7836	-5.231354	0.000122	1.219060	0.206514	0.004875
1913	9.5600e-01	-1.7626	-5.186453	0.000225	2.245637	0.380421	0.008980
1914	9.5650e-01	-1.7439	-5.154809	0.000158	1.582639	0.268106	0.006329
1915	9.5700e-01	-1.7243	-5.118888	0.000180	1.796509	0.304337	0.007184
1916	9.5750e-01	-1.7030	-5.065863	0.000265	2.651990	0.449259	0.010605
1917	9.5800e-01	-1.6827	-5.024811	0.000205	2.053153	0.347814	0.008210
1918	9.5850e-01	-1.6615	-4.988463	0.000182	1.817896	0.307960	0.007270
1919	9.5900e-01	-1.6430	-4.944845	0.000218	2.181476	0.369552	0.008724
1920	9.5950e-01	-1.6236	-4.924319	0.000103	1.026577	0.173907	0.004105
1921	9.6000e-01	-1.6041	-4.873859	0.000252	2.523668	0.427521	0.010092
1922	9.6050e-01	-1.5826	-4.839649	0.000171	1.710961	0.289845	0.006842
1923	9.6100e-01	-1.5606	-4.804156	0.000178	1.775122	0.300714	0.007099
1924	9.6150e-01	-1.5450	-4.764815	0.000197	1.967605	0.333321	0.007868
1925	9.6200e-01	-1.5215	-4.722052	0.000214	2.138702	0.362306	0.008553
1926	9.6250e-01	-1.5026	-4.690835	0.000156	1.561252	0.264483	0.006243
1927	9.6300e-01	-1.4852	-4.630968	0.000299	2.994182	0.507228	0.011974
1928	9.6350e-01	-1.4638	-4.597186	0.000169	1.689574	0.286222	0.006756
1929	9.6400e-01	-1.4434	-4.559554	0.000188	1.882057	0.318829	0.007526
1930	9.6450e-01	-1.4189	-4.529621	0.000150	1.497091	0.253614	0.005987
1931	9.6500e-01	-1.4027	-4.496266	0.000167	1.668187	0.282599	0.006671
1932	9.6550e-01	-1.3825	-4.447944	0.000242	2.416733	0.409406	0.009664
1933	9.6600e-01	-1.3628	-4.408603	0.000197	1.967605	0.333321	0.007868
1934	9.6650e-01	-1.3420	-4.367123	0.000207	2.074541	0.351437	0.008296
1935	9.6700e-01	-1.3239	-4.321367	0.000229	2.288411	0.387667	0.009151
1936	9.6750e-01	-1.3004	-4.292289	0.000145	1.454317	0.246368	0.005816
1937	9.6800e-01	-1.2817	-4.242684	0.000248	2.480894	0.420275	0.009921
1938	9.6850e-01	-1.2637	-4.216599	0.000130	1.304608	0.221007	0.005217
1939	9.6900e-01	-1.2414	-4.170843	0.000229	2.288411	0.387667	0.009151
1940	9.6950e-01	-1.2229	-4.110976	0.000299	2.994182	0.507228	0.011974
1941	9.7000e-01	-1.2028	-4.084463	0.000133	1.325995	0.224630	0.005303
1942	9.7050e-01	-1.1832	-4.054101	0.000152	1.518478	0.257237	0.006072
1943	9.7100e-01	-1.1610	-4.011339	0.000214	2.138702	0.362306	0.008553
1944	9.7150e-01	-1.1428	-3.978412	0.000165	1.646800	0.278976	0.006585
1945	9.7200e-01	-1.1235	-3.915978	0.000312	3.122504	0.528967	0.012487
1946	9.7250e-01	-1.1020	-3.873216	0.000214	2.138702	0.362306	0.008553
1947	9.7300e-01	-1.0825	-3.842427	0.000154	1.539865	0.260860	0.006158
1948	9.7350e-01	-1.0632	-3.802230	0.000201	2.010379	0.340567	0.008039
1949	9.7400e-01	-1.0430	-3.775290	0.000135	1.347382	0.228253	0.005388
1950	9.7450e-01	-1.0206	-3.719271	0.000280	2.801699	0.474621	0.011204
1951	9.7500e-01	-1.0048	-3.687627	0.000158	1.582639	0.268106	0.006329
1952	9.7550e-01	-0.9834	-3.643154	0.000222	2.224250	0.376798	0.008895
1953	9.7600e-01	-0.9648	-3.599108	0.000220	2.202863	0.373175	0.008809
1954	9.7650e-01	-0.9411	-3.575589	0.000118	1.176286	0.199268	0.004704
1955	9.7700e-01	-0.9227	-3.525984	0.000248	2.480894	0.420275	0.009921
1956	9.7750e-01	-0.9039	-3.488353	0.000188	1.882057	0.318829	0.007526
1957	9.7800e-01	-0.8820	-3.422071	0.000331	3.314987	0.561574	0.013256
1958	9.7850e-01	-0.8627	-3.381874	0.000201	2.010379	0.340567	0.008039
1959	9.7900e-01	-0.8439	-3.358783	0.000115	1.154899	0.195645	0.004618
1960	9.7950e-01	-0.8237	-3.321152	0.000188	1.882057	0.318829	0.007526
1961	9.8000e-01	-0.8025	-3.267271	0.000269	2.694764	0.456505	0.010776
1962	9.8050e-01	-0.7832	-3.231350	0.000180	1.796509	0.304337	0.007184
1963	9.8100e-01	-0.7635	-3.182601	0.000244	2.438120	0.413029	0.009750
1964	9.8150e-01	-0.7417	-3.146253	0.000182	1.817896	0.307960	0.007270
1965	9.8200e-01	-0.7224	-3.104773	0.000207	2.074541	0.351437	0.008296
1966	9.8250e-01	-0.7015	-3.065432	0.000197	1.967605	0.333321	0.007868
1967	9.8300e-01	-0.6835	-3.023097	0.000212	2.117315	0.358683	0.008467
1968	9.8350e-01	-0.6621	-2.988459	0.000173	1.732348	0.293468	0.006928
1969	9.8400e-01	-0.6419	-2.940565	0.000240	2.395346	0.405783	0.009579
1970	9.8450e-01	-0.6206	-2.908066	0.000163	1.625413	0.275352	0.006500
1971	9.8500e-01	-0.6013	-2.864876	0.000216	2.160089	0.365929	0.008638
1972	9.8550e-01	-0.5844	-2.805436	0.000297	2.972795	0.503605	0.011888
1973	9.8600e-01	-0.5650	-2.754548	0.000255	2.545055	0.431144	0.010177
1974	9.8650e-01	-0.5421	-2.737016	0.000088	0.876868	0.148545	0.003507
1975	9.8700e-01	-0.5233	-2.695964	0.000205	2.053153	0.347814	0.008210
1976	9.8750e-01	-0.5021	-2.651491	0.000222	2.224250	0.376798	0.008895
1977	9.8800e-01	-0.4832	-2.608300	0.000216	2.160089	0.365929	0.008638
1978	9.8850e-01	-0.4642	-2.570242	0.000190	1.903444	0.322452	0.007612
1979	9.8900e-01	-0.4428	-2.521065	0.000246	2.459507	0.416652	0.009835
1980	9.8950e-01	-0.4221	-2.474881	0.000231	2.309798	0.391290	0.009237
1981	9.9000e-01	-0.4011	-2.433402	0.000207	2.074541	0.351437	0.008296
1982	9.9050e-01	-0.3812	-2.396626	0.000184	1.839283	0.311583	0.007355
1983	9.9100e-01	-0.3616	-2.342317	0.000272	2.716151	0.460128	0.010862
1984	9.9150e-01	-0.3425	-2.313239	0.000145	1.454317	0.246368	0.005816
1985	9.9200e-01	-0.3219	-2.265345	0.000240	2.395346	0.405783	0.009579
1986	9.9250e-01	-0.3033	-2.214457	0.000255	2.545055	0.431144	0.010177
1987	9.9300e-01	-0.2852	-2.165708	0.000244	2.438120	0.413029	0.009750
1988	9.9350e-01	-0.2621	-2.144327	0.000107	1.069351	0.181153	0.004276
1989	9.9400e-01	-0.2421	-2.096005	0.000242	2.416733	0.409406	0.009664
1990	9.9450e-01	-0.2229	-2.055381	0.000203	2.031766	0.344191	0.008125
1991	9.9500e-01	-0.2022	-2.010908	0.000222	2.224250	0.376798	0.008895
1992	9.9550e-01	-0.1827	-1.961731	0.000246	2.459507	0.416652	0.009835
1993	9.9600e-01	-0.1623	-1.925810	0.000180	1.796509	0.304337	0.007184
1994	9.9650e-01	-0.1427	-1.881765	0.000220	2.202863	0.373175	0.008809
1995	9.9700e-01	-0.1241	-1.833443	0.000242	2.416733	0.409406	0.009664
1996	9.9750e-01	-0.1038	-1.803937	0.000148	1.475704	0.249991	0.005901
1997	9.9800e-01	-0.0799	-1.758609	0.000227	2.267024	0.384044	0.009066
1998	9.9850e-01	-0.0627	-1.714136	0.000222	2.224250	0.376798	0.008895
1999	9.9900e-01	-0.0414	-1.658545	0.000278	2.780312	0.470998	0.011118
2000	9.9950e-01	-0.0220	-1.633742	0.000124	1.240447	0.210137	0.004960
2001	1.0000e+00	-0.0030	-1.602098	0.000124	1.240447	0.210137	0.006329

Smooth data before PMax, +/-Pr and +/-Vc Calc.

PMax (uC/cm2):	1.74e+01
Pr (uC/cm2):	3.15e+00
-Pr (uC/cm2):	3.29e-01
PLoss (uC/cm2):	3.04e-01
Vc:	-1.69e-01
-Vc:	-1.49e+00
C (Max-Eff) (nF):	1.75e-01
K (Eff):	2.96e+02
Vert. (+/-Pr) Shift (uC/cm2):	1.74e+00
Horiz. Shift (+/-Vc):	-8.30e-01
Offset (uC/cm2):	1.94e+00

A (Loop Area - uC/cm2·Volts):	-9.04e-03



Hysteresis Version: 5.48.1 - Radiant Technologies, Inc., 1999 - 9/12/24

