»»»»»»»»»»»»»»»»»»»»»»»»»»»»»»»»»»»» Hysteresis ««««««««««««««««««««««««««««««««««««
»»»  Executed Version:	5.48.1
»»»  Vision Version:	5.48.4 (R)
»»»  Vision Compiled:	9/18/24
»»»  Driver Version:	5.47.0
»»»  Windows Version:	Windows 8 or 8.1
»»»  Processor Information:	x86 (AMD or Intel) - 32 Processors
»»»  Tester Name:	PMF21124-494 (100V)
»»»  Tester S/N:	PMF21124-494
»»»  Internal Amp Type:	100V RevK 270k
»»»  Internal Amp S/N:	iAB2-596/K     
»»»  Execution Count:	1
»»»»»»»»»»»»»»»»»»»»»»»»»»»»»»»»»»»»»»»»»»««««««««««««««««««««««««««««««««««««««««««

Stored:	7/10/2025 - 18:7:16
Configured:	07/10/25 01:31:25 PM
Executed:	07/10/25 06:06:55 PM

»»»»»»»»»»»»»»»»»»»»»»»»»»»»»»»»»»» Sample Info ««««««««««««««««««««««««««««««««««««
Sample Name:	
Lot Name:	
Wafer Name:	
Die Row/Column:	0/0
Capacitor Number:	0
Sample Area (cm2):	1.00e-04
Sample Thickness (microns):	1.50e-01

Amplifier:	Internal

»»»»»»»»»»»»»»»»»»»»»»»»»»»»»»»»»»» Tester Info «««««««««««««««««««««««««««««««««««
Tester Name:	PMF21124-494 (100V)
Tester Serial Number:	PMF21124-494
Return Signal Amp. Level:	1.79 [Index: 2]

»»»»»»»»»»»»»»»»»»»»»»»»»»»»»»»» Hysteresis Info ««««««««««««««««««««««««««««««««««
Task Name:	Hyst-3361
Volts:	10.00
Field:	666.67 (kV/cm)
DCBias:	0.00
DCField:	0.00 (kV/cm)
Hysteresis Period (ms):	1.00e+00
Preset:	Enabled
Preset Delay (ms):	1.00e+03
Profile:	Standard Bipolar

»»»»»»»»»»»»»»»»»»»»»»»»»»»»»»»»»»»»»» Data «««««««««««««««««««««««««««««««««««««««
Points:	2001

Valid Data

Point	Time (ms)	Drive Voltage	Measured Polarization (uC/cm2)	Capacitance (uF)	Normalized Capacitance (uF/cm2)	Dielectric Constant	Instantaneous Current (mA)
   1	0.0000e+00	-0.0060	-2.257220	0.000413	4.127332	0.699189	0.016506
   2	5.0000e-04	0.0159	-2.174688	0.000413	4.127332	0.699189	0.016506
   3	1.0000e-03	0.0360	-2.115248	0.000297	2.972534	0.503561	0.011888
   4	1.5000e-03	0.0551	-2.047684	0.000338	3.378852	0.572393	0.013513
   5	2.0000e-03	0.0766	-2.018605	0.000145	1.454189	0.246346	0.005816
   6	2.5000e-03	0.0954	-1.963441	0.000276	2.758683	0.467334	0.011033
   7	3.0000e-03	0.1162	-1.888179	0.000376	3.763784	0.637602	0.015052
   8	3.5000e-03	0.1350	-1.822753	0.000327	3.271926	0.554279	0.013085
   9	4.0000e-03	0.1557	-1.770582	0.000261	2.608987	0.441974	0.010434
  10	4.5000e-03	0.1770	-1.725682	0.000225	2.245440	0.380388	0.008980
  11	5.0000e-03	0.1984	-1.676933	0.000244	2.437906	0.412992	0.009750
  12	5.5000e-03	0.2158	-1.612361	0.000323	3.229156	0.547034	0.012914
  13	6.0000e-03	0.2358	-1.562757	0.000248	2.480676	0.420238	0.009921
  14	6.5000e-03	0.2568	-1.503317	0.000297	2.972534	0.503561	0.011888
  15	7.0000e-03	0.2765	-1.447725	0.000278	2.780068	0.470956	0.011118
  16	7.5000e-03	0.2922	-1.386147	0.000308	3.079460	0.521675	0.012316
  17	8.0000e-03	0.3154	-1.325852	0.000302	3.015305	0.510806	0.012059
  18	8.5000e-03	0.3369	-1.268978	0.000284	2.844223	0.481824	0.011375
  19	9.0000e-03	0.3574	-1.218091	0.000254	2.544832	0.431106	0.010177
  20	9.5000e-03	0.3738	-1.166776	0.000257	2.566217	0.434729	0.010263
  21	1.0000e-02	0.3952	-1.108619	0.000291	2.908379	0.492693	0.011631
  22	1.0500e-02	0.4175	-1.046185	0.000312	3.122230	0.528920	0.012487
  23	1.1000e-02	0.4392	-0.994870	0.000257	2.566217	0.434729	0.010263
  24	1.1500e-02	0.4568	-0.932009	0.000314	3.143615	0.532543	0.012572
  25	1.2000e-02	0.4764	-0.878556	0.000267	2.673142	0.452843	0.010691
  26	1.2500e-02	0.4956	-0.816123	0.000312	3.122230	0.528920	0.012487
  27	1.3000e-02	0.5145	-0.760104	0.000280	2.801453	0.474579	0.011204
  28	1.3500e-02	0.5373	-0.704085	0.000280	2.801453	0.474579	0.011204
  29	1.4000e-02	0.5570	-0.660895	0.000216	2.159899	0.365897	0.008638
  30	1.4500e-02	0.5765	-0.598889	0.000310	3.100845	0.525297	0.012401
  31	1.5000e-02	0.5965	-0.552706	0.000231	2.309595	0.391256	0.009237
  32	1.5500e-02	0.6152	-0.462477	0.000451	4.512264	0.764398	0.018046
  33	1.6000e-02	0.6355	-0.425701	0.000184	1.839122	0.311556	0.007355
  34	1.6500e-02	0.6549	-0.339748	0.000430	4.298413	0.728171	0.017191
  35	1.7000e-02	0.6768	-0.297413	0.000212	2.117129	0.358651	0.008467
  36	1.7500e-02	0.6966	-0.237118	0.000302	3.015305	0.510806	0.012059
  37	1.8000e-02	0.7169	-0.203336	0.000169	1.689426	0.286197	0.006756
  38	1.8500e-02	0.7366	-0.122942	0.000402	4.020406	0.681075	0.016079
  39	1.9000e-02	0.7574	-0.067351	0.000278	2.780068	0.470956	0.011118
  40	1.9500e-02	0.7743	0.001924	0.000346	3.464392	0.586884	0.013855
  41	2.0000e-02	0.7978	0.060937	0.000295	2.951149	0.499938	0.011802
  42	2.0500e-02	0.8161	0.102844	0.000210	2.095744	0.355029	0.008381
  43	2.1000e-02	0.8381	0.159290	0.000282	2.822838	0.478202	0.011289
  44	2.1500e-02	0.8595	0.218303	0.000295	2.951149	0.499938	0.011802
  45	2.2000e-02	0.8755	0.276032	0.000289	2.886994	0.489070	0.011546
  46	2.2500e-02	0.8958	0.332051	0.000280	2.801453	0.474579	0.011204
  47	2.3000e-02	0.9165	0.406458	0.000372	3.721014	0.630357	0.014881
  48	2.3500e-02	0.9377	0.452214	0.000229	2.288210	0.387633	0.009151
  49	2.4000e-02	0.9588	0.521489	0.000346	3.464392	0.586884	0.013855
  50	2.4500e-02	0.9775	0.593330	0.000359	3.592703	0.608620	0.014368
  51	2.5000e-02	0.9975	0.647638	0.000272	2.715913	0.460088	0.010862
  52	2.5500e-02	1.0167	0.699381	0.000259	2.587602	0.438352	0.010349
  53	2.6000e-02	1.0416	0.757966	0.000293	2.929764	0.496315	0.011717
  54	2.6500e-02	1.0559	0.790465	0.000163	1.625271	0.275328	0.006500
  55	2.7000e-02	1.0765	0.896516	0.000530	5.303514	0.898440	0.021210
  56	2.7500e-02	1.0954	0.944410	0.000240	2.395136	0.405747	0.009579
  57	2.8000e-02	1.1172	1.000857	0.000282	2.822838	0.478202	0.011289
  58	2.8500e-02	1.1377	1.056021	0.000276	2.758683	0.467334	0.011033
  59	2.9000e-02	1.1549	1.141546	0.000428	4.277028	0.724548	0.017105
  60	2.9500e-02	1.1761	1.181315	0.000199	1.988818	0.336915	0.007954
  61	3.0000e-02	1.1965	1.248452	0.000336	3.357467	0.568770	0.013427
  62	3.0500e-02	1.2177	1.289076	0.000203	2.031588	0.344160	0.008125
  63	3.1000e-02	1.2364	1.374174	0.000426	4.255643	0.720925	0.017019
  64	3.1500e-02	1.2561	1.414798	0.000203	2.031588	0.344160	0.008125
  65	3.2000e-02	1.2789	1.475521	0.000304	3.036690	0.514429	0.012145
  66	3.2500e-02	1.2971	1.542658	0.000336	3.357467	0.568770	0.013427
  67	3.3000e-02	1.3161	1.610651	0.000340	3.400237	0.576016	0.013598
  68	3.3500e-02	1.3390	1.679071	0.000342	3.421622	0.579638	0.013684
  69	3.4000e-02	1.3578	1.731241	0.000261	2.608987	0.441974	0.010434
  70	3.4500e-02	1.3753	1.805220	0.000370	3.699629	0.626734	0.014796
  71	3.5000e-02	1.3973	1.851404	0.000231	2.309595	0.391256	0.009237
  72	3.5500e-02	1.4140	1.910416	0.000295	2.951149	0.499938	0.011802
  73	3.6000e-02	1.4355	1.974560	0.000321	3.207771	0.543411	0.012829
  74	3.6500e-02	1.4541	2.040842	0.000331	3.314696	0.561525	0.013256
  75	3.7000e-02	1.4761	2.090446	0.000248	2.480676	0.420238	0.009921
  76	3.7500e-02	1.4954	2.170412	0.000400	3.999021	0.677452	0.015993
  77	3.8000e-02	1.5179	2.231990	0.000308	3.079460	0.521675	0.012316
  78	3.8500e-02	1.5359	2.292285	0.000302	3.015305	0.510806	0.012059
  79	3.9000e-02	1.5561	2.365409	0.000366	3.656859	0.619489	0.014625
  80	3.9500e-02	1.5763	2.410310	0.000225	2.245440	0.380388	0.008980
  81	4.0000e-02	1.5955	2.483006	0.000364	3.635474	0.615866	0.014539
  82	4.0500e-02	1.6145	2.537742	0.000274	2.737298	0.463711	0.010947
  83	4.1000e-02	1.6354	2.602314	0.000323	3.229156	0.547034	0.012914
  84	4.1500e-02	1.6587	2.657477	0.000276	2.758683	0.467334	0.011033
  85	4.2000e-02	1.6763	2.736588	0.000396	3.956251	0.670207	0.015822
  86	4.2500e-02	1.6954	2.807146	0.000353	3.528548	0.597752	0.014112
  87	4.3000e-02	1.7157	2.856323	0.000246	2.459291	0.416615	0.009835
  88	4.3500e-02	1.7360	2.895665	0.000197	1.967433	0.333292	0.007868
  89	4.4000e-02	1.7554	2.985038	0.000447	4.469494	0.757153	0.017875
  90	4.4500e-02	1.7778	3.056879	0.000359	3.592703	0.608620	0.014368
  91	4.5000e-02	1.7985	3.121023	0.000321	3.207771	0.543411	0.012829
  92	4.5500e-02	1.8166	3.168917	0.000240	2.395136	0.405747	0.009579
  93	4.6000e-02	1.8365	3.229212	0.000302	3.015305	0.510806	0.012059
  94	4.6500e-02	1.8591	3.292928	0.000319	3.186386	0.539788	0.012743
  95	4.7000e-02	1.8749	3.354506	0.000308	3.079460	0.521675	0.012316
  96	4.7500e-02	1.8961	3.404966	0.000252	2.523446	0.427483	0.010092
  97	4.8000e-02	1.9175	3.496478	0.000458	4.576420	0.775266	0.018302
  98	4.8500e-02	1.9395	3.559767	0.000317	3.165001	0.536166	0.012658
  99	4.9000e-02	1.9589	3.617068	0.000287	2.865609	0.485447	0.011460
 100	4.9500e-02	1.9749	3.695751	0.000393	3.934866	0.666584	0.015737
 101	5.0000e-02	1.9968	3.750915	0.000276	2.758683	0.467334	0.011033
 102	5.0500e-02	2.0178	3.792822	0.000210	2.095744	0.355029	0.008381
 103	5.1000e-02	2.0398	3.867229	0.000372	3.721014	0.630357	0.014881
 104	5.1500e-02	2.0588	3.942919	0.000379	3.785170	0.641225	0.015138
 105	5.2000e-02	2.0783	4.004497	0.000308	3.079460	0.521675	0.012316
 106	5.2500e-02	2.1006	4.060516	0.000280	2.801453	0.474579	0.011204
 107	5.3000e-02	2.1161	4.135778	0.000376	3.763784	0.637602	0.015052
 108	5.3500e-02	2.1344	4.191797	0.000280	2.801453	0.474579	0.011204
 109	5.4000e-02	2.1554	4.248243	0.000282	2.822838	0.478202	0.011289
 110	5.4500e-02	2.1742	4.326926	0.000393	3.934866	0.666584	0.015737
 111	5.5000e-02	2.1957	4.388932	0.000310	3.100845	0.525297	0.012401
 112	5.5500e-02	2.2192	4.440247	0.000257	2.566217	0.434729	0.010263
 113	5.6000e-02	2.2351	4.531759	0.000458	4.576420	0.775266	0.018302
 114	5.6500e-02	2.2583	4.577087	0.000227	2.266825	0.384010	0.009066
 115	5.7000e-02	2.2768	4.643797	0.000334	3.336082	0.565148	0.013342
 116	5.7500e-02	2.2955	4.709651	0.000329	3.293311	0.557902	0.013171
 117	5.8000e-02	2.3169	4.787051	0.000387	3.870710	0.655716	0.015480
 118	5.8500e-02	2.3375	4.837083	0.000250	2.502061	0.423861	0.010006
 119	5.9000e-02	2.3573	4.925174	0.000441	4.405339	0.746285	0.017618
 120	5.9500e-02	2.3759	4.984614	0.000297	2.972534	0.503561	0.011888
 121	6.0000e-02	2.3943	5.031653	0.000235	2.352365	0.398501	0.009408
 122	6.0500e-02	2.4171	5.108198	0.000383	3.827940	0.648471	0.015309
 123	6.1000e-02	2.4389	5.170203	0.000310	3.100845	0.525297	0.012401
 124	6.1500e-02	2.4574	5.227078	0.000284	2.844223	0.481824	0.011375
 125	6.2000e-02	2.4769	5.296353	0.000346	3.464392	0.586884	0.013855
 126	6.2500e-02	2.4965	5.353655	0.000287	2.865609	0.485447	0.011460
 127	6.3000e-02	2.5162	5.416516	0.000314	3.143615	0.532543	0.012572
 128	6.3500e-02	2.5356	5.473817	0.000287	2.865609	0.485447	0.011460
 129	6.4000e-02	2.5558	5.537533	0.000319	3.186386	0.539788	0.012743
 130	6.4500e-02	2.5731	5.581579	0.000220	2.202669	0.373142	0.008809
 131	6.5000e-02	2.5975	5.693189	0.000558	5.581521	0.945535	0.022322
 132	6.5500e-02	2.6147	5.748780	0.000278	2.780068	0.470956	0.011118
 133	6.6000e-02	2.6370	5.801806	0.000265	2.651757	0.449220	0.010605
 134	6.6500e-02	2.6569	5.875785	0.000370	3.699629	0.626734	0.014796
 135	6.7000e-02	2.6772	5.930093	0.000272	2.715913	0.460088	0.010862
 136	6.7500e-02	2.6968	5.995948	0.000329	3.293311	0.557902	0.013171
 137	6.8000e-02	2.7170	6.063940	0.000340	3.400237	0.576016	0.013598
 138	6.8500e-02	2.7351	6.124663	0.000304	3.036690	0.514429	0.012145
 139	6.9000e-02	2.7548	6.205912	0.000406	4.063176	0.688321	0.016250
 140	6.9500e-02	2.7774	6.257654	0.000259	2.587602	0.438352	0.010349
 141	7.0000e-02	2.7975	6.304266	0.000233	2.330980	0.394879	0.009322
 142	7.0500e-02	2.8177	6.381238	0.000385	3.849325	0.652093	0.015395
 143	7.1000e-02	2.8351	6.443671	0.000312	3.122230	0.528920	0.012487
 144	7.1500e-02	2.8552	6.499263	0.000278	2.780068	0.470956	0.011118
 145	7.2000e-02	2.8754	6.547584	0.000242	2.416521	0.409370	0.009664
 146	7.2500e-02	2.8952	6.636530	0.000445	4.448109	0.753530	0.017789
 147	7.3000e-02	2.9187	6.694687	0.000291	2.908379	0.492693	0.011631
 148	7.3500e-02	2.9358	6.763963	0.000346	3.464392	0.586884	0.013855
 149	7.4000e-02	2.9556	6.826396	0.000312	3.122230	0.528920	0.012487
 150	7.4500e-02	2.9767	6.885408	0.000295	2.951149	0.499938	0.011802
 151	7.5000e-02	2.9976	6.924750	0.000197	1.967433	0.333292	0.007868
 152	7.5500e-02	3.0162	7.001722	0.000385	3.849325	0.652093	0.015395
 153	7.6000e-02	3.0387	7.074846	0.000366	3.656859	0.619489	0.014625
 154	7.6500e-02	3.0573	7.147970	0.000366	3.656859	0.619489	0.014625
 155	7.7000e-02	3.0774	7.202706	0.000274	2.737298	0.463711	0.010947
 156	7.7500e-02	3.0956	7.265567	0.000314	3.143615	0.532543	0.012572
 157	7.8000e-02	3.1180	7.323297	0.000289	2.886994	0.489070	0.011546
 158	7.8500e-02	3.1362	7.368197	0.000225	2.245440	0.380388	0.008980
 159	7.9000e-02	3.1573	7.437900	0.000349	3.485778	0.590507	0.013941
 160	7.9500e-02	3.1787	7.510597	0.000364	3.635474	0.615866	0.014539
 161	8.0000e-02	3.1964	7.573457	0.000314	3.143615	0.532543	0.012572
 162	8.0500e-02	3.2147	7.626483	0.000265	2.651757	0.449220	0.010605
 163	8.1000e-02	3.2314	7.695331	0.000344	3.443007	0.583261	0.013770
 164	8.1500e-02	3.2559	7.750922	0.000278	2.780068	0.470956	0.011118
 165	8.2000e-02	3.2758	7.827039	0.000381	3.806555	0.644848	0.015223
 166	8.2500e-02	3.2963	7.878354	0.000257	2.566217	0.434729	0.010263
 167	8.3000e-02	3.3160	7.935656	0.000287	2.865609	0.485447	0.011460
 168	8.3500e-02	3.3369	7.985688	0.000250	2.502061	0.423861	0.010006
 169	8.4000e-02	3.3551	8.055819	0.000351	3.507163	0.594129	0.014026
 170	8.4500e-02	3.3752	8.129798	0.000370	3.699629	0.626734	0.014796
 171	8.5000e-02	3.3954	8.199073	0.000346	3.464392	0.586884	0.013855
 172	8.5500e-02	3.4177	8.247395	0.000242	2.416521	0.409370	0.009664
 173	8.6000e-02	3.4385	8.302131	0.000274	2.737298	0.463711	0.010947
 174	8.6500e-02	3.4583	8.357722	0.000278	2.780068	0.470956	0.011118
 175	8.7000e-02	3.4763	8.432984	0.000376	3.763784	0.637602	0.015052
 176	8.7500e-02	3.4949	8.495845	0.000314	3.143615	0.532543	0.012572
 177	8.8000e-02	3.5168	8.546733	0.000254	2.544832	0.431106	0.010177
 178	8.8500e-02	3.5376	8.608738	0.000310	3.100845	0.525297	0.012401
 179	8.9000e-02	3.5554	8.655777	0.000235	2.352365	0.398501	0.009408
 180	8.9500e-02	3.5785	8.716072	0.000302	3.015305	0.510806	0.012059
 181	9.0000e-02	3.5950	8.764821	0.000244	2.437906	0.412992	0.009750
 182	9.0500e-02	3.6152	8.837090	0.000361	3.614088	0.612243	0.014454
 183	9.1000e-02	3.6383	8.898668	0.000308	3.079460	0.521675	0.012316
 184	9.1500e-02	3.6580	8.954259	0.000278	2.780068	0.470956	0.011118
 185	9.2000e-02	3.6761	9.013272	0.000295	2.951149	0.499938	0.011802
 186	9.2500e-02	3.6975	9.076988	0.000319	3.186386	0.539788	0.012743
 187	9.3000e-02	3.7171	9.135573	0.000293	2.929764	0.496315	0.011717
 188	9.3500e-02	3.7362	9.196723	0.000306	3.058075	0.518052	0.012230
 189	9.4000e-02	3.7576	9.257446	0.000304	3.036690	0.514429	0.012145
 190	9.4500e-02	3.7763	9.313465	0.000280	2.801453	0.474579	0.011204
 191	9.5000e-02	3.7982	9.347247	0.000169	1.689426	0.286197	0.006756
 192	9.5500e-02	3.8181	9.441752	0.000473	4.726116	0.800626	0.018901
 193	9.6000e-02	3.8402	9.462278	0.000103	1.026487	0.173892	0.004105
 194	9.6500e-02	3.8559	9.549941	0.000438	4.383953	0.742662	0.017533
 195	9.7000e-02	3.8782	9.607671	0.000289	2.886994	0.489070	0.011546
 196	9.7500e-02	3.8942	9.657703	0.000250	2.502061	0.423861	0.010006
 197	9.8000e-02	3.9166	9.718853	0.000306	3.058075	0.518052	0.012230
 198	9.8500e-02	3.9368	9.781714	0.000314	3.143615	0.532543	0.012572
 199	9.9000e-02	3.9575	9.844575	0.000314	3.143615	0.532543	0.012572
 200	9.9500e-02	3.9774	9.904870	0.000302	3.015305	0.510806	0.012059
 201	1.0000e-01	3.9969	9.950199	0.000227	2.266825	0.384010	0.009066
 202	1.0050e-01	4.0173	10.010494	0.000302	3.015305	0.510806	0.012059
 203	1.0100e-01	4.0363	10.049408	0.000195	1.946048	0.329669	0.007783
 204	1.0150e-01	4.0582	10.137926	0.000443	4.426724	0.749907	0.017704
 205	1.0200e-01	4.0761	10.186248	0.000242	2.416521	0.409370	0.009664
 206	1.0250e-01	4.0964	10.233714	0.000237	2.373750	0.402124	0.009493
 207	1.0300e-01	4.1174	10.292299	0.000293	2.929764	0.496315	0.011717
 208	1.0350e-01	4.1382	10.354732	0.000312	3.122230	0.528920	0.012487
 209	1.0400e-01	4.1554	10.420159	0.000327	3.271926	0.554279	0.013085
 210	1.0450e-01	4.1757	10.450520	0.000152	1.518345	0.257215	0.006072
 211	1.0500e-01	4.1937	10.520223	0.000349	3.485778	0.590507	0.013941
 212	1.0550e-01	4.2160	10.576670	0.000282	2.822838	0.478202	0.011289
 213	1.0600e-01	4.2386	10.630551	0.000269	2.694527	0.456465	0.010776
 214	1.0650e-01	4.2575	10.666899	0.000182	1.817737	0.307933	0.007270
 215	1.0700e-01	4.2781	10.733608	0.000334	3.336082	0.565148	0.013342
 216	1.0750e-01	4.2981	10.787917	0.000272	2.715913	0.460088	0.010862
 217	1.0800e-01	4.3164	10.858047	0.000351	3.507163	0.594129	0.014026
 218	1.0850e-01	4.3365	10.898672	0.000203	2.031588	0.344160	0.008125
 219	1.0900e-01	4.3591	10.955973	0.000287	2.865609	0.485447	0.011460
 220	1.0950e-01	4.3756	11.013703	0.000289	2.886994	0.489070	0.011546
 221	1.1000e-01	4.3958	11.075281	0.000308	3.079460	0.521675	0.012316
 222	1.1050e-01	4.4174	11.125741	0.000252	2.523446	0.427483	0.010092
 223	1.1100e-01	4.4356	11.207417	0.000408	4.084561	0.691943	0.016335
 224	1.1150e-01	4.4577	11.239061	0.000158	1.582500	0.268083	0.006329
 225	1.1200e-01	4.4769	11.294225	0.000276	2.758683	0.467334	0.011033
 226	1.1250e-01	4.4989	11.341691	0.000237	2.373750	0.402124	0.009493
 227	1.1300e-01	4.5178	11.388303	0.000233	2.330980	0.394879	0.009322
 228	1.1350e-01	4.5374	11.452019	0.000319	3.186386	0.539788	0.012743
 229	1.1400e-01	4.5581	11.502906	0.000254	2.544832	0.431106	0.010177
 230	1.1450e-01	4.5752	11.547379	0.000222	2.224054	0.376765	0.008895
 231	1.1500e-01	4.5969	11.605964	0.000293	2.929764	0.496315	0.011717
 232	1.1550e-01	4.6204	11.656424	0.000252	2.523446	0.427483	0.010092
 233	1.1600e-01	4.6365	11.720140	0.000319	3.186386	0.539788	0.012743
 234	1.1650e-01	4.6585	11.773165	0.000265	2.651757	0.449220	0.010605
 235	1.1700e-01	4.6777	11.817638	0.000222	2.224054	0.376765	0.008895
 236	1.1750e-01	4.6960	11.890335	0.000364	3.635474	0.615866	0.014539
 237	1.1800e-01	4.7153	11.936090	0.000229	2.288210	0.387633	0.009151
 238	1.1850e-01	4.7375	11.983129	0.000235	2.352365	0.398501	0.009408
 239	1.1900e-01	4.7585	12.017767	0.000173	1.732196	0.293442	0.006928
 240	1.1950e-01	4.7772	12.102437	0.000423	4.234257	0.717303	0.016934
 241	1.2000e-01	4.7964	12.142206	0.000199	1.988818	0.336915	0.007954
 242	1.2050e-01	4.8181	12.187534	0.000227	2.266825	0.384010	0.009066
 243	1.2100e-01	4.8395	12.255099	0.000338	3.378852	0.572393	0.013513
 244	1.2150e-01	4.8557	12.304703	0.000248	2.480676	0.420238	0.009921
 245	1.2200e-01	4.8749	12.370985	0.000331	3.314696	0.561525	0.013256
 246	1.2250e-01	4.8979	12.424866	0.000269	2.694527	0.456465	0.010776
 247	1.2300e-01	4.9188	12.468912	0.000220	2.202669	0.373142	0.008809
 248	1.2350e-01	4.9408	12.503122	0.000171	1.710811	0.289819	0.006842
 249	1.2400e-01	4.9609	12.561706	0.000293	2.929764	0.496315	0.011717
 250	1.2450e-01	4.9780	12.608317	0.000233	2.330980	0.394879	0.009322
 251	1.2500e-01	4.9963	12.669040	0.000304	3.036690	0.514429	0.012145
 252	1.2550e-01	5.0191	12.699402	0.000152	1.518345	0.257215	0.006072
 253	1.2600e-01	5.0363	12.772526	0.000366	3.656859	0.619489	0.014625
 254	1.2650e-01	5.0577	12.806308	0.000169	1.689426	0.286197	0.006756
 255	1.2700e-01	5.0763	12.875156	0.000344	3.443007	0.583261	0.013770
 256	1.2750e-01	5.0966	12.916208	0.000205	2.052973	0.347783	0.008210
 257	1.2800e-01	5.1166	12.954266	0.000190	1.903277	0.322424	0.007612
 258	1.2850e-01	5.1358	13.025252	0.000355	3.549933	0.601375	0.014197
 259	1.2900e-01	5.1563	13.082981	0.000289	2.886994	0.489070	0.011546
 260	1.2950e-01	5.1764	13.135152	0.000261	2.608987	0.441974	0.010434
 261	1.3000e-01	5.1984	13.179197	0.000220	2.202669	0.373142	0.008809
 262	1.3050e-01	5.2203	13.221532	0.000212	2.117129	0.358651	0.008467
 263	1.3100e-01	5.2377	13.273702	0.000261	2.608987	0.441974	0.010434
 264	1.3150e-01	5.2570	13.323307	0.000248	2.480676	0.420238	0.009921
 265	1.3200e-01	5.2768	13.383602	0.000302	3.015305	0.510806	0.012059
 266	1.3250e-01	5.2972	13.432779	0.000246	2.459291	0.416615	0.009835
 267	1.3300e-01	5.3169	13.487087	0.000272	2.715913	0.460088	0.010862
 268	1.3350e-01	5.3384	13.539685	0.000263	2.630372	0.445597	0.010520
 269	1.3400e-01	5.3561	13.581165	0.000207	2.074358	0.351406	0.008296
 270	1.3450e-01	5.3773	13.621789	0.000203	2.031588	0.344160	0.008125
 271	1.3500e-01	5.3975	13.677808	0.000280	2.801453	0.474579	0.011204
 272	1.3550e-01	5.4175	13.717577	0.000199	1.988818	0.336915	0.007954
 273	1.3600e-01	5.4376	13.791129	0.000368	3.678244	0.623111	0.014710
 274	1.3650e-01	5.4568	13.806096	0.000075	0.748480	0.126796	0.002993
 275	1.3700e-01	5.4764	13.871522	0.000327	3.271926	0.554279	0.013085
 276	1.3750e-01	5.4987	13.925403	0.000269	2.694527	0.456465	0.010776
 277	1.3800e-01	5.5170	13.975435	0.000250	2.502061	0.423861	0.010006
 278	1.3850e-01	5.5377	14.019053	0.000218	2.181284	0.369520	0.008724
 279	1.3900e-01	5.5573	14.073362	0.000272	2.715913	0.460088	0.010862
 280	1.3950e-01	5.5777	14.122966	0.000248	2.480676	0.420238	0.009921
 281	1.4000e-01	5.5975	14.172571	0.000248	2.480676	0.420238	0.009921
 282	1.4050e-01	5.6166	14.231155	0.000293	2.929764	0.496315	0.011717
 283	1.4100e-01	5.6378	14.265365	0.000171	1.710811	0.289819	0.006842
 284	1.4150e-01	5.6555	14.322240	0.000284	2.844223	0.481824	0.011375
 285	1.4200e-01	5.6747	14.365430	0.000216	2.159899	0.365897	0.008638
 286	1.4250e-01	5.6982	14.435988	0.000353	3.528548	0.597752	0.014112
 287	1.4300e-01	5.7178	14.466349	0.000152	1.518345	0.257215	0.006072
 288	1.4350e-01	5.7349	14.521085	0.000274	2.737298	0.463711	0.010947
 289	1.4400e-01	5.7565	14.562137	0.000205	2.052973	0.347783	0.008210
 290	1.4450e-01	5.7773	14.607893	0.000229	2.288210	0.387633	0.009151
 291	1.4500e-01	5.7996	14.640820	0.000165	1.646656	0.278951	0.006585
 292	1.4550e-01	5.8173	14.709668	0.000344	3.443007	0.583261	0.013770
 293	1.4600e-01	5.8368	14.753286	0.000218	2.181284	0.369520	0.008724
 294	1.4650e-01	5.8554	14.794338	0.000205	2.052973	0.347783	0.008210
 295	1.4700e-01	5.8765	14.857199	0.000314	3.143615	0.532543	0.012572
 296	1.4750e-01	5.8960	14.910224	0.000265	2.651757	0.449220	0.010605
 297	1.4800e-01	5.9198	14.939730	0.000148	1.475575	0.249969	0.005901
 298	1.4850e-01	5.9363	14.969237	0.000148	1.475575	0.249969	0.005901
 299	1.4900e-01	5.9576	15.027394	0.000291	2.908379	0.492693	0.011631
 300	1.4950e-01	5.9753	15.076998	0.000248	2.480676	0.420238	0.009921
 301	1.5000e-01	5.9961	15.118050	0.000205	2.052973	0.347783	0.008210
 302	1.5050e-01	6.0158	15.181766	0.000319	3.186386	0.539788	0.012743
 303	1.5100e-01	6.0361	15.221108	0.000197	1.967433	0.333292	0.007868
 304	1.5150e-01	6.0571	15.255318	0.000171	1.710811	0.289819	0.006842
 305	1.5200e-01	6.0773	15.312620	0.000287	2.865609	0.485447	0.011460
 306	1.5250e-01	6.0950	15.355810	0.000216	2.159899	0.365897	0.008638
 307	1.5300e-01	6.1200	15.401993	0.000231	2.309595	0.391256	0.009237
 308	1.5350e-01	6.1374	15.440052	0.000190	1.903277	0.322424	0.007612
 309	1.5400e-01	6.1597	15.511893	0.000359	3.592703	0.608620	0.014368
 310	1.5450e-01	6.1793	15.534985	0.000115	1.154797	0.195628	0.004618
 311	1.5500e-01	6.1969	15.595708	0.000304	3.036690	0.514429	0.012145
 312	1.5550e-01	6.2178	15.641891	0.000231	2.309595	0.391256	0.009237
 313	1.5600e-01	6.2390	15.681233	0.000197	1.967433	0.333292	0.007868
 314	1.5650e-01	6.2579	15.714160	0.000165	1.646656	0.278951	0.006585
 315	1.5700e-01	6.2732	15.784718	0.000353	3.528548	0.597752	0.014112
 316	1.5750e-01	6.2967	15.826198	0.000207	2.074358	0.351406	0.008296
 317	1.5800e-01	6.3184	15.837743	0.000058	0.577399	0.097814	0.002309
 318	1.5850e-01	6.3361	15.900177	0.000312	3.122230	0.528920	0.012487
 319	1.5900e-01	6.3562	15.971163	0.000355	3.549933	0.601375	0.014197
 320	1.5950e-01	6.3763	15.991261	0.000101	1.005102	0.170269	0.004020
 321	1.6000e-01	6.3959	16.045569	0.000272	2.715913	0.460088	0.010862
 322	1.6050e-01	6.4145	16.097312	0.000259	2.587602	0.438352	0.010349
 323	1.6100e-01	6.4357	16.125963	0.000143	1.432804	0.242724	0.005730
 324	1.6150e-01	6.4546	16.183692	0.000289	2.886994	0.489070	0.011546
 325	1.6200e-01	6.4772	16.223889	0.000201	2.010203	0.340538	0.008039
 326	1.6250e-01	6.4975	16.253395	0.000148	1.475575	0.249969	0.005901
 327	1.6300e-01	6.5170	16.312835	0.000297	2.972534	0.503561	0.011888
 328	1.6350e-01	6.5378	16.354742	0.000210	2.095744	0.355029	0.008381
 329	1.6400e-01	6.5588	16.401781	0.000235	2.352365	0.398501	0.009408
 330	1.6450e-01	6.5741	16.455234	0.000267	2.673142	0.452843	0.010691
 331	1.6500e-01	6.5936	16.502701	0.000237	2.373750	0.402124	0.009493
 332	1.6550e-01	6.6141	16.545036	0.000212	2.117129	0.358651	0.008467
 333	1.6600e-01	6.6357	16.577108	0.000160	1.603885	0.271706	0.006414
 334	1.6650e-01	6.6559	16.622008	0.000225	2.245440	0.380388	0.008980
 335	1.6700e-01	6.6776	16.665626	0.000218	2.181284	0.369520	0.008724
 336	1.6750e-01	6.6968	16.704540	0.000195	1.946048	0.329669	0.007783
 337	1.6800e-01	6.7145	16.748158	0.000218	2.181284	0.369520	0.008724
 338	1.6850e-01	6.7349	16.817861	0.000349	3.485778	0.590507	0.013941
 339	1.6900e-01	6.7560	16.844801	0.000135	1.347264	0.228233	0.005388
 340	1.6950e-01	6.7743	16.879439	0.000173	1.732196	0.293442	0.006928
 341	1.7000e-01	6.7950	16.933319	0.000269	2.694527	0.456465	0.010776
 342	1.7050e-01	6.8167	16.977792	0.000222	2.224054	0.376765	0.008895
 343	1.7100e-01	6.8384	17.025259	0.000237	2.373750	0.402124	0.009493
 344	1.7150e-01	6.8555	17.051772	0.000133	1.325879	0.224610	0.005303
 345	1.7200e-01	6.8750	17.113350	0.000308	3.079460	0.521675	0.012316
 346	1.7250e-01	6.8933	17.154829	0.000207	2.074358	0.351406	0.008296
 347	1.7300e-01	6.9144	17.209565	0.000274	2.737298	0.463711	0.010947
 348	1.7350e-01	6.9360	17.232657	0.000115	1.154797	0.195628	0.004618
 349	1.7400e-01	6.9562	17.273282	0.000203	2.031588	0.344160	0.008125
 350	1.7450e-01	6.9751	17.339563	0.000331	3.314696	0.561525	0.013256
 351	1.7500e-01	6.9965	17.363083	0.000118	1.176183	0.199251	0.004704
 352	1.7550e-01	7.0142	17.400714	0.000188	1.881892	0.318801	0.007526
 353	1.7600e-01	7.0364	17.443476	0.000214	2.138514	0.362274	0.008553
 354	1.7650e-01	7.0563	17.483673	0.000201	2.010203	0.340538	0.008039
 355	1.7700e-01	7.0789	17.532422	0.000244	2.437906	0.412992	0.009750
 356	1.7750e-01	7.0966	17.566632	0.000171	1.710811	0.289819	0.006842
 357	1.7800e-01	7.1161	17.625645	0.000295	2.951149	0.499938	0.011802
 358	1.7850e-01	7.1371	17.661993	0.000182	1.817737	0.307933	0.007270
 359	1.7900e-01	7.1576	17.691071	0.000145	1.454189	0.246346	0.005816
 360	1.7950e-01	7.1759	17.737683	0.000233	2.330980	0.394879	0.009322
 361	1.8000e-01	7.1979	17.779590	0.000210	2.095744	0.355029	0.008381
 362	1.8050e-01	7.2150	17.833043	0.000267	2.673142	0.452843	0.010691
 363	1.8100e-01	7.2351	17.877088	0.000220	2.202669	0.373142	0.008809
 364	1.8150e-01	7.2552	17.920706	0.000218	2.181284	0.369520	0.008724
 365	1.8200e-01	7.2742	17.950640	0.000150	1.496960	0.253592	0.005987
 366	1.8250e-01	7.2971	17.990409	0.000199	1.988818	0.336915	0.007954
 367	1.8300e-01	7.3145	18.033599	0.000216	2.159899	0.365897	0.008638
 368	1.8350e-01	7.3364	18.081066	0.000237	2.373750	0.402124	0.009493
 369	1.8400e-01	7.3547	18.113138	0.000160	1.603885	0.271706	0.006414
 370	1.8450e-01	7.3749	18.159321	0.000231	2.309595	0.391256	0.009237
 371	1.8500e-01	7.3975	18.201656	0.000212	2.117129	0.358651	0.008467
 372	1.8550e-01	7.4158	18.233300	0.000158	1.582500	0.268083	0.006329
 373	1.8600e-01	7.4356	18.276918	0.000218	2.181284	0.369520	0.008724
 374	1.8650e-01	7.4548	18.318398	0.000207	2.074358	0.351406	0.008296
 375	1.8700e-01	7.4744	18.350042	0.000158	1.582500	0.268083	0.006329
 376	1.8750e-01	7.4954	18.414613	0.000323	3.229156	0.547034	0.012914
 377	1.8800e-01	7.5174	18.440271	0.000128	1.283108	0.217364	0.005132
 378	1.8850e-01	7.5357	18.483889	0.000218	2.181284	0.369520	0.008724
 379	1.8900e-01	7.5537	18.535631	0.000259	2.587602	0.438352	0.010349
 380	1.8950e-01	7.5775	18.536487	0.000004	0.042770	0.007245	0.000171
 381	1.9000e-01	7.5961	18.587802	0.000257	2.566217	0.434729	0.010263
 382	1.9050e-01	7.6160	18.645531	0.000289	2.886994	0.489070	0.011546
 383	1.9100e-01	7.6361	18.684445	0.000195	1.946048	0.329669	0.007783
 384	1.9150e-01	7.6569	18.712668	0.000141	1.411419	0.239101	0.005645
 385	1.9200e-01	7.6740	18.749016	0.000182	1.817737	0.307933	0.007270
 386	1.9250e-01	7.6959	18.793917	0.000225	2.245440	0.380388	0.008980
 387	1.9300e-01	7.7167	18.829410	0.000177	1.774967	0.300687	0.007099
 388	1.9350e-01	7.7313	18.918356	0.000445	4.448109	0.753530	0.017789
 389	1.9400e-01	7.7557	18.928191	0.000049	0.491858	0.083323	0.001967
 390	1.9450e-01	7.7759	18.941448	0.000066	0.662939	0.112305	0.002651
 391	1.9500e-01	7.7939	19.002171	0.000304	3.036690	0.514429	0.012145
 392	1.9550e-01	7.8137	19.025690	0.000118	1.176183	0.199251	0.004704
 393	1.9600e-01	7.8339	19.074012	0.000242	2.416521	0.409370	0.009664
 394	1.9650e-01	7.8546	19.126609	0.000263	2.630372	0.445597	0.010520
 395	1.9700e-01	7.8772	19.160392	0.000169	1.689426	0.286197	0.006756
 396	1.9750e-01	7.8943	19.196312	0.000180	1.796352	0.304310	0.007184
 397	1.9800e-01	7.9166	19.245489	0.000246	2.459291	0.416615	0.009835
 398	1.9850e-01	7.9327	19.277134	0.000158	1.582500	0.268083	0.006329
 399	1.9900e-01	7.9578	19.323745	0.000233	2.330980	0.394879	0.009322
 400	1.9950e-01	7.9761	19.354106	0.000152	1.518345	0.257215	0.006072
 401	2.0000e-01	7.9956	19.377626	0.000118	1.176183	0.199251	0.004704
 402	2.0050e-01	8.0164	19.418250	0.000203	2.031588	0.344160	0.008125
 403	2.0100e-01	8.0353	19.489663	0.000357	3.571318	0.604998	0.014283
 404	2.0150e-01	8.0542	19.515321	0.000128	1.283108	0.217364	0.005132
 405	2.0200e-01	8.0786	19.537985	0.000113	1.133412	0.192005	0.004533
 406	2.0250e-01	8.0927	19.600418	0.000312	3.122230	0.528920	0.012487
 407	2.0300e-01	8.1146	19.624365	0.000120	1.197568	0.202873	0.004789
 408	2.0350e-01	8.1372	19.650450	0.000130	1.304493	0.220987	0.005217
 409	2.0400e-01	8.1567	19.697062	0.000233	2.330980	0.394879	0.009322
 410	2.0450e-01	8.1775	19.743673	0.000233	2.330980	0.394879	0.009322
 411	2.0500e-01	8.1964	19.769330	0.000128	1.283108	0.217364	0.005132
 412	2.0550e-01	8.2123	19.807817	0.000192	1.924662	0.326047	0.007697
 413	2.0600e-01	8.2379	19.853572	0.000229	2.288210	0.387633	0.009151
 414	2.0650e-01	8.2593	19.889921	0.000182	1.817737	0.307933	0.007270
 415	2.0700e-01	8.2739	19.921137	0.000156	1.561115	0.264460	0.006243
 416	2.0750e-01	8.2916	19.965183	0.000220	2.202669	0.373142	0.008809
 417	2.0800e-01	8.3154	20.004097	0.000195	1.946048	0.329669	0.007783
 418	2.0850e-01	8.3350	20.034030	0.000150	1.496960	0.253592	0.005987
 419	2.0900e-01	8.3545	20.078503	0.000222	2.224054	0.376765	0.008895
 420	2.0950e-01	8.3752	20.119128	0.000203	2.031588	0.344160	0.008125
 421	2.1000e-01	8.3968	20.146923	0.000139	1.390034	0.235478	0.005559
 422	2.1050e-01	8.4167	20.184554	0.000188	1.881892	0.318801	0.007526
 423	2.1100e-01	8.4375	20.218764	0.000171	1.710811	0.289819	0.006842
 424	2.1150e-01	8.4564	20.245705	0.000135	1.347264	0.228233	0.005388
 425	2.1200e-01	8.4766	20.306855	0.000306	3.058075	0.518052	0.012230
 426	2.1250e-01	8.4949	20.344059	0.000186	1.860507	0.315178	0.007441
 427	2.1300e-01	8.5162	20.388532	0.000222	2.224054	0.376765	0.008895
 428	2.1350e-01	8.5352	20.418465	0.000150	1.496960	0.253592	0.005987
 429	2.1400e-01	8.5571	20.450965	0.000163	1.625271	0.275328	0.006500
 430	2.1450e-01	8.5730	20.486458	0.000177	1.774967	0.300687	0.007099
 431	2.1500e-01	8.5974	20.521951	0.000177	1.774967	0.300687	0.007099
 432	2.1550e-01	8.6169	20.562575	0.000203	2.031588	0.344160	0.008125
 433	2.1600e-01	8.6365	20.589943	0.000137	1.368649	0.231855	0.005474
 434	2.1650e-01	8.6572	20.636554	0.000233	2.330980	0.394879	0.009322
 435	2.1700e-01	8.6755	20.681883	0.000227	2.266825	0.384010	0.009066
 436	2.1750e-01	8.6987	20.721224	0.000197	1.967433	0.333292	0.007868
 437	2.1800e-01	8.7164	20.731487	0.000051	0.513243	0.086946	0.002053
 438	2.1850e-01	8.7384	20.780664	0.000246	2.459291	0.416615	0.009835
 439	2.1900e-01	8.7567	20.811025	0.000152	1.518345	0.257215	0.006072
 440	2.1950e-01	8.7756	20.847374	0.000182	1.817737	0.307933	0.007270
 441	2.2000e-01	8.7976	20.887998	0.000203	2.031588	0.344160	0.008125
 442	2.2050e-01	8.8190	20.915794	0.000139	1.390034	0.235478	0.005559
 443	2.2100e-01	8.8373	20.928622	0.000064	0.641554	0.108682	0.002566
 444	2.2150e-01	8.8556	20.987635	0.000295	2.951149	0.499938	0.011802
 445	2.2200e-01	8.8751	21.038950	0.000257	2.566217	0.434729	0.010263
 446	2.2250e-01	8.8959	21.072304	0.000167	1.668041	0.282574	0.006671
 447	2.2300e-01	8.9160	21.115495	0.000216	2.159899	0.365897	0.008638
 448	2.2350e-01	8.9368	21.137304	0.000109	1.090642	0.184760	0.004362
 449	2.2400e-01	8.9551	21.184342	0.000235	2.352365	0.398501	0.009408
 450	2.2450e-01	8.9746	21.223684	0.000197	1.967433	0.333292	0.007868
 451	2.2500e-01	8.9944	21.256183	0.000163	1.625271	0.275328	0.006500
 452	2.2550e-01	9.0149	21.280558	0.000122	1.218953	0.206496	0.004875
 453	2.2600e-01	9.0378	21.304505	0.000120	1.197568	0.202873	0.004789
 454	2.2650e-01	9.0540	21.360524	0.000280	2.801453	0.474579	0.011204
 455	2.2700e-01	9.0771	21.400721	0.000201	2.010203	0.340538	0.008039
 456	2.2750e-01	9.0955	21.422957	0.000111	1.112027	0.188383	0.004447
 457	2.2800e-01	9.1168	21.456312	0.000167	1.668041	0.282574	0.006671
 458	2.2850e-01	9.1364	21.498219	0.000210	2.095744	0.355029	0.008381
 459	2.2900e-01	9.1534	21.530291	0.000160	1.603885	0.271706	0.006414
 460	2.2950e-01	9.1779	21.564501	0.000171	1.710811	0.289819	0.006842
 461	2.3000e-01	9.1980	21.595718	0.000156	1.561115	0.264460	0.006243
 462	2.3050e-01	9.2163	21.625224	0.000148	1.475575	0.249969	0.005901
 463	2.3100e-01	9.2352	21.685519	0.000302	3.015305	0.510806	0.012059
 464	2.3150e-01	9.2572	21.705618	0.000101	1.005102	0.170269	0.004020
 465	2.3200e-01	9.2761	21.735124	0.000148	1.475575	0.249969	0.005901
 466	2.3250e-01	9.2944	21.788577	0.000267	2.673142	0.452843	0.010691
 467	2.3300e-01	9.3164	21.810386	0.000109	1.090642	0.184760	0.004362
 468	2.3350e-01	9.3402	21.836898	0.000133	1.325879	0.224610	0.005303
 469	2.3400e-01	9.3573	21.856142	0.000096	0.962331	0.163023	0.003849
 470	2.3450e-01	9.3750	21.912161	0.000280	2.801453	0.474579	0.011204
 471	2.3500e-01	9.3951	21.937818	0.000128	1.283108	0.217364	0.005132
 472	2.3550e-01	9.4153	21.992554	0.000274	2.737298	0.463711	0.010947
 473	2.3600e-01	9.4360	22.016501	0.000120	1.197568	0.202873	0.004789
 474	2.3650e-01	9.4543	22.053277	0.000184	1.839122	0.311556	0.007355
 475	2.3700e-01	9.4769	22.073803	0.000103	1.026487	0.173892	0.004105
 476	2.3750e-01	9.4965	22.114427	0.000203	2.031588	0.344160	0.008125
 477	2.3800e-01	9.5154	22.154196	0.000199	1.988818	0.336915	0.007954
 478	2.3850e-01	9.5361	22.208932	0.000274	2.737298	0.463711	0.010947
 479	2.3900e-01	9.5538	22.223472	0.000073	0.727095	0.123173	0.002908
 480	2.3950e-01	9.5746	22.268800	0.000227	2.266825	0.384010	0.009066
 481	2.4000e-01	9.5914	22.313273	0.000222	2.224054	0.376765	0.008895
 482	2.4050e-01	9.6136	22.336365	0.000115	1.154797	0.195628	0.004618
 483	2.4100e-01	9.6344	22.383831	0.000237	2.373750	0.402124	0.009493
 484	2.4150e-01	9.6542	22.401791	0.000090	0.898176	0.152155	0.003592
 485	2.4200e-01	9.6753	22.444982	0.000216	2.159899	0.365897	0.008638
 486	2.4250e-01	9.6948	22.478336	0.000167	1.668041	0.282574	0.006671
 487	2.4300e-01	9.7162	22.490738	0.000062	0.620169	0.105059	0.002480
 488	2.4350e-01	9.7357	22.535638	0.000225	2.245440	0.380388	0.008980
 489	2.4400e-01	9.7559	22.574980	0.000197	1.967433	0.333292	0.007868
 490	2.4450e-01	9.7748	22.595933	0.000105	1.047872	0.177514	0.004191
 491	2.4500e-01	9.7937	22.639551	0.000218	2.181284	0.369520	0.008724
 492	2.4550e-01	9.8151	22.683597	0.000220	2.202669	0.373142	0.008809
 493	2.4600e-01	9.8352	22.707971	0.000122	1.218953	0.206496	0.004875
 494	2.4650e-01	9.8566	22.749878	0.000210	2.095744	0.355029	0.008381
 495	2.4700e-01	9.8743	22.762707	0.000064	0.641554	0.108682	0.002566
 496	2.4750e-01	9.8935	22.808035	0.000227	2.266825	0.384010	0.009066
 497	2.4800e-01	9.9152	22.845239	0.000186	1.860507	0.315178	0.007441
 498	2.4850e-01	9.9365	22.870041	0.000124	1.240338	0.210119	0.004960
 499	2.4900e-01	9.9561	22.908527	0.000192	1.924662	0.326047	0.007697
 500	2.4950e-01	9.9750	22.955566	0.000235	2.352365	0.398501	0.009408
 501	2.5000e-01	9.9951	22.974382	0.000094	0.940946	0.159401	0.003763
 502	2.5050e-01	9.9750	22.963691	0.000053	0.534628	0.090569	-0.002138
 503	2.5100e-01	9.9567	22.946586	0.000086	0.855406	0.144910	-0.003421
 504	2.5150e-01	9.9359	22.919646	0.000135	1.347264	0.228233	-0.005388
 505	2.5200e-01	9.9164	22.911948	0.000038	0.384932	0.065209	-0.001539
 506	2.5250e-01	9.8987	22.880732	0.000156	1.561115	0.264460	-0.006243
 507	2.5300e-01	9.8755	22.865765	0.000075	0.748480	0.126796	-0.002993
 508	2.5350e-01	9.8615	22.834121	0.000158	1.582500	0.268083	-0.006329
 509	2.5400e-01	9.8346	22.799055	0.000175	1.753581	0.297065	-0.007013
 510	2.5450e-01	9.8148	22.784516	0.000073	0.727095	0.123173	-0.002908
 511	2.5500e-01	9.7943	22.769549	0.000075	0.748480	0.126796	-0.002993
 512	2.5550e-01	9.7757	22.735767	0.000169	1.689426	0.286197	-0.006756
 513	2.5600e-01	9.7559	22.718662	0.000086	0.855406	0.144910	-0.003421
 514	2.5650e-01	9.7382	22.681031	0.000188	1.881892	0.318801	-0.007526
 515	2.5700e-01	9.7156	22.656228	0.000124	1.240338	0.210119	-0.004960
 516	2.5750e-01	9.6967	22.651525	0.000024	0.235237	0.039850	-0.000941
 517	2.5800e-01	9.6765	22.606196	0.000227	2.266825	0.384010	-0.009066
 518	2.5850e-01	9.6564	22.609190	-0.000015	-0.149696	-0.025359	0.000599
 519	2.5900e-01	9.6356	22.563861	0.000227	2.266825	0.384010	-0.009066
 520	2.5950e-01	9.6191	22.550605	0.000066	0.662939	0.112305	-0.002651
 521	2.6000e-01	9.5972	22.524948	0.000128	1.283108	0.217364	-0.005132
 522	2.6050e-01	9.5746	22.493303	0.000158	1.582500	0.268083	-0.006329
 523	2.6100e-01	9.5612	22.488599	0.000024	0.235237	0.039850	-0.000941
 524	2.6150e-01	9.5367	22.444126	0.000222	2.224054	0.376765	-0.008895
 525	2.6200e-01	9.5154	22.427021	0.000086	0.855406	0.144910	-0.003421
 526	2.6250e-01	9.4974	22.397515	0.000148	1.475575	0.249969	-0.005901
 527	2.6300e-01	9.4751	22.365871	0.000158	1.582500	0.268083	-0.006329
 528	2.6350e-01	9.4543	22.345345	0.000103	1.026487	0.173892	-0.004105
 529	2.6400e-01	9.4354	22.324391	0.000105	1.047872	0.177514	-0.004191
 530	2.6450e-01	9.4159	22.280773	0.000218	2.181284	0.369520	-0.008724
 531	2.6500e-01	9.3976	22.263241	0.000088	0.876791	0.148532	-0.003507
 532	2.6550e-01	9.3759	22.239721	0.000118	1.176183	0.199251	-0.004704
 533	2.6600e-01	9.3555	22.200380	0.000197	1.967433	0.333292	-0.007868
 534	2.6650e-01	9.3384	22.190972	0.000047	0.470473	0.079700	-0.001882
 535	2.6700e-01	9.3152	22.148210	0.000214	2.138514	0.362274	-0.008553
 536	2.6750e-01	9.2950	22.140085	0.000041	0.406318	0.068832	-0.001625
 537	2.6800e-01	9.2755	22.101171	0.000195	1.946048	0.329669	-0.007783
 538	2.6850e-01	9.2560	22.063112	0.000190	1.903277	0.322424	-0.007612
 539	2.6900e-01	9.2377	22.053277	0.000049	0.491858	0.083323	-0.001967
 540	2.6950e-01	9.2172	22.002389	0.000254	2.544832	0.431106	-0.010177
 541	2.7000e-01	9.1974	21.986995	0.000077	0.769865	0.130419	-0.003079
 542	2.7050e-01	9.1745	21.983574	0.000017	0.171081	0.028982	-0.000684
 543	2.7100e-01	9.1571	21.929693	0.000269	2.694527	0.456465	-0.010776
 544	2.7150e-01	9.1364	21.904036	0.000128	1.283108	0.217364	-0.005132
 545	2.7200e-01	9.1150	21.887358	0.000083	0.834020	0.141287	-0.003335
 546	2.7250e-01	9.0955	21.853576	0.000169	1.689426	0.286197	-0.006756
 547	2.7300e-01	9.0765	21.848444	0.000026	0.256622	0.043473	-0.001026
 548	2.7350e-01	9.0570	21.802688	0.000229	2.288210	0.387633	-0.009151
 549	2.7400e-01	9.0381	21.759071	0.000218	2.181284	0.369520	-0.008724
 550	2.7450e-01	9.0173	21.738972	0.000101	1.005102	0.170269	-0.004020
 551	2.7500e-01	8.9972	21.712032	0.000135	1.347264	0.228233	-0.005388
 552	2.7550e-01	8.9752	21.705190	0.000034	0.342162	0.057964	-0.001368
 553	2.7600e-01	8.9575	21.671835	0.000167	1.668041	0.282574	-0.006671
 554	2.7650e-01	8.9343	21.641901	0.000150	1.496960	0.253592	-0.005987
 555	2.7700e-01	8.9137	21.613250	0.000143	1.432804	0.242724	-0.005730
 556	2.7750e-01	8.8971	21.585882	0.000137	1.368649	0.231855	-0.005474
 557	2.7800e-01	8.8742	21.561508	0.000122	1.218953	0.206496	-0.004875
 558	2.7850e-01	8.8562	21.511476	0.000250	2.502061	0.423861	-0.010006
 559	2.7900e-01	8.8379	21.499930	0.000058	0.577399	0.097814	-0.002309
 560	2.7950e-01	8.8147	21.484535	0.000077	0.769865	0.130419	-0.003079
 561	2.8000e-01	8.7964	21.437496	0.000235	2.352365	0.398501	-0.009408
 562	2.8050e-01	8.7750	21.416115	0.000107	1.069257	0.181137	-0.004276
 563	2.8100e-01	8.7561	21.390458	0.000128	1.283108	0.217364	-0.005132
 564	2.8150e-01	8.7360	21.372497	0.000090	0.898176	0.152155	-0.003592
 565	2.8200e-01	8.7180	21.338715	0.000169	1.689426	0.286197	-0.006756
 566	2.8250e-01	8.6972	21.301939	0.000184	1.839122	0.311556	-0.007355
 567	2.8300e-01	8.6768	21.276709	0.000126	1.261723	0.213742	-0.005046
 568	2.8350e-01	8.6563	21.265163	0.000058	0.577399	0.097814	-0.002309
 569	2.8400e-01	8.6371	21.218980	0.000231	2.309595	0.391256	-0.009237
 570	2.8450e-01	8.6169	21.160395	0.000293	2.929764	0.496315	-0.011717
 571	2.8500e-01	8.5959	21.162533	-0.000011	-0.106926	-0.018114	0.000428
 572	2.8550e-01	8.5760	21.117205	0.000227	2.266825	0.384010	-0.009066
 573	2.8600e-01	8.5577	21.111646	0.000028	0.278007	0.047096	-0.001112
 574	2.8650e-01	8.5364	21.063752	0.000240	2.395136	0.405747	-0.009579
 575	2.8700e-01	8.5187	21.022272	0.000207	2.074358	0.351406	-0.008296
 576	2.8750e-01	8.4967	21.006023	0.000081	0.812635	0.137664	-0.003250
 577	2.8800e-01	8.4753	20.981220	0.000124	1.240338	0.210119	-0.004960
 578	2.8850e-01	8.4546	20.961550	0.000098	0.983716	0.166646	-0.003934
 579	2.8900e-01	8.4363	20.920070	0.000207	2.074358	0.351406	-0.008296
 580	2.8950e-01	8.4174	20.887143	0.000165	1.646656	0.278951	-0.006585
 581	2.9000e-01	8.3966	20.869182	0.000090	0.898176	0.152155	-0.003592
 582	2.9050e-01	8.3759	20.834545	0.000173	1.732196	0.293442	-0.006928
 583	2.9100e-01	8.3563	20.797769	0.000184	1.839122	0.311556	-0.007355
 584	2.9150e-01	8.3356	20.781947	0.000079	0.791250	0.134041	-0.003164
 585	2.9200e-01	8.3179	20.739184	0.000214	2.138514	0.362274	-0.008553
 586	2.9250e-01	8.2947	20.722935	0.000081	0.812635	0.137664	-0.003250
 587	2.9300e-01	8.2751	20.695567	0.000137	1.368649	0.231855	-0.005474
 588	2.9350e-01	8.2574	20.663495	0.000160	1.603885	0.271706	-0.006414
 589	2.9400e-01	8.2373	20.632278	0.000156	1.561115	0.264460	-0.006243
 590	2.9450e-01	8.2169	20.593364	0.000195	1.946048	0.329669	-0.007783
 591	2.9500e-01	8.1970	20.565996	0.000137	1.368649	0.231855	-0.005474
 592	2.9550e-01	8.1775	20.551885	0.000071	0.705710	0.119550	-0.002822
 593	2.9600e-01	8.1586	20.508267	0.000218	2.181284	0.369520	-0.008724
 594	2.9650e-01	8.1396	20.484320	0.000120	1.197568	0.202873	-0.004789
 595	2.9700e-01	8.1158	20.439847	0.000222	2.224054	0.376765	-0.008895
 596	2.9750e-01	8.0975	20.415044	0.000124	1.240338	0.210119	-0.004960
 597	2.9800e-01	8.0750	20.391525	0.000118	1.176183	0.199251	-0.004704
 598	2.9850e-01	8.0573	20.340210	0.000257	2.566217	0.434729	-0.010263
 599	2.9900e-01	8.0377	20.317118	0.000115	1.154797	0.195628	-0.004618
 600	2.9950e-01	8.0177	20.305572	0.000058	0.577399	0.097814	-0.002309
 601	3.0000e-01	7.9950	20.259389	0.000231	2.309595	0.391256	-0.009237
 602	3.0050e-01	7.9785	20.224751	0.000173	1.732196	0.293442	-0.006928
 603	3.0100e-01	7.9553	20.179423	0.000227	2.266825	0.384010	-0.009066
 604	3.0150e-01	7.9352	20.177285	0.000011	0.106926	0.018114	-0.000428
 605	3.0200e-01	7.9160	20.143075	0.000171	1.710811	0.289819	-0.006842
 606	3.0250e-01	7.8973	20.101595	0.000207	2.074358	0.351406	-0.008296
 607	3.0300e-01	7.8754	20.084062	0.000088	0.876791	0.148532	-0.003507
 608	3.0350e-01	7.8555	20.056267	0.000139	1.390034	0.235478	-0.005559
 609	3.0400e-01	7.8363	20.030609	0.000128	1.283108	0.217364	-0.005132
 610	3.0450e-01	7.8156	19.992551	0.000190	1.903277	0.322424	-0.007612
 611	3.0500e-01	7.7972	19.957913	0.000173	1.732196	0.293442	-0.006928
 612	3.0550e-01	7.7753	19.918144	0.000199	1.988818	0.336915	-0.007954
 613	3.0600e-01	7.7563	19.909591	0.000043	0.427703	0.072455	-0.001711
 614	3.0650e-01	7.7359	19.870677	0.000195	1.946048	0.329669	-0.007783
 615	3.0700e-01	7.7173	19.840744	0.000150	1.496960	0.253592	-0.005987
 616	3.0750e-01	7.6978	19.799264	0.000207	2.074358	0.351406	-0.008296
 617	3.0800e-01	7.6758	19.765054	0.000171	1.710811	0.289819	-0.006842
 618	3.0850e-01	7.6556	19.750087	0.000075	0.748480	0.126796	-0.002993
 619	3.0900e-01	7.6379	19.706042	0.000220	2.202669	0.373142	-0.008809
 620	3.0950e-01	7.6141	19.650450	0.000278	2.780068	0.470956	-0.011118
 621	3.1000e-01	7.5983	19.659858	-0.000047	-0.470473	-0.079700	0.001882
 622	3.1050e-01	7.5769	19.611109	0.000244	2.437906	0.412992	-0.009750
 623	3.1100e-01	7.5565	19.602556	0.000043	0.427703	0.072455	-0.001711
 624	3.1150e-01	7.5366	19.542689	0.000299	2.993919	0.507184	-0.011974
 625	3.1200e-01	7.5159	19.502064	0.000203	2.031588	0.344160	-0.008125
 626	3.1250e-01	7.4969	19.480683	0.000107	1.069257	0.181137	-0.004276
 627	3.1300e-01	7.4774	19.443052	0.000188	1.881892	0.318801	-0.007526
 628	3.1350e-01	7.4548	19.421243	0.000109	1.090642	0.184760	-0.004362
 629	3.1400e-01	7.4359	19.390454	0.000154	1.539730	0.260837	-0.006158
 630	3.1450e-01	7.4170	19.354961	0.000177	1.774967	0.300687	-0.007099
 631	3.1500e-01	7.3981	19.325455	0.000148	1.475575	0.249969	-0.005901
 632	3.1550e-01	7.3776	19.280982	0.000222	2.224054	0.376765	-0.008895
 633	3.1600e-01	7.3584	19.254042	0.000135	1.347264	0.228233	-0.005388
 634	3.1650e-01	7.3376	19.212135	0.000210	2.095744	0.355029	-0.008381
 635	3.1700e-01	7.3157	19.184339	0.000139	1.390034	0.235478	-0.005559
 636	3.1750e-01	7.2949	19.175786	0.000043	0.427703	0.072455	-0.001711
 637	3.1800e-01	7.2766	19.124471	0.000257	2.566217	0.434729	-0.010263
 638	3.1850e-01	7.2583	19.098814	0.000128	1.283108	0.217364	-0.005132
 639	3.1900e-01	7.2363	19.068452	0.000152	1.518345	0.257215	-0.006072
 640	3.1950e-01	7.2189	19.018420	0.000250	2.502061	0.423861	-0.010006
 641	3.2000e-01	7.1948	18.977368	0.000205	2.052973	0.347783	-0.008210
 642	3.2050e-01	7.1738	18.968816	0.000043	0.427703	0.072455	-0.001711
 643	3.2100e-01	7.1561	18.922205	0.000233	2.330980	0.394879	-0.009322
 644	3.2150e-01	7.1375	18.892698	0.000148	1.475575	0.249969	-0.005901
 645	3.2200e-01	7.1179	18.861054	0.000158	1.582500	0.268083	-0.006329
 646	3.2250e-01	7.0947	18.835397	0.000128	1.283108	0.217364	-0.005132
 647	3.2300e-01	7.0746	18.783226	0.000261	2.608987	0.441974	-0.010434
 648	3.2350e-01	7.0587	18.757141	0.000130	1.304493	0.220987	-0.005217
 649	3.2400e-01	7.0383	18.714806	0.000212	2.117129	0.358651	-0.008467
 650	3.2450e-01	7.0169	18.675892	0.000195	1.946048	0.329669	-0.007783
 651	3.2500e-01	6.9971	18.638261	0.000188	1.881892	0.318801	-0.007526
 652	3.2550e-01	6.9763	18.626716	0.000058	0.577399	0.097814	-0.002309
 653	3.2600e-01	6.9571	18.595927	0.000154	1.539730	0.260837	-0.006158
 654	3.2650e-01	6.9360	18.554019	0.000210	2.095744	0.355029	-0.008381
 655	3.2700e-01	6.9165	18.554447	-0.000002	-0.021385	-0.003623	0.000086
 656	3.2750e-01	6.8958	18.498000	0.000282	2.822838	0.478202	-0.011289
 657	3.2800e-01	6.8765	18.480895	0.000086	0.855406	0.144910	-0.003421
 658	3.2850e-01	6.8567	18.428725	0.000261	2.608987	0.441974	-0.010434
 659	3.2900e-01	6.8390	18.382541	0.000231	2.309595	0.391256	-0.009237
 660	3.2950e-01	6.8158	18.350470	0.000160	1.603885	0.271706	-0.006414
 661	3.3000e-01	6.7972	18.328661	0.000109	1.090642	0.184760	-0.004362
 662	3.3050e-01	6.7761	18.281194	0.000237	2.373750	0.402124	-0.009493
 663	3.3100e-01	6.7566	18.246984	0.000171	1.710811	0.289819	-0.006842
 664	3.3150e-01	6.7358	18.220044	0.000135	1.347264	0.228233	-0.005388
 665	3.3200e-01	6.7166	18.170867	0.000246	2.459291	0.416615	-0.009835
 666	3.3250e-01	6.6971	18.149058	0.000109	1.090642	0.184760	-0.004362
 667	3.3300e-01	6.6766	18.125539	0.000118	1.176183	0.199251	-0.004704
 668	3.3350e-01	6.6547	18.085342	0.000201	2.010203	0.340538	-0.008039
 669	3.3400e-01	6.6351	18.060540	0.000124	1.240338	0.210119	-0.004960
 670	3.3450e-01	6.6180	18.018205	0.000212	2.117129	0.358651	-0.008467
 671	3.3500e-01	6.5997	17.969883	0.000242	2.416521	0.409370	-0.009664
 672	3.3550e-01	6.5735	17.950640	0.000096	0.962331	0.163023	-0.003849
 673	3.3600e-01	6.5579	17.901035	0.000248	2.480676	0.420238	-0.009921
 674	3.3650e-01	6.5358	17.877944	0.000115	1.154797	0.195628	-0.004618
 675	3.3700e-01	6.5161	17.851859	0.000130	1.304493	0.220987	-0.005217
 676	3.3750e-01	6.4954	17.804820	0.000235	2.352365	0.398501	-0.009408
 677	3.3800e-01	6.4777	17.768899	0.000180	1.796352	0.304310	-0.007184
 678	3.3850e-01	6.4554	17.741104	0.000139	1.390034	0.235478	-0.005559
 679	3.3900e-01	6.4355	17.683374	0.000289	2.886994	0.489070	-0.011546
 680	3.3950e-01	6.4160	17.673111	0.000051	0.513243	0.086946	-0.002053
 681	3.4000e-01	6.3977	17.643605	0.000148	1.475575	0.249969	-0.005901
 682	3.4050e-01	6.3766	17.601698	0.000210	2.095744	0.355029	-0.008381
 683	3.4100e-01	6.3557	17.567060	0.000173	1.732196	0.293442	-0.006928
 684	3.4150e-01	6.3361	17.525153	0.000210	2.095744	0.355029	-0.008381
 685	3.4200e-01	6.3171	17.510614	0.000073	0.727095	0.123173	-0.002908
 686	3.4250e-01	6.2976	17.458016	0.000263	2.630372	0.445597	-0.010520
 687	3.4300e-01	6.2769	17.425944	0.000160	1.603885	0.271706	-0.006414
 688	3.4350e-01	6.2579	17.384036	0.000210	2.095744	0.355029	-0.008381
 689	3.4400e-01	6.2390	17.339136	0.000225	2.245440	0.380388	-0.008980
 690	3.4450e-01	6.2164	17.308774	0.000152	1.518345	0.257215	-0.006072
 691	3.4500e-01	6.1961	17.294235	0.000073	0.727095	0.123173	-0.002908
 692	3.4550e-01	6.1758	17.232230	0.000310	3.100845	0.525297	-0.012401
 693	3.4600e-01	6.1578	17.214269	0.000090	0.898176	0.152155	-0.003592
 694	3.4650e-01	6.1401	17.162099	0.000261	2.608987	0.441974	-0.010434
 695	3.4700e-01	6.1176	17.130027	0.000160	1.603885	0.271706	-0.006414
 696	3.4750e-01	6.0959	17.080423	0.000248	2.480676	0.420238	-0.009921
 697	3.4800e-01	6.0791	17.058614	0.000109	1.090642	0.184760	-0.004362
 698	3.4850e-01	6.0571	17.012858	0.000229	2.288210	0.387633	-0.009151
 699	3.4900e-01	6.0358	16.977365	0.000177	1.774967	0.300687	-0.007099
 700	3.4950e-01	6.0178	16.944010	0.000167	1.668041	0.282574	-0.006671
 701	3.5000e-01	5.9985	16.911938	0.000160	1.603885	0.271706	-0.006414
 702	3.5050e-01	5.9784	16.873880	0.000190	1.903277	0.322424	-0.007612
 703	3.5100e-01	5.9570	16.827696	0.000231	2.309595	0.391256	-0.009237
 704	3.5150e-01	5.9369	16.808880	0.000094	0.940946	0.159401	-0.003763
 705	3.5200e-01	5.9186	16.758848	0.000250	2.502061	0.423861	-0.010006
 706	3.5250e-01	5.8954	16.727632	0.000156	1.561115	0.264460	-0.006243
 707	3.5300e-01	5.8765	16.673323	0.000272	2.715913	0.460088	-0.010862
 708	3.5350e-01	5.8575	16.646383	0.000135	1.347264	0.228233	-0.005388
 709	3.5400e-01	5.8374	16.606186	0.000201	2.010203	0.340538	-0.008039
 710	3.5450e-01	5.8139	16.582239	0.000120	1.197568	0.202873	-0.004789
 711	3.5500e-01	5.7944	16.561285	0.000105	1.047872	0.177514	-0.004191
 712	3.5550e-01	5.7758	16.526648	0.000173	1.732196	0.293442	-0.006928
 713	3.5600e-01	5.7581	16.475333	0.000257	2.566217	0.434729	-0.010263
 714	3.5650e-01	5.7388	16.422307	0.000265	2.651757	0.449220	-0.010605
 715	3.5700e-01	5.7178	16.387670	0.000173	1.732196	0.293442	-0.006928
 716	3.5750e-01	5.6964	16.356025	0.000158	1.582500	0.268083	-0.006329
 717	3.5800e-01	5.6781	16.331223	0.000124	1.240338	0.210119	-0.004960
 718	3.5850e-01	5.6573	16.288888	0.000212	2.117129	0.358651	-0.008467
 719	3.5900e-01	5.6351	16.255533	0.000167	1.668041	0.282574	-0.006671
 720	3.5950e-01	5.6168	16.193955	0.000308	3.079460	0.521675	-0.012316
 721	3.6000e-01	5.5966	16.161028	0.000165	1.646656	0.278951	-0.006585
 722	3.6050e-01	5.5750	16.126818	0.000171	1.710811	0.289819	-0.006842
 723	3.6100e-01	5.5563	16.074648	0.000261	2.608987	0.441974	-0.010434
 724	3.6150e-01	5.5353	16.053267	0.000107	1.069257	0.181137	-0.004276
 725	3.6200e-01	5.5188	16.015636	0.000188	1.881892	0.318801	-0.007526
 726	3.6250e-01	5.4971	15.972873	0.000214	2.138514	0.362274	-0.008553
 727	3.6300e-01	5.4749	15.937808	0.000175	1.753581	0.297065	-0.007013
 728	3.6350e-01	5.4578	15.896756	0.000205	2.052973	0.347783	-0.008210
 729	3.6400e-01	5.4364	15.863401	0.000167	1.668041	0.282574	-0.006671
 730	3.6450e-01	5.4150	15.813369	0.000250	2.502061	0.423861	-0.010006
 731	3.6500e-01	5.3961	15.781297	0.000160	1.603885	0.271706	-0.006414
 732	3.6550e-01	5.3735	15.756922	0.000122	1.218953	0.206496	-0.004875
 733	3.6600e-01	5.3564	15.704324	0.000263	2.630372	0.445597	-0.010520
 734	3.6650e-01	5.3387	15.653437	0.000254	2.544832	0.431106	-0.010177
 735	3.6700e-01	5.3192	15.611102	0.000212	2.117129	0.358651	-0.008467
 736	3.6750e-01	5.2972	15.561925	0.000246	2.459291	0.416615	-0.009835
 737	3.6800e-01	5.2759	15.542682	0.000096	0.962331	0.163023	-0.003849
 738	3.6850e-01	5.2563	15.514031	0.000143	1.432804	0.242724	-0.005730
 739	3.6900e-01	5.2350	15.466992	0.000235	2.352365	0.398501	-0.009408
 740	3.6950e-01	5.2148	15.426796	0.000201	2.010203	0.340538	-0.008039
 741	3.7000e-01	5.1965	15.383178	0.000218	2.181284	0.369520	-0.008724
 742	3.7050e-01	5.1785	15.354527	0.000143	1.432804	0.242724	-0.005730
 743	3.7100e-01	5.1566	15.322027	0.000163	1.625271	0.275328	-0.006500
 744	3.7150e-01	5.1370	15.269002	0.000265	2.651757	0.449220	-0.010605
 745	3.7200e-01	5.1178	15.218114	0.000254	2.544832	0.431106	-0.010177
 746	3.7250e-01	5.0958	15.184332	0.000169	1.689426	0.286197	-0.006756
 747	3.7300e-01	5.0764	15.144135	0.000201	2.010203	0.340538	-0.008039
 748	3.7350e-01	5.0555	15.108642	0.000177	1.774967	0.300687	-0.007099
 749	3.7400e-01	5.0351	15.108215	0.000002	0.021385	0.003623	-0.000086
 750	3.7450e-01	5.0189	15.029959	0.000391	3.913480	0.662962	-0.015651
 751	3.7500e-01	4.9945	14.989335	0.000203	2.031588	0.344160	-0.008125
 752	3.7550e-01	4.9753	14.959401	0.000150	1.496960	0.253592	-0.005987
 753	3.7600e-01	4.9580	14.911507	0.000240	2.395136	0.405747	-0.009579
 754	3.7650e-01	4.9335	14.889698	0.000109	1.090642	0.184760	-0.004362
 755	3.7700e-01	4.9170	14.820851	0.000344	3.443007	0.583261	-0.013770
 756	3.7750e-01	4.8962	14.799042	0.000109	1.090642	0.184760	-0.004362
 757	3.7800e-01	4.8755	14.753286	0.000229	2.288210	0.387633	-0.009151
 758	3.7850e-01	4.8575	14.713089	0.000201	2.010203	0.340538	-0.008039
 759	3.7900e-01	4.8346	14.662202	0.000254	2.544832	0.431106	-0.010177
 760	3.7950e-01	4.8157	14.646379	0.000079	0.791250	0.134041	-0.003164
 761	3.8000e-01	4.7971	14.566414	0.000400	3.999021	0.677452	-0.015993
 762	3.8050e-01	4.7763	14.525362	0.000205	2.052973	0.347783	-0.008210
 763	3.8100e-01	4.7548	14.495855	0.000148	1.475575	0.249969	-0.005901
 764	3.8150e-01	4.7357	14.446678	0.000246	2.459291	0.416615	-0.009835
 765	3.8200e-01	4.7150	14.432994	0.000068	0.684324	0.115928	-0.002737
 766	3.8250e-01	4.6957	14.381679	0.000257	2.566217	0.434729	-0.010263
 767	3.8300e-01	4.6754	14.323095	0.000293	2.929764	0.496315	-0.011717
 768	3.8350e-01	4.6546	14.285464	0.000188	1.881892	0.318801	-0.007526
 769	3.8400e-01	4.6362	14.259379	0.000130	1.304493	0.220987	-0.005217
 770	3.8450e-01	4.6179	14.211485	0.000240	2.395136	0.405747	-0.009579
 771	3.8500e-01	4.5950	14.163591	0.000240	2.395136	0.405747	-0.009579
 772	3.8550e-01	4.5758	14.128098	0.000177	1.774967	0.300687	-0.007099
 773	3.8600e-01	4.5581	14.107999	0.000101	1.005102	0.170269	-0.004020
 774	3.8650e-01	4.5361	14.009218	0.000494	4.939967	0.836853	-0.019756
 775	3.8700e-01	4.5139	14.012211	-0.000015	-0.149696	-0.025359	0.000599
 776	3.8750e-01	4.4934	13.961751	0.000252	2.523446	0.427483	-0.010092
 777	3.8800e-01	4.4769	13.920272	0.000207	2.074358	0.351406	-0.008296
 778	3.8850e-01	4.4565	13.876654	0.000218	2.181284	0.369520	-0.008724
 779	3.8900e-01	4.4324	13.813365	0.000317	3.165001	0.536166	-0.012658
 780	3.8950e-01	4.4153	13.792412	0.000105	1.047872	0.177514	-0.004191
 781	3.9000e-01	4.3935	13.747084	0.000227	2.266825	0.384010	-0.009066
 782	3.9050e-01	4.3747	13.698762	0.000242	2.416521	0.409370	-0.009664
 783	3.9100e-01	4.3561	13.658137	0.000203	2.031588	0.344160	-0.008125
 784	3.9150e-01	4.3350	13.619651	0.000192	1.924662	0.326047	-0.007697
 785	3.9200e-01	4.3176	13.569191	0.000252	2.523446	0.427483	-0.010092
 786	3.9250e-01	4.2947	13.512317	0.000284	2.844223	0.481824	-0.011375
 787	3.9300e-01	4.2737	13.499916	0.000062	0.620169	0.105059	-0.002480
 788	3.9350e-01	4.2575	13.431496	0.000342	3.421622	0.579638	-0.013684
 789	3.9400e-01	4.2340	13.393865	0.000188	1.881892	0.318801	-0.007526
 790	3.9450e-01	4.2140	13.348537	0.000227	2.266825	0.384010	-0.009066
 791	3.9500e-01	4.1937	13.324590	0.000120	1.197568	0.202873	-0.004789
 792	3.9550e-01	4.1739	13.277123	0.000237	2.373750	0.402124	-0.009493
 793	3.9600e-01	4.1583	13.221104	0.000280	2.801453	0.474579	-0.011204
 794	3.9650e-01	4.1357	13.168079	0.000265	2.651757	0.449220	-0.010605
 795	3.9700e-01	4.1145	13.139856	0.000141	1.411419	0.239101	-0.005645
 796	3.9750e-01	4.0955	13.097521	0.000212	2.117129	0.358651	-0.008467
 797	3.9800e-01	4.0761	13.054758	0.000214	2.138514	0.362274	-0.008553
 798	3.9850e-01	4.0590	13.001305	0.000267	2.673142	0.452843	-0.010691
 799	3.9900e-01	4.0350	12.952128	0.000246	2.459291	0.416615	-0.009835
 800	3.9950e-01	4.0173	12.905517	0.000233	2.330980	0.394879	-0.009322
 801	4.0000e-01	3.9981	12.867886	0.000188	1.881892	0.318801	-0.007526
 802	4.0050e-01	3.9731	12.811012	0.000284	2.844223	0.481824	-0.011375
 803	4.0100e-01	3.9557	12.781078	0.000150	1.496960	0.253592	-0.005987
 804	4.0150e-01	3.9343	12.749861	0.000156	1.561115	0.264460	-0.006243
 805	4.0200e-01	3.9148	12.703250	0.000233	2.330980	0.394879	-0.009322
 806	4.0250e-01	3.8962	12.642955	0.000302	3.015305	0.510806	-0.012059
 807	4.0300e-01	3.8751	12.605324	0.000188	1.881892	0.318801	-0.007526
 808	4.0350e-01	3.8553	12.559568	0.000229	2.288210	0.387633	-0.009151
 809	4.0400e-01	3.8362	12.521082	0.000192	1.924662	0.326047	-0.007697
 810	4.0450e-01	3.8167	12.459931	0.000306	3.058075	0.518052	-0.012230
 811	4.0500e-01	3.7958	12.427860	0.000160	1.603885	0.271706	-0.006414
 812	4.0550e-01	3.7747	12.390229	0.000188	1.881892	0.318801	-0.007526
 813	4.0600e-01	3.7567	12.342762	0.000237	2.373750	0.402124	-0.009493
 814	4.0650e-01	3.7346	12.297861	0.000225	2.245440	0.380388	-0.008980
 815	4.0700e-01	3.7155	12.239277	0.000293	2.929764	0.496315	-0.011717
 816	4.0750e-01	3.7001	12.201646	0.000188	1.881892	0.318801	-0.007526
 817	4.0800e-01	3.6713	12.141351	0.000302	3.015305	0.510806	-0.012059
 818	4.0850e-01	3.6542	12.100299	0.000205	2.052973	0.347783	-0.008210
 819	4.0900e-01	3.6369	12.057536	0.000214	2.138514	0.362274	-0.008553
 820	4.0950e-01	3.6153	12.010497	0.000235	2.352365	0.398501	-0.009408
 821	4.1000e-01	3.5962	11.964314	0.000231	2.309595	0.391256	-0.009237
 822	4.1050e-01	3.5751	11.915137	0.000246	2.459291	0.416615	-0.009835
 823	4.1100e-01	3.5597	11.872802	0.000212	2.117129	0.358651	-0.008467
 824	4.1150e-01	3.5388	11.829612	0.000216	2.159899	0.365897	-0.008638
 825	4.1200e-01	3.5147	11.763757	0.000329	3.293311	0.557902	-0.013171
 826	4.1250e-01	3.4958	11.702179	0.000308	3.079460	0.521675	-0.012316
 827	4.1300e-01	3.4741	11.683792	0.000092	0.919561	0.155778	-0.003678
 828	4.1350e-01	3.4544	11.637180	0.000233	2.330980	0.394879	-0.009322
 829	4.1400e-01	3.4351	11.583300	0.000269	2.694527	0.456465	-0.010776
 830	4.1450e-01	3.4155	11.526853	0.000282	2.822838	0.478202	-0.011289
 831	4.1500e-01	3.3960	11.506755	0.000101	1.005102	0.170269	-0.004020
 832	4.1550e-01	3.3752	11.451591	0.000276	2.758683	0.467334	-0.011033
 833	4.1600e-01	3.3548	11.413105	0.000192	1.924662	0.326047	-0.007697
 834	4.1650e-01	3.3340	11.334849	0.000391	3.913480	0.662962	-0.015651
 835	4.1700e-01	3.3161	11.305343	0.000148	1.475575	0.249969	-0.005901
 836	4.1750e-01	3.2962	11.264291	0.000205	2.052973	0.347783	-0.008210
 837	4.1800e-01	3.2764	11.192450	0.000359	3.592703	0.608620	-0.014368
 838	4.1850e-01	3.2556	11.184325	0.000041	0.406318	0.068832	-0.001625
 839	4.1900e-01	3.2352	11.112484	0.000359	3.592703	0.608620	-0.014368
 840	4.1950e-01	3.2147	11.062452	0.000250	2.502061	0.423861	-0.010006
 841	4.2000e-01	3.1940	11.020545	0.000210	2.095744	0.355029	-0.008381
 842	4.2050e-01	3.1772	10.977782	0.000214	2.138514	0.362274	-0.008553
 843	4.2100e-01	3.1543	10.900810	0.000385	3.849325	0.652093	-0.015395
 844	4.2150e-01	3.1360	10.886698	0.000071	0.705710	0.119550	-0.002822
 845	4.2200e-01	3.1155	10.815712	0.000355	3.549933	0.601375	-0.014197
 846	4.2250e-01	3.0962	10.769529	0.000231	2.309595	0.391256	-0.009237
 847	4.2300e-01	3.0775	10.725056	0.000222	2.224054	0.376765	-0.008895
 848	4.2350e-01	3.0557	10.664333	0.000304	3.036690	0.514429	-0.012145
 849	4.2400e-01	3.0353	10.644235	0.000101	1.005102	0.170269	-0.004020
 850	4.2450e-01	3.0150	10.587360	0.000284	2.844223	0.481824	-0.011375
 851	4.2500e-01	2.9984	10.535190	0.000261	2.608987	0.441974	-0.010434
 852	4.2550e-01	2.9755	10.470619	0.000323	3.229156	0.547034	-0.012914
 853	4.2600e-01	2.9562	10.440685	0.000150	1.496960	0.253592	-0.005987
 854	4.2650e-01	2.9343	10.381673	0.000295	2.951149	0.499938	-0.011802
 855	4.2700e-01	2.9147	10.325654	0.000280	2.801453	0.474579	-0.011204
 856	4.2750e-01	2.8958	10.292299	0.000167	1.668041	0.282574	-0.006671
 857	4.2800e-01	2.8772	10.224734	0.000338	3.378852	0.572393	-0.013513
 858	4.2850e-01	2.8577	10.193090	0.000158	1.582500	0.268083	-0.006329
 859	4.2900e-01	2.8351	10.144768	0.000242	2.416521	0.409370	-0.009664
 860	4.2950e-01	2.8159	10.092598	0.000261	2.608987	0.441974	-0.010434
 861	4.3000e-01	2.7945	10.035296	0.000287	2.865609	0.485447	-0.011460
 862	4.3050e-01	2.7780	9.977994	0.000287	2.865609	0.485447	-0.011460
 863	4.3100e-01	2.7563	9.939936	0.000190	1.903277	0.322424	-0.007612
 864	4.3150e-01	2.7347	9.890331	0.000248	2.480676	0.420238	-0.009921
 865	4.3200e-01	2.7152	9.834312	0.000280	2.801453	0.474579	-0.011204
 866	4.3250e-01	2.6958	9.788556	0.000229	2.288210	0.387633	-0.009151
 867	4.3300e-01	2.6741	9.730399	0.000291	2.908379	0.492693	-0.011631
 868	4.3350e-01	2.6578	9.677801	0.000263	2.630372	0.445597	-0.010520
 869	4.3400e-01	2.6351	9.610664	0.000336	3.357467	0.568770	-0.013427
 870	4.3450e-01	2.6129	9.575599	0.000175	1.753581	0.297065	-0.007013
 871	4.3500e-01	2.5966	9.535830	0.000199	1.988818	0.336915	-0.007954
 872	4.3550e-01	2.5754	9.481094	0.000274	2.737298	0.463711	-0.010947
 873	4.3600e-01	2.5546	9.432344	0.000244	2.437906	0.412992	-0.009750
 874	4.3650e-01	2.5360	9.359221	0.000366	3.656859	0.619489	-0.014625
 875	4.3700e-01	2.5153	9.340833	0.000092	0.919561	0.155778	-0.003678
 876	4.3750e-01	2.4979	9.275406	0.000327	3.271926	0.554279	-0.013085
 877	4.3800e-01	2.4757	9.209124	0.000331	3.314696	0.561525	-0.013256
 878	4.3850e-01	2.4551	9.159947	0.000246	2.459291	0.416615	-0.009835
 879	4.3900e-01	2.4330	9.124882	0.000175	1.753581	0.297065	-0.007013
 880	4.3950e-01	2.4165	9.076560	0.000242	2.416521	0.409370	-0.009664
 881	4.4000e-01	2.3943	9.033798	0.000214	2.138514	0.362274	-0.008553
 882	4.4050e-01	2.3723	8.965378	0.000342	3.421622	0.579638	-0.013684
 883	4.4100e-01	2.3554	8.911069	0.000272	2.715913	0.460088	-0.010862
 884	4.4150e-01	2.3356	8.856761	0.000272	2.715913	0.460088	-0.010862
 885	4.4200e-01	2.3145	8.808439	0.000242	2.416521	0.409370	-0.009664
 886	4.4250e-01	2.2951	8.761400	0.000235	2.352365	0.398501	-0.009408
 887	4.4300e-01	2.2740	8.730611	0.000154	1.539730	0.260837	-0.006158
 888	4.4350e-01	2.2538	8.661764	0.000344	3.443007	0.583261	-0.013770
 889	4.4400e-01	2.2357	8.605317	0.000282	2.822838	0.478202	-0.011289
 890	4.4450e-01	2.2157	8.542884	0.000312	3.122230	0.528920	-0.012487
 891	4.4500e-01	2.1919	8.501404	0.000207	2.074358	0.351406	-0.008296
 892	4.4550e-01	2.1756	8.444958	0.000282	2.822838	0.478202	-0.011289
 893	4.4600e-01	2.1562	8.388084	0.000284	2.844223	0.481824	-0.011375
 894	4.4650e-01	2.1357	8.331209	0.000284	2.844223	0.481824	-0.011375
 895	4.4700e-01	2.1133	8.278612	0.000263	2.630372	0.445597	-0.010520
 896	4.4750e-01	2.0948	8.222593	0.000280	2.801453	0.474579	-0.011204
 897	4.4800e-01	2.0738	8.171278	0.000257	2.566217	0.434729	-0.010263
 898	4.4850e-01	2.0569	8.121245	0.000250	2.502061	0.423861	-0.010006
 899	4.4900e-01	2.0340	8.064371	0.000284	2.844223	0.481824	-0.011375
 900	4.4950e-01	2.0154	8.021181	0.000216	2.159899	0.365897	-0.008638
 901	4.5000e-01	1.9948	7.973287	0.000240	2.395136	0.405747	-0.009579
 902	4.5050e-01	1.9769	7.903584	0.000349	3.485778	0.590507	-0.013941
 903	4.5100e-01	1.9534	7.855690	0.000240	2.395136	0.405747	-0.009579
 904	4.5150e-01	1.9363	7.812500	0.000216	2.159899	0.365897	-0.008638
 905	4.5200e-01	1.9148	7.744080	0.000342	3.421622	0.579638	-0.013684
 906	4.5250e-01	1.8936	7.691482	0.000263	2.630372	0.445597	-0.010520
 907	4.5300e-01	1.8751	7.644871	0.000233	2.330980	0.394879	-0.009322
 908	4.5350e-01	1.8546	7.570464	0.000372	3.721014	0.630357	-0.014881
 909	4.5400e-01	1.8347	7.514873	0.000278	2.780068	0.470956	-0.011118
 910	4.5450e-01	1.8164	7.455860	0.000295	2.951149	0.499938	-0.011802
 911	4.5500e-01	1.7947	7.418229	0.000188	1.881892	0.318801	-0.007526
 912	4.5550e-01	1.7737	7.367770	0.000252	2.523446	0.427483	-0.010092
 913	4.5600e-01	1.7517	7.323297	0.000222	2.224054	0.376765	-0.008895
 914	4.5650e-01	1.7348	7.251883	0.000357	3.571318	0.604998	-0.014283
 915	4.5700e-01	1.7126	7.205700	0.000231	2.309595	0.391256	-0.009237
 916	4.5750e-01	1.6920	7.159089	0.000233	2.330980	0.394879	-0.009322
 917	4.5800e-01	1.6743	7.086392	0.000364	3.635474	0.615866	-0.014539
 918	4.5850e-01	1.6544	7.026952	0.000297	2.972534	0.503561	-0.011888
 919	4.5900e-01	1.6354	6.973499	0.000267	2.673142	0.452843	-0.010691
 920	4.5950e-01	1.6164	6.921329	0.000261	2.608987	0.441974	-0.010434
 921	4.6000e-01	1.5974	6.873435	0.000240	2.395136	0.405747	-0.009579
 922	4.6050e-01	1.5739	6.808863	0.000323	3.229156	0.547034	-0.012914
 923	4.6100e-01	1.5564	6.767384	0.000207	2.074358	0.351406	-0.008296
 924	4.6150e-01	1.5353	6.695115	0.000361	3.614088	0.612243	-0.014454
 925	4.6200e-01	1.5173	6.627978	0.000336	3.357467	0.568770	-0.013427
 926	4.6250e-01	1.4957	6.598472	0.000148	1.475575	0.249969	-0.005901
 927	4.6300e-01	1.4745	6.540742	0.000289	2.886994	0.489070	-0.011546
 928	4.6350e-01	1.4552	6.470184	0.000353	3.528548	0.597752	-0.014112
 929	4.6400e-01	1.4388	6.412882	0.000287	2.865609	0.485447	-0.011460
 930	4.6450e-01	1.4166	6.367554	0.000227	2.266825	0.384010	-0.009066
 931	4.6500e-01	1.3928	6.305548	0.000310	3.100845	0.525297	-0.012401
 932	4.6550e-01	1.3724	6.250385	0.000276	2.758683	0.467334	-0.011033
 933	4.6600e-01	1.3544	6.170419	0.000400	3.999021	0.677452	-0.015993
 934	4.6650e-01	1.3335	6.164860	0.000028	0.278007	0.047096	-0.001112
 935	4.6700e-01	1.3162	6.076769	0.000441	4.405339	0.746285	-0.017618
 936	4.6750e-01	1.2920	6.027592	0.000246	2.459291	0.416615	-0.009835
 937	4.6800e-01	1.2752	5.982264	0.000227	2.266825	0.384010	-0.009066
 938	4.6850e-01	1.2537	5.921969	0.000302	3.015305	0.510806	-0.012059
 939	4.6900e-01	1.2354	5.865522	0.000282	2.822838	0.478202	-0.011289
 940	4.6950e-01	1.2138	5.809931	0.000278	2.780068	0.470956	-0.011118
 941	4.7000e-01	1.1963	5.729110	0.000404	4.041791	0.684698	-0.016164
 942	4.7050e-01	1.1756	5.692334	0.000184	1.839122	0.311556	-0.007355
 943	4.7100e-01	1.1543	5.630328	0.000310	3.100845	0.525297	-0.012401
 944	4.7150e-01	1.1343	5.576875	0.000267	2.673142	0.452843	-0.010691
 945	4.7200e-01	1.1144	5.525132	0.000259	2.587602	0.438352	-0.010349
 946	4.7250e-01	1.0971	5.455857	0.000346	3.464392	0.586884	-0.013855
 947	4.7300e-01	1.0783	5.384444	0.000357	3.571318	0.604998	-0.014283
 948	4.7350e-01	1.0553	5.323721	0.000304	3.036690	0.514429	-0.012145
 949	4.7400e-01	1.0367	5.261288	0.000312	3.122230	0.528920	-0.012487
 950	4.7450e-01	1.0178	5.222374	0.000195	1.946048	0.329669	-0.007783
 951	4.7500e-01	0.9955	5.157375	0.000325	3.250541	0.550657	-0.013000
 952	4.7550e-01	0.9763	5.108625	0.000244	2.437906	0.412992	-0.009750
 953	4.7600e-01	0.9566	5.047475	0.000306	3.058075	0.518052	-0.012230
 954	4.7650e-01	0.9343	4.987607	0.000299	2.993919	0.507184	-0.011974
 955	4.7700e-01	0.9174	4.928167	0.000297	2.972534	0.503561	-0.011888
 956	4.7750e-01	0.8975	4.849057	0.000396	3.956251	0.670207	-0.015822
 957	4.7800e-01	0.8740	4.812709	0.000182	1.817737	0.307933	-0.007270
 958	4.7850e-01	0.8542	4.769091	0.000218	2.181284	0.369520	-0.008724
 959	4.7900e-01	0.8335	4.697250	0.000359	3.592703	0.608620	-0.014368
 960	4.7950e-01	0.8160	4.635672	0.000308	3.079460	0.521675	-0.012316
 961	4.8000e-01	0.7973	4.576232	0.000297	2.972534	0.503561	-0.011888
 962	4.8050e-01	0.7739	4.511233	0.000325	3.250541	0.550657	-0.013000
 963	4.8100e-01	0.7578	4.447944	0.000317	3.165001	0.536166	-0.012658
 964	4.8150e-01	0.7350	4.390215	0.000289	2.886994	0.489070	-0.011546
 965	4.8200e-01	0.7162	4.339327	0.000254	2.544832	0.431106	-0.010177
 966	4.8250e-01	0.6960	4.280743	0.000293	2.929764	0.496315	-0.011717
 967	4.8300e-01	0.6733	4.218737	0.000310	3.100845	0.525297	-0.012401
 968	4.8350e-01	0.6560	4.139626	0.000396	3.956251	0.670207	-0.015822
 969	4.8400e-01	0.6361	4.097719	0.000210	2.095744	0.355029	-0.008381
 970	4.8450e-01	0.6160	4.040417	0.000287	2.865609	0.485447	-0.011460
 971	4.8500e-01	0.5947	3.969004	0.000357	3.571318	0.604998	-0.014283
 972	4.8550e-01	0.5727	3.931373	0.000188	1.881892	0.318801	-0.007526
 973	4.8600e-01	0.5527	3.844137	0.000436	4.362568	0.739039	-0.017447
 974	4.8650e-01	0.5323	3.798382	0.000229	2.288210	0.387633	-0.009151
 975	4.8700e-01	0.5167	3.729961	0.000342	3.421622	0.579638	-0.013684
 976	4.8750e-01	0.4947	3.694041	0.000180	1.796352	0.304310	-0.007184
 977	4.8800e-01	0.4749	3.616213	0.000389	3.892095	0.659339	-0.015566
 978	4.8850e-01	0.4550	3.559767	0.000282	2.822838	0.478202	-0.011289
 979	4.8900e-01	0.4347	3.503748	0.000280	2.801453	0.474579	-0.011204
 980	4.8950e-01	0.4159	3.442170	0.000308	3.079460	0.521675	-0.012316
 981	4.9000e-01	0.3958	3.385295	0.000284	2.844223	0.481824	-0.011375
 982	4.9050e-01	0.3773	3.328849	0.000282	2.822838	0.478202	-0.011289
 983	4.9100e-01	0.3546	3.257008	0.000359	3.592703	0.608620	-0.014368
 984	4.9150e-01	0.3347	3.193719	0.000317	3.165001	0.536166	-0.012658
 985	4.9200e-01	0.3182	3.127010	0.000334	3.336082	0.565148	-0.013342
 986	4.9250e-01	0.2953	3.083392	0.000218	2.181284	0.369520	-0.008724
 987	4.9300e-01	0.2742	3.024807	0.000293	2.929764	0.496315	-0.011717
 988	4.9350e-01	0.2551	2.961519	0.000317	3.165001	0.536166	-0.012658
 989	4.9400e-01	0.2335	2.906783	0.000274	2.737298	0.463711	-0.010947
 990	4.9450e-01	0.2105	2.852474	0.000272	2.715913	0.460088	-0.010862
 991	4.9500e-01	0.1955	2.791324	0.000306	3.058075	0.518052	-0.012230
 992	4.9550e-01	0.1730	2.730601	0.000304	3.036690	0.514429	-0.012145
 993	4.9600e-01	0.1535	2.647642	0.000415	4.148717	0.702812	-0.016592
 994	4.9650e-01	0.1330	2.592906	0.000274	2.737298	0.463711	-0.010947
 995	4.9700e-01	0.1138	2.525341	0.000338	3.378852	0.572393	-0.013513
 996	4.9750e-01	0.0924	2.480013	0.000227	2.266825	0.384010	-0.009066
 997	4.9800e-01	0.0752	2.394915	0.000426	4.255643	0.720925	-0.017019
 998	4.9850e-01	0.0542	2.341890	0.000265	2.651757	0.449220	-0.010605
 999	4.9900e-01	0.0328	2.282450	0.000297	2.972534	0.503561	-0.011888
1000	4.9950e-01	0.0140	2.225148	0.000287	2.865609	0.485447	-0.011460
1001	5.0000e-01	-0.0041	2.172978	0.000261	2.608987	0.441974	-0.010434
1002	5.0050e-01	-0.0271	2.110972	0.000310	3.100845	0.525297	-0.012401
1003	5.0100e-01	-0.0440	2.039986	0.000355	3.549933	0.601375	-0.014197
1004	5.0150e-01	-0.0618	1.985678	0.000272	2.715913	0.460088	-0.010862
1005	5.0200e-01	-0.0829	1.921962	0.000319	3.186386	0.539788	-0.012743
1006	5.0250e-01	-0.1034	1.852687	0.000346	3.464392	0.586884	-0.013855
1007	5.0300e-01	-0.1234	1.801799	0.000254	2.544832	0.431106	-0.010177
1008	5.0350e-01	-0.1426	1.738083	0.000319	3.186386	0.539788	-0.012743
1009	5.0400e-01	-0.1643	1.678215	0.000299	2.993919	0.507184	-0.011974
1010	5.0450e-01	-0.1824	1.620914	0.000287	2.865609	0.485447	-0.011460
1011	5.0500e-01	-0.2051	1.550355	0.000353	3.528548	0.597752	-0.014112
1012	5.0550e-01	-0.2226	1.492626	0.000289	2.886994	0.489070	-0.011546
1013	5.0600e-01	-0.2456	1.445587	0.000235	2.352365	0.398501	-0.009408
1014	5.0650e-01	-0.2637	1.369470	0.000381	3.806555	0.644848	-0.015223
1015	5.0700e-01	-0.2824	1.309602	0.000299	2.993919	0.507184	-0.011974
1016	5.0750e-01	-0.3024	1.243320	0.000331	3.314696	0.561525	-0.013256
1017	5.0800e-01	-0.3243	1.178749	0.000323	3.229156	0.547034	-0.012914
1018	5.0850e-01	-0.3451	1.098356	0.000402	4.020406	0.681075	-0.016079
1019	5.0900e-01	-0.3638	1.053455	0.000225	2.245440	0.380388	-0.008980
1020	5.0950e-01	-0.3844	0.990166	0.000317	3.165001	0.536166	-0.012658
1021	5.1000e-01	-0.4029	0.917898	0.000361	3.614088	0.612243	-0.014454
1022	5.1050e-01	-0.4243	0.855037	0.000314	3.143615	0.532543	-0.012572
1023	5.1100e-01	-0.4430	0.800301	0.000274	2.737298	0.463711	-0.010947
1024	5.1150e-01	-0.4636	0.752834	0.000237	2.373750	0.402124	-0.009493
1025	5.1200e-01	-0.4848	0.687408	0.000327	3.271926	0.554279	-0.013085
1026	5.1250e-01	-0.5033	0.597606	0.000449	4.490879	0.760776	-0.017960
1027	5.1300e-01	-0.5245	0.548002	0.000248	2.480676	0.420238	-0.009921
1028	5.1350e-01	-0.5422	0.500535	0.000237	2.373750	0.402124	-0.009493
1029	5.1400e-01	-0.5661	0.440668	0.000299	2.993919	0.507184	-0.011974
1030	5.1450e-01	-0.5817	0.346163	0.000473	4.726116	0.800626	-0.018901
1031	5.1500e-01	-0.6045	0.296986	0.000246	2.459291	0.416615	-0.009835
1032	5.1550e-01	-0.6220	0.237546	0.000297	2.972534	0.503561	-0.011888
1033	5.1600e-01	-0.6423	0.179389	0.000291	2.908379	0.492693	-0.011631
1034	5.1650e-01	-0.6654	0.118238	0.000306	3.058075	0.518052	-0.012230
1035	5.1700e-01	-0.6840	0.049818	0.000342	3.421622	0.579638	-0.013684
1036	5.1750e-01	-0.7053	-0.004062	0.000269	2.694527	0.456465	-0.010776
1037	5.1800e-01	-0.7252	-0.077614	0.000368	3.678244	0.623111	-0.014710
1038	5.1850e-01	-0.7435	-0.130212	0.000263	2.630372	0.445597	-0.010520
1039	5.1900e-01	-0.7635	-0.180672	0.000252	2.523446	0.427483	-0.010092
1040	5.1950e-01	-0.7841	-0.259355	0.000393	3.934866	0.666584	-0.015737
1041	5.2000e-01	-0.8041	-0.311525	0.000261	2.608987	0.441974	-0.010434
1042	5.2050e-01	-0.8237	-0.401754	0.000451	4.512264	0.764398	-0.018046
1043	5.2100e-01	-0.8444	-0.447082	0.000227	2.266825	0.384010	-0.009066
1044	5.2150e-01	-0.8635	-0.516358	0.000346	3.464392	0.586884	-0.013855
1045	5.2200e-01	-0.8847	-0.550140	0.000169	1.689426	0.286197	-0.006756
1046	5.2250e-01	-0.9019	-0.635665	0.000428	4.277028	0.724548	-0.017105
1047	5.2300e-01	-0.9241	-0.710499	0.000374	3.742399	0.633980	-0.014967
1048	5.2350e-01	-0.9417	-0.752834	0.000212	2.117129	0.358651	-0.008467
1049	5.2400e-01	-0.9632	-0.807998	0.000276	2.758683	0.467334	-0.011033
1050	5.2450e-01	-0.9853	-0.881977	0.000370	3.699629	0.626734	-0.014796
1051	5.2500e-01	-1.0049	-0.955956	0.000370	3.699629	0.626734	-0.014796
1052	5.2550e-01	-1.0221	-1.017534	0.000308	3.079460	0.521675	-0.012316
1053	5.2600e-01	-1.0445	-1.065428	0.000240	2.395136	0.405747	-0.009579
1054	5.2650e-01	-1.0647	-1.130855	0.000327	3.271926	0.554279	-0.013085
1055	5.2700e-01	-1.0836	-1.202268	0.000357	3.571318	0.604998	-0.014283
1056	5.2750e-01	-1.1042	-1.268978	0.000334	3.336082	0.565148	-0.013342
1057	5.2800e-01	-1.1248	-1.342102	0.000366	3.656859	0.619489	-0.014625
1058	5.2850e-01	-1.1417	-1.374174	0.000160	1.603885	0.271706	-0.006414
1059	5.2900e-01	-1.1654	-1.449436	0.000376	3.763784	0.637602	-0.015052
1060	5.2950e-01	-1.1850	-1.513152	0.000319	3.186386	0.539788	-0.012743
1061	5.3000e-01	-1.2043	-1.564039	0.000254	2.544832	0.431106	-0.010177
1062	5.3050e-01	-1.2251	-1.623052	0.000295	2.951149	0.499938	-0.011802
1063	5.3100e-01	-1.2461	-1.705583	0.000413	4.127332	0.699189	-0.016506
1064	5.3150e-01	-1.2669	-1.753477	0.000240	2.395136	0.405747	-0.009579
1065	5.3200e-01	-1.2870	-1.812490	0.000295	2.951149	0.499938	-0.011802
1066	5.3250e-01	-1.3062	-1.894594	0.000411	4.105947	0.695566	-0.016421
1067	5.3300e-01	-1.3264	-1.953178	0.000293	2.929764	0.496315	-0.011717
1068	5.3350e-01	-1.3453	-2.004066	0.000254	2.544832	0.431106	-0.010177
1069	5.3400e-01	-1.3625	-2.098143	0.000470	4.704731	0.797003	-0.018816
1070	5.3450e-01	-1.3842	-2.161860	0.000319	3.186386	0.539788	-0.012743
1071	5.3500e-01	-1.4076	-2.196497	0.000173	1.732196	0.293442	-0.006928
1072	5.3550e-01	-1.4225	-2.276463	0.000400	3.999021	0.677452	-0.015993
1073	5.3600e-01	-1.4432	-2.337186	0.000304	3.036690	0.514429	-0.012145
1074	5.3650e-01	-1.4614	-2.392777	0.000278	2.780068	0.470956	-0.011118
1075	5.3700e-01	-1.4841	-2.465046	0.000361	3.614088	0.612243	-0.014454
1076	5.3750e-01	-1.5048	-2.502677	0.000188	1.881892	0.318801	-0.007526
1077	5.3800e-01	-1.5230	-2.586919	0.000421	4.212872	0.713680	-0.016848
1078	5.3850e-01	-1.5435	-2.642938	0.000280	2.801453	0.474579	-0.011204
1079	5.3900e-01	-1.5638	-2.696391	0.000267	2.673142	0.452843	-0.010691
1080	5.3950e-01	-1.5829	-2.767377	0.000355	3.549933	0.601375	-0.014197
1081	5.4000e-01	-1.6030	-2.836225	0.000344	3.443007	0.583261	-0.013770
1082	5.4050e-01	-1.6248	-2.897375	0.000306	3.058075	0.518052	-0.012230
1083	5.4100e-01	-1.6444	-2.955104	0.000289	2.886994	0.489070	-0.011546
1084	5.4150e-01	-1.6628	-3.008130	0.000265	2.651757	0.449220	-0.010605
1085	5.4200e-01	-1.6840	-3.074412	0.000331	3.314696	0.561525	-0.013256
1086	5.4250e-01	-1.7039	-3.141121	0.000334	3.336082	0.565148	-0.013342
1087	5.4300e-01	-1.7231	-3.203127	0.000310	3.100845	0.525297	-0.012401
1088	5.4350e-01	-1.7441	-3.260857	0.000289	2.886994	0.489070	-0.011546
1089	5.4400e-01	-1.7646	-3.322007	0.000306	3.058075	0.518052	-0.012230
1090	5.4450e-01	-1.7817	-3.390427	0.000342	3.421622	0.579638	-0.013684
1091	5.4500e-01	-1.8018	-3.452005	0.000308	3.079460	0.521675	-0.012316
1092	5.4550e-01	-1.8245	-3.502892	0.000254	2.544832	0.431106	-0.010177
1093	5.4600e-01	-1.8439	-3.569174	0.000331	3.314696	0.561525	-0.013256
1094	5.4650e-01	-1.8633	-3.649996	0.000404	4.041791	0.684698	-0.016164
1095	5.4700e-01	-1.8864	-3.700028	0.000250	2.502061	0.423861	-0.010006
1096	5.4750e-01	-1.9056	-3.774434	0.000372	3.721014	0.630357	-0.014881
1097	5.4800e-01	-1.9270	-3.831309	0.000284	2.844223	0.481824	-0.011375
1098	5.4850e-01	-1.9468	-3.892887	0.000308	3.079460	0.521675	-0.012316
1099	5.4900e-01	-1.9648	-3.942919	0.000250	2.502061	0.423861	-0.010006
1100	5.4950e-01	-1.9843	-4.004497	0.000308	3.079460	0.521675	-0.012316
1101	5.5000e-01	-2.0047	-4.078904	0.000372	3.721014	0.630357	-0.014881
1102	5.5050e-01	-2.0242	-4.125087	0.000231	2.309595	0.391256	-0.009237
1103	5.5100e-01	-2.0460	-4.173836	0.000244	2.437906	0.412992	-0.009750
1104	5.5150e-01	-2.0628	-4.256368	0.000413	4.127332	0.699189	-0.016506
1105	5.5200e-01	-2.0850	-4.324361	0.000340	3.400237	0.576016	-0.013598
1106	5.5250e-01	-2.1040	-4.381662	0.000287	2.865609	0.485447	-0.011460
1107	5.5300e-01	-2.1235	-4.445806	0.000321	3.207771	0.543411	-0.012829
1108	5.5350e-01	-2.1449	-4.508239	0.000312	3.122230	0.528920	-0.012487
1109	5.5400e-01	-2.1655	-4.572383	0.000321	3.207771	0.543411	-0.012829
1110	5.5450e-01	-2.1845	-4.618994	0.000233	2.330980	0.394879	-0.009322
1111	5.5500e-01	-2.2038	-4.687842	0.000344	3.443007	0.583261	-0.013770
1112	5.5550e-01	-2.2242	-4.750703	0.000314	3.143615	0.532543	-0.012572
1113	5.5600e-01	-2.2437	-4.810998	0.000302	3.015305	0.510806	-0.012059
1114	5.5650e-01	-2.2655	-4.881129	0.000351	3.507163	0.594129	-0.014026
1115	5.5700e-01	-2.2855	-4.953397	0.000361	3.614088	0.612243	-0.014454
1116	5.5750e-01	-2.3051	-4.992311	0.000195	1.946048	0.329669	-0.007783
1117	5.5800e-01	-2.3255	-5.056027	0.000319	3.186386	0.539788	-0.012743
1118	5.5850e-01	-2.3464	-5.130434	0.000372	3.721014	0.630357	-0.014881
1119	5.5900e-01	-2.3643	-5.169348	0.000195	1.946048	0.329669	-0.007783
1120	5.5950e-01	-2.3844	-5.242044	0.000364	3.635474	0.615866	-0.014539
1121	5.6000e-01	-2.4007	-5.293359	0.000257	2.566217	0.434729	-0.010263
1122	5.6050e-01	-2.4232	-5.350661	0.000287	2.865609	0.485447	-0.011460
1123	5.6100e-01	-2.4436	-5.398983	0.000242	2.416521	0.409370	-0.009664
1124	5.6150e-01	-2.4656	-5.478094	0.000396	3.956251	0.670207	-0.015822
1125	5.6200e-01	-2.4870	-5.523849	0.000229	2.288210	0.387633	-0.009151
1126	5.6250e-01	-2.5060	-5.587566	0.000319	3.186386	0.539788	-0.012743
1127	5.6300e-01	-2.5272	-5.661117	0.000368	3.678244	0.623111	-0.014710
1128	5.6350e-01	-2.5446	-5.703452	0.000212	2.117129	0.358651	-0.008467
1129	5.6400e-01	-2.5629	-5.781280	0.000389	3.892095	0.659339	-0.015566
1130	5.6450e-01	-2.5843	-5.851410	0.000351	3.507163	0.594129	-0.014026
1131	5.6500e-01	-2.6051	-5.900160	0.000244	2.437906	0.412992	-0.009750
1132	5.6550e-01	-2.6234	-5.980126	0.000400	3.999021	0.677452	-0.015993
1133	5.6600e-01	-2.6455	-6.021605	0.000207	2.074358	0.351406	-0.008296
1134	5.6650e-01	-2.6643	-6.090025	0.000342	3.421622	0.579638	-0.013684
1135	5.6700e-01	-2.6827	-6.134071	0.000220	2.202669	0.373142	-0.008809
1136	5.6750e-01	-2.7035	-6.219168	0.000426	4.255643	0.720925	-0.017019
1137	5.6800e-01	-2.7256	-6.254661	0.000177	1.774967	0.300687	-0.007099
1138	5.6850e-01	-2.7457	-6.314101	0.000297	2.972534	0.503561	-0.011888
1139	5.6900e-01	-2.7648	-6.398343	0.000421	4.212872	0.713680	-0.016848
1140	5.6950e-01	-2.7848	-6.442389	0.000220	2.202669	0.373142	-0.008809
1141	5.7000e-01	-2.8065	-6.483013	0.000203	2.031588	0.344160	-0.008125
1142	5.7050e-01	-2.8246	-6.548867	0.000329	3.293311	0.557902	-0.013171
1143	5.7100e-01	-2.8439	-6.613011	0.000321	3.207771	0.543411	-0.012829
1144	5.7150e-01	-2.8623	-6.669030	0.000280	2.801453	0.474579	-0.011204
1145	5.7200e-01	-2.8850	-6.726332	0.000287	2.865609	0.485447	-0.011460
1146	5.7250e-01	-2.9047	-6.808436	0.000411	4.105947	0.695566	-0.016421
1147	5.7300e-01	-2.9240	-6.844356	0.000180	1.796352	0.304310	-0.007184
1148	5.7350e-01	-2.9445	-6.920901	0.000383	3.827940	0.648471	-0.015309
1149	5.7400e-01	-2.9664	-6.962381	0.000207	2.074358	0.351406	-0.008296
1150	5.7450e-01	-2.9810	-7.030373	0.000340	3.400237	0.576016	-0.013598
1151	5.7500e-01	-3.0054	-7.079550	0.000246	2.459291	0.416615	-0.009835
1152	5.7550e-01	-3.0262	-7.143266	0.000319	3.186386	0.539788	-0.012743
1153	5.7600e-01	-3.0439	-7.214680	0.000357	3.571318	0.604998	-0.014283
1154	5.7650e-01	-3.0656	-7.257015	0.000212	2.117129	0.358651	-0.008467
1155	5.7700e-01	-3.0854	-7.325007	0.000340	3.400237	0.576016	-0.013598
1156	5.7750e-01	-3.1046	-7.377177	0.000261	2.608987	0.441974	-0.010434
1157	5.7800e-01	-3.1232	-7.431913	0.000274	2.737298	0.463711	-0.010947
1158	5.7850e-01	-3.1452	-7.499906	0.000340	3.400237	0.576016	-0.013598
1159	5.7900e-01	-3.1641	-7.549938	0.000250	2.502061	0.423861	-0.010006
1160	5.7950e-01	-3.1855	-7.608095	0.000291	2.908379	0.492693	-0.011631
1161	5.8000e-01	-3.2050	-7.653423	0.000227	2.266825	0.384010	-0.009066
1162	5.8050e-01	-3.2258	-7.724837	0.000357	3.571318	0.604998	-0.014283
1163	5.8100e-01	-3.2450	-7.786415	0.000308	3.079460	0.521675	-0.012316
1164	5.8150e-01	-3.2656	-7.843289	0.000284	2.844223	0.481824	-0.011375
1165	5.8200e-01	-3.2856	-7.893321	0.000250	2.502061	0.423861	-0.010006
1166	5.8250e-01	-3.3042	-7.952333	0.000295	2.951149	0.499938	-0.011802
1167	5.8300e-01	-3.3244	-8.010918	0.000293	2.929764	0.496315	-0.011717
1168	5.8350e-01	-3.3442	-8.076772	0.000329	3.293311	0.557902	-0.013171
1169	5.8400e-01	-3.3649	-8.127660	0.000254	2.544832	0.431106	-0.010177
1170	5.8450e-01	-3.3842	-8.197363	0.000349	3.485778	0.590507	-0.013941
1171	5.8500e-01	-3.4034	-8.246112	0.000244	2.437906	0.412992	-0.009750
1172	5.8550e-01	-3.4248	-8.298710	0.000263	2.630372	0.445597	-0.010520
1173	5.8600e-01	-3.4458	-8.357722	0.000295	2.951149	0.499938	-0.011802
1174	5.8650e-01	-3.4633	-8.421011	0.000317	3.165001	0.536166	-0.012658
1175	5.8700e-01	-3.4841	-8.473181	0.000261	2.608987	0.441974	-0.010434
1176	5.8750e-01	-3.5017	-8.542456	0.000346	3.464392	0.586884	-0.013855
1177	5.8800e-01	-3.5242	-8.585219	0.000214	2.138514	0.362274	-0.008553
1178	5.8850e-01	-3.5426	-8.660481	0.000376	3.763784	0.637602	-0.015052
1179	5.8900e-01	-3.5645	-8.713934	0.000267	2.673142	0.452843	-0.010691
1180	5.8950e-01	-3.5871	-8.750282	0.000182	1.817737	0.307933	-0.007270
1181	5.9000e-01	-3.6056	-8.812715	0.000312	3.122230	0.528920	-0.012487
1182	5.9050e-01	-3.6243	-8.859754	0.000235	2.352365	0.398501	-0.009408
1183	5.9100e-01	-3.6463	-8.937582	0.000389	3.892095	0.659339	-0.015566
1184	5.9150e-01	-3.6658	-8.971792	0.000171	1.710811	0.289819	-0.006842
1185	5.9200e-01	-3.6832	-9.042350	0.000353	3.528548	0.597752	-0.014112
1186	5.9250e-01	-3.7049	-9.088534	0.000231	2.309595	0.391256	-0.009237
1187	5.9300e-01	-3.7254	-9.149684	0.000306	3.058075	0.518052	-0.012230
1188	5.9350e-01	-3.7446	-9.201854	0.000261	2.608987	0.441974	-0.010434
1189	5.9400e-01	-3.7644	-9.279255	0.000387	3.870710	0.655716	-0.015480
1190	5.9450e-01	-3.7855	-9.307906	0.000143	1.432804	0.242724	-0.005730
1191	5.9500e-01	-3.8053	-9.365207	0.000287	2.865609	0.485447	-0.011460
1192	5.9550e-01	-3.8223	-9.444746	0.000398	3.977636	0.673830	-0.015908
1193	5.9600e-01	-3.8441	-9.497344	0.000263	2.630372	0.445597	-0.010520
1194	5.9650e-01	-3.8645	-9.556356	0.000295	2.951149	0.499938	-0.011802
1195	5.9700e-01	-3.8840	-9.591421	0.000175	1.753581	0.297065	-0.007013
1196	5.9750e-01	-3.9036	-9.664973	0.000368	3.678244	0.623111	-0.014710
1197	5.9800e-01	-3.9246	-9.716715	0.000259	2.587602	0.438352	-0.010349
1198	5.9850e-01	-3.9448	-9.754774	0.000190	1.903277	0.322424	-0.007612
1199	5.9900e-01	-3.9631	-9.817207	0.000312	3.122230	0.528920	-0.012487
1200	5.9950e-01	-3.9841	-9.865529	0.000242	2.416521	0.409370	-0.009664
1201	6.0000e-01	-4.0052	-9.940791	0.000376	3.763784	0.637602	-0.015052
1202	6.0050e-01	-4.0243	-9.972435	0.000158	1.582500	0.268083	-0.006329
1203	6.0100e-01	-4.0438	-10.051974	0.000398	3.977636	0.673830	-0.015908
1204	6.0150e-01	-4.0623	-10.101578	0.000248	2.480676	0.420238	-0.009921
1205	6.0200e-01	-4.0839	-10.155886	0.000272	2.715913	0.460088	-0.010862
1206	6.0250e-01	-4.1059	-10.206774	0.000254	2.544832	0.431106	-0.010177
1207	6.0300e-01	-4.1248	-10.232859	0.000130	1.304493	0.220987	-0.005217
1208	6.0350e-01	-4.1447	-10.322660	0.000449	4.490879	0.760776	-0.017960
1209	6.0400e-01	-4.1627	-10.371410	0.000244	2.437906	0.412992	-0.009750
1210	6.0450e-01	-4.1840	-10.408613	0.000186	1.860507	0.315178	-0.007441
1211	6.0500e-01	-4.2027	-10.471902	0.000317	3.165001	0.536166	-0.012658
1212	6.0550e-01	-4.2219	-10.523217	0.000257	2.566217	0.434729	-0.010263
1213	6.0600e-01	-4.2472	-10.591209	0.000340	3.400237	0.576016	-0.013598
1214	6.0650e-01	-4.2664	-10.646373	0.000276	2.758683	0.467334	-0.011033
1215	6.0700e-01	-4.2836	-10.698543	0.000261	2.608987	0.441974	-0.010434
1216	6.0750e-01	-4.3056	-10.740023	0.000207	2.074358	0.351406	-0.008296
1217	6.0800e-01	-4.3233	-10.796041	0.000280	2.801453	0.474579	-0.011204
1218	6.0850e-01	-4.3472	-10.837521	0.000207	2.074358	0.351406	-0.008296
1219	6.0900e-01	-4.3653	-10.901237	0.000319	3.186386	0.539788	-0.012743
1220	6.0950e-01	-4.3850	-10.962815	0.000308	3.079460	0.521675	-0.012316
1221	6.1000e-01	-4.4038	-11.009427	0.000233	2.330980	0.394879	-0.009322
1222	6.1050e-01	-4.4267	-11.053900	0.000222	2.224054	0.376765	-0.008895
1223	6.1100e-01	-4.4450	-11.126168	0.000361	3.614088	0.612243	-0.014454
1224	6.1150e-01	-4.4630	-11.159523	0.000167	1.668041	0.282574	-0.006671
1225	6.1200e-01	-4.4831	-11.217680	0.000291	2.908379	0.492693	-0.011631
1226	6.1250e-01	-4.4996	-11.281396	0.000319	3.186386	0.539788	-0.012743
1227	6.1300e-01	-4.5271	-11.338270	0.000284	2.844223	0.481824	-0.011375
1228	6.1350e-01	-4.5438	-11.376757	0.000192	1.924662	0.326047	-0.007697
1229	6.1400e-01	-4.5615	-11.433631	0.000284	2.844223	0.481824	-0.011375
1230	6.1450e-01	-4.5863	-11.495209	0.000308	3.079460	0.521675	-0.012316
1231	6.1500e-01	-4.6052	-11.522149	0.000135	1.347264	0.228233	-0.005388
1232	6.1550e-01	-4.6230	-11.587148	0.000325	3.250541	0.550657	-0.013000
1233	6.1600e-01	-4.6455	-11.624779	0.000188	1.881892	0.318801	-0.007526
1234	6.1650e-01	-4.6641	-11.695765	0.000355	3.549933	0.601375	-0.014197
1235	6.1700e-01	-4.6870	-11.733396	0.000188	1.881892	0.318801	-0.007526
1236	6.1750e-01	-4.7071	-11.781290	0.000240	2.395136	0.405747	-0.009579
1237	6.1800e-01	-4.7260	-11.840302	0.000295	2.951149	0.499938	-0.011802
1238	6.1850e-01	-4.7462	-11.892473	0.000261	2.608987	0.441974	-0.010434
1239	6.1900e-01	-4.7663	-11.948064	0.000278	2.780068	0.470956	-0.011118
1240	6.1950e-01	-4.7875	-12.006221	0.000291	2.908379	0.492693	-0.011631
1241	6.2000e-01	-4.8048	-12.047701	0.000207	2.074358	0.351406	-0.008296
1242	6.2050e-01	-4.8249	-12.106285	0.000293	2.929764	0.496315	-0.011717
1243	6.2100e-01	-4.8454	-12.160594	0.000272	2.715913	0.460088	-0.010862
1244	6.2150e-01	-4.8615	-12.215757	0.000276	2.758683	0.467334	-0.011033
1245	6.2200e-01	-4.8841	-12.260230	0.000222	2.224054	0.376765	-0.008895
1246	6.2250e-01	-4.9055	-12.315394	0.000276	2.758683	0.467334	-0.011033
1247	6.2300e-01	-4.9264	-12.361578	0.000231	2.309595	0.391256	-0.009237
1248	6.2350e-01	-4.9436	-12.409472	0.000240	2.395136	0.405747	-0.009579
1249	6.2400e-01	-4.9641	-12.462070	0.000263	2.630372	0.445597	-0.010520
1250	6.2450e-01	-4.9866	-12.518944	0.000284	2.844223	0.481824	-0.011375
1251	6.2500e-01	-5.0050	-12.555720	0.000184	1.839122	0.311556	-0.007355
1252	6.2550e-01	-5.0251	-12.612594	0.000284	2.844223	0.481824	-0.011375
1253	6.2600e-01	-5.0440	-12.658777	0.000231	2.309595	0.391256	-0.009237
1254	6.2650e-01	-5.0644	-12.703678	0.000225	2.245440	0.380388	-0.008980
1255	6.2700e-01	-5.0840	-12.760980	0.000287	2.865609	0.485447	-0.011460
1256	6.2750e-01	-5.1052	-12.806736	0.000229	2.288210	0.387633	-0.009151
1257	6.2800e-01	-5.1258	-12.868314	0.000308	3.079460	0.521675	-0.012316
1258	6.2850e-01	-5.1444	-12.901668	0.000167	1.668041	0.282574	-0.006671
1259	6.2900e-01	-5.1637	-12.960681	0.000295	2.951149	0.499938	-0.011802
1260	6.2950e-01	-5.1844	-13.012851	0.000261	2.608987	0.441974	-0.010434
1261	6.3000e-01	-5.2052	-13.064594	0.000259	2.587602	0.438352	-0.010349
1262	6.3050e-01	-5.2241	-13.106928	0.000212	2.117129	0.358651	-0.008467
1263	6.3100e-01	-5.2467	-13.167651	0.000304	3.036690	0.514429	-0.012145
1264	6.3150e-01	-5.2627	-13.212552	0.000225	2.245440	0.380388	-0.008980
1265	6.3200e-01	-5.2857	-13.262156	0.000248	2.480676	0.420238	-0.009921
1266	6.3250e-01	-5.3068	-13.301498	0.000197	1.967433	0.333292	-0.007868
1267	6.3300e-01	-5.3243	-13.363931	0.000312	3.122230	0.528920	-0.012487
1268	6.3350e-01	-5.3437	-13.412681	0.000244	2.437906	0.412992	-0.009750
1269	6.3400e-01	-5.3626	-13.454588	0.000210	2.095744	0.355029	-0.008381
1270	6.3450e-01	-5.3858	-13.497778	0.000216	2.159899	0.365897	-0.008638
1271	6.3500e-01	-5.4047	-13.565770	0.000340	3.400237	0.576016	-0.013598
1272	6.3550e-01	-5.4230	-13.584586	0.000094	0.940946	0.159401	-0.003763
1273	6.3600e-01	-5.4426	-13.641032	0.000282	2.822838	0.478202	-0.011289
1274	6.3650e-01	-5.4670	-13.691920	0.000254	2.544832	0.431106	-0.010177
1275	6.3700e-01	-5.4877	-13.734682	0.000214	2.138514	0.362274	-0.008553
1276	6.3750e-01	-5.5036	-13.792412	0.000289	2.886994	0.489070	-0.011546
1277	6.3800e-01	-5.5262	-13.855273	0.000314	3.143615	0.532543	-0.012572
1278	6.3850e-01	-5.5439	-13.904022	0.000244	2.437906	0.412992	-0.009750
1279	6.3900e-01	-5.5659	-13.961324	0.000287	2.865609	0.485447	-0.011460
1280	6.3950e-01	-5.5860	-14.016060	0.000274	2.737298	0.463711	-0.010947
1281	6.4000e-01	-5.6055	-14.030599	0.000073	0.727095	0.123173	-0.002908
1282	6.4050e-01	-5.6263	-14.078065	0.000237	2.373750	0.402124	-0.009493
1283	6.4100e-01	-5.6446	-14.139644	0.000308	3.079460	0.521675	-0.012316
1284	6.4150e-01	-5.6660	-14.182834	0.000216	2.159899	0.365897	-0.008638
1285	6.4200e-01	-5.6843	-14.220892	0.000190	1.903277	0.322424	-0.007612
1286	6.4250e-01	-5.7044	-14.269214	0.000242	2.416521	0.409370	-0.009664
1287	6.4300e-01	-5.7252	-14.334213	0.000325	3.250541	0.550657	-0.013000
1288	6.4350e-01	-5.7432	-14.373555	0.000197	1.967433	0.333292	-0.007868
1289	6.4400e-01	-5.7642	-14.430429	0.000284	2.844223	0.481824	-0.011375
1290	6.4450e-01	-5.7862	-14.462073	0.000158	1.582500	0.268083	-0.006329
1291	6.4500e-01	-5.8012	-14.511678	0.000248	2.480676	0.420238	-0.009921
1292	6.4550e-01	-5.8244	-14.578387	0.000334	3.336082	0.565148	-0.013342
1293	6.4600e-01	-5.8436	-14.611314	0.000165	1.646656	0.278951	-0.006585
1294	6.4650e-01	-5.8659	-14.655360	0.000220	2.202669	0.373142	-0.008809
1295	6.4700e-01	-5.8840	-14.725063	0.000349	3.485778	0.590507	-0.013941
1296	6.4750e-01	-5.9049	-14.746016	0.000105	1.047872	0.177514	-0.004191
1297	6.4800e-01	-5.9254	-14.789634	0.000218	2.181284	0.369520	-0.008724
1298	6.4850e-01	-5.9461	-14.842232	0.000263	2.630372	0.445597	-0.010520
1299	6.4900e-01	-5.9663	-14.879863	0.000188	1.881892	0.318801	-0.007526
1300	6.4950e-01	-5.9846	-14.938020	0.000291	2.908379	0.492693	-0.011631
1301	6.5000e-01	-6.0059	-14.973513	0.000177	1.774967	0.300687	-0.007099
1302	6.5050e-01	-6.0267	-15.031242	0.000289	2.886994	0.489070	-0.011546
1303	6.5100e-01	-6.0450	-15.081274	0.000250	2.502061	0.423861	-0.010006
1304	6.5150e-01	-6.0673	-15.124465	0.000216	2.159899	0.365897	-0.008638
1305	6.5200e-01	-6.0853	-15.151833	0.000137	1.368649	0.231855	-0.005474
1306	6.5250e-01	-6.1036	-15.210845	0.000295	2.951149	0.499938	-0.011802
1307	6.5300e-01	-6.1243	-15.269429	0.000293	2.929764	0.496315	-0.011717
1308	6.5350e-01	-6.1460	-15.313903	0.000222	2.224054	0.376765	-0.008895
1309	6.5400e-01	-6.1652	-15.331435	0.000088	0.876791	0.148532	-0.003507
1310	6.5450e-01	-6.1860	-15.379757	0.000242	2.416521	0.409370	-0.009664
1311	6.5500e-01	-6.2040	-15.447749	0.000340	3.400237	0.576016	-0.013598
1312	6.5550e-01	-6.2269	-15.490512	0.000214	2.138514	0.362274	-0.008553
1313	6.5600e-01	-6.2434	-15.515314	0.000124	1.240338	0.210119	-0.004960
1314	6.5650e-01	-6.2678	-15.574326	0.000295	2.951149	0.499938	-0.011802
1315	6.5700e-01	-6.2849	-15.627352	0.000265	2.651757	0.449220	-0.010605
1316	6.5750e-01	-6.3050	-15.670542	0.000216	2.159899	0.365897	-0.008638
1317	6.5800e-01	-6.3264	-15.691068	0.000103	1.026487	0.173892	-0.004105
1318	6.5850e-01	-6.3441	-15.758205	0.000336	3.357467	0.568770	-0.013427
1319	6.5900e-01	-6.3654	-15.794981	0.000184	1.839122	0.311556	-0.007355
1320	6.5950e-01	-6.3825	-15.839026	0.000220	2.202669	0.373142	-0.008809
1321	6.6000e-01	-6.4063	-15.895045	0.000280	2.801453	0.474579	-0.011204
1322	6.6050e-01	-6.4234	-15.935670	0.000203	2.031588	0.344160	-0.008125
1323	6.6100e-01	-6.4451	-15.980998	0.000227	2.266825	0.384010	-0.009066
1324	6.6150e-01	-6.4661	-16.029747	0.000244	2.437906	0.412992	-0.009750
1325	6.6200e-01	-6.4869	-16.058826	0.000145	1.454189	0.246346	-0.005816
1326	6.6250e-01	-6.5049	-16.102444	0.000218	2.181284	0.369520	-0.008724
1327	6.6300e-01	-6.5218	-16.169153	0.000334	3.336082	0.565148	-0.013342
1328	6.6350e-01	-6.5461	-16.189679	0.000103	1.026487	0.173892	-0.004105
1329	6.6400e-01	-6.5662	-16.246126	0.000282	2.822838	0.478202	-0.011289
1330	6.6450e-01	-6.5845	-16.293164	0.000235	2.352365	0.398501	-0.009408
1331	6.6500e-01	-6.6044	-16.339776	0.000233	2.330980	0.394879	-0.009322
1332	6.6550e-01	-6.6245	-16.374413	0.000173	1.732196	0.293442	-0.006928
1333	6.6600e-01	-6.6444	-16.428294	0.000269	2.694527	0.456465	-0.010776
1334	6.6650e-01	-6.6645	-16.472339	0.000220	2.202669	0.373142	-0.008809
1335	6.6700e-01	-6.6846	-16.527075	0.000274	2.737298	0.463711	-0.010947
1336	6.6750e-01	-6.7066	-16.551878	0.000124	1.240338	0.210119	-0.004960
1337	6.6800e-01	-6.7237	-16.607041	0.000276	2.758683	0.467334	-0.011033
1338	6.6850e-01	-6.7457	-16.623719	0.000083	0.834020	0.141287	-0.003335
1339	6.6900e-01	-6.7646	-16.675034	0.000257	2.566217	0.434729	-0.010263
1340	6.6950e-01	-6.7854	-16.712237	0.000186	1.860507	0.315178	-0.007441
1341	6.7000e-01	-6.8043	-16.768256	0.000280	2.801453	0.474579	-0.011204
1342	6.7050e-01	-6.8256	-16.799473	0.000156	1.561115	0.264460	-0.006243
1343	6.7100e-01	-6.8439	-16.859768	0.000302	3.015305	0.510806	-0.012059
1344	6.7150e-01	-6.8636	-16.891412	0.000158	1.582500	0.268083	-0.006329
1345	6.7200e-01	-6.8861	-16.945721	0.000272	2.715913	0.460088	-0.010862
1346	6.7250e-01	-6.9051	-16.975654	0.000150	1.496960	0.253592	-0.005987
1347	6.7300e-01	-6.9267	-17.026542	0.000254	2.544832	0.431106	-0.010177
1348	6.7350e-01	-6.9447	-17.071015	0.000222	2.224054	0.376765	-0.008895
1349	6.7400e-01	-6.9648	-17.116771	0.000229	2.288210	0.387633	-0.009151
1350	6.7450e-01	-6.9855	-17.156967	0.000201	2.010203	0.340538	-0.008039
1351	6.7500e-01	-7.0051	-17.203151	0.000231	2.309595	0.391256	-0.009237
1352	6.7550e-01	-7.0240	-17.239072	0.000180	1.796352	0.304310	-0.007184
1353	6.7600e-01	-7.0472	-17.271999	0.000165	1.646656	0.278951	-0.006585
1354	6.7650e-01	-7.0649	-17.319037	0.000235	2.352365	0.398501	-0.009408
1355	6.7700e-01	-7.0832	-17.387457	0.000342	3.421622	0.579638	-0.013684
1356	6.7750e-01	-7.1052	-17.425944	0.000192	1.924662	0.326047	-0.007697
1357	6.7800e-01	-7.1244	-17.442621	0.000083	0.834020	0.141287	-0.003335
1358	6.7850e-01	-7.1430	-17.515317	0.000364	3.635474	0.615866	-0.014539
1359	6.7900e-01	-7.1644	-17.541830	0.000133	1.325879	0.224610	-0.005303
1360	6.7950e-01	-7.1845	-17.570053	0.000141	1.411419	0.239101	-0.005645
1361	6.8000e-01	-7.2041	-17.619658	0.000248	2.480676	0.420238	-0.009921
1362	6.8050e-01	-7.2248	-17.669690	0.000250	2.502061	0.423861	-0.010006
1363	6.8100e-01	-7.2443	-17.695348	0.000128	1.283108	0.217364	-0.005132
1364	6.8150e-01	-7.2639	-17.752649	0.000287	2.865609	0.485447	-0.011460
1365	6.8200e-01	-7.2837	-17.791991	0.000197	1.967433	0.333292	-0.007868
1366	6.8250e-01	-7.3042	-17.824491	0.000163	1.625271	0.275328	-0.006500
1367	6.8300e-01	-7.3243	-17.868536	0.000220	2.202669	0.373142	-0.008809
1368	6.8350e-01	-7.3421	-17.912581	0.000220	2.202669	0.373142	-0.008809
1369	6.8400e-01	-7.3652	-17.956627	0.000220	2.202669	0.373142	-0.008809
1370	6.8450e-01	-7.3835	-17.989126	0.000163	1.625271	0.275328	-0.006500
1371	6.8500e-01	-7.4049	-18.053698	0.000323	3.229156	0.547034	-0.012914
1372	6.8550e-01	-7.4226	-18.072941	0.000096	0.962331	0.163023	-0.003849
1373	6.8600e-01	-7.4445	-18.122118	0.000246	2.459291	0.416615	-0.009835
1374	6.8650e-01	-7.4662	-18.173433	0.000257	2.566217	0.434729	-0.010263
1375	6.8700e-01	-7.4827	-18.196524	0.000115	1.154797	0.195628	-0.004618
1376	6.8750e-01	-7.5062	-18.238859	0.000212	2.117129	0.358651	-0.008467
1377	6.8800e-01	-7.5257	-18.285471	0.000233	2.330980	0.394879	-0.009322
1378	6.8850e-01	-7.5431	-18.329516	0.000220	2.202669	0.373142	-0.008809
1379	6.8900e-01	-7.5663	-18.354318	0.000124	1.240338	0.210119	-0.004960
1380	6.8950e-01	-7.5843	-18.379548	0.000126	1.261723	0.213742	-0.005046
1381	6.9000e-01	-7.6051	-18.444975	0.000327	3.271926	0.554279	-0.013085
1382	6.9050e-01	-7.6258	-18.473626	0.000143	1.432804	0.242724	-0.005730
1383	6.9100e-01	-7.6435	-18.506553	0.000165	1.646656	0.278951	-0.006585
1384	6.9150e-01	-7.6649	-18.571124	0.000323	3.229156	0.547034	-0.012914
1385	6.9200e-01	-7.6839	-18.614314	0.000216	2.159899	0.365897	-0.008638
1386	6.9250e-01	-7.7033	-18.653656	0.000197	1.967433	0.333292	-0.007868
1387	6.9300e-01	-7.7271	-18.679741	0.000130	1.304493	0.220987	-0.005217
1388	6.9350e-01	-7.7430	-18.715234	0.000177	1.774967	0.300687	-0.007099
1389	6.9400e-01	-7.7650	-18.757996	0.000214	2.138514	0.362274	-0.008553
1390	6.9450e-01	-7.7824	-18.811450	0.000267	2.673142	0.452843	-0.010691
1391	6.9500e-01	-7.8034	-18.853785	0.000212	2.117129	0.358651	-0.008467
1392	6.9550e-01	-7.8245	-18.886284	0.000163	1.625271	0.275328	-0.006500
1393	6.9600e-01	-7.8461	-18.925198	0.000195	1.946048	0.329669	-0.007783
1394	6.9650e-01	-7.8632	-18.956842	0.000158	1.582500	0.268083	-0.006329
1395	6.9700e-01	-7.8822	-19.023979	0.000336	3.357467	0.568770	-0.013427
1396	6.9750e-01	-7.9053	-19.054768	0.000154	1.539730	0.260837	-0.006158
1397	6.9800e-01	-7.9249	-19.084275	0.000148	1.475575	0.249969	-0.005901
1398	6.9850e-01	-7.9450	-19.136017	0.000259	2.587602	0.438352	-0.010349
1399	6.9900e-01	-7.9627	-19.167661	0.000158	1.582500	0.268083	-0.006329
1400	6.9950e-01	-7.9841	-19.191181	0.000118	1.176183	0.199251	-0.004704
1401	7.0000e-01	-8.0025	-19.240358	0.000246	2.459291	0.416615	-0.009835
1402	7.0050e-01	-8.0244	-19.289535	0.000246	2.459291	0.416615	-0.009835
1403	7.0100e-01	-8.0445	-19.319041	0.000148	1.475575	0.249969	-0.005901
1404	7.0150e-01	-8.0616	-19.346836	0.000139	1.390034	0.235478	-0.005559
1405	7.0200e-01	-8.0848	-19.401145	0.000272	2.715913	0.460088	-0.010862
1406	7.0250e-01	-8.1037	-19.437065	0.000180	1.796352	0.304310	-0.007184
1407	7.0300e-01	-8.1236	-19.482821	0.000229	2.288210	0.387633	-0.009151
1408	7.0350e-01	-8.1431	-19.520880	0.000190	1.903277	0.322424	-0.007612
1409	7.0400e-01	-8.1660	-19.560222	0.000197	1.967433	0.333292	-0.007868
1410	7.0450e-01	-8.1849	-19.591011	0.000154	1.539730	0.260837	-0.006158
1411	7.0500e-01	-8.2044	-19.622655	0.000158	1.582500	0.268083	-0.006329
1412	7.0550e-01	-8.2233	-19.678674	0.000280	2.801453	0.474579	-0.011204
1413	7.0600e-01	-8.2417	-19.706042	0.000137	1.368649	0.231855	-0.005474
1414	7.0650e-01	-8.2661	-19.765482	0.000297	2.972534	0.503561	-0.011888
1415	7.0700e-01	-8.2829	-19.781304	0.000079	0.791250	0.134041	-0.003164
1416	7.0750e-01	-8.3027	-19.790712	0.000047	0.470473	0.079700	-0.001882
1417	7.0800e-01	-8.3234	-19.871960	0.000406	4.063176	0.688321	-0.016250
1418	7.0850e-01	-8.3430	-19.906598	0.000173	1.732196	0.293442	-0.006928
1419	7.0900e-01	-8.3625	-19.939953	0.000167	1.668041	0.282574	-0.006671
1420	7.0950e-01	-8.3875	-19.989130	0.000246	2.459291	0.416615	-0.009835
1421	7.1000e-01	-8.4034	-20.007518	0.000092	0.919561	0.155778	-0.003678
1422	7.1050e-01	-8.4235	-20.054129	0.000233	2.330980	0.394879	-0.009322
1423	7.1100e-01	-8.4452	-20.097746	0.000218	2.181284	0.369520	-0.008724
1424	7.1150e-01	-8.4653	-20.147779	0.000250	2.502061	0.423861	-0.010006
1425	7.1200e-01	-8.4830	-20.178140	0.000152	1.518345	0.257215	-0.006072
1426	7.1250e-01	-8.5062	-20.209357	0.000156	1.561115	0.264460	-0.006243
1427	7.1300e-01	-8.5249	-20.234587	0.000126	1.261723	0.213742	-0.005046
1428	7.1350e-01	-8.5453	-20.282053	0.000237	2.373750	0.402124	-0.009493
1429	7.1400e-01	-8.5627	-20.326098	0.000220	2.202669	0.373142	-0.008809
1430	7.1450e-01	-8.5831	-20.370571	0.000222	2.224054	0.376765	-0.008895
1431	7.1500e-01	-8.6036	-20.412479	0.000210	2.095744	0.355029	-0.008381
1432	7.1550e-01	-8.6243	-20.432149	0.000098	0.983716	0.166646	-0.003934
1433	7.1600e-01	-8.6451	-20.479188	0.000235	2.352365	0.398501	-0.009408
1434	7.1650e-01	-8.6628	-20.526655	0.000237	2.373750	0.402124	-0.009493
1435	7.1700e-01	-8.6842	-20.558299	0.000158	1.582500	0.268083	-0.006329
1436	7.1750e-01	-8.7037	-20.586095	0.000139	1.390034	0.235478	-0.005559
1437	7.1800e-01	-8.7232	-20.635271	0.000246	2.459291	0.416615	-0.009835
1438	7.1850e-01	-8.7446	-20.679744	0.000222	2.224054	0.376765	-0.008895
1439	7.1900e-01	-8.7647	-20.717803	0.000190	1.903277	0.322424	-0.007612
1440	7.1950e-01	-8.7846	-20.740467	0.000113	1.133412	0.192005	-0.004533
1441	7.2000e-01	-8.8041	-20.771256	0.000154	1.539730	0.260837	-0.006158
1442	7.2050e-01	-8.8255	-20.812308	0.000205	2.052973	0.347783	-0.008210
1443	7.2100e-01	-8.8447	-20.853788	0.000207	2.074358	0.351406	-0.008296
1444	7.2150e-01	-8.8651	-20.885005	0.000156	1.561115	0.264460	-0.006243
1445	7.2200e-01	-8.8859	-20.908952	0.000120	1.197568	0.202873	-0.004789
1446	7.2250e-01	-8.9051	-20.960267	0.000257	2.566217	0.434729	-0.010263
1447	7.2300e-01	-8.9249	-21.004740	0.000222	2.224054	0.376765	-0.008895
1448	7.2350e-01	-8.9423	-21.030825	0.000130	1.304493	0.220987	-0.005217
1449	7.2400e-01	-8.9613	-21.078291	0.000237	2.373750	0.402124	-0.009493
1450	7.2450e-01	-8.9848	-21.130034	0.000259	2.587602	0.438352	-0.010349
1451	7.2500e-01	-9.0046	-21.154409	0.000122	1.218953	0.206496	-0.004875
1452	7.2550e-01	-9.0229	-21.186053	0.000158	1.582500	0.268083	-0.006329
1453	7.2600e-01	-9.0424	-21.232664	0.000233	2.330980	0.394879	-0.009322
1454	7.2650e-01	-9.0653	-21.254900	0.000111	1.112027	0.188383	-0.004447
1455	7.2700e-01	-9.0876	-21.293814	0.000195	1.946048	0.329669	-0.007783
1456	7.2750e-01	-9.1047	-21.335722	0.000210	2.095744	0.355029	-0.008381
1457	7.2800e-01	-9.1248	-21.367794	0.000160	1.603885	0.271706	-0.006414
1458	7.2850e-01	-9.1438	-21.402859	0.000175	1.753581	0.297065	-0.007013
1459	7.2900e-01	-9.1602	-21.452036	0.000246	2.459291	0.416615	-0.009835
1460	7.2950e-01	-9.1834	-21.484535	0.000163	1.625271	0.275328	-0.006500
1461	7.3000e-01	-9.2060	-21.520456	0.000180	1.796352	0.304310	-0.007184
1462	7.3050e-01	-9.2234	-21.576902	0.000282	2.822838	0.478202	-0.011289
1463	7.3100e-01	-9.2432	-21.607264	0.000152	1.518345	0.257215	-0.006072
1464	7.3150e-01	-9.2646	-21.638480	0.000156	1.561115	0.264460	-0.006243
1465	7.3200e-01	-9.2811	-21.680815	0.000212	2.117129	0.358651	-0.008467
1466	7.3250e-01	-9.3037	-21.706045	0.000126	1.261723	0.213742	-0.005046
1467	7.3300e-01	-9.3244	-21.733841	0.000139	1.390034	0.235478	-0.005559
1468	7.3350e-01	-9.3464	-21.783445	0.000248	2.480676	0.420238	-0.009921
1469	7.3400e-01	-9.3653	-21.808675	0.000126	1.261723	0.213742	-0.005046
1470	7.3450e-01	-9.3845	-21.846306	0.000188	1.881892	0.318801	-0.007526
1471	7.3500e-01	-9.4025	-21.903608	0.000287	2.865609	0.485447	-0.011460
1472	7.3550e-01	-9.4215	-21.927983	0.000122	1.218953	0.206496	-0.004875
1473	7.3600e-01	-9.4425	-21.978015	0.000250	2.502061	0.423861	-0.010006
1474	7.3650e-01	-9.4648	-21.997258	0.000096	0.962331	0.163023	-0.003849
1475	7.3700e-01	-9.4855	-22.033606	0.000182	1.817737	0.307933	-0.007270
1476	7.3750e-01	-9.5039	-22.074658	0.000205	2.052973	0.347783	-0.008210
1477	7.3800e-01	-9.5225	-22.098178	0.000118	1.176183	0.199251	-0.004704
1478	7.3850e-01	-9.5432	-22.138802	0.000203	2.031588	0.344160	-0.008125
1479	7.3900e-01	-9.5637	-22.188834	0.000250	2.502061	0.423861	-0.010006
1480	7.3950e-01	-9.5838	-22.216202	0.000137	1.368649	0.231855	-0.005474
1481	7.4000e-01	-9.6040	-22.267089	0.000254	2.544832	0.431106	-0.010177
1482	7.4050e-01	-9.6247	-22.286333	0.000096	0.962331	0.163023	-0.003849
1483	7.4100e-01	-9.6455	-22.319687	0.000167	1.668041	0.282574	-0.006671
1484	7.4150e-01	-9.6632	-22.350049	0.000152	1.518345	0.257215	-0.006072
1485	7.4200e-01	-9.6864	-22.379983	0.000150	1.496960	0.253592	-0.005987
1486	7.4250e-01	-9.7047	-22.432580	0.000263	2.630372	0.445597	-0.010520
1487	7.4300e-01	-9.7230	-22.481757	0.000246	2.459291	0.416615	-0.009835
1488	7.4350e-01	-9.7449	-22.519816	0.000190	1.903277	0.322424	-0.007612
1489	7.4400e-01	-9.7633	-22.530934	0.000056	0.556014	0.094191	-0.002224
1490	7.4450e-01	-9.7846	-22.580539	0.000248	2.480676	0.420238	-0.009921
1491	7.4500e-01	-9.8020	-22.619025	0.000192	1.924662	0.326047	-0.007697
1492	7.4550e-01	-9.8234	-22.657939	0.000195	1.946048	0.329669	-0.007783
1493	7.4600e-01	-9.8420	-22.682314	0.000122	1.218953	0.206496	-0.004875
1494	7.4650e-01	-9.8640	-22.713530	0.000156	1.561115	0.264460	-0.006243
1495	7.4700e-01	-9.8829	-22.763135	0.000248	2.480676	0.420238	-0.009921
1496	7.4750e-01	-9.9043	-22.805470	0.000212	2.117129	0.358651	-0.008467
1497	7.4800e-01	-9.9223	-22.832838	0.000137	1.368649	0.231855	-0.005474
1498	7.4850e-01	-9.9439	-22.876028	0.000216	2.159899	0.365897	-0.008638
1499	7.4900e-01	-9.9635	-22.903396	0.000137	1.368649	0.231855	-0.005474
1500	7.4950e-01	-9.9842	-22.951290	0.000240	2.395136	0.405747	-0.009579
1501	7.5000e-01	-10.0000	-22.974382	0.000115	1.154797	0.195628	-0.004618
1502	7.5050e-01	-9.9836	-22.944448	0.000150	1.496960	0.253592	0.005987
1503	7.5100e-01	-9.9647	-22.932474	0.000060	0.598784	0.101437	0.002395
1504	7.5150e-01	-9.9451	-22.925205	0.000036	0.363547	0.061587	0.001454
1505	7.5200e-01	-9.9238	-22.911948	0.000066	0.662939	0.112305	0.002651
1506	7.5250e-01	-9.9055	-22.897409	0.000073	0.727095	0.123173	0.002908
1507	7.5300e-01	-9.8847	-22.866620	0.000154	1.539730	0.260837	0.006158
1508	7.5350e-01	-9.8664	-22.855929	0.000053	0.534628	0.090569	0.002138
1509	7.5400e-01	-9.8438	-22.849087	0.000034	0.342162	0.057964	0.001368
1510	7.5450e-01	-9.8273	-22.816588	0.000163	1.625271	0.275328	0.006500
1511	7.5500e-01	-9.8054	-22.789648	0.000135	1.347264	0.228233	0.005388
1512	7.5550e-01	-9.7852	-22.780240	0.000047	0.470473	0.079700	0.001882
1513	7.5600e-01	-9.7666	-22.765273	0.000075	0.748480	0.126796	0.002993
1514	7.5650e-01	-9.7474	-22.726787	0.000192	1.924662	0.326047	0.007697
1515	7.5700e-01	-9.7254	-22.708826	0.000090	0.898176	0.152155	0.003592
1516	7.5750e-01	-9.7041	-22.683597	0.000126	1.261723	0.213742	0.005046
1517	7.5800e-01	-9.6873	-22.687445	-0.000019	-0.192466	-0.032605	-0.000770
1518	7.5850e-01	-9.6632	-22.655373	0.000160	1.603885	0.271706	0.006414
1519	7.5900e-01	-9.6445	-22.637413	0.000090	0.898176	0.152155	0.003592
1520	7.5950e-01	-9.6235	-22.610900	0.000133	1.325879	0.224610	0.005303
1521	7.6000e-01	-9.6067	-22.596789	0.000071	0.705710	0.119550	0.002822
1522	7.6050e-01	-9.5832	-22.565144	0.000158	1.582500	0.268083	0.006329
1523	7.6100e-01	-9.5612	-22.545046	0.000101	1.005102	0.170269	0.004020
1524	7.6150e-01	-9.5454	-22.529224	0.000079	0.791250	0.134041	0.003164
1525	7.6200e-01	-9.5258	-22.509553	0.000098	0.983716	0.166646	0.003934
1526	7.6250e-01	-9.5048	-22.465080	0.000222	2.224054	0.376765	0.008895
1527	7.6300e-01	-9.4849	-22.442416	0.000113	1.133412	0.192005	0.004533
1528	7.6350e-01	-9.4654	-22.431298	0.000056	0.556014	0.094191	0.002224
1529	7.6400e-01	-9.4434	-22.412482	0.000094	0.940946	0.159401	0.003763
1530	7.6450e-01	-9.4245	-22.390673	0.000109	1.090642	0.184760	0.004362
1531	7.6500e-01	-9.4062	-22.364160	0.000133	1.325879	0.224610	0.005303
1532	7.6550e-01	-9.3861	-22.353042	0.000056	0.556014	0.094191	0.002224
1533	7.6600e-01	-9.3665	-22.310707	0.000212	2.117129	0.358651	0.008467
1534	7.6650e-01	-9.3452	-22.288471	0.000111	1.112027	0.188383	0.004447
1535	7.6700e-01	-9.3238	-22.268800	0.000098	0.983716	0.166646	0.003934
1536	7.6750e-01	-9.3031	-22.252123	0.000083	0.834020	0.141287	0.003335
1537	7.6800e-01	-9.2847	-22.231597	0.000103	1.026487	0.173892	0.004105
1538	7.6850e-01	-9.2646	-22.192683	0.000195	1.946048	0.329669	0.007783
1539	7.6900e-01	-9.2439	-22.172584	0.000101	1.005102	0.170269	0.004020
1540	7.6950e-01	-9.2255	-22.161038	0.000058	0.577399	0.097814	0.002309
1541	7.7000e-01	-9.2036	-22.134526	0.000133	1.325879	0.224610	0.005303
1542	7.7050e-01	-9.1865	-22.119559	0.000075	0.748480	0.126796	0.002993
1543	7.7100e-01	-9.1659	-22.075513	0.000220	2.202669	0.373142	0.008809
1544	7.7150e-01	-9.1421	-22.063112	0.000062	0.620169	0.105059	0.002480
1545	7.7200e-01	-9.1248	-22.034889	0.000141	1.411419	0.239101	0.005645
1546	7.7250e-01	-9.1053	-22.001107	0.000169	1.689426	0.286197	0.006756
1547	7.7300e-01	-9.0858	-21.979725	0.000107	1.069257	0.181137	0.004276
1548	7.7350e-01	-9.0687	-21.934397	0.000227	2.266825	0.384010	0.009066
1549	7.7400e-01	-9.0455	-21.945515	-0.000056	-0.556014	-0.094191	-0.002224
1550	7.7450e-01	-9.0257	-21.899332	0.000231	2.309595	0.391256	0.009237
1551	7.7500e-01	-9.0028	-21.879233	0.000101	1.005102	0.170269	0.004020
1552	7.7550e-01	-8.9845	-21.869826	0.000047	0.470473	0.079700	0.001882
1553	7.7600e-01	-8.9674	-21.837326	0.000163	1.625271	0.275328	0.006500
1554	7.7650e-01	-8.9429	-21.814662	0.000113	1.133412	0.192005	0.004533
1555	7.7700e-01	-8.9265	-21.786866	0.000139	1.390034	0.235478	0.005559
1556	7.7750e-01	-8.9033	-21.755222	0.000158	1.582500	0.268083	0.006329
1557	7.7800e-01	-8.8850	-21.738545	0.000083	0.834020	0.141287	0.003335
1558	7.7850e-01	-8.8660	-21.702624	0.000180	1.796352	0.304310	0.007184
1559	7.7900e-01	-8.8450	-21.670552	0.000160	1.603885	0.271706	0.006414
1560	7.7950e-01	-8.8245	-21.661572	0.000045	0.449088	0.076078	0.001796
1561	7.8000e-01	-8.8056	-21.646178	0.000077	0.769865	0.130419	0.003079
1562	7.8050e-01	-8.7840	-21.593580	0.000263	2.630372	0.445597	0.010520
1563	7.8100e-01	-8.7638	-21.573054	0.000103	1.026487	0.173892	0.004105
1564	7.8150e-01	-8.7446	-21.557232	0.000079	0.791250	0.134041	0.003164
1565	7.8200e-01	-8.7244	-21.520028	0.000186	1.860507	0.315178	0.007441
1566	7.8250e-01	-8.7061	-21.483252	0.000184	1.839122	0.311556	0.007355
1567	7.8300e-01	-8.6866	-21.472562	0.000053	0.534628	0.090569	0.002138
1568	7.8350e-01	-8.6652	-21.438779	0.000169	1.689426	0.286197	0.006756
1569	7.8400e-01	-8.6433	-21.413977	0.000124	1.240338	0.210119	0.004960
1570	7.8450e-01	-8.6243	-21.397300	0.000083	0.834020	0.141287	0.003335
1571	7.8500e-01	-8.6042	-21.365228	0.000160	1.603885	0.271706	0.006414
1572	7.8550e-01	-8.5853	-21.342991	0.000111	1.112027	0.188383	0.004447
1573	7.8600e-01	-8.5667	-21.307071	0.000180	1.796352	0.304310	0.007184
1574	7.8650e-01	-8.5468	-21.280986	0.000130	1.304493	0.220987	0.005217
1575	7.8700e-01	-8.5230	-21.257466	0.000118	1.176183	0.199251	0.004704
1576	7.8750e-01	-8.5029	-21.242499	0.000075	0.748480	0.126796	0.002993
1577	7.8800e-01	-8.4846	-21.198026	0.000222	2.224054	0.376765	0.008895
1578	7.8850e-01	-8.4663	-21.175362	0.000113	1.133412	0.192005	0.004533
1579	7.8900e-01	-8.4449	-21.131744	0.000218	2.181284	0.369520	0.008724
1580	7.8950e-01	-8.4260	-21.123620	0.000041	0.406318	0.068832	0.001625
1581	7.9000e-01	-8.4034	-21.090692	0.000165	1.646656	0.278951	0.006585
1582	7.9050e-01	-8.3872	-21.061186	0.000148	1.475575	0.249969	0.005901
1583	7.9100e-01	-8.3637	-21.038522	0.000113	1.133412	0.192005	0.004533
1584	7.9150e-01	-8.3442	-21.013292	0.000126	1.261723	0.213742	0.005046
1585	7.9200e-01	-8.3253	-20.974806	0.000192	1.924662	0.326047	0.007697
1586	7.9250e-01	-8.3039	-20.955563	0.000096	0.962331	0.163023	0.003849
1587	7.9300e-01	-8.2850	-20.924774	0.000154	1.539730	0.260837	0.006158
1588	7.9350e-01	-8.2648	-20.885005	0.000199	1.988818	0.336915	0.007954
1589	7.9400e-01	-8.2453	-20.865761	0.000096	0.962331	0.163023	0.003849
1590	7.9450e-01	-8.2252	-20.843953	0.000109	1.090642	0.184760	0.004362
1591	7.9500e-01	-8.2056	-20.814874	0.000145	1.454189	0.246346	0.005816
1592	7.9550e-01	-8.1837	-20.798197	0.000083	0.834020	0.141287	0.003335
1593	7.9600e-01	-8.1641	-20.766552	0.000158	1.582500	0.268083	0.006329
1594	7.9650e-01	-8.1446	-20.735763	0.000154	1.539730	0.260837	0.006158
1595	7.9700e-01	-8.1248	-20.687014	0.000244	2.437906	0.412992	0.009750
1596	7.9750e-01	-8.1055	-20.677179	0.000049	0.491858	0.083323	0.001967
1597	7.9800e-01	-8.0869	-20.649383	0.000139	1.390034	0.235478	0.005559
1598	7.9850e-01	-8.0662	-20.613035	0.000182	1.817737	0.307933	0.007270
1599	7.9900e-01	-8.0427	-20.585667	0.000137	1.368649	0.231855	0.005474
1600	7.9950e-01	-8.0238	-20.558299	0.000137	1.368649	0.231855	0.005474
1601	8.0000e-01	-8.0061	-20.510832	0.000237	2.373750	0.402124	0.009493
1602	8.0050e-01	-7.9844	-20.480899	0.000150	1.496960	0.253592	0.005987
1603	8.0100e-01	-7.9633	-20.471491	0.000047	0.470473	0.079700	0.001882
1604	8.0150e-01	-7.9444	-20.442412	0.000145	1.454189	0.246346	0.005816
1605	8.0200e-01	-7.9243	-20.413762	0.000143	1.432804	0.242724	0.005730
1606	8.0250e-01	-7.9047	-20.386394	0.000137	1.368649	0.231855	0.005474
1607	8.0300e-01	-7.8840	-20.350901	0.000177	1.774967	0.300687	0.007099
1608	8.0350e-01	-7.8669	-20.324388	0.000133	1.325879	0.224610	0.005303
1609	8.0400e-01	-7.8431	-20.297020	0.000137	1.368649	0.231855	0.005474
1610	8.0450e-01	-7.8266	-20.262810	0.000171	1.710811	0.289819	0.006842
1611	8.0500e-01	-7.8059	-20.232021	0.000154	1.539730	0.260837	0.006158
1612	8.0550e-01	-7.7863	-20.198666	0.000167	1.668041	0.282574	0.006671
1613	8.0600e-01	-7.7644	-20.180706	0.000090	0.898176	0.152155	0.003592
1614	8.0650e-01	-7.7460	-20.145213	0.000177	1.774967	0.300687	0.007099
1615	8.0700e-01	-7.7242	-20.127253	0.000090	0.898176	0.152155	0.003592
1616	8.0750e-01	-7.7045	-20.088766	0.000192	1.924662	0.326047	0.007697
1617	8.0800e-01	-7.6832	-20.062254	0.000133	1.325879	0.224610	0.005303
1618	8.0850e-01	-7.6621	-20.028471	0.000169	1.689426	0.286197	0.006756
1619	8.0900e-01	-7.6423	-19.990840	0.000188	1.881892	0.318801	0.007526
1620	8.0950e-01	-7.6246	-19.972452	0.000092	0.919561	0.155778	0.003678
1621	8.1000e-01	-7.6027	-19.933966	0.000192	1.924662	0.326047	0.007697
1622	8.1050e-01	-7.5849	-19.908736	0.000126	1.261723	0.213742	0.005046
1623	8.1100e-01	-7.5660	-19.899756	0.000045	0.449088	0.076078	0.001796
1624	8.1150e-01	-7.5431	-19.854855	0.000225	2.245440	0.380388	0.008980
1625	8.1200e-01	-7.5230	-19.830481	0.000122	1.218953	0.206496	0.004875
1626	8.1250e-01	-7.5043	-19.784725	0.000229	2.288210	0.387633	0.009151
1627	8.1300e-01	-7.4860	-19.756929	0.000139	1.390034	0.235478	0.005559
1628	8.1350e-01	-7.4635	-19.723574	0.000167	1.668041	0.282574	0.006671
1629	8.1400e-01	-7.4442	-19.682522	0.000205	2.052973	0.347783	0.008210
1630	8.1450e-01	-7.4207	-19.660286	0.000111	1.112027	0.188383	0.004447
1631	8.1500e-01	-7.4046	-19.639332	0.000105	1.047872	0.177514	0.004191
1632	8.1550e-01	-7.3832	-19.609826	0.000148	1.475575	0.249969	0.005901
1633	8.1600e-01	-7.3652	-19.574761	0.000175	1.753581	0.297065	0.007013
1634	8.1650e-01	-7.3441	-19.541406	0.000167	1.668041	0.282574	0.006671
1635	8.1700e-01	-7.3261	-19.509334	0.000160	1.603885	0.271706	0.006414
1636	8.1750e-01	-7.3042	-19.469137	0.000201	2.010203	0.340538	0.008039
1637	8.1800e-01	-7.2852	-19.441342	0.000139	1.390034	0.235478	0.005559
1638	8.1850e-01	-7.2675	-19.415684	0.000128	1.283108	0.217364	0.005132
1639	8.1900e-01	-7.2428	-19.389171	0.000133	1.325879	0.224610	0.005303
1640	8.1950e-01	-7.2236	-19.357527	0.000158	1.582500	0.268083	0.006329
1641	8.2000e-01	-7.2047	-19.318186	0.000197	1.967433	0.333292	0.007868
1642	8.2050e-01	-7.1851	-19.279699	0.000192	1.924662	0.326047	0.007697
1643	8.2100e-01	-7.1626	-19.258318	0.000107	1.069257	0.181137	0.004276
1644	8.2150e-01	-7.1449	-19.221542	0.000184	1.839122	0.311556	0.007355
1645	8.2200e-01	-7.1217	-19.192464	0.000145	1.454189	0.246346	0.005816
1646	8.2250e-01	-7.1052	-19.167234	0.000126	1.261723	0.213742	0.005046
1647	8.2300e-01	-7.0838	-19.114208	0.000265	2.651757	0.449220	0.010605
1648	8.2350e-01	-7.0649	-19.106939	0.000036	0.363547	0.061587	0.001454
1649	8.2400e-01	-7.0441	-19.067170	0.000199	1.988818	0.336915	0.007954
1650	8.2450e-01	-7.0228	-19.046644	0.000103	1.026487	0.173892	0.004105
1651	8.2500e-01	-7.0051	-18.988914	0.000289	2.886994	0.489070	0.011546
1652	8.2550e-01	-6.9855	-18.967533	0.000107	1.069257	0.181137	0.004276
1653	8.2600e-01	-6.9630	-18.931612	0.000180	1.796352	0.304310	0.007184
1654	8.2650e-01	-6.9453	-18.902961	0.000143	1.432804	0.242724	0.005730
1655	8.2700e-01	-6.9257	-18.871745	0.000156	1.561115	0.264460	0.006243
1656	8.2750e-01	-6.9050	-18.833686	0.000190	1.903277	0.322424	0.007612
1657	8.2800e-01	-6.8855	-18.799049	0.000173	1.732196	0.293442	0.006928
1658	8.2850e-01	-6.8620	-18.767404	0.000158	1.582500	0.268083	0.006329
1659	8.2900e-01	-6.8446	-18.746451	0.000105	1.047872	0.177514	0.004191
1660	8.2950e-01	-6.8238	-18.696846	0.000248	2.480676	0.420238	0.009921
1661	8.3000e-01	-6.8046	-18.695563	0.000006	0.064155	0.010868	0.000257
1662	8.3050e-01	-6.7860	-18.639544	0.000280	2.801453	0.474579	0.011204
1663	8.3100e-01	-6.7646	-18.600203	0.000197	1.967433	0.333292	0.007868
1664	8.3150e-01	-6.7451	-18.570697	0.000148	1.475575	0.249969	0.005901
1665	8.3200e-01	-6.7262	-18.524513	0.000231	2.309595	0.391256	0.009237
1666	8.3250e-01	-6.7060	-18.486454	0.000190	1.903277	0.322424	0.007612
1667	8.3300e-01	-6.6833	-18.471060	0.000077	0.769865	0.130419	0.003079
1668	8.3350e-01	-6.6651	-18.448823	0.000111	1.112027	0.188383	0.004447
1669	8.3400e-01	-6.6468	-18.401785	0.000235	2.352365	0.398501	0.009408
1670	8.3450e-01	-6.6225	-18.375272	0.000133	1.325879	0.224610	0.005303
1671	8.3500e-01	-6.6053	-18.340207	0.000175	1.753581	0.297065	0.007013
1672	8.3550e-01	-6.5833	-18.312411	0.000139	1.390034	0.235478	0.005559
1673	8.3600e-01	-6.5620	-18.278629	0.000169	1.689426	0.286197	0.006756
1674	8.3650e-01	-6.5449	-18.241425	0.000186	1.860507	0.315178	0.007441
1675	8.3700e-01	-6.5235	-18.210636	0.000154	1.539730	0.260837	0.006158
1676	8.3750e-01	-6.5058	-18.170012	0.000203	2.031588	0.344160	0.008125
1677	8.3800e-01	-6.4845	-18.141788	0.000141	1.411419	0.239101	0.005645
1678	8.3850e-01	-6.4649	-18.119980	0.000109	1.090642	0.184760	0.004362
1679	8.3900e-01	-6.4437	-18.065671	0.000272	2.715913	0.460088	0.010862
1680	8.3950e-01	-6.4259	-18.023336	0.000212	2.117129	0.358651	0.008467
1681	8.4000e-01	-6.4053	-18.001100	0.000111	1.112027	0.188383	0.004447
1682	8.4050e-01	-6.3819	-17.963896	0.000186	1.860507	0.315178	0.007441
1683	8.4100e-01	-6.3679	-17.933535	0.000152	1.518345	0.257215	0.006072
1684	8.4150e-01	-6.3441	-17.894193	0.000197	1.967433	0.333292	0.007868
1685	8.4200e-01	-6.3258	-17.850576	0.000218	2.181284	0.369520	0.008724
1686	8.4250e-01	-6.3020	-17.841596	0.000045	0.449088	0.076078	0.001796
1687	8.4300e-01	-6.2861	-17.795412	0.000231	2.309595	0.391256	0.009237
1688	8.4350e-01	-6.2617	-17.753505	0.000210	2.095744	0.355029	0.008381
1689	8.4400e-01	-6.2437	-17.735544	0.000090	0.898176	0.152155	0.003592
1690	8.4450e-01	-6.2244	-17.684657	0.000254	2.544832	0.431106	0.010177
1691	8.4500e-01	-6.2067	-17.650875	0.000169	1.689426	0.286197	0.006756
1692	8.4550e-01	-6.1836	-17.606402	0.000222	2.224054	0.376765	0.008895
1693	8.4600e-01	-6.1660	-17.571336	0.000175	1.753581	0.297065	0.007013
1694	8.4650e-01	-6.1433	-17.544396	0.000135	1.347264	0.228233	0.005388
1695	8.4700e-01	-6.1253	-17.514890	0.000148	1.475575	0.249969	0.005901
1696	8.4750e-01	-6.1048	-17.466141	0.000244	2.437906	0.412992	0.009750
1697	8.4800e-01	-6.0836	-17.437917	0.000141	1.411419	0.239101	0.005645
1698	8.4850e-01	-6.0651	-17.404135	0.000169	1.689426	0.286197	0.006756
1699	8.4900e-01	-6.0441	-17.369070	0.000175	1.753581	0.297065	0.007013
1700	8.4950e-01	-6.0250	-17.325452	0.000218	2.181284	0.369520	0.008724
1701	8.5000e-01	-6.0056	-17.285255	0.000201	2.010203	0.340538	0.008039
1702	8.5050e-01	-5.9846	-17.260453	0.000124	1.240338	0.210119	0.004960
1703	8.5100e-01	-5.9660	-17.223249	0.000186	1.860507	0.315178	0.007441
1704	8.5150e-01	-5.9431	-17.186901	0.000182	1.817737	0.307933	0.007270
1705	8.5200e-01	-5.9260	-17.160388	0.000133	1.325879	0.224610	0.005303
1706	8.5250e-01	-5.9046	-17.101804	0.000293	2.929764	0.496315	0.011717
1707	8.5300e-01	-5.8865	-17.074008	0.000139	1.390034	0.235478	0.005559
1708	8.5350e-01	-5.8645	-17.041081	0.000165	1.646656	0.278951	0.006585
1709	8.5400e-01	-5.8456	-17.011575	0.000148	1.475575	0.249969	0.005901
1710	8.5450e-01	-5.8259	-16.972661	0.000195	1.946048	0.329669	0.007783
1711	8.5500e-01	-5.8022	-16.937596	0.000175	1.753581	0.297065	0.007013
1712	8.5550e-01	-5.7841	-16.902103	0.000177	1.774967	0.300687	0.007099
1713	8.5600e-01	-5.7624	-16.840097	0.000310	3.100845	0.525297	0.012401
1714	8.5650e-01	-5.7441	-16.820854	0.000096	0.962331	0.163023	0.003849
1715	8.5700e-01	-5.7228	-16.782368	0.000192	1.924662	0.326047	0.007697
1716	8.5750e-01	-5.7041	-16.740460	0.000210	2.095744	0.355029	0.008381
1717	8.5800e-01	-5.6831	-16.708816	0.000158	1.582500	0.268083	0.006329
1718	8.5850e-01	-5.6667	-16.680165	0.000143	1.432804	0.242724	0.005730
1719	8.5900e-01	-5.6434	-16.627140	0.000265	2.651757	0.449220	0.010605
1720	8.5950e-01	-5.6242	-16.593785	0.000167	1.668041	0.282574	0.006671
1721	8.6000e-01	-5.6037	-16.548029	0.000229	2.288210	0.387633	0.009151
1722	8.6050e-01	-5.5857	-16.506122	0.000210	2.095744	0.355029	0.008381
1723	8.6100e-01	-5.5648	-16.496286	0.000049	0.491858	0.083323	0.001967
1724	8.6150e-01	-5.5457	-16.447965	0.000242	2.416521	0.409370	0.009664
1725	8.6200e-01	-5.5231	-16.424873	0.000115	1.154797	0.195628	0.004618
1726	8.6250e-01	-5.5030	-16.367999	0.000284	2.844223	0.481824	0.011375
1727	8.6300e-01	-5.4861	-16.323098	0.000225	2.245440	0.380388	0.008980
1728	8.6350e-01	-5.4621	-16.285895	0.000186	1.860507	0.315178	0.007441
1729	8.6400e-01	-5.4414	-16.263658	0.000111	1.112027	0.188383	0.004447
1730	8.6450e-01	-5.4255	-16.211060	0.000263	2.630372	0.445597	0.010520
1731	8.6500e-01	-5.4029	-16.160601	0.000252	2.523446	0.427483	0.010092
1732	8.6550e-01	-5.3835	-16.140502	0.000101	1.005102	0.170269	0.004020
1733	8.6600e-01	-5.3651	-16.104582	0.000180	1.796352	0.304310	0.007184
1734	8.6650e-01	-5.3437	-16.058826	0.000229	2.288210	0.387633	0.009151
1735	8.6700e-01	-5.3254	-16.013497	0.000227	2.266825	0.384010	0.009066
1736	8.6750e-01	-5.3046	-15.965603	0.000240	2.395136	0.405747	0.009579
1737	8.6800e-01	-5.2821	-15.947643	0.000090	0.898176	0.152155	0.003592
1738	8.6850e-01	-5.2625	-15.914288	0.000167	1.668041	0.282574	0.006671
1739	8.6900e-01	-5.2467	-15.864256	0.000250	2.502061	0.423861	0.010006
1740	8.6950e-01	-5.2254	-15.822349	0.000210	2.095744	0.355029	0.008381
1741	8.7000e-01	-5.2058	-15.786428	0.000180	1.796352	0.304310	0.007184
1742	8.7050e-01	-5.1838	-15.742383	0.000220	2.202669	0.373142	0.008809
1743	8.7100e-01	-5.1658	-15.715015	0.000137	1.368649	0.231855	0.005474
1744	8.7150e-01	-5.1429	-15.669687	0.000227	2.266825	0.384010	0.009066
1745	8.7200e-01	-5.1218	-15.638470	0.000156	1.561115	0.264460	0.006243
1746	8.7250e-01	-5.1029	-15.593142	0.000227	2.266825	0.384010	0.009066
1747	8.7300e-01	-5.0843	-15.554656	0.000192	1.924662	0.326047	0.007697
1748	8.7350e-01	-5.0642	-15.515742	0.000195	1.946048	0.329669	0.007783
1749	8.7400e-01	-5.0428	-15.493078	0.000113	1.133412	0.192005	0.004533
1750	8.7450e-01	-5.0227	-15.443045	0.000250	2.502061	0.423861	0.010006
1751	8.7500e-01	-5.0056	-15.401566	0.000207	2.074358	0.351406	0.008296
1752	8.7550e-01	-4.9857	-15.357093	0.000222	2.224054	0.376765	0.008895
1753	8.7600e-01	-4.9647	-15.303212	0.000269	2.694527	0.456465	0.010776
1754	8.7650e-01	-4.9439	-15.272850	0.000152	1.518345	0.257215	0.006072
1755	8.7700e-01	-4.9239	-15.235647	0.000186	1.860507	0.315178	0.007441
1756	8.7750e-01	-4.9030	-15.192885	0.000214	2.138514	0.362274	0.008553
1757	8.7800e-01	-4.8814	-15.156964	0.000180	1.796352	0.304310	0.007184
1758	8.7850e-01	-4.8629	-15.109925	0.000235	2.352365	0.398501	0.009408
1759	8.7900e-01	-4.8438	-15.069301	0.000203	2.031588	0.344160	0.008125
1760	8.7950e-01	-4.8255	-15.017558	0.000259	2.587602	0.438352	0.010349
1761	8.8000e-01	-4.8023	-14.987624	0.000150	1.496960	0.253592	0.005987
1762	8.8050e-01	-4.7846	-14.958974	0.000143	1.432804	0.242724	0.005730
1763	8.8100e-01	-4.7636	-14.896968	0.000310	3.100845	0.525297	0.012401
1764	8.8150e-01	-4.7407	-14.858909	0.000190	1.903277	0.322424	0.007612
1765	8.8200e-01	-4.7236	-14.826410	0.000163	1.625271	0.275328	0.006500
1766	8.8250e-01	-4.7031	-14.772957	0.000267	2.673142	0.452843	0.010691
1767	8.8300e-01	-4.6821	-14.740029	0.000165	1.646656	0.278951	0.006585
1768	8.8350e-01	-4.6638	-14.689142	0.000254	2.544832	0.431106	0.010177
1769	8.8400e-01	-4.6424	-14.650656	0.000192	1.924662	0.326047	0.007697
1770	8.8450e-01	-4.6232	-14.621150	0.000148	1.475575	0.249969	0.005901
1771	8.8500e-01	-4.6024	-14.597630	0.000118	1.176183	0.199251	0.004704
1772	8.8550e-01	-4.5832	-14.524079	0.000368	3.678244	0.623111	0.014710
1773	8.8600e-01	-4.5661	-14.499704	0.000122	1.218953	0.206496	0.004875
1774	8.8650e-01	-4.5405	-14.442830	0.000284	2.844223	0.481824	0.011375
1775	8.8700e-01	-4.5240	-14.428291	0.000073	0.727095	0.123173	0.002908
1776	8.8750e-01	-4.5020	-14.357305	0.000355	3.549933	0.601375	0.014197
1777	8.8800e-01	-4.4838	-14.327799	0.000148	1.475575	0.249969	0.005901
1778	8.8850e-01	-4.4637	-14.281615	0.000231	2.309595	0.391256	0.009237
1779	8.8900e-01	-4.4410	-14.236714	0.000225	2.245440	0.380388	0.008980
1780	8.8950e-01	-4.4196	-14.197373	0.000197	1.967433	0.333292	0.007868
1781	8.9000e-01	-4.4038	-14.172143	0.000126	1.261723	0.213742	0.005046
1782	8.9050e-01	-4.3831	-14.097309	0.000374	3.742399	0.633980	0.014967
1783	8.9100e-01	-4.3607	-14.053263	0.000220	2.202669	0.373142	0.008809
1784	8.9150e-01	-4.3412	-14.016915	0.000182	1.817737	0.307933	0.007270
1785	8.9200e-01	-4.3247	-13.993396	0.000118	1.176183	0.199251	0.004704
1786	8.9250e-01	-4.3049	-13.933101	0.000302	3.015305	0.510806	0.012059
1787	8.9300e-01	-4.2825	-13.877509	0.000278	2.780068	0.470956	0.011118
1788	8.9350e-01	-4.2652	-13.847575	0.000150	1.496960	0.253592	0.005987
1789	8.9400e-01	-4.2445	-13.797543	0.000250	2.502061	0.423861	0.010006
1790	8.9450e-01	-4.2216	-13.770175	0.000137	1.368649	0.231855	0.005474
1791	8.9500e-01	-4.2027	-13.730834	0.000197	1.967433	0.333292	0.007868
1792	8.9550e-01	-4.1822	-13.672249	0.000293	2.929764	0.496315	0.011717
1793	8.9600e-01	-4.1618	-13.631625	0.000203	2.031588	0.344160	0.008125
1794	8.9650e-01	-4.1438	-13.586296	0.000227	2.266825	0.384010	0.009066
1795	8.9700e-01	-4.1206	-13.517021	0.000346	3.464392	0.586884	0.013855
1796	8.9750e-01	-4.1035	-13.491791	0.000126	1.261723	0.213742	0.005046
1797	8.9800e-01	-4.0833	-13.443470	0.000242	2.416521	0.409370	0.009664
1798	8.9850e-01	-4.0601	-13.405411	0.000190	1.903277	0.322424	0.007612
1799	8.9900e-01	-4.0418	-13.376760	0.000143	1.432804	0.242724	0.005730
1800	8.9950e-01	-4.0211	-13.321596	0.000276	2.758683	0.467334	0.011033
1801	9.0000e-01	-4.0022	-13.279689	0.000210	2.095744	0.355029	0.008381
1802	9.0050e-01	-3.9838	-13.228374	0.000257	2.566217	0.434729	0.010263
1803	9.0100e-01	-3.9619	-13.173210	0.000276	2.758683	0.467334	0.011033
1804	9.0150e-01	-3.9436	-13.141139	0.000160	1.603885	0.271706	0.006414
1805	9.0200e-01	-3.9228	-13.084692	0.000282	2.822838	0.478202	0.011289
1806	9.0250e-01	-3.9002	-13.048771	0.000180	1.796352	0.304310	0.007184
1807	9.0300e-01	-3.8831	-13.006009	0.000214	2.138514	0.362274	0.008553
1808	9.0350e-01	-3.8636	-12.957260	0.000244	2.437906	0.412992	0.009750
1809	9.0400e-01	-3.8428	-12.905945	0.000257	2.566217	0.434729	0.010263
1810	9.0450e-01	-3.8241	-12.861899	0.000220	2.202669	0.373142	0.008809
1811	9.0500e-01	-3.8039	-12.818709	0.000216	2.159899	0.365897	0.008638
1812	9.0550e-01	-3.7797	-12.788348	0.000152	1.518345	0.257215	0.006072
1813	9.0600e-01	-3.7618	-12.720783	0.000338	3.378852	0.572393	0.013513
1814	9.0650e-01	-3.7434	-12.695125	0.000128	1.283108	0.217364	0.005132
1815	9.0700e-01	-3.7241	-12.643383	0.000259	2.587602	0.438352	0.010349
1816	9.0750e-01	-3.7034	-12.595061	0.000242	2.416521	0.409370	0.009664
1817	9.0800e-01	-3.6811	-12.539897	0.000276	2.758683	0.467334	0.011033
1818	9.0850e-01	-3.6600	-12.501839	0.000190	1.903277	0.322424	0.007612
1819	9.0900e-01	-3.6409	-12.449668	0.000261	2.608987	0.441974	0.010434
1820	9.0950e-01	-3.6213	-12.402202	0.000237	2.373750	0.402124	0.009493
1821	9.1000e-01	-3.6013	-12.351742	0.000252	2.523446	0.427483	0.010092
1822	9.1050e-01	-3.5812	-12.303421	0.000242	2.416521	0.409370	0.009664
1823	9.1100e-01	-3.5615	-12.262369	0.000205	2.052973	0.347783	0.008210
1824	9.1150e-01	-3.5433	-12.218751	0.000218	2.181284	0.369520	0.008724
1825	9.1200e-01	-3.5227	-12.158456	0.000302	3.015305	0.510806	0.012059
1826	9.1250e-01	-3.5011	-12.134081	0.000122	1.218953	0.206496	0.004875
1827	9.1300e-01	-3.4826	-12.064806	0.000346	3.464392	0.586884	0.013855
1828	9.1350e-01	-3.4632	-12.021616	0.000216	2.159899	0.365897	0.008638
1829	9.1400e-01	-3.4440	-11.977998	0.000218	2.181284	0.369520	0.008724
1830	9.1450e-01	-3.4248	-11.945071	0.000165	1.646656	0.278951	0.006585
1831	9.1500e-01	-3.4023	-11.875368	0.000349	3.485778	0.590507	0.013941
1832	9.1550e-01	-3.3845	-11.821487	0.000269	2.694527	0.456465	0.010776
1833	9.1600e-01	-3.3613	-11.774876	0.000233	2.330980	0.394879	0.009322
1834	9.1650e-01	-3.3445	-11.733396	0.000207	2.074358	0.351406	0.008296
1835	9.1700e-01	-3.3247	-11.682509	0.000254	2.544832	0.431106	0.010177
1836	9.1750e-01	-3.3039	-11.637180	0.000227	2.266825	0.384010	0.009066
1837	9.1800e-01	-3.2822	-11.591425	0.000229	2.288210	0.387633	0.009151
1838	9.1850e-01	-3.2630	-11.535406	0.000280	2.801453	0.474579	0.011204
1839	9.1900e-01	-3.2417	-11.497347	0.000190	1.903277	0.322424	0.007612
1840	9.1950e-01	-3.2228	-11.453302	0.000220	2.202669	0.373142	0.008809
1841	9.2000e-01	-3.2029	-11.406690	0.000233	2.330980	0.394879	0.009322
1842	9.2050e-01	-3.1806	-11.351527	0.000276	2.758683	0.467334	0.011033
1843	9.2100e-01	-3.1608	-11.280113	0.000357	3.571318	0.604998	0.014283
1844	9.2150e-01	-3.1406	-11.248897	0.000156	1.561115	0.264460	0.006243
1845	9.2200e-01	-3.1242	-11.184325	0.000323	3.229156	0.547034	0.012914
1846	9.2250e-01	-3.1025	-11.138569	0.000229	2.288210	0.387633	0.009151
1847	9.2300e-01	-3.0836	-11.105215	0.000167	1.668041	0.282574	0.006671
1848	9.2350e-01	-3.0622	-11.046202	0.000295	2.951149	0.499938	0.011802
1849	9.2400e-01	-3.0415	-10.999591	0.000233	2.330980	0.394879	0.009322
1850	9.2450e-01	-3.0219	-10.951269	0.000242	2.416521	0.409370	0.009664
1851	9.2500e-01	-3.0025	-10.884988	0.000331	3.314696	0.561525	0.013256
1852	9.2550e-01	-2.9841	-10.851205	0.000169	1.689426	0.286197	0.006756
1853	9.2600e-01	-2.9623	-10.782357	0.000344	3.443007	0.583261	0.013770
1854	9.2650e-01	-2.9398	-10.749858	0.000163	1.625271	0.275328	0.006500
1855	9.2700e-01	-2.9218	-10.689563	0.000302	3.015305	0.510806	0.012059
1856	9.2750e-01	-2.9023	-10.636965	0.000263	2.630372	0.445597	0.010520
1857	9.2800e-01	-2.8838	-10.583512	0.000267	2.673142	0.452843	0.010691
1858	9.2850e-01	-2.8635	-10.532624	0.000254	2.544832	0.431106	0.010177
1859	9.2900e-01	-2.8407	-10.504829	0.000139	1.390034	0.235478	0.005559
1860	9.2950e-01	-2.8236	-10.440257	0.000323	3.229156	0.547034	0.012914
1861	9.3000e-01	-2.8025	-10.369271	0.000355	3.549933	0.601375	0.014197
1862	9.3050e-01	-2.7821	-10.326937	0.000212	2.117129	0.358651	0.008467
1863	9.3100e-01	-2.7604	-10.277332	0.000248	2.480676	0.420238	0.009921
1864	9.3150e-01	-2.7431	-10.232004	0.000227	2.266825	0.384010	0.009066
1865	9.3200e-01	-2.7241	-10.170853	0.000306	3.058075	0.518052	0.012230
1866	9.3250e-01	-2.7033	-10.139637	0.000156	1.561115	0.264460	0.006243
1867	9.3300e-01	-2.6826	-10.070789	0.000344	3.443007	0.583261	0.013770
1868	9.3350e-01	-2.6575	-10.031448	0.000197	1.967433	0.333292	0.007868
1869	9.3400e-01	-2.6414	-9.962600	0.000344	3.443007	0.583261	0.013770
1870	9.3450e-01	-2.6221	-9.910430	0.000261	2.608987	0.441974	0.010434
1871	9.3500e-01	-2.6039	-9.883489	0.000135	1.347264	0.228233	0.005388
1872	9.3550e-01	-2.5819	-9.809082	0.000372	3.721014	0.630357	0.014881
1873	9.3600e-01	-2.5605	-9.750498	0.000293	2.929764	0.496315	0.011717
1874	9.3650e-01	-2.5417	-9.692768	0.000289	2.886994	0.489070	0.011546
1875	9.3700e-01	-2.5211	-9.660269	0.000163	1.625271	0.275328	0.006500
1876	9.3750e-01	-2.4995	-9.592704	0.000338	3.378852	0.572393	0.013513
1877	9.3800e-01	-2.4848	-9.539678	0.000265	2.651757	0.449220	0.010605
1878	9.3850e-01	-2.4638	-9.490502	0.000246	2.459291	0.416615	0.009835
1879	9.3900e-01	-2.4424	-9.442608	0.000240	2.395136	0.405747	0.009579
1880	9.3950e-01	-2.4197	-9.385733	0.000284	2.844223	0.481824	0.011375
1881	9.4000e-01	-2.4012	-9.331853	0.000269	2.694527	0.456465	0.010776
1882	9.4050e-01	-2.3811	-9.261722	0.000351	3.507163	0.594129	0.014026
1883	9.4100e-01	-2.3612	-9.230505	0.000156	1.561115	0.264460	0.006243
1884	9.4150e-01	-2.3392	-9.168072	0.000312	3.122230	0.528920	0.012487
1885	9.4200e-01	-2.3219	-9.095803	0.000361	3.614088	0.612243	0.014454
1886	9.4250e-01	-2.3025	-9.061593	0.000171	1.710811	0.289819	0.006842
1887	9.4300e-01	-2.2836	-8.987187	0.000372	3.721014	0.630357	0.014881
1888	9.4350e-01	-2.2602	-8.953832	0.000167	1.668041	0.282574	0.006671
1889	9.4400e-01	-2.2417	-8.907221	0.000233	2.330980	0.394879	0.009322
1890	9.4450e-01	-2.2242	-8.840939	0.000331	3.314696	0.561525	0.013256
1891	9.4500e-01	-2.2057	-8.792617	0.000242	2.416521	0.409370	0.009664
1892	9.4550e-01	-2.1853	-8.746006	0.000233	2.330980	0.394879	0.009322
1893	9.4600e-01	-2.1615	-8.666895	0.000396	3.956251	0.670207	0.015822
1894	9.4650e-01	-2.1438	-8.606600	0.000302	3.015305	0.510806	0.012059
1895	9.4700e-01	-2.1238	-8.563838	0.000214	2.138514	0.362274	0.008553
1896	9.4750e-01	-2.1058	-8.506963	0.000284	2.844223	0.481824	0.011375
1897	9.4800e-01	-2.0841	-8.451372	0.000278	2.780068	0.470956	0.011118
1898	9.4850e-01	-2.0641	-8.379103	0.000361	3.614088	0.612243	0.014454
1899	9.4900e-01	-2.0414	-8.342328	0.000184	1.839122	0.311556	0.007355
1900	9.4950e-01	-2.0228	-8.269204	0.000366	3.656859	0.619489	0.014625
1901	9.5000e-01	-2.0039	-8.217461	0.000259	2.587602	0.438352	0.010349
1902	9.5050e-01	-1.9837	-8.164008	0.000267	2.673142	0.452843	0.010691
1903	9.5100e-01	-1.9611	-8.122101	0.000210	2.095744	0.355029	0.008381
1904	9.5150e-01	-1.9471	-8.063944	0.000291	2.908379	0.492693	0.011631
1905	9.5200e-01	-1.9247	-7.984833	0.000396	3.956251	0.670207	0.015822
1906	9.5250e-01	-1.9009	-7.943781	0.000205	2.052973	0.347783	0.008210
1907	9.5300e-01	-1.8832	-7.893321	0.000252	2.523446	0.427483	0.010092
1908	9.5350e-01	-1.8662	-7.822763	0.000353	3.528548	0.597752	0.014112
1909	9.5400e-01	-1.8415	-7.803947	0.000094	0.940946	0.159401	0.003763
1910	9.5450e-01	-1.8211	-7.726120	0.000389	3.892095	0.659339	0.015566
1911	9.5500e-01	-1.8026	-7.660265	0.000329	3.293311	0.557902	0.013171
1912	9.5550e-01	-1.7835	-7.605957	0.000272	2.715913	0.460088	0.010862
1913	9.5600e-01	-1.7622	-7.546517	0.000297	2.972534	0.503561	0.011888
1914	9.5650e-01	-1.7410	-7.484511	0.000310	3.100845	0.525297	0.012401
1915	9.5700e-01	-1.7237	-7.428492	0.000280	2.801453	0.474579	0.011204
1916	9.5750e-01	-1.7005	-7.363066	0.000327	3.271926	0.554279	0.013085
1917	9.5800e-01	-1.6810	-7.319020	0.000220	2.202669	0.373142	0.008809
1918	9.5850e-01	-1.6624	-7.243331	0.000379	3.785170	0.641225	0.015138
1919	9.5900e-01	-1.6407	-7.209548	0.000169	1.689426	0.286197	0.006756
1920	9.5950e-01	-1.6215	-7.145832	0.000319	3.186386	0.539788	0.012743
1921	9.6000e-01	-1.6018	-7.084254	0.000308	3.079460	0.521675	0.012316
1922	9.6050e-01	-1.5854	-7.030373	0.000269	2.694527	0.456465	0.010776
1923	9.6100e-01	-1.5630	-6.957677	0.000364	3.635474	0.615866	0.014539
1924	9.6150e-01	-1.5443	-6.911921	0.000229	2.288210	0.387633	0.009151
1925	9.6200e-01	-1.5226	-6.843073	0.000344	3.443007	0.583261	0.013770
1926	9.6250e-01	-1.5037	-6.776364	0.000334	3.336082	0.565148	0.013342
1927	9.6300e-01	-1.4819	-6.739161	0.000186	1.860507	0.315178	0.007441
1928	9.6350e-01	-1.4622	-6.684424	0.000274	2.737298	0.463711	0.010947
1929	9.6400e-01	-1.4414	-6.608735	0.000379	3.785170	0.641225	0.015138
1930	9.6450e-01	-1.4220	-6.542881	0.000329	3.293311	0.557902	0.013171
1931	9.6500e-01	-1.4024	-6.509098	0.000169	1.689426	0.286197	0.006756
1932	9.6550e-01	-1.3833	-6.432553	0.000383	3.827940	0.648471	0.015309
1933	9.6600e-01	-1.3618	-6.374824	0.000289	2.886994	0.489070	0.011546
1934	9.6650e-01	-1.3406	-6.301272	0.000368	3.678244	0.623111	0.014710
1935	9.6700e-01	-1.3221	-6.253806	0.000237	2.373750	0.402124	0.009493
1936	9.6750e-01	-1.3013	-6.196076	0.000289	2.886994	0.489070	0.011546
1937	9.6800e-01	-1.2808	-6.126373	0.000349	3.485778	0.590507	0.013941
1938	9.6850e-01	-1.2620	-6.093446	0.000165	1.646656	0.278951	0.006585
1939	9.6900e-01	-1.2421	-5.999796	0.000468	4.683345	0.793380	0.018730
1940	9.6950e-01	-1.2226	-5.959172	0.000203	2.031588	0.344160	0.008125
1941	9.7000e-01	-1.2035	-5.899732	0.000297	2.972534	0.503561	0.011888
1942	9.7050e-01	-1.1809	-5.832595	0.000336	3.357467	0.568770	0.013427
1943	9.7100e-01	-1.1633	-5.764603	0.000340	3.400237	0.576016	0.013598
1944	9.7150e-01	-1.1450	-5.698748	0.000329	3.293311	0.557902	0.013171
1945	9.7200e-01	-1.1213	-5.644012	0.000274	2.737298	0.463711	0.010947
1946	9.7250e-01	-1.1004	-5.594408	0.000248	2.480676	0.420238	0.009921
1947	9.7300e-01	-1.0822	-5.531974	0.000312	3.122230	0.528920	0.012487
1948	9.7350e-01	-1.0609	-5.472107	0.000299	2.993919	0.507184	0.011974
1949	9.7400e-01	-1.0412	-5.421647	0.000252	2.523446	0.427483	0.010092
1950	9.7450e-01	-1.0226	-5.353655	0.000340	3.400237	0.576016	0.013598
1951	9.7500e-01	-1.0030	-5.271123	0.000413	4.127332	0.699189	0.016506
1952	9.7550e-01	-0.9828	-5.239479	0.000158	1.582500	0.268083	0.006329
1953	9.7600e-01	-0.9617	-5.158230	0.000406	4.063176	0.688321	0.016250
1954	9.7650e-01	-0.9399	-5.124875	0.000167	1.668041	0.282574	0.006671
1955	9.7700e-01	-0.9192	-5.038922	0.000430	4.298413	0.728171	0.017191
1956	9.7750e-01	-0.9016	-4.984186	0.000274	2.737298	0.463711	0.010947
1957	9.7800e-01	-0.8801	-4.921753	0.000312	3.122230	0.528920	0.012487
1958	9.7850e-01	-0.8610	-4.849484	0.000361	3.614088	0.612243	0.014454
1959	9.7900e-01	-0.8421	-4.790045	0.000297	2.972534	0.503561	0.011888
1960	9.7950e-01	-0.8231	-4.734453	0.000278	2.780068	0.470956	0.011118
1961	9.8000e-01	-0.8012	-4.679717	0.000274	2.737298	0.463711	0.010947
1962	9.8050e-01	-0.7812	-4.606166	0.000368	3.678244	0.623111	0.014710
1963	9.8100e-01	-0.7623	-4.541167	0.000325	3.250541	0.550657	0.013000
1964	9.8150e-01	-0.7442	-4.472747	0.000342	3.421622	0.579638	0.013684
1965	9.8200e-01	-0.7217	-4.432550	0.000201	2.010203	0.340538	0.008039
1966	9.8250e-01	-0.7033	-4.364985	0.000338	3.378852	0.572393	0.013513
1967	9.8300e-01	-0.6821	-4.277322	0.000438	4.383953	0.742662	0.017533
1968	9.8350e-01	-0.6635	-4.264493	0.000064	0.641554	0.108682	0.002566
1969	9.8400e-01	-0.6425	-4.158870	0.000528	5.282129	0.894817	0.021125
1970	9.8450e-01	-0.6233	-4.122949	0.000180	1.796352	0.304310	0.007184
1971	9.8500e-01	-0.6020	-4.045121	0.000389	3.892095	0.659339	0.015566
1972	9.8550e-01	-0.5833	-3.969432	0.000379	3.785170	0.641225	0.015138
1973	9.8600e-01	-0.5601	-3.914268	0.000276	2.758683	0.467334	0.011033
1974	9.8650e-01	-0.5443	-3.850124	0.000321	3.207771	0.543411	0.012829
1975	9.8700e-01	-0.5240	-3.786836	0.000317	3.165001	0.536166	0.012658
1976	9.8750e-01	-0.5053	-3.733810	0.000265	2.651757	0.449220	0.010605
1977	9.8800e-01	-0.4809	-3.661114	0.000364	3.635474	0.615866	0.014539
1978	9.8850e-01	-0.4629	-3.601246	0.000299	2.993919	0.507184	0.011974
1979	9.8900e-01	-0.4423	-3.542234	0.000295	2.951149	0.499938	0.011802
1980	9.8950e-01	-0.4246	-3.468255	0.000370	3.699629	0.626734	0.014796
1981	9.9000e-01	-0.4027	-3.400262	0.000340	3.400237	0.576016	0.013598
1982	9.9050e-01	-0.3830	-3.349803	0.000252	2.523446	0.427483	0.010092
1983	9.9100e-01	-0.3622	-3.273685	0.000381	3.806555	0.644848	0.015223
1984	9.9150e-01	-0.3438	-3.206120	0.000338	3.378852	0.572393	0.013513
1985	9.9200e-01	-0.3215	-3.141549	0.000323	3.229156	0.547034	0.012914
1986	9.9250e-01	-0.3000	-3.073557	0.000340	3.400237	0.576016	0.013598
1987	9.9300e-01	-0.2842	-3.025663	0.000240	2.395136	0.405747	0.009579
1988	9.9350e-01	-0.2610	-2.957670	0.000340	3.400237	0.576016	0.013598
1989	9.9400e-01	-0.2423	-2.878987	0.000393	3.934866	0.666584	0.015737
1990	9.9450e-01	-0.2197	-2.821685	0.000287	2.865609	0.485447	0.011460
1991	9.9500e-01	-0.2028	-2.755831	0.000329	3.293311	0.557902	0.013171
1992	9.9550e-01	-0.1811	-2.698102	0.000289	2.886994	0.489070	0.011546
1993	9.9600e-01	-0.1620	-2.619846	0.000391	3.913480	0.662962	0.015651
1994	9.9650e-01	-0.1423	-2.553992	0.000329	3.293311	0.557902	0.013171
1995	9.9700e-01	-0.1217	-2.494980	0.000295	2.951149	0.499938	0.011802
1996	9.9750e-01	-0.1015	-2.436823	0.000291	2.908379	0.492693	0.011631
1997	9.9800e-01	-0.0816	-2.362416	0.000372	3.721014	0.630357	0.014881
1998	9.9850e-01	-0.0611	-2.297844	0.000323	3.229156	0.547034	0.012914
1999	9.9900e-01	-0.0415	-2.243108	0.000274	2.737298	0.463711	0.010947
2000	9.9950e-01	-0.0193	-2.184524	0.000293	2.929764	0.496315	0.011717
2001	1.0000e+00	-0.0034	-2.129788	0.000293	2.929764	0.496315	0.010947

Smooth data before PMax, +/-Pr and +/-Vc Calc.

PMax (uC/cm2):	2.52e+01
Pr (uC/cm2):	4.44e+00
-Pr (uC/cm2):	1.13e-01
PLoss (uC/cm2):	8.61e-02
Vc:	-4.92e-02
-Vc:	-1.42e+00
C (Max-Eff) (nF):	2.52e-01
K (Eff):	4.28e+02
Vert. (+/-Pr) Shift (uC/cm2):	2.28e+00
Horiz. Shift (+/-Vc):	-7.35e-01
Offset (uC/cm2):	2.26e+00

A (Loop Area - uC/cm2·Volts):	-1.50e-03



Hysteresis Version: 5.48.1 - Radiant Technologies, Inc., 1999 - 9/12/24

