»»»»»»»»»»»»»»»»»»»»»»»»»»»»»»»»»»»» Hysteresis ««««««««««««««««««««««««««««««««««««
»»»  Executed Version:	5.48.1
»»»  Vision Version:	5.48.4 (R)
»»»  Vision Compiled:	9/18/24
»»»  Driver Version:	5.47.0
»»»  Windows Version:	Windows 8 or 8.1
»»»  Processor Information:	x86 (AMD or Intel) - 32 Processors
»»»  Tester Name:	PMF21124-494 (100V)
»»»  Tester S/N:	PMF21124-494
»»»  Internal Amp Type:	100V RevK 270k
»»»  Internal Amp S/N:	iAB2-596/K     
»»»  Execution Count:	1
»»»»»»»»»»»»»»»»»»»»»»»»»»»»»»»»»»»»»»»»»»««««««««««««««««««««««««««««««««««««««««««

Stored:	6/10/2025 - 14:9:11
Configured:	06/10/25 02:01:08 PM
Executed:	06/10/25 02:08:43 PM

»»»»»»»»»»»»»»»»»»»»»»»»»»»»»»»»»»» Sample Info ««««««««««««««««««««««««««««««««««««
Sample Name:	
Lot Name:	
Wafer Name:	
Die Row/Column:	0/0
Capacitor Number:	0
Sample Area (cm2):	1.00e-04
Sample Thickness (microns):	3.00e-01

Amplifier:	Internal

»»»»»»»»»»»»»»»»»»»»»»»»»»»»»»»»»»» Tester Info «««««««««««««««««««««««««««««««««««
Tester Name:	PMF21124-494 (100V)
Tester Serial Number:	PMF21124-494
Return Signal Amp. Level:	0.19 [Index: 3]

»»»»»»»»»»»»»»»»»»»»»»»»»»»»»»»» Hysteresis Info ««««««««««««««««««««««««««««««««««
Task Name:	Hyst-1027
Volts:	20.00
Field:	666.67 (kV/cm)
DCBias:	0.00
DCField:	0.00 (kV/cm)
Hysteresis Period (ms):	2.00e+02
Preset:	Enabled
Preset Delay (ms):	1.00e+03
Profile:	Standard Bipolar

»»»»»»»»»»»»»»»»»»»»»»»»»»»»»»»»»»»»»» Data «««««««««««««««««««««««««««««««««««««««
Points:	2009

Valid Data

Point	Time (ms)	Drive Voltage	Measured Polarization (uC/cm2)	Capacitance (uF)	Normalized Capacitance (uF/cm2)	Dielectric Constant	Instantaneous Current (mA)
   1	0.0000e+00	-0.0273	14.182458	0.000051	0.506732	0.171686	0.000020
   2	9.9500e-02	0.0112	14.202644	0.000051	0.506732	0.171686	0.000020
   3	1.9900e-01	0.0497	14.251089	0.000122	1.216158	0.412045	0.000049
   4	2.9850e-01	0.0914	14.311646	0.000152	1.520197	0.515057	0.000061
   5	3.9800e-01	0.1251	14.436797	0.000314	3.141741	1.064451	0.000126
   6	4.9750e-01	0.1717	14.549837	0.000284	2.837702	0.961439	0.000114
   7	5.9700e-01	0.1973	14.679026	0.000324	3.243087	1.098788	0.000130
   8	6.9650e-01	0.2503	14.852622	0.000436	4.357899	1.476496	0.000174
   9	7.9600e-01	0.2888	14.993922	0.000355	3.547127	1.201799	0.000142
  10	8.9550e-01	0.3257	15.211927	0.000547	5.472710	1.854204	0.000219
  11	9.9500e-01	0.3561	15.397636	0.000466	4.661938	1.579507	0.000187
  12	1.0945e+00	0.4091	15.611604	0.000537	5.371364	1.819867	0.000215
  13	1.1940e+00	0.4508	15.825572	0.000537	5.371364	1.819867	0.000215
  14	1.2935e+00	0.4909	16.059726	0.000588	5.878096	1.991553	0.000235
  15	1.3930e+00	0.5230	16.261583	0.000507	5.067324	1.716856	0.000203
  16	1.4925e+00	0.5631	16.511885	0.000628	6.283482	2.128901	0.000252
  17	1.5920e+00	0.6000	16.750076	0.000598	5.979443	2.025890	0.000239
  18	1.6915e+00	0.6577	16.996341	0.000618	6.182136	2.094564	0.000248
  19	1.7910e+00	0.6850	17.282978	0.000720	7.195600	2.437935	0.000288
  20	1.8905e+00	0.7331	17.561540	0.000699	6.992907	2.369261	0.000280
  21	1.9900e+00	0.7620	17.795694	0.000588	5.878096	1.991553	0.000235
  22	2.0895e+00	0.7909	18.114628	0.000801	8.006372	2.712632	0.000321
  23	2.1890e+00	0.8406	18.364930	0.000628	6.283482	2.128901	0.000252
  24	2.2885e+00	0.8807	18.651567	0.000720	7.195600	2.437935	0.000288
  25	2.3880e+00	0.9337	18.938204	0.000720	7.195600	2.437935	0.000288
  26	2.4875e+00	0.9609	19.245026	0.000770	7.702333	2.609621	0.000308
  27	2.5870e+00	1.0010	19.487254	0.000608	6.080789	2.060227	0.000243
  28	2.6865e+00	1.0444	19.834448	0.000872	8.715798	2.952992	0.000349
  29	2.7860e+00	1.0813	20.117047	0.000709	7.094254	2.403598	0.000284
  30	2.8855e+00	1.1214	20.423870	0.000770	7.702333	2.609621	0.000308
  31	2.9850e+00	1.1615	20.734729	0.000780	7.803679	2.643958	0.000312
  32	3.0845e+00	1.2176	21.033477	0.000750	7.499640	2.540947	0.000300
  33	3.1840e+00	1.2513	21.328188	0.000740	7.398293	2.506610	0.000296
  34	3.2835e+00	1.2738	21.639048	0.000780	7.803679	2.643958	0.000312
  35	3.3830e+00	1.3171	21.962018	0.000811	8.107719	2.746969	0.000325
  36	3.4825e+00	1.3556	22.268841	0.000770	7.702333	2.609621	0.000308
  37	3.5820e+00	1.3973	22.571626	0.000760	7.600986	2.575284	0.000304
  38	3.6815e+00	1.4454	22.886522	0.000791	7.905026	2.678295	0.000316
  39	3.7810e+00	1.4839	23.229679	0.000861	8.614451	2.918655	0.000345
  40	3.8805e+00	1.5336	23.528427	0.000750	7.499640	2.540947	0.000300
  41	3.9800e+00	1.5545	23.895806	0.000922	9.222530	3.124678	0.000369
  42	4.0795e+00	1.6042	24.202629	0.000770	7.702333	2.609621	0.000308
  43	4.1790e+00	1.6524	24.541748	0.000851	8.513105	2.884318	0.000341
  44	4.2785e+00	1.6844	24.872793	0.000831	8.310412	2.815644	0.000333
  45	4.3780e+00	1.7149	25.175578	0.000760	7.600986	2.575284	0.000304
  46	4.4775e+00	1.7647	25.542958	0.000922	9.222530	3.124678	0.000369
  47	4.5770e+00	1.7983	25.849780	0.000770	7.702333	2.609621	0.000308
  48	4.6765e+00	1.8433	26.196974	0.000872	8.715798	2.952992	0.000349
  49	4.7760e+00	1.8898	26.540130	0.000861	8.614451	2.918655	0.000345
  50	4.8755e+00	1.9235	26.895398	0.000892	8.918491	3.021666	0.000357
  51	4.9750e+00	1.9668	27.226443	0.000831	8.310412	2.815644	0.000333
  52	5.0745e+00	2.0037	27.545377	0.000801	8.006372	2.712632	0.000321
  53	5.1740e+00	2.0374	27.912756	0.000922	9.222530	3.124678	0.000369
  54	5.2735e+00	2.0775	28.211505	0.000750	7.499640	2.540947	0.000300
  55	5.3730e+00	2.1240	28.574847	0.000912	9.121184	3.090341	0.000365
  56	5.4725e+00	2.1657	28.922040	0.000872	8.715798	2.952992	0.000349
  57	5.5720e+00	2.1994	29.269234	0.000872	8.715798	2.952992	0.000349
  58	5.6715e+00	2.2379	29.592205	0.000811	8.107719	2.746969	0.000325
  59	5.7710e+00	2.2860	29.923250	0.000831	8.310412	2.815644	0.000333
  60	5.8705e+00	2.3261	30.331001	0.001024	10.235995	3.468049	0.000410
  61	5.9700e+00	2.3582	30.653972	0.000811	8.107719	2.746969	0.000325
  62	6.0695e+00	2.3999	30.972905	0.000801	8.006372	2.712632	0.000321
  63	6.1690e+00	2.4384	31.324136	0.000882	8.817144	2.987329	0.000353
  64	6.2685e+00	2.4737	31.683441	0.000902	9.019837	3.056004	0.000361
  65	6.3680e+00	2.5138	32.030635	0.000872	8.715798	2.952992	0.000349
  66	6.4675e+00	2.5571	32.406089	0.000943	9.425223	3.193352	0.000377
  67	6.5670e+00	2.6069	32.769431	0.000912	9.121184	3.090341	0.000365
  68	6.6665e+00	2.6374	33.108550	0.000851	8.513105	2.884318	0.000341
  69	6.7660e+00	2.6791	33.463818	0.000892	8.918491	3.021666	0.000357
  70	6.8655e+00	2.7288	33.802938	0.000851	8.513105	2.884318	0.000341
  71	6.9650e+00	2.7497	34.170317	0.000922	9.222530	3.124678	0.000369
  72	7.0645e+00	2.7978	34.513473	0.000861	8.614451	2.918655	0.000345
  73	7.1640e+00	2.8411	34.848556	0.000841	8.411758	2.849981	0.000337
  74	7.2635e+00	2.8796	35.195749	0.000872	8.715798	2.952992	0.000349
  75	7.3630e+00	2.9181	35.567166	0.000932	9.323877	3.159015	0.000373
  76	7.4625e+00	2.9630	35.918397	0.000882	8.817144	2.987329	0.000353
  77	7.5620e+00	2.9999	36.257516	0.000851	8.513105	2.884318	0.000341
  78	7.6615e+00	3.0320	36.620858	0.000912	9.121184	3.090341	0.000365
  79	7.7610e+00	3.0801	36.939792	0.000801	8.006372	2.712632	0.000321
  80	7.8605e+00	3.1234	37.254689	0.000791	7.905026	2.678295	0.000316
  81	7.9600e+00	3.1635	37.634179	0.000953	9.526570	3.227689	0.000381
  82	8.0595e+00	3.1988	37.961187	0.000821	8.209065	2.781307	0.000329
  83	8.1590e+00	3.2373	38.304344	0.000861	8.614451	2.918655	0.000345
  84	8.2585e+00	3.2646	38.655575	0.000882	8.817144	2.987329	0.000353
  85	8.3580e+00	3.3240	38.998731	0.000861	8.614451	2.918655	0.000345
  86	8.4575e+00	3.3641	39.337851	0.000851	8.513105	2.884318	0.000341
  87	8.5570e+00	3.3913	39.705230	0.000922	9.222530	3.124678	0.000369
  88	8.6565e+00	3.4315	40.064535	0.000902	9.019837	3.056004	0.000361
  89	8.7560e+00	3.4764	40.363283	0.000750	7.499640	2.540947	0.000300
  90	8.8555e+00	3.5213	40.698365	0.000841	8.411758	2.849981	0.000337
  91	8.9550e+00	3.5582	41.061708	0.000912	9.121184	3.090341	0.000365
  92	9.0545e+00	3.5983	41.380641	0.000801	8.006372	2.712632	0.000321
  93	9.1540e+00	3.6336	41.699575	0.000801	8.006372	2.712632	0.000321
  94	9.2535e+00	3.6721	42.062917	0.000912	9.121184	3.090341	0.000365
  95	9.3530e+00	3.7186	42.406074	0.000861	8.614451	2.918655	0.000345
  96	9.4525e+00	3.7523	42.716933	0.000780	7.803679	2.643958	0.000312
  97	9.5520e+00	3.7876	43.080275	0.000912	9.121184	3.090341	0.000365
  98	9.6515e+00	3.8325	43.383061	0.000760	7.600986	2.575284	0.000304
  99	9.7510e+00	3.8774	43.722180	0.000851	8.513105	2.884318	0.000341
 100	9.8505e+00	3.9095	44.101671	0.000953	9.526570	3.227689	0.000381
 101	9.9500e+00	3.9592	44.404456	0.000760	7.600986	2.575284	0.000304
 102	1.0050e+01	3.9961	44.711278	0.000770	7.702333	2.609621	0.000308
 103	1.0149e+01	4.0475	45.058472	0.000872	8.715798	2.952992	0.000349
 104	1.0248e+01	4.0715	45.381443	0.000811	8.107719	2.746969	0.000325
 105	1.0348e+01	4.1181	45.704414	0.000811	8.107719	2.746969	0.000325
 106	1.0447e+01	4.1582	46.075830	0.000932	9.323877	3.159015	0.000373
 107	1.0547e+01	4.1903	46.382652	0.000770	7.702333	2.609621	0.000308
 108	1.0646e+01	4.2304	46.689475	0.000770	7.702333	2.609621	0.000308
 109	1.0746e+01	4.2721	47.040706	0.000882	8.817144	2.987329	0.000353
 110	1.0845e+01	4.3186	47.359639	0.000801	8.006372	2.712632	0.000321
 111	1.0945e+01	4.3539	47.670499	0.000780	7.803679	2.643958	0.000312
 112	1.1044e+01	4.4020	47.997507	0.000821	8.209065	2.781307	0.000329
 113	1.1144e+01	4.4373	48.284143	0.000720	7.195600	2.437935	0.000288
 114	1.1243e+01	4.4790	48.659597	0.000943	9.425223	3.193352	0.000377
 115	1.1343e+01	4.5175	48.970457	0.000780	7.803679	2.643958	0.000312
 116	1.1443e+01	4.5560	49.301502	0.000831	8.310412	2.815644	0.000333
 117	1.1542e+01	4.5897	49.612361	0.000780	7.803679	2.643958	0.000312
 118	1.1642e+01	4.6314	49.911109	0.000750	7.499640	2.540947	0.000300
 119	1.1741e+01	4.6747	50.221969	0.000780	7.803679	2.643958	0.000312
 120	1.1841e+01	4.7100	50.536865	0.000791	7.905026	2.678295	0.000316
 121	1.1940e+01	4.7437	50.835613	0.000750	7.499640	2.540947	0.000300
 122	1.2040e+01	4.7967	51.170695	0.000841	8.411758	2.849981	0.000337
 123	1.2139e+01	4.8336	51.449258	0.000699	6.992907	2.369261	0.000280
 124	1.2239e+01	4.8608	51.792414	0.000861	8.614451	2.918655	0.000345
 125	1.2338e+01	4.9073	52.062902	0.000679	6.790214	2.300587	0.000272
 126	1.2438e+01	4.9475	52.377799	0.000791	7.905026	2.678295	0.000316
 127	1.2537e+01	5.0004	52.668473	0.000730	7.296947	2.472273	0.000292
 128	1.2636e+01	5.0293	53.007592	0.000851	8.513105	2.884318	0.000341
 129	1.2736e+01	5.0758	53.298266	0.000730	7.296947	2.472273	0.000292
 130	1.2835e+01	5.1239	53.576828	0.000699	6.992907	2.369261	0.000280
 131	1.2935e+01	5.1528	53.887688	0.000780	7.803679	2.643958	0.000312
 132	1.3034e+01	5.1881	54.190473	0.000760	7.600986	2.575284	0.000304
 133	1.3134e+01	5.2330	54.513444	0.000811	8.107719	2.746969	0.000325
 134	1.3233e+01	5.2731	54.800081	0.000720	7.195600	2.437935	0.000288
 135	1.3333e+01	5.3196	55.102866	0.000760	7.600986	2.575284	0.000304
 136	1.3432e+01	5.3453	55.409688	0.000770	7.702333	2.609621	0.000308
 137	1.3532e+01	5.3886	55.672102	0.000659	6.587521	2.231913	0.000264
 138	1.3632e+01	5.4223	55.995073	0.000811	8.107719	2.746969	0.000325
 139	1.3731e+01	5.4736	56.285746	0.000730	7.296947	2.472273	0.000292
 140	1.3831e+01	5.5137	56.556235	0.000679	6.790214	2.300587	0.000272
 141	1.3930e+01	5.5490	56.863057	0.000770	7.702333	2.609621	0.000308
 142	1.4030e+01	5.5908	57.190065	0.000821	8.209065	2.781307	0.000329
 143	1.4129e+01	5.6276	57.460553	0.000679	6.790214	2.300587	0.000272
 144	1.4229e+01	5.6726	57.747190	0.000720	7.195600	2.437935	0.000288
 145	1.4328e+01	5.7063	58.045938	0.000750	7.499640	2.540947	0.000300
 146	1.4428e+01	5.7496	58.336611	0.000730	7.296947	2.472273	0.000292
 147	1.4527e+01	5.7913	58.599025	0.000659	6.587521	2.231913	0.000264
 148	1.4627e+01	5.8330	58.909885	0.000780	7.803679	2.643958	0.000312
 149	1.4726e+01	5.8747	59.188447	0.000699	6.992907	2.369261	0.000280
 150	1.4825e+01	5.9084	59.450861	0.000659	6.587521	2.231913	0.000264
 151	1.4925e+01	5.9533	59.769795	0.000801	8.006372	2.712632	0.000321
 152	1.5024e+01	5.9870	60.044320	0.000689	6.891561	2.334924	0.000276
 153	1.5124e+01	6.0303	60.355179	0.000780	7.803679	2.643958	0.000312
 154	1.5223e+01	6.0768	60.629705	0.000689	6.891561	2.334924	0.000276
 155	1.5323e+01	6.1009	60.896155	0.000669	6.688868	2.266250	0.000268
 156	1.5422e+01	6.1426	61.182792	0.000720	7.195600	2.437935	0.000288
 157	1.5522e+01	6.1875	61.441169	0.000649	6.486175	2.197576	0.000260
 158	1.5621e+01	6.2292	61.752028	0.000780	7.803679	2.643958	0.000312
 159	1.5721e+01	6.2629	62.002331	0.000628	6.283482	2.128901	0.000252
 160	1.5820e+01	6.3046	62.288967	0.000720	7.195600	2.437935	0.000288
 161	1.5920e+01	6.3463	62.583678	0.000740	7.398293	2.506610	0.000296
 162	1.6020e+01	6.3865	62.858203	0.000689	6.891561	2.334924	0.000276
 163	1.6119e+01	6.4233	63.120617	0.000659	6.587521	2.231913	0.000264
 164	1.6218e+01	6.4618	63.399180	0.000699	6.992907	2.369261	0.000280
 165	1.6318e+01	6.5004	63.689853	0.000730	7.296947	2.472273	0.000292
 166	1.6418e+01	6.5405	63.972453	0.000709	7.094254	2.403598	0.000284
 167	1.6517e+01	6.5886	64.275238	0.000760	7.600986	2.575284	0.000304
 168	1.6616e+01	6.6255	64.501318	0.000568	5.675403	1.922879	0.000227
 169	1.6716e+01	6.6560	64.791991	0.000730	7.296947	2.472273	0.000292
 170	1.6816e+01	6.7025	65.046331	0.000638	6.384829	2.163238	0.000256
 171	1.6915e+01	6.7394	65.328931	0.000709	7.094254	2.403598	0.000284
 172	1.7015e+01	6.7859	65.579233	0.000628	6.283482	2.128901	0.000252
 173	1.7114e+01	6.8260	65.882018	0.000760	7.600986	2.575284	0.000304
 174	1.7213e+01	6.8613	66.156543	0.000689	6.891561	2.334924	0.000276
 175	1.7313e+01	6.9062	66.431069	0.000689	6.891561	2.334924	0.000276
 176	1.7413e+01	6.9479	66.681371	0.000628	6.283482	2.128901	0.000252
 177	1.7512e+01	6.9912	66.947822	0.000669	6.688868	2.266250	0.000268
 178	1.7611e+01	7.0249	67.238496	0.000730	7.296947	2.472273	0.000292
 179	1.7711e+01	7.0570	67.496872	0.000649	6.486175	2.197576	0.000260
 180	1.7811e+01	7.1100	67.783509	0.000720	7.195600	2.437935	0.000288
 181	1.7910e+01	7.1485	68.025737	0.000608	6.080789	2.060227	0.000243
 182	1.8009e+01	7.1805	68.304300	0.000699	6.992907	2.369261	0.000280
 183	1.8109e+01	7.2223	68.558639	0.000638	6.384829	2.163238	0.000256
 184	1.8209e+01	7.2640	68.808942	0.000628	6.283482	2.128901	0.000252
 185	1.8308e+01	7.3009	69.091541	0.000709	7.094254	2.403598	0.000284
 186	1.8407e+01	7.3313	69.341843	0.000628	6.283482	2.128901	0.000252
 187	1.8507e+01	7.3827	69.608294	0.000669	6.688868	2.266250	0.000268
 188	1.8607e+01	7.4228	69.886857	0.000699	6.992907	2.369261	0.000280
 189	1.8706e+01	7.4613	70.121011	0.000588	5.878096	1.991553	0.000235
 190	1.8805e+01	7.4998	70.387462	0.000669	6.688868	2.266250	0.000268
 191	1.8905e+01	7.5335	70.670061	0.000709	7.094254	2.403598	0.000284
 192	1.9005e+01	7.5832	70.924401	0.000638	6.384829	2.163238	0.000256
 193	1.9104e+01	7.6249	71.174703	0.000628	6.283482	2.128901	0.000252
 194	1.9203e+01	7.6602	71.416931	0.000608	6.080789	2.060227	0.000243
 195	1.9303e+01	7.7067	71.691456	0.000689	6.891561	2.334924	0.000276
 196	1.9402e+01	7.7372	71.909462	0.000547	5.472710	1.854204	0.000219
 197	1.9502e+01	7.7773	72.196098	0.000720	7.195600	2.437935	0.000288
 198	1.9602e+01	7.8110	72.414104	0.000547	5.472710	1.854204	0.000219
 199	1.9701e+01	7.8591	72.680555	0.000669	6.688868	2.266250	0.000268
 200	1.9800e+01	7.9057	72.967191	0.000720	7.195600	2.437935	0.000288
 201	1.9900e+01	7.9393	73.221531	0.000638	6.384829	2.163238	0.000256
 202	2.0000e+01	7.9762	73.504130	0.000709	7.094254	2.403598	0.000284
 203	2.0099e+01	8.0180	73.734247	0.000578	5.776750	1.957216	0.000231
 204	2.0198e+01	8.0597	74.000698	0.000669	6.688868	2.266250	0.000268
 205	2.0298e+01	8.0934	74.255038	0.000638	6.384829	2.163238	0.000256
 206	2.0398e+01	8.1431	74.464969	0.000527	5.270017	1.785530	0.000211
 207	2.0497e+01	8.1800	74.747568	0.000709	7.094254	2.403598	0.000284
 208	2.0596e+01	8.2121	74.993833	0.000618	6.182136	2.094564	0.000248
 209	2.0696e+01	8.2586	75.244136	0.000628	6.283482	2.128901	0.000252
 210	2.0796e+01	8.3035	75.506550	0.000659	6.587521	2.231913	0.000264
 211	2.0895e+01	8.3452	75.744741	0.000598	5.979443	2.025890	0.000239
 212	2.0994e+01	8.3757	75.982932	0.000598	5.979443	2.025890	0.000239
 213	2.1094e+01	8.4286	76.237271	0.000638	6.384829	2.163238	0.000256
 214	2.1194e+01	8.4655	76.495648	0.000649	6.486175	2.197576	0.000260
 215	2.1293e+01	8.4880	76.737876	0.000608	6.080789	2.060227	0.000243
 216	2.1392e+01	8.5313	77.012401	0.000689	6.891561	2.334924	0.000276
 217	2.1492e+01	8.5794	77.262704	0.000628	6.283482	2.128901	0.000252
 218	2.1591e+01	8.6115	77.504932	0.000608	6.080789	2.060227	0.000243
 219	2.1691e+01	8.6532	77.791569	0.000720	7.195600	2.437935	0.000288
 220	2.1791e+01	8.6949	77.965165	0.000436	4.357899	1.476496	0.000174
 221	2.1890e+01	8.7334	78.223542	0.000649	6.486175	2.197576	0.000260
 222	2.1989e+01	8.7768	78.445585	0.000557	5.574057	1.888542	0.000223
 223	2.2089e+01	8.8153	78.736258	0.000730	7.296947	2.472273	0.000292
 224	2.2189e+01	8.8602	78.974449	0.000598	5.979443	2.025890	0.000239
 225	2.2288e+01	8.8923	79.220715	0.000618	6.182136	2.094564	0.000248
 226	2.2387e+01	8.9388	79.475054	0.000638	6.384829	2.163238	0.000256
 227	2.2487e+01	8.9741	79.713245	0.000598	5.979443	2.025890	0.000239
 228	2.2587e+01	9.0158	79.971622	0.000649	6.486175	2.197576	0.000260
 229	2.2686e+01	9.0623	80.197701	0.000568	5.675403	1.922879	0.000227
 230	2.2785e+01	9.0976	80.452041	0.000638	6.384829	2.163238	0.000256
 231	2.2885e+01	9.1361	80.682158	0.000578	5.776750	1.957216	0.000231
 232	2.2985e+01	9.1794	80.940534	0.000649	6.486175	2.197576	0.000260
 233	2.3084e+01	9.2147	81.174688	0.000588	5.878096	1.991553	0.000235
 234	2.3183e+01	9.2628	81.400768	0.000568	5.675403	1.922879	0.000227
 235	2.3283e+01	9.2949	81.667219	0.000669	6.688868	2.266250	0.000268
 236	2.3383e+01	9.3414	81.893298	0.000568	5.675403	1.922879	0.000227
 237	2.3482e+01	9.3783	82.175898	0.000709	7.094254	2.403598	0.000284
 238	2.3581e+01	9.4152	82.401978	0.000568	5.675403	1.922879	0.000227
 239	2.3681e+01	9.4586	82.611909	0.000527	5.270017	1.785530	0.000211
 240	2.3780e+01	9.4874	82.854137	0.000608	6.080789	2.060227	0.000243
 241	2.3880e+01	9.5324	83.108476	0.000638	6.384829	2.163238	0.000256
 242	2.3980e+01	9.5789	83.310333	0.000507	5.067324	1.716856	0.000203
 243	2.4079e+01	9.6078	83.544487	0.000588	5.878096	1.991553	0.000235
 244	2.4178e+01	9.6527	83.786715	0.000608	6.080789	2.060227	0.000243
 245	2.4278e+01	9.6928	84.049129	0.000659	6.587521	2.231913	0.000264
 246	2.4378e+01	9.7345	84.295394	0.000618	6.182136	2.094564	0.000248
 247	2.4477e+01	9.7762	84.509362	0.000537	5.371364	1.819867	0.000215
 248	2.4576e+01	9.8083	84.739479	0.000578	5.776750	1.957216	0.000231
 249	2.4676e+01	9.8548	84.997856	0.000649	6.486175	2.197576	0.000260
 250	2.4776e+01	9.8949	85.207787	0.000527	5.270017	1.785530	0.000211
 251	2.4875e+01	9.9286	85.450015	0.000608	6.080789	2.060227	0.000243
 252	2.4974e+01	9.9719	85.663983	0.000537	5.371364	1.819867	0.000215
 253	2.5074e+01	10.0056	85.910249	0.000618	6.182136	2.094564	0.000248
 254	2.5174e+01	10.0505	86.160551	0.000628	6.283482	2.128901	0.000252
 255	2.5273e+01	10.0922	86.390668	0.000578	5.776750	1.957216	0.000231
 256	2.5372e+01	10.1436	86.576376	0.000466	4.661938	1.579507	0.000187
 257	2.5472e+01	10.1773	86.830715	0.000638	6.384829	2.163238	0.000256
 258	2.5572e+01	10.2125	87.072944	0.000608	6.080789	2.060227	0.000243
 259	2.5671e+01	10.2543	87.278838	0.000517	5.168671	1.751193	0.000207
 260	2.5770e+01	10.2944	87.557400	0.000699	6.992907	2.369261	0.000280
 261	2.5870e+01	10.3329	87.759257	0.000507	5.067324	1.716856	0.000203
 262	2.5970e+01	10.3778	88.009559	0.000628	6.283482	2.128901	0.000252
 263	2.6069e+01	10.4179	88.267936	0.000649	6.486175	2.197576	0.000260
 264	2.6169e+01	10.4484	88.473830	0.000517	5.168671	1.751193	0.000207
 265	2.6268e+01	10.4885	88.675686	0.000507	5.067324	1.716856	0.000203
 266	2.6367e+01	10.5270	88.917915	0.000608	6.080789	2.060227	0.000243
 267	2.6467e+01	10.5703	89.160143	0.000608	6.080789	2.060227	0.000243
 268	2.6567e+01	10.6072	89.402371	0.000608	6.080789	2.060227	0.000243
 269	2.6666e+01	10.6473	89.640562	0.000598	5.979443	2.025890	0.000239
 270	2.6765e+01	10.6906	89.886827	0.000618	6.182136	2.094564	0.000248
 271	2.6865e+01	10.7227	90.080610	0.000486	4.864631	1.648182	0.000195
 272	2.6965e+01	10.7740	90.290541	0.000527	5.270017	1.785530	0.000211
 273	2.7064e+01	10.8109	90.561029	0.000679	6.790214	2.300587	0.000272
 274	2.7163e+01	10.8462	90.799220	0.000598	5.979443	2.025890	0.000239
 275	2.7263e+01	10.8911	91.009151	0.000527	5.270017	1.785530	0.000211
 276	2.7363e+01	10.9312	91.243305	0.000588	5.878096	1.991553	0.000235
 277	2.7462e+01	10.9617	91.501682	0.000649	6.486175	2.197576	0.000260
 278	2.7561e+01	11.0066	91.691427	0.000476	4.763285	1.613845	0.000191
 279	2.7661e+01	11.0516	91.917506	0.000568	5.675403	1.922879	0.000227
 280	2.7761e+01	11.0820	92.147623	0.000578	5.776750	1.957216	0.000231
 281	2.7860e+01	11.1141	92.365629	0.000547	5.472710	1.854204	0.000219
 282	2.7959e+01	11.1735	92.624005	0.000649	6.486175	2.197576	0.000260
 283	2.8059e+01	11.2232	92.858159	0.000588	5.878096	1.991553	0.000235
 284	2.8159e+01	11.2425	93.060016	0.000507	5.067324	1.716856	0.000203
 285	2.8258e+01	11.2922	93.278021	0.000547	5.472710	1.854204	0.000219
 286	2.8358e+01	11.3291	93.516212	0.000598	5.979443	2.025890	0.000239
 287	2.8457e+01	11.3596	93.746329	0.000578	5.776750	1.957216	0.000231
 288	2.8556e+01	11.4077	93.992594	0.000618	6.182136	2.094564	0.000248
 289	2.8656e+01	11.4398	94.194451	0.000507	5.067324	1.716856	0.000203
 290	2.8756e+01	11.4831	94.424568	0.000578	5.776750	1.957216	0.000231
 291	2.8855e+01	11.5280	94.646610	0.000557	5.574057	1.888542	0.000223
 292	2.8954e+01	11.5713	94.884801	0.000598	5.979443	2.025890	0.000239
 293	2.9054e+01	11.6114	95.094732	0.000527	5.270017	1.785530	0.000211
 294	2.9154e+01	11.6451	95.349072	0.000638	6.384829	2.163238	0.000256
 295	2.9253e+01	11.6884	95.526706	0.000446	4.459245	1.510833	0.000179
 296	2.9352e+01	11.7269	95.764897	0.000598	5.979443	2.025890	0.000239
 297	2.9452e+01	11.7606	95.970791	0.000517	5.168671	1.751193	0.000207
 298	2.9552e+01	11.8104	96.188796	0.000547	5.472710	1.854204	0.000219
 299	2.9651e+01	11.8441	96.426987	0.000598	5.979443	2.025890	0.000239
 300	2.9750e+01	11.8809	96.653067	0.000568	5.675403	1.922879	0.000227
 301	2.9850e+01	11.9146	96.867035	0.000537	5.371364	1.819867	0.000215
 302	2.9950e+01	11.9644	97.060817	0.000486	4.864631	1.648182	0.000195
 303	3.0049e+01	11.9981	97.299008	0.000598	5.979443	2.025890	0.000239
 304	3.0148e+01	12.0430	97.529125	0.000578	5.776750	1.957216	0.000231
 305	3.0248e+01	12.0847	97.811725	0.000709	7.094254	2.403598	0.000284
 306	3.0348e+01	12.1152	97.989359	0.000446	4.459245	1.510833	0.000179
 307	3.0447e+01	12.1633	98.247735	0.000649	6.486175	2.197576	0.000260
 308	3.0547e+01	12.2050	98.405184	0.000395	3.952513	1.339148	0.000158
 309	3.0646e+01	12.2419	98.683746	0.000699	6.992907	2.369261	0.000280
 310	3.0745e+01	12.2852	98.869454	0.000466	4.661938	1.579507	0.000187
 311	3.0845e+01	12.3237	99.127831	0.000649	6.486175	2.197576	0.000260
 312	3.0945e+01	12.3686	99.329688	0.000507	5.067324	1.716856	0.000203
 313	3.1044e+01	12.4039	99.543656	0.000537	5.371364	1.819867	0.000215
 314	3.1143e+01	12.4376	99.741476	0.000497	4.965978	1.682519	0.000199
 315	3.1243e+01	12.4777	99.983704	0.000608	6.080789	2.060227	0.000243
 316	3.1343e+01	12.5323	100.242080	0.000649	6.486175	2.197576	0.000260
 317	3.1442e+01	12.5595	100.411640	0.000426	4.256552	1.442159	0.000170
 318	3.1541e+01	12.6125	100.657905	0.000618	6.182136	2.094564	0.000248
 319	3.1641e+01	12.6478	100.888022	0.000578	5.776750	1.957216	0.000231
 320	3.1741e+01	12.6895	101.097953	0.000527	5.270017	1.785530	0.000211
 321	3.1840e+01	12.7151	101.324033	0.000568	5.675403	1.922879	0.000227
 322	3.1939e+01	12.7681	101.529927	0.000517	5.168671	1.751193	0.000207
 323	3.2039e+01	12.7986	101.760043	0.000578	5.776750	1.957216	0.000231
 324	3.2139e+01	12.8435	101.978049	0.000547	5.472710	1.854204	0.000219
 325	3.2238e+01	12.8884	102.200091	0.000557	5.574057	1.888542	0.000223
 326	3.2337e+01	12.9205	102.401948	0.000507	5.067324	1.716856	0.000203
 327	3.2437e+01	12.9558	102.611879	0.000527	5.270017	1.785530	0.000211
 328	3.2536e+01	12.9991	102.817773	0.000517	5.168671	1.751193	0.000207
 329	3.2636e+01	13.0328	103.064038	0.000618	6.182136	2.094564	0.000248
 330	3.2736e+01	13.0809	103.253784	0.000476	4.763285	1.613845	0.000191
 331	3.2835e+01	13.1162	103.500049	0.000618	6.182136	2.094564	0.000248
 332	3.2934e+01	13.1611	103.701906	0.000507	5.067324	1.716856	0.000203
 333	3.3034e+01	13.1932	103.952208	0.000628	6.283482	2.128901	0.000252
 334	3.3133e+01	13.2349	104.150028	0.000497	4.965978	1.682519	0.000199
 335	3.3233e+01	13.2766	104.400330	0.000628	6.283482	2.128901	0.000252
 336	3.3333e+01	13.3199	104.598150	0.000497	4.965978	1.682519	0.000199
 337	3.3432e+01	13.3520	104.832304	0.000588	5.878096	1.991553	0.000235
 338	3.3532e+01	13.3969	105.054346	0.000557	5.574057	1.888542	0.000223
 339	3.3631e+01	13.4387	105.276389	0.000557	5.574057	1.888542	0.000223
 340	3.3730e+01	13.4723	105.478245	0.000507	5.067324	1.716856	0.000203
 341	3.3830e+01	13.5157	105.708362	0.000578	5.776750	1.957216	0.000231
 342	3.3929e+01	13.5526	105.910219	0.000507	5.067324	1.716856	0.000203
 343	3.4029e+01	13.5927	106.180707	0.000679	6.790214	2.300587	0.000272
 344	3.4129e+01	13.6376	106.402750	0.000557	5.574057	1.888542	0.000223
 345	3.4228e+01	13.6793	106.588458	0.000466	4.661938	1.579507	0.000187
 346	3.4328e+01	13.7146	106.818574	0.000578	5.776750	1.957216	0.000231
 347	3.4427e+01	13.7611	107.064840	0.000618	6.182136	2.094564	0.000248
 348	3.4526e+01	13.8028	107.274771	0.000527	5.270017	1.785530	0.000211
 349	3.4626e+01	13.8221	107.508925	0.000588	5.878096	1.991553	0.000235
 350	3.4725e+01	13.8782	107.730967	0.000557	5.574057	1.888542	0.000223
 351	3.4825e+01	13.9247	107.920713	0.000476	4.763285	1.613845	0.000191
 352	3.4925e+01	13.9584	108.134681	0.000537	5.371364	1.819867	0.000215
 353	3.5024e+01	14.0098	108.356723	0.000557	5.574057	1.888542	0.000223
 354	3.5123e+01	14.0322	108.550506	0.000486	4.864631	1.648182	0.000195
 355	3.5223e+01	14.0723	108.800808	0.000628	6.283482	2.128901	0.000252
 356	3.5322e+01	14.1076	109.010739	0.000527	5.270017	1.785530	0.000211
 357	3.5422e+01	14.1590	109.220670	0.000527	5.270017	1.785530	0.000211
 358	3.5522e+01	14.1943	109.446750	0.000568	5.675403	1.922879	0.000227
 359	3.5621e+01	14.2328	109.693015	0.000618	6.182136	2.094564	0.000248
 360	3.5721e+01	14.2777	109.890835	0.000497	4.965978	1.682519	0.000199
 361	3.5820e+01	14.3194	110.084617	0.000486	4.864631	1.648182	0.000195
 362	3.5919e+01	14.3627	110.342994	0.000649	6.486175	2.197576	0.000260
 363	3.6019e+01	14.3964	110.577148	0.000588	5.878096	1.991553	0.000235
 364	3.6118e+01	14.4301	110.787079	0.000527	5.270017	1.785530	0.000211
 365	3.6218e+01	14.4766	111.001047	0.000537	5.371364	1.819867	0.000215
 366	3.6318e+01	14.5103	111.243275	0.000608	6.080789	2.060227	0.000243
 367	3.6417e+01	14.5504	111.433021	0.000476	4.763285	1.613845	0.000191
 368	3.6517e+01	14.5905	111.675249	0.000608	6.080789	2.060227	0.000243
 369	3.6616e+01	14.6370	111.901328	0.000568	5.675403	1.922879	0.000227
 370	3.6715e+01	14.6723	112.139519	0.000598	5.979443	2.025890	0.000239
 371	3.6815e+01	14.7124	112.353488	0.000537	5.371364	1.819867	0.000215
 372	3.6914e+01	14.7654	112.563419	0.000527	5.270017	1.785530	0.000211
 373	3.7014e+01	14.7958	112.769313	0.000517	5.168671	1.751193	0.000207
 374	3.7114e+01	14.8392	113.027689	0.000649	6.486175	2.197576	0.000260
 375	3.7213e+01	14.8744	113.265880	0.000598	5.979443	2.025890	0.000239
 376	3.7313e+01	14.9146	113.483886	0.000547	5.472710	1.854204	0.000219
 377	3.7412e+01	14.9482	113.685742	0.000507	5.067324	1.716856	0.000203
 378	3.7511e+01	14.9932	113.919896	0.000588	5.878096	1.991553	0.000235
 379	3.7611e+01	15.0236	114.150013	0.000578	5.776750	1.957216	0.000231
 380	3.7711e+01	15.0766	114.376093	0.000568	5.675403	1.922879	0.000227
 381	3.7810e+01	15.1103	114.573912	0.000497	4.965978	1.682519	0.000199
 382	3.7910e+01	15.1488	114.787880	0.000537	5.371364	1.819867	0.000215
 383	3.8009e+01	15.1953	115.009923	0.000557	5.574057	1.888542	0.000223
 384	3.8108e+01	15.2338	115.288485	0.000699	6.992907	2.369261	0.000280
 385	3.8208e+01	15.2643	115.526676	0.000598	5.979443	2.025890	0.000239
 386	3.8307e+01	15.3044	115.736607	0.000527	5.270017	1.785530	0.000211
 387	3.8407e+01	15.3397	115.938464	0.000507	5.067324	1.716856	0.000203
 388	3.8507e+01	15.3894	116.221064	0.000709	7.094254	2.403598	0.000284
 389	3.8606e+01	15.4327	116.422920	0.000507	5.067324	1.716856	0.000203
 390	3.8706e+01	15.4600	116.665149	0.000608	6.080789	2.060227	0.000243
 391	3.8805e+01	15.5081	116.834708	0.000426	4.256552	1.442159	0.000170
 392	3.8904e+01	15.5530	117.097122	0.000659	6.587521	2.231913	0.000264
 393	3.9004e+01	15.5899	117.347424	0.000628	6.283482	2.128901	0.000252
 394	3.9103e+01	15.6204	117.561393	0.000537	5.371364	1.819867	0.000215
 395	3.9203e+01	15.6637	117.807658	0.000618	6.182136	2.094564	0.000248
 396	3.9303e+01	15.7086	118.045849	0.000598	5.979443	2.025890	0.000239
 397	3.9402e+01	15.7439	118.267891	0.000557	5.574057	1.888542	0.000223
 398	3.9502e+01	15.7873	118.502045	0.000588	5.878096	1.991553	0.000235
 399	3.9601e+01	15.8274	118.736199	0.000588	5.878096	1.991553	0.000235
 400	3.9700e+01	15.8610	118.994576	0.000649	6.486175	2.197576	0.000260
 401	3.9800e+01	15.9236	119.212581	0.000547	5.472710	1.854204	0.000219
 402	3.9900e+01	15.9509	119.418475	0.000517	5.168671	1.751193	0.000207
 403	3.9999e+01	15.9926	119.709149	0.000730	7.296947	2.472273	0.000292
 404	4.0099e+01	16.0359	119.939266	0.000578	5.776750	1.957216	0.000231
 405	4.0198e+01	16.0664	120.137085	0.000497	4.965978	1.682519	0.000199
 406	4.0297e+01	16.0985	120.367202	0.000578	5.776750	1.957216	0.000231
 407	4.0397e+01	16.1402	120.641727	0.000689	6.891561	2.334924	0.000276
 408	4.0496e+01	16.1851	120.916252	0.000689	6.891561	2.334924	0.000276
 409	4.0596e+01	16.2284	121.122146	0.000517	5.168671	1.751193	0.000207
 410	4.0696e+01	16.2605	121.364375	0.000608	6.080789	2.060227	0.000243
 411	4.0795e+01	16.3102	121.578343	0.000537	5.371364	1.819867	0.000215
 412	4.0895e+01	16.3439	121.820571	0.000608	6.080789	2.060227	0.000243
 413	4.0994e+01	16.3953	122.074910	0.000638	6.384829	2.163238	0.000256
 414	4.1093e+01	16.4209	122.260619	0.000466	4.661938	1.579507	0.000187
 415	4.1193e+01	16.4691	122.543218	0.000709	7.094254	2.403598	0.000284
 416	4.1292e+01	16.5060	122.781409	0.000598	5.979443	2.025890	0.000239
 417	4.1392e+01	16.5428	123.039786	0.000649	6.486175	2.197576	0.000260
 418	4.1492e+01	16.5926	123.241643	0.000507	5.067324	1.716856	0.000203
 419	4.1591e+01	16.6166	123.524242	0.000709	7.094254	2.403598	0.000284
 420	4.1691e+01	16.6664	123.742248	0.000547	5.472710	1.854204	0.000219
 421	4.1790e+01	16.7001	124.020810	0.000699	6.992907	2.369261	0.000280
 422	4.1889e+01	16.7386	124.263038	0.000608	6.080789	2.060227	0.000243
 423	4.1989e+01	16.7851	124.472969	0.000527	5.270017	1.785530	0.000211
 424	4.2089e+01	16.8252	124.751531	0.000699	6.992907	2.369261	0.000280
 425	4.2188e+01	16.8637	124.981648	0.000578	5.776750	1.957216	0.000231
 426	4.2288e+01	16.9086	125.240025	0.000649	6.486175	2.197576	0.000260
 427	4.2387e+01	16.9343	125.462067	0.000557	5.574057	1.888542	0.000223
 428	4.2486e+01	16.9936	125.724481	0.000659	6.587521	2.231913	0.000264
 429	4.2586e+01	17.0193	125.999006	0.000689	6.891561	2.334924	0.000276
 430	4.2685e+01	17.0562	126.217012	0.000547	5.472710	1.854204	0.000219
 431	4.2785e+01	17.1172	126.443091	0.000568	5.675403	1.922879	0.000227
 432	4.2885e+01	17.1412	126.713579	0.000679	6.790214	2.300587	0.000272
 433	4.2984e+01	17.1878	126.971956	0.000649	6.486175	2.197576	0.000260
 434	4.3084e+01	17.2263	127.234370	0.000659	6.587521	2.231913	0.000264
 435	4.3183e+01	17.2567	127.472561	0.000598	5.979443	2.025890	0.000239
 436	4.3282e+01	17.3065	127.743049	0.000679	6.790214	2.300587	0.000272
 437	4.3382e+01	17.3337	127.985277	0.000608	6.080789	2.060227	0.000243
 438	4.3481e+01	17.3787	128.279988	0.000740	7.398293	2.506610	0.000296
 439	4.3581e+01	17.4268	128.538365	0.000649	6.486175	2.197576	0.000260
 440	4.3681e+01	17.4749	128.816927	0.000699	6.992907	2.369261	0.000280
 441	4.3780e+01	17.5070	129.047044	0.000578	5.776750	1.957216	0.000231
 442	4.3880e+01	17.5327	129.321569	0.000689	6.891561	2.334924	0.000276
 443	4.3979e+01	17.5840	129.555723	0.000588	5.878096	1.991553	0.000235
 444	4.4078e+01	17.6209	129.850434	0.000740	7.398293	2.506610	0.000296
 445	4.4178e+01	17.6674	130.116885	0.000669	6.688868	2.266250	0.000268
 446	4.4278e+01	17.6995	130.326816	0.000527	5.270017	1.785530	0.000211
 447	4.4377e+01	17.7396	130.601341	0.000689	6.891561	2.334924	0.000276
 448	4.4477e+01	17.7845	130.892015	0.000730	7.296947	2.472273	0.000292
 449	4.4576e+01	17.8166	131.142317	0.000628	6.283482	2.128901	0.000252
 450	4.4675e+01	17.8583	131.432991	0.000730	7.296947	2.472273	0.000292
 451	4.4775e+01	17.9016	131.671182	0.000598	5.979443	2.025890	0.000239
 452	4.4874e+01	17.9482	131.957819	0.000720	7.195600	2.437935	0.000288
 453	4.4974e+01	17.9770	132.244455	0.000720	7.195600	2.437935	0.000288
 454	4.5074e+01	18.0203	132.527055	0.000709	7.094254	2.403598	0.000284
 455	4.5173e+01	18.0621	132.769283	0.000608	6.080789	2.060227	0.000243
 456	4.5273e+01	18.0957	133.039771	0.000679	6.790214	2.300587	0.000272
 457	4.5372e+01	18.1359	133.302185	0.000659	6.587521	2.231913	0.000264
 458	4.5471e+01	18.1760	133.572673	0.000679	6.790214	2.300587	0.000272
 459	4.5571e+01	18.2225	133.843161	0.000679	6.790214	2.300587	0.000272
 460	4.5670e+01	18.2594	134.125761	0.000709	7.094254	2.403598	0.000284
 461	4.5770e+01	18.2947	134.400286	0.000689	6.891561	2.334924	0.000276
 462	4.5870e+01	18.3380	134.678848	0.000699	6.992907	2.369261	0.000280
 463	4.5969e+01	18.3845	134.965485	0.000720	7.195600	2.437935	0.000288
 464	4.6069e+01	18.4118	135.252121	0.000720	7.195600	2.437935	0.000288
 465	4.6168e+01	18.4551	135.506461	0.000638	6.384829	2.163238	0.000256
 466	4.6267e+01	18.5000	135.809246	0.000760	7.600986	2.575284	0.000304
 467	4.6367e+01	18.5385	136.079734	0.000679	6.790214	2.300587	0.000272
 468	4.6467e+01	18.5834	136.358297	0.000699	6.992907	2.369261	0.000280
 469	4.6566e+01	18.6187	136.644933	0.000720	7.195600	2.437935	0.000288
 470	4.6666e+01	18.6604	136.931570	0.000720	7.195600	2.437935	0.000288
 471	4.6765e+01	18.6909	137.189947	0.000649	6.486175	2.197576	0.000260
 472	4.6864e+01	18.7390	137.460435	0.000679	6.790214	2.300587	0.000272
 473	4.6964e+01	18.7808	137.767257	0.000770	7.702333	2.609621	0.000308
 474	4.7063e+01	18.8144	138.049857	0.000709	7.094254	2.403598	0.000284
 475	4.7163e+01	18.8562	138.376865	0.000821	8.209065	2.781307	0.000329
 476	4.7263e+01	18.8947	138.619093	0.000608	6.080789	2.060227	0.000243
 477	4.7362e+01	18.9316	138.917841	0.000750	7.499640	2.540947	0.000300
 478	4.7462e+01	18.9717	139.236774	0.000801	8.006372	2.712632	0.000321
 479	4.7561e+01	19.0198	139.499188	0.000659	6.587521	2.231913	0.000264
 480	4.7660e+01	19.0487	139.801973	0.000760	7.600986	2.575284	0.000304
 481	4.7760e+01	19.1032	140.084573	0.000709	7.094254	2.403598	0.000284
 482	4.7859e+01	19.1529	140.367172	0.000709	7.094254	2.403598	0.000284
 483	4.7959e+01	19.1642	140.673995	0.000770	7.702333	2.609621	0.000308
 484	4.8059e+01	19.2171	140.992929	0.000801	8.006372	2.712632	0.000321
 485	4.8158e+01	19.2572	141.275528	0.000709	7.094254	2.403598	0.000284
 486	4.8258e+01	19.2957	141.558128	0.000709	7.094254	2.403598	0.000284
 487	4.8357e+01	19.3310	141.881098	0.000811	8.107719	2.746969	0.000325
 488	4.8456e+01	19.3791	142.143512	0.000659	6.587521	2.231913	0.000264
 489	4.8556e+01	19.4176	142.474557	0.000831	8.310412	2.815644	0.000333
 490	4.8656e+01	19.4529	142.745045	0.000679	6.790214	2.300587	0.000272
 491	4.8755e+01	19.4866	143.063979	0.000801	8.006372	2.712632	0.000321
 492	4.8855e+01	19.5283	143.386950	0.000811	8.107719	2.746969	0.000325
 493	4.8954e+01	19.5700	143.673587	0.000720	7.195600	2.437935	0.000288
 494	4.9053e+01	19.6150	143.976372	0.000760	7.600986	2.575284	0.000304
 495	4.9153e+01	19.6502	144.291268	0.000791	7.905026	2.678295	0.000316
 496	4.9252e+01	19.6904	144.585979	0.000740	7.398293	2.506610	0.000296
 497	4.9352e+01	19.7353	144.900876	0.000791	7.905026	2.678295	0.000316
 498	4.9452e+01	19.7754	145.203661	0.000760	7.600986	2.575284	0.000304
 499	4.9551e+01	19.8059	145.502409	0.000750	7.499640	2.540947	0.000300
 500	4.9651e+01	19.8460	145.837491	0.000841	8.411758	2.849981	0.000337
 501	4.9750e+01	19.8861	146.156425	0.000801	8.006372	2.712632	0.000321
 502	4.9849e+01	19.9326	146.475359	0.000801	8.006372	2.712632	0.000321
 503	4.9949e+01	19.9679	146.802367	0.000821	8.209065	2.781307	0.000329
 504	5.0048e+01	19.9326	147.044595	-0.000608	-6.080789	-2.060227	0.000243
 505	5.0148e+01	19.8829	147.242415	-0.000497	-4.965978	-1.682519	0.000199
 506	5.0248e+01	19.8476	147.420049	-0.000446	-4.459245	-1.510833	0.000179
 507	5.0347e+01	19.8187	147.565385	-0.000365	-3.648473	-1.236136	0.000146
 508	5.0447e+01	19.7738	147.714760	-0.000375	-3.749820	-1.270473	0.000150
 509	5.0546e+01	19.7353	147.795502	-0.000203	-2.026930	-0.686742	0.000081
 510	5.0645e+01	19.6871	147.928728	-0.000334	-3.344434	-1.133125	0.000134
 511	5.0745e+01	19.6519	148.017545	-0.000223	-2.229623	-0.755417	0.000089
 512	5.0844e+01	19.6117	148.094250	-0.000193	-1.925583	-0.652405	0.000077
 513	5.0944e+01	19.5716	148.130584	-0.000091	-0.912118	-0.309034	0.000037
 514	5.1044e+01	19.5363	148.166919	-0.000091	-0.912118	-0.309034	0.000037
 515	5.1143e+01	19.4978	148.235550	-0.000172	-1.722890	-0.583731	0.000069
 516	5.1242e+01	19.4593	148.263810	-0.000071	-0.709425	-0.240360	0.000028
 517	5.1342e+01	19.4176	148.332441	-0.000172	-1.722890	-0.583731	0.000069
 518	5.1441e+01	19.3791	148.328404	0.000010	0.101346	0.034337	-0.000004
 519	5.1541e+01	19.3374	148.336478	-0.000020	-0.202693	-0.068674	0.000008
 520	5.1641e+01	19.2941	148.344553	-0.000020	-0.202693	-0.068674	0.000008
 521	5.1740e+01	19.2620	148.360701	-0.000041	-0.405386	-0.137348	0.000016
 522	5.1840e+01	19.2187	148.352627	0.000020	0.202693	0.068674	-0.000008
 523	5.1939e+01	19.1754	148.360701	-0.000020	-0.202693	-0.068674	0.000008
 524	5.2038e+01	19.1337	148.340516	0.000051	0.506732	0.171686	-0.000020
 525	5.2138e+01	19.1016	148.300144	0.000101	1.013465	0.343371	-0.000041
 526	5.2237e+01	19.0599	148.312256	-0.000030	-0.304039	-0.103011	0.000012
 527	5.2337e+01	19.0134	148.312256	-0.000000	-0.000000	-0.000000	0.000000
 528	5.2437e+01	18.9845	148.259773	0.000132	1.317504	0.446383	-0.000053
 529	5.2536e+01	18.9332	148.207290	0.000132	1.317504	0.446383	-0.000053
 530	5.2636e+01	18.8947	148.199216	0.000020	0.202693	0.068674	-0.000008
 531	5.2735e+01	18.8529	148.162882	0.000091	0.912118	0.309034	-0.000037
 532	5.2834e+01	18.8080	148.122510	0.000101	1.013465	0.343371	-0.000041
 533	5.2934e+01	18.7856	148.098287	0.000061	0.608079	0.206023	-0.000024
 534	5.3033e+01	18.7374	148.037730	0.000152	1.520197	0.515057	-0.000061
 535	5.3133e+01	18.6973	147.985248	0.000132	1.317504	0.446383	-0.000053
 536	5.3233e+01	18.6636	147.940839	0.000111	1.114811	0.377708	-0.000045
 537	5.3332e+01	18.6187	147.888356	0.000132	1.317504	0.446383	-0.000053
 538	5.3431e+01	18.5770	147.839911	0.000122	1.216158	0.412045	-0.000049
 539	5.3531e+01	18.5385	147.767242	0.000182	1.824237	0.618068	-0.000073
 540	5.3630e+01	18.4968	147.706685	0.000152	1.520197	0.515057	-0.000061
 541	5.3730e+01	18.4519	147.654202	0.000132	1.317504	0.446383	-0.000053
 542	5.3830e+01	18.4214	147.613831	0.000101	1.013465	0.343371	-0.000041
 543	5.3929e+01	18.3765	147.533088	0.000203	2.026930	0.686742	-0.000081
 544	5.4029e+01	18.3332	147.444271	0.000223	2.229623	0.755417	-0.000089
 545	5.4128e+01	18.2963	147.387752	0.000142	1.418851	0.480720	-0.000057
 546	5.4227e+01	18.2498	147.315083	0.000182	1.824237	0.618068	-0.000073
 547	5.4327e+01	18.2161	147.242415	0.000182	1.824237	0.618068	-0.000073
 548	5.4426e+01	18.1727	147.185895	0.000142	1.418851	0.480720	-0.000057
 549	5.4526e+01	18.1310	147.068818	0.000294	2.939048	0.995776	-0.000118
 550	5.4626e+01	18.1022	146.963852	0.000264	2.635009	0.892765	-0.000105
 551	5.4725e+01	18.0572	146.927518	0.000091	0.912118	0.309034	-0.000037
 552	5.4825e+01	18.0187	146.846775	0.000203	2.026930	0.686742	-0.000081
 553	5.4924e+01	17.9786	146.753921	0.000233	2.330969	0.789754	-0.000093
 554	5.5023e+01	17.9466	146.677216	0.000193	1.925583	0.652405	-0.000077
 555	5.5123e+01	17.8984	146.568213	0.000274	2.736355	0.927102	-0.000110
 556	5.5222e+01	17.8631	146.507656	0.000152	1.520197	0.515057	-0.000061
 557	5.5322e+01	17.8262	146.402690	0.000264	2.635009	0.892765	-0.000105
 558	5.5422e+01	17.7861	146.293688	0.000274	2.736355	0.927102	-0.000110
 559	5.5521e+01	17.7396	146.221019	0.000182	1.824237	0.618068	-0.000073
 560	5.5620e+01	17.6931	146.120091	0.000253	2.533662	0.858428	-0.000101
 561	5.5720e+01	17.6642	146.047422	0.000182	1.824237	0.618068	-0.000073
 562	5.5819e+01	17.6273	145.938420	0.000274	2.736355	0.927102	-0.000110
 563	5.5919e+01	17.5776	145.841529	0.000243	2.432316	0.824091	-0.000097
 564	5.6019e+01	17.5439	145.748674	0.000233	2.330969	0.789754	-0.000093
 565	5.6118e+01	17.5070	145.631597	0.000294	2.939048	0.995776	-0.000118
 566	5.6218e+01	17.4621	145.498372	0.000334	3.344434	1.133125	-0.000134
 567	5.6317e+01	17.4284	145.417629	0.000203	2.026930	0.686742	-0.000081
 568	5.6416e+01	17.3835	145.312664	0.000264	2.635009	0.892765	-0.000105
 569	5.6516e+01	17.3434	145.215772	0.000243	2.432316	0.824091	-0.000097
 570	5.6615e+01	17.3033	145.139067	0.000193	1.925583	0.652405	-0.000077
 571	5.6715e+01	17.2728	145.042176	0.000243	2.432316	0.824091	-0.000097
 572	5.6815e+01	17.2230	144.900876	0.000355	3.547127	1.201799	-0.000142
 573	5.6914e+01	17.1878	144.812059	0.000223	2.229623	0.755417	-0.000089
 574	5.7014e+01	17.1412	144.682871	0.000324	3.243087	1.098788	-0.000130
 575	5.7113e+01	17.1027	144.573868	0.000274	2.736355	0.927102	-0.000110
 576	5.7212e+01	17.0674	144.481014	0.000233	2.330969	0.789754	-0.000093
 577	5.7312e+01	17.0241	144.367974	0.000284	2.837702	0.961439	-0.000114
 578	5.7411e+01	16.9792	144.250897	0.000294	2.939048	0.995776	-0.000118
 579	5.7511e+01	16.9359	144.113634	0.000345	3.445780	1.167462	-0.000138
 580	5.7611e+01	16.9006	144.040966	0.000182	1.824237	0.618068	-0.000073
 581	5.7710e+01	16.8653	143.895629	0.000365	3.648473	1.236136	-0.000146
 582	5.7809e+01	16.8236	143.774515	0.000304	3.040395	1.030114	-0.000122
 583	5.7909e+01	16.7851	143.673587	0.000253	2.533662	0.858428	-0.000101
 584	5.8008e+01	16.7514	143.540361	0.000334	3.344434	1.133125	-0.000134
 585	5.8108e+01	16.7113	143.395024	0.000365	3.648473	1.236136	-0.000146
 586	5.8208e+01	16.6616	143.281984	0.000284	2.837702	0.961439	-0.000114
 587	5.8307e+01	16.6247	143.221427	0.000152	1.520197	0.515057	-0.000061
 588	5.8407e+01	16.5846	143.076091	0.000365	3.648473	1.236136	-0.000146
 589	5.8506e+01	16.5396	142.930754	0.000365	3.648473	1.236136	-0.000146
 590	5.8605e+01	16.5027	142.805602	0.000314	3.141741	1.064451	-0.000126
 591	5.8705e+01	16.4642	142.728897	0.000193	1.925583	0.652405	-0.000077
 592	5.8804e+01	16.4418	142.603746	0.000314	3.141741	1.064451	-0.000126
 593	5.8904e+01	16.3840	142.442260	0.000405	4.053859	1.373485	-0.000162
 594	5.9004e+01	16.3471	142.321146	0.000304	3.040395	1.030114	-0.000122
 595	5.9103e+01	16.3038	142.195995	0.000314	3.141741	1.064451	-0.000126
 596	5.9203e+01	16.2605	142.054695	0.000355	3.547127	1.201799	-0.000142
 597	5.9302e+01	16.2284	141.929544	0.000314	3.141741	1.064451	-0.000126
 598	5.9401e+01	16.1867	141.828616	0.000253	2.533662	0.858428	-0.000101
 599	5.9501e+01	16.1514	141.687316	0.000355	3.547127	1.201799	-0.000142
 600	5.9600e+01	16.1017	141.582350	0.000264	2.635009	0.892765	-0.000105
 601	5.9700e+01	16.0696	141.432976	0.000375	3.749820	1.270473	-0.000150
 602	5.9800e+01	16.0295	141.332048	0.000253	2.533662	0.858428	-0.000101
 603	5.9899e+01	15.9958	141.202860	0.000324	3.243087	1.098788	-0.000130
 604	5.9998e+01	15.9525	141.033300	0.000426	4.256552	1.442159	-0.000170
 605	6.0098e+01	15.9028	140.956594	0.000193	1.925583	0.652405	-0.000077
 606	6.0197e+01	15.8755	140.815295	0.000355	3.547127	1.201799	-0.000142
 607	6.0297e+01	15.8242	140.686106	0.000324	3.243087	1.098788	-0.000130
 608	6.0397e+01	15.7889	140.581141	0.000264	2.635009	0.892765	-0.000105
 609	6.0496e+01	15.7536	140.415618	0.000416	4.155206	1.407822	-0.000166
 610	6.0596e+01	15.7070	140.346987	0.000172	1.722890	0.583731	-0.000069
 611	6.0695e+01	15.6685	140.189539	0.000395	3.952513	1.339148	-0.000158
 612	6.0794e+01	15.6268	140.048239	0.000355	3.547127	1.201799	-0.000142
 613	6.0894e+01	15.5931	139.890790	0.000395	3.952513	1.339148	-0.000158
 614	6.0993e+01	15.5498	139.765639	0.000314	3.141741	1.064451	-0.000126
 615	6.1093e+01	15.5129	139.624339	0.000355	3.547127	1.201799	-0.000142
 616	6.1193e+01	15.4744	139.527448	0.000243	2.432316	0.824091	-0.000097
 617	6.1292e+01	15.4279	139.406334	0.000304	3.040395	1.030114	-0.000122
 618	6.1392e+01	15.3830	139.244849	0.000405	4.053859	1.373485	-0.000162
 619	6.1491e+01	15.3525	139.107586	0.000345	3.445780	1.167462	-0.000138
 620	6.1590e+01	15.3140	138.998583	0.000274	2.736355	0.927102	-0.000110
 621	6.1690e+01	15.2611	138.841135	0.000395	3.952513	1.339148	-0.000158
 622	6.1789e+01	15.2354	138.699835	0.000355	3.547127	1.201799	-0.000142
 623	6.1889e+01	15.1969	138.590833	0.000274	2.736355	0.927102	-0.000110
 624	6.1989e+01	15.1504	138.465682	0.000314	3.141741	1.064451	-0.000126
 625	6.2088e+01	15.1151	138.288048	0.000446	4.459245	1.510833	-0.000179
 626	6.2188e+01	15.0686	138.166933	0.000304	3.040395	1.030114	-0.000122
 627	6.2287e+01	15.0333	138.033708	0.000334	3.344434	1.133125	-0.000134
 628	6.2386e+01	15.0012	137.904520	0.000324	3.243087	1.098788	-0.000130
 629	6.2486e+01	14.9498	137.763220	0.000355	3.547127	1.201799	-0.000142
 630	6.2586e+01	14.9081	137.601734	0.000405	4.053859	1.373485	-0.000162
 631	6.2685e+01	14.8744	137.488695	0.000284	2.837702	0.961439	-0.000114
 632	6.2785e+01	14.8279	137.339321	0.000375	3.749820	1.270473	-0.000150
 633	6.2884e+01	14.7926	137.202058	0.000345	3.445780	1.167462	-0.000138
 634	6.2983e+01	14.7525	137.080944	0.000304	3.040395	1.030114	-0.000122
 635	6.3083e+01	14.7060	136.911384	0.000426	4.256552	1.442159	-0.000170
 636	6.3182e+01	14.6755	136.753936	0.000395	3.952513	1.339148	-0.000158
 637	6.3282e+01	14.6338	136.628785	0.000314	3.141741	1.064451	-0.000126
 638	6.3382e+01	14.5921	136.495559	0.000334	3.344434	1.133125	-0.000134
 639	6.3481e+01	14.5488	136.305814	0.000476	4.763285	1.613845	-0.000191
 640	6.3581e+01	14.5167	136.188737	0.000294	2.939048	0.995776	-0.000118
 641	6.3680e+01	14.4606	136.067623	0.000304	3.040395	1.030114	-0.000122
 642	6.3779e+01	14.4349	135.946509	0.000304	3.040395	1.030114	-0.000122
 643	6.3879e+01	14.3932	135.776949	0.000426	4.256552	1.442159	-0.000170
 644	6.3978e+01	14.3547	135.619501	0.000395	3.952513	1.339148	-0.000158
 645	6.4078e+01	14.3258	135.494350	0.000314	3.141741	1.064451	-0.000126
 646	6.4177e+01	14.2745	135.344976	0.000375	3.749820	1.270473	-0.000150
 647	6.4277e+01	14.2392	135.203676	0.000355	3.547127	1.201799	-0.000142
 648	6.4376e+01	14.1910	135.058339	0.000365	3.648473	1.236136	-0.000146
 649	6.4476e+01	14.1525	134.925114	0.000334	3.344434	1.133125	-0.000134
 650	6.4576e+01	14.1108	134.775739	0.000375	3.749820	1.270473	-0.000150
 651	6.4675e+01	14.0611	134.610217	0.000416	4.155206	1.407822	-0.000166
 652	6.4775e+01	14.0338	134.452769	0.000395	3.952513	1.339148	-0.000158
 653	6.4874e+01	13.9937	134.331655	0.000304	3.040395	1.030114	-0.000122
 654	6.4974e+01	13.9520	134.182281	0.000375	3.749820	1.270473	-0.000150
 655	6.5073e+01	13.9199	134.036944	0.000365	3.648473	1.236136	-0.000146
 656	6.5172e+01	13.8782	133.871421	0.000416	4.155206	1.407822	-0.000166
 657	6.5272e+01	13.8269	133.713973	0.000395	3.952513	1.339148	-0.000158
 658	6.5371e+01	13.7948	133.576710	0.000345	3.445780	1.167462	-0.000138
 659	6.5471e+01	13.7483	133.427336	0.000375	3.749820	1.270473	-0.000150
 660	6.5570e+01	13.7210	133.277962	0.000375	3.749820	1.270473	-0.000150
 661	6.5670e+01	13.6665	133.108402	0.000426	4.256552	1.442159	-0.000170
 662	6.5769e+01	13.6424	132.999400	0.000274	2.736355	0.927102	-0.000110
 663	6.5869e+01	13.5895	132.837914	0.000405	4.053859	1.373485	-0.000162
 664	6.5969e+01	13.5590	132.676429	0.000405	4.053859	1.373485	-0.000162
 665	6.6068e+01	13.5141	132.523018	0.000385	3.851166	1.304810	-0.000154
 666	6.6168e+01	13.4804	132.337309	0.000466	4.661938	1.579507	-0.000187
 667	6.6267e+01	13.4371	132.216195	0.000304	3.040395	1.030114	-0.000122
 668	6.6367e+01	13.4050	132.099118	0.000294	2.939048	0.995776	-0.000118
 669	6.6466e+01	13.3568	131.933596	0.000416	4.155206	1.407822	-0.000166
 670	6.6566e+01	13.3199	131.759999	0.000436	4.357899	1.476496	-0.000174
 671	6.6665e+01	13.2766	131.606588	0.000385	3.851166	1.304810	-0.000154
 672	6.6764e+01	13.2413	131.477400	0.000324	3.243087	1.098788	-0.000130
 673	6.6864e+01	13.1948	131.323988	0.000385	3.851166	1.304810	-0.000154
 674	6.6963e+01	13.1531	131.162503	0.000405	4.053859	1.373485	-0.000162
 675	6.7063e+01	13.1242	131.001018	0.000405	4.053859	1.373485	-0.000162
 676	6.7162e+01	13.0793	130.859718	0.000355	3.547127	1.201799	-0.000142
 677	6.7262e+01	13.0360	130.710344	0.000375	3.749820	1.270473	-0.000150
 678	6.7362e+01	12.9975	130.536747	0.000436	4.357899	1.476496	-0.000174
 679	6.7461e+01	12.9542	130.399484	0.000345	3.445780	1.167462	-0.000138
 680	6.7561e+01	12.9205	130.237999	0.000405	4.053859	1.373485	-0.000162
 681	6.7660e+01	12.8804	130.076513	0.000405	4.053859	1.373485	-0.000162
 682	6.7760e+01	12.8451	129.939251	0.000345	3.445780	1.167462	-0.000138
 683	6.7859e+01	12.8002	129.797951	0.000355	3.547127	1.201799	-0.000142
 684	6.7959e+01	12.7649	129.600131	0.000497	4.965978	1.682519	-0.000199
 685	6.8058e+01	12.7184	129.458832	0.000355	3.547127	1.201799	-0.000142
 686	6.8157e+01	12.6815	129.309458	0.000375	3.749820	1.270473	-0.000150
 687	6.8257e+01	12.6430	129.143935	0.000416	4.155206	1.407822	-0.000166
 688	6.8356e+01	12.6045	128.982450	0.000405	4.053859	1.373485	-0.000162
 689	6.8456e+01	12.5595	128.833076	0.000375	3.749820	1.270473	-0.000150
 690	6.8555e+01	12.5242	128.643330	0.000476	4.763285	1.613845	-0.000191
 691	6.8655e+01	12.4841	128.510105	0.000334	3.344434	1.133125	-0.000134
 692	6.8754e+01	12.4424	128.316322	0.000486	4.864631	1.648182	-0.000195
 693	6.8854e+01	12.4119	128.187134	0.000324	3.243087	1.098788	-0.000130
 694	6.8954e+01	12.3654	128.021611	0.000416	4.155206	1.407822	-0.000166
 695	6.9053e+01	12.3285	127.856089	0.000416	4.155206	1.407822	-0.000166
 696	6.9153e+01	12.2948	127.646158	0.000527	5.270017	1.785530	-0.000211
 697	6.9252e+01	12.2499	127.516969	0.000324	3.243087	1.098788	-0.000130
 698	6.9352e+01	12.2050	127.367595	0.000375	3.749820	1.270473	-0.000150
 699	6.9451e+01	12.1665	127.198036	0.000426	4.256552	1.442159	-0.000170
 700	6.9550e+01	12.1232	127.048662	0.000375	3.749820	1.270473	-0.000150
 701	6.9650e+01	12.0927	126.866991	0.000456	4.560592	1.545170	-0.000183
 702	6.9749e+01	12.0494	126.737802	0.000324	3.243087	1.098788	-0.000130
 703	6.9849e+01	12.0045	126.539983	0.000497	4.965978	1.682519	-0.000199
 704	6.9948e+01	11.9628	126.378497	0.000405	4.053859	1.373485	-0.000162
 705	7.0048e+01	11.9275	126.200863	0.000446	4.459245	1.510833	-0.000179
 706	7.0147e+01	11.8890	126.063601	0.000345	3.445780	1.167462	-0.000138
 707	7.0247e+01	11.8408	125.873855	0.000476	4.763285	1.613845	-0.000191
 708	7.0347e+01	11.8072	125.680073	0.000486	4.864631	1.648182	-0.000195
 709	7.0446e+01	11.7703	125.558959	0.000304	3.040395	1.030114	-0.000122
 710	7.0546e+01	11.7269	125.393436	0.000416	4.155206	1.407822	-0.000166
 711	7.0645e+01	11.6852	125.191579	0.000507	5.067324	1.716856	-0.000203
 712	7.0745e+01	11.6483	125.042205	0.000375	3.749820	1.270473	-0.000150
 713	7.0844e+01	11.6066	124.896868	0.000365	3.648473	1.236136	-0.000146
 714	7.0944e+01	11.5617	124.723271	0.000436	4.357899	1.476496	-0.000174
 715	7.1043e+01	11.5312	124.557749	0.000416	4.155206	1.407822	-0.000166
 716	7.1142e+01	11.4911	124.363966	0.000486	4.864631	1.648182	-0.000195
 717	7.1242e+01	11.4414	124.234778	0.000324	3.243087	1.098788	-0.000130
 718	7.1341e+01	11.4045	124.069256	0.000416	4.155206	1.407822	-0.000166
 719	7.1441e+01	11.3628	123.879510	0.000476	4.763285	1.613845	-0.000191
 720	7.1540e+01	11.3339	123.705913	0.000436	4.357899	1.476496	-0.000174
 721	7.1640e+01	11.2922	123.532316	0.000436	4.357899	1.476496	-0.000174
 722	7.1740e+01	11.2457	123.354682	0.000446	4.459245	1.510833	-0.000179
 723	7.1839e+01	11.2088	123.209346	0.000365	3.648473	1.236136	-0.000146
 724	7.1939e+01	11.1639	123.031712	0.000446	4.459245	1.510833	-0.000179
 725	7.2038e+01	11.1238	122.862152	0.000426	4.256552	1.442159	-0.000170
 726	7.2138e+01	11.0852	122.660295	0.000507	5.067324	1.716856	-0.000203
 727	7.2237e+01	11.0467	122.514958	0.000365	3.648473	1.236136	-0.000146
 728	7.2337e+01	11.0098	122.353473	0.000405	4.053859	1.373485	-0.000162
 729	7.2436e+01	10.9649	122.159690	0.000486	4.864631	1.648182	-0.000195
 730	7.2535e+01	10.9232	122.038576	0.000304	3.040395	1.030114	-0.000122
 731	7.2635e+01	10.8879	121.804422	0.000588	5.878096	1.991553	-0.000235
 732	7.2734e+01	10.8366	121.651011	0.000385	3.851166	1.304810	-0.000154
 733	7.2834e+01	10.8109	121.457229	0.000486	4.864631	1.648182	-0.000195
 734	7.2933e+01	10.7756	121.311892	0.000365	3.648473	1.236136	-0.000146
 735	7.3033e+01	10.7339	121.130221	0.000456	4.560592	1.545170	-0.000183
 736	7.3132e+01	10.6890	120.940475	0.000476	4.763285	1.613845	-0.000191
 737	7.3232e+01	10.6537	120.787064	0.000385	3.851166	1.304810	-0.000154
 738	7.3332e+01	10.6040	120.621542	0.000416	4.155206	1.407822	-0.000166
 739	7.3431e+01	10.5703	120.447945	0.000436	4.357899	1.476496	-0.000174
 740	7.3531e+01	10.5366	120.286459	0.000405	4.053859	1.373485	-0.000162
 741	7.3630e+01	10.4853	120.040194	0.000618	6.182136	2.094564	-0.000248
 742	7.3730e+01	10.4580	119.906969	0.000334	3.344434	1.133125	-0.000134
 743	7.3829e+01	10.4131	119.761632	0.000365	3.648473	1.236136	-0.000146
 744	7.3928e+01	10.3666	119.551701	0.000527	5.270017	1.785530	-0.000211
 745	7.4028e+01	10.3313	119.390215	0.000405	4.053859	1.373485	-0.000162
 746	7.4127e+01	10.2928	119.196433	0.000486	4.864631	1.648182	-0.000195
 747	7.4227e+01	10.2494	119.030910	0.000416	4.155206	1.407822	-0.000166
 748	7.4326e+01	10.2093	118.877499	0.000385	3.851166	1.304810	-0.000154
 749	7.4426e+01	10.1789	118.667568	0.000527	5.270017	1.785530	-0.000211
 750	7.4525e+01	10.1323	118.477823	0.000476	4.763285	1.613845	-0.000191
 751	7.4625e+01	10.0938	118.332486	0.000365	3.648473	1.236136	-0.000146
 752	7.4725e+01	10.0489	118.138703	0.000486	4.864631	1.648182	-0.000195
 753	7.4824e+01	10.0104	117.961069	0.000446	4.459245	1.510833	-0.000179
 754	7.4924e+01	9.9671	117.787472	0.000436	4.357899	1.476496	-0.000174
 755	7.5023e+01	9.9318	117.573504	0.000537	5.371364	1.819867	-0.000215
 756	7.5123e+01	9.8997	117.440279	0.000334	3.344434	1.133125	-0.000134
 757	7.5222e+01	9.8452	117.226310	0.000537	5.371364	1.819867	-0.000215
 758	7.5322e+01	9.8115	117.048676	0.000446	4.459245	1.510833	-0.000179
 759	7.5421e+01	9.7778	116.858931	0.000476	4.763285	1.613845	-0.000191
 760	7.5520e+01	9.7345	116.673223	0.000466	4.661938	1.579507	-0.000187
 761	7.5620e+01	9.6928	116.523849	0.000375	3.749820	1.270473	-0.000150
 762	7.5719e+01	9.6463	116.317955	0.000517	5.168671	1.751193	-0.000207
 763	7.5819e+01	9.6158	116.140321	0.000446	4.459245	1.510833	-0.000179
 764	7.5918e+01	9.5709	115.942501	0.000497	4.965978	1.682519	-0.000199
 765	7.6018e+01	9.5291	115.760830	0.000456	4.560592	1.545170	-0.000183
 766	7.6118e+01	9.4971	115.575122	0.000466	4.661938	1.579507	-0.000187
 767	7.6217e+01	9.4570	115.405562	0.000426	4.256552	1.442159	-0.000170
 768	7.6317e+01	9.4297	115.215817	0.000476	4.763285	1.613845	-0.000191
 769	7.6416e+01	9.3767	115.042220	0.000436	4.357899	1.476496	-0.000174
 770	7.6516e+01	9.3334	114.844400	0.000497	4.965978	1.682519	-0.000199
 771	7.6615e+01	9.2965	114.678878	0.000416	4.155206	1.407822	-0.000166
 772	7.6715e+01	9.2596	114.460872	0.000547	5.472710	1.854204	-0.000219
 773	7.6814e+01	9.2099	114.283238	0.000446	4.459245	1.510833	-0.000179
 774	7.6913e+01	9.1858	114.125790	0.000395	3.952513	1.339148	-0.000158
 775	7.7013e+01	9.1281	113.936045	0.000476	4.763285	1.613845	-0.000191
 776	7.7112e+01	9.0976	113.730151	0.000517	5.168671	1.751193	-0.000207
 777	7.7212e+01	9.0575	113.560591	0.000426	4.256552	1.442159	-0.000170
 778	7.7311e+01	9.0126	113.382957	0.000446	4.459245	1.510833	-0.000179
 779	7.7411e+01	8.9789	113.181100	0.000507	5.067324	1.716856	-0.000203
 780	7.7510e+01	8.9356	112.983281	0.000497	4.965978	1.682519	-0.000199
 781	7.7610e+01	8.8939	112.817758	0.000416	4.155206	1.407822	-0.000166
 782	7.7710e+01	8.8586	112.660310	0.000395	3.952513	1.339148	-0.000158
 783	7.7809e+01	8.8169	112.434230	0.000568	5.675403	1.922879	-0.000227
 784	7.7909e+01	8.7687	112.256596	0.000446	4.459245	1.510833	-0.000179
 785	7.8008e+01	8.7350	112.062814	0.000486	4.864631	1.648182	-0.000195
 786	7.8108e+01	8.7014	111.897291	0.000416	4.155206	1.407822	-0.000166
 787	7.8207e+01	8.6484	111.735806	0.000405	4.053859	1.373485	-0.000162
 788	7.8306e+01	8.6179	111.505689	0.000578	5.776750	1.957216	-0.000231
 789	7.8406e+01	8.5698	111.352278	0.000385	3.851166	1.304810	-0.000154
 790	7.8505e+01	8.5393	111.142347	0.000527	5.270017	1.785530	-0.000211
 791	7.8605e+01	8.5040	110.964713	0.000446	4.459245	1.510833	-0.000179
 792	7.8704e+01	8.4559	110.738633	0.000568	5.675403	1.922879	-0.000227
 793	7.8804e+01	8.4142	110.552925	0.000466	4.661938	1.579507	-0.000187
 794	7.8903e+01	8.3725	110.375291	0.000446	4.459245	1.510833	-0.000179
 795	7.9003e+01	8.3436	110.193620	0.000456	4.560592	1.545170	-0.000183
 796	7.9103e+01	8.3051	109.967540	0.000568	5.675403	1.922879	-0.000227
 797	7.9202e+01	8.2474	109.814129	0.000385	3.851166	1.304810	-0.000154
 798	7.9302e+01	8.2201	109.624384	0.000476	4.763285	1.613845	-0.000191
 799	7.9401e+01	8.1704	109.386193	0.000598	5.979443	2.025890	-0.000239
 800	7.9501e+01	8.1286	109.200485	0.000466	4.661938	1.579507	-0.000187
 801	7.9600e+01	8.0966	109.026888	0.000436	4.357899	1.476496	-0.000174
 802	7.9700e+01	8.0532	108.800808	0.000568	5.675403	1.922879	-0.000227
 803	7.9799e+01	8.0244	108.631248	0.000426	4.256552	1.442159	-0.000170
 804	7.9898e+01	7.9778	108.405169	0.000568	5.675403	1.922879	-0.000227
 805	7.9998e+01	7.9345	108.207349	0.000497	4.965978	1.682519	-0.000199
 806	8.0097e+01	7.9025	108.037789	0.000426	4.256552	1.442159	-0.000170
 807	8.0197e+01	7.8607	107.831896	0.000517	5.168671	1.751193	-0.000207
 808	8.0296e+01	7.8238	107.630039	0.000507	5.067324	1.716856	-0.000203
 809	8.0396e+01	7.7805	107.464516	0.000416	4.155206	1.407822	-0.000166
 810	8.0496e+01	7.7517	107.278808	0.000466	4.661938	1.579507	-0.000187
 811	8.0595e+01	7.7099	107.052728	0.000568	5.675403	1.922879	-0.000227
 812	8.0695e+01	7.6634	106.875094	0.000446	4.459245	1.510833	-0.000179
 813	8.0794e+01	7.6217	106.653052	0.000557	5.574057	1.888542	-0.000223
 814	8.0894e+01	7.5784	106.463307	0.000476	4.763285	1.613845	-0.000191
 815	8.0993e+01	7.5351	106.261450	0.000507	5.067324	1.716856	-0.000203
 816	8.1093e+01	7.4998	106.047482	0.000537	5.371364	1.819867	-0.000215
 817	8.1192e+01	7.4661	105.857736	0.000476	4.763285	1.613845	-0.000191
 818	8.1291e+01	7.4260	105.647805	0.000527	5.270017	1.785530	-0.000211
 819	8.1391e+01	7.3827	105.449985	0.000497	4.965978	1.682519	-0.000199
 820	8.1490e+01	7.3297	105.248129	0.000507	5.067324	1.716856	-0.000203
 821	8.1590e+01	7.2993	105.062420	0.000466	4.661938	1.579507	-0.000187
 822	8.1689e+01	7.2656	104.836341	0.000568	5.675403	1.922879	-0.000227
 823	8.1789e+01	7.2207	104.650633	0.000466	4.661938	1.579507	-0.000187
 824	8.1888e+01	7.1822	104.444739	0.000517	5.168671	1.751193	-0.000207
 825	8.1988e+01	7.1372	104.254993	0.000476	4.763285	1.613845	-0.000191
 826	8.2088e+01	7.1003	104.057174	0.000497	4.965978	1.682519	-0.000199
 827	8.2187e+01	7.0682	103.831094	0.000568	5.675403	1.922879	-0.000227
 828	8.2287e+01	7.0249	103.633274	0.000497	4.965978	1.682519	-0.000199
 829	8.2386e+01	6.9832	103.378935	0.000638	6.384829	2.163238	-0.000256
 830	8.2486e+01	6.9495	103.241672	0.000345	3.445780	1.167462	-0.000138
 831	8.2585e+01	6.9030	102.987333	0.000638	6.384829	2.163238	-0.000256
 832	8.2684e+01	6.8597	102.805662	0.000456	4.560592	1.545170	-0.000183
 833	8.2784e+01	6.8180	102.599768	0.000517	5.168671	1.751193	-0.000207
 834	8.2883e+01	6.7859	102.393874	0.000517	5.168671	1.751193	-0.000207
 835	8.2983e+01	6.7458	102.183943	0.000527	5.270017	1.785530	-0.000211
 836	8.3082e+01	6.7073	101.986123	0.000497	4.965978	1.682519	-0.000199
 837	8.3182e+01	6.6640	101.788303	0.000497	4.965978	1.682519	-0.000199
 838	8.3281e+01	6.6239	101.582409	0.000517	5.168671	1.751193	-0.000207
 839	8.3381e+01	6.5774	101.364404	0.000547	5.472710	1.854204	-0.000219
 840	8.3481e+01	6.5469	101.138325	0.000568	5.675403	1.922879	-0.000227
 841	8.3580e+01	6.5020	100.948579	0.000476	4.763285	1.613845	-0.000191
 842	8.3680e+01	6.4618	100.726537	0.000557	5.574057	1.888542	-0.000223
 843	8.3779e+01	6.4233	100.540828	0.000466	4.661938	1.579507	-0.000187
 844	8.3879e+01	6.3945	100.334934	0.000517	5.168671	1.751193	-0.000207
 845	8.3978e+01	6.3479	100.133078	0.000507	5.067324	1.716856	-0.000203
 846	8.4078e+01	6.3111	99.890850	0.000608	6.080789	2.060227	-0.000243
 847	8.4177e+01	6.2661	99.688993	0.000507	5.067324	1.716856	-0.000203
 848	8.4276e+01	6.2292	99.475025	0.000537	5.371364	1.819867	-0.000215
 849	8.4376e+01	6.1827	99.269131	0.000517	5.168671	1.751193	-0.000207
 850	8.4475e+01	6.1474	99.067274	0.000507	5.067324	1.716856	-0.000203
 851	8.4575e+01	6.1041	98.849269	0.000547	5.472710	1.854204	-0.000219
 852	8.4674e+01	6.0704	98.623189	0.000568	5.675403	1.922879	-0.000227
 853	8.4774e+01	6.0223	98.429406	0.000486	4.864631	1.648182	-0.000195
 854	8.4874e+01	5.9886	98.187178	0.000608	6.080789	2.060227	-0.000243
 855	8.4973e+01	5.9437	97.997433	0.000476	4.763285	1.613845	-0.000191
 856	8.5073e+01	5.9036	97.775390	0.000557	5.574057	1.888542	-0.000223
 857	8.5172e+01	5.8683	97.553348	0.000557	5.574057	1.888542	-0.000223
 858	8.5272e+01	5.8218	97.307083	0.000618	6.182136	2.094564	-0.000248
 859	8.5371e+01	5.7881	97.133486	0.000436	4.357899	1.476496	-0.000174
 860	8.5471e+01	5.7528	96.895295	0.000598	5.979443	2.025890	-0.000239
 861	8.5570e+01	5.7095	96.693438	0.000507	5.067324	1.716856	-0.000203
 862	8.5669e+01	5.6694	96.463321	0.000578	5.776750	1.957216	-0.000231
 863	8.5769e+01	5.6276	96.204945	0.000649	6.486175	2.197576	-0.000260
 864	8.5868e+01	5.5956	95.986939	0.000547	5.472710	1.854204	-0.000219
 865	8.5968e+01	5.5474	95.777008	0.000527	5.270017	1.785530	-0.000211
 866	8.6067e+01	5.5121	95.579189	0.000497	4.965978	1.682519	-0.000199
 867	8.6167e+01	5.4624	95.369258	0.000527	5.270017	1.785530	-0.000211
 868	8.6266e+01	5.4239	95.078584	0.000730	7.296947	2.472273	-0.000292
 869	8.6366e+01	5.3838	94.904987	0.000436	4.357899	1.476496	-0.000174
 870	8.6466e+01	5.3533	94.638536	0.000669	6.688868	2.266250	-0.000268
 871	8.6565e+01	5.3132	94.460902	0.000446	4.459245	1.510833	-0.000179
 872	8.6665e+01	5.2715	94.238860	0.000557	5.574057	1.888542	-0.000223
 873	8.6764e+01	5.2202	94.004706	0.000588	5.878096	1.991553	-0.000235
 874	8.6864e+01	5.1929	93.790737	0.000537	5.371364	1.819867	-0.000215
 875	8.6963e+01	5.1416	93.540435	0.000628	6.283482	2.128901	-0.000252
 876	8.7063e+01	5.1191	93.306281	0.000588	5.878096	1.991553	-0.000235
 877	8.7162e+01	5.0630	93.092313	0.000537	5.371364	1.819867	-0.000215
 878	8.7261e+01	5.0277	92.870271	0.000557	5.574057	1.888542	-0.000223
 879	8.7361e+01	4.9876	92.684562	0.000466	4.661938	1.579507	-0.000187
 880	8.7460e+01	4.9475	92.381777	0.000760	7.600986	2.575284	-0.000304
 881	8.7560e+01	4.9041	92.192032	0.000476	4.763285	1.613845	-0.000191
 882	8.7659e+01	4.8688	91.945766	0.000618	6.182136	2.094564	-0.000248
 883	8.7759e+01	4.8207	91.747947	0.000497	4.965978	1.682519	-0.000199
 884	8.7859e+01	4.7934	91.501682	0.000618	6.182136	2.094564	-0.000248
 885	8.7958e+01	4.7485	91.279639	0.000557	5.574057	1.888542	-0.000223
 886	8.8058e+01	4.7197	91.057597	0.000557	5.574057	1.888542	-0.000223
 887	8.8157e+01	4.6667	90.843628	0.000537	5.371364	1.819867	-0.000215
 888	8.8257e+01	4.6443	90.605437	0.000598	5.979443	2.025890	-0.000239
 889	8.8356e+01	4.5865	90.367246	0.000598	5.979443	2.025890	-0.000239
 890	8.8456e+01	4.5496	90.112907	0.000638	6.384829	2.163238	-0.000256
 891	8.8555e+01	4.5143	89.894901	0.000547	5.472710	1.854204	-0.000219
 892	8.8654e+01	4.4678	89.648636	0.000618	6.182136	2.094564	-0.000248
 893	8.8754e+01	4.4357	89.422557	0.000568	5.675403	1.922879	-0.000227
 894	8.8853e+01	4.3892	89.188403	0.000588	5.878096	1.991553	-0.000235
 895	8.8953e+01	4.3555	88.966360	0.000557	5.574057	1.888542	-0.000223
 896	8.9052e+01	4.3186	88.724132	0.000608	6.080789	2.060227	-0.000243
 897	8.9152e+01	4.2785	88.469793	0.000638	6.384829	2.163238	-0.000256
 898	8.9251e+01	4.2384	88.267936	0.000507	5.067324	1.716856	-0.000203
 899	8.9351e+01	4.1919	88.009559	0.000649	6.486175	2.197576	-0.000260
 900	8.9451e+01	4.1502	87.783479	0.000568	5.675403	1.922879	-0.000227
 901	8.9550e+01	4.1133	87.529140	0.000638	6.384829	2.163238	-0.000256
 902	8.9650e+01	4.0844	87.278838	0.000628	6.283482	2.128901	-0.000252
 903	8.9749e+01	4.0362	87.081018	0.000497	4.965978	1.682519	-0.000199
 904	8.9849e+01	4.0042	86.830715	0.000628	6.283482	2.128901	-0.000252
 905	8.9948e+01	3.9576	86.628859	0.000507	5.067324	1.716856	-0.000203
 906	9.0047e+01	3.9095	86.326073	0.000760	7.600986	2.575284	-0.000304
 907	9.0147e+01	3.8694	86.140365	0.000466	4.661938	1.579507	-0.000187
 908	9.0246e+01	3.8405	85.881989	0.000649	6.486175	2.197576	-0.000260
 909	9.0346e+01	3.7844	85.651872	0.000578	5.776750	1.957216	-0.000231
 910	9.0445e+01	3.7491	85.377347	0.000689	6.891561	2.334924	-0.000276
 911	9.0545e+01	3.7170	85.131081	0.000618	6.182136	2.094564	-0.000248
 912	9.0644e+01	3.6705	84.913076	0.000547	5.472710	1.854204	-0.000219
 913	9.0744e+01	3.6432	84.666811	0.000618	6.182136	2.094564	-0.000248
 914	9.0844e+01	3.5999	84.420545	0.000618	6.182136	2.094564	-0.000248
 915	9.0943e+01	3.5550	84.170243	0.000628	6.283482	2.128901	-0.000252
 916	9.1043e+01	3.5165	83.952238	0.000547	5.472710	1.854204	-0.000219
 917	9.1142e+01	3.4764	83.673675	0.000699	6.992907	2.369261	-0.000280
 918	9.1242e+01	3.4315	83.447596	0.000568	5.675403	1.922879	-0.000227
 919	9.1341e+01	3.4026	83.173070	0.000689	6.891561	2.334924	-0.000276
 920	9.1441e+01	3.3577	82.951028	0.000557	5.574057	1.888542	-0.000223
 921	9.1540e+01	3.3159	82.660354	0.000730	7.296947	2.472273	-0.000292
 922	9.1639e+01	3.2823	82.385829	0.000689	6.891561	2.334924	-0.000276
 923	9.1739e+01	3.2406	82.175898	0.000527	5.270017	1.785530	-0.000211
 924	9.1838e+01	3.1924	81.897336	0.000699	6.992907	2.369261	-0.000280
 925	9.1938e+01	3.1635	81.695479	0.000507	5.067324	1.716856	-0.000203
 926	9.2037e+01	3.1138	81.404805	0.000730	7.296947	2.472273	-0.000292
 927	9.2137e+01	3.0753	81.166614	0.000598	5.979443	2.025890	-0.000239
 928	9.2237e+01	3.0432	80.936497	0.000578	5.776750	1.957216	-0.000231
 929	9.2336e+01	3.0031	80.637749	0.000750	7.499640	2.540947	-0.000300
 930	9.2436e+01	2.9566	80.411670	0.000568	5.675403	1.922879	-0.000227
 931	9.2535e+01	2.9181	80.165404	0.000618	6.182136	2.094564	-0.000248
 932	9.2635e+01	2.8764	79.894916	0.000679	6.790214	2.300587	-0.000272
 933	9.2734e+01	2.8379	79.624428	0.000679	6.790214	2.300587	-0.000272
 934	9.2834e+01	2.7930	79.410460	0.000537	5.371364	1.819867	-0.000215
 935	9.2933e+01	2.7593	79.123823	0.000720	7.195600	2.437935	-0.000288
 936	9.3032e+01	2.7176	78.897744	0.000568	5.675403	1.922879	-0.000227
 937	9.3132e+01	2.6775	78.631293	0.000669	6.688868	2.266250	-0.000268
 938	9.3231e+01	2.6486	78.336582	0.000740	7.398293	2.506610	-0.000296
 939	9.3331e+01	2.6053	78.114539	0.000557	5.574057	1.888542	-0.000223
 940	9.3430e+01	2.5620	77.844051	0.000679	6.790214	2.300587	-0.000272
 941	9.3530e+01	2.5106	77.589712	0.000638	6.384829	2.163238	-0.000256
 942	9.3629e+01	2.4753	77.363632	0.000568	5.675403	1.922879	-0.000227
 943	9.3729e+01	2.4497	77.056810	0.000770	7.702333	2.609621	-0.000308
 944	9.3829e+01	2.4015	76.786322	0.000679	6.790214	2.300587	-0.000272
 945	9.3928e+01	2.3566	76.560242	0.000568	5.675403	1.922879	-0.000227
 946	9.4028e+01	2.3149	76.293791	0.000669	6.688868	2.266250	-0.000268
 947	9.4127e+01	2.2828	76.047526	0.000618	6.182136	2.094564	-0.000248
 948	9.4227e+01	2.2459	75.752815	0.000740	7.398293	2.506610	-0.000296
 949	9.4326e+01	2.1994	75.498475	0.000638	6.384829	2.163238	-0.000256
 950	9.4425e+01	2.1625	75.223950	0.000689	6.891561	2.334924	-0.000276
 951	9.4525e+01	2.1128	74.965574	0.000649	6.486175	2.197576	-0.000260
 952	9.4624e+01	2.0743	74.695085	0.000679	6.790214	2.300587	-0.000272
 953	9.4724e+01	2.0374	74.416523	0.000699	6.992907	2.369261	-0.000280
 954	9.4823e+01	2.0053	74.170258	0.000618	6.182136	2.094564	-0.000248
 955	9.4923e+01	1.9507	73.883621	0.000720	7.195600	2.437935	-0.000288
 956	9.5022e+01	1.9171	73.605059	0.000699	6.992907	2.369261	-0.000280
 957	9.5122e+01	1.8850	73.338608	0.000669	6.688868	2.266250	-0.000268
 958	9.5222e+01	1.8481	73.084268	0.000638	6.384829	2.163238	-0.000256
 959	9.5321e+01	1.8016	72.773409	0.000780	7.803679	2.643958	-0.000312
 960	9.5421e+01	1.7663	72.498884	0.000689	6.891561	2.334924	-0.000276
 961	9.5520e+01	1.7229	72.228395	0.000679	6.790214	2.300587	-0.000272
 962	9.5620e+01	1.6860	71.974056	0.000638	6.384829	2.163238	-0.000256
 963	9.5719e+01	1.6427	71.715679	0.000649	6.486175	2.197576	-0.000260
 964	9.5819e+01	1.6139	71.380597	0.000841	8.411758	2.849981	-0.000337
 965	9.5918e+01	1.5513	71.114146	0.000669	6.688868	2.266250	-0.000268
 966	9.6017e+01	1.5144	70.871918	0.000608	6.080789	2.060227	-0.000243
 967	9.6117e+01	1.4871	70.552984	0.000801	8.006372	2.712632	-0.000321
 968	9.6216e+01	1.4470	70.250199	0.000760	7.600986	2.575284	-0.000304
 969	9.6316e+01	1.3957	70.024119	0.000568	5.675403	1.922879	-0.000227
 970	9.6415e+01	1.3604	69.705186	0.000801	8.006372	2.712632	-0.000321
 971	9.6515e+01	1.3299	69.430660	0.000689	6.891561	2.334924	-0.000276
 972	9.6615e+01	1.2850	69.180358	0.000628	6.283482	2.128901	-0.000252
 973	9.6714e+01	1.2417	68.857387	0.000811	8.107719	2.746969	-0.000325
 974	9.6814e+01	1.2048	68.562676	0.000740	7.398293	2.506610	-0.000296
 975	9.6913e+01	1.1711	68.288151	0.000689	6.891561	2.334924	-0.000276
 976	9.7013e+01	1.1310	67.993440	0.000740	7.398293	2.506610	-0.000296
 977	9.7112e+01	1.0845	67.722952	0.000679	6.790214	2.300587	-0.000272
 978	9.7212e+01	1.0347	67.404018	0.000801	8.006372	2.712632	-0.000321
 979	9.7311e+01	1.0059	67.121419	0.000709	7.094254	2.403598	-0.000284
 980	9.7410e+01	0.9722	66.875154	0.000618	6.182136	2.094564	-0.000248
 981	9.7510e+01	0.9256	66.523923	0.000882	8.817144	2.987329	-0.000353
 982	9.7609e+01	0.8920	66.213063	0.000780	7.803679	2.643958	-0.000312
 983	9.7709e+01	0.8374	65.942575	0.000679	6.790214	2.300587	-0.000272
 984	9.7808e+01	0.8069	65.664013	0.000699	6.992907	2.369261	-0.000280
 985	9.7908e+01	0.7668	65.316819	0.000872	8.715798	2.952992	-0.000349
 986	9.8007e+01	0.7283	65.046331	0.000679	6.790214	2.300587	-0.000272
 987	9.8107e+01	0.6770	64.759694	0.000720	7.195600	2.437935	-0.000288
 988	9.8207e+01	0.6481	64.412501	0.000872	8.715798	2.952992	-0.000349
 989	9.8306e+01	0.6064	64.129901	0.000709	7.094254	2.403598	-0.000284
 990	9.8406e+01	0.5695	63.827116	0.000760	7.600986	2.575284	-0.000304
 991	9.8505e+01	0.5374	63.532405	0.000740	7.398293	2.506610	-0.000296
 992	9.8605e+01	0.4909	63.217509	0.000791	7.905026	2.678295	-0.000316
 993	9.8704e+01	0.4444	62.886463	0.000831	8.310412	2.815644	-0.000333
 994	9.8803e+01	0.4139	62.628087	0.000649	6.486175	2.197576	-0.000260
 995	9.8903e+01	0.3674	62.280893	0.000872	8.715798	2.952992	-0.000349
 996	9.9002e+01	0.3273	61.998294	0.000709	7.094254	2.403598	-0.000284
 997	9.9102e+01	0.2872	61.643026	0.000892	8.918491	3.021666	-0.000357
 998	9.9201e+01	0.2406	61.324092	0.000801	8.006372	2.712632	-0.000321
 999	9.9301e+01	0.2053	61.033418	0.000730	7.296947	2.472273	-0.000292
1000	9.9400e+01	0.1636	60.718522	0.000791	7.905026	2.678295	-0.000316
1001	9.9500e+01	0.1235	60.383439	0.000841	8.411758	2.849981	-0.000337
1002	9.9600e+01	0.0834	60.096803	0.000720	7.195600	2.437935	-0.000288
1003	9.9699e+01	0.0481	59.777869	0.000801	8.006372	2.712632	-0.000321
1004	9.9799e+01	0.0016	59.462972	0.000791	7.905026	2.678295	-0.000316
1005	9.9898e+01	-0.0193	59.152113	0.000780	7.803679	2.643958	-0.000312
1006	9.9998e+01	-0.0578	58.817031	0.000841	8.411758	2.849981	-0.000337
1007	1.0010e+02	-0.1027	58.522320	0.000740	7.398293	2.506610	-0.000296
1008	1.0020e+02	-0.1428	58.223572	0.000750	7.499640	2.540947	-0.000300
1009	1.0030e+02	-0.1765	57.852155	0.000932	9.323877	3.159015	-0.000373
1010	1.0040e+02	-0.2294	57.541296	0.000780	7.803679	2.643958	-0.000312
1011	1.0050e+02	-0.2695	57.222362	0.000801	8.006372	2.712632	-0.000321
1012	1.0059e+02	-0.3032	56.867094	0.000892	8.918491	3.021666	-0.000357
1013	1.0069e+02	-0.3481	56.560272	0.000770	7.702333	2.609621	-0.000308
1014	1.0079e+02	-0.3850	56.245375	0.000791	7.905026	2.678295	-0.000316
1015	1.0089e+02	-0.4283	55.877996	0.000922	9.222530	3.124678	-0.000369
1016	1.0099e+02	-0.4540	55.599433	0.000699	6.992907	2.369261	-0.000280
1017	1.0109e+02	-0.5005	55.264351	0.000841	8.411758	2.849981	-0.000337
1018	1.0119e+02	-0.5422	54.884860	0.000953	9.526570	3.227689	-0.000381
1019	1.0129e+02	-0.5839	54.574001	0.000780	7.803679	2.643958	-0.000312
1020	1.0139e+02	-0.6176	54.202584	0.000932	9.323877	3.159015	-0.000373
1021	1.0149e+02	-0.6658	53.875576	0.000821	8.209065	2.781307	-0.000329
1022	1.0159e+02	-0.6994	53.488011	0.000973	9.729262	3.296363	-0.000390
1023	1.0169e+02	-0.7379	53.140818	0.000872	8.715798	2.952992	-0.000349
1024	1.0179e+02	-0.7813	52.838033	0.000760	7.600986	2.575284	-0.000304
1025	1.0189e+02	-0.8214	52.498913	0.000851	8.513105	2.884318	-0.000341
1026	1.0199e+02	-0.8551	52.107311	0.000983	9.830609	3.330700	-0.000394
1027	1.0209e+02	-0.8984	51.788377	0.000801	8.006372	2.712632	-0.000321
1028	1.0219e+02	-0.9401	51.412924	0.000943	9.425223	3.193352	-0.000377
1029	1.0229e+02	-0.9786	51.093990	0.000801	8.006372	2.712632	-0.000321
1030	1.0239e+02	-1.0235	50.730648	0.000912	9.121184	3.090341	-0.000365
1031	1.0248e+02	-1.0572	50.371343	0.000902	9.019837	3.056004	-0.000361
1032	1.0258e+02	-1.1053	50.008000	0.000912	9.121184	3.090341	-0.000365
1033	1.0268e+02	-1.1406	49.616398	0.000983	9.830609	3.330700	-0.000394
1034	1.0278e+02	-1.1791	49.305539	0.000780	7.803679	2.643958	-0.000312
1035	1.0288e+02	-1.2272	48.909899	0.000993	9.931955	3.365038	-0.000398
1036	1.0298e+02	-1.2529	48.566743	0.000861	8.614451	2.918655	-0.000345
1037	1.0308e+02	-1.3074	48.167066	0.001003	10.033302	3.399375	-0.000402
1038	1.0318e+02	-1.3427	47.791613	0.000943	9.425223	3.193352	-0.000377
1039	1.0328e+02	-1.3812	47.456531	0.000841	8.411758	2.849981	-0.000337
1040	1.0338e+02	-1.4165	47.073003	0.000963	9.627916	3.262026	-0.000385
1041	1.0348e+02	-1.4582	46.721772	0.000882	8.817144	2.987329	-0.000353
1042	1.0358e+02	-1.4951	46.354393	0.000922	9.222530	3.124678	-0.000369
1043	1.0368e+02	-1.5417	45.974902	0.000953	9.526570	3.227689	-0.000381
1044	1.0378e+02	-1.5818	45.587337	0.000973	9.729262	3.296363	-0.000390
1045	1.0388e+02	-1.6251	45.244180	0.000861	8.614451	2.918655	-0.000345
1046	1.0398e+02	-1.6524	44.816244	0.001074	10.742727	3.639735	-0.000430
1047	1.0408e+02	-1.6909	44.529607	0.000720	7.195600	2.437935	-0.000288
1048	1.0418e+02	-1.7390	44.150116	0.000953	9.526570	3.227689	-0.000381
1049	1.0428e+02	-1.7775	43.750440	0.001003	10.033302	3.399375	-0.000402
1050	1.0438e+02	-1.8160	43.346726	0.001013	10.134648	3.433712	-0.000406
1051	1.0447e+02	-1.8577	42.955124	0.000983	9.830609	3.330700	-0.000394
1052	1.0457e+02	-1.8914	42.616005	0.000851	8.513105	2.884318	-0.000341
1053	1.0467e+02	-1.9491	42.212291	0.001013	10.134648	3.433712	-0.000406
1054	1.0477e+02	-1.9780	41.861060	0.000882	8.817144	2.987329	-0.000353
1055	1.0487e+02	-2.0149	41.457347	0.001013	10.134648	3.433712	-0.000406
1056	1.0497e+02	-2.0518	41.073819	0.000963	9.627916	3.262026	-0.000385
1057	1.0507e+02	-2.0967	40.686254	0.000973	9.729262	3.296363	-0.000390
1058	1.0517e+02	-2.1417	40.306763	0.000953	9.526570	3.227689	-0.000381
1059	1.0527e+02	-2.1802	39.890938	0.001044	10.438688	3.536723	-0.000418
1060	1.0537e+02	-2.2219	39.527596	0.000912	9.121184	3.090341	-0.000365
1061	1.0547e+02	-2.2539	39.164254	0.000912	9.121184	3.090341	-0.000365
1062	1.0557e+02	-2.2892	38.780726	0.000963	9.627916	3.262026	-0.000385
1063	1.0567e+02	-2.3374	38.356827	0.001064	10.641381	3.605397	-0.000426
1064	1.0577e+02	-2.3711	38.029819	0.000821	8.209065	2.781307	-0.000329
1065	1.0587e+02	-2.4128	37.618031	0.001034	10.337341	3.502386	-0.000414
1066	1.0597e+02	-2.4641	37.222392	0.000993	9.931955	3.365038	-0.000398
1067	1.0607e+02	-2.4914	36.842901	0.000953	9.526570	3.227689	-0.000381
1068	1.0617e+02	-2.5347	36.447261	0.000993	9.931955	3.365038	-0.000398
1069	1.0627e+02	-2.5732	36.063734	0.000963	9.627916	3.262026	-0.000385
1070	1.0637e+02	-2.6229	35.655983	0.001024	10.235995	3.468049	-0.000410
1071	1.0647e+02	-2.6534	35.296678	0.000902	9.019837	3.056004	-0.000361
1072	1.0656e+02	-2.6919	34.909113	0.000973	9.729262	3.296363	-0.000390
1073	1.0666e+02	-2.7256	34.529622	0.000953	9.526570	3.227689	-0.000381
1074	1.0676e+02	-2.7801	34.158205	0.000932	9.323877	3.159015	-0.000373
1075	1.0686e+02	-2.8202	33.786789	0.000932	9.323877	3.159015	-0.000373
1076	1.0696e+02	-2.8491	33.370964	0.001044	10.438688	3.536723	-0.000418
1077	1.0706e+02	-2.8940	32.979362	0.000983	9.830609	3.330700	-0.000394
1078	1.0716e+02	-2.9390	32.607945	0.000932	9.323877	3.159015	-0.000373
1079	1.0726e+02	-2.9678	32.212306	0.000993	9.931955	3.365038	-0.000398
1080	1.0736e+02	-3.0111	31.861075	0.000882	8.817144	2.987329	-0.000353
1081	1.0746e+02	-3.0545	31.433139	0.001074	10.742727	3.639735	-0.000430
1082	1.0756e+02	-3.0914	31.077871	0.000892	8.918491	3.021666	-0.000357
1083	1.0766e+02	-3.1266	30.678194	0.001003	10.033302	3.399375	-0.000402
1084	1.0776e+02	-3.1700	30.326964	0.000882	8.817144	2.987329	-0.000353
1085	1.0786e+02	-3.2101	29.882879	0.001115	11.148113	3.777083	-0.000446
1086	1.0796e+02	-3.2502	29.547796	0.000841	8.411758	2.849981	-0.000337
1087	1.0806e+02	-3.2999	29.168306	0.000953	9.526570	3.227689	-0.000381
1088	1.0816e+02	-3.3320	28.776704	0.000983	9.830609	3.330700	-0.000394
1089	1.0826e+02	-3.3641	28.413361	0.000912	9.121184	3.090341	-0.000365
1090	1.0836e+02	-3.3994	28.029833	0.000963	9.627916	3.262026	-0.000385
1091	1.0845e+02	-3.4523	27.674565	0.000892	8.918491	3.021666	-0.000357
1092	1.0855e+02	-3.4940	27.311223	0.000912	9.121184	3.090341	-0.000365
1093	1.0865e+02	-3.5357	26.947881	0.000912	9.121184	3.090341	-0.000365
1094	1.0875e+02	-3.5726	26.564353	0.000963	9.627916	3.262026	-0.000385
1095	1.0885e+02	-3.6159	26.164677	0.001003	10.033302	3.399375	-0.000402
1096	1.0895e+02	-3.6512	25.781149	0.000963	9.627916	3.262026	-0.000385
1097	1.0905e+02	-3.6849	25.437992	0.000861	8.614451	2.918655	-0.000345
1098	1.0915e+02	-3.7282	25.090799	0.000872	8.715798	2.952992	-0.000349
1099	1.0925e+02	-3.7732	24.711308	0.000953	9.526570	3.227689	-0.000381
1100	1.0935e+02	-3.8101	24.347966	0.000912	9.121184	3.090341	-0.000365
1101	1.0945e+02	-3.8470	23.976549	0.000932	9.323877	3.159015	-0.000373
1102	1.0955e+02	-3.8935	23.645504	0.000831	8.310412	2.815644	-0.000333
1103	1.0965e+02	-3.9368	23.286199	0.000902	9.019837	3.056004	-0.000361
1104	1.0975e+02	-3.9609	22.898634	0.000973	9.729262	3.296363	-0.000390
1105	1.0985e+02	-4.0138	22.559515	0.000851	8.513105	2.884318	-0.000341
1106	1.0995e+02	-4.0475	22.192135	0.000922	9.222530	3.124678	-0.000369
1107	1.1005e+02	-4.0908	21.836867	0.000892	8.918491	3.021666	-0.000357
1108	1.1015e+02	-4.1197	21.493711	0.000861	8.614451	2.918655	-0.000345
1109	1.1025e+02	-4.1710	21.178814	0.000791	7.905026	2.678295	-0.000316
1110	1.1035e+02	-4.2031	20.843732	0.000841	8.411758	2.849981	-0.000337
1111	1.1044e+02	-4.2512	20.452130	0.000983	9.830609	3.330700	-0.000394
1112	1.1054e+02	-4.2737	20.157419	0.000740	7.398293	2.506610	-0.000296
1113	1.1064e+02	-4.3250	19.769854	0.000973	9.729262	3.296363	-0.000390
1114	1.1074e+02	-4.3683	19.438809	0.000831	8.310412	2.815644	-0.000333
1115	1.1084e+02	-4.4036	19.123912	0.000791	7.905026	2.678295	-0.000316
1116	1.1094e+02	-4.4534	18.760570	0.000912	9.121184	3.090341	-0.000365
1117	1.1104e+02	-4.4854	18.437599	0.000811	8.107719	2.746969	-0.000325
1118	1.1114e+02	-4.5239	18.082331	0.000892	8.918491	3.021666	-0.000357
1119	1.1124e+02	-4.5673	17.791657	0.000730	7.296947	2.472273	-0.000292
1120	1.1134e+02	-4.6090	17.432352	0.000902	9.019837	3.056004	-0.000361
1121	1.1144e+02	-4.6523	17.085158	0.000872	8.715798	2.952992	-0.000349
1122	1.1154e+02	-4.6924	16.762188	0.000811	8.107719	2.746969	-0.000325
1123	1.1164e+02	-4.7180	16.451328	0.000780	7.803679	2.643958	-0.000312
1124	1.1174e+02	-4.7614	16.156617	0.000740	7.398293	2.506610	-0.000296
1125	1.1184e+02	-4.8079	15.785201	0.000932	9.323877	3.159015	-0.000373
1126	1.1194e+02	-4.8464	15.474341	0.000780	7.803679	2.643958	-0.000312
1127	1.1204e+02	-4.8929	15.127148	0.000872	8.715798	2.952992	-0.000349
1128	1.1214e+02	-4.9298	14.800140	0.000821	8.209065	2.781307	-0.000329
1129	1.1224e+02	-4.9635	14.537726	0.000659	6.587521	2.231913	-0.000264
1130	1.1234e+02	-4.9988	14.174384	0.000912	9.121184	3.090341	-0.000365
1131	1.1244e+02	-5.0453	13.871598	0.000760	7.600986	2.575284	-0.000304
1132	1.1253e+02	-5.0854	13.544590	0.000821	8.209065	2.781307	-0.000329
1133	1.1263e+02	-5.1351	13.237768	0.000770	7.702333	2.609621	-0.000308
1134	1.1273e+02	-5.1640	12.914797	0.000811	8.107719	2.746969	-0.000325
1135	1.1283e+02	-5.2025	12.616049	0.000750	7.499640	2.540947	-0.000300
1136	1.1293e+02	-5.2507	12.280967	0.000841	8.411758	2.849981	-0.000337
1137	1.1303e+02	-5.2843	11.974145	0.000770	7.702333	2.609621	-0.000308
1138	1.1313e+02	-5.3261	11.675397	0.000750	7.499640	2.540947	-0.000300
1139	1.1323e+02	-5.3517	11.380686	0.000740	7.398293	2.506610	-0.000296
1140	1.1333e+02	-5.4143	11.085975	0.000740	7.398293	2.506610	-0.000296
1141	1.1343e+02	-5.4383	10.771078	0.000791	7.905026	2.678295	-0.000316
1142	1.1353e+02	-5.4865	10.468293	0.000760	7.600986	2.575284	-0.000304
1143	1.1363e+02	-5.5250	10.149359	0.000801	8.006372	2.712632	-0.000321
1144	1.1373e+02	-5.5587	9.882908	0.000669	6.688868	2.266250	-0.000268
1145	1.1383e+02	-5.6020	9.547826	0.000841	8.411758	2.849981	-0.000337
1146	1.1393e+02	-5.6357	9.265227	0.000709	7.094254	2.403598	-0.000284
1147	1.1403e+02	-5.6790	8.966478	0.000750	7.499640	2.540947	-0.000300
1148	1.1413e+02	-5.7319	8.619285	0.000872	8.715798	2.952992	-0.000349
1149	1.1423e+02	-5.7608	8.352834	0.000669	6.688868	2.266250	-0.000268
1150	1.1433e+02	-5.7961	8.094457	0.000649	6.486175	2.197576	-0.000260
1151	1.1442e+02	-5.8410	7.751301	0.000861	8.614451	2.918655	-0.000345
1152	1.1452e+02	-5.8827	7.464664	0.000720	7.195600	2.437935	-0.000288
1153	1.1462e+02	-5.9212	7.222436	0.000608	6.080789	2.060227	-0.000243
1154	1.1472e+02	-5.9581	6.927725	0.000740	7.398293	2.506610	-0.000296
1155	1.1482e+02	-6.0014	6.616865	0.000780	7.803679	2.643958	-0.000312
1156	1.1492e+02	-6.0319	6.322155	0.000740	7.398293	2.506610	-0.000296
1157	1.1502e+02	-6.0913	6.015332	0.000770	7.702333	2.609621	-0.000308
1158	1.1512e+02	-6.1250	5.720621	0.000740	7.398293	2.506610	-0.000296
1159	1.1522e+02	-6.1619	5.454170	0.000669	6.688868	2.266250	-0.000268
1160	1.1532e+02	-6.2100	5.203868	0.000628	6.283482	2.128901	-0.000252
1161	1.1542e+02	-6.2405	4.876860	0.000821	8.209065	2.781307	-0.000329
1162	1.1552e+02	-6.2854	4.634632	0.000608	6.080789	2.060227	-0.000243
1163	1.1562e+02	-6.3175	4.287438	0.000872	8.715798	2.952992	-0.000349
1164	1.1572e+02	-6.3560	4.045210	0.000608	6.080789	2.060227	-0.000243
1165	1.1582e+02	-6.4025	3.730313	0.000791	7.905026	2.678295	-0.000316
1166	1.1592e+02	-6.4442	3.451751	0.000699	6.992907	2.369261	-0.000280
1167	1.1602e+02	-6.4811	3.217597	0.000588	5.878096	1.991553	-0.000235
1168	1.1612e+02	-6.5132	2.943072	0.000689	6.891561	2.334924	-0.000276
1169	1.1622e+02	-6.5549	2.704881	0.000598	5.979443	2.025890	-0.000239
1170	1.1632e+02	-6.5902	2.377873	0.000821	8.209065	2.781307	-0.000329
1171	1.1642e+02	-6.6383	2.115459	0.000659	6.587521	2.231913	-0.000264
1172	1.1651e+02	-6.6913	1.844971	0.000679	6.790214	2.300587	-0.000272
1173	1.1661e+02	-6.7121	1.562372	0.000709	7.094254	2.403598	-0.000284
1174	1.1671e+02	-6.7538	1.324181	0.000598	5.979443	2.025890	-0.000239
1175	1.1681e+02	-6.7923	1.009284	0.000791	7.905026	2.678295	-0.000316
1176	1.1691e+02	-6.8372	0.742833	0.000669	6.688868	2.266250	-0.000268
1177	1.1701e+02	-6.8725	0.472345	0.000679	6.790214	2.300587	-0.000272
1178	1.1711e+02	-6.9110	0.213968	0.000649	6.486175	2.197576	-0.000260
1179	1.1721e+02	-6.9527	-0.080743	0.000740	7.398293	2.506610	-0.000296
1180	1.1731e+02	-6.9912	-0.302785	0.000557	5.574057	1.888542	-0.000223
1181	1.1741e+02	-7.0378	-0.593459	0.000730	7.296947	2.472273	-0.000292
1182	1.1751e+02	-7.0666	-0.839724	0.000618	6.182136	2.094564	-0.000248
1183	1.1761e+02	-7.1035	-1.106175	0.000669	6.688868	2.266250	-0.000268
1184	1.1771e+02	-7.1565	-1.388775	0.000709	7.094254	2.403598	-0.000284
1185	1.1781e+02	-7.1886	-1.622929	0.000588	5.878096	1.991553	-0.000235
1186	1.1791e+02	-7.2383	-1.897454	0.000689	6.891561	2.334924	-0.000276
1187	1.1801e+02	-7.2848	-2.184090	0.000720	7.195600	2.437935	-0.000288
1188	1.1811e+02	-7.3057	-2.434393	0.000628	6.283482	2.128901	-0.000252
1189	1.1821e+02	-7.3570	-2.684695	0.000628	6.283482	2.128901	-0.000252
1190	1.1831e+02	-7.3923	-2.971332	0.000720	7.195600	2.437935	-0.000288
1191	1.1841e+02	-7.4308	-3.221634	0.000628	6.283482	2.128901	-0.000252
1192	1.1850e+02	-7.4709	-3.439640	0.000547	5.472710	1.854204	-0.000219
1193	1.1860e+02	-7.5110	-3.718202	0.000699	6.992907	2.369261	-0.000280
1194	1.1870e+02	-7.5575	-3.996764	0.000699	6.992907	2.369261	-0.000280
1195	1.1880e+02	-7.6041	-4.238993	0.000608	6.080789	2.060227	-0.000243
1196	1.1890e+02	-7.6249	-4.513518	0.000689	6.891561	2.334924	-0.000276
1197	1.1900e+02	-7.6714	-4.779969	0.000669	6.688868	2.266250	-0.000268
1198	1.1910e+02	-7.7083	-5.038345	0.000649	6.486175	2.197576	-0.000260
1199	1.1920e+02	-7.7517	-5.312871	0.000689	6.891561	2.334924	-0.000276
1200	1.1930e+02	-7.7966	-5.587396	0.000689	6.891561	2.334924	-0.000276
1201	1.1940e+02	-7.8238	-5.841735	0.000638	6.384829	2.163238	-0.000256
1202	1.1950e+02	-7.8704	-6.063778	0.000557	5.574057	1.888542	-0.000223
1203	1.1960e+02	-7.9185	-6.334266	0.000679	6.790214	2.300587	-0.000272
1204	1.1970e+02	-7.9506	-6.576494	0.000608	6.080789	2.060227	-0.000243
1205	1.1980e+02	-7.9875	-6.842945	0.000669	6.688868	2.266250	-0.000268
1206	1.1990e+02	-8.0356	-7.064988	0.000557	5.574057	1.888542	-0.000223
1207	1.2000e+02	-8.0757	-7.331439	0.000669	6.688868	2.266250	-0.000268
1208	1.2010e+02	-8.1190	-7.565592	0.000588	5.878096	1.991553	-0.000235
1209	1.2020e+02	-8.1575	-7.856266	0.000730	7.296947	2.472273	-0.000292
1210	1.2030e+02	-8.1928	-8.070234	0.000537	5.371364	1.819867	-0.000215
1211	1.2039e+02	-8.2297	-8.352834	0.000709	7.094254	2.403598	-0.000284
1212	1.2049e+02	-8.2698	-8.603136	0.000628	6.283482	2.128901	-0.000252
1213	1.2059e+02	-8.3067	-8.825179	0.000557	5.574057	1.888542	-0.000223
1214	1.2069e+02	-8.3532	-9.099704	0.000689	6.891561	2.334924	-0.000276
1215	1.2079e+02	-8.3885	-9.358081	0.000649	6.486175	2.197576	-0.000260
1216	1.2089e+02	-8.4238	-9.584160	0.000568	5.675403	1.922879	-0.000227
1217	1.2099e+02	-8.4655	-9.846574	0.000659	6.587521	2.231913	-0.000264
1218	1.2109e+02	-8.5072	-10.084765	0.000598	5.979443	2.025890	-0.000239
1219	1.2119e+02	-8.5506	-10.302770	0.000547	5.472710	1.854204	-0.000219
1220	1.2129e+02	-8.5826	-10.557110	0.000638	6.384829	2.163238	-0.000256
1221	1.2139e+02	-8.6356	-10.815487	0.000649	6.486175	2.197576	-0.000260
1222	1.2149e+02	-8.6709	-11.114235	0.000750	7.499640	2.540947	-0.000300
1223	1.2159e+02	-8.7030	-11.283794	0.000426	4.256552	1.442159	-0.000170
1224	1.2169e+02	-8.7559	-11.558320	0.000689	6.891561	2.334924	-0.000276
1225	1.2179e+02	-8.7912	-11.824771	0.000669	6.688868	2.266250	-0.000268
1226	1.2189e+02	-8.8249	-12.030664	0.000517	5.168671	1.751193	-0.000207
1227	1.2199e+02	-8.8778	-12.301153	0.000679	6.790214	2.300587	-0.000272
1228	1.2209e+02	-8.9067	-12.523195	0.000557	5.574057	1.888542	-0.000223
1229	1.2219e+02	-8.9452	-12.765423	0.000608	6.080789	2.060227	-0.000243
1230	1.2229e+02	-8.9949	-13.019763	0.000638	6.384829	2.163238	-0.000256
1231	1.2239e+02	-9.0318	-13.266028	0.000618	6.182136	2.094564	-0.000248
1232	1.2248e+02	-9.0719	-13.516330	0.000628	6.283482	2.128901	-0.000252
1233	1.2258e+02	-9.1104	-13.770670	0.000638	6.384829	2.163238	-0.000256
1234	1.2268e+02	-9.1457	-14.004824	0.000588	5.878096	1.991553	-0.000235
1235	1.2278e+02	-9.1826	-14.247052	0.000608	6.080789	2.060227	-0.000243
1236	1.2288e+02	-9.2308	-14.529652	0.000709	7.094254	2.403598	-0.000284
1237	1.2298e+02	-9.2677	-14.767843	0.000598	5.979443	2.025890	-0.000239
1238	1.2308e+02	-9.3142	-14.985848	0.000547	5.472710	1.854204	-0.000219
1239	1.2318e+02	-9.3559	-15.224039	0.000598	5.979443	2.025890	-0.000239
1240	1.2328e+02	-9.3816	-15.486453	0.000659	6.587521	2.231913	-0.000264
1241	1.2338e+02	-9.4361	-15.724644	0.000598	5.979443	2.025890	-0.000239
1242	1.2348e+02	-9.4602	-15.995132	0.000679	6.790214	2.300587	-0.000272
1243	1.2358e+02	-9.5211	-16.245434	0.000628	6.283482	2.128901	-0.000252
1244	1.2368e+02	-9.5532	-16.451328	0.000517	5.168671	1.751193	-0.000207
1245	1.2378e+02	-9.5869	-16.705668	0.000638	6.384829	2.163238	-0.000256
1246	1.2388e+02	-9.6318	-16.935784	0.000578	5.776750	1.957216	-0.000231
1247	1.2398e+02	-9.6671	-17.190124	0.000638	6.384829	2.163238	-0.000256
1248	1.2408e+02	-9.7024	-17.428315	0.000598	5.979443	2.025890	-0.000239
1249	1.2418e+02	-9.7489	-17.666506	0.000598	5.979443	2.025890	-0.000239
1250	1.2428e+02	-9.7826	-17.953143	0.000720	7.195600	2.437935	-0.000288
1251	1.2438e+02	-9.8307	-18.219594	0.000669	6.688868	2.266250	-0.000268
1252	1.2447e+02	-9.8644	-18.417413	0.000497	4.965978	1.682519	-0.000199
1253	1.2457e+02	-9.9061	-18.700013	0.000709	7.094254	2.403598	-0.000284
1254	1.2467e+02	-9.9446	-18.930129	0.000578	5.776750	1.957216	-0.000231
1255	1.2477e+02	-9.9847	-19.184469	0.000638	6.384829	2.163238	-0.000256
1256	1.2487e+02	-10.0184	-19.438809	0.000638	6.384829	2.163238	-0.000256
1257	1.2497e+02	-10.0585	-19.672962	0.000588	5.878096	1.991553	-0.000235
1258	1.2507e+02	-10.1019	-19.927302	0.000638	6.384829	2.163238	-0.000256
1259	1.2517e+02	-10.1452	-20.181642	0.000638	6.384829	2.163238	-0.000256
1260	1.2527e+02	-10.1869	-20.411758	0.000578	5.776750	1.957216	-0.000231
1261	1.2537e+02	-10.2190	-20.690321	0.000699	6.992907	2.369261	-0.000280
1262	1.2547e+02	-10.2623	-20.948697	0.000649	6.486175	2.197576	-0.000260
1263	1.2557e+02	-10.3024	-21.219185	0.000679	6.790214	2.300587	-0.000272
1264	1.2567e+02	-10.3361	-21.469488	0.000628	6.283482	2.128901	-0.000252
1265	1.2577e+02	-10.3842	-21.667308	0.000497	4.965978	1.682519	-0.000199
1266	1.2587e+02	-10.4179	-21.970093	0.000760	7.600986	2.575284	-0.000304
1267	1.2597e+02	-10.4644	-22.212321	0.000608	6.080789	2.060227	-0.000243
1268	1.2607e+02	-10.5061	-22.426289	0.000537	5.371364	1.819867	-0.000215
1269	1.2617e+02	-10.5414	-22.733111	0.000770	7.702333	2.609621	-0.000308
1270	1.2627e+02	-10.5831	-22.991488	0.000649	6.486175	2.197576	-0.000260
1271	1.2636e+02	-10.6232	-23.229679	0.000598	5.979443	2.025890	-0.000239
1272	1.2646e+02	-10.6665	-23.443647	0.000537	5.371364	1.819867	-0.000215
1273	1.2656e+02	-10.7066	-23.706061	0.000659	6.587521	2.231913	-0.000264
1274	1.2666e+02	-10.7500	-23.976549	0.000679	6.790214	2.300587	-0.000272
1275	1.2676e+02	-10.7820	-24.230889	0.000638	6.384829	2.163238	-0.000256
1276	1.2686e+02	-10.8206	-24.469080	0.000598	5.979443	2.025890	-0.000239
1277	1.2696e+02	-10.8639	-24.759753	0.000730	7.296947	2.472273	-0.000292
1278	1.2706e+02	-10.9024	-24.973722	0.000537	5.371364	1.819867	-0.000215
1279	1.2716e+02	-10.9361	-25.292655	0.000801	8.006372	2.712632	-0.000321
1280	1.2726e+02	-10.9778	-25.494512	0.000507	5.067324	1.716856	-0.000203
1281	1.2736e+02	-11.0243	-25.765000	0.000679	6.790214	2.300587	-0.000272
1282	1.2746e+02	-11.0580	-26.055674	0.000730	7.296947	2.472273	-0.000292
1283	1.2756e+02	-11.0917	-26.293865	0.000598	5.979443	2.025890	-0.000239
1284	1.2766e+02	-11.1430	-26.519945	0.000568	5.675403	1.922879	-0.000227
1285	1.2776e+02	-11.1799	-26.794470	0.000689	6.891561	2.334924	-0.000276
1286	1.2786e+02	-11.2200	-27.052847	0.000649	6.486175	2.197576	-0.000260
1287	1.2796e+02	-11.2585	-27.270852	0.000547	5.472710	1.854204	-0.000219
1288	1.2806e+02	-11.3018	-27.537303	0.000669	6.688868	2.266250	-0.000268
1289	1.2816e+02	-11.3403	-27.844125	0.000770	7.702333	2.609621	-0.000308
1290	1.2826e+02	-11.3868	-28.134799	0.000730	7.296947	2.472273	-0.000292
1291	1.2835e+02	-11.4237	-28.352804	0.000547	5.472710	1.854204	-0.000219
1292	1.2845e+02	-11.4638	-28.643478	0.000730	7.296947	2.472273	-0.000292
1293	1.2855e+02	-11.4975	-28.913966	0.000679	6.790214	2.300587	-0.000272
1294	1.2865e+02	-11.5409	-29.156194	0.000608	6.080789	2.060227	-0.000243
1295	1.2875e+02	-11.5810	-29.434757	0.000699	6.992907	2.369261	-0.000280
1296	1.2885e+02	-11.6179	-29.672948	0.000598	5.979443	2.025890	-0.000239
1297	1.2895e+02	-11.6515	-29.983807	0.000780	7.803679	2.643958	-0.000312
1298	1.2905e+02	-11.7013	-30.246221	0.000659	6.587521	2.231913	-0.000264
1299	1.2915e+02	-11.7334	-30.528820	0.000709	7.094254	2.403598	-0.000284
1300	1.2925e+02	-11.7719	-30.791234	0.000659	6.587521	2.231913	-0.000264
1301	1.2935e+02	-11.8184	-31.041537	0.000628	6.283482	2.128901	-0.000252
1302	1.2945e+02	-11.8569	-31.291839	0.000628	6.283482	2.128901	-0.000252
1303	1.2955e+02	-11.8922	-31.586550	0.000740	7.398293	2.506610	-0.000296
1304	1.2965e+02	-11.9387	-31.929707	0.000861	8.614451	2.918655	-0.000345
1305	1.2975e+02	-11.9676	-32.147712	0.000547	5.472710	1.854204	-0.000219
1306	1.2985e+02	-12.0109	-32.442423	0.000740	7.398293	2.506610	-0.000296
1307	1.2995e+02	-12.0574	-32.725022	0.000709	7.094254	2.403598	-0.000284
1308	1.3005e+02	-12.0943	-33.011659	0.000720	7.195600	2.437935	-0.000288
1309	1.3015e+02	-12.1456	-33.310407	0.000750	7.499640	2.540947	-0.000300
1310	1.3025e+02	-12.1761	-33.552635	0.000608	6.080789	2.060227	-0.000243
1311	1.3034e+02	-12.2178	-33.847346	0.000740	7.398293	2.506610	-0.000296
1312	1.3044e+02	-12.2612	-34.077463	0.000578	5.776750	1.957216	-0.000231
1313	1.3054e+02	-12.2900	-34.384285	0.000770	7.702333	2.609621	-0.000308
1314	1.3064e+02	-12.3349	-34.691107	0.000770	7.702333	2.609621	-0.000308
1315	1.3074e+02	-12.3734	-34.985818	0.000740	7.398293	2.506610	-0.000296
1316	1.3084e+02	-12.4136	-35.244195	0.000649	6.486175	2.197576	-0.000260
1317	1.3094e+02	-12.4585	-35.559092	0.000791	7.905026	2.678295	-0.000316
1318	1.3104e+02	-12.4890	-35.837654	0.000699	6.992907	2.369261	-0.000280
1319	1.3114e+02	-12.5371	-36.136402	0.000750	7.499640	2.540947	-0.000300
1320	1.3124e+02	-12.5692	-36.423039	0.000720	7.195600	2.437935	-0.000288
1321	1.3134e+02	-12.6173	-36.733898	0.000780	7.803679	2.643958	-0.000312
1322	1.3144e+02	-12.6558	-37.068980	0.000841	8.411758	2.849981	-0.000337
1323	1.3154e+02	-12.6927	-37.311208	0.000608	6.080789	2.060227	-0.000243
1324	1.3164e+02	-12.7344	-37.613994	0.000760	7.600986	2.575284	-0.000304
1325	1.3174e+02	-12.7681	-37.924853	0.000780	7.803679	2.643958	-0.000312
1326	1.3184e+02	-12.8114	-38.231675	0.000770	7.702333	2.609621	-0.000308
1327	1.3194e+02	-12.8579	-38.526386	0.000740	7.398293	2.506610	-0.000296
1328	1.3204e+02	-12.8852	-38.833209	0.000770	7.702333	2.609621	-0.000308
1329	1.3214e+02	-12.9285	-39.160217	0.000821	8.209065	2.781307	-0.000329
1330	1.3224e+02	-12.9686	-39.438779	0.000699	6.992907	2.369261	-0.000280
1331	1.3234e+02	-13.0087	-39.753676	0.000791	7.905026	2.678295	-0.000316
1332	1.3243e+02	-13.0488	-40.068572	0.000791	7.905026	2.678295	-0.000316
1333	1.3253e+02	-13.1002	-40.343097	0.000689	6.891561	2.334924	-0.000276
1334	1.3263e+02	-13.1306	-40.674143	0.000831	8.310412	2.815644	-0.000333
1335	1.3273e+02	-13.1724	-40.968853	0.000740	7.398293	2.506610	-0.000296
1336	1.3283e+02	-13.2060	-41.295861	0.000821	8.209065	2.781307	-0.000329
1337	1.3293e+02	-13.2494	-41.554238	0.000649	6.486175	2.197576	-0.000260
1338	1.3303e+02	-13.2847	-41.953915	0.001003	10.033302	3.399375	-0.000402
1339	1.3313e+02	-13.3264	-42.240551	0.000720	7.195600	2.437935	-0.000288
1340	1.3323e+02	-13.3697	-42.591782	0.000882	8.817144	2.987329	-0.000353
1341	1.3333e+02	-13.4162	-42.874382	0.000709	7.094254	2.403598	-0.000284
1342	1.3343e+02	-13.4515	-43.221575	0.000872	8.715798	2.952992	-0.000349
1343	1.3353e+02	-13.4868	-43.532435	0.000780	7.803679	2.643958	-0.000312
1344	1.3363e+02	-13.5301	-43.843294	0.000780	7.803679	2.643958	-0.000312
1345	1.3373e+02	-13.5686	-44.198562	0.000892	8.918491	3.021666	-0.000357
1346	1.3383e+02	-13.6039	-44.513459	0.000791	7.905026	2.678295	-0.000316
1347	1.3393e+02	-13.6568	-44.840467	0.000821	8.209065	2.781307	-0.000329
1348	1.3403e+02	-13.6889	-45.191697	0.000882	8.817144	2.987329	-0.000353
1349	1.3413e+02	-13.7274	-45.490445	0.000750	7.499640	2.540947	-0.000300
1350	1.3423e+02	-13.7627	-45.849751	0.000902	9.019837	3.056004	-0.000361
1351	1.3432e+02	-13.8060	-46.196944	0.000872	8.715798	2.952992	-0.000349
1352	1.3442e+02	-13.8413	-46.519915	0.000811	8.107719	2.746969	-0.000325
1353	1.3452e+02	-13.8943	-46.854997	0.000841	8.411758	2.849981	-0.000337
1354	1.3462e+02	-13.9263	-47.214302	0.000902	9.019837	3.056004	-0.000361
1355	1.3472e+02	-13.9616	-47.517088	0.000760	7.600986	2.575284	-0.000304
1356	1.3482e+02	-14.0001	-47.872356	0.000892	8.918491	3.021666	-0.000357
1357	1.3492e+02	-14.0483	-48.255883	0.000963	9.627916	3.262026	-0.000385
1358	1.3502e+02	-14.0820	-48.603077	0.000872	8.715798	2.952992	-0.000349
1359	1.3512e+02	-14.1317	-48.942197	0.000851	8.513105	2.884318	-0.000341
1360	1.3522e+02	-14.1558	-49.329762	0.000973	9.729262	3.296363	-0.000390
1361	1.3532e+02	-14.2103	-49.656770	0.000821	8.209065	2.781307	-0.000329
1362	1.3542e+02	-14.2536	-50.036260	0.000953	9.526570	3.227689	-0.000381
1363	1.3552e+02	-14.2953	-50.427863	0.000983	9.830609	3.330700	-0.000394
1364	1.3562e+02	-14.3322	-50.779093	0.000882	8.817144	2.987329	-0.000353
1365	1.3572e+02	-14.3739	-51.150510	0.000932	9.323877	3.159015	-0.000373
1366	1.3582e+02	-14.3964	-51.513852	0.000912	9.121184	3.090341	-0.000365
1367	1.3592e+02	-14.4525	-51.865083	0.000882	8.817144	2.987329	-0.000353
1368	1.3602e+02	-14.4894	-52.240536	0.000943	9.425223	3.193352	-0.000377
1369	1.3612e+02	-14.5263	-52.595804	0.000892	8.918491	3.021666	-0.000357
1370	1.3622e+02	-14.5664	-53.011629	0.001044	10.438688	3.536723	-0.000418
1371	1.3631e+02	-14.6017	-53.391120	0.000953	9.526570	3.227689	-0.000381
1372	1.3641e+02	-14.6418	-53.766574	0.000943	9.425223	3.193352	-0.000377
1373	1.3651e+02	-14.6868	-54.133953	0.000922	9.222530	3.124678	-0.000369
1374	1.3661e+02	-14.7204	-54.533630	0.001003	10.033302	3.399375	-0.000402
1375	1.3671e+02	-14.7557	-54.921195	0.000973	9.729262	3.296363	-0.000390
1376	1.3681e+02	-14.8039	-55.312797	0.000983	9.830609	3.330700	-0.000394
1377	1.3691e+02	-14.8440	-55.692288	0.000953	9.526570	3.227689	-0.000381
1378	1.3701e+02	-14.8937	-56.039481	0.000872	8.715798	2.952992	-0.000349
1379	1.3711e+02	-14.9178	-56.471455	0.001084	10.844074	3.674072	-0.000434
1380	1.3721e+02	-14.9659	-56.875168	0.001013	10.134648	3.433712	-0.000406
1381	1.3731e+02	-15.0076	-57.307142	0.001084	10.844074	3.674072	-0.000434
1382	1.3741e+02	-15.0429	-57.690670	0.000963	9.627916	3.262026	-0.000385
1383	1.3751e+02	-15.0846	-58.106495	0.001044	10.438688	3.536723	-0.000418
1384	1.3761e+02	-15.1231	-58.473874	0.000922	9.222530	3.124678	-0.000369
1385	1.3771e+02	-15.1632	-58.865476	0.000983	9.830609	3.330700	-0.000394
1386	1.3781e+02	-15.2065	-59.337821	0.001186	11.857539	4.017443	-0.000475
1387	1.3791e+02	-15.2370	-59.733460	0.000993	9.931955	3.365038	-0.000398
1388	1.3801e+02	-15.2883	-60.125063	0.000983	9.830609	3.330700	-0.000394
1389	1.3811e+02	-15.3140	-60.569147	0.001115	11.148113	3.777083	-0.000446
1390	1.3821e+02	-15.3637	-60.960750	0.000983	9.830609	3.330700	-0.000394
1391	1.3831e+02	-15.3942	-61.408872	0.001125	11.249460	3.811420	-0.000450
1392	1.3840e+02	-15.4520	-61.780288	0.000932	9.323877	3.159015	-0.000373
1393	1.3850e+02	-15.4969	-62.236485	0.001145	11.452153	3.880094	-0.000458
1394	1.3860e+02	-15.5242	-62.729015	0.001236	12.364271	4.189128	-0.000495
1395	1.3870e+02	-15.5675	-63.108506	0.000953	9.526570	3.227689	-0.000381
1396	1.3880e+02	-15.6044	-63.564702	0.001145	11.452153	3.880094	-0.000458
1397	1.3890e+02	-15.6381	-64.012824	0.001125	11.249460	3.811420	-0.000450
1398	1.3900e+02	-15.6782	-64.412501	0.001003	10.033302	3.399375	-0.000402
1399	1.3910e+02	-15.7167	-64.864660	0.001135	11.350806	3.845757	-0.000454
1400	1.3920e+02	-15.7712	-65.349116	0.001216	12.161578	4.120454	-0.000487
1401	1.3930e+02	-15.8001	-65.768978	0.001054	10.540034	3.571060	-0.000422
1402	1.3940e+02	-15.8370	-66.233249	0.001165	11.654846	3.948769	-0.000467
1403	1.3950e+02	-15.8771	-66.697520	0.001165	11.654846	3.948769	-0.000467
1404	1.3960e+02	-15.9140	-67.145642	0.001125	11.249460	3.811420	-0.000450
1405	1.3970e+02	-15.9621	-67.630098	0.001216	12.161578	4.120454	-0.000487
1406	1.3980e+02	-15.9958	-68.062071	0.001084	10.844074	3.674072	-0.000434
1407	1.3990e+02	-16.0455	-68.538453	0.001196	11.958885	4.051780	-0.000479
1408	1.4000e+02	-16.0648	-68.962353	0.001064	10.641381	3.605397	-0.000426
1409	1.4010e+02	-16.1209	-69.442772	0.001206	12.060232	4.086117	-0.000483
1410	1.4020e+02	-16.1578	-69.923191	0.001206	12.060232	4.086117	-0.000483
1411	1.4029e+02	-16.1963	-70.407647	0.001216	12.161578	4.120454	-0.000487
1412	1.4039e+02	-16.2364	-70.896141	0.001226	12.262925	4.154791	-0.000491
1413	1.4049e+02	-16.2733	-71.388671	0.001236	12.364271	4.189128	-0.000495
1414	1.4059e+02	-16.3215	-71.861016	0.001186	11.857539	4.017443	-0.000475
1415	1.4069e+02	-16.3600	-72.381807	0.001307	13.073696	4.429488	-0.000523
1416	1.4079e+02	-16.3985	-72.878374	0.001247	12.465618	4.223466	-0.000499
1417	1.4089e+02	-16.4338	-73.354756	0.001196	11.958885	4.051780	-0.000479
1418	1.4099e+02	-16.4755	-73.855361	0.001257	12.566964	4.257803	-0.000503
1419	1.4109e+02	-16.5236	-74.331743	0.001196	11.958885	4.051780	-0.000479
1420	1.4119e+02	-16.5573	-74.868682	0.001348	13.479082	4.566837	-0.000540
1421	1.4129e+02	-16.6006	-75.373324	0.001267	12.668311	4.292140	-0.000507
1422	1.4139e+02	-16.6391	-75.898152	0.001318	13.175043	4.463825	-0.000527
1423	1.4149e+02	-16.6856	-76.382608	0.001216	12.161578	4.120454	-0.000487
1424	1.4159e+02	-16.7241	-76.919547	0.001348	13.479082	4.566837	-0.000540
1425	1.4169e+02	-16.7610	-77.456486	0.001348	13.479082	4.566837	-0.000540
1426	1.4179e+02	-16.7915	-77.936905	0.001206	12.060232	4.086117	-0.000483
1427	1.4189e+02	-16.8444	-78.506142	0.001429	14.289854	4.841534	-0.000572
1428	1.4199e+02	-16.8781	-79.010784	0.001267	12.668311	4.292140	-0.000507
1429	1.4209e+02	-16.9231	-79.523500	0.001287	12.871003	4.360814	-0.000515
1430	1.4219e+02	-16.9583	-80.108884	0.001470	14.695240	4.978882	-0.000588
1431	1.4228e+02	-17.0065	-80.649861	0.001358	13.580429	4.601174	-0.000544
1432	1.4238e+02	-17.0370	-81.170651	0.001307	13.073696	4.429488	-0.000523
1433	1.4248e+02	-17.0819	-81.715664	0.001368	13.681775	4.635511	-0.000548
1434	1.4258e+02	-17.1156	-82.288938	0.001439	14.391201	4.875871	-0.000576
1435	1.4268e+02	-17.1525	-82.825877	0.001348	13.479082	4.566837	-0.000540
1436	1.4278e+02	-17.1990	-83.374927	0.001378	13.783122	4.669848	-0.000552
1437	1.4288e+02	-17.2375	-83.928015	0.001388	13.884468	4.704185	-0.000556
1438	1.4298e+02	-17.2792	-84.537622	0.001530	15.303319	5.184905	-0.000613
1439	1.4308e+02	-17.3193	-85.070524	0.001338	13.377736	4.532500	-0.000536
1440	1.4318e+02	-17.3530	-85.668020	0.001500	14.999280	5.081894	-0.000600
1441	1.4328e+02	-17.3979	-86.217071	0.001378	13.783122	4.669848	-0.000552
1442	1.4338e+02	-17.4332	-86.786307	0.001429	14.289854	4.841534	-0.000572
1443	1.4348e+02	-17.4765	-87.367655	0.001459	14.593894	4.944545	-0.000584
1444	1.4358e+02	-17.5182	-87.940928	0.001439	14.391201	4.875871	-0.000576
1445	1.4368e+02	-17.5535	-88.566684	0.001571	15.708705	5.322253	-0.000629
1446	1.4378e+02	-17.5904	-89.172254	0.001520	15.201973	5.150568	-0.000609
1447	1.4388e+02	-17.6305	-89.761676	0.001480	14.796587	5.013219	-0.000592
1448	1.4398e+02	-17.6754	-90.338986	0.001449	14.492547	4.910208	-0.000580
1449	1.4408e+02	-17.7220	-90.912260	0.001439	14.391201	4.875871	-0.000576
1450	1.4418e+02	-17.7573	-91.562239	0.001632	16.316784	5.528276	-0.000653
1451	1.4428e+02	-17.7925	-92.131475	0.001429	14.289854	4.841534	-0.000572
1452	1.4437e+02	-17.8391	-92.753194	0.001561	15.607359	5.287916	-0.000625
1453	1.4447e+02	-17.8744	-93.387024	0.001591	15.911398	5.390928	-0.000637
1454	1.4457e+02	-17.9177	-94.004706	0.001551	15.506012	5.253579	-0.000621
1455	1.4467e+02	-17.9514	-94.618350	0.001540	15.404666	5.219242	-0.000617
1456	1.4477e+02	-17.9947	-95.215846	0.001500	14.999280	5.081894	-0.000600
1457	1.4487e+02	-18.0203	-95.918308	0.001763	17.634288	5.974659	-0.000706
1458	1.4497e+02	-18.0637	-96.548101	0.001581	15.810052	5.356590	-0.000633
1459	1.4507e+02	-18.1134	-97.129449	0.001459	14.593894	4.944545	-0.000584
1460	1.4517e+02	-18.1583	-97.807688	0.001703	17.026209	5.768636	-0.000682
1461	1.4527e+02	-18.1936	-98.441518	0.001591	15.911398	5.390928	-0.000637
1462	1.4537e+02	-18.2353	-99.123794	0.001713	17.127556	5.802973	-0.000686
1463	1.4547e+02	-18.2770	-99.769735	0.001622	16.215437	5.493939	-0.000649
1464	1.4557e+02	-18.3107	-100.371269	0.001510	15.100626	5.116231	-0.000605
1465	1.4567e+02	-18.3492	-101.138325	0.001926	19.255832	6.524052	-0.000771
1466	1.4577e+02	-18.4022	-101.739858	0.001510	15.100626	5.116231	-0.000605
1467	1.4587e+02	-18.4407	-102.393874	0.001642	16.418130	5.562613	-0.000657
1468	1.4597e+02	-18.4695	-103.064038	0.001682	16.823516	5.699962	-0.000674
1469	1.4607e+02	-18.5048	-103.770537	0.001774	17.735635	6.008996	-0.000710
1470	1.4617e+02	-18.5449	-104.485110	0.001794	17.938328	6.077670	-0.000718
1471	1.4626e+02	-18.6011	-105.163349	0.001703	17.026209	5.768636	-0.000682
1472	1.4636e+02	-18.6332	-105.813328	0.001632	16.316784	5.528276	-0.000653
1473	1.4646e+02	-18.6717	-106.523864	0.001784	17.836981	6.043333	-0.000714
1474	1.4656e+02	-18.7214	-107.242474	0.001804	18.039674	6.112007	-0.000722
1475	1.4666e+02	-18.7535	-107.957047	0.001794	17.938328	6.077670	-0.000718
1476	1.4676e+02	-18.7936	-108.699880	0.001865	18.647753	6.318030	-0.000747
1477	1.4686e+02	-18.8385	-109.370044	0.001682	16.823516	5.699962	-0.000674
1478	1.4696e+02	-18.8658	-110.088654	0.001804	18.039674	6.112007	-0.000722
1479	1.4706e+02	-18.9075	-110.815339	0.001824	18.242367	6.180681	-0.000730
1480	1.4716e+02	-18.9588	-111.570283	0.001895	18.951793	6.421041	-0.000759
1481	1.4726e+02	-18.9941	-112.280819	0.001784	17.836981	6.043333	-0.000714
1482	1.4736e+02	-19.0358	-112.995392	0.001794	17.938328	6.077670	-0.000718
1483	1.4746e+02	-19.0647	-113.774559	0.001956	19.559871	6.627064	-0.000783
1484	1.4756e+02	-19.1128	-114.505281	0.001834	18.343714	6.215018	-0.000734
1485	1.4766e+02	-19.1626	-115.219854	0.001794	17.938328	6.077670	-0.000718
1486	1.4776e+02	-19.1898	-116.035355	0.002047	20.471990	6.936098	-0.000820
1487	1.4786e+02	-19.2331	-116.725706	0.001733	17.330249	5.871647	-0.000694
1488	1.4796e+02	-19.2765	-117.516984	0.001986	19.863911	6.730075	-0.000795
1489	1.4806e+02	-19.3053	-118.263854	0.001875	18.749100	6.352367	-0.000751
1490	1.4816e+02	-19.3487	-119.038984	0.001946	19.458525	6.592727	-0.000779
1491	1.4825e+02	-19.3888	-119.834300	0.001997	19.965257	6.764412	-0.000799
1492	1.4835e+02	-19.4273	-120.597319	0.001915	19.154486	6.489715	-0.000767
1493	1.4845e+02	-19.4545	-121.396672	0.002007	20.066604	6.798749	-0.000803
1494	1.4855e+02	-19.4994	-122.191987	0.001997	19.965257	6.764412	-0.000799
1495	1.4865e+02	-19.5460	-122.959043	0.001926	19.255832	6.524052	-0.000771
1496	1.4875e+02	-19.5765	-123.814916	0.002149	21.485455	7.279469	-0.000860
1497	1.4885e+02	-19.6246	-124.577935	0.001915	19.154486	6.489715	-0.000767
1498	1.4895e+02	-19.6631	-125.389399	0.002037	20.370643	6.901761	-0.000816
1499	1.4905e+02	-19.7080	-126.225086	0.002098	20.978722	7.107784	-0.000840
1500	1.4915e+02	-19.7449	-127.060773	0.002098	20.978722	7.107784	-0.000840
1501	1.4925e+02	-19.7850	-127.823792	0.001915	19.154486	6.489715	-0.000767
1502	1.4935e+02	-19.8219	-128.703887	0.002209	22.093534	7.485492	-0.000885
1503	1.4945e+02	-19.8716	-129.527463	0.002067	20.674683	7.004772	-0.000828
1504	1.4955e+02	-19.9101	-130.351039	0.002067	20.674683	7.004772	-0.000828
1505	1.4965e+02	-19.9486	-131.227097	0.002199	21.992187	7.451155	-0.000880
1506	1.4975e+02	-19.9903	-132.030487	0.002017	20.167950	6.833087	-0.000807
1507	1.4985e+02	-20.0224	-132.858100	0.002078	20.776029	7.039109	-0.000832
1508	1.4995e+02	-19.9887	-133.645341	-0.001976	-19.762564	-6.695738	-0.000791
1509	1.5005e+02	-19.9551	-134.412397	-0.001926	-19.255832	-6.524052	-0.000771
1510	1.5015e+02	-19.9021	-135.126970	-0.001794	-17.938328	-6.077670	-0.000718
1511	1.5025e+02	-19.8748	-135.789061	-0.001662	-16.620823	-5.631287	-0.000665
1512	1.5034e+02	-19.8283	-136.443077	-0.001642	-16.418130	-5.562613	-0.000657
1513	1.5044e+02	-19.7882	-137.060758	-0.001551	-15.506012	-5.253579	-0.000621
1514	1.5054e+02	-19.7449	-137.698626	-0.001601	-16.012745	-5.425265	-0.000641
1515	1.5064e+02	-19.7064	-138.247676	-0.001378	-13.783122	-4.669848	-0.000552
1516	1.5074e+02	-19.6711	-138.784615	-0.001348	-13.479082	-4.566837	-0.000540
1517	1.5084e+02	-19.6262	-139.273109	-0.001226	-12.262925	-4.154791	-0.000491
1518	1.5094e+02	-19.5765	-139.810048	-0.001348	-13.479082	-4.566837	-0.000540
1519	1.5104e+02	-19.5476	-140.298541	-0.001226	-12.262925	-4.154791	-0.000491
1520	1.5114e+02	-19.5043	-140.726478	-0.001074	-10.742727	-3.639735	-0.000430
1521	1.5124e+02	-19.4658	-141.202860	-0.001196	-11.958885	-4.051780	-0.000479
1522	1.5134e+02	-19.4192	-141.598499	-0.000993	-9.931955	-3.365038	-0.000398
1523	1.5144e+02	-19.3968	-141.982027	-0.000963	-9.627916	-3.262026	-0.000385
1524	1.5154e+02	-19.3487	-142.405926	-0.001064	-10.641381	-3.605397	-0.000426
1525	1.5164e+02	-19.3069	-142.793491	-0.000973	-9.729262	-3.296363	-0.000390
1526	1.5174e+02	-19.2636	-143.092239	-0.000750	-7.499640	-2.540947	-0.000300
1527	1.5184e+02	-19.2331	-143.471730	-0.000953	-9.526570	-3.227689	-0.000381
1528	1.5194e+02	-19.1866	-143.762404	-0.000730	-7.296947	-2.472273	-0.000292
1529	1.5204e+02	-19.1449	-144.125746	-0.000912	-9.121184	-3.090341	-0.000365
1530	1.5214e+02	-19.1128	-144.420457	-0.000740	-7.398293	-2.506610	-0.000296
1531	1.5224e+02	-19.0663	-144.642499	-0.000557	-5.574057	-1.888542	-0.000223
1532	1.5233e+02	-19.0278	-144.973544	-0.000831	-8.310412	-2.815644	-0.000333
1533	1.5243e+02	-18.9973	-145.239995	-0.000669	-6.688868	-2.266250	-0.000268
1534	1.5253e+02	-18.9460	-145.429741	-0.000476	-4.763285	-1.613845	-0.000191
1535	1.5263e+02	-18.9059	-145.667932	-0.000598	-5.979443	-2.025890	-0.000239
1536	1.5273e+02	-18.8706	-145.885937	-0.000547	-5.472710	-1.854204	-0.000219
1537	1.5283e+02	-18.8337	-146.095868	-0.000527	-5.270017	-1.785530	-0.000211
1538	1.5293e+02	-18.7888	-146.301762	-0.000517	-5.168671	-1.751193	-0.000207
1539	1.5303e+02	-18.7551	-146.491507	-0.000476	-4.763285	-1.613845	-0.000191
1540	1.5313e+02	-18.7070	-146.648956	-0.000395	-3.952513	-1.339148	-0.000158
1541	1.5323e+02	-18.6781	-146.802367	-0.000385	-3.851166	-1.304810	-0.000154
1542	1.5333e+02	-18.6444	-147.008261	-0.000517	-5.168671	-1.751193	-0.000207
1543	1.5343e+02	-18.5963	-147.097078	-0.000223	-2.229623	-0.755417	-0.000089
1544	1.5353e+02	-18.5562	-147.250489	-0.000385	-3.851166	-1.304810	-0.000154
1545	1.5363e+02	-18.5145	-147.399863	-0.000375	-3.749820	-1.270473	-0.000150
1546	1.5373e+02	-18.4695	-147.456383	-0.000142	-1.418851	-0.480720	-0.000057
1547	1.5383e+02	-18.4262	-147.565385	-0.000274	-2.736355	-0.927102	-0.000110
1548	1.5393e+02	-18.3861	-147.678425	-0.000284	-2.837702	-0.961439	-0.000114
1549	1.5403e+02	-18.3444	-147.791465	-0.000284	-2.837702	-0.961439	-0.000114
1550	1.5413e+02	-18.3091	-147.888356	-0.000243	-2.432316	-0.824091	-0.000097
1551	1.5422e+02	-18.2642	-147.944876	-0.000142	-1.418851	-0.480720	-0.000057
1552	1.5432e+02	-18.2353	-148.005433	-0.000152	-1.520197	-0.515057	-0.000061
1553	1.5442e+02	-18.1920	-148.045805	-0.000101	-1.013465	-0.343371	-0.000041
1554	1.5452e+02	-18.1503	-148.134622	-0.000223	-2.229623	-0.755417	-0.000089
1555	1.5462e+02	-18.1134	-148.231513	-0.000243	-2.432316	-0.824091	-0.000097
1556	1.5472e+02	-18.0733	-148.239587	-0.000020	-0.202693	-0.068674	-0.000008
1557	1.5482e+02	-18.0364	-148.231513	0.000020	0.202693	0.068674	0.000008
1558	1.5492e+02	-17.9947	-148.279959	-0.000122	-1.216158	-0.412045	-0.000049
1559	1.5502e+02	-17.9626	-148.312256	-0.000081	-0.810772	-0.274697	-0.000032
1560	1.5512e+02	-17.9161	-148.348590	-0.000091	-0.912118	-0.309034	-0.000037
1561	1.5522e+02	-17.8728	-148.348590	0.000000	0.000000	0.000000	0.000000
1562	1.5532e+02	-17.8310	-148.344553	0.000010	0.101346	0.034337	0.000004
1563	1.5542e+02	-17.7909	-148.360701	-0.000041	-0.405386	-0.137348	-0.000016
1564	1.5552e+02	-17.7621	-148.352627	0.000020	0.202693	0.068674	0.000008
1565	1.5562e+02	-17.7139	-148.328404	0.000061	0.608079	0.206023	0.000024
1566	1.5572e+02	-17.6738	-148.332441	-0.000010	-0.101346	-0.034337	-0.000004
1567	1.5582e+02	-17.6385	-148.320330	0.000030	0.304039	0.103011	0.000012
1568	1.5592e+02	-17.5952	-148.316293	0.000010	0.101346	0.034337	0.000004
1569	1.5602e+02	-17.5551	-148.279959	0.000091	0.912118	0.309034	0.000037
1570	1.5612e+02	-17.5166	-148.251699	0.000071	0.709425	0.240360	0.000028
1571	1.5622e+02	-17.4781	-148.183067	0.000172	1.722890	0.583731	0.000069
1572	1.5631e+02	-17.4316	-148.191142	-0.000020	-0.202693	-0.068674	-0.000008
1573	1.5641e+02	-17.3979	-148.166919	0.000061	0.608079	0.206023	0.000024
1574	1.5651e+02	-17.3546	-148.102325	0.000162	1.621544	0.549394	0.000065
1575	1.5661e+02	-17.3209	-148.053879	0.000122	1.216158	0.412045	0.000049
1576	1.5671e+02	-17.2792	-147.977173	0.000193	1.925583	0.652405	0.000077
1577	1.5681e+02	-17.2391	-147.932765	0.000111	1.114811	0.377708	0.000045
1578	1.5691e+02	-17.1958	-147.868171	0.000162	1.621544	0.549394	0.000065
1579	1.5701e+02	-17.1605	-147.835874	0.000081	0.810772	0.274697	0.000032
1580	1.5711e+02	-17.1220	-147.755131	0.000203	2.026930	0.686742	0.000081
1581	1.5721e+02	-17.0787	-147.654202	0.000253	2.533662	0.858428	0.000101
1582	1.5731e+02	-17.0386	-147.601720	0.000132	1.317504	0.446383	0.000053
1583	1.5741e+02	-16.9968	-147.541163	0.000152	1.520197	0.515057	0.000061
1584	1.5751e+02	-16.9632	-147.533088	0.000020	0.202693	0.068674	0.000008
1585	1.5761e+02	-16.9182	-147.448309	0.000213	2.128276	0.721079	0.000085
1586	1.5771e+02	-16.8733	-147.363529	0.000213	2.128276	0.721079	0.000085
1587	1.5781e+02	-16.8460	-147.250489	0.000284	2.837702	0.961439	0.000114
1588	1.5791e+02	-16.7947	-147.173783	0.000193	1.925583	0.652405	0.000077
1589	1.5801e+02	-16.7626	-147.125338	0.000122	1.216158	0.412045	0.000049
1590	1.5811e+02	-16.7209	-147.020372	0.000264	2.635009	0.892765	0.000105
1591	1.5821e+02	-16.6760	-146.915407	0.000264	2.635009	0.892765	0.000105
1592	1.5830e+02	-16.6423	-146.846775	0.000172	1.722890	0.583731	0.000069
1593	1.5840e+02	-16.6022	-146.753921	0.000233	2.330969	0.789754	0.000093
1594	1.5850e+02	-16.5621	-146.701438	0.000132	1.317504	0.446383	0.000053
1595	1.5860e+02	-16.5236	-146.576287	0.000314	3.141741	1.064451	0.000126
1596	1.5870e+02	-16.4883	-146.491507	0.000213	2.128276	0.721079	0.000085
1597	1.5880e+02	-16.4402	-146.398653	0.000233	2.330969	0.789754	0.000093
1598	1.5890e+02	-16.3969	-146.354245	0.000111	1.114811	0.377708	0.000045
1599	1.5900e+02	-16.3632	-146.208908	0.000365	3.648473	1.236136	0.000146
1600	1.5910e+02	-16.3263	-146.120091	0.000223	2.229623	0.755417	0.000089
1601	1.5920e+02	-16.2798	-145.986865	0.000334	3.344434	1.133125	0.000134
1602	1.5930e+02	-16.2364	-145.898048	0.000223	2.229623	0.755417	0.000089
1603	1.5940e+02	-16.1995	-145.805194	0.000233	2.330969	0.789754	0.000093
1604	1.5950e+02	-16.1578	-145.688117	0.000294	2.939048	0.995776	0.000118
1605	1.5960e+02	-16.1145	-145.558929	0.000324	3.243087	1.098788	0.000130
1606	1.5970e+02	-16.0808	-145.502409	0.000142	1.418851	0.480720	0.000057
1607	1.5980e+02	-16.0471	-145.385332	0.000294	2.939048	0.995776	0.000118
1608	1.5990e+02	-15.9990	-145.256144	0.000324	3.243087	1.098788	0.000130
1609	1.6000e+02	-15.9573	-145.126956	0.000324	3.243087	1.098788	0.000130
1610	1.6010e+02	-15.9188	-145.013916	0.000284	2.837702	0.961439	0.000114
1611	1.6019e+02	-15.8771	-144.876653	0.000345	3.445780	1.167462	0.000138
1612	1.6029e+02	-15.8370	-144.783799	0.000233	2.330969	0.789754	0.000093
1613	1.6039e+02	-15.7969	-144.682871	0.000253	2.533662	0.858428	0.000101
1614	1.6049e+02	-15.7648	-144.634425	0.000122	1.216158	0.412045	0.000049
1615	1.6059e+02	-15.7263	-144.448717	0.000466	4.661938	1.579507	0.000187
1616	1.6069e+02	-15.6846	-144.335677	0.000284	2.837702	0.961439	0.000114
1617	1.6079e+02	-15.6413	-144.198414	0.000345	3.445780	1.167462	0.000138
1618	1.6089e+02	-15.6076	-144.105560	0.000233	2.330969	0.789754	0.000093
1619	1.6099e+02	-15.5739	-143.952149	0.000385	3.851166	1.304810	0.000154
1620	1.6109e+02	-15.5306	-143.835072	0.000294	2.939048	0.995776	0.000118
1621	1.6119e+02	-15.4889	-143.713958	0.000304	3.040395	1.030114	0.000122
1622	1.6129e+02	-15.4472	-143.617067	0.000243	2.432316	0.824091	0.000097
1623	1.6139e+02	-15.4006	-143.463656	0.000385	3.851166	1.304810	0.000154
1624	1.6149e+02	-15.3637	-143.330430	0.000334	3.344434	1.133125	0.000134
1625	1.6159e+02	-15.3220	-143.237576	0.000233	2.330969	0.789754	0.000093
1626	1.6169e+02	-15.2755	-143.112425	0.000314	3.141741	1.064451	0.000126
1627	1.6179e+02	-15.2450	-142.975162	0.000345	3.445780	1.167462	0.000138
1628	1.6189e+02	-15.2065	-142.874234	0.000253	2.533662	0.858428	0.000101
1629	1.6199e+02	-15.1616	-142.720823	0.000385	3.851166	1.304810	0.000154
1630	1.6209e+02	-15.1231	-142.623931	0.000243	2.432316	0.824091	0.000097
1631	1.6219e+02	-15.0830	-142.470520	0.000385	3.851166	1.304810	0.000154
1632	1.6228e+02	-15.0493	-142.329220	0.000355	3.547127	1.201799	0.000142
1633	1.6238e+02	-14.9980	-142.167735	0.000405	4.053859	1.373485	0.000162
1634	1.6248e+02	-14.9643	-142.086992	0.000203	2.026930	0.686742	0.000081
1635	1.6258e+02	-14.9306	-141.998175	0.000223	2.229623	0.755417	0.000089
1636	1.6268e+02	-14.8889	-141.832653	0.000416	4.155206	1.407822	0.000166
1637	1.6278e+02	-14.8424	-141.667130	0.000416	4.155206	1.407822	0.000166
1638	1.6288e+02	-14.8055	-141.586387	0.000203	2.026930	0.686742	0.000081
1639	1.6298e+02	-14.7686	-141.432976	0.000385	3.851166	1.304810	0.000154
1640	1.6308e+02	-14.7253	-141.295714	0.000345	3.445780	1.167462	0.000138
1641	1.6318e+02	-14.6900	-141.178637	0.000294	2.939048	0.995776	0.000118
1642	1.6328e+02	-14.6595	-141.049448	0.000324	3.243087	1.098788	0.000130
1643	1.6338e+02	-14.6033	-140.904112	0.000365	3.648473	1.236136	0.000146
1644	1.6348e+02	-14.5648	-140.803183	0.000253	2.533662	0.858428	0.000101
1645	1.6358e+02	-14.5327	-140.661883	0.000355	3.547127	1.201799	0.000142
1646	1.6368e+02	-14.4878	-140.544806	0.000294	2.939048	0.995776	0.000118
1647	1.6378e+02	-14.4461	-140.415618	0.000324	3.243087	1.098788	0.000130
1648	1.6388e+02	-14.4012	-140.229910	0.000466	4.661938	1.579507	0.000187
1649	1.6398e+02	-14.3755	-140.128981	0.000253	2.533662	0.858428	0.000101
1650	1.6408e+02	-14.3274	-140.028053	0.000253	2.533662	0.858428	0.000101
1651	1.6418e+02	-14.2857	-139.842345	0.000466	4.661938	1.579507	0.000187
1652	1.6427e+02	-14.2488	-139.741416	0.000253	2.533662	0.858428	0.000101
1653	1.6437e+02	-14.2055	-139.600117	0.000355	3.547127	1.201799	0.000142
1654	1.6447e+02	-14.1686	-139.462854	0.000345	3.445780	1.167462	0.000138
1655	1.6457e+02	-14.1317	-139.333666	0.000324	3.243087	1.098788	0.000130
1656	1.6467e+02	-14.0884	-139.212552	0.000304	3.040395	1.030114	0.000122
1657	1.6477e+02	-14.0515	-139.063178	0.000375	3.749820	1.270473	0.000150
1658	1.6487e+02	-13.9953	-138.913804	0.000375	3.749820	1.270473	0.000150
1659	1.6497e+02	-13.9568	-138.740207	0.000436	4.357899	1.476496	0.000174
1660	1.6507e+02	-13.9231	-138.627167	0.000284	2.837702	0.961439	0.000114
1661	1.6517e+02	-13.8846	-138.502016	0.000314	3.141741	1.064451	0.000126
1662	1.6527e+02	-13.8590	-138.376865	0.000314	3.141741	1.064451	0.000126
1663	1.6537e+02	-13.8076	-138.227491	0.000375	3.749820	1.270473	0.000150
1664	1.6547e+02	-13.7627	-138.086191	0.000355	3.547127	1.201799	0.000142
1665	1.6557e+02	-13.7210	-137.948928	0.000345	3.445780	1.167462	0.000138
1666	1.6567e+02	-13.6889	-137.827814	0.000304	3.040395	1.030114	0.000122
1667	1.6577e+02	-13.6568	-137.650180	0.000446	4.459245	1.510833	0.000179
1668	1.6587e+02	-13.5991	-137.533103	0.000294	2.939048	0.995776	0.000118
1669	1.6597e+02	-13.5702	-137.399878	0.000334	3.344434	1.133125	0.000134
1670	1.6607e+02	-13.5285	-137.210132	0.000476	4.763285	1.613845	0.000191
1671	1.6616e+02	-13.4996	-137.133427	0.000193	1.925583	0.652405	0.000077
1672	1.6626e+02	-13.4499	-136.955793	0.000446	4.459245	1.510833	0.000179
1673	1.6636e+02	-13.4098	-136.818530	0.000345	3.445780	1.167462	0.000138
1674	1.6646e+02	-13.3681	-136.693379	0.000314	3.141741	1.064451	0.000126
1675	1.6656e+02	-13.3296	-136.519782	0.000436	4.357899	1.476496	0.000174
1676	1.6666e+02	-13.2927	-136.382520	0.000345	3.445780	1.167462	0.000138
1677	1.6676e+02	-13.2542	-136.216997	0.000416	4.155206	1.407822	0.000166
1678	1.6686e+02	-13.1996	-136.120106	0.000243	2.432316	0.824091	0.000097
1679	1.6696e+02	-13.1756	-135.970732	0.000375	3.749820	1.270473	0.000150
1680	1.6706e+02	-13.1226	-135.825395	0.000365	3.648473	1.236136	0.000146
1681	1.6716e+02	-13.0857	-135.700244	0.000314	3.141741	1.064451	0.000126
1682	1.6726e+02	-13.0617	-135.558944	0.000355	3.547127	1.201799	0.000142
1683	1.6736e+02	-13.0071	-135.401496	0.000395	3.952513	1.339148	0.000158
1684	1.6746e+02	-12.9766	-135.256159	0.000365	3.648473	1.236136	0.000146
1685	1.6756e+02	-12.9205	-135.102747	0.000385	3.851166	1.304810	0.000154
1686	1.6766e+02	-12.8996	-134.961448	0.000355	3.547127	1.201799	0.000142
1687	1.6776e+02	-12.8531	-134.824185	0.000345	3.445780	1.167462	0.000138
1688	1.6786e+02	-12.8114	-134.678848	0.000365	3.648473	1.236136	0.000146
1689	1.6796e+02	-12.7681	-134.517363	0.000405	4.053859	1.373485	0.000162
1690	1.6806e+02	-12.7360	-134.351840	0.000416	4.155206	1.407822	0.000166
1691	1.6816e+02	-12.6943	-134.234763	0.000294	2.939048	0.995776	0.000118
1692	1.6825e+02	-12.6574	-134.073278	0.000405	4.053859	1.373485	0.000162
1693	1.6835e+02	-12.6189	-133.936015	0.000345	3.445780	1.167462	0.000138
1694	1.6845e+02	-12.5740	-133.818938	0.000294	2.939048	0.995776	0.000118
1695	1.6855e+02	-12.5307	-133.665527	0.000385	3.851166	1.304810	0.000154
1696	1.6865e+02	-12.4906	-133.516153	0.000375	3.749820	1.270473	0.000150
1697	1.6875e+02	-12.4553	-133.366779	0.000375	3.749820	1.270473	0.000150
1698	1.6885e+02	-12.4087	-133.241628	0.000314	3.141741	1.064451	0.000126
1699	1.6895e+02	-12.3751	-133.104365	0.000345	3.445780	1.167462	0.000138
1700	1.6905e+02	-12.3317	-132.991325	0.000284	2.837702	0.961439	0.000114
1701	1.6915e+02	-12.3045	-132.809654	0.000456	4.560592	1.545170	0.000183
1702	1.6925e+02	-12.2612	-132.652206	0.000395	3.952513	1.339148	0.000158
1703	1.6935e+02	-12.2162	-132.527055	0.000314	3.141741	1.064451	0.000126
1704	1.6945e+02	-12.1633	-132.361532	0.000416	4.155206	1.407822	0.000166
1705	1.6955e+02	-12.1408	-132.248493	0.000284	2.837702	0.961439	0.000114
1706	1.6965e+02	-12.0991	-132.095081	0.000385	3.851166	1.304810	0.000154
1707	1.6975e+02	-12.0526	-131.909373	0.000466	4.661938	1.579507	0.000187
1708	1.6985e+02	-12.0189	-131.764036	0.000365	3.648473	1.236136	0.000146
1709	1.6995e+02	-11.9772	-131.630811	0.000334	3.344434	1.133125	0.000134
1710	1.7005e+02	-11.9291	-131.461251	0.000426	4.256552	1.442159	0.000170
1711	1.7015e+02	-11.9018	-131.311877	0.000375	3.749820	1.270473	0.000150
1712	1.7024e+02	-11.8553	-131.190763	0.000304	3.040395	1.030114	0.000122
1713	1.7034e+02	-11.8152	-130.992943	0.000497	4.965978	1.682519	0.000199
1714	1.7044e+02	-11.7783	-130.847606	0.000365	3.648473	1.236136	0.000146
1715	1.7054e+02	-11.7398	-130.738604	0.000274	2.736355	0.927102	0.000110
1716	1.7064e+02	-11.6916	-130.544821	0.000486	4.864631	1.648182	0.000195
1717	1.7074e+02	-11.6676	-130.431781	0.000284	2.837702	0.961439	0.000114
1718	1.7084e+02	-11.6098	-130.258185	0.000436	4.357899	1.476496	0.000174
1719	1.7094e+02	-11.5874	-130.076513	0.000456	4.560592	1.545170	0.000183
1720	1.7104e+02	-11.5409	-129.967511	0.000274	2.736355	0.927102	0.000110
1721	1.7114e+02	-11.5040	-129.781803	0.000466	4.661938	1.579507	0.000187
1722	1.7124e+02	-11.4542	-129.644540	0.000345	3.445780	1.167462	0.000138
1723	1.7134e+02	-11.4237	-129.531500	0.000284	2.837702	0.961439	0.000114
1724	1.7144e+02	-11.3756	-129.374052	0.000395	3.952513	1.339148	0.000158
1725	1.7154e+02	-11.3419	-129.184306	0.000476	4.763285	1.613845	0.000191
1726	1.7164e+02	-11.3114	-129.026858	0.000395	3.952513	1.339148	0.000158
1727	1.7174e+02	-11.2601	-128.873447	0.000385	3.851166	1.304810	0.000154
1728	1.7184e+02	-11.2216	-128.707924	0.000416	4.155206	1.407822	0.000166
1729	1.7194e+02	-11.1863	-128.534328	0.000436	4.357899	1.476496	0.000174
1730	1.7204e+02	-11.1462	-128.401102	0.000334	3.344434	1.133125	0.000134
1731	1.7213e+02	-11.0901	-128.259802	0.000355	3.547127	1.201799	0.000142
1732	1.7223e+02	-11.0612	-128.074094	0.000466	4.661938	1.579507	0.000187
1733	1.7233e+02	-11.0227	-127.952980	0.000304	3.040395	1.030114	0.000122
1734	1.7243e+02	-10.9713	-127.791495	0.000405	4.053859	1.373485	0.000162
1735	1.7253e+02	-10.9393	-127.646158	0.000365	3.648473	1.236136	0.000146
1736	1.7263e+02	-10.8992	-127.488709	0.000395	3.952513	1.339148	0.000158
1737	1.7273e+02	-10.8607	-127.339335	0.000375	3.749820	1.270473	0.000150
1738	1.7283e+02	-10.8222	-127.165739	0.000436	4.357899	1.476496	0.000174
1739	1.7293e+02	-10.7820	-127.000216	0.000416	4.155206	1.407822	0.000166
1740	1.7303e+02	-10.7403	-126.830656	0.000426	4.256552	1.442159	0.000170
1741	1.7313e+02	-10.6970	-126.669171	0.000405	4.053859	1.373485	0.000162
1742	1.7323e+02	-10.6649	-126.527871	0.000355	3.547127	1.201799	0.000142
1743	1.7333e+02	-10.6216	-126.342163	0.000466	4.661938	1.579507	0.000187
1744	1.7343e+02	-10.5799	-126.164529	0.000446	4.459245	1.510833	0.000179
1745	1.7353e+02	-10.5414	-126.043415	0.000304	3.040395	1.030114	0.000122
1746	1.7363e+02	-10.5013	-125.890004	0.000385	3.851166	1.304810	0.000154
1747	1.7373e+02	-10.4740	-125.716407	0.000436	4.357899	1.476496	0.000174
1748	1.7383e+02	-10.4307	-125.554921	0.000405	4.053859	1.373485	0.000162
1749	1.7393e+02	-10.3874	-125.373250	0.000456	4.560592	1.545170	0.000183
1750	1.7403e+02	-10.3345	-125.211765	0.000405	4.053859	1.373485	0.000162
1751	1.7413e+02	-10.3040	-125.066428	0.000365	3.648473	1.236136	0.000146
1752	1.7422e+02	-10.2655	-124.884757	0.000456	4.560592	1.545170	0.000183
1753	1.7432e+02	-10.2270	-124.731346	0.000385	3.851166	1.304810	0.000154
1754	1.7442e+02	-10.1885	-124.626380	0.000264	2.635009	0.892765	0.000105
1755	1.7452e+02	-10.1388	-124.408375	0.000547	5.472710	1.854204	0.000219
1756	1.7462e+02	-10.1002	-124.230741	0.000446	4.459245	1.510833	0.000179
1757	1.7472e+02	-10.0601	-124.085404	0.000365	3.648473	1.236136	0.000146
1758	1.7482e+02	-10.0184	-123.956216	0.000324	3.243087	1.098788	0.000130
1759	1.7492e+02	-9.9928	-123.770507	0.000466	4.661938	1.579507	0.000187
1760	1.7502e+02	-9.9478	-123.613059	0.000395	3.952513	1.339148	0.000158
1761	1.7512e+02	-9.9126	-123.431388	0.000456	4.560592	1.545170	0.000183
1762	1.7522e+02	-9.8580	-123.257791	0.000436	4.357899	1.476496	0.000174
1763	1.7532e+02	-9.8307	-123.059972	0.000497	4.965978	1.682519	0.000199
1764	1.7542e+02	-9.7858	-122.894449	0.000416	4.155206	1.407822	0.000166
1765	1.7552e+02	-9.7537	-122.769298	0.000314	3.141741	1.064451	0.000126
1766	1.7562e+02	-9.6992	-122.636072	0.000334	3.344434	1.133125	0.000134
1767	1.7572e+02	-9.6655	-122.409993	0.000568	5.675403	1.922879	0.000227
1768	1.7582e+02	-9.6286	-122.260619	0.000375	3.749820	1.270473	0.000150
1769	1.7592e+02	-9.5773	-122.151616	0.000274	2.736355	0.927102	0.000110
1770	1.7602e+02	-9.5452	-121.933611	0.000547	5.472710	1.854204	0.000219
1771	1.7612e+02	-9.4987	-121.764051	0.000426	4.256552	1.442159	0.000170
1772	1.7621e+02	-9.4650	-121.582380	0.000456	4.560592	1.545170	0.000183
1773	1.7631e+02	-9.4265	-121.416857	0.000416	4.155206	1.407822	0.000166
1774	1.7641e+02	-9.3816	-121.287669	0.000324	3.243087	1.098788	0.000130
1775	1.7651e+02	-9.3479	-121.081775	0.000517	5.168671	1.751193	0.000207
1776	1.7661e+02	-9.3013	-120.904141	0.000446	4.459245	1.510833	0.000179
1777	1.7671e+02	-9.2709	-120.750730	0.000385	3.851166	1.304810	0.000154
1778	1.7681e+02	-9.2227	-120.625579	0.000314	3.141741	1.064451	0.000126
1779	1.7691e+02	-9.1874	-120.427759	0.000497	4.965978	1.682519	0.000199
1780	1.7701e+02	-9.1409	-120.266274	0.000405	4.053859	1.373485	0.000162
1781	1.7711e+02	-9.1120	-120.080565	0.000466	4.661938	1.579507	0.000187
1782	1.7721e+02	-9.0671	-119.882746	0.000497	4.965978	1.682519	0.000199
1783	1.7731e+02	-9.0238	-119.697037	0.000466	4.661938	1.579507	0.000187
1784	1.7741e+02	-8.9885	-119.539589	0.000395	3.952513	1.339148	0.000158
1785	1.7751e+02	-8.9500	-119.390215	0.000375	3.749820	1.270473	0.000150
1786	1.7761e+02	-8.9035	-119.160098	0.000578	5.776750	1.957216	0.000231
1787	1.7771e+02	-8.8618	-119.010724	0.000375	3.749820	1.270473	0.000150
1788	1.7781e+02	-8.8233	-118.869425	0.000355	3.547127	1.201799	0.000142
1789	1.7791e+02	-8.7896	-118.643345	0.000568	5.675403	1.922879	0.000227
1790	1.7801e+02	-8.7463	-118.481860	0.000405	4.053859	1.373485	0.000162
1791	1.7810e+02	-8.7110	-118.292114	0.000476	4.763285	1.613845	0.000191
1792	1.7820e+02	-8.6661	-118.114480	0.000446	4.459245	1.510833	0.000179
1793	1.7830e+02	-8.6372	-117.932809	0.000456	4.560592	1.545170	0.000183
1794	1.7840e+02	-8.5891	-117.779398	0.000385	3.851166	1.304810	0.000154
1795	1.7850e+02	-8.5490	-117.585616	0.000486	4.864631	1.648182	0.000195
1796	1.7860e+02	-8.5089	-117.428167	0.000395	3.952513	1.339148	0.000158
1797	1.7870e+02	-8.4720	-117.242459	0.000466	4.661938	1.579507	0.000187
1798	1.7880e+02	-8.4351	-117.048676	0.000486	4.864631	1.648182	0.000195
1799	1.7890e+02	-8.3885	-116.879117	0.000426	4.256552	1.442159	0.000170
1800	1.7900e+02	-8.3516	-116.705520	0.000436	4.357899	1.476496	0.000174
1801	1.7910e+02	-8.3179	-116.539997	0.000416	4.155206	1.407822	0.000166
1802	1.7920e+02	-8.2698	-116.338141	0.000507	5.067324	1.716856	0.000203
1803	1.7930e+02	-8.2281	-116.172618	0.000416	4.155206	1.407822	0.000166
1804	1.7940e+02	-8.1880	-115.974798	0.000497	4.965978	1.682519	0.000199
1805	1.7950e+02	-8.1431	-115.797164	0.000446	4.459245	1.510833	0.000179
1806	1.7960e+02	-8.1078	-115.599345	0.000497	4.965978	1.682519	0.000199
1807	1.7970e+02	-8.0693	-115.413636	0.000466	4.661938	1.579507	0.000187
1808	1.7980e+02	-8.0356	-115.264262	0.000375	3.749820	1.270473	0.000150
1809	1.7990e+02	-7.9955	-115.058369	0.000517	5.168671	1.751193	0.000207
1810	1.8000e+02	-7.9506	-114.904957	0.000385	3.851166	1.304810	0.000154
1811	1.8009e+02	-7.9121	-114.654655	0.000628	6.283482	2.128901	0.000252
1812	1.8019e+02	-7.8688	-114.493170	0.000405	4.053859	1.373485	0.000162
1813	1.8029e+02	-7.8415	-114.351870	0.000355	3.547127	1.201799	0.000142
1814	1.8039e+02	-7.7902	-114.137902	0.000537	5.371364	1.819867	0.000215
1815	1.8049e+02	-7.7500	-113.992565	0.000365	3.648473	1.236136	0.000146
1816	1.8059e+02	-7.7164	-113.798782	0.000486	4.864631	1.648182	0.000195
1817	1.8069e+02	-7.6827	-113.609037	0.000476	4.763285	1.613845	0.000191
1818	1.8079e+02	-7.6297	-113.386994	0.000557	5.574057	1.888542	0.000223
1819	1.8089e+02	-7.5880	-113.241657	0.000365	3.648473	1.236136	0.000146
1820	1.8099e+02	-7.5511	-113.047875	0.000486	4.864631	1.648182	0.000195
1821	1.8109e+02	-7.5174	-112.870241	0.000446	4.459245	1.510833	0.000179
1822	1.8119e+02	-7.4677	-112.696644	0.000436	4.357899	1.476496	0.000174
1823	1.8129e+02	-7.4276	-112.466527	0.000578	5.776750	1.957216	0.000231
1824	1.8139e+02	-7.3875	-112.337339	0.000324	3.243087	1.098788	0.000130
1825	1.8149e+02	-7.3522	-112.111259	0.000568	5.675403	1.922879	0.000227
1826	1.8159e+02	-7.3041	-111.945737	0.000416	4.155206	1.407822	0.000166
1827	1.8169e+02	-7.2832	-111.707546	0.000598	5.979443	2.025890	0.000239
1828	1.8179e+02	-7.2319	-111.558172	0.000375	3.749820	1.270473	0.000150
1829	1.8189e+02	-7.1902	-111.344204	0.000537	5.371364	1.819867	0.000215
1830	1.8199e+02	-7.1533	-111.178681	0.000416	4.155206	1.407822	0.000166
1831	1.8209e+02	-7.1148	-110.992973	0.000466	4.661938	1.579507	0.000187
1832	1.8218e+02	-7.0795	-110.811302	0.000456	4.560592	1.545170	0.000183
1833	1.8228e+02	-7.0265	-110.601371	0.000527	5.270017	1.785530	0.000211
1834	1.8238e+02	-6.9929	-110.399514	0.000507	5.067324	1.716856	0.000203
1835	1.8248e+02	-6.9576	-110.209769	0.000476	4.763285	1.613845	0.000191
1836	1.8258e+02	-6.9126	-110.032135	0.000446	4.459245	1.510833	0.000179
1837	1.8268e+02	-6.8741	-109.842389	0.000476	4.763285	1.613845	0.000191
1838	1.8278e+02	-6.8388	-109.676867	0.000416	4.155206	1.407822	0.000166
1839	1.8288e+02	-6.8003	-109.430601	0.000618	6.182136	2.094564	0.000248
1840	1.8298e+02	-6.7522	-109.232782	0.000497	4.965978	1.682519	0.000199
1841	1.8308e+02	-6.7185	-109.047073	0.000466	4.661938	1.579507	0.000187
1842	1.8318e+02	-6.6752	-108.816957	0.000578	5.776750	1.957216	0.000231
1843	1.8328e+02	-6.6367	-108.651434	0.000416	4.155206	1.407822	0.000166
1844	1.8338e+02	-6.5934	-108.437466	0.000537	5.371364	1.819867	0.000215
1845	1.8348e+02	-6.5533	-108.263869	0.000436	4.357899	1.476496	0.000174
1846	1.8358e+02	-6.5212	-108.090272	0.000436	4.357899	1.476496	0.000174
1847	1.8368e+02	-6.4763	-107.884378	0.000517	5.168671	1.751193	0.000207
1848	1.8378e+02	-6.4394	-107.666373	0.000547	5.472710	1.854204	0.000219
1849	1.8388e+02	-6.4025	-107.472590	0.000486	4.864631	1.648182	0.000195
1850	1.8398e+02	-6.3656	-107.290919	0.000456	4.560592	1.545170	0.000183
1851	1.8407e+02	-6.3159	-107.080988	0.000527	5.270017	1.785530	0.000211
1852	1.8417e+02	-6.2822	-106.919503	0.000405	4.053859	1.373485	0.000162
1853	1.8427e+02	-6.2357	-106.681312	0.000598	5.979443	2.025890	0.000239
1854	1.8437e+02	-6.1923	-106.495604	0.000466	4.661938	1.579507	0.000187
1855	1.8447e+02	-6.1538	-106.289710	0.000517	5.168671	1.751193	0.000207
1856	1.8457e+02	-6.1218	-106.083816	0.000517	5.168671	1.751193	0.000207
1857	1.8467e+02	-6.0865	-105.906182	0.000446	4.459245	1.510833	0.000179
1858	1.8477e+02	-6.0367	-105.680102	0.000568	5.675403	1.922879	0.000227
1859	1.8487e+02	-6.0095	-105.514580	0.000416	4.155206	1.407822	0.000166
1860	1.8497e+02	-5.9581	-105.284463	0.000578	5.776750	1.957216	0.000231
1861	1.8507e+02	-5.9244	-105.078569	0.000517	5.168671	1.751193	0.000207
1862	1.8517e+02	-5.8891	-104.876712	0.000507	5.067324	1.716856	0.000203
1863	1.8527e+02	-5.8346	-104.707153	0.000426	4.256552	1.442159	0.000170
1864	1.8537e+02	-5.8073	-104.468961	0.000598	5.979443	2.025890	0.000239
1865	1.8547e+02	-5.7608	-104.279216	0.000476	4.763285	1.613845	0.000191
1866	1.8557e+02	-5.7255	-104.113694	0.000416	4.155206	1.407822	0.000166
1867	1.8567e+02	-5.6822	-103.899725	0.000537	5.371364	1.819867	0.000215
1868	1.8577e+02	-5.6325	-103.637312	0.000659	6.587521	2.231913	0.000264
1869	1.8587e+02	-5.6020	-103.475826	0.000405	4.053859	1.373485	0.000162
1870	1.8597e+02	-5.5667	-103.290118	0.000466	4.661938	1.579507	0.000187
1871	1.8606e+02	-5.5218	-103.051927	0.000598	5.979443	2.025890	0.000239
1872	1.8616e+02	-5.4785	-102.825847	0.000568	5.675403	1.922879	0.000227
1873	1.8626e+02	-5.4464	-102.660325	0.000416	4.155206	1.407822	0.000166
1874	1.8636e+02	-5.4063	-102.458468	0.000507	5.067324	1.716856	0.000203
1875	1.8646e+02	-5.3694	-102.240463	0.000547	5.472710	1.854204	0.000219
1876	1.8656e+02	-5.3261	-102.042643	0.000497	4.965978	1.682519	0.000199
1877	1.8666e+02	-5.2811	-101.772155	0.000679	6.790214	2.300587	0.000272
1878	1.8676e+02	-5.2394	-101.602595	0.000426	4.256552	1.442159	0.000170
1879	1.8686e+02	-5.2057	-101.412850	0.000476	4.763285	1.613845	0.000191
1880	1.8696e+02	-5.1624	-101.166584	0.000618	6.182136	2.094564	0.000248
1881	1.8706e+02	-5.1255	-100.997025	0.000426	4.256552	1.442159	0.000170
1882	1.8716e+02	-5.0918	-100.766908	0.000578	5.776750	1.957216	0.000231
1883	1.8726e+02	-5.0469	-100.508531	0.000649	6.486175	2.197576	0.000260
1884	1.8736e+02	-5.0036	-100.334934	0.000436	4.357899	1.476496	0.000174
1885	1.8746e+02	-4.9635	-100.157301	0.000446	4.459245	1.510833	0.000179
1886	1.8756e+02	-4.9266	-99.898924	0.000649	6.486175	2.197576	0.000260
1887	1.8766e+02	-4.8929	-99.660733	0.000598	5.979443	2.025890	0.000239
1888	1.8776e+02	-4.8448	-99.470987	0.000476	4.763285	1.613845	0.000191
1889	1.8786e+02	-4.8015	-99.265094	0.000517	5.168671	1.751193	0.000207
1890	1.8796e+02	-4.7614	-99.063237	0.000507	5.067324	1.716856	0.000203
1891	1.8806e+02	-4.7261	-98.837157	0.000568	5.675403	1.922879	0.000227
1892	1.8815e+02	-4.6876	-98.582818	0.000638	6.384829	2.163238	0.000256
1893	1.8825e+02	-4.6459	-98.405184	0.000446	4.459245	1.510833	0.000179
1894	1.8835e+02	-4.6009	-98.179104	0.000568	5.675403	1.922879	0.000227
1895	1.8845e+02	-4.5640	-97.940913	0.000598	5.979443	2.025890	0.000239
1896	1.8855e+02	-4.5320	-97.694648	0.000618	6.182136	2.094564	0.000248
1897	1.8865e+02	-4.4919	-97.500865	0.000486	4.864631	1.648182	0.000195
1898	1.8875e+02	-4.4469	-97.307083	0.000486	4.864631	1.648182	0.000195
1899	1.8885e+02	-4.4084	-97.056780	0.000628	6.283482	2.128901	0.000252
1900	1.8895e+02	-4.3603	-96.826664	0.000578	5.776750	1.957216	0.000231
1901	1.8905e+02	-4.3346	-96.628844	0.000497	4.965978	1.682519	0.000199
1902	1.8915e+02	-4.2961	-96.414876	0.000537	5.371364	1.819867	0.000215
1903	1.8925e+02	-4.2560	-96.192833	0.000557	5.574057	1.888542	0.000223
1904	1.8935e+02	-4.2143	-95.974828	0.000547	5.472710	1.854204	0.000219
1905	1.8945e+02	-4.1758	-95.756823	0.000547	5.472710	1.854204	0.000219
1906	1.8955e+02	-4.1341	-95.478260	0.000699	6.992907	2.369261	0.000280
1907	1.8965e+02	-4.0876	-95.268329	0.000527	5.270017	1.785530	0.000211
1908	1.8975e+02	-4.0411	-95.042250	0.000568	5.675403	1.922879	0.000227
1909	1.8985e+02	-4.0058	-94.808096	0.000588	5.878096	1.991553	0.000235
1910	1.8995e+02	-3.9673	-94.561830	0.000618	6.182136	2.094564	0.000248
1911	1.9004e+02	-3.9240	-94.323639	0.000598	5.979443	2.025890	0.000239
1912	1.9014e+02	-3.8919	-94.101597	0.000557	5.574057	1.888542	0.000223
1913	1.9024e+02	-3.8470	-93.940111	0.000405	4.053859	1.373485	0.000162
1914	1.9034e+02	-3.8052	-93.649438	0.000730	7.296947	2.472273	0.000292
1915	1.9044e+02	-3.7716	-93.407210	0.000608	6.080789	2.060227	0.000243
1916	1.9054e+02	-3.7298	-93.229576	0.000446	4.459245	1.510833	0.000179
1917	1.9064e+02	-3.6865	-92.942939	0.000720	7.195600	2.437935	0.000288
1918	1.9074e+02	-3.6528	-92.733008	0.000527	5.270017	1.785530	0.000211
1919	1.9084e+02	-3.6111	-92.494817	0.000598	5.979443	2.025890	0.000239
1920	1.9094e+02	-3.5742	-92.284886	0.000527	5.270017	1.785530	0.000211
1921	1.9104e+02	-3.5309	-91.994212	0.000730	7.296947	2.472273	0.000292
1922	1.9114e+02	-3.4908	-91.735835	0.000649	6.486175	2.197576	0.000260
1923	1.9124e+02	-3.4523	-91.546090	0.000476	4.763285	1.613845	0.000191
1924	1.9134e+02	-3.4090	-91.311936	0.000588	5.878096	1.991553	0.000235
1925	1.9144e+02	-3.3785	-91.041448	0.000679	6.790214	2.300587	0.000272
1926	1.9154e+02	-3.3336	-90.819406	0.000557	5.574057	1.888542	0.000223
1927	1.9164e+02	-3.2951	-90.561029	0.000649	6.486175	2.197576	0.000260
1928	1.9174e+02	-3.2518	-90.363209	0.000497	4.965978	1.682519	0.000199
1929	1.9184e+02	-3.2149	-90.088684	0.000689	6.891561	2.334924	0.000276
1930	1.9194e+02	-3.1748	-89.838382	0.000628	6.283482	2.128901	0.000252
1931	1.9203e+02	-3.1363	-89.668822	0.000426	4.256552	1.442159	0.000170
1932	1.9213e+02	-3.0978	-89.337777	0.000831	8.310412	2.815644	0.000333
1933	1.9223e+02	-3.0513	-89.107660	0.000578	5.776750	1.957216	0.000231
1934	1.9233e+02	-3.0176	-88.853320	0.000638	6.384829	2.163238	0.000256
1935	1.9243e+02	-2.9710	-88.643389	0.000527	5.270017	1.785530	0.000211
1936	1.9253e+02	-2.9406	-88.405198	0.000598	5.979443	2.025890	0.000239
1937	1.9263e+02	-2.9005	-88.134710	0.000679	6.790214	2.300587	0.000272
1938	1.9273e+02	-2.8571	-87.860185	0.000689	6.891561	2.334924	0.000276
1939	1.9283e+02	-2.8074	-87.630068	0.000578	5.776750	1.957216	0.000231
1940	1.9293e+02	-2.7705	-87.408026	0.000557	5.574057	1.888542	0.000223
1941	1.9303e+02	-2.7320	-87.141575	0.000669	6.688868	2.266250	0.000268
1942	1.9313e+02	-2.6935	-86.850901	0.000730	7.296947	2.472273	0.000292
1943	1.9323e+02	-2.6534	-86.588487	0.000659	6.587521	2.231913	0.000264
1944	1.9333e+02	-2.6149	-86.342222	0.000618	6.182136	2.094564	0.000248
1945	1.9343e+02	-2.5748	-86.059623	0.000709	7.094254	2.403598	0.000284
1946	1.9353e+02	-2.5395	-85.829506	0.000578	5.776750	1.957216	0.000231
1947	1.9363e+02	-2.4898	-85.546906	0.000709	7.094254	2.403598	0.000284
1948	1.9373e+02	-2.4529	-85.312752	0.000588	5.878096	1.991553	0.000235
1949	1.9383e+02	-2.4176	-85.050339	0.000659	6.587521	2.231913	0.000264
1950	1.9393e+02	-2.3759	-84.787925	0.000659	6.587521	2.231913	0.000264
1951	1.9403e+02	-2.3293	-84.473028	0.000791	7.905026	2.678295	0.000316
1952	1.9412e+02	-2.2973	-84.210614	0.000659	6.587521	2.231913	0.000264
1953	1.9422e+02	-2.2556	-83.988572	0.000557	5.574057	1.888542	0.000223
1954	1.9432e+02	-2.2251	-83.681750	0.000770	7.702333	2.609621	0.000308
1955	1.9442e+02	-2.1737	-83.411261	0.000679	6.790214	2.300587	0.000272
1956	1.9452e+02	-2.1208	-83.160959	0.000628	6.283482	2.128901	0.000252
1957	1.9462e+02	-2.1080	-82.846062	0.000791	7.905026	2.678295	0.000316
1958	1.9472e+02	-2.0630	-82.603834	0.000608	6.080789	2.060227	0.000243
1959	1.9482e+02	-2.0085	-82.349495	0.000638	6.384829	2.163238	0.000256
1960	1.9492e+02	-1.9876	-82.030561	0.000801	8.006372	2.712632	0.000321
1961	1.9502e+02	-1.9443	-81.788333	0.000608	6.080789	2.060227	0.000243
1962	1.9512e+02	-1.8946	-81.505733	0.000709	7.094254	2.403598	0.000284
1963	1.9522e+02	-1.8641	-81.215060	0.000730	7.296947	2.472273	0.000292
1964	1.9532e+02	-1.8112	-80.884015	0.000831	8.310412	2.815644	0.000333
1965	1.9542e+02	-1.7807	-80.621601	0.000659	6.587521	2.231913	0.000264
1966	1.9552e+02	-1.7390	-80.383410	0.000598	5.979443	2.025890	0.000239
1967	1.9562e+02	-1.6957	-80.072550	0.000780	7.803679	2.643958	0.000312
1968	1.9572e+02	-1.6572	-79.789951	0.000709	7.094254	2.403598	0.000284
1969	1.9582e+02	-1.6219	-79.527537	0.000659	6.587521	2.231913	0.000264
1970	1.9592e+02	-1.5770	-79.261086	0.000669	6.688868	2.266250	0.000268
1971	1.9601e+02	-1.5417	-78.938115	0.000811	8.107719	2.746969	0.000325
1972	1.9611e+02	-1.5016	-78.667627	0.000679	6.790214	2.300587	0.000272
1973	1.9621e+02	-1.4518	-78.360805	0.000770	7.702333	2.609621	0.000308
1974	1.9631e+02	-1.4165	-78.029760	0.000831	8.310412	2.815644	0.000333
1975	1.9641e+02	-1.3828	-77.763309	0.000669	6.688868	2.266250	0.000268
1976	1.9651e+02	-1.3427	-77.480709	0.000709	7.094254	2.403598	0.000284
1977	1.9661e+02	-1.2978	-77.157738	0.000811	8.107719	2.746969	0.000325
1978	1.9671e+02	-1.2609	-76.822656	0.000841	8.411758	2.849981	0.000337
1979	1.9681e+02	-1.2240	-76.584465	0.000598	5.979443	2.025890	0.000239
1980	1.9691e+02	-1.1743	-76.289754	0.000740	7.398293	2.506610	0.000296
1981	1.9701e+02	-1.1390	-75.966783	0.000811	8.107719	2.746969	0.000325
1982	1.9711e+02	-1.1005	-75.663998	0.000760	7.600986	2.575284	0.000304
1983	1.9721e+02	-1.0604	-75.336990	0.000821	8.209065	2.781307	0.000329
1984	1.9731e+02	-1.0123	-75.066502	0.000679	6.790214	2.300587	0.000272
1985	1.9741e+02	-0.9866	-74.723345	0.000861	8.614451	2.918655	0.000345
1986	1.9751e+02	-0.9369	-74.400375	0.000811	8.107719	2.746969	0.000325
1987	1.9761e+02	-0.9016	-74.117775	0.000709	7.094254	2.403598	0.000284
1988	1.9771e+02	-0.8615	-73.774618	0.000861	8.614451	2.918655	0.000345
1989	1.9781e+02	-0.8214	-73.512205	0.000659	6.587521	2.231913	0.000264
1990	1.9791e+02	-0.7877	-73.132714	0.000953	9.526570	3.227689	0.000381
1991	1.9800e+02	-0.7460	-72.850114	0.000709	7.094254	2.403598	0.000284
1992	1.9810e+02	-0.7010	-72.510995	0.000851	8.513105	2.884318	0.000341
1993	1.9820e+02	-0.6609	-72.200136	0.000780	7.803679	2.643958	0.000312
1994	1.9830e+02	-0.6208	-71.865053	0.000841	8.411758	2.849981	0.000337
1995	1.9840e+02	-0.5727	-71.529971	0.000841	8.411758	2.849981	0.000337
1996	1.9850e+02	-0.5470	-71.207000	0.000811	8.107719	2.746969	0.000325
1997	1.9860e+02	-0.5005	-70.892104	0.000791	7.905026	2.678295	0.000316
1998	1.9870e+02	-0.4620	-70.573170	0.000801	8.006372	2.712632	0.000321
1999	1.9880e+02	-0.4075	-70.238088	0.000841	8.411758	2.849981	0.000337
2000	1.9890e+02	-0.3850	-69.911080	0.000821	8.209065	2.781307	0.000329
2001	1.9900e+02	-0.3289	-69.584072	0.000821	8.209065	2.781307	0.000329
2002	1.9910e+02	-0.3000	-69.224767	0.000902	9.019837	3.056004	0.000361
2003	1.9920e+02	-0.2631	-68.857387	0.000922	9.222530	3.124678	0.000369
2004	1.9930e+02	-0.2230	-68.526342	0.000831	8.310412	2.815644	0.000333
2005	1.9940e+02	-0.1845	-68.199334	0.000821	8.209065	2.781307	0.000329
2006	1.9950e+02	-0.1460	-67.848103	0.000882	8.817144	2.987329	0.000353
2007	1.9960e+02	-0.0963	-67.533207	0.000791	7.905026	2.678295	0.000316
2008	1.9970e+02	-0.0626	-67.161790	0.000932	9.323877	3.159015	0.000373
2009	1.9980e+02	-0.0193	-66.762114	0.000932	9.323877	3.159015	0.000402

Center data before PMax,+/-Pr and +/-Vc Calc.

PMax (uC/cm2):	1.47e+02
Pr (uC/cm2):	5.94e+01
-Pr (uC/cm2):	-6.68e+01
PLoss (uC/cm2):	-8.09e+01
-Vc:	-6.94e+00
C (Max-Eff) (nF):	7.35e-01
K (Eff):	2.49e+03
Vert. (+/-Pr) Shift (uC/cm2):	-3.66e+00
Offset (uC/cm2):	-1.42e+01

A (Loop Area - uC/cm2·Volts):	-3.56e-01



Hysteresis Version: 5.48.1 - Radiant Technologies, Inc., 1999 - 9/12/24

