»»»»»»»»»»»»»»»»»»»»»»»»»»»»»»»»»»»» Hysteresis ««««««««««««««««««««««««««««««««««««
»»»  Executed Version:	5.48.1
»»»  Vision Version:	5.48.4 (R)
»»»  Vision Compiled:	9/18/24
»»»  Driver Version:	5.47.0
»»»  Windows Version:	Windows 8 or 8.1
»»»  Processor Information:	x86 (AMD or Intel) - 32 Processors
»»»  Tester Name:	PMF21124-494 (100V)
»»»  Tester S/N:	PMF21124-494
»»»  Internal Amp Type:	100V RevK 270k
»»»  Internal Amp S/N:	iAB2-596/K     
»»»  Execution Count:	1
»»»»»»»»»»»»»»»»»»»»»»»»»»»»»»»»»»»»»»»»»»««««««««««««««««««««««««««««««««««««««««««

Stored:	6/10/2025 - 14:29:56
Configured:	06/10/25 02:01:08 PM
Executed:	06/10/25 02:29:14 PM

»»»»»»»»»»»»»»»»»»»»»»»»»»»»»»»»»»» Sample Info ««««««««««««««««««««««««««««««««««««
Sample Name:	
Lot Name:	
Wafer Name:	
Die Row/Column:	0/0
Capacitor Number:	0
Sample Area (cm2):	1.00e-04
Sample Thickness (microns):	3.00e-01

Amplifier:	Internal

»»»»»»»»»»»»»»»»»»»»»»»»»»»»»»»»»»» Tester Info «««««««««««««««««««««««««««««««««««
Tester Name:	PMF21124-494 (100V)
Tester Serial Number:	PMF21124-494
Return Signal Amp. Level:	0.19 [Index: 3]

»»»»»»»»»»»»»»»»»»»»»»»»»»»»»»»» Hysteresis Info ««««««««««««««««««««««««««««««««««
Task Name:	Hyst-1027
Volts:	20.00
Field:	666.67 (kV/cm)
DCBias:	0.00
DCField:	0.00 (kV/cm)
Hysteresis Period (ms):	2.00e+02
Preset:	Enabled
Preset Delay (ms):	1.00e+03
Profile:	Standard Bipolar

»»»»»»»»»»»»»»»»»»»»»»»»»»»»»»»»»»»»»» Data «««««««««««««««««««««««««««««««««««««««
Points:	2009

Valid Data

Point	Time (ms)	Drive Voltage	Measured Polarization (uC/cm2)	Capacitance (uF)	Normalized Capacitance (uF/cm2)	Dielectric Constant	Instantaneous Current (mA)
   1	0.0000e+00	-0.0080	3.122724	0.000081	0.810821	0.274713	0.000032
   2	9.9500e-02	0.0241	3.155022	0.000081	0.810821	0.274713	0.000032
   3	1.9900e-01	0.0578	3.332656	0.000446	4.459514	1.510924	0.000179
   4	2.9850e-01	0.1043	3.494141	0.000405	4.054103	1.373567	0.000162
   5	3.9800e-01	0.1380	3.651589	0.000395	3.952751	1.339228	0.000158
   6	4.9750e-01	0.1781	3.805000	0.000385	3.851398	1.304889	0.000154
   7	5.9700e-01	0.2342	3.918040	0.000284	2.837872	0.961497	0.000114
   8	6.9650e-01	0.2599	4.079526	0.000405	4.054103	1.373567	0.000162
   9	7.9600e-01	0.3080	4.245048	0.000416	4.155456	1.407907	0.000166
  10	8.9550e-01	0.3321	4.366162	0.000304	3.040577	1.030176	0.000122
  11	9.9500e-01	0.3914	4.572056	0.000517	5.168982	1.751298	0.000207
  12	1.0945e+00	0.4219	4.705282	0.000334	3.344635	1.133193	0.000134
  13	1.1940e+00	0.4636	4.862730	0.000395	3.952751	1.339228	0.000158
  14	1.2935e+00	0.5085	5.016141	0.000385	3.851398	1.304889	0.000154
  15	1.3930e+00	0.5470	5.121107	0.000264	2.635167	0.892819	0.000105
  16	1.4925e+00	0.5888	5.298741	0.000446	4.459514	1.510924	0.000179
  17	1.5920e+00	0.6273	5.460226	0.000405	4.054103	1.373567	0.000162
  18	1.6915e+00	0.6593	5.629786	0.000426	4.256808	1.442246	0.000170
  19	1.7910e+00	0.7010	5.746863	0.000294	2.939225	0.995836	0.000118
  20	1.8905e+00	0.7347	5.896237	0.000375	3.750046	1.270550	0.000150
  21	1.9900e+00	0.7797	6.049648	0.000385	3.851398	1.304889	0.000154
  22	2.0895e+00	0.8230	6.247468	0.000497	4.966277	1.682620	0.000199
  23	2.1890e+00	0.8631	6.372619	0.000314	3.141930	1.064515	0.000126
  24	2.2885e+00	0.9048	6.534104	0.000405	4.054103	1.373567	0.000162
  25	2.3880e+00	0.9401	6.695590	0.000405	4.054103	1.373567	0.000162
  26	2.4875e+00	0.9834	6.844964	0.000375	3.750046	1.270550	0.000150
  27	2.5870e+00	1.0219	6.998375	0.000385	3.851398	1.304889	0.000154
  28	2.6865e+00	1.0588	7.123526	0.000314	3.141930	1.064515	0.000126
  29	2.7860e+00	1.1101	7.297123	0.000436	4.358161	1.476585	0.000174
  30	2.8855e+00	1.1390	7.430348	0.000334	3.344635	1.133193	0.000134
  31	2.9850e+00	1.1871	7.620094	0.000476	4.763571	1.613942	0.000191
  32	3.0845e+00	1.2128	7.749282	0.000324	3.243283	1.098854	0.000130
  33	3.1840e+00	1.2641	7.967287	0.000547	5.473039	1.854316	0.000219
  34	3.2835e+00	1.3026	8.092439	0.000314	3.141930	1.064515	0.000126
  35	3.3830e+00	1.3395	8.241813	0.000375	3.750046	1.270550	0.000150
  36	3.4825e+00	1.3877	8.383112	0.000355	3.547340	1.201871	0.000142
  37	3.5820e+00	1.4117	8.580932	0.000497	4.966277	1.682620	0.000199
  38	3.6815e+00	1.4615	8.722232	0.000355	3.547340	1.201871	0.000142
  39	3.7810e+00	1.4919	8.875643	0.000385	3.851398	1.304889	0.000154
  40	3.8805e+00	1.5401	9.045203	0.000426	4.256808	1.442246	0.000170
  41	3.9800e+00	1.5738	9.206688	0.000405	4.054103	1.373567	0.000162
  42	4.0795e+00	1.6187	9.315691	0.000274	2.736520	0.927158	0.000110
  43	4.1790e+00	1.6620	9.509473	0.000486	4.864924	1.648281	0.000195
  44	4.2785e+00	1.7005	9.666922	0.000395	3.952751	1.339228	0.000158
  45	4.3780e+00	1.7486	9.836481	0.000426	4.256808	1.442246	0.000170
  46	4.4775e+00	1.7695	9.965670	0.000324	3.243283	1.098854	0.000130
  47	4.5770e+00	1.8224	10.171563	0.000517	5.168982	1.751298	0.000207
  48	4.6765e+00	1.8529	10.329012	0.000395	3.952751	1.339228	0.000158
  49	4.7760e+00	1.9042	10.482423	0.000385	3.851398	1.304889	0.000154
  50	4.8755e+00	1.9299	10.615648	0.000334	3.344635	1.133193	0.000134
  51	4.9750e+00	1.9796	10.760985	0.000365	3.648693	1.236211	0.000146
  52	5.0745e+00	2.0181	10.950731	0.000476	4.763571	1.613942	0.000191
  53	5.1740e+00	2.0566	11.096068	0.000365	3.648693	1.236211	0.000146
  54	5.2735e+00	2.0935	11.261590	0.000416	4.155456	1.407907	0.000166
  55	5.3730e+00	2.1368	11.447298	0.000466	4.662219	1.579602	0.000187
  56	5.4725e+00	2.1721	11.576487	0.000324	3.243283	1.098854	0.000130
  57	5.5720e+00	2.2138	11.766232	0.000476	4.763571	1.613942	0.000191
  58	5.6715e+00	2.2572	11.943866	0.000446	4.459514	1.510924	0.000179
  59	5.7710e+00	2.3005	12.077092	0.000334	3.344635	1.133193	0.000134
  60	5.8705e+00	2.3310	12.206280	0.000324	3.243283	1.098854	0.000130
  61	5.9700e+00	2.3775	12.387951	0.000456	4.560866	1.545263	0.000183
  62	6.0695e+00	2.4176	12.561548	0.000436	4.358161	1.476585	0.000174
  63	6.1690e+00	2.4577	12.739182	0.000446	4.459514	1.510924	0.000179
  64	6.2685e+00	2.4946	12.836073	0.000243	2.432462	0.824140	0.000097
  65	6.3680e+00	2.5459	13.041967	0.000517	5.168982	1.751298	0.000207
  66	6.4675e+00	2.5780	13.191341	0.000375	3.750046	1.270550	0.000150
  67	6.5670e+00	2.6117	13.356864	0.000416	4.155456	1.407907	0.000166
  68	6.6665e+00	2.6582	13.498163	0.000355	3.547340	1.201871	0.000142
  69	6.7660e+00	2.6951	13.639463	0.000355	3.547340	1.201871	0.000142
  70	6.8655e+00	2.7368	13.833246	0.000486	4.864924	1.648281	0.000195
  71	6.9650e+00	2.7817	14.002805	0.000426	4.256808	1.442246	0.000170
  72	7.0645e+00	2.8251	14.140068	0.000345	3.445988	1.167532	0.000138
  73	7.1640e+00	2.8507	14.289442	0.000375	3.750046	1.270550	0.000150
  74	7.2635e+00	2.8908	14.479187	0.000476	4.763571	1.613942	0.000191
  75	7.3630e+00	2.9341	14.624524	0.000365	3.648693	1.236211	0.000146
  76	7.4625e+00	2.9694	14.765824	0.000355	3.547340	1.201871	0.000142
  77	7.5620e+00	3.0192	14.951532	0.000466	4.662219	1.579602	0.000187
  78	7.6615e+00	3.0593	15.104943	0.000385	3.851398	1.304889	0.000154
  79	7.7610e+00	3.0930	15.258355	0.000385	3.851398	1.304889	0.000154
  80	7.8605e+00	3.1379	15.411766	0.000385	3.851398	1.304889	0.000154
  81	7.9600e+00	3.1716	15.593437	0.000456	4.560866	1.545263	0.000183
  82	8.0595e+00	3.2117	15.758959	0.000416	4.155456	1.407907	0.000166
  83	8.1590e+00	3.2630	15.900259	0.000355	3.547340	1.201871	0.000142
  84	8.2585e+00	3.2935	16.037522	0.000345	3.445988	1.167532	0.000138
  85	8.3580e+00	3.3288	16.219193	0.000456	4.560866	1.545263	0.000183
  86	8.4575e+00	3.3769	16.324158	0.000264	2.635167	0.892819	0.000105
  87	8.5570e+00	3.4122	16.550238	0.000568	5.675745	1.922994	0.000227
  88	8.6565e+00	3.4539	16.679426	0.000324	3.243283	1.098854	0.000130
  89	8.7560e+00	3.4972	16.857060	0.000446	4.459514	1.510924	0.000179
  90	8.8555e+00	3.5309	17.054880	0.000497	4.966277	1.682620	0.000199
  91	8.9550e+00	3.5710	17.143697	0.000223	2.229757	0.755462	0.000089
  92	9.0545e+00	3.6191	17.317294	0.000436	4.358161	1.476585	0.000174
  93	9.1540e+00	3.6528	17.490891	0.000436	4.358161	1.476585	0.000174
  94	9.2535e+00	3.6817	17.648339	0.000395	3.952751	1.339228	0.000158
  95	9.3530e+00	3.7330	17.789639	0.000355	3.547340	1.201871	0.000142
  96	9.4525e+00	3.7699	17.930938	0.000355	3.547340	1.201871	0.000142
  97	9.5520e+00	3.8133	18.108572	0.000446	4.459514	1.510924	0.000179
  98	9.6515e+00	3.8518	18.213538	0.000264	2.635167	0.892819	0.000105
  99	9.7510e+00	3.8871	18.463840	0.000628	6.283860	2.129029	0.000252
 100	9.8505e+00	3.9320	18.544583	0.000203	2.027052	0.686784	0.000081
 101	9.9500e+00	3.9641	18.782774	0.000598	5.979802	2.026012	0.000239
 102	1.0050e+01	4.0074	18.924074	0.000355	3.547340	1.201871	0.000142
 103	1.0149e+01	4.0555	19.081522	0.000395	3.952751	1.339228	0.000158
 104	1.0248e+01	4.0908	19.222822	0.000355	3.547340	1.201871	0.000142
 105	1.0348e+01	4.1325	19.424679	0.000507	5.067629	1.716959	0.000203
 106	1.0447e+01	4.1662	19.553867	0.000324	3.243283	1.098854	0.000130
 107	1.0547e+01	4.2127	19.699204	0.000365	3.648693	1.236211	0.000146
 108	1.0646e+01	4.2544	19.848578	0.000375	3.750046	1.270550	0.000150
 109	1.0746e+01	4.2849	20.038323	0.000476	4.763571	1.613942	0.000191
 110	1.0845e+01	4.3250	20.155400	0.000294	2.939225	0.995836	0.000118
 111	1.0945e+01	4.3699	20.333034	0.000446	4.459514	1.510924	0.000179
 112	1.1044e+01	4.4068	20.442037	0.000274	2.736520	0.927158	0.000110
 113	1.1144e+01	4.4485	20.635819	0.000486	4.864924	1.648281	0.000195
 114	1.1243e+01	4.4870	20.849788	0.000537	5.371687	1.819977	0.000215
 115	1.1343e+01	4.5287	20.966864	0.000294	2.939225	0.995836	0.000118
 116	1.1443e+01	4.5705	21.120276	0.000385	3.851398	1.304889	0.000154
 117	1.1542e+01	4.6106	21.265613	0.000365	3.648693	1.236211	0.000146
 118	1.1642e+01	4.6539	21.427098	0.000405	4.054103	1.373567	0.000162
 119	1.1741e+01	4.6844	21.580509	0.000385	3.851398	1.304889	0.000154
 120	1.1841e+01	4.7277	21.750069	0.000426	4.256808	1.442246	0.000170
 121	1.1940e+01	4.7598	21.931740	0.000456	4.560866	1.545263	0.000183
 122	1.2040e+01	4.7999	22.073040	0.000355	3.547340	1.201871	0.000142
 123	1.2139e+01	4.8400	22.206265	0.000334	3.344635	1.133193	0.000134
 124	1.2239e+01	4.8865	22.387936	0.000456	4.560866	1.545263	0.000183
 125	1.2338e+01	4.9202	22.541347	0.000385	3.851398	1.304889	0.000154
 126	1.2438e+01	4.9635	22.702833	0.000405	4.054103	1.373567	0.000162
 127	1.2537e+01	5.0100	22.884504	0.000456	4.560866	1.545263	0.000183
 128	1.2636e+01	5.0549	23.005618	0.000304	3.040577	1.030176	0.000122
 129	1.2736e+01	5.0950	23.199401	0.000486	4.864924	1.648281	0.000195
 130	1.2835e+01	5.1351	23.316477	0.000294	2.939225	0.995836	0.000118
 131	1.2935e+01	5.1576	23.477963	0.000405	4.054103	1.373567	0.000162
 132	1.3034e+01	5.2025	23.671745	0.000486	4.864924	1.648281	0.000195
 133	1.3134e+01	5.2490	23.813045	0.000355	3.547340	1.201871	0.000142
 134	1.3233e+01	5.2859	23.946271	0.000334	3.344635	1.133193	0.000134
 135	1.3333e+01	5.3164	24.123905	0.000446	4.459514	1.510924	0.000179
 136	1.3432e+01	5.3597	24.257130	0.000334	3.344635	1.133193	0.000134
 137	1.3532e+01	5.4063	24.398430	0.000355	3.547340	1.201871	0.000142
 138	1.3632e+01	5.4464	24.576064	0.000446	4.459514	1.510924	0.000179
 139	1.3731e+01	5.4865	24.697178	0.000304	3.040577	1.030176	0.000122
 140	1.3831e+01	5.5137	24.882886	0.000466	4.662219	1.579602	0.000187
 141	1.3930e+01	5.5651	25.044372	0.000405	4.054103	1.373567	0.000162
 142	1.4030e+01	5.5972	25.209894	0.000416	4.155456	1.407907	0.000166
 143	1.4129e+01	5.6517	25.331008	0.000304	3.040577	1.030176	0.000122
 144	1.4229e+01	5.6870	25.476345	0.000365	3.648693	1.236211	0.000146
 145	1.4328e+01	5.7255	25.645905	0.000426	4.256808	1.442246	0.000170
 146	1.4428e+01	5.7624	25.771056	0.000314	3.141930	1.064515	0.000126
 147	1.4527e+01	5.8025	25.936579	0.000416	4.155456	1.407907	0.000166
 148	1.4627e+01	5.8474	26.106138	0.000426	4.256808	1.442246	0.000170
 149	1.4726e+01	5.8795	26.259549	0.000385	3.851398	1.304889	0.000154
 150	1.4825e+01	5.9212	26.396812	0.000345	3.445988	1.167532	0.000138
 151	1.4925e+01	5.9565	26.558297	0.000405	4.054103	1.373567	0.000162
 152	1.5024e+01	5.9966	26.691523	0.000334	3.344635	1.133193	0.000134
 153	1.5124e+01	6.0496	26.885305	0.000486	4.864924	1.648281	0.000195
 154	1.5223e+01	6.0945	26.994308	0.000274	2.736520	0.927158	0.000110
 155	1.5323e+01	6.1266	27.167905	0.000436	4.358161	1.476585	0.000174
 156	1.5422e+01	6.1699	27.305168	0.000345	3.445988	1.167532	0.000138
 157	1.5522e+01	6.1972	27.466653	0.000405	4.054103	1.373567	0.000162
 158	1.5621e+01	6.2501	27.628138	0.000405	4.054103	1.373567	0.000162
 159	1.5721e+01	6.2774	27.797698	0.000426	4.256808	1.442246	0.000170
 160	1.5820e+01	6.3191	27.951109	0.000385	3.851398	1.304889	0.000154
 161	1.5920e+01	6.3544	28.072223	0.000304	3.040577	1.030176	0.000122
 162	1.6020e+01	6.4057	28.261969	0.000476	4.763571	1.613942	0.000191
 163	1.6119e+01	6.4394	28.366934	0.000264	2.635167	0.892819	0.000105
 164	1.6218e+01	6.4843	28.528420	0.000405	4.054103	1.373567	0.000162
 165	1.6318e+01	6.5164	28.677794	0.000375	3.750046	1.270550	0.000150
 166	1.6418e+01	6.5517	28.839279	0.000405	4.054103	1.373567	0.000162
 167	1.6517e+01	6.6046	28.976542	0.000345	3.445988	1.167532	0.000138
 168	1.6616e+01	6.6431	29.154176	0.000446	4.459514	1.510924	0.000179
 169	1.6716e+01	6.6720	29.303550	0.000375	3.750046	1.270550	0.000150
 170	1.6816e+01	6.7137	29.448887	0.000365	3.648693	1.236211	0.000146
 171	1.6915e+01	6.7570	29.602298	0.000385	3.851398	1.304889	0.000154
 172	1.7015e+01	6.8052	29.731486	0.000324	3.243283	1.098854	0.000130
 173	1.7114e+01	6.8388	29.868749	0.000345	3.445988	1.167532	0.000138
 174	1.7213e+01	6.8773	30.070606	0.000507	5.067629	1.716959	0.000203
 175	1.7313e+01	6.9142	30.215942	0.000365	3.648693	1.236211	0.000146
 176	1.7413e+01	6.9592	30.357242	0.000355	3.547340	1.201871	0.000142
 177	1.7512e+01	6.9945	30.510653	0.000385	3.851398	1.304889	0.000154
 178	1.7611e+01	7.0346	30.684250	0.000436	4.358161	1.476585	0.000174
 179	1.7711e+01	7.0731	30.845736	0.000405	4.054103	1.373567	0.000162
 180	1.7811e+01	7.1132	30.946664	0.000253	2.533815	0.858480	0.000101
 181	1.7910e+01	7.1597	31.120261	0.000436	4.358161	1.476585	0.000174
 182	1.8009e+01	7.1998	31.237338	0.000294	2.939225	0.995836	0.000118
 183	1.8109e+01	7.2383	31.423046	0.000466	4.662219	1.579602	0.000187
 184	1.8209e+01	7.2736	31.515900	0.000233	2.331109	0.789801	0.000093
 185	1.8308e+01	7.3169	31.689497	0.000436	4.358161	1.476585	0.000174
 186	1.8407e+01	7.3506	31.859057	0.000426	4.256808	1.442246	0.000170
 187	1.8507e+01	7.3891	32.000356	0.000355	3.547340	1.201871	0.000142
 188	1.8607e+01	7.4276	32.145693	0.000365	3.648693	1.236211	0.000146
 189	1.8706e+01	7.4757	32.315253	0.000426	4.256808	1.442246	0.000170
 190	1.8805e+01	7.5206	32.420219	0.000264	2.635167	0.892819	0.000105
 191	1.8905e+01	7.5543	32.605927	0.000466	4.662219	1.579602	0.000187
 192	1.9005e+01	7.5976	32.723004	0.000294	2.939225	0.995836	0.000118
 193	1.9104e+01	7.6297	32.860266	0.000345	3.445988	1.167532	0.000138
 194	1.9203e+01	7.6714	33.021752	0.000405	4.054103	1.373567	0.000162
 195	1.9303e+01	7.7148	33.187274	0.000416	4.155456	1.407907	0.000166
 196	1.9402e+01	7.7581	33.288203	0.000253	2.533815	0.858480	0.000101
 197	1.9502e+01	7.7934	33.473911	0.000466	4.662219	1.579602	0.000187
 198	1.9602e+01	7.8335	33.590988	0.000294	2.939225	0.995836	0.000118
 199	1.9701e+01	7.8800	33.736325	0.000365	3.648693	1.236211	0.000146
 200	1.9800e+01	7.9217	33.930107	0.000486	4.864924	1.648281	0.000195
 201	1.9900e+01	7.9586	34.010850	0.000203	2.027052	0.686784	0.000081
 202	2.0000e+01	7.9923	34.164261	0.000385	3.851398	1.304889	0.000154
 203	2.0099e+01	8.0404	34.297487	0.000334	3.344635	1.133193	0.000134
 204	2.0198e+01	8.0725	34.495306	0.000497	4.966277	1.682620	0.000199
 205	2.0298e+01	8.1126	34.672940	0.000446	4.459514	1.510924	0.000179
 206	2.0398e+01	8.1495	34.773869	0.000253	2.533815	0.858480	0.000101
 207	2.0497e+01	8.1832	34.903057	0.000324	3.243283	1.098854	0.000130
 208	2.0596e+01	8.2265	35.008023	0.000264	2.635167	0.892819	0.000105
 209	2.0696e+01	8.2730	35.189694	0.000456	4.560866	1.545263	0.000183
 210	2.0796e+01	8.3228	35.302733	0.000284	2.837872	0.961497	0.000114
 211	2.0895e+01	8.3564	35.468256	0.000416	4.155456	1.407907	0.000166
 212	2.0994e+01	8.3901	35.649927	0.000456	4.560866	1.545263	0.000183
 213	2.1094e+01	8.4351	35.771041	0.000304	3.040577	1.030176	0.000122
 214	2.1194e+01	8.4800	35.884081	0.000284	2.837872	0.961497	0.000114
 215	2.1293e+01	8.5040	36.041529	0.000395	3.952751	1.339228	0.000158
 216	2.1392e+01	8.5538	36.150532	0.000274	2.736520	0.927158	0.000110
 217	2.1492e+01	8.5859	36.348352	0.000497	4.966277	1.682620	0.000199
 218	2.1591e+01	8.6260	36.477540	0.000324	3.243283	1.098854	0.000130
 219	2.1691e+01	8.6709	36.610765	0.000334	3.344635	1.133193	0.000134
 220	2.1791e+01	8.7126	36.756102	0.000365	3.648693	1.236211	0.000146
 221	2.1890e+01	8.7463	36.869142	0.000284	2.837872	0.961497	0.000114
 222	2.1989e+01	8.7928	37.038702	0.000426	4.256808	1.442246	0.000170
 223	2.2089e+01	8.8329	37.180002	0.000355	3.547340	1.201871	0.000142
 224	2.2189e+01	8.8650	37.309190	0.000324	3.243283	1.098854	0.000130
 225	2.2288e+01	8.9163	37.450490	0.000355	3.547340	1.201871	0.000142
 226	2.2387e+01	8.9468	37.603901	0.000385	3.851398	1.304889	0.000154
 227	2.2487e+01	8.9901	37.749238	0.000365	3.648693	1.236211	0.000146
 228	2.2587e+01	9.0286	37.846129	0.000243	2.432462	0.824140	0.000097
 229	2.2686e+01	9.0671	38.039911	0.000486	4.864924	1.648281	0.000195
 230	2.2785e+01	9.1153	38.140840	0.000253	2.533815	0.858480	0.000101
 231	2.2885e+01	9.1505	38.278103	0.000345	3.445988	1.167532	0.000138
 232	2.2985e+01	9.1874	38.419402	0.000355	3.547340	1.201871	0.000142
 233	2.3084e+01	9.2227	38.617222	0.000497	4.966277	1.682620	0.000199
 234	2.3183e+01	9.2677	38.738336	0.000304	3.040577	1.030176	0.000122
 235	2.3283e+01	9.3013	38.859450	0.000304	3.040577	1.030176	0.000122
 236	2.3383e+01	9.3479	38.976527	0.000294	2.939225	0.995836	0.000118
 237	2.3482e+01	9.3848	39.125901	0.000375	3.750046	1.270550	0.000150
 238	2.3581e+01	9.4265	39.247015	0.000304	3.040577	1.030176	0.000122
 239	2.3681e+01	9.4666	39.364092	0.000294	2.939225	0.995836	0.000118
 240	2.3780e+01	9.5051	39.545763	0.000456	4.560866	1.545263	0.000183
 241	2.3880e+01	9.5564	39.666877	0.000304	3.040577	1.030176	0.000122
 242	2.3980e+01	9.5869	39.804140	0.000345	3.445988	1.167532	0.000138
 243	2.4079e+01	9.6302	39.965625	0.000405	4.054103	1.373567	0.000162
 244	2.4178e+01	9.6751	40.054442	0.000223	2.229757	0.755462	0.000089
 245	2.4278e+01	9.7072	40.199779	0.000365	3.648693	1.236211	0.000146
 246	2.4378e+01	9.7441	40.316856	0.000294	2.939225	0.995836	0.000118
 247	2.4477e+01	9.7874	40.498527	0.000456	4.560866	1.545263	0.000183
 248	2.4576e+01	9.8259	40.571196	0.000182	1.824346	0.618105	0.000073
 249	2.4676e+01	9.8660	40.773052	0.000507	5.067629	1.716959	0.000203
 250	2.4776e+01	9.9077	40.857832	0.000213	2.128404	0.721123	0.000085
 251	2.4875e+01	9.9478	41.007206	0.000375	3.750046	1.270550	0.000150
 252	2.4974e+01	9.9896	41.100060	0.000233	2.331109	0.789801	0.000093
 253	2.5074e+01	10.0281	41.289806	0.000476	4.763571	1.613942	0.000191
 254	2.5174e+01	10.0666	41.354400	0.000162	1.621641	0.549427	0.000065
 255	2.5273e+01	10.1099	41.527997	0.000436	4.358161	1.476585	0.000174
 256	2.5372e+01	10.1452	41.649111	0.000304	3.040577	1.030176	0.000122
 257	2.5472e+01	10.1885	41.826745	0.000446	4.459514	1.510924	0.000179
 258	2.5572e+01	10.2238	41.939785	0.000284	2.837872	0.961497	0.000114
 259	2.5671e+01	10.2687	42.081084	0.000355	3.547340	1.201871	0.000142
 260	2.5770e+01	10.3056	42.198161	0.000294	2.939225	0.995836	0.000118
 261	2.5870e+01	10.3409	42.343498	0.000365	3.648693	1.236211	0.000146
 262	2.5970e+01	10.3842	42.460575	0.000294	2.939225	0.995836	0.000118
 263	2.6069e+01	10.4355	42.597838	0.000345	3.445988	1.167532	0.000138
 264	2.6169e+01	10.4644	42.706840	0.000274	2.736520	0.927158	0.000110
 265	2.6268e+01	10.5077	42.872363	0.000416	4.155456	1.407907	0.000166
 266	2.6367e+01	10.5446	42.957143	0.000213	2.128404	0.721123	0.000085
 267	2.6467e+01	10.5879	43.098443	0.000355	3.547340	1.201871	0.000142
 268	2.6567e+01	10.6216	43.231668	0.000334	3.344635	1.133193	0.000134
 269	2.6666e+01	10.6633	43.356819	0.000314	3.141930	1.064515	0.000126
 270	2.6765e+01	10.6986	43.494082	0.000345	3.445988	1.167532	0.000138
 271	2.6865e+01	10.7419	43.635382	0.000355	3.547340	1.201871	0.000142
 272	2.6965e+01	10.7804	43.740347	0.000264	2.635167	0.892819	0.000105
 273	2.7064e+01	10.8206	43.897795	0.000395	3.952751	1.339228	0.000158
 274	2.7163e+01	10.8639	44.043132	0.000365	3.648693	1.236211	0.000146
 275	2.7263e+01	10.8976	44.095615	0.000132	1.317584	0.446409	0.000053
 276	2.7363e+01	10.9296	44.293435	0.000497	4.966277	1.682620	0.000199
 277	2.7462e+01	10.9922	44.422623	0.000324	3.243283	1.098854	0.000130
 278	2.7561e+01	11.0227	44.531626	0.000274	2.736520	0.927158	0.000110
 279	2.7661e+01	11.0596	44.681000	0.000375	3.750046	1.270550	0.000150
 280	2.7761e+01	11.1045	44.794040	0.000284	2.837872	0.961497	0.000114
 281	2.7860e+01	11.1446	44.894968	0.000253	2.533815	0.858480	0.000101
 282	2.7959e+01	11.1815	45.060491	0.000416	4.155456	1.407907	0.000166
 283	2.8059e+01	11.2280	45.177567	0.000294	2.939225	0.995836	0.000118
 284	2.8159e+01	11.2521	45.302719	0.000314	3.141930	1.064515	0.000126
 285	2.8258e+01	11.3034	45.419796	0.000294	2.939225	0.995836	0.000118
 286	2.8358e+01	11.3483	45.540910	0.000304	3.040577	1.030176	0.000122
 287	2.8457e+01	11.3820	45.666061	0.000314	3.141930	1.064515	0.000126
 288	2.8556e+01	11.4350	45.779101	0.000284	2.837872	0.961497	0.000114
 289	2.8656e+01	11.4655	45.920400	0.000355	3.547340	1.201871	0.000142
 290	2.8756e+01	11.5007	46.089960	0.000426	4.256808	1.442246	0.000170
 291	2.8855e+01	11.5425	46.219148	0.000324	3.243283	1.098854	0.000130
 292	2.8954e+01	11.5761	46.332188	0.000284	2.837872	0.961497	0.000114
 293	2.9054e+01	11.6259	46.457340	0.000314	3.141930	1.064515	0.000126
 294	2.9154e+01	11.6628	46.598639	0.000355	3.547340	1.201871	0.000142
 295	2.9253e+01	11.7045	46.703605	0.000264	2.635167	0.892819	0.000105
 296	2.9352e+01	11.7398	46.848942	0.000365	3.648693	1.236211	0.000146
 297	2.9452e+01	11.7799	46.982167	0.000334	3.344635	1.133193	0.000134
 298	2.9552e+01	11.8216	47.079058	0.000243	2.432462	0.824140	0.000097
 299	2.9651e+01	11.8585	47.216321	0.000345	3.445988	1.167532	0.000138
 300	2.9750e+01	11.9018	47.373769	0.000395	3.952751	1.339228	0.000158
 301	2.9850e+01	11.9291	47.450475	0.000193	1.925699	0.652445	0.000077
 302	2.9950e+01	11.9868	47.571589	0.000304	3.040577	1.030176	0.000122
 303	3.0049e+01	12.0221	47.700777	0.000324	3.243283	1.098854	0.000130
 304	3.0148e+01	12.0670	47.846114	0.000365	3.648693	1.236211	0.000146
 305	3.0248e+01	12.1023	47.947043	0.000253	2.533815	0.858480	0.000101
 306	3.0348e+01	12.1424	48.092379	0.000365	3.648693	1.236211	0.000146
 307	3.0447e+01	12.1793	48.193308	0.000253	2.533815	0.858480	0.000101
 308	3.0547e+01	12.2098	48.318459	0.000314	3.141930	1.064515	0.000126
 309	3.0646e+01	12.2547	48.471870	0.000385	3.851398	1.304889	0.000154
 310	3.0745e+01	12.2997	48.584910	0.000284	2.837872	0.961497	0.000114
 311	3.0845e+01	12.3398	48.701987	0.000294	2.939225	0.995836	0.000118
 312	3.0945e+01	12.3751	48.859435	0.000395	3.952751	1.339228	0.000158
 313	3.1044e+01	12.4168	48.944215	0.000213	2.128404	0.721123	0.000085
 314	3.1143e+01	12.4569	49.113775	0.000426	4.256808	1.442246	0.000170
 315	3.1243e+01	12.4890	49.202592	0.000223	2.229757	0.755462	0.000089
 316	3.1343e+01	12.5387	49.360040	0.000395	3.952751	1.339228	0.000158
 317	3.1442e+01	12.5740	49.469043	0.000274	2.736520	0.927158	0.000110
 318	3.1541e+01	12.6269	49.549785	0.000203	2.027052	0.686784	0.000081
 319	3.1641e+01	12.6638	49.711271	0.000405	4.054103	1.373567	0.000162
 320	3.1741e+01	12.6943	49.800088	0.000223	2.229757	0.755462	0.000089
 321	3.1840e+01	12.7392	49.921202	0.000304	3.040577	1.030176	0.000122
 322	3.1939e+01	12.7825	50.066539	0.000365	3.648693	1.236211	0.000146
 323	3.2039e+01	12.8114	50.175542	0.000274	2.736520	0.927158	0.000110
 324	3.2139e+01	12.8563	50.320878	0.000365	3.648693	1.236211	0.000146
 325	3.2238e+01	12.8948	50.437955	0.000294	2.939225	0.995836	0.000118
 326	3.2337e+01	12.9333	50.506587	0.000172	1.722994	0.583766	0.000069
 327	3.2437e+01	12.9718	50.676146	0.000426	4.256808	1.442246	0.000170
 328	3.2536e+01	13.0167	50.801298	0.000314	3.141930	1.064515	0.000126
 329	3.2636e+01	13.0536	50.938560	0.000345	3.445988	1.167532	0.000138
 330	3.2736e+01	13.0970	51.079860	0.000355	3.547340	1.201871	0.000142
 331	3.2835e+01	13.1290	51.184825	0.000264	2.635167	0.892819	0.000105
 332	3.2934e+01	13.1788	51.297865	0.000284	2.837872	0.961497	0.000114
 333	3.3034e+01	13.2173	51.410905	0.000284	2.837872	0.961497	0.000114
 334	3.3133e+01	13.2478	51.560279	0.000375	3.750046	1.270550	0.000150
 335	3.3233e+01	13.2991	51.705616	0.000365	3.648693	1.236211	0.000146
 336	3.3333e+01	13.3312	51.802507	0.000243	2.432462	0.824140	0.000097
 337	3.3432e+01	13.3745	51.915547	0.000284	2.837872	0.961497	0.000114
 338	3.3532e+01	13.4098	52.072995	0.000395	3.952751	1.339228	0.000158
 339	3.3631e+01	13.4547	52.165849	0.000233	2.331109	0.789801	0.000093
 340	3.3730e+01	13.4996	52.295038	0.000324	3.243283	1.098854	0.000130
 341	3.3830e+01	13.5285	52.412115	0.000294	2.939225	0.995836	0.000118
 342	3.3929e+01	13.5702	52.529192	0.000294	2.939225	0.995836	0.000118
 343	3.4029e+01	13.6071	52.710863	0.000456	4.560866	1.545263	0.000183
 344	3.4129e+01	13.6488	52.795643	0.000213	2.128404	0.721123	0.000085
 345	3.4228e+01	13.6969	52.908682	0.000284	2.837872	0.961497	0.000114
 346	3.4328e+01	13.7258	53.025759	0.000294	2.939225	0.995836	0.000118
 347	3.4427e+01	13.7884	53.158985	0.000334	3.344635	1.133193	0.000134
 348	3.4526e+01	13.8205	53.292210	0.000334	3.344635	1.133193	0.000134
 349	3.4626e+01	13.8509	53.397176	0.000264	2.635167	0.892819	0.000105
 350	3.4725e+01	13.8991	53.530401	0.000334	3.344635	1.133193	0.000134
 351	3.4825e+01	13.9376	53.647478	0.000294	2.939225	0.995836	0.000118
 352	3.4925e+01	13.9616	53.760518	0.000284	2.837872	0.961497	0.000114
 353	3.5024e+01	14.0194	53.930078	0.000426	4.256808	1.442246	0.000170
 354	3.5123e+01	14.0531	54.010820	0.000203	2.027052	0.686784	0.000081
 355	3.5223e+01	14.0948	54.144046	0.000334	3.344635	1.133193	0.000134
 356	3.5322e+01	14.1301	54.261123	0.000294	2.939225	0.995836	0.000118
 357	3.5422e+01	14.1750	54.366088	0.000264	2.635167	0.892819	0.000105
 358	3.5522e+01	14.2119	54.471054	0.000264	2.635167	0.892819	0.000105
 359	3.5621e+01	14.2552	54.620428	0.000375	3.750046	1.270550	0.000150
 360	3.5721e+01	14.2905	54.705208	0.000213	2.128404	0.721123	0.000085
 361	3.5820e+01	14.3274	54.870730	0.000416	4.155456	1.407907	0.000166
 362	3.5919e+01	14.3739	54.971659	0.000253	2.533815	0.858480	0.000101
 363	3.6019e+01	14.4060	55.076624	0.000264	2.635167	0.892819	0.000105
 364	3.6118e+01	14.4461	55.185627	0.000274	2.736520	0.927158	0.000110
 365	3.6218e+01	14.4958	55.302704	0.000294	2.939225	0.995836	0.000118
 366	3.6318e+01	14.5263	55.444004	0.000355	3.547340	1.201871	0.000142
 367	3.6417e+01	14.5696	55.593378	0.000375	3.750046	1.270550	0.000150
 368	3.6517e+01	14.6017	55.657972	0.000162	1.621641	0.549427	0.000065
 369	3.6616e+01	14.6434	55.783123	0.000314	3.141930	1.064515	0.000126
 370	3.6715e+01	14.6884	55.908274	0.000314	3.141930	1.064515	0.000126
 371	3.6815e+01	14.7204	56.033425	0.000314	3.141930	1.064515	0.000126
 372	3.6914e+01	14.7638	56.166651	0.000334	3.344635	1.133193	0.000134
 373	3.7014e+01	14.8039	56.271616	0.000264	2.635167	0.892819	0.000105
 374	3.7114e+01	14.8472	56.372545	0.000253	2.533815	0.858480	0.000101
 375	3.7213e+01	14.8793	56.513845	0.000355	3.547340	1.201871	0.000142
 376	3.7313e+01	14.9274	56.614773	0.000253	2.533815	0.858480	0.000101
 377	3.7412e+01	14.9675	56.735887	0.000304	3.040577	1.030176	0.000122
 378	3.7511e+01	15.0108	56.885261	0.000375	3.750046	1.270550	0.000150
 379	3.7611e+01	15.0477	56.953892	0.000172	1.722994	0.583766	0.000069
 380	3.7711e+01	15.0830	57.103266	0.000375	3.750046	1.270550	0.000150
 381	3.7810e+01	15.1183	57.220343	0.000294	2.939225	0.995836	0.000118
 382	3.7910e+01	15.1680	57.313198	0.000233	2.331109	0.789801	0.000093
 383	3.8009e+01	15.2129	57.385866	0.000182	1.824346	0.618105	0.000073
 384	3.8108e+01	15.2402	57.543314	0.000395	3.952751	1.339228	0.000158
 385	3.8208e+01	15.2819	57.688651	0.000365	3.648693	1.236211	0.000146
 386	3.8307e+01	15.3300	57.805728	0.000294	2.939225	0.995836	0.000118
 387	3.8407e+01	15.3814	57.894545	0.000223	2.229757	0.755462	0.000089
 388	3.8507e+01	15.4103	58.035845	0.000355	3.547340	1.201871	0.000142
 389	3.8606e+01	15.4520	58.120625	0.000213	2.128404	0.721123	0.000085
 390	3.8706e+01	15.4873	58.245776	0.000314	3.141930	1.064515	0.000126
 391	3.8805e+01	15.5145	58.411298	0.000416	4.155456	1.407907	0.000166
 392	3.8904e+01	15.5578	58.512227	0.000253	2.533815	0.858480	0.000101
 393	3.9004e+01	15.6076	58.601044	0.000223	2.229757	0.755462	0.000089
 394	3.9103e+01	15.6509	58.738306	0.000345	3.445988	1.167532	0.000138
 395	3.9203e+01	15.6862	58.835198	0.000243	2.432462	0.824140	0.000097
 396	3.9303e+01	15.7247	58.960349	0.000314	3.141930	1.064515	0.000126
 397	3.9402e+01	15.7680	59.073389	0.000284	2.837872	0.961497	0.000114
 398	3.9502e+01	15.7969	59.166243	0.000233	2.331109	0.789801	0.000093
 399	3.9601e+01	15.8354	59.303505	0.000345	3.445988	1.167532	0.000138
 400	3.9700e+01	15.8867	59.428657	0.000314	3.141930	1.064515	0.000126
 401	3.9800e+01	15.9220	59.529585	0.000253	2.533815	0.858480	0.000101
 402	3.9900e+01	15.9525	59.650699	0.000304	3.040577	1.030176	0.000122
 403	3.9999e+01	15.9942	59.751627	0.000253	2.533815	0.858480	0.000101
 404	4.0099e+01	16.0503	59.884853	0.000334	3.344635	1.133193	0.000134
 405	4.0198e+01	16.0905	59.985781	0.000253	2.533815	0.858480	0.000101
 406	4.0297e+01	16.1225	60.070561	0.000213	2.128404	0.721123	0.000085
 407	4.0397e+01	16.1691	60.236084	0.000416	4.155456	1.407907	0.000166
 408	4.0496e+01	16.1995	60.304715	0.000172	1.722994	0.583766	0.000069
 409	4.0596e+01	16.2413	60.401606	0.000243	2.432462	0.824140	0.000097
 410	4.0696e+01	16.2798	60.546943	0.000365	3.648693	1.236211	0.000146
 411	4.0795e+01	16.3215	60.651909	0.000264	2.635167	0.892819	0.000105
 412	4.0895e+01	16.3616	60.760911	0.000274	2.736520	0.927158	0.000110
 413	4.0994e+01	16.4033	60.890100	0.000324	3.243283	1.098854	0.000130
 414	4.1093e+01	16.4466	61.003140	0.000284	2.837872	0.961497	0.000114
 415	4.1193e+01	16.4835	61.095994	0.000233	2.331109	0.789801	0.000093
 416	4.1292e+01	16.5204	61.221145	0.000314	3.141930	1.064515	0.000126
 417	4.1392e+01	16.5669	61.330148	0.000274	2.736520	0.927158	0.000110
 418	4.1492e+01	16.6006	61.414927	0.000213	2.128404	0.721123	0.000085
 419	4.1591e+01	16.6311	61.544116	0.000324	3.243283	1.098854	0.000130
 420	4.1691e+01	16.6904	61.669267	0.000314	3.141930	1.064515	0.000126
 421	4.1790e+01	16.7161	61.774232	0.000264	2.635167	0.892819	0.000105
 422	4.1889e+01	16.7610	61.859012	0.000213	2.128404	0.721123	0.000085
 423	4.1989e+01	16.8059	61.992238	0.000334	3.344635	1.133193	0.000134
 424	4.2089e+01	16.8412	62.097203	0.000264	2.635167	0.892819	0.000105
 425	4.2188e+01	16.8813	62.181983	0.000213	2.128404	0.721123	0.000085
 426	4.2288e+01	16.9166	62.311172	0.000324	3.243283	1.098854	0.000130
 427	4.2387e+01	16.9455	62.436323	0.000314	3.141930	1.064515	0.000126
 428	4.2486e+01	17.0001	62.537251	0.000253	2.533815	0.858480	0.000101
 429	4.2586e+01	17.0386	62.634142	0.000243	2.432462	0.824140	0.000097
 430	4.2685e+01	17.0835	62.718922	0.000213	2.128404	0.721123	0.000085
 431	4.2785e+01	17.1236	62.856185	0.000345	3.445988	1.167532	0.000138
 432	4.2885e+01	17.1637	62.969225	0.000284	2.837872	0.961497	0.000114
 433	4.2984e+01	17.2070	63.094376	0.000314	3.141930	1.064515	0.000126
 434	4.3084e+01	17.2471	63.203379	0.000274	2.736520	0.927158	0.000110
 435	4.3183e+01	17.2744	63.288158	0.000213	2.128404	0.721123	0.000085
 436	4.3282e+01	17.3129	63.421384	0.000334	3.344635	1.133193	0.000134
 437	4.3382e+01	17.3642	63.538461	0.000294	2.939225	0.995836	0.000118
 438	4.3481e+01	17.3995	63.615166	0.000193	1.925699	0.652445	0.000077
 439	4.3581e+01	17.4428	63.752429	0.000345	3.445988	1.167532	0.000138
 440	4.3681e+01	17.4797	63.857395	0.000264	2.635167	0.892819	0.000105
 441	4.3780e+01	17.5262	64.014843	0.000395	3.952751	1.339228	0.000158
 442	4.3880e+01	17.5583	64.039066	0.000061	0.608115	0.206035	0.000024
 443	4.3979e+01	17.6049	64.148068	0.000274	2.736520	0.927158	0.000110
 444	4.4078e+01	17.6305	64.293405	0.000365	3.648693	1.236211	0.000146
 445	4.4178e+01	17.6738	64.386259	0.000233	2.331109	0.789801	0.000093
 446	4.4278e+01	17.7107	64.503336	0.000294	2.939225	0.995836	0.000118
 447	4.4377e+01	17.7556	64.612339	0.000274	2.736520	0.927158	0.000110
 448	4.4477e+01	17.8038	64.693082	0.000203	2.027052	0.686784	0.000081
 449	4.4576e+01	17.8423	64.838419	0.000365	3.648693	1.236211	0.000146
 450	4.4675e+01	17.8712	64.931273	0.000233	2.331109	0.789801	0.000093
 451	4.4775e+01	17.9161	65.007978	0.000193	1.925699	0.652445	0.000077
 452	4.4874e+01	17.9610	65.137167	0.000324	3.243283	1.098854	0.000130
 453	4.4974e+01	17.9915	65.254244	0.000294	2.939225	0.995836	0.000118
 454	4.5074e+01	18.0476	65.379395	0.000314	3.141930	1.064515	0.000126
 455	4.5173e+01	18.0781	65.504546	0.000314	3.141930	1.064515	0.000126
 456	4.5273e+01	18.1294	65.609511	0.000264	2.635167	0.892819	0.000105
 457	4.5372e+01	18.1503	65.682180	0.000182	1.824346	0.618105	0.000073
 458	4.5471e+01	18.1920	65.799257	0.000294	2.939225	0.995836	0.000118
 459	4.5571e+01	18.2385	65.904222	0.000264	2.635167	0.892819	0.000105
 460	4.5670e+01	18.2722	66.033411	0.000324	3.243283	1.098854	0.000130
 461	4.5770e+01	18.3123	66.138376	0.000264	2.635167	0.892819	0.000105
 462	4.5870e+01	18.3572	66.219119	0.000203	2.027052	0.686784	0.000081
 463	4.5969e+01	18.4006	66.372530	0.000385	3.851398	1.304889	0.000154
 464	4.6069e+01	18.4342	66.477496	0.000264	2.635167	0.892819	0.000105
 465	4.6168e+01	18.4792	66.590535	0.000284	2.837872	0.961497	0.000114
 466	4.6267e+01	18.5161	66.659167	0.000172	1.722994	0.583766	0.000069
 467	4.6367e+01	18.5578	66.792392	0.000334	3.344635	1.133193	0.000134
 468	4.6467e+01	18.5947	66.873135	0.000203	2.027052	0.686784	0.000081
 469	4.6566e+01	18.6284	66.994249	0.000304	3.040577	1.030176	0.000122
 470	4.6666e+01	18.6685	67.135549	0.000355	3.547340	1.201871	0.000142
 471	4.6765e+01	18.7182	67.224366	0.000223	2.229757	0.755462	0.000089
 472	4.6864e+01	18.7535	67.337406	0.000284	2.837872	0.961497	0.000114
 473	4.6964e+01	18.7936	67.442371	0.000264	2.635167	0.892819	0.000105
 474	4.7063e+01	18.8369	67.502928	0.000152	1.520289	0.515088	0.000061
 475	4.7163e+01	18.8722	67.688636	0.000466	4.662219	1.579602	0.000187
 476	4.7263e+01	18.9171	67.745156	0.000142	1.418936	0.480749	0.000057
 477	4.7362e+01	18.9508	67.854159	0.000274	2.736520	0.927158	0.000110
 478	4.7462e+01	18.9925	67.975273	0.000304	3.040577	1.030176	0.000122
 479	4.7561e+01	19.0358	68.051979	0.000193	1.925699	0.652445	0.000077
 480	4.7660e+01	19.0679	68.169056	0.000294	2.939225	0.995836	0.000118
 481	4.7760e+01	19.1144	68.302281	0.000334	3.344635	1.133193	0.000134
 482	4.7859e+01	19.1513	68.395135	0.000233	2.331109	0.789801	0.000093
 483	4.7959e+01	19.1962	68.467804	0.000182	1.824346	0.618105	0.000073
 484	4.8059e+01	19.2299	68.605066	0.000345	3.445988	1.167532	0.000138
 485	4.8158e+01	19.2700	68.730217	0.000314	3.141930	1.064515	0.000126
 486	4.8258e+01	19.3198	68.819034	0.000223	2.229757	0.755462	0.000089
 487	4.8357e+01	19.3503	68.915926	0.000243	2.432462	0.824140	0.000097
 488	4.8456e+01	19.3888	69.049151	0.000334	3.344635	1.133193	0.000134
 489	4.8556e+01	19.4337	69.133931	0.000213	2.128404	0.721123	0.000085
 490	4.8656e+01	19.4658	69.246971	0.000284	2.837872	0.961497	0.000114
 491	4.8755e+01	19.5059	69.368085	0.000304	3.040577	1.030176	0.000122
 492	4.8855e+01	19.5572	69.473050	0.000264	2.635167	0.892819	0.000105
 493	4.8954e+01	19.5909	69.614350	0.000355	3.547340	1.201871	0.000142
 494	4.9053e+01	19.6294	69.638573	0.000061	0.608115	0.206035	0.000024
 495	4.9153e+01	19.6679	69.751613	0.000284	2.837872	0.961497	0.000114
 496	4.9252e+01	19.7080	69.848504	0.000243	2.432462	0.824140	0.000097
 497	4.9352e+01	19.7465	70.009989	0.000405	4.054103	1.373567	0.000162
 498	4.9452e+01	19.7914	70.131103	0.000304	3.040577	1.030176	0.000122
 499	4.9551e+01	19.8315	70.252218	0.000304	3.040577	1.030176	0.000122
 500	4.9651e+01	19.8636	70.320849	0.000172	1.722994	0.583766	0.000069
 501	4.9750e+01	19.9085	70.458111	0.000345	3.445988	1.167532	0.000138
 502	4.9849e+01	19.9422	70.546928	0.000223	2.229757	0.755462	0.000089
 503	4.9949e+01	19.9887	70.668043	0.000304	3.040577	1.030176	0.000122
 504	5.0048e+01	19.9438	70.635745	0.000081	0.810821	0.274713	-0.000032
 505	5.0148e+01	19.9085	70.538854	0.000243	2.432462	0.824140	-0.000097
 506	5.0248e+01	19.8636	70.486371	0.000132	1.317584	0.446409	-0.000053
 507	5.0347e+01	19.8299	70.413703	0.000182	1.824346	0.618105	-0.000073
 508	5.0447e+01	19.7882	70.316812	0.000243	2.432462	0.824140	-0.000097
 509	5.0546e+01	19.7561	70.280477	0.000091	0.912173	0.309053	-0.000037
 510	5.0645e+01	19.7048	70.187623	0.000233	2.331109	0.789801	-0.000093
 511	5.0745e+01	19.6743	70.098806	0.000223	2.229757	0.755462	-0.000089
 512	5.0844e+01	19.6310	70.026138	0.000182	1.824346	0.618105	-0.000073
 513	5.0944e+01	19.5781	69.965581	0.000152	1.520289	0.515088	-0.000061
 514	5.1044e+01	19.5476	69.864653	0.000253	2.533815	0.858480	-0.000101
 515	5.1143e+01	19.5187	69.808133	0.000142	1.418936	0.480749	-0.000057
 516	5.1242e+01	19.4658	69.739501	0.000172	1.722994	0.583766	-0.000069
 517	5.1342e+01	19.4224	69.602239	0.000345	3.445988	1.167532	-0.000138
 518	5.1441e+01	19.3952	69.569942	0.000081	0.810821	0.274713	-0.000032
 519	5.1541e+01	19.3438	69.509385	0.000152	1.520289	0.515088	-0.000061
 520	5.1641e+01	19.3150	69.444790	0.000162	1.621641	0.549427	-0.000065
 521	5.1740e+01	19.2652	69.331751	0.000284	2.837872	0.961497	-0.000114
 522	5.1840e+01	19.2380	69.283305	0.000122	1.216231	0.412070	-0.000049
 523	5.1939e+01	19.1850	69.166228	0.000294	2.939225	0.995836	-0.000118
 524	5.2038e+01	19.1433	69.089522	0.000193	1.925699	0.652445	-0.000077
 525	5.2138e+01	19.1048	69.008780	0.000203	2.027052	0.686784	-0.000081
 526	5.2237e+01	19.0759	68.956297	0.000132	1.317584	0.446409	-0.000053
 527	5.2337e+01	19.0374	68.855369	0.000253	2.533815	0.858480	-0.000101
 528	5.2437e+01	18.9925	68.758477	0.000243	2.432462	0.824140	-0.000097
 529	5.2536e+01	18.9524	68.685809	0.000182	1.824346	0.618105	-0.000073
 530	5.2636e+01	18.9171	68.592955	0.000233	2.331109	0.789801	-0.000093
 531	5.2735e+01	18.8722	68.500101	0.000233	2.331109	0.789801	-0.000093
 532	5.2834e+01	18.8353	68.415321	0.000213	2.128404	0.721123	-0.000085
 533	5.2934e+01	18.7984	68.338615	0.000193	1.925699	0.652445	-0.000077
 534	5.3033e+01	18.7519	68.245761	0.000233	2.331109	0.789801	-0.000093
 535	5.3133e+01	18.7182	68.165018	0.000203	2.027052	0.686784	-0.000081
 536	5.3233e+01	18.6797	68.084276	0.000203	2.027052	0.686784	-0.000081
 537	5.3332e+01	18.6219	68.003533	0.000203	2.027052	0.686784	-0.000081
 538	5.3431e+01	18.6027	67.918753	0.000213	2.128404	0.721123	-0.000085
 539	5.3531e+01	18.5513	67.874345	0.000111	1.114878	0.377731	-0.000045
 540	5.3630e+01	18.5128	67.737082	0.000345	3.445988	1.167532	-0.000138
 541	5.3730e+01	18.4792	67.664414	0.000182	1.824346	0.618105	-0.000073
 542	5.3830e+01	18.4342	67.531188	0.000334	3.344635	1.133193	-0.000134
 543	5.3929e+01	18.3909	67.519077	0.000030	0.304058	0.103018	-0.000012
 544	5.4029e+01	18.3540	67.406037	0.000284	2.837872	0.961497	-0.000114
 545	5.4128e+01	18.3171	67.284923	0.000304	3.040577	1.030176	-0.000122
 546	5.4227e+01	18.2722	67.232440	0.000132	1.317584	0.446409	-0.000053
 547	5.4327e+01	18.2369	67.143623	0.000223	2.229757	0.755462	-0.000089
 548	5.4426e+01	18.2000	67.062880	0.000203	2.027052	0.686784	-0.000081
 549	5.4526e+01	18.1551	66.933692	0.000324	3.243283	1.098854	-0.000130
 550	5.4626e+01	18.1150	66.897358	0.000091	0.912173	0.309053	-0.000037
 551	5.4725e+01	18.0765	66.768169	0.000324	3.243283	1.098854	-0.000130
 552	5.4825e+01	18.0412	66.667241	0.000253	2.533815	0.858480	-0.000101
 553	5.4924e+01	17.9979	66.586498	0.000203	2.027052	0.686784	-0.000081
 554	5.5023e+01	17.9578	66.501718	0.000213	2.128404	0.721123	-0.000085
 555	5.5123e+01	17.9113	66.429050	0.000182	1.824346	0.618105	-0.000073
 556	5.5222e+01	17.8744	66.324084	0.000264	2.635167	0.892819	-0.000105
 557	5.5322e+01	17.8327	66.271602	0.000132	1.317584	0.446409	-0.000053
 558	5.5422e+01	17.8054	66.150488	0.000304	3.040577	1.030176	-0.000122
 559	5.5521e+01	17.7573	66.093968	0.000142	1.418936	0.480749	-0.000057
 560	5.5620e+01	17.7220	65.984965	0.000274	2.736520	0.927158	-0.000110
 561	5.5720e+01	17.6722	65.928445	0.000142	1.418936	0.480749	-0.000057
 562	5.5819e+01	17.6385	65.799257	0.000324	3.243283	1.098854	-0.000130
 563	5.5919e+01	17.5920	65.730626	0.000172	1.722994	0.583766	-0.000069
 564	5.6019e+01	17.5583	65.625660	0.000264	2.635167	0.892819	-0.000105
 565	5.6118e+01	17.5182	65.528769	0.000243	2.432462	0.824140	-0.000097
 566	5.6218e+01	17.4781	65.448026	0.000203	2.027052	0.686784	-0.000081
 567	5.6317e+01	17.4348	65.371320	0.000193	1.925699	0.652445	-0.000077
 568	5.6416e+01	17.3963	65.246169	0.000314	3.141930	1.064515	-0.000126
 569	5.6516e+01	17.3546	65.177538	0.000172	1.722994	0.583766	-0.000069
 570	5.6615e+01	17.3145	65.100832	0.000193	1.925699	0.652445	-0.000077
 571	5.6715e+01	17.2744	64.995867	0.000264	2.635167	0.892819	-0.000105
 572	5.6815e+01	17.2423	64.890901	0.000264	2.635167	0.892819	-0.000105
 573	5.6914e+01	17.1942	64.789973	0.000253	2.533815	0.858480	-0.000101
 574	5.7014e+01	17.1685	64.717304	0.000182	1.824346	0.618105	-0.000073
 575	5.7113e+01	17.1220	64.592153	0.000314	3.141930	1.064515	-0.000126
 576	5.7212e+01	17.0787	64.503336	0.000223	2.229757	0.755462	-0.000089
 577	5.7312e+01	17.0370	64.426631	0.000193	1.925699	0.652445	-0.000077
 578	5.7411e+01	17.0049	64.337814	0.000223	2.229757	0.755462	-0.000089
 579	5.7511e+01	16.9535	64.216700	0.000304	3.040577	1.030176	-0.000122
 580	5.7611e+01	16.9134	64.115771	0.000253	2.533815	0.858480	-0.000101
 581	5.7710e+01	16.8846	64.026954	0.000223	2.229757	0.755462	-0.000089
 582	5.7809e+01	16.8412	63.926026	0.000253	2.533815	0.858480	-0.000101
 583	5.7909e+01	16.7995	63.829135	0.000243	2.432462	0.824140	-0.000097
 584	5.8008e+01	16.7498	63.720132	0.000274	2.736520	0.927158	-0.000110
 585	5.8108e+01	16.7161	63.663612	0.000142	1.418936	0.480749	-0.000057
 586	5.8208e+01	16.6808	63.546535	0.000294	2.939225	0.995836	-0.000118
 587	5.8307e+01	16.6391	63.441570	0.000264	2.635167	0.892819	-0.000105
 588	5.8407e+01	16.5942	63.344678	0.000243	2.432462	0.824140	-0.000097
 589	5.8506e+01	16.5541	63.280084	0.000162	1.621641	0.549427	-0.000065
 590	5.8605e+01	16.5284	63.146859	0.000334	3.344635	1.133193	-0.000134
 591	5.8705e+01	16.4771	63.033819	0.000284	2.837872	0.961497	-0.000114
 592	5.8804e+01	16.4450	62.965188	0.000172	1.722994	0.583766	-0.000069
 593	5.8904e+01	16.3985	62.827925	0.000345	3.445988	1.167532	-0.000138
 594	5.9004e+01	16.3584	62.739108	0.000223	2.229757	0.755462	-0.000089
 595	5.9103e+01	16.3167	62.646254	0.000233	2.331109	0.789801	-0.000093
 596	5.9203e+01	16.2846	62.549363	0.000243	2.432462	0.824140	-0.000097
 597	5.9302e+01	16.2477	62.468620	0.000203	2.027052	0.686784	-0.000081
 598	5.9401e+01	16.1963	62.363654	0.000264	2.635167	0.892819	-0.000105
 599	5.9501e+01	16.1578	62.258689	0.000264	2.635167	0.892819	-0.000105
 600	5.9600e+01	16.1193	62.173909	0.000213	2.128404	0.721123	-0.000085
 601	5.9700e+01	16.0840	62.077018	0.000243	2.432462	0.824140	-0.000097
 602	5.9800e+01	16.0391	61.976089	0.000253	2.533815	0.858480	-0.000101
 603	5.9899e+01	16.0022	61.863049	0.000284	2.837872	0.961497	-0.000114
 604	5.9998e+01	15.9653	61.762121	0.000253	2.533815	0.858480	-0.000101
 605	6.0098e+01	15.9172	61.685416	0.000193	1.925699	0.652445	-0.000077
 606	6.0197e+01	15.8867	61.568339	0.000294	2.939225	0.995836	-0.000118
 607	6.0297e+01	15.8498	61.467410	0.000253	2.533815	0.858480	-0.000101
 608	6.0397e+01	15.7937	61.394742	0.000182	1.824346	0.618105	-0.000073
 609	6.0496e+01	15.7664	61.273628	0.000304	3.040577	1.030176	-0.000122
 610	6.0596e+01	15.7247	61.176736	0.000243	2.432462	0.824140	-0.000097
 611	6.0695e+01	15.6814	61.043511	0.000334	3.344635	1.133193	-0.000134
 612	6.0794e+01	15.6509	60.950657	0.000233	2.331109	0.789801	-0.000093
 613	6.0894e+01	15.6012	60.873951	0.000193	1.925699	0.652445	-0.000077
 614	6.0993e+01	15.5675	60.793209	0.000203	2.027052	0.686784	-0.000081
 615	6.1093e+01	15.5290	60.680169	0.000284	2.837872	0.961497	-0.000114
 616	6.1193e+01	15.4937	60.567129	0.000284	2.837872	0.961497	-0.000114
 617	6.1292e+01	15.4439	60.502535	0.000162	1.621641	0.549427	-0.000065
 618	6.1392e+01	15.4022	60.345086	0.000395	3.952751	1.339228	-0.000158
 619	6.1491e+01	15.3637	60.268381	0.000193	1.925699	0.652445	-0.000077
 620	6.1590e+01	15.3397	60.175527	0.000233	2.331109	0.789801	-0.000093
 621	6.1690e+01	15.2755	60.074598	0.000253	2.533815	0.858480	-0.000101
 622	6.1789e+01	15.2418	59.957521	0.000294	2.939225	0.995836	-0.000118
 623	6.1889e+01	15.2049	59.872742	0.000213	2.128404	0.721123	-0.000085
 624	6.1989e+01	15.1680	59.759702	0.000284	2.837872	0.961497	-0.000114
 625	6.2088e+01	15.1343	59.646662	0.000284	2.837872	0.961497	-0.000114
 626	6.2188e+01	15.0862	59.618402	0.000071	0.709468	0.240374	-0.000028
 627	6.2287e+01	15.0461	59.464991	0.000385	3.851398	1.304889	-0.000154
 628	6.2386e+01	14.9980	59.392322	0.000182	1.824346	0.618105	-0.000073
 629	6.2486e+01	14.9579	59.259097	0.000334	3.344635	1.133193	-0.000134
 630	6.2586e+01	14.9210	59.125871	0.000334	3.344635	1.133193	-0.000134
 631	6.2685e+01	14.8905	59.073389	0.000132	1.317584	0.446409	-0.000053
 632	6.2785e+01	14.8440	58.956312	0.000294	2.939225	0.995836	-0.000118
 633	6.2884e+01	14.8135	58.851346	0.000264	2.635167	0.892819	-0.000105
 634	6.2983e+01	14.7702	58.750418	0.000253	2.533815	0.858480	-0.000101
 635	6.3083e+01	14.7317	58.653527	0.000243	2.432462	0.824140	-0.000097
 636	6.3182e+01	14.6723	58.572784	0.000203	2.027052	0.686784	-0.000081
 637	6.3282e+01	14.6466	58.451670	0.000304	3.040577	1.030176	-0.000122
 638	6.3382e+01	14.6114	58.326519	0.000314	3.141930	1.064515	-0.000126
 639	6.3481e+01	14.5664	58.257887	0.000172	1.722994	0.583766	-0.000069
 640	6.3581e+01	14.5295	58.116588	0.000355	3.547340	1.201871	-0.000142
 641	6.3680e+01	14.4942	58.019696	0.000243	2.432462	0.824140	-0.000097
 642	6.3779e+01	14.4493	57.942991	0.000193	1.925699	0.652445	-0.000077
 643	6.3879e+01	14.4140	57.793617	0.000375	3.750046	1.270550	-0.000150
 644	6.3978e+01	14.3643	57.700763	0.000233	2.331109	0.789801	-0.000093
 645	6.4078e+01	14.3226	57.611946	0.000223	2.229757	0.755462	-0.000089
 646	6.4177e+01	14.2809	57.551389	0.000152	1.520289	0.515088	-0.000061
 647	6.4277e+01	14.2504	57.397977	0.000385	3.851398	1.304889	-0.000154
 648	6.4376e+01	14.2135	57.272826	0.000314	3.141930	1.064515	-0.000126
 649	6.4476e+01	14.1734	57.163823	0.000274	2.736520	0.927158	-0.000110
 650	6.4576e+01	14.1237	57.095192	0.000172	1.722994	0.583766	-0.000069
 651	6.4675e+01	14.0868	56.953892	0.000355	3.547340	1.201871	-0.000142
 652	6.4775e+01	14.0435	56.893335	0.000152	1.520289	0.515088	-0.000061
 653	6.4874e+01	14.0066	56.780296	0.000284	2.837872	0.961497	-0.000114
 654	6.4974e+01	13.9729	56.671293	0.000274	2.736520	0.927158	-0.000110
 655	6.5073e+01	13.9344	56.538067	0.000334	3.344635	1.133193	-0.000134
 656	6.5172e+01	13.8911	56.441176	0.000243	2.432462	0.824140	-0.000097
 657	6.5272e+01	13.8526	56.360433	0.000203	2.027052	0.686784	-0.000081
 658	6.5371e+01	13.8157	56.239319	0.000304	3.040577	1.030176	-0.000122
 659	6.5471e+01	13.7755	56.138391	0.000253	2.533815	0.858480	-0.000101
 660	6.5570e+01	13.7242	56.029388	0.000274	2.736520	0.927158	-0.000110
 661	6.5670e+01	13.6953	55.932497	0.000243	2.432462	0.824140	-0.000097
 662	6.5769e+01	13.6504	55.847717	0.000213	2.128404	0.721123	-0.000085
 663	6.5869e+01	13.6167	55.718529	0.000324	3.243283	1.098854	-0.000130
 664	6.5969e+01	13.5670	55.605489	0.000284	2.837872	0.961497	-0.000114
 665	6.6068e+01	13.5301	55.520709	0.000213	2.128404	0.721123	-0.000085
 666	6.6168e+01	13.4980	55.399595	0.000304	3.040577	1.030176	-0.000122
 667	6.6267e+01	13.4547	55.318852	0.000203	2.027052	0.686784	-0.000081
 668	6.6367e+01	13.4082	55.181590	0.000345	3.445988	1.167532	-0.000138
 669	6.6466e+01	13.3793	55.108921	0.000182	1.824346	0.618105	-0.000073
 670	6.6566e+01	13.3215	54.983770	0.000314	3.141930	1.064515	-0.000126
 671	6.6665e+01	13.2927	54.898990	0.000213	2.128404	0.721123	-0.000085
 672	6.6764e+01	13.2494	54.749616	0.000375	3.750046	1.270550	-0.000150
 673	6.6864e+01	13.2141	54.660799	0.000223	2.229757	0.755462	-0.000089
 674	6.6963e+01	13.1675	54.543722	0.000294	2.939225	0.995836	-0.000118
 675	6.7063e+01	13.1274	54.471054	0.000182	1.824346	0.618105	-0.000073
 676	6.7162e+01	13.0889	54.362051	0.000274	2.736520	0.927158	-0.000110
 677	6.7262e+01	13.0520	54.273234	0.000223	2.229757	0.755462	-0.000089
 678	6.7362e+01	13.0183	54.135972	0.000345	3.445988	1.167532	-0.000138
 679	6.7461e+01	12.9670	54.031006	0.000264	2.635167	0.892819	-0.000105
 680	6.7561e+01	12.9301	53.942189	0.000223	2.229757	0.755462	-0.000089
 681	6.7660e+01	12.8932	53.837224	0.000264	2.635167	0.892819	-0.000105
 682	6.7760e+01	12.8547	53.744370	0.000233	2.331109	0.789801	-0.000093
 683	6.7859e+01	12.8146	53.607107	0.000345	3.445988	1.167532	-0.000138
 684	6.7959e+01	12.7857	53.546550	0.000152	1.520289	0.515088	-0.000061
 685	6.8058e+01	12.7312	53.397176	0.000375	3.750046	1.270550	-0.000150
 686	6.8157e+01	12.7023	53.320470	0.000193	1.925699	0.652445	-0.000077
 687	6.8257e+01	12.6558	53.187245	0.000334	3.344635	1.133193	-0.000134
 688	6.8356e+01	12.6109	53.078242	0.000274	2.736520	0.927158	-0.000110
 689	6.8456e+01	12.5788	52.973277	0.000264	2.635167	0.892819	-0.000105
 690	6.8555e+01	12.5419	52.864274	0.000274	2.736520	0.927158	-0.000110
 691	6.8655e+01	12.5002	52.771420	0.000233	2.331109	0.789801	-0.000093
 692	6.8754e+01	12.4537	52.630120	0.000355	3.547340	1.201871	-0.000142
 693	6.8854e+01	12.4248	52.533229	0.000243	2.432462	0.824140	-0.000097
 694	6.8954e+01	12.3718	52.436338	0.000243	2.432462	0.824140	-0.000097
 695	6.9053e+01	12.3446	52.319261	0.000294	2.939225	0.995836	-0.000118
 696	6.9153e+01	12.2964	52.230444	0.000223	2.229757	0.755462	-0.000089
 697	6.9252e+01	12.2579	52.081070	0.000375	3.750046	1.270550	-0.000150
 698	6.9352e+01	12.2275	52.016475	0.000162	1.621641	0.549427	-0.000065
 699	6.9451e+01	12.1793	51.879213	0.000345	3.445988	1.167532	-0.000138
 700	6.9550e+01	12.1408	51.770210	0.000274	2.736520	0.927158	-0.000110
 701	6.9650e+01	12.1023	51.653133	0.000294	2.939225	0.995836	-0.000118
 702	6.9749e+01	12.0574	51.548168	0.000264	2.635167	0.892819	-0.000105
 703	6.9849e+01	12.0285	51.435128	0.000284	2.837872	0.961497	-0.000114
 704	6.9948e+01	11.9788	51.334199	0.000253	2.533815	0.858480	-0.000101
 705	7.0048e+01	11.9387	51.225197	0.000274	2.736520	0.927158	-0.000110
 706	7.0147e+01	11.8986	51.116194	0.000274	2.736520	0.927158	-0.000110
 707	7.0247e+01	11.8713	50.974894	0.000355	3.547340	1.201871	-0.000142
 708	7.0347e+01	11.8216	50.849743	0.000314	3.141930	1.064515	-0.000126
 709	7.0446e+01	11.7879	50.764963	0.000213	2.128404	0.721123	-0.000085
 710	7.0546e+01	11.7366	50.668072	0.000243	2.432462	0.824140	-0.000097
 711	7.0645e+01	11.7093	50.534847	0.000334	3.344635	1.133193	-0.000134
 712	7.0745e+01	11.6580	50.417770	0.000294	2.939225	0.995836	-0.000118
 713	7.0844e+01	11.6211	50.296656	0.000304	3.040577	1.030176	-0.000122
 714	7.0944e+01	11.5810	50.195727	0.000253	2.533815	0.858480	-0.000101
 715	7.1043e+01	11.5505	50.046353	0.000375	3.750046	1.270550	-0.000150
 716	7.1142e+01	11.5007	49.965610	0.000203	2.027052	0.686784	-0.000081
 717	7.1242e+01	11.4687	49.836422	0.000324	3.243283	1.098854	-0.000130
 718	7.1341e+01	11.4270	49.755679	0.000203	2.027052	0.686784	-0.000081
 719	7.1441e+01	11.3868	49.626491	0.000324	3.243283	1.098854	-0.000130
 720	7.1540e+01	11.3387	49.525563	0.000253	2.533815	0.858480	-0.000101
 721	7.1640e+01	11.3098	49.400411	0.000314	3.141930	1.064515	-0.000126
 722	7.1740e+01	11.2665	49.283335	0.000294	2.939225	0.995836	-0.000118
 723	7.1839e+01	11.2280	49.182406	0.000253	2.533815	0.858480	-0.000101
 724	7.1939e+01	11.1847	49.045144	0.000345	3.445988	1.167532	-0.000138
 725	7.2038e+01	11.1350	48.960364	0.000213	2.128404	0.721123	-0.000085
 726	7.2138e+01	11.1029	48.839250	0.000304	3.040577	1.030176	-0.000122
 727	7.2237e+01	11.0644	48.734284	0.000264	2.635167	0.892819	-0.000105
 728	7.2337e+01	11.0195	48.617207	0.000294	2.939225	0.995836	-0.000118
 729	7.2436e+01	10.9890	48.475907	0.000355	3.547340	1.201871	-0.000142
 730	7.2535e+01	10.9425	48.366905	0.000274	2.736520	0.927158	-0.000110
 731	7.2635e+01	10.9056	48.278088	0.000223	2.229757	0.755462	-0.000089
 732	7.2734e+01	10.8767	48.128714	0.000375	3.750046	1.270550	-0.000150
 733	7.2834e+01	10.8189	48.052008	0.000193	1.925699	0.652445	-0.000077
 734	7.2933e+01	10.7837	47.894560	0.000395	3.952751	1.339228	-0.000158
 735	7.3033e+01	10.7419	47.797669	0.000243	2.432462	0.824140	-0.000097
 736	7.3132e+01	10.6970	47.688666	0.000274	2.736520	0.927158	-0.000110
 737	7.3232e+01	10.6649	47.575626	0.000284	2.837872	0.961497	-0.000114
 738	7.3332e+01	10.6280	47.438363	0.000345	3.445988	1.167532	-0.000138
 739	7.3431e+01	10.5767	47.369732	0.000172	1.722994	0.583766	-0.000069
 740	7.3531e+01	10.5414	47.240544	0.000324	3.243283	1.098854	-0.000130
 741	7.3630e+01	10.5077	47.103281	0.000345	3.445988	1.167532	-0.000138
 742	7.3730e+01	10.4676	47.002353	0.000253	2.533815	0.858480	-0.000101
 743	7.3829e+01	10.4211	46.865090	0.000345	3.445988	1.167532	-0.000138
 744	7.3928e+01	10.3874	46.760125	0.000264	2.635167	0.892819	-0.000105
 745	7.4028e+01	10.3393	46.639011	0.000304	3.040577	1.030176	-0.000122
 746	7.4127e+01	10.3056	46.501748	0.000345	3.445988	1.167532	-0.000138
 747	7.4227e+01	10.2687	46.400820	0.000253	2.533815	0.858480	-0.000101
 748	7.4326e+01	10.2254	46.243371	0.000395	3.952751	1.339228	-0.000158
 749	7.4426e+01	10.1773	46.106109	0.000345	3.445988	1.167532	-0.000138
 750	7.4525e+01	10.1404	46.001143	0.000264	2.635167	0.892819	-0.000105
 751	7.4625e+01	10.1067	45.884066	0.000294	2.939225	0.995836	-0.000118
 752	7.4725e+01	10.0601	45.775064	0.000274	2.736520	0.927158	-0.000110
 753	7.4824e+01	10.0265	45.653949	0.000304	3.040577	1.030176	-0.000122
 754	7.4924e+01	9.9831	45.504575	0.000375	3.750046	1.270550	-0.000150
 755	7.5023e+01	9.9446	45.411721	0.000233	2.331109	0.789801	-0.000093
 756	7.5123e+01	9.9126	45.290607	0.000304	3.040577	1.030176	-0.000122
 757	7.5222e+01	9.8596	45.153345	0.000345	3.445988	1.167532	-0.000138
 758	7.5322e+01	9.8259	45.040305	0.000284	2.837872	0.961497	-0.000114
 759	7.5421e+01	9.7938	44.911117	0.000324	3.243283	1.098854	-0.000130
 760	7.5520e+01	9.7457	44.777891	0.000334	3.344635	1.133193	-0.000134
 761	7.5620e+01	9.7088	44.676963	0.000253	2.533815	0.858480	-0.000101
 762	7.5719e+01	9.6655	44.555849	0.000304	3.040577	1.030176	-0.000122
 763	7.5819e+01	9.6334	44.430697	0.000314	3.141930	1.064515	-0.000126
 764	7.5918e+01	9.5821	44.273249	0.000395	3.952751	1.339228	-0.000158
 765	7.6018e+01	9.5468	44.164246	0.000274	2.736520	0.927158	-0.000110
 766	7.6118e+01	9.5083	44.059281	0.000264	2.635167	0.892819	-0.000105
 767	7.6217e+01	9.4826	43.901833	0.000395	3.952751	1.339228	-0.000158
 768	7.6317e+01	9.4393	43.788793	0.000284	2.837872	0.961497	-0.000114
 769	7.6416e+01	9.3864	43.667679	0.000304	3.040577	1.030176	-0.000122
 770	7.6516e+01	9.3495	43.502156	0.000416	4.155456	1.407907	-0.000166
 771	7.6615e+01	9.3046	43.409302	0.000233	2.331109	0.789801	-0.000093
 772	7.6715e+01	9.2580	43.280114	0.000324	3.243283	1.098854	-0.000130
 773	7.6814e+01	9.2340	43.163037	0.000294	2.939225	0.995836	-0.000118
 774	7.6913e+01	9.1874	43.033848	0.000324	3.243283	1.098854	-0.000130
 775	7.7013e+01	9.1457	42.940994	0.000233	2.331109	0.789801	-0.000093
 776	7.7112e+01	9.1201	42.795657	0.000365	3.648693	1.236211	-0.000146
 777	7.7212e+01	9.0655	42.662432	0.000334	3.344635	1.133193	-0.000134
 778	7.7311e+01	9.0334	42.525169	0.000345	3.445988	1.167532	-0.000138
 779	7.7411e+01	8.9933	42.408092	0.000294	2.939225	0.995836	-0.000118
 780	7.7510e+01	8.9532	42.295053	0.000284	2.837872	0.961497	-0.000114
 781	7.7610e+01	8.9163	42.153753	0.000355	3.547340	1.201871	-0.000142
 782	7.7710e+01	8.8682	42.032639	0.000304	3.040577	1.030176	-0.000122
 783	7.7809e+01	8.8313	41.939785	0.000233	2.331109	0.789801	-0.000093
 784	7.7909e+01	8.7816	41.774262	0.000416	4.155456	1.407907	-0.000166
 785	7.8008e+01	8.7543	41.653148	0.000304	3.040577	1.030176	-0.000122
 786	7.8108e+01	8.7190	41.527997	0.000314	3.141930	1.064515	-0.000126
 787	7.8207e+01	8.6677	41.394771	0.000334	3.344635	1.133193	-0.000134
 788	7.8306e+01	8.6340	41.293843	0.000253	2.533815	0.858480	-0.000101
 789	7.8406e+01	8.5826	41.164655	0.000324	3.243283	1.098854	-0.000130
 790	7.8505e+01	8.5554	41.015281	0.000375	3.750046	1.270550	-0.000150
 791	7.8605e+01	8.5121	40.918389	0.000243	2.432462	0.824140	-0.000097
 792	7.8704e+01	8.4800	40.744792	0.000436	4.358161	1.476585	-0.000174
 793	7.8804e+01	8.4318	40.635790	0.000274	2.736520	0.927158	-0.000110
 794	7.8903e+01	8.3966	40.522750	0.000284	2.837872	0.961497	-0.000114
 795	7.9003e+01	8.3532	40.409710	0.000284	2.837872	0.961497	-0.000114
 796	7.9103e+01	8.3179	40.260336	0.000375	3.750046	1.270550	-0.000150
 797	7.9202e+01	8.2730	40.127111	0.000334	3.344635	1.133193	-0.000134
 798	7.9302e+01	8.2345	39.985811	0.000355	3.547340	1.201871	-0.000142
 799	7.9401e+01	8.1912	39.844511	0.000355	3.547340	1.201871	-0.000142
 800	7.9501e+01	8.1527	39.735509	0.000274	2.736520	0.927158	-0.000110
 801	7.9600e+01	8.0998	39.598246	0.000345	3.445988	1.167532	-0.000138
 802	7.9700e+01	8.0725	39.489243	0.000274	2.736520	0.927158	-0.000110
 803	7.9799e+01	8.0308	39.364092	0.000314	3.141930	1.064515	-0.000126
 804	7.9898e+01	7.9907	39.214718	0.000375	3.750046	1.270550	-0.000150
 805	7.9998e+01	7.9570	39.085530	0.000324	3.243283	1.098854	-0.000130
 806	8.0097e+01	7.9201	38.936156	0.000375	3.750046	1.270550	-0.000150
 807	8.0197e+01	7.8720	38.819079	0.000294	2.939225	0.995836	-0.000118
 808	8.0296e+01	7.8367	38.706039	0.000284	2.837872	0.961497	-0.000114
 809	8.0396e+01	7.7886	38.564739	0.000355	3.547340	1.201871	-0.000142
 810	8.0496e+01	7.7581	38.407291	0.000395	3.952751	1.339228	-0.000158
 811	8.0595e+01	7.7164	38.330585	0.000193	1.925699	0.652445	-0.000077
 812	8.0695e+01	7.6730	38.181211	0.000375	3.750046	1.270550	-0.000150
 813	8.0794e+01	7.6345	38.039911	0.000355	3.547340	1.201871	-0.000142
 814	8.0894e+01	7.5896	37.866315	0.000436	4.358161	1.476585	-0.000174
 815	8.0993e+01	7.5624	37.773461	0.000233	2.331109	0.789801	-0.000093
 816	8.1093e+01	7.5174	37.599864	0.000436	4.358161	1.476585	-0.000174
 817	8.1192e+01	7.4821	37.490861	0.000274	2.736520	0.927158	-0.000110
 818	8.1291e+01	7.4228	37.373784	0.000294	2.939225	0.995836	-0.000118
 819	8.1391e+01	7.3971	37.220373	0.000385	3.851398	1.304889	-0.000154
 820	8.1490e+01	7.3522	37.087147	0.000334	3.344635	1.133193	-0.000134
 821	8.1590e+01	7.3153	36.966033	0.000304	3.040577	1.030176	-0.000122
 822	8.1689e+01	7.2800	36.848956	0.000294	2.939225	0.995836	-0.000118
 823	8.1789e+01	7.2431	36.703620	0.000365	3.648693	1.236211	-0.000146
 824	8.1888e+01	7.1918	36.558283	0.000365	3.648693	1.236211	-0.000146
 825	8.1988e+01	7.1517	36.445243	0.000284	2.837872	0.961497	-0.000114
 826	8.2088e+01	7.1180	36.324129	0.000304	3.040577	1.030176	-0.000122
 827	8.2187e+01	7.0731	36.114198	0.000527	5.270334	1.785638	-0.000211
 828	8.2287e+01	7.0297	36.005195	0.000274	2.736520	0.927158	-0.000110
 829	8.2386e+01	6.9961	35.900230	0.000264	2.635167	0.892819	-0.000105
 830	8.2486e+01	6.9576	35.791227	0.000274	2.736520	0.927158	-0.000110
 831	8.2585e+01	6.9207	35.613593	0.000446	4.459514	1.510924	-0.000179
 832	8.2684e+01	6.8838	35.468256	0.000365	3.648693	1.236211	-0.000146
 833	8.2784e+01	6.8324	35.335031	0.000334	3.344635	1.133193	-0.000134
 834	8.2883e+01	6.8019	35.250251	0.000213	2.128404	0.721123	-0.000085
 835	8.2983e+01	6.7522	35.100877	0.000375	3.750046	1.270550	-0.000150
 836	8.3082e+01	6.7169	34.975725	0.000314	3.141930	1.064515	-0.000126
 837	8.3182e+01	6.6752	34.842500	0.000334	3.344635	1.133193	-0.000134
 838	8.3281e+01	6.6399	34.725423	0.000294	2.939225	0.995836	-0.000118
 839	8.3381e+01	6.5998	34.576049	0.000375	3.750046	1.270550	-0.000150
 840	8.3481e+01	6.5629	34.471083	0.000264	2.635167	0.892819	-0.000105
 841	8.3580e+01	6.5260	34.293450	0.000446	4.459514	1.510924	-0.000179
 842	8.3680e+01	6.4715	34.168298	0.000314	3.141930	1.064515	-0.000126
 843	8.3779e+01	6.4490	34.035073	0.000334	3.344635	1.133193	-0.000134
 844	8.3879e+01	6.4009	33.917996	0.000294	2.939225	0.995836	-0.000118
 845	8.3978e+01	6.3656	33.760548	0.000395	3.952751	1.339228	-0.000158
 846	8.4078e+01	6.3207	33.647508	0.000284	2.837872	0.961497	-0.000114
 847	8.4177e+01	6.2838	33.494097	0.000385	3.851398	1.304889	-0.000154
 848	8.4276e+01	6.2437	33.421428	0.000182	1.824346	0.618105	-0.000073
 849	8.4376e+01	6.1988	33.259943	0.000405	4.054103	1.373567	-0.000162
 850	8.4475e+01	6.1570	33.062123	0.000497	4.966277	1.682620	-0.000199
 851	8.4575e+01	6.1314	32.969269	0.000233	2.331109	0.789801	-0.000093
 852	8.4674e+01	6.0784	32.791635	0.000446	4.459514	1.510924	-0.000179
 853	8.4774e+01	6.0367	32.658410	0.000334	3.344635	1.133193	-0.000134
 854	8.4874e+01	6.0030	32.557481	0.000253	2.533815	0.858480	-0.000101
 855	8.4973e+01	5.9645	32.395996	0.000405	4.054103	1.373567	-0.000162
 856	8.5073e+01	5.9212	32.258733	0.000345	3.445988	1.167532	-0.000138
 857	8.5172e+01	5.8859	32.101285	0.000395	3.952751	1.339228	-0.000158
 858	8.5272e+01	5.8394	31.996319	0.000264	2.635167	0.892819	-0.000105
 859	8.5371e+01	5.8105	31.875205	0.000304	3.040577	1.030176	-0.000122
 860	8.5471e+01	5.7640	31.717757	0.000395	3.952751	1.339228	-0.000158
 861	8.5570e+01	5.7319	31.552234	0.000416	4.155456	1.407907	-0.000166
 862	8.5669e+01	5.6902	31.423046	0.000324	3.243283	1.098854	-0.000130
 863	8.5769e+01	5.6485	31.301932	0.000304	3.040577	1.030176	-0.000122
 864	8.5868e+01	5.6084	31.128335	0.000436	4.358161	1.476585	-0.000174
 865	8.5968e+01	5.5571	31.019332	0.000274	2.736520	0.927158	-0.000110
 866	8.6067e+01	5.5234	30.869958	0.000375	3.750046	1.270550	-0.000150
 867	8.6167e+01	5.4913	30.732696	0.000345	3.445988	1.167532	-0.000138
 868	8.6266e+01	5.4496	30.555062	0.000446	4.459514	1.510924	-0.000179
 869	8.6366e+01	5.4095	30.454133	0.000253	2.533815	0.858480	-0.000101
 870	8.6466e+01	5.3597	30.308797	0.000365	3.648693	1.236211	-0.000146
 871	8.6565e+01	5.3261	30.155385	0.000385	3.851398	1.304889	-0.000154
 872	8.6665e+01	5.2892	30.026197	0.000324	3.243283	1.098854	-0.000130
 873	8.6764e+01	5.2539	29.876823	0.000375	3.750046	1.270550	-0.000150
 874	8.6864e+01	5.2057	29.743598	0.000334	3.344635	1.133193	-0.000134
 875	8.6963e+01	5.1801	29.602298	0.000355	3.547340	1.201871	-0.000142
 876	8.7063e+01	5.1368	29.473109	0.000324	3.243283	1.098854	-0.000130
 877	8.7162e+01	5.0838	29.279327	0.000486	4.864924	1.648281	-0.000195
 878	8.7261e+01	5.0485	29.125916	0.000385	3.851398	1.304889	-0.000154
 879	8.7361e+01	5.0052	29.020950	0.000264	2.635167	0.892819	-0.000105
 880	8.7460e+01	4.9603	28.859465	0.000405	4.054103	1.373567	-0.000162
 881	8.7560e+01	4.9298	28.710091	0.000375	3.750046	1.270550	-0.000150
 882	8.7659e+01	4.8961	28.544568	0.000416	4.155456	1.407907	-0.000166
 883	8.7759e+01	4.8448	28.427491	0.000294	2.939225	0.995836	-0.000118
 884	8.7859e+01	4.8095	28.302340	0.000314	3.141930	1.064515	-0.000126
 885	8.7958e+01	4.7614	28.128743	0.000436	4.358161	1.476585	-0.000174
 886	8.8058e+01	4.7197	27.991481	0.000345	3.445988	1.167532	-0.000138
 887	8.8157e+01	4.6892	27.858255	0.000334	3.344635	1.133193	-0.000134
 888	8.8257e+01	4.6555	27.733104	0.000314	3.141930	1.064515	-0.000126
 889	8.8356e+01	4.5945	27.559507	0.000436	4.358161	1.476585	-0.000174
 890	8.8456e+01	4.5753	27.434356	0.000314	3.141930	1.064515	-0.000126
 891	8.8555e+01	4.5336	27.272870	0.000405	4.054103	1.373567	-0.000162
 892	8.8654e+01	4.4919	27.115422	0.000395	3.952751	1.339228	-0.000158
 893	8.8754e+01	4.4485	26.986234	0.000324	3.243283	1.098854	-0.000130
 894	8.8853e+01	4.4084	26.844934	0.000355	3.547340	1.201871	-0.000142
 895	8.8953e+01	4.3667	26.719783	0.000314	3.141930	1.064515	-0.000126
 896	8.9052e+01	4.3314	26.538112	0.000456	4.560866	1.545263	-0.000183
 897	8.9152e+01	4.2785	26.368552	0.000426	4.256808	1.442246	-0.000170
 898	8.9251e+01	4.2576	26.243401	0.000314	3.141930	1.064515	-0.000126
 899	8.9351e+01	4.2079	26.106138	0.000345	3.445988	1.167532	-0.000138
 900	8.9451e+01	4.1694	25.952727	0.000385	3.851398	1.304889	-0.000154
 901	8.9550e+01	4.1277	25.787205	0.000416	4.155456	1.407907	-0.000166
 902	8.9650e+01	4.0876	25.653979	0.000334	3.344635	1.133193	-0.000134
 903	8.9749e+01	4.0523	25.528828	0.000314	3.141930	1.064515	-0.000126
 904	8.9849e+01	4.0122	25.367342	0.000405	4.054103	1.373567	-0.000162
 905	8.9948e+01	3.9721	25.226043	0.000355	3.547340	1.201871	-0.000142
 906	9.0047e+01	3.9288	25.064557	0.000405	4.054103	1.373567	-0.000162
 907	9.0147e+01	3.8983	24.894998	0.000426	4.256808	1.442246	-0.000170
 908	9.0246e+01	3.8566	24.790032	0.000264	2.635167	0.892819	-0.000105
 909	9.0346e+01	3.8117	24.640658	0.000375	3.750046	1.270550	-0.000150
 910	9.0445e+01	3.7748	24.467061	0.000436	4.358161	1.476585	-0.000174
 911	9.0545e+01	3.7138	24.309613	0.000395	3.952751	1.339228	-0.000158
 912	9.0644e+01	3.6978	24.140053	0.000426	4.256808	1.442246	-0.000170
 913	9.0744e+01	3.6544	24.010865	0.000324	3.243283	1.098854	-0.000130
 914	9.0844e+01	3.6079	23.841305	0.000426	4.256808	1.442246	-0.000170
 915	9.0943e+01	3.5710	23.695968	0.000365	3.648693	1.236211	-0.000146
 916	9.1043e+01	3.5309	23.566780	0.000324	3.243283	1.098854	-0.000130
 917	9.1142e+01	3.4908	23.413369	0.000385	3.851398	1.304889	-0.000154
 918	9.1242e+01	3.4491	23.219586	0.000486	4.864924	1.648281	-0.000195
 919	9.1341e+01	3.4186	23.086361	0.000334	3.344635	1.133193	-0.000134
 920	9.1441e+01	3.3817	22.932950	0.000385	3.851398	1.304889	-0.000154
 921	9.1540e+01	3.3288	22.763390	0.000426	4.256808	1.442246	-0.000170
 922	9.1639e+01	3.2951	22.609979	0.000385	3.851398	1.304889	-0.000154
 923	9.1739e+01	3.2534	22.480790	0.000324	3.243283	1.098854	-0.000130
 924	9.1838e+01	3.2213	22.295082	0.000466	4.662219	1.579602	-0.000187
 925	9.1938e+01	3.1780	22.165894	0.000324	3.243283	1.098854	-0.000130
 926	9.2037e+01	3.1299	21.951926	0.000537	5.371687	1.819977	-0.000215
 927	9.2137e+01	3.0930	21.838886	0.000284	2.837872	0.961497	-0.000114
 928	9.2237e+01	3.0545	21.689512	0.000375	3.750046	1.270550	-0.000150
 929	9.2336e+01	3.0063	21.507841	0.000456	4.560866	1.545263	-0.000183
 930	9.2436e+01	2.9823	21.346355	0.000405	4.054103	1.373567	-0.000162
 931	9.2535e+01	2.9406	21.172758	0.000436	4.358161	1.476585	-0.000174
 932	9.2635e+01	2.8924	21.051644	0.000304	3.040577	1.030176	-0.000122
 933	9.2734e+01	2.8475	20.894196	0.000395	3.952751	1.339228	-0.000158
 934	9.2834e+01	2.8122	20.720599	0.000436	4.358161	1.476585	-0.000174
 935	9.2933e+01	2.7785	20.579299	0.000355	3.547340	1.201871	-0.000142
 936	9.3032e+01	2.7400	20.425888	0.000385	3.851398	1.304889	-0.000154
 937	9.3132e+01	2.6887	20.284589	0.000355	3.547340	1.201871	-0.000142
 938	9.3231e+01	2.6518	20.098880	0.000466	4.662219	1.579602	-0.000187
 939	9.3331e+01	2.6165	19.949506	0.000375	3.750046	1.270550	-0.000150
 940	9.3430e+01	2.5796	19.763798	0.000466	4.662219	1.579602	-0.000187
 941	9.3530e+01	2.5411	19.638647	0.000314	3.141930	1.064515	-0.000126
 942	9.3629e+01	2.4994	19.469087	0.000426	4.256808	1.442246	-0.000170
 943	9.3729e+01	2.4529	19.331824	0.000345	3.445988	1.167532	-0.000138
 944	9.3829e+01	2.4160	19.178413	0.000385	3.851398	1.304889	-0.000154
 945	9.3928e+01	2.3759	18.996742	0.000456	4.560866	1.545263	-0.000183
 946	9.4028e+01	2.3277	18.855442	0.000355	3.547340	1.201871	-0.000142
 947	9.4127e+01	2.2989	18.661660	0.000486	4.864924	1.648281	-0.000195
 948	9.4227e+01	2.2620	18.536509	0.000314	3.141930	1.064515	-0.000126
 949	9.4326e+01	2.2219	18.346763	0.000476	4.763571	1.613942	-0.000191
 950	9.4425e+01	2.1769	18.209501	0.000345	3.445988	1.167532	-0.000138
 951	9.4525e+01	2.1368	18.003607	0.000517	5.168982	1.751298	-0.000207
 952	9.4624e+01	2.0903	17.874418	0.000324	3.243283	1.098854	-0.000130
 953	9.4724e+01	2.0502	17.688710	0.000466	4.662219	1.579602	-0.000187
 954	9.4823e+01	2.0117	17.591819	0.000243	2.432462	0.824140	-0.000097
 955	9.4923e+01	1.9764	17.357665	0.000588	5.878450	1.991673	-0.000235
 956	9.5022e+01	1.9411	17.256737	0.000253	2.533815	0.858480	-0.000101
 957	9.5122e+01	1.9042	17.115437	0.000355	3.547340	1.201871	-0.000142
 958	9.5222e+01	1.8577	16.873209	0.000608	6.081155	2.060351	-0.000243
 959	9.5321e+01	1.8160	16.752095	0.000304	3.040577	1.030176	-0.000122
 960	9.5421e+01	1.7791	16.598684	0.000385	3.851398	1.304889	-0.000154
 961	9.5520e+01	1.7358	16.433161	0.000416	4.155456	1.407907	-0.000166
 962	9.5620e+01	1.7005	16.295898	0.000345	3.445988	1.167532	-0.000138
 963	9.5719e+01	1.6636	16.102116	0.000486	4.864924	1.648281	-0.000195
 964	9.5819e+01	1.6235	15.932556	0.000426	4.256808	1.442246	-0.000170
 965	9.5918e+01	1.5673	15.795294	0.000345	3.445988	1.167532	-0.000138
 966	9.6017e+01	1.5320	15.641882	0.000385	3.851398	1.304889	-0.000154
 967	9.6117e+01	1.5000	15.476360	0.000416	4.155456	1.407907	-0.000166
 968	9.6216e+01	1.4550	15.278540	0.000497	4.966277	1.682620	-0.000199
 969	9.6316e+01	1.4165	15.161463	0.000294	2.939225	0.995836	-0.000118
 970	9.6415e+01	1.3748	14.975755	0.000466	4.662219	1.579602	-0.000187
 971	9.6515e+01	1.3363	14.830418	0.000365	3.648693	1.236211	-0.000146
 972	9.6615e+01	1.3010	14.672970	0.000395	3.952751	1.339228	-0.000158
 973	9.6714e+01	1.2641	14.463039	0.000527	5.270334	1.785638	-0.000211
 974	9.6814e+01	1.2208	14.301553	0.000405	4.054103	1.373567	-0.000162
 975	9.6913e+01	1.1743	14.188514	0.000284	2.837872	0.961497	-0.000114
 976	9.7013e+01	1.1390	14.014917	0.000436	4.358161	1.476585	-0.000174
 977	9.7112e+01	1.0957	13.853431	0.000405	4.054103	1.373567	-0.000162
 978	9.7212e+01	1.0572	13.683872	0.000426	4.256808	1.442246	-0.000170
 979	9.7311e+01	1.0075	13.518349	0.000416	4.155456	1.407907	-0.000166
 980	9.7410e+01	0.9818	13.324567	0.000486	4.864924	1.648281	-0.000195
 981	9.7510e+01	0.9369	13.183267	0.000355	3.547340	1.201871	-0.000142
 982	9.7609e+01	0.9048	13.001596	0.000456	4.560866	1.545263	-0.000183
 983	9.7709e+01	0.8615	12.868370	0.000334	3.344635	1.133193	-0.000134
 984	9.7808e+01	0.8230	12.698810	0.000426	4.256808	1.442246	-0.000170
 985	9.7908e+01	0.7781	12.517139	0.000456	4.560866	1.545263	-0.000183
 986	9.8007e+01	0.7476	12.359691	0.000395	3.952751	1.339228	-0.000158
 987	9.8107e+01	0.7010	12.182057	0.000446	4.459514	1.510924	-0.000179
 988	9.8207e+01	0.6513	12.044794	0.000345	3.445988	1.167532	-0.000138
 989	9.8306e+01	0.6128	11.879272	0.000416	4.155456	1.407907	-0.000166
 990	9.8406e+01	0.5855	11.681452	0.000497	4.966277	1.682620	-0.000199
 991	9.8505e+01	0.5374	11.540153	0.000355	3.547340	1.201871	-0.000142
 992	9.8605e+01	0.5037	11.398853	0.000355	3.547340	1.201871	-0.000142
 993	9.8704e+01	0.4749	11.217182	0.000456	4.560866	1.545263	-0.000183
 994	9.8803e+01	0.4267	11.067808	0.000375	3.750046	1.270550	-0.000150
 995	9.8903e+01	0.3834	10.869988	0.000497	4.966277	1.682620	-0.000199
 996	9.9002e+01	0.3385	10.704465	0.000416	4.155456	1.407907	-0.000166
 997	9.9102e+01	0.3080	10.575277	0.000324	3.243283	1.098854	-0.000130
 998	9.9201e+01	0.2535	10.442052	0.000334	3.344635	1.133193	-0.000134
 999	9.9301e+01	0.2358	10.244232	0.000497	4.966277	1.682620	-0.000199
1000	9.9400e+01	0.1909	10.066598	0.000446	4.459514	1.510924	-0.000179
1001	9.9500e+01	0.1412	9.945484	0.000304	3.040577	1.030176	-0.000122
1002	9.9600e+01	0.0979	9.808221	0.000345	3.445988	1.167532	-0.000138
1003	9.9699e+01	0.0706	9.598290	0.000527	5.270334	1.785638	-0.000211
1004	9.9799e+01	0.0209	9.444879	0.000385	3.851398	1.304889	-0.000154
1005	9.9898e+01	-0.0112	9.251097	0.000486	4.864924	1.648281	-0.000195
1006	9.9998e+01	-0.0417	9.154205	0.000243	2.432462	0.824140	-0.000097
1007	1.0010e+02	-0.0818	8.952348	0.000507	5.067629	1.716959	-0.000203
1008	1.0020e+02	-0.1299	8.807012	0.000365	3.648693	1.236211	-0.000146
1009	1.0030e+02	-0.1668	8.649563	0.000395	3.952751	1.339228	-0.000158
1010	1.0040e+02	-0.2086	8.451744	0.000497	4.966277	1.682620	-0.000199
1011	1.0050e+02	-0.2519	8.322555	0.000324	3.243283	1.098854	-0.000130
1012	1.0059e+02	-0.2791	8.132810	0.000476	4.763571	1.613942	-0.000191
1013	1.0069e+02	-0.3289	7.991510	0.000355	3.547340	1.201871	-0.000142
1014	1.0079e+02	-0.3642	7.821950	0.000426	4.256808	1.442246	-0.000170
1015	1.0089e+02	-0.4043	7.652391	0.000426	4.256808	1.442246	-0.000170
1016	1.0099e+02	-0.4540	7.507054	0.000365	3.648693	1.236211	-0.000146
1017	1.0109e+02	-0.4893	7.337494	0.000426	4.256808	1.442246	-0.000170
1018	1.0119e+02	-0.5198	7.151786	0.000466	4.662219	1.579602	-0.000187
1019	1.0129e+02	-0.5679	7.022598	0.000324	3.243283	1.098854	-0.000130
1020	1.0139e+02	-0.6000	6.869186	0.000385	3.851398	1.304889	-0.000154
1021	1.0149e+02	-0.6449	6.695590	0.000436	4.358161	1.476585	-0.000174
1022	1.0159e+02	-0.6866	6.505844	0.000476	4.763571	1.613942	-0.000191
1023	1.0169e+02	-0.7251	6.352433	0.000385	3.851398	1.304889	-0.000154
1024	1.0179e+02	-0.7620	6.211133	0.000355	3.547340	1.201871	-0.000142
1025	1.0189e+02	-0.8069	5.993128	0.000547	5.473039	1.854316	-0.000219
1026	1.0199e+02	-0.8454	5.867977	0.000314	3.141930	1.064515	-0.000126
1027	1.0209e+02	-0.8807	5.682269	0.000466	4.662219	1.579602	-0.000187
1028	1.0219e+02	-0.9208	5.540969	0.000355	3.547340	1.201871	-0.000142
1029	1.0229e+02	-0.9625	5.371409	0.000426	4.256808	1.442246	-0.000170
1030	1.0239e+02	-1.0075	5.201849	0.000426	4.256808	1.442246	-0.000170
1031	1.0248e+02	-1.0363	5.032290	0.000426	4.256808	1.442246	-0.000170
1032	1.0258e+02	-1.0861	4.899064	0.000334	3.344635	1.133193	-0.000134
1033	1.0268e+02	-1.1262	4.685096	0.000537	5.371687	1.819977	-0.000215
1034	1.0278e+02	-1.1647	4.527648	0.000395	3.952751	1.339228	-0.000158
1035	1.0288e+02	-1.2080	4.370199	0.000395	3.952751	1.339228	-0.000158
1036	1.0298e+02	-1.2449	4.236974	0.000334	3.344635	1.133193	-0.000134
1037	1.0308e+02	-1.2866	4.043191	0.000486	4.864924	1.648281	-0.000195
1038	1.0318e+02	-1.3267	3.893817	0.000375	3.750046	1.270550	-0.000150
1039	1.0328e+02	-1.3620	3.671775	0.000557	5.574392	1.888655	-0.000223
1040	1.0338e+02	-1.4037	3.546624	0.000314	3.141930	1.064515	-0.000126
1041	1.0348e+02	-1.4422	3.413398	0.000334	3.344635	1.133193	-0.000134
1042	1.0358e+02	-1.4743	3.235764	0.000446	4.459514	1.510924	-0.000179
1043	1.0368e+02	-1.5240	3.082353	0.000385	3.851398	1.304889	-0.000154
1044	1.0378e+02	-1.5641	2.888571	0.000486	4.864924	1.648281	-0.000195
1045	1.0388e+02	-1.5962	2.735159	0.000385	3.851398	1.304889	-0.000154
1046	1.0398e+02	-1.6379	2.561563	0.000436	4.358161	1.476585	-0.000174
1047	1.0408e+02	-1.6748	2.420263	0.000355	3.547340	1.201871	-0.000142
1048	1.0418e+02	-1.7165	2.254740	0.000416	4.155456	1.407907	-0.000166
1049	1.0428e+02	-1.7647	2.060958	0.000486	4.864924	1.648281	-0.000195
1050	1.0438e+02	-1.8048	1.907547	0.000385	3.851398	1.304889	-0.000154
1051	1.0447e+02	-1.8481	1.778358	0.000324	3.243283	1.098854	-0.000130
1052	1.0457e+02	-1.8818	1.560353	0.000547	5.473039	1.854316	-0.000219
1053	1.0467e+02	-1.9219	1.423090	0.000345	3.445988	1.167532	-0.000138
1054	1.0477e+02	-1.9668	1.245456	0.000446	4.459514	1.510924	-0.000179
1055	1.0487e+02	-1.9957	1.088008	0.000395	3.952751	1.339228	-0.000158
1056	1.0497e+02	-2.0454	0.902300	0.000466	4.662219	1.579602	-0.000187
1057	1.0507e+02	-2.0903	0.756963	0.000365	3.648693	1.236211	-0.000146
1058	1.0517e+02	-2.1256	0.607589	0.000375	3.750046	1.270550	-0.000150
1059	1.0527e+02	-2.1577	0.450141	0.000395	3.952751	1.339228	-0.000158
1060	1.0537e+02	-2.1994	0.284618	0.000416	4.155456	1.407907	-0.000166
1061	1.0547e+02	-2.2347	0.086798	0.000497	4.966277	1.682620	-0.000199
1062	1.0557e+02	-2.2716	-0.026241	0.000284	2.837872	0.961497	-0.000114
1063	1.0567e+02	-2.3197	-0.163504	0.000345	3.445988	1.167532	-0.000138
1064	1.0577e+02	-2.3630	-0.373435	0.000527	5.270334	1.785638	-0.000211
1065	1.0587e+02	-2.3951	-0.579329	0.000517	5.168982	1.751298	-0.000207
1066	1.0597e+02	-2.4368	-0.676220	0.000243	2.432462	0.824140	-0.000097
1067	1.0607e+02	-2.4801	-0.841743	0.000416	4.155456	1.407907	-0.000166
1068	1.0617e+02	-2.5090	-1.027451	0.000466	4.662219	1.579602	-0.000187
1069	1.0627e+02	-2.5684	-1.164714	0.000345	3.445988	1.167532	-0.000138
1070	1.0637e+02	-2.5956	-1.330236	0.000416	4.155456	1.407907	-0.000166
1071	1.0647e+02	-2.6390	-1.475573	0.000365	3.648693	1.236211	-0.000146
1072	1.0656e+02	-2.6759	-1.628984	0.000385	3.851398	1.304889	-0.000154
1073	1.0666e+02	-2.7176	-1.838915	0.000527	5.270334	1.785638	-0.000211
1074	1.0676e+02	-2.7545	-1.996364	0.000395	3.952751	1.339228	-0.000158
1075	1.0686e+02	-2.7962	-2.089218	0.000233	2.331109	0.789801	-0.000093
1076	1.0696e+02	-2.8379	-2.307223	0.000547	5.473039	1.854316	-0.000219
1077	1.0706e+02	-2.8796	-2.468709	0.000405	4.054103	1.373567	-0.000162
1078	1.0716e+02	-2.9181	-2.634231	0.000416	4.155456	1.407907	-0.000166
1079	1.0726e+02	-2.9614	-2.815902	0.000456	4.560866	1.545263	-0.000183
1080	1.0736e+02	-3.0031	-2.953165	0.000345	3.445988	1.167532	-0.000138
1081	1.0746e+02	-3.0400	-3.094465	0.000355	3.547340	1.201871	-0.000142
1082	1.0756e+02	-3.0689	-3.304396	0.000527	5.270334	1.785638	-0.000211
1083	1.0766e+02	-3.1202	-3.453770	0.000375	3.750046	1.270550	-0.000150
1084	1.0776e+02	-3.1507	-3.619292	0.000416	4.155456	1.407907	-0.000166
1085	1.0786e+02	-3.2053	-3.768666	0.000375	3.750046	1.270550	-0.000150
1086	1.0796e+02	-3.2309	-3.938226	0.000426	4.256808	1.442246	-0.000170
1087	1.0806e+02	-3.2710	-4.091637	0.000385	3.851398	1.304889	-0.000154
1088	1.0816e+02	-3.3111	-4.257160	0.000416	4.155456	1.407907	-0.000166
1089	1.0826e+02	-3.3625	-4.430756	0.000436	4.358161	1.476585	-0.000174
1090	1.0836e+02	-3.3962	-4.636650	0.000517	5.168982	1.751298	-0.000207
1091	1.0845e+02	-3.4347	-4.749690	0.000284	2.837872	0.961497	-0.000114
1092	1.0855e+02	-3.4764	-4.943473	0.000486	4.864924	1.648281	-0.000195
1093	1.0865e+02	-3.5133	-5.064587	0.000304	3.040577	1.030176	-0.000122
1094	1.0875e+02	-3.5566	-5.250295	0.000466	4.662219	1.579602	-0.000187
1095	1.0885e+02	-3.5935	-5.395632	0.000365	3.648693	1.236211	-0.000146
1096	1.0895e+02	-3.6384	-5.540969	0.000365	3.648693	1.236211	-0.000146
1097	1.0905e+02	-3.6689	-5.758974	0.000547	5.473039	1.854316	-0.000219
1098	1.0915e+02	-3.7106	-5.908348	0.000375	3.750046	1.270550	-0.000150
1099	1.0925e+02	-3.7443	-6.053685	0.000365	3.648693	1.236211	-0.000146
1100	1.0935e+02	-3.8020	-6.190948	0.000345	3.445988	1.167532	-0.000138
1101	1.0945e+02	-3.8389	-6.376656	0.000466	4.662219	1.579602	-0.000187
1102	1.0955e+02	-3.8742	-6.509881	0.000334	3.344635	1.133193	-0.000134
1103	1.0965e+02	-3.9127	-6.667330	0.000395	3.952751	1.339228	-0.000158
1104	1.0975e+02	-3.9609	-6.828815	0.000405	4.054103	1.373567	-0.000162
1105	1.0985e+02	-3.9994	-7.002412	0.000436	4.358161	1.476585	-0.000174
1106	1.0995e+02	-4.0298	-7.188120	0.000466	4.662219	1.579602	-0.000187
1107	1.1005e+02	-4.0731	-7.337494	0.000375	3.750046	1.270550	-0.000150
1108	1.1015e+02	-4.1084	-7.470720	0.000334	3.344635	1.133193	-0.000134
1109	1.1025e+02	-4.1582	-7.628168	0.000395	3.952751	1.339228	-0.000158
1110	1.1035e+02	-4.2015	-7.761393	0.000334	3.344635	1.133193	-0.000134
1111	1.1044e+02	-4.2304	-7.947102	0.000466	4.662219	1.579602	-0.000187
1112	1.1054e+02	-4.2769	-8.084364	0.000345	3.445988	1.167532	-0.000138
1113	1.1064e+02	-4.3154	-8.241813	0.000395	3.952751	1.339228	-0.000158
1114	1.1074e+02	-4.3459	-8.407335	0.000416	4.155456	1.407907	-0.000166
1115	1.1084e+02	-4.3940	-8.593043	0.000466	4.662219	1.579602	-0.000187
1116	1.1094e+02	-4.4309	-8.750492	0.000395	3.952751	1.339228	-0.000158
1117	1.1104e+02	-4.4742	-8.891791	0.000355	3.547340	1.201871	-0.000142
1118	1.1114e+02	-4.5095	-9.049240	0.000395	3.952751	1.339228	-0.000158
1119	1.1124e+02	-4.5496	-9.174391	0.000314	3.141930	1.064515	-0.000126
1120	1.1134e+02	-4.5865	-9.352025	0.000446	4.459514	1.510924	-0.000179
1121	1.1144e+02	-4.6330	-9.493325	0.000355	3.547340	1.201871	-0.000142
1122	1.1154e+02	-4.6731	-9.707293	0.000537	5.371687	1.819977	-0.000215
1123	1.1164e+02	-4.7084	-9.840518	0.000334	3.344635	1.133193	-0.000134
1124	1.1174e+02	-4.7469	-9.969707	0.000324	3.243283	1.098854	-0.000130
1125	1.1184e+02	-4.7838	-10.123118	0.000385	3.851398	1.304889	-0.000154
1126	1.1194e+02	-4.8368	-10.276529	0.000385	3.851398	1.304889	-0.000154
1127	1.1204e+02	-4.8672	-10.458200	0.000456	4.560866	1.545263	-0.000183
1128	1.1214e+02	-4.9138	-10.599500	0.000355	3.547340	1.201871	-0.000142
1129	1.1224e+02	-4.9491	-10.736762	0.000345	3.445988	1.167532	-0.000138
1130	1.1234e+02	-4.9908	-10.914396	0.000446	4.459514	1.510924	-0.000179
1131	1.1244e+02	-5.0293	-11.063770	0.000375	3.750046	1.270550	-0.000150
1132	1.1253e+02	-5.0726	-11.217182	0.000385	3.851398	1.304889	-0.000154
1133	1.1263e+02	-5.1111	-11.338296	0.000304	3.040577	1.030176	-0.000122
1134	1.1273e+02	-5.1464	-11.503818	0.000416	4.155456	1.407907	-0.000166
1135	1.1283e+02	-5.1849	-11.641081	0.000345	3.445988	1.167532	-0.000138
1136	1.1293e+02	-5.2282	-11.830826	0.000476	4.763571	1.613942	-0.000191
1137	1.1303e+02	-5.2619	-11.955977	0.000314	3.141930	1.064515	-0.000126
1138	1.1313e+02	-5.3020	-12.121500	0.000416	4.155456	1.407907	-0.000166
1139	1.1323e+02	-5.3533	-12.287023	0.000416	4.155456	1.407907	-0.000166
1140	1.1333e+02	-5.3806	-12.436397	0.000375	3.750046	1.270550	-0.000150
1141	1.1343e+02	-5.4287	-12.553474	0.000294	2.939225	0.995836	-0.000118
1142	1.1353e+02	-5.4608	-12.771479	0.000547	5.473039	1.854316	-0.000219
1143	1.1363e+02	-5.5089	-12.884519	0.000284	2.837872	0.961497	-0.000114
1144	1.1373e+02	-5.5474	-13.013707	0.000324	3.243283	1.098854	-0.000130
1145	1.1383e+02	-5.5908	-13.199415	0.000466	4.662219	1.579602	-0.000187
1146	1.1393e+02	-5.6260	-13.312455	0.000284	2.837872	0.961497	-0.000114
1147	1.1403e+02	-5.6662	-13.469903	0.000395	3.952751	1.339228	-0.000158
1148	1.1413e+02	-5.7079	-13.655612	0.000466	4.662219	1.579602	-0.000187
1149	1.1423e+02	-5.7480	-13.792874	0.000345	3.445988	1.167532	-0.000138
1150	1.1433e+02	-5.7865	-13.934174	0.000355	3.547340	1.201871	-0.000142
1151	1.1442e+02	-5.8218	-14.075474	0.000355	3.547340	1.201871	-0.000142
1152	1.1452e+02	-5.8747	-14.240996	0.000416	4.155456	1.407907	-0.000166
1153	1.1462e+02	-5.9084	-14.414593	0.000436	4.358161	1.476585	-0.000174
1154	1.1472e+02	-5.9533	-14.503410	0.000223	2.229757	0.755462	-0.000089
1155	1.1482e+02	-5.9966	-14.652784	0.000375	3.750046	1.270550	-0.000150
1156	1.1492e+02	-6.0239	-14.866752	0.000537	5.371687	1.819977	-0.000215
1157	1.1502e+02	-6.0720	-14.967681	0.000253	2.533815	0.858480	-0.000101
1158	1.1512e+02	-6.1057	-15.129166	0.000405	4.054103	1.373567	-0.000162
1159	1.1522e+02	-6.1490	-15.278540	0.000375	3.750046	1.270550	-0.000150
1160	1.1532e+02	-6.1843	-15.419840	0.000355	3.547340	1.201871	-0.000142
1161	1.1542e+02	-6.2292	-15.553065	0.000334	3.344635	1.133193	-0.000134
1162	1.1552e+02	-6.2693	-15.690328	0.000345	3.445988	1.167532	-0.000138
1163	1.1562e+02	-6.3094	-15.880073	0.000476	4.763571	1.613942	-0.000191
1164	1.1572e+02	-6.3463	-15.997150	0.000294	2.939225	0.995836	-0.000118
1165	1.1582e+02	-6.3865	-16.134413	0.000345	3.445988	1.167532	-0.000138
1166	1.1592e+02	-6.4250	-16.303973	0.000426	4.256808	1.442246	-0.000170
1167	1.1602e+02	-6.4635	-16.412975	0.000274	2.736520	0.927158	-0.000110
1168	1.1612e+02	-6.5020	-16.590609	0.000446	4.459514	1.510924	-0.000179
1169	1.1622e+02	-6.5421	-16.679426	0.000223	2.229757	0.755462	-0.000089
1170	1.1632e+02	-6.5886	-16.824763	0.000365	3.648693	1.236211	-0.000146
1171	1.1642e+02	-6.6207	-16.986249	0.000405	4.054103	1.373567	-0.000162
1172	1.1651e+02	-6.6752	-17.099288	0.000284	2.837872	0.961497	-0.000114
1173	1.1661e+02	-6.7009	-17.256737	0.000395	3.952751	1.339228	-0.000158
1174	1.1671e+02	-6.7378	-17.398036	0.000355	3.547340	1.201871	-0.000142
1175	1.1681e+02	-6.7827	-17.543373	0.000365	3.648693	1.236211	-0.000146
1176	1.1691e+02	-6.8212	-17.712933	0.000426	4.256808	1.442246	-0.000170
1177	1.1701e+02	-6.8645	-17.817899	0.000264	2.635167	0.892819	-0.000105
1178	1.1711e+02	-6.8950	-17.963235	0.000365	3.648693	1.236211	-0.000146
1179	1.1721e+02	-6.9431	-18.112609	0.000375	3.750046	1.270550	-0.000150
1180	1.1731e+02	-6.9832	-18.237761	0.000314	3.141930	1.064515	-0.000126
1181	1.1741e+02	-7.0201	-18.403283	0.000416	4.155456	1.407907	-0.000166
1182	1.1751e+02	-7.0522	-18.524397	0.000304	3.040577	1.030176	-0.000122
1183	1.1761e+02	-7.0955	-18.693957	0.000426	4.256808	1.442246	-0.000170
1184	1.1771e+02	-7.1356	-18.827183	0.000334	3.344635	1.133193	-0.000134
1185	1.1781e+02	-7.1757	-18.936185	0.000274	2.736520	0.927158	-0.000110
1186	1.1791e+02	-7.2239	-19.069411	0.000334	3.344635	1.133193	-0.000134
1187	1.1801e+02	-7.2543	-19.222822	0.000385	3.851398	1.304889	-0.000154
1188	1.1811e+02	-7.3009	-19.364122	0.000355	3.547340	1.201871	-0.000142
1189	1.1821e+02	-7.3378	-19.481199	0.000294	2.939225	0.995836	-0.000118
1190	1.1831e+02	-7.3714	-19.658832	0.000446	4.459514	1.510924	-0.000179
1191	1.1841e+02	-7.4260	-19.844541	0.000466	4.662219	1.579602	-0.000187
1192	1.1850e+02	-7.4581	-19.897023	0.000132	1.317584	0.446409	-0.000053
1193	1.1860e+02	-7.5046	-20.062546	0.000416	4.155456	1.407907	-0.000166
1194	1.1870e+02	-7.5463	-20.203846	0.000355	3.547340	1.201871	-0.000142
1195	1.1880e+02	-7.5816	-20.345146	0.000355	3.547340	1.201871	-0.000142
1196	1.1890e+02	-7.6169	-20.510668	0.000416	4.155456	1.407907	-0.000166
1197	1.1900e+02	-7.6570	-20.615634	0.000264	2.635167	0.892819	-0.000105
1198	1.1910e+02	-7.7003	-20.756933	0.000355	3.547340	1.201871	-0.000142
1199	1.1920e+02	-7.7340	-20.930530	0.000436	4.358161	1.476585	-0.000174
1200	1.1930e+02	-7.7741	-21.015310	0.000213	2.128404	0.721123	-0.000085
1201	1.1940e+02	-7.8142	-21.201018	0.000466	4.662219	1.579602	-0.000187
1202	1.1950e+02	-7.8575	-21.314058	0.000284	2.837872	0.961497	-0.000114
1203	1.1960e+02	-7.8960	-21.459395	0.000365	3.648693	1.236211	-0.000146
1204	1.1970e+02	-7.9426	-21.572435	0.000284	2.837872	0.961497	-0.000114
1205	1.1980e+02	-7.9730	-21.697586	0.000314	3.141930	1.064515	-0.000126
1206	1.1990e+02	-8.0147	-21.879257	0.000456	4.560866	1.545263	-0.000183
1207	1.2000e+02	-8.0565	-22.024594	0.000365	3.648693	1.236211	-0.000146
1208	1.2010e+02	-8.0998	-22.157819	0.000334	3.344635	1.133193	-0.000134
1209	1.2020e+02	-8.1270	-22.246636	0.000223	2.229757	0.755462	-0.000089
1210	1.2030e+02	-8.1736	-22.460605	0.000537	5.371687	1.819977	-0.000215
1211	1.2039e+02	-8.2137	-22.553459	0.000233	2.331109	0.789801	-0.000093
1212	1.2049e+02	-8.2586	-22.694759	0.000355	3.547340	1.201871	-0.000142
1213	1.2059e+02	-8.2891	-22.803761	0.000274	2.736520	0.927158	-0.000110
1214	1.2069e+02	-8.3340	-23.009655	0.000517	5.168982	1.751298	-0.000207
1215	1.2079e+02	-8.3757	-23.086361	0.000193	1.925699	0.652445	-0.000077
1216	1.2089e+02	-8.4126	-23.231698	0.000365	3.648693	1.236211	-0.000146
1217	1.2099e+02	-8.4591	-23.368960	0.000345	3.445988	1.167532	-0.000138
1218	1.2109e+02	-8.4912	-23.502186	0.000334	3.344635	1.133193	-0.000134
1219	1.2119e+02	-8.5393	-23.607151	0.000264	2.635167	0.892819	-0.000105
1220	1.2129e+02	-8.5762	-23.780748	0.000436	4.358161	1.476585	-0.000174
1221	1.2139e+02	-8.6163	-23.881676	0.000253	2.533815	0.858480	-0.000101
1222	1.2149e+02	-8.6452	-24.031050	0.000375	3.750046	1.270550	-0.000150
1223	1.2159e+02	-8.6933	-24.152165	0.000304	3.040577	1.030176	-0.000122
1224	1.2169e+02	-8.7318	-24.281353	0.000324	3.243283	1.098854	-0.000130
1225	1.2179e+02	-8.7735	-24.418616	0.000345	3.445988	1.167532	-0.000138
1226	1.2189e+02	-8.8088	-24.535692	0.000294	2.939225	0.995836	-0.000118
1227	1.2199e+02	-8.8489	-24.705252	0.000426	4.256808	1.442246	-0.000170
1228	1.2209e+02	-8.8891	-24.814255	0.000274	2.736520	0.927158	-0.000110
1229	1.2219e+02	-8.9404	-24.955555	0.000355	3.547340	1.201871	-0.000142
1230	1.2229e+02	-8.9757	-25.096854	0.000355	3.547340	1.201871	-0.000142
1231	1.2239e+02	-9.0110	-25.226043	0.000324	3.243283	1.098854	-0.000130
1232	1.2248e+02	-9.0495	-25.343120	0.000294	2.939225	0.995836	-0.000118
1233	1.2258e+02	-9.0960	-25.476345	0.000334	3.344635	1.133193	-0.000134
1234	1.2268e+02	-9.1409	-25.633793	0.000395	3.952751	1.339228	-0.000158
1235	1.2278e+02	-9.1730	-25.714536	0.000203	2.027052	0.686784	-0.000081
1236	1.2288e+02	-9.2131	-25.880059	0.000416	4.155456	1.407907	-0.000166
1237	1.2298e+02	-9.2532	-26.037507	0.000395	3.952751	1.339228	-0.000158
1238	1.2308e+02	-9.2949	-26.154584	0.000294	2.939225	0.995836	-0.000118
1239	1.2318e+02	-9.3350	-26.259549	0.000264	2.635167	0.892819	-0.000105
1240	1.2328e+02	-9.3703	-26.396812	0.000345	3.445988	1.167532	-0.000138
1241	1.2338e+02	-9.4168	-26.521963	0.000314	3.141930	1.064515	-0.000126
1242	1.2348e+02	-9.4553	-26.667300	0.000365	3.648693	1.236211	-0.000146
1243	1.2358e+02	-9.4971	-26.756117	0.000223	2.229757	0.755462	-0.000089
1244	1.2368e+02	-9.5388	-26.933751	0.000446	4.459514	1.510924	-0.000179
1245	1.2378e+02	-9.5725	-27.038717	0.000264	2.635167	0.892819	-0.000105
1246	1.2388e+02	-9.6078	-27.159831	0.000304	3.040577	1.030176	-0.000122
1247	1.2398e+02	-9.6511	-27.321316	0.000405	4.054103	1.373567	-0.000162
1248	1.2408e+02	-9.6896	-27.414170	0.000233	2.331109	0.789801	-0.000093
1249	1.2418e+02	-9.7265	-27.571619	0.000395	3.952751	1.339228	-0.000158
1250	1.2428e+02	-9.7650	-27.712918	0.000355	3.547340	1.201871	-0.000142
1251	1.2438e+02	-9.8051	-27.858255	0.000365	3.648693	1.236211	-0.000146
1252	1.2447e+02	-9.8484	-27.979369	0.000304	3.040577	1.030176	-0.000122
1253	1.2457e+02	-9.8997	-28.056075	0.000193	1.925699	0.652445	-0.000077
1254	1.2467e+02	-9.9254	-28.209486	0.000385	3.851398	1.304889	-0.000154
1255	1.2477e+02	-9.9703	-28.379046	0.000426	4.256808	1.442246	-0.000170
1256	1.2487e+02	-10.0104	-28.520345	0.000355	3.547340	1.201871	-0.000142
1257	1.2497e+02	-10.0473	-28.613200	0.000233	2.331109	0.789801	-0.000093
1258	1.2507e+02	-10.0922	-28.750462	0.000345	3.445988	1.167532	-0.000138
1259	1.2517e+02	-10.1291	-28.863502	0.000284	2.837872	0.961497	-0.000114
1260	1.2527e+02	-10.1676	-28.984616	0.000304	3.040577	1.030176	-0.000122
1261	1.2537e+02	-10.2109	-29.133990	0.000375	3.750046	1.270550	-0.000150
1262	1.2547e+02	-10.2527	-29.271253	0.000345	3.445988	1.167532	-0.000138
1263	1.2557e+02	-10.2783	-29.384292	0.000284	2.837872	0.961497	-0.000114
1264	1.2567e+02	-10.3329	-29.553852	0.000426	4.256808	1.442246	-0.000170
1265	1.2577e+02	-10.3698	-29.630558	0.000193	1.925699	0.652445	-0.000077
1266	1.2587e+02	-10.4195	-29.800117	0.000426	4.256808	1.442246	-0.000170
1267	1.2597e+02	-10.4468	-29.941417	0.000355	3.547340	1.201871	-0.000142
1268	1.2607e+02	-10.4917	-30.066568	0.000314	3.141930	1.064515	-0.000126
1269	1.2617e+02	-10.5190	-30.199794	0.000334	3.344635	1.133193	-0.000134
1270	1.2627e+02	-10.5575	-30.328982	0.000324	3.243283	1.098854	-0.000130
1271	1.2636e+02	-10.6008	-30.437985	0.000274	2.736520	0.927158	-0.000110
1272	1.2646e+02	-10.6441	-30.571210	0.000334	3.344635	1.133193	-0.000134
1273	1.2656e+02	-10.6922	-30.676176	0.000264	2.635167	0.892819	-0.000105
1274	1.2666e+02	-10.7291	-30.821513	0.000365	3.648693	1.236211	-0.000146
1275	1.2676e+02	-10.7612	-30.946664	0.000314	3.141930	1.064515	-0.000126
1276	1.2686e+02	-10.8077	-31.055667	0.000274	2.736520	0.927158	-0.000110
1277	1.2696e+02	-10.8526	-31.196966	0.000355	3.547340	1.201871	-0.000142
1278	1.2706e+02	-10.8863	-31.334229	0.000345	3.445988	1.167532	-0.000138
1279	1.2716e+02	-10.9296	-31.479566	0.000365	3.648693	1.236211	-0.000146
1280	1.2726e+02	-10.9697	-31.576457	0.000243	2.432462	0.824140	-0.000097
1281	1.2736e+02	-11.0082	-31.653163	0.000193	1.925699	0.652445	-0.000077
1282	1.2746e+02	-11.0387	-31.818685	0.000416	4.155456	1.407907	-0.000166
1283	1.2756e+02	-11.0804	-31.951911	0.000334	3.344635	1.133193	-0.000134
1284	1.2766e+02	-11.1173	-32.081099	0.000324	3.243283	1.098854	-0.000130
1285	1.2776e+02	-11.1735	-32.194139	0.000284	2.837872	0.961497	-0.000114
1286	1.2786e+02	-11.2008	-32.331402	0.000345	3.445988	1.167532	-0.000138
1287	1.2796e+02	-11.2489	-32.432330	0.000253	2.533815	0.858480	-0.000101
1288	1.2806e+02	-11.2906	-32.573630	0.000355	3.547340	1.201871	-0.000142
1289	1.2816e+02	-11.3275	-32.698781	0.000314	3.141930	1.064515	-0.000126
1290	1.2826e+02	-11.3596	-32.807784	0.000274	2.736520	0.927158	-0.000110
1291	1.2835e+02	-11.4029	-32.896601	0.000223	2.229757	0.755462	-0.000089
1292	1.2845e+02	-11.4446	-33.054049	0.000395	3.952751	1.339228	-0.000158
1293	1.2855e+02	-11.4863	-33.195349	0.000355	3.547340	1.201871	-0.000142
1294	1.2865e+02	-11.5232	-33.356834	0.000405	4.054103	1.373567	-0.000162
1295	1.2875e+02	-11.5681	-33.437577	0.000203	2.027052	0.686784	-0.000081
1296	1.2885e+02	-11.6018	-33.542542	0.000264	2.635167	0.892819	-0.000105
1297	1.2895e+02	-11.6435	-33.704028	0.000405	4.054103	1.373567	-0.000162
1298	1.2905e+02	-11.6836	-33.788808	0.000213	2.128404	0.721123	-0.000085
1299	1.2915e+02	-11.7269	-33.930107	0.000355	3.547340	1.201871	-0.000142
1300	1.2925e+02	-11.7590	-34.031036	0.000253	2.533815	0.858480	-0.000101
1301	1.2935e+02	-11.8120	-34.200595	0.000426	4.256808	1.442246	-0.000170
1302	1.2945e+02	-11.8392	-34.293450	0.000233	2.331109	0.789801	-0.000093
1303	1.2955e+02	-11.8826	-34.410526	0.000294	2.939225	0.995836	-0.000118
1304	1.2965e+02	-11.9162	-34.535678	0.000314	3.141930	1.064515	-0.000126
1305	1.2975e+02	-11.9612	-34.652755	0.000294	2.939225	0.995836	-0.000118
1306	1.2985e+02	-12.0109	-34.802129	0.000375	3.750046	1.270550	-0.000150
1307	1.2995e+02	-12.0430	-34.915168	0.000284	2.837872	0.961497	-0.000114
1308	1.3005e+02	-12.0831	-35.020134	0.000264	2.635167	0.892819	-0.000105
1309	1.3015e+02	-12.1312	-35.197768	0.000446	4.459514	1.510924	-0.000179
1310	1.3025e+02	-12.1553	-35.274474	0.000193	1.925699	0.652445	-0.000077
1311	1.3034e+02	-12.1986	-35.415773	0.000355	3.547340	1.201871	-0.000142
1312	1.3044e+02	-12.2419	-35.516702	0.000253	2.533815	0.858480	-0.000101
1313	1.3054e+02	-12.2740	-35.629741	0.000284	2.837872	0.961497	-0.000114
1314	1.3064e+02	-12.3237	-35.758930	0.000324	3.243283	1.098854	-0.000130
1315	1.3074e+02	-12.3574	-35.876007	0.000294	2.939225	0.995836	-0.000118
1316	1.3084e+02	-12.4071	-36.005195	0.000324	3.243283	1.098854	-0.000130
1317	1.3094e+02	-12.4488	-36.130346	0.000314	3.141930	1.064515	-0.000126
1318	1.3104e+02	-12.4681	-36.239349	0.000274	2.736520	0.927158	-0.000110
1319	1.3114e+02	-12.5162	-36.368537	0.000324	3.243283	1.098854	-0.000130
1320	1.3124e+02	-12.5676	-36.497726	0.000324	3.243283	1.098854	-0.000130
1321	1.3134e+02	-12.5980	-36.594617	0.000243	2.432462	0.824140	-0.000097
1322	1.3144e+02	-12.6446	-36.715731	0.000304	3.040577	1.030176	-0.000122
1323	1.3154e+02	-12.6879	-36.840882	0.000314	3.141930	1.064515	-0.000126
1324	1.3164e+02	-12.7216	-36.974108	0.000334	3.344635	1.133193	-0.000134
1325	1.3174e+02	-12.7569	-37.070999	0.000243	2.432462	0.824140	-0.000097
1326	1.3184e+02	-12.7970	-37.232484	0.000405	4.054103	1.373567	-0.000162
1327	1.3194e+02	-12.8403	-37.313227	0.000203	2.027052	0.686784	-0.000081
1328	1.3204e+02	-12.8772	-37.466638	0.000385	3.851398	1.304889	-0.000154
1329	1.3214e+02	-12.9189	-37.555455	0.000223	2.229757	0.755462	-0.000089
1330	1.3224e+02	-12.9574	-37.680606	0.000314	3.141930	1.064515	-0.000126
1331	1.3234e+02	-12.9879	-37.797683	0.000294	2.939225	0.995836	-0.000118
1332	1.3243e+02	-13.0376	-37.918797	0.000304	3.040577	1.030176	-0.000122
1333	1.3253e+02	-13.0761	-38.023763	0.000264	2.635167	0.892819	-0.000105
1334	1.3263e+02	-13.1194	-38.100469	0.000193	1.925699	0.652445	-0.000077
1335	1.3273e+02	-13.1563	-38.257917	0.000395	3.952751	1.339228	-0.000158
1336	1.3283e+02	-13.2012	-38.370957	0.000284	2.837872	0.961497	-0.000114
1337	1.3293e+02	-13.2381	-38.471885	0.000253	2.533815	0.858480	-0.000101
1338	1.3303e+02	-13.2734	-38.568776	0.000243	2.432462	0.824140	-0.000097
1339	1.3313e+02	-13.3167	-38.726225	0.000395	3.952751	1.339228	-0.000158
1340	1.3323e+02	-13.3552	-38.823116	0.000243	2.432462	0.824140	-0.000097
1341	1.3333e+02	-13.3889	-38.936156	0.000284	2.837872	0.961497	-0.000114
1342	1.3343e+02	-13.4387	-39.049195	0.000284	2.837872	0.961497	-0.000114
1343	1.3353e+02	-13.4772	-39.178384	0.000324	3.243283	1.098854	-0.000130
1344	1.3363e+02	-13.5125	-39.287386	0.000274	2.736520	0.927158	-0.000110
1345	1.3373e+02	-13.5461	-39.404463	0.000294	2.939225	0.995836	-0.000118
1346	1.3383e+02	-13.5959	-39.489243	0.000213	2.128404	0.721123	-0.000085
1347	1.3393e+02	-13.6344	-39.614394	0.000314	3.141930	1.064515	-0.000126
1348	1.3403e+02	-13.6713	-39.763768	0.000375	3.750046	1.270550	-0.000150
1349	1.3413e+02	-13.7178	-39.872771	0.000274	2.736520	0.927158	-0.000110
1350	1.3423e+02	-13.7515	-39.957551	0.000213	2.128404	0.721123	-0.000085
1351	1.3432e+02	-13.7852	-40.106925	0.000375	3.750046	1.270550	-0.000150
1352	1.3442e+02	-13.8349	-40.211891	0.000264	2.635167	0.892819	-0.000105
1353	1.3452e+02	-13.8718	-40.288596	0.000193	1.925699	0.652445	-0.000077
1354	1.3462e+02	-13.9135	-40.421822	0.000334	3.344635	1.133193	-0.000134
1355	1.3472e+02	-13.9488	-40.530824	0.000274	2.736520	0.927158	-0.000110
1356	1.3482e+02	-13.9905	-40.668087	0.000345	3.445988	1.167532	-0.000138
1357	1.3492e+02	-14.0338	-40.781127	0.000284	2.837872	0.961497	-0.000114
1358	1.3502e+02	-14.0771	-40.894166	0.000284	2.837872	0.961497	-0.000114
1359	1.3512e+02	-14.1108	-40.991058	0.000243	2.432462	0.824140	-0.000097
1360	1.3522e+02	-14.1477	-41.160617	0.000426	4.256808	1.442246	-0.000170
1361	1.3532e+02	-14.1862	-41.257509	0.000243	2.432462	0.824140	-0.000097
1362	1.3542e+02	-14.2263	-41.370548	0.000284	2.837872	0.961497	-0.000114
1363	1.3552e+02	-14.2729	-41.459365	0.000223	2.229757	0.755462	-0.000089
1364	1.3562e+02	-14.3114	-41.600665	0.000355	3.547340	1.201871	-0.000142
1365	1.3572e+02	-14.3483	-41.701594	0.000253	2.533815	0.858480	-0.000101
1366	1.3582e+02	-14.3964	-41.810596	0.000274	2.736520	0.927158	-0.000110
1367	1.3592e+02	-14.4333	-41.964007	0.000385	3.851398	1.304889	-0.000154
1368	1.3602e+02	-14.4686	-42.040713	0.000193	1.925699	0.652445	-0.000077
1369	1.3612e+02	-14.5119	-42.186050	0.000365	3.648693	1.236211	-0.000146
1370	1.3622e+02	-14.5536	-42.303127	0.000294	2.939225	0.995836	-0.000118
1371	1.3631e+02	-14.5905	-42.391944	0.000223	2.229757	0.755462	-0.000089
1372	1.3641e+02	-14.6258	-42.573615	0.000456	4.560866	1.545263	-0.000183
1373	1.3651e+02	-14.6643	-42.654358	0.000203	2.027052	0.686784	-0.000081
1374	1.3661e+02	-14.7172	-42.767397	0.000284	2.837872	0.961497	-0.000114
1375	1.3671e+02	-14.7413	-42.884474	0.000294	2.939225	0.995836	-0.000118
1376	1.3681e+02	-14.7894	-43.066145	0.000456	4.560866	1.545263	-0.000183
1377	1.3691e+02	-14.8343	-43.154962	0.000223	2.229757	0.755462	-0.000089
1378	1.3701e+02	-14.8761	-43.243779	0.000223	2.229757	0.755462	-0.000089
1379	1.3711e+02	-14.9097	-43.356819	0.000284	2.837872	0.961497	-0.000114
1380	1.3721e+02	-14.9466	-43.486008	0.000324	3.243283	1.098854	-0.000130
1381	1.3731e+02	-14.9932	-43.619233	0.000334	3.344635	1.133193	-0.000134
1382	1.3741e+02	-15.0285	-43.752459	0.000334	3.344635	1.133193	-0.000134
1383	1.3751e+02	-15.0621	-43.865498	0.000284	2.837872	0.961497	-0.000114
1384	1.3761e+02	-15.1055	-44.018910	0.000385	3.851398	1.304889	-0.000154
1385	1.3771e+02	-15.1488	-44.107727	0.000223	2.229757	0.755462	-0.000089
1386	1.3781e+02	-15.1953	-44.244989	0.000345	3.445988	1.167532	-0.000138
1387	1.3791e+02	-15.2274	-44.386289	0.000355	3.547340	1.201871	-0.000142
1388	1.3801e+02	-15.2771	-44.535663	0.000375	3.750046	1.270550	-0.000150
1389	1.3811e+02	-15.3108	-44.580071	0.000111	1.114878	0.377731	-0.000045
1390	1.3821e+02	-15.3445	-44.737520	0.000395	3.952751	1.339228	-0.000158
1391	1.3831e+02	-15.3830	-44.919191	0.000456	4.560866	1.545263	-0.000183
1392	1.3840e+02	-15.4343	-45.016082	0.000243	2.432462	0.824140	-0.000097
1393	1.3850e+02	-15.4712	-45.129122	0.000284	2.837872	0.961497	-0.000114
1394	1.3860e+02	-15.5065	-45.270422	0.000355	3.547340	1.201871	-0.000142
1395	1.3870e+02	-15.5434	-45.367313	0.000243	2.432462	0.824140	-0.000097
1396	1.3880e+02	-15.5867	-45.581281	0.000537	5.371687	1.819977	-0.000215
1397	1.3890e+02	-15.6332	-45.653949	0.000182	1.824346	0.618105	-0.000073
1398	1.3900e+02	-15.6750	-45.831583	0.000446	4.459514	1.510924	-0.000179
1399	1.3910e+02	-15.7119	-45.944623	0.000284	2.837872	0.961497	-0.000114
1400	1.3920e+02	-15.7471	-46.065737	0.000304	3.040577	1.030176	-0.000122
1401	1.3930e+02	-15.7905	-46.203000	0.000345	3.445988	1.167532	-0.000138
1402	1.3940e+02	-15.8242	-46.312003	0.000274	2.736520	0.927158	-0.000110
1403	1.3950e+02	-15.8627	-46.473488	0.000405	4.054103	1.373567	-0.000162
1404	1.3960e+02	-15.9108	-46.578454	0.000264	2.635167	0.892819	-0.000105
1405	1.3970e+02	-15.9477	-46.756088	0.000446	4.459514	1.510924	-0.000179
1406	1.3980e+02	-15.9926	-46.889313	0.000334	3.344635	1.133193	-0.000134
1407	1.3990e+02	-16.0343	-47.050798	0.000405	4.054103	1.373567	-0.000162
1408	1.4000e+02	-16.0632	-47.196135	0.000365	3.648693	1.236211	-0.000146
1409	1.4010e+02	-16.1097	-47.345509	0.000375	3.750046	1.270550	-0.000150
1410	1.4020e+02	-16.1434	-47.450475	0.000264	2.635167	0.892819	-0.000105
1411	1.4029e+02	-16.1851	-47.607923	0.000395	3.952751	1.339228	-0.000158
1412	1.4039e+02	-16.2268	-47.765371	0.000395	3.952751	1.339228	-0.000158
1413	1.4049e+02	-16.2605	-47.930894	0.000416	4.155456	1.407907	-0.000166
1414	1.4059e+02	-16.3006	-48.080268	0.000375	3.750046	1.270550	-0.000150
1415	1.4069e+02	-16.3455	-48.241754	0.000405	4.054103	1.373567	-0.000162
1416	1.4079e+02	-16.3872	-48.362868	0.000304	3.040577	1.030176	-0.000122
1417	1.4089e+02	-16.4257	-48.572799	0.000527	5.270334	1.785638	-0.000211
1418	1.4099e+02	-16.4674	-48.701987	0.000324	3.243283	1.098854	-0.000130
1419	1.4109e+02	-16.4995	-48.887695	0.000466	4.662219	1.579602	-0.000187
1420	1.4119e+02	-16.5525	-49.041106	0.000385	3.851398	1.304889	-0.000154
1421	1.4129e+02	-16.5878	-49.162220	0.000304	3.040577	1.030176	-0.000122
1422	1.4139e+02	-16.6231	-49.372152	0.000527	5.270334	1.785638	-0.000211
1423	1.4149e+02	-16.6664	-49.525563	0.000385	3.851398	1.304889	-0.000154
1424	1.4159e+02	-16.7049	-49.678974	0.000385	3.851398	1.304889	-0.000154
1425	1.4169e+02	-16.7498	-49.840459	0.000405	4.054103	1.373567	-0.000162
1426	1.4179e+02	-16.7787	-49.993870	0.000385	3.851398	1.304889	-0.000154
1427	1.4189e+02	-16.8140	-50.183616	0.000476	4.763571	1.613942	-0.000191
1428	1.4199e+02	-16.8621	-50.349138	0.000416	4.155456	1.407907	-0.000166
1429	1.4209e+02	-16.9006	-50.522735	0.000436	4.358161	1.476585	-0.000174
1430	1.4219e+02	-16.9423	-50.668072	0.000365	3.648693	1.236211	-0.000146
1431	1.4228e+02	-16.9872	-50.869929	0.000507	5.067629	1.716959	-0.000203
1432	1.4238e+02	-17.0273	-51.023340	0.000385	3.851398	1.304889	-0.000154
1433	1.4248e+02	-17.0642	-51.213085	0.000476	4.763571	1.613942	-0.000191
1434	1.4258e+02	-17.1011	-51.398794	0.000466	4.662219	1.579602	-0.000187
1435	1.4268e+02	-17.1509	-51.576428	0.000446	4.459514	1.510924	-0.000179
1436	1.4278e+02	-17.1861	-51.778284	0.000507	5.067629	1.716959	-0.000203
1437	1.4288e+02	-17.2279	-51.959956	0.000456	4.560866	1.545263	-0.000183
1438	1.4298e+02	-17.2599	-52.133552	0.000436	4.358161	1.476585	-0.000174
1439	1.4308e+02	-17.3017	-52.327335	0.000486	4.864924	1.648281	-0.000195
1440	1.4318e+02	-17.3402	-52.529192	0.000507	5.067629	1.716959	-0.000203
1441	1.4328e+02	-17.3754	-52.666454	0.000345	3.445988	1.167532	-0.000138
1442	1.4338e+02	-17.4252	-52.900608	0.000588	5.878450	1.991673	-0.000235
1443	1.4348e+02	-17.4637	-53.134762	0.000588	5.878450	1.991673	-0.000235
1444	1.4358e+02	-17.5070	-53.300285	0.000416	4.155456	1.407907	-0.000166
1445	1.4368e+02	-17.5407	-53.461770	0.000405	4.054103	1.373567	-0.000162
1446	1.4378e+02	-17.5760	-53.679775	0.000547	5.473039	1.854316	-0.000219
1447	1.4388e+02	-17.6321	-53.881632	0.000507	5.067629	1.716959	-0.000203
1448	1.4398e+02	-17.6642	-54.059266	0.000446	4.459514	1.510924	-0.000179
1449	1.4408e+02	-17.7059	-54.249011	0.000476	4.763571	1.613942	-0.000191
1450	1.4418e+02	-17.7380	-54.475091	0.000568	5.675745	1.922994	-0.000227
1451	1.4428e+02	-17.7845	-54.664836	0.000476	4.763571	1.613942	-0.000191
1452	1.4437e+02	-17.8214	-54.874768	0.000527	5.270334	1.785638	-0.000211
1453	1.4447e+02	-17.8647	-55.084699	0.000527	5.270334	1.785638	-0.000211
1454	1.4457e+02	-17.8984	-55.306741	0.000557	5.574392	1.888655	-0.000223
1455	1.4467e+02	-17.9417	-55.536858	0.000578	5.777097	1.957334	-0.000231
1456	1.4477e+02	-17.9834	-55.726603	0.000476	4.763571	1.613942	-0.000191
1457	1.4487e+02	-18.0220	-55.956720	0.000578	5.777097	1.957334	-0.000231
1458	1.4497e+02	-18.0588	-56.178762	0.000557	5.574392	1.888655	-0.000223
1459	1.4507e+02	-18.1038	-56.376582	0.000497	4.966277	1.682620	-0.000199
1460	1.4517e+02	-18.1359	-56.638996	0.000659	6.587918	2.232047	-0.000264
1461	1.4527e+02	-18.1792	-56.877187	0.000598	5.979802	2.026012	-0.000239
1462	1.4537e+02	-18.2209	-57.066932	0.000476	4.763571	1.613942	-0.000191
1463	1.4547e+02	-18.2578	-57.321272	0.000639	6.385213	2.163369	-0.000256
1464	1.4557e+02	-18.2947	-57.575611	0.000639	6.385213	2.163369	-0.000256
1465	1.4567e+02	-18.3284	-57.773431	0.000497	4.966277	1.682620	-0.000199
1466	1.4577e+02	-18.3813	-57.987399	0.000537	5.371687	1.819977	-0.000215
1467	1.4587e+02	-18.4198	-58.213479	0.000568	5.675745	1.922994	-0.000227
1468	1.4597e+02	-18.4663	-58.492041	0.000699	6.993328	2.369404	-0.000280
1469	1.4607e+02	-18.4984	-58.726195	0.000588	5.878450	1.991673	-0.000235
1470	1.4617e+02	-18.5401	-58.964386	0.000598	5.979802	2.026012	-0.000239
1471	1.4626e+02	-18.5674	-59.222763	0.000649	6.486565	2.197708	-0.000260
1472	1.4636e+02	-18.6235	-59.464991	0.000608	6.081155	2.060351	-0.000243
1473	1.4646e+02	-18.6588	-59.755665	0.000730	7.297386	2.472421	-0.000292
1474	1.4656e+02	-18.6925	-59.973670	0.000547	5.473039	1.854316	-0.000219
1475	1.4666e+02	-18.7390	-60.219935	0.000618	6.182508	2.094690	-0.000248
1476	1.4676e+02	-18.7856	-60.429866	0.000527	5.270334	1.785638	-0.000211
1477	1.4686e+02	-18.8193	-60.752837	0.000811	8.108207	2.747135	-0.000325
1478	1.4696e+02	-18.8578	-61.035437	0.000709	7.094681	2.403743	-0.000284
1479	1.4706e+02	-18.8979	-61.273628	0.000598	5.979802	2.026012	-0.000239
1480	1.4716e+02	-18.9348	-61.576413	0.000760	7.601444	2.575439	-0.000304
1481	1.4726e+02	-18.9829	-61.810567	0.000588	5.878450	1.991673	-0.000235
1482	1.4736e+02	-19.0102	-62.077018	0.000669	6.689270	2.266386	-0.000268
1483	1.4746e+02	-19.0583	-62.355580	0.000699	6.993328	2.369404	-0.000280
1484	1.4756e+02	-19.0984	-62.658365	0.000760	7.601444	2.575439	-0.000304
1485	1.4766e+02	-19.1289	-62.928853	0.000679	6.790623	2.300725	-0.000272
1486	1.4776e+02	-19.1818	-63.175119	0.000618	6.182508	2.094690	-0.000248
1487	1.4786e+02	-19.2219	-63.510201	0.000841	8.412264	2.850152	-0.000337
1488	1.4796e+02	-19.2524	-63.716095	0.000517	5.168982	1.751298	-0.000207
1489	1.4806e+02	-19.2973	-64.067326	0.000882	8.817675	2.987509	-0.000353
1490	1.4816e+02	-19.3390	-64.345888	0.000699	6.993328	2.369404	-0.000280
1491	1.4825e+02	-19.3807	-64.644636	0.000750	7.500091	2.541100	-0.000300
1492	1.4835e+02	-19.4160	-64.995867	0.000882	8.817675	2.987509	-0.000353
1493	1.4845e+02	-19.4465	-65.225984	0.000578	5.777097	1.957334	-0.000231
1494	1.4855e+02	-19.4930	-65.520694	0.000740	7.398739	2.506760	-0.000296
1495	1.4865e+02	-19.5363	-65.839628	0.000801	8.006854	2.712796	-0.000321
1496	1.4875e+02	-19.5732	-66.154525	0.000791	7.905501	2.678456	-0.000316
1497	1.4885e+02	-19.6117	-66.477496	0.000811	8.108207	2.747135	-0.000325
1498	1.4895e+02	-19.6470	-66.743947	0.000669	6.689270	2.266386	-0.000268
1499	1.4905e+02	-19.6887	-67.079029	0.000841	8.412264	2.850152	-0.000337
1500	1.4915e+02	-19.7273	-67.430260	0.000882	8.817675	2.987509	-0.000353
1501	1.4925e+02	-19.7706	-67.733045	0.000760	7.601444	2.575439	-0.000304
1502	1.4935e+02	-19.8171	-68.072164	0.000851	8.513617	2.884491	-0.000341
1503	1.4945e+02	-19.8540	-68.370912	0.000750	7.500091	2.541100	-0.000300
1504	1.4955e+02	-19.8957	-68.718106	0.000872	8.716322	2.953170	-0.000349
1505	1.4965e+02	-19.9342	-69.041077	0.000811	8.108207	2.747135	-0.000325
1506	1.4975e+02	-19.9663	-69.364048	0.000811	8.108207	2.747135	-0.000325
1507	1.4985e+02	-20.0048	-69.703167	0.000851	8.513617	2.884491	-0.000341
1508	1.4995e+02	-19.9679	-69.868690	-0.000416	-4.155456	-1.407907	-0.000166
1509	1.5005e+02	-19.9278	-69.985767	-0.000294	-2.939225	-0.995836	-0.000118
1510	1.5015e+02	-19.8941	-70.098806	-0.000284	-2.837872	-0.961497	-0.000114
1511	1.5025e+02	-19.8572	-70.211846	-0.000284	-2.837872	-0.961497	-0.000114
1512	1.5034e+02	-19.7994	-70.292589	-0.000203	-2.027052	-0.686784	-0.000081
1513	1.5044e+02	-19.7754	-70.349109	-0.000142	-1.418936	-0.480749	-0.000057
1514	1.5054e+02	-19.7385	-70.421777	-0.000182	-1.824346	-0.618105	-0.000073
1515	1.5064e+02	-19.6920	-70.490409	-0.000172	-1.722994	-0.583766	-0.000069
1516	1.5074e+02	-19.6438	-70.559040	-0.000172	-1.722994	-0.583766	-0.000069
1517	1.5084e+02	-19.6182	-70.587300	-0.000071	-0.709468	-0.240374	-0.000028
1518	1.5094e+02	-19.5732	-70.587300	0.000000	0.000000	0.000000	0.000000
1519	1.5104e+02	-19.5331	-70.651894	-0.000162	-1.621641	-0.549427	-0.000065
1520	1.5114e+02	-19.4978	-70.623634	0.000071	0.709468	0.240374	0.000028
1521	1.5124e+02	-19.4609	-70.664005	-0.000101	-1.013526	-0.343392	-0.000041
1522	1.5134e+02	-19.4208	-70.639783	0.000061	0.608115	0.206035	0.000024
1523	1.5144e+02	-19.3759	-70.615560	0.000061	0.608115	0.206035	0.000024
1524	1.5154e+02	-19.3326	-70.639783	-0.000061	-0.608115	-0.206035	-0.000024
1525	1.5164e+02	-19.2941	-70.639783	0.000000	0.000000	0.000000	0.000000
1526	1.5174e+02	-19.2508	-70.668043	-0.000071	-0.709468	-0.240374	-0.000028
1527	1.5184e+02	-19.2171	-70.623634	0.000111	1.114878	0.377731	0.000045
1528	1.5194e+02	-19.1770	-70.627671	-0.000010	-0.101353	-0.034339	-0.000004
1529	1.5204e+02	-19.1321	-70.587300	0.000101	1.013526	0.343392	0.000041
1530	1.5214e+02	-19.0968	-70.583263	0.000010	0.101353	0.034339	0.000004
1531	1.5224e+02	-19.0615	-70.555003	0.000071	0.709468	0.240374	0.000028
1532	1.5233e+02	-19.0150	-70.506557	0.000122	1.216231	0.412070	0.000049
1533	1.5243e+02	-18.9765	-70.474260	0.000081	0.810821	0.274713	0.000032
1534	1.5253e+02	-18.9444	-70.446000	0.000071	0.709468	0.240374	0.000028
1535	1.5263e+02	-18.8914	-70.409666	0.000091	0.912173	0.309053	0.000037
1536	1.5273e+02	-18.8610	-70.373332	0.000091	0.912173	0.309053	0.000037
1537	1.5283e+02	-18.8177	-70.336997	0.000091	0.912173	0.309053	0.000037
1538	1.5293e+02	-18.7791	-70.292589	0.000111	1.114878	0.377731	0.000045
1539	1.5303e+02	-18.7487	-70.252218	0.000101	1.013526	0.343392	0.000041
1540	1.5313e+02	-18.7021	-70.227995	0.000061	0.608115	0.206035	0.000024
1541	1.5323e+02	-18.6620	-70.131103	0.000243	2.432462	0.824140	0.000097
1542	1.5333e+02	-18.6107	-70.102844	0.000071	0.709468	0.240374	0.000028
1543	1.5343e+02	-18.5722	-70.054398	0.000122	1.216231	0.412070	0.000049
1544	1.5353e+02	-18.5305	-70.014027	0.000101	1.013526	0.343392	0.000041
1545	1.5363e+02	-18.4952	-69.957507	0.000142	1.418936	0.480749	0.000057
1546	1.5373e+02	-18.4567	-69.852541	0.000264	2.635167	0.892819	0.000105
1547	1.5383e+02	-18.4182	-69.796021	0.000142	1.418936	0.480749	0.000057
1548	1.5393e+02	-18.3765	-69.747576	0.000122	1.216231	0.412070	0.000049
1549	1.5403e+02	-18.3348	-69.719316	0.000071	0.709468	0.240374	0.000028
1550	1.5413e+02	-18.2963	-69.618387	0.000253	2.533815	0.858480	0.000101
1551	1.5422e+02	-18.2610	-69.561867	0.000142	1.418936	0.480749	0.000057
1552	1.5432e+02	-18.2273	-69.525533	0.000091	0.912173	0.309053	0.000037
1553	1.5442e+02	-18.1776	-69.432679	0.000233	2.331109	0.789801	0.000093
1554	1.5452e+02	-18.1359	-69.400382	0.000081	0.810821	0.274713	0.000032
1555	1.5462e+02	-18.0941	-69.291379	0.000274	2.736520	0.927158	0.000110
1556	1.5472e+02	-18.0556	-69.271194	0.000051	0.506763	0.171696	0.000020
1557	1.5482e+02	-18.0203	-69.170265	0.000253	2.533815	0.858480	0.000101
1558	1.5492e+02	-17.9802	-69.113745	0.000142	1.418936	0.480749	0.000057
1559	1.5502e+02	-17.9449	-69.008780	0.000264	2.635167	0.892819	0.000105
1560	1.5512e+02	-17.9064	-68.968408	0.000101	1.013526	0.343392	0.000041
1561	1.5522e+02	-17.8631	-68.919963	0.000122	1.216231	0.412070	0.000049
1562	1.5532e+02	-17.8166	-68.794812	0.000314	3.141930	1.064515	0.000126
1563	1.5542e+02	-17.7845	-68.738292	0.000142	1.418936	0.480749	0.000057
1564	1.5552e+02	-17.7412	-68.693883	0.000111	1.114878	0.377731	0.000045
1565	1.5562e+02	-17.7027	-68.621215	0.000182	1.824346	0.618105	0.000073
1566	1.5572e+02	-17.6578	-68.544509	0.000193	1.925699	0.652445	0.000077
1567	1.5582e+02	-17.6305	-68.483952	0.000152	1.520289	0.515088	0.000061
1568	1.5592e+02	-17.5808	-68.395135	0.000223	2.229757	0.755462	0.000089
1569	1.5602e+02	-17.5423	-68.286132	0.000274	2.736520	0.927158	0.000110
1570	1.5612e+02	-17.4958	-68.241724	0.000111	1.114878	0.377731	0.000045
1571	1.5622e+02	-17.4621	-68.132721	0.000274	2.736520	0.927158	0.000110
1572	1.5631e+02	-17.4220	-68.104461	0.000071	0.709468	0.240374	0.000028
1573	1.5641e+02	-17.3899	-67.967199	0.000345	3.445988	1.167532	0.000138
1574	1.5651e+02	-17.3434	-67.910679	0.000142	1.418936	0.480749	0.000057
1575	1.5661e+02	-17.3017	-67.850122	0.000152	1.520289	0.515088	0.000061
1576	1.5671e+02	-17.2664	-67.757268	0.000233	2.331109	0.789801	0.000093
1577	1.5681e+02	-17.2214	-67.660376	0.000243	2.432462	0.824140	0.000097
1578	1.5691e+02	-17.1878	-67.632116	0.000071	0.709468	0.240374	0.000028
1579	1.5701e+02	-17.1476	-67.531188	0.000253	2.533815	0.858480	0.000101
1580	1.5711e+02	-17.0963	-67.410074	0.000304	3.040577	1.030176	0.000122
1581	1.5721e+02	-17.0674	-67.373740	0.000091	0.912173	0.309053	0.000037
1582	1.5731e+02	-17.0177	-67.317220	0.000142	1.418936	0.480749	0.000057
1583	1.5741e+02	-16.9872	-67.220329	0.000243	2.432462	0.824140	0.000097
1584	1.5751e+02	-16.9423	-67.099215	0.000304	3.040577	1.030176	0.000122
1585	1.5761e+02	-16.9006	-67.054806	0.000111	1.114878	0.377731	0.000045
1586	1.5771e+02	-16.8589	-66.945803	0.000274	2.736520	0.927158	0.000110
1587	1.5781e+02	-16.8252	-66.881209	0.000162	1.621641	0.549427	0.000065
1588	1.5791e+02	-16.7835	-66.824689	0.000142	1.418936	0.480749	0.000057
1589	1.5801e+02	-16.7466	-66.739909	0.000213	2.128404	0.721123	0.000085
1590	1.5811e+02	-16.7065	-66.667241	0.000182	1.824346	0.618105	0.000073
1591	1.5821e+02	-16.6600	-66.610721	0.000142	1.418936	0.480749	0.000057
1592	1.5830e+02	-16.6166	-66.489607	0.000304	3.040577	1.030176	0.000122
1593	1.5840e+02	-16.5749	-66.420976	0.000172	1.722994	0.583766	0.000069
1594	1.5850e+02	-16.5477	-66.364456	0.000142	1.418936	0.480749	0.000057
1595	1.5860e+02	-16.4963	-66.291787	0.000182	1.824346	0.618105	0.000073
1596	1.5870e+02	-16.4674	-66.235267	0.000142	1.418936	0.480749	0.000057
1597	1.5880e+02	-16.4225	-66.098005	0.000345	3.445988	1.167532	0.000138
1598	1.5890e+02	-16.3824	-65.993039	0.000264	2.635167	0.892819	0.000105
1599	1.5900e+02	-16.3600	-65.952668	0.000101	1.013526	0.343392	0.000041
1600	1.5910e+02	-16.3070	-65.847702	0.000264	2.635167	0.892819	0.000105
1601	1.5920e+02	-16.2621	-65.783108	0.000162	1.621641	0.549427	0.000065
1602	1.5930e+02	-16.2236	-65.678143	0.000264	2.635167	0.892819	0.000105
1603	1.5940e+02	-16.1851	-65.585289	0.000233	2.331109	0.789801	0.000093
1604	1.5950e+02	-16.1466	-65.565103	0.000051	0.506763	0.171696	0.000020
1605	1.5960e+02	-16.1049	-65.468212	0.000243	2.432462	0.824140	0.000097
1606	1.5970e+02	-16.0664	-65.367283	0.000253	2.533815	0.858480	0.000101
1607	1.5980e+02	-16.0359	-65.290578	0.000193	1.925699	0.652445	0.000077
1608	1.5990e+02	-15.9750	-65.225984	0.000162	1.621641	0.549427	0.000065
1609	1.6000e+02	-15.9397	-65.145241	0.000203	2.027052	0.686784	0.000081
1610	1.6010e+02	-15.9124	-65.036238	0.000274	2.736520	0.927158	0.000110
1611	1.6019e+02	-15.8723	-64.935310	0.000253	2.533815	0.858480	0.000101
1612	1.6029e+02	-15.8290	-64.834381	0.000253	2.533815	0.858480	0.000101
1613	1.6039e+02	-15.7889	-64.777861	0.000142	1.418936	0.480749	0.000057
1614	1.6049e+02	-15.7455	-64.693082	0.000213	2.128404	0.721123	0.000085
1615	1.6059e+02	-15.7038	-64.612339	0.000203	2.027052	0.686784	0.000081
1616	1.6069e+02	-15.6621	-64.523522	0.000223	2.229757	0.755462	0.000089
1617	1.6079e+02	-15.6300	-64.442779	0.000203	2.027052	0.686784	0.000081
1618	1.6089e+02	-15.5851	-64.301479	0.000355	3.547340	1.201871	0.000142
1619	1.6099e+02	-15.5434	-64.244960	0.000142	1.418936	0.480749	0.000057
1620	1.6109e+02	-15.5081	-64.168254	0.000193	1.925699	0.652445	0.000077
1621	1.6119e+02	-15.4792	-64.099623	0.000172	1.722994	0.583766	0.000069
1622	1.6129e+02	-15.4279	-63.994657	0.000264	2.635167	0.892819	0.000105
1623	1.6139e+02	-15.3878	-63.901803	0.000233	2.331109	0.789801	0.000093
1624	1.6149e+02	-15.3477	-63.796838	0.000264	2.635167	0.892819	0.000105
1625	1.6159e+02	-15.3060	-63.728206	0.000172	1.722994	0.583766	0.000069
1626	1.6169e+02	-15.2707	-63.655538	0.000182	1.824346	0.618105	0.000073
1627	1.6179e+02	-15.2338	-63.526349	0.000324	3.243283	1.098854	0.000130
1628	1.6189e+02	-15.1873	-63.453681	0.000182	1.824346	0.618105	0.000073
1629	1.6199e+02	-15.1488	-63.356790	0.000243	2.432462	0.824140	0.000097
1630	1.6209e+02	-15.1071	-63.292196	0.000162	1.621641	0.549427	0.000065
1631	1.6219e+02	-15.0686	-63.183193	0.000274	2.736520	0.927158	0.000110
1632	1.6228e+02	-15.0317	-63.122636	0.000152	1.520289	0.515088	0.000061
1633	1.6238e+02	-14.9835	-63.013633	0.000274	2.736520	0.927158	0.000110
1634	1.6248e+02	-14.9547	-62.892519	0.000304	3.040577	1.030176	0.000122
1635	1.6258e+02	-14.9162	-62.856185	0.000091	0.912173	0.309053	0.000037
1636	1.6268e+02	-14.8664	-62.739108	0.000294	2.939225	0.995836	0.000118
1637	1.6278e+02	-14.8215	-62.670477	0.000172	1.722994	0.583766	0.000069
1638	1.6288e+02	-14.7894	-62.537251	0.000334	3.344635	1.133193	0.000134
1639	1.6298e+02	-14.7477	-62.464583	0.000182	1.824346	0.618105	0.000073
1640	1.6308e+02	-14.7124	-62.395951	0.000172	1.722994	0.583766	0.000069
1641	1.6318e+02	-14.6707	-62.295023	0.000253	2.533815	0.858480	0.000101
1642	1.6328e+02	-14.6274	-62.202169	0.000233	2.331109	0.789801	0.000093
1643	1.6338e+02	-14.5889	-62.093166	0.000274	2.736520	0.927158	0.000110
1644	1.6348e+02	-14.5488	-62.044721	0.000122	1.216231	0.412070	0.000049
1645	1.6358e+02	-14.5087	-61.903421	0.000355	3.547340	1.201871	0.000142
1646	1.6368e+02	-14.4718	-61.850938	0.000132	1.317584	0.446409	0.000053
1647	1.6378e+02	-14.4365	-61.729824	0.000304	3.040577	1.030176	0.000122
1648	1.6388e+02	-14.3932	-61.620821	0.000274	2.736520	0.927158	0.000110
1649	1.6398e+02	-14.3531	-61.564301	0.000142	1.418936	0.480749	0.000057
1650	1.6408e+02	-14.3178	-61.463373	0.000253	2.533815	0.858480	0.000101
1651	1.6418e+02	-14.2713	-61.362445	0.000253	2.533815	0.858480	0.000101
1652	1.6427e+02	-14.2408	-61.297850	0.000162	1.621641	0.549427	0.000065
1653	1.6437e+02	-14.1878	-61.217108	0.000203	2.027052	0.686784	0.000081
1654	1.6447e+02	-14.1477	-61.075808	0.000355	3.547340	1.201871	0.000142
1655	1.6457e+02	-14.1189	-61.019288	0.000142	1.418936	0.480749	0.000057
1656	1.6467e+02	-14.0643	-60.922397	0.000243	2.432462	0.824140	0.000097
1657	1.6477e+02	-14.0338	-60.841654	0.000203	2.027052	0.686784	0.000081
1658	1.6487e+02	-14.0001	-60.736689	0.000264	2.635167	0.892819	0.000105
1659	1.6497e+02	-13.9488	-60.655946	0.000203	2.027052	0.686784	0.000081
1660	1.6507e+02	-13.9151	-60.555018	0.000253	2.533815	0.858480	0.000101
1661	1.6517e+02	-13.8686	-60.482349	0.000182	1.824346	0.618105	0.000073
1662	1.6527e+02	-13.8381	-60.341049	0.000355	3.547340	1.201871	0.000142
1663	1.6537e+02	-13.7964	-60.244158	0.000243	2.432462	0.824140	0.000097
1664	1.6547e+02	-13.7483	-60.179564	0.000162	1.621641	0.549427	0.000065
1665	1.6557e+02	-13.7146	-60.026153	0.000385	3.851398	1.304889	0.000154
1666	1.6567e+02	-13.6729	-59.989818	0.000091	0.912173	0.309053	0.000037
1667	1.6577e+02	-13.6280	-59.868704	0.000304	3.040577	1.030176	0.000122
1668	1.6587e+02	-13.5975	-59.812185	0.000142	1.418936	0.480749	0.000057
1669	1.6597e+02	-13.5638	-59.678959	0.000334	3.344635	1.133193	0.000134
1670	1.6607e+02	-13.5092	-59.573994	0.000264	2.635167	0.892819	0.000105
1671	1.6616e+02	-13.4836	-59.489214	0.000213	2.128404	0.721123	0.000085
1672	1.6626e+02	-13.4403	-59.376174	0.000284	2.837872	0.961497	0.000114
1673	1.6636e+02	-13.4018	-59.311580	0.000162	1.621641	0.549427	0.000065
1674	1.6646e+02	-13.3617	-59.182391	0.000324	3.243283	1.098854	0.000130
1675	1.6656e+02	-13.3296	-59.093574	0.000223	2.229757	0.755462	0.000089
1676	1.6666e+02	-13.2654	-58.936126	0.000395	3.952751	1.339228	0.000158
1677	1.6676e+02	-13.2429	-58.875569	0.000152	1.520289	0.515088	0.000061
1678	1.6686e+02	-13.2060	-58.778678	0.000243	2.432462	0.824140	0.000097
1679	1.6696e+02	-13.1595	-58.677749	0.000253	2.533815	0.858480	0.000101
1680	1.6706e+02	-13.1146	-58.576821	0.000253	2.533815	0.858480	0.000101
1681	1.6716e+02	-13.0777	-58.479930	0.000243	2.432462	0.824140	0.000097
1682	1.6726e+02	-13.0360	-58.374964	0.000264	2.635167	0.892819	0.000105
1683	1.6736e+02	-13.0087	-58.274036	0.000253	2.533815	0.858480	0.000101
1684	1.6746e+02	-12.9574	-58.148885	0.000314	3.141930	1.064515	0.000126
1685	1.6756e+02	-12.9173	-58.088328	0.000152	1.520289	0.515088	0.000061
1686	1.6766e+02	-12.8804	-57.979325	0.000274	2.736520	0.927158	0.000110
1687	1.6776e+02	-12.8258	-57.842062	0.000345	3.445988	1.167532	0.000138
1688	1.6786e+02	-12.8050	-57.801691	0.000101	1.013526	0.343392	0.000041
1689	1.6796e+02	-12.7601	-57.676540	0.000314	3.141930	1.064515	0.000126
1690	1.6806e+02	-12.7232	-57.575611	0.000253	2.533815	0.858480	0.000101
1691	1.6816e+02	-12.6815	-57.458534	0.000294	2.939225	0.995836	0.000118
1692	1.6825e+02	-12.6398	-57.389903	0.000172	1.722994	0.583766	0.000069
1693	1.6835e+02	-12.6077	-57.260715	0.000324	3.243283	1.098854	0.000130
1694	1.6845e+02	-12.5611	-57.155749	0.000264	2.635167	0.892819	0.000105
1695	1.6855e+02	-12.5275	-57.042709	0.000284	2.837872	0.961497	0.000114
1696	1.6865e+02	-12.4890	-56.998301	0.000111	1.114878	0.377731	0.000045
1697	1.6875e+02	-12.4424	-56.836815	0.000405	4.054103	1.373567	0.000162
1698	1.6885e+02	-12.3991	-56.739924	0.000243	2.432462	0.824140	0.000097
1699	1.6895e+02	-12.3590	-56.687441	0.000132	1.317584	0.446409	0.000053
1700	1.6905e+02	-12.3285	-56.586513	0.000253	2.533815	0.858480	0.000101
1701	1.6915e+02	-12.2884	-56.453288	0.000334	3.344635	1.133193	0.000134
1702	1.6925e+02	-12.2403	-56.332174	0.000304	3.040577	1.030176	0.000122
1703	1.6935e+02	-12.2034	-56.287765	0.000111	1.114878	0.377731	0.000045
1704	1.6945e+02	-12.1681	-56.158577	0.000324	3.243283	1.098854	0.000130
1705	1.6955e+02	-12.1136	-56.085908	0.000182	1.824346	0.618105	0.000073
1706	1.6965e+02	-12.0863	-55.976906	0.000274	2.736520	0.927158	0.000110
1707	1.6975e+02	-12.0494	-55.831569	0.000365	3.648693	1.236211	0.000146
1708	1.6985e+02	-12.0013	-55.775049	0.000142	1.418936	0.480749	0.000057
1709	1.6995e+02	-11.9660	-55.641823	0.000334	3.344635	1.133193	0.000134
1710	1.7005e+02	-11.9227	-55.557043	0.000213	2.128404	0.721123	0.000085
1711	1.7015e+02	-11.8713	-55.476301	0.000203	2.027052	0.686784	0.000081
1712	1.7024e+02	-11.8457	-55.335001	0.000355	3.547340	1.201871	0.000142
1713	1.7034e+02	-11.8039	-55.230035	0.000264	2.635167	0.892819	0.000105
1714	1.7044e+02	-11.7590	-55.145256	0.000213	2.128404	0.721123	0.000085
1715	1.7054e+02	-11.7285	-55.020104	0.000314	3.141930	1.064515	0.000126
1716	1.7064e+02	-11.6916	-54.927250	0.000233	2.331109	0.789801	0.000093
1717	1.7074e+02	-11.6451	-54.781913	0.000365	3.648693	1.236211	0.000146
1718	1.7084e+02	-11.6018	-54.689059	0.000233	2.331109	0.789801	0.000093
1719	1.7094e+02	-11.5601	-54.636577	0.000132	1.317584	0.446409	0.000053
1720	1.7104e+02	-11.5248	-54.547760	0.000223	2.229757	0.755462	0.000089
1721	1.7114e+02	-11.4831	-54.406460	0.000355	3.547340	1.201871	0.000142
1722	1.7124e+02	-11.4430	-54.273234	0.000334	3.344635	1.133193	0.000134
1723	1.7134e+02	-11.4029	-54.188454	0.000213	2.128404	0.721123	0.000085
1724	1.7144e+02	-11.3676	-54.075415	0.000284	2.837872	0.961497	0.000114
1725	1.7154e+02	-11.3259	-53.970449	0.000264	2.635167	0.892819	0.000105
1726	1.7164e+02	-11.2842	-53.865484	0.000264	2.635167	0.892819	0.000105
1727	1.7174e+02	-11.2585	-53.716110	0.000375	3.750046	1.270550	0.000150
1728	1.7184e+02	-11.2040	-53.607107	0.000274	2.736520	0.927158	0.000110
1729	1.7194e+02	-11.1623	-53.570773	0.000091	0.912173	0.309053	0.000037
1730	1.7204e+02	-11.1254	-53.425436	0.000365	3.648693	1.236211	0.000146
1731	1.7213e+02	-11.0852	-53.328545	0.000243	2.432462	0.824140	0.000097
1732	1.7223e+02	-11.0419	-53.227616	0.000253	2.533815	0.858480	0.000101
1733	1.7233e+02	-11.0050	-53.146873	0.000203	2.027052	0.686784	0.000081
1734	1.7243e+02	-10.9713	-52.993462	0.000385	3.851398	1.304889	0.000154
1735	1.7253e+02	-10.9232	-52.888497	0.000264	2.635167	0.892819	0.000105
1736	1.7263e+02	-10.8799	-52.775457	0.000284	2.837872	0.961497	0.000114
1737	1.7273e+02	-10.8478	-52.694714	0.000203	2.027052	0.686784	0.000081
1738	1.7283e+02	-10.8141	-52.581674	0.000284	2.837872	0.961497	0.000114
1739	1.7293e+02	-10.7660	-52.496895	0.000213	2.128404	0.721123	0.000085
1740	1.7303e+02	-10.7371	-52.335409	0.000405	4.054103	1.373567	0.000162
1741	1.7313e+02	-10.6922	-52.222369	0.000284	2.837872	0.961497	0.000114
1742	1.7323e+02	-10.6473	-52.145664	0.000193	1.925699	0.652445	0.000077
1743	1.7333e+02	-10.6056	-52.016475	0.000324	3.243283	1.098854	0.000130
1744	1.7343e+02	-10.5639	-51.931696	0.000213	2.128404	0.721123	0.000085
1745	1.7353e+02	-10.5254	-51.826730	0.000264	2.635167	0.892819	0.000105
1746	1.7363e+02	-10.4901	-51.665245	0.000405	4.054103	1.373567	0.000162
1747	1.7373e+02	-10.4468	-51.628910	0.000091	0.912173	0.309053	0.000037
1748	1.7383e+02	-10.4099	-51.487611	0.000355	3.547340	1.201871	0.000142
1749	1.7393e+02	-10.3794	-51.362459	0.000314	3.141930	1.064515	0.000126
1750	1.7403e+02	-10.3361	-51.269605	0.000233	2.331109	0.789801	0.000093
1751	1.7413e+02	-10.2863	-51.148491	0.000304	3.040577	1.030176	0.000122
1752	1.7422e+02	-10.2559	-51.075823	0.000182	1.824346	0.618105	0.000073
1753	1.7432e+02	-10.1981	-50.978932	0.000243	2.432462	0.824140	0.000097
1754	1.7442e+02	-10.1596	-50.841669	0.000345	3.445988	1.167532	0.000138
1755	1.7452e+02	-10.1275	-50.748815	0.000233	2.331109	0.789801	0.000093
1756	1.7462e+02	-10.0954	-50.651924	0.000243	2.432462	0.824140	0.000097
1757	1.7472e+02	-10.0409	-50.482364	0.000426	4.256808	1.442246	0.000170
1758	1.7482e+02	-10.0072	-50.389510	0.000233	2.331109	0.789801	0.000093
1759	1.7492e+02	-9.9703	-50.316841	0.000182	1.824346	0.618105	0.000073
1760	1.7502e+02	-9.9350	-50.187653	0.000324	3.243283	1.098854	0.000130
1761	1.7512e+02	-9.8853	-50.074613	0.000284	2.837872	0.961497	0.000114
1762	1.7522e+02	-9.8548	-49.985796	0.000223	2.229757	0.755462	0.000089
1763	1.7532e+02	-9.8163	-49.852571	0.000334	3.344635	1.133193	0.000134
1764	1.7542e+02	-9.7521	-49.743568	0.000274	2.736520	0.927158	0.000110
1765	1.7552e+02	-9.7361	-49.654751	0.000223	2.229757	0.755462	0.000089
1766	1.7562e+02	-9.6880	-49.533637	0.000304	3.040577	1.030176	0.000122
1767	1.7572e+02	-9.6463	-49.440783	0.000233	2.331109	0.789801	0.000093
1768	1.7582e+02	-9.6158	-49.303520	0.000345	3.445988	1.167532	0.000138
1769	1.7592e+02	-9.5725	-49.226815	0.000193	1.925699	0.652445	0.000077
1770	1.7602e+02	-9.5307	-49.121849	0.000264	2.635167	0.892819	0.000105
1771	1.7612e+02	-9.5003	-48.956327	0.000416	4.155456	1.407907	0.000166
1772	1.7621e+02	-9.4489	-48.839250	0.000294	2.939225	0.995836	0.000118
1773	1.7631e+02	-9.4152	-48.770618	0.000172	1.722994	0.583766	0.000069
1774	1.7641e+02	-9.3655	-48.661616	0.000274	2.736520	0.927158	0.000110
1775	1.7651e+02	-9.3318	-48.580873	0.000203	2.027052	0.686784	0.000081
1776	1.7661e+02	-9.2949	-48.431499	0.000375	3.750046	1.270550	0.000150
1777	1.7671e+02	-9.2532	-48.330570	0.000253	2.533815	0.858480	0.000101
1778	1.7681e+02	-9.2115	-48.201382	0.000324	3.243283	1.098854	0.000130
1779	1.7691e+02	-9.1698	-48.088342	0.000284	2.837872	0.961497	0.000114
1780	1.7701e+02	-9.1233	-47.930894	0.000395	3.952751	1.339228	0.000158
1781	1.7711e+02	-9.1008	-47.813817	0.000294	2.939225	0.995836	0.000118
1782	1.7721e+02	-9.0511	-47.745186	0.000172	1.722994	0.583766	0.000069
1783	1.7731e+02	-9.0142	-47.607923	0.000345	3.445988	1.167532	0.000138
1784	1.7741e+02	-8.9741	-47.527180	0.000203	2.027052	0.686784	0.000081
1785	1.7751e+02	-8.9292	-47.393955	0.000334	3.344635	1.133193	0.000134
1786	1.7761e+02	-8.8874	-47.260730	0.000334	3.344635	1.133193	0.000134
1787	1.7771e+02	-8.8506	-47.119430	0.000355	3.547340	1.201871	0.000142
1788	1.7781e+02	-8.8072	-47.066947	0.000132	1.317584	0.446409	0.000053
1789	1.7791e+02	-8.7735	-46.913536	0.000385	3.851398	1.304889	0.000154
1790	1.7801e+02	-8.7302	-46.812607	0.000253	2.533815	0.858480	0.000101
1791	1.7810e+02	-8.6949	-46.703605	0.000274	2.736520	0.927158	0.000110
1792	1.7820e+02	-8.6564	-46.578454	0.000314	3.141930	1.064515	0.000126
1793	1.7830e+02	-8.6115	-46.465414	0.000284	2.837872	0.961497	0.000114
1794	1.7840e+02	-8.5842	-46.344300	0.000304	3.040577	1.030176	0.000122
1795	1.7850e+02	-8.5297	-46.211074	0.000334	3.344635	1.133193	0.000134
1796	1.7860e+02	-8.4944	-46.162629	0.000122	1.216231	0.412070	0.000049
1797	1.7870e+02	-8.4511	-45.993069	0.000426	4.256808	1.442246	0.000170
1798	1.7880e+02	-8.4110	-45.855806	0.000345	3.445988	1.167532	0.000138
1799	1.7890e+02	-8.3741	-45.762952	0.000233	2.331109	0.789801	0.000093
1800	1.7900e+02	-8.3340	-45.633764	0.000324	3.243283	1.098854	0.000130
1801	1.7910e+02	-8.2923	-45.540910	0.000233	2.331109	0.789801	0.000093
1802	1.7920e+02	-8.2522	-45.387499	0.000385	3.851398	1.304889	0.000154
1803	1.7930e+02	-8.2121	-45.290607	0.000243	2.432462	0.824140	0.000097
1804	1.7940e+02	-8.1768	-45.153345	0.000345	3.445988	1.167532	0.000138
1805	1.7950e+02	-8.1383	-45.040305	0.000284	2.837872	0.961497	0.000114
1806	1.7960e+02	-8.0950	-44.951488	0.000223	2.229757	0.755462	0.000089
1807	1.7970e+02	-8.0500	-44.822300	0.000324	3.243283	1.098854	0.000130
1808	1.7980e+02	-8.0276	-44.709260	0.000284	2.837872	0.961497	0.000114
1809	1.7990e+02	-7.9811	-44.584109	0.000314	3.141930	1.064515	0.000126
1810	1.8000e+02	-7.9345	-44.450883	0.000334	3.344635	1.133193	0.000134
1811	1.8009e+02	-7.9041	-44.358029	0.000233	2.331109	0.789801	0.000093
1812	1.8019e+02	-7.8559	-44.224803	0.000334	3.344635	1.133193	0.000134
1813	1.8029e+02	-7.8094	-44.087541	0.000345	3.445988	1.167532	0.000138
1814	1.8039e+02	-7.7805	-43.962390	0.000314	3.141930	1.064515	0.000126
1815	1.8049e+02	-7.7420	-43.905870	0.000142	1.418936	0.480749	0.000057
1816	1.8059e+02	-7.6939	-43.736310	0.000426	4.256808	1.442246	0.000170
1817	1.8069e+02	-7.6666	-43.599047	0.000345	3.445988	1.167532	0.000138
1818	1.8079e+02	-7.6185	-43.498119	0.000253	2.533815	0.858480	0.000101
1819	1.8089e+02	-7.5752	-43.360856	0.000345	3.445988	1.167532	0.000138
1820	1.8099e+02	-7.5319	-43.251854	0.000274	2.736520	0.927158	0.000110
1821	1.8109e+02	-7.5046	-43.163037	0.000223	2.229757	0.755462	0.000089
1822	1.8119e+02	-7.4645	-43.009626	0.000385	3.851398	1.304889	0.000154
1823	1.8129e+02	-7.4276	-42.896586	0.000284	2.837872	0.961497	0.000114
1824	1.8139e+02	-7.3731	-42.767397	0.000324	3.243283	1.098854	0.000130
1825	1.8149e+02	-7.3394	-42.658395	0.000274	2.736520	0.927158	0.000110
1826	1.8159e+02	-7.2993	-42.537281	0.000304	3.040577	1.030176	0.000122
1827	1.8169e+02	-7.2575	-42.400018	0.000345	3.445988	1.167532	0.000138
1828	1.8179e+02	-7.2190	-42.282941	0.000294	2.939225	0.995836	0.000118
1829	1.8189e+02	-7.1805	-42.125493	0.000395	3.952751	1.339228	0.000158
1830	1.8199e+02	-7.1372	-42.012453	0.000284	2.837872	0.961497	0.000114
1831	1.8209e+02	-7.0939	-41.871153	0.000355	3.547340	1.201871	0.000142
1832	1.8218e+02	-7.0570	-41.750039	0.000304	3.040577	1.030176	0.000122
1833	1.8228e+02	-7.0265	-41.641037	0.000274	2.736520	0.927158	0.000110
1834	1.8238e+02	-6.9880	-41.527997	0.000284	2.837872	0.961497	0.000114
1835	1.8248e+02	-6.9399	-41.378623	0.000375	3.750046	1.270550	0.000150
1836	1.8258e+02	-6.9014	-41.249434	0.000324	3.243283	1.098854	0.000130
1837	1.8268e+02	-6.8613	-41.124283	0.000314	3.141930	1.064515	0.000126
1838	1.8278e+02	-6.8132	-40.991058	0.000334	3.344635	1.133193	0.000134
1839	1.8288e+02	-6.7795	-40.882055	0.000274	2.736520	0.927158	0.000110
1840	1.8298e+02	-6.7426	-40.777090	0.000264	2.635167	0.892819	0.000105
1841	1.8308e+02	-6.6945	-40.579270	0.000497	4.966277	1.682620	0.000199
1842	1.8318e+02	-6.6592	-40.466230	0.000284	2.837872	0.961497	0.000114
1843	1.8328e+02	-6.6303	-40.345116	0.000304	3.040577	1.030176	0.000122
1844	1.8338e+02	-6.5854	-40.236113	0.000274	2.736520	0.927158	0.000110
1845	1.8348e+02	-6.5437	-40.062516	0.000436	4.358161	1.476585	0.000174
1846	1.8358e+02	-6.5036	-39.945440	0.000294	2.939225	0.995836	0.000118
1847	1.8368e+02	-6.4635	-39.828363	0.000294	2.939225	0.995836	0.000118
1848	1.8378e+02	-6.4217	-39.699174	0.000324	3.243283	1.098854	0.000130
1849	1.8388e+02	-6.3929	-39.574023	0.000314	3.141930	1.064515	0.000126
1850	1.8398e+02	-6.3463	-39.428686	0.000365	3.648693	1.236211	0.000146
1851	1.8407e+02	-6.3062	-39.335832	0.000233	2.331109	0.789801	0.000093
1852	1.8417e+02	-6.2645	-39.138012	0.000497	4.966277	1.682620	0.000199
1853	1.8427e+02	-6.2260	-39.053233	0.000213	2.128404	0.721123	0.000085
1854	1.8437e+02	-6.1891	-38.915970	0.000345	3.445988	1.167532	0.000138
1855	1.8447e+02	-6.1458	-38.774670	0.000355	3.547340	1.201871	0.000142
1856	1.8457e+02	-6.1041	-38.637408	0.000345	3.445988	1.167532	0.000138
1857	1.8467e+02	-6.0576	-38.520331	0.000294	2.939225	0.995836	0.000118
1858	1.8477e+02	-6.0287	-38.391142	0.000324	3.243283	1.098854	0.000130
1859	1.8487e+02	-5.9854	-38.274065	0.000294	2.939225	0.995836	0.000118
1860	1.8497e+02	-5.9437	-38.092394	0.000456	4.560866	1.545263	0.000183
1861	1.8507e+02	-5.9084	-37.987429	0.000264	2.635167	0.892819	0.000105
1862	1.8517e+02	-5.8571	-37.829980	0.000395	3.952751	1.339228	0.000158
1863	1.8527e+02	-5.8282	-37.716941	0.000284	2.837872	0.961497	0.000114
1864	1.8537e+02	-5.7913	-37.616012	0.000253	2.533815	0.858480	0.000101
1865	1.8547e+02	-5.7432	-37.470675	0.000365	3.648693	1.236211	0.000146
1866	1.8557e+02	-5.7047	-37.321301	0.000375	3.750046	1.270550	0.000150
1867	1.8567e+02	-5.6726	-37.139630	0.000456	4.560866	1.545263	0.000183
1868	1.8577e+02	-5.6276	-37.050813	0.000223	2.229757	0.755462	0.000089
1869	1.8587e+02	-5.5891	-36.925662	0.000314	3.141930	1.064515	0.000126
1870	1.8597e+02	-5.5490	-36.792437	0.000334	3.344635	1.133193	0.000134
1871	1.8606e+02	-5.4993	-36.610765	0.000456	4.560866	1.545263	0.000183
1872	1.8616e+02	-5.4608	-36.513874	0.000243	2.432462	0.824140	0.000097
1873	1.8626e+02	-5.4367	-36.400834	0.000284	2.837872	0.961497	0.000114
1874	1.8636e+02	-5.3918	-36.271646	0.000324	3.243283	1.098854	0.000130
1875	1.8646e+02	-5.3437	-36.126309	0.000365	3.648693	1.236211	0.000146
1876	1.8656e+02	-5.3068	-35.964824	0.000405	4.054103	1.373567	0.000162
1877	1.8666e+02	-5.2779	-35.847747	0.000294	2.939225	0.995836	0.000118
1878	1.8676e+02	-5.2250	-35.678187	0.000426	4.256808	1.442246	0.000170
1879	1.8686e+02	-5.1817	-35.557073	0.000304	3.040577	1.030176	0.000122
1880	1.8696e+02	-5.1496	-35.391550	0.000416	4.155456	1.407907	0.000166
1881	1.8706e+02	-5.1079	-35.286585	0.000264	2.635167	0.892819	0.000105
1882	1.8716e+02	-5.0758	-35.165471	0.000304	3.040577	1.030176	0.000122
1883	1.8726e+02	-5.0293	-35.032245	0.000334	3.344635	1.133193	0.000134
1884	1.8736e+02	-4.9988	-34.854611	0.000446	4.459514	1.510924	0.000179
1885	1.8746e+02	-4.9587	-34.737534	0.000294	2.939225	0.995836	0.000118
1886	1.8756e+02	-4.9073	-34.588160	0.000375	3.750046	1.270550	0.000150
1887	1.8766e+02	-4.8688	-34.430712	0.000395	3.952751	1.339228	0.000158
1888	1.8776e+02	-4.8287	-34.341895	0.000223	2.229757	0.755462	0.000089
1889	1.8786e+02	-4.7967	-34.156187	0.000466	4.662219	1.579602	0.000187
1890	1.8796e+02	-4.7517	-34.067370	0.000223	2.229757	0.755462	0.000089
1891	1.8806e+02	-4.7116	-33.938182	0.000324	3.243283	1.098854	0.000130
1892	1.8815e+02	-4.6795	-33.796882	0.000355	3.547340	1.201871	0.000142
1893	1.8825e+02	-4.6346	-33.607136	0.000476	4.763571	1.613942	0.000191
1894	1.8835e+02	-4.5961	-33.473911	0.000334	3.344635	1.133193	0.000134
1895	1.8845e+02	-4.5544	-33.344723	0.000324	3.243283	1.098854	0.000130
1896	1.8855e+02	-4.5111	-33.207460	0.000345	3.445988	1.167532	0.000138
1897	1.8865e+02	-4.4758	-33.005603	0.000507	5.067629	1.716959	0.000203
1898	1.8875e+02	-4.4341	-32.908712	0.000243	2.432462	0.824140	0.000097
1899	1.8885e+02	-4.3844	-32.751264	0.000395	3.952751	1.339228	0.000158
1900	1.8895e+02	-4.3571	-32.626112	0.000314	3.141930	1.064515	0.000126
1901	1.8905e+02	-4.3042	-32.484813	0.000355	3.547340	1.201871	0.000142
1902	1.8915e+02	-4.2769	-32.311216	0.000436	4.358161	1.476585	0.000174
1903	1.8925e+02	-4.2400	-32.198176	0.000284	2.837872	0.961497	0.000114
1904	1.8935e+02	-4.1919	-32.044765	0.000385	3.851398	1.304889	0.000154
1905	1.8945e+02	-4.1518	-31.907502	0.000345	3.445988	1.167532	0.000138
1906	1.8955e+02	-4.1068	-31.774277	0.000334	3.344635	1.133193	0.000134
1907	1.8965e+02	-4.0651	-31.596643	0.000446	4.459514	1.510924	0.000179
1908	1.8975e+02	-4.0362	-31.463417	0.000334	3.344635	1.133193	0.000134
1909	1.8985e+02	-3.9897	-31.326155	0.000345	3.445988	1.167532	0.000138
1910	1.8995e+02	-3.9528	-31.201004	0.000314	3.141930	1.064515	0.000126
1911	1.9004e+02	-3.9127	-30.999147	0.000507	5.067629	1.716959	0.000203
1912	1.9014e+02	-3.8726	-30.865921	0.000334	3.344635	1.133193	0.000134
1913	1.9024e+02	-3.8389	-30.744807	0.000304	3.040577	1.030176	0.000122
1914	1.9034e+02	-3.8004	-30.607545	0.000345	3.445988	1.167532	0.000138
1915	1.9044e+02	-3.7555	-30.450096	0.000395	3.952751	1.339228	0.000158
1916	1.9054e+02	-3.7122	-30.272462	0.000446	4.459514	1.510924	0.000179
1917	1.9064e+02	-3.6801	-30.163460	0.000274	2.736520	0.927158	0.000110
1918	1.9074e+02	-3.6400	-30.034271	0.000324	3.243283	1.098854	0.000130
1919	1.9084e+02	-3.5855	-29.917194	0.000294	2.939225	0.995836	0.000118
1920	1.9094e+02	-3.5566	-29.727449	0.000476	4.763571	1.613942	0.000191
1921	1.9104e+02	-3.5117	-29.622483	0.000264	2.635167	0.892819	0.000105
1922	1.9114e+02	-3.4780	-29.432738	0.000476	4.763571	1.613942	0.000191
1923	1.9124e+02	-3.4443	-29.303550	0.000324	3.243283	1.098854	0.000130
1924	1.9134e+02	-3.3930	-29.133990	0.000426	4.256808	1.442246	0.000170
1925	1.9144e+02	-3.3609	-29.041136	0.000233	2.331109	0.789801	0.000093
1926	1.9154e+02	-3.3143	-28.875613	0.000416	4.155456	1.407907	0.000166
1927	1.9164e+02	-3.2678	-28.702017	0.000436	4.358161	1.476585	0.000174
1928	1.9174e+02	-3.2389	-28.564754	0.000345	3.445988	1.167532	0.000138
1929	1.9184e+02	-3.1988	-28.455751	0.000274	2.736520	0.927158	0.000110
1930	1.9194e+02	-3.1571	-28.286192	0.000426	4.256808	1.442246	0.000170
1931	1.9203e+02	-3.1090	-28.112595	0.000436	4.358161	1.476585	0.000174
1932	1.9213e+02	-3.0881	-28.011666	0.000253	2.533815	0.858480	0.000101
1933	1.9223e+02	-3.0400	-27.870367	0.000355	3.547340	1.201871	0.000142
1934	1.9233e+02	-2.9919	-27.676584	0.000486	4.864924	1.648281	0.000195
1935	1.9243e+02	-2.9614	-27.547396	0.000324	3.243283	1.098854	0.000130
1936	1.9253e+02	-2.9181	-27.442430	0.000264	2.635167	0.892819	0.000105
1937	1.9263e+02	-2.8780	-27.289019	0.000385	3.851398	1.304889	0.000154
1938	1.9273e+02	-2.8395	-27.103311	0.000466	4.662219	1.579602	0.000187
1939	1.9283e+02	-2.8010	-26.978160	0.000314	3.141930	1.064515	0.000126
1940	1.9293e+02	-2.7593	-26.824748	0.000385	3.851398	1.304889	0.000154
1941	1.9303e+02	-2.7160	-26.651152	0.000436	4.358161	1.476585	0.000174
1942	1.9313e+02	-2.6807	-26.538112	0.000284	2.837872	0.961497	0.000114
1943	1.9323e+02	-2.6406	-26.360478	0.000446	4.459514	1.510924	0.000179
1944	1.9333e+02	-2.5989	-26.219178	0.000355	3.547340	1.201871	0.000142
1945	1.9343e+02	-2.5604	-26.061730	0.000395	3.952751	1.339228	0.000158
1946	1.9353e+02	-2.5186	-25.888133	0.000436	4.358161	1.476585	0.000174
1947	1.9363e+02	-2.4769	-25.702425	0.000466	4.662219	1.579602	0.000187
1948	1.9373e+02	-2.4449	-25.617645	0.000213	2.128404	0.721123	0.000085
1949	1.9383e+02	-2.4063	-25.472308	0.000365	3.648693	1.236211	0.000146
1950	1.9393e+02	-2.3598	-25.282563	0.000476	4.763571	1.613942	0.000191
1951	1.9403e+02	-2.3277	-25.149337	0.000334	3.344635	1.133193	0.000134
1952	1.9412e+02	-2.2796	-24.991889	0.000395	3.952751	1.339228	0.000158
1953	1.9422e+02	-2.2475	-24.814255	0.000446	4.459514	1.510924	0.000179
1954	1.9432e+02	-2.2074	-24.668918	0.000365	3.648693	1.236211	0.000146
1955	1.9442e+02	-2.1625	-24.547804	0.000304	3.040577	1.030176	0.000122
1956	1.9452e+02	-2.1272	-24.354021	0.000486	4.864924	1.648281	0.000195
1957	1.9462e+02	-2.0807	-24.232907	0.000304	3.040577	1.030176	0.000122
1958	1.9472e+02	-2.0438	-24.059310	0.000436	4.358161	1.476585	0.000174
1959	1.9482e+02	-2.0005	-23.934159	0.000314	3.141930	1.064515	0.000126
1960	1.9492e+02	-1.9652	-23.744414	0.000476	4.763571	1.613942	0.000191
1961	1.9502e+02	-1.9299	-23.623300	0.000304	3.040577	1.030176	0.000122
1962	1.9512e+02	-1.8818	-23.417406	0.000517	5.168982	1.751298	0.000207
1963	1.9522e+02	-1.8449	-23.296292	0.000304	3.040577	1.030176	0.000122
1964	1.9532e+02	-1.8016	-23.114621	0.000456	4.560866	1.545263	0.000183
1965	1.9542e+02	-1.7631	-22.989469	0.000314	3.141930	1.064515	0.000126
1966	1.9552e+02	-1.7197	-22.803761	0.000466	4.662219	1.579602	0.000187
1967	1.9562e+02	-1.6812	-22.638239	0.000416	4.155456	1.407907	0.000166
1968	1.9572e+02	-1.6411	-22.496939	0.000355	3.547340	1.201871	0.000142
1969	1.9582e+02	-1.5994	-22.319305	0.000446	4.459514	1.510924	0.000179
1970	1.9592e+02	-1.5657	-22.202228	0.000294	2.939225	0.995836	0.000118
1971	1.9601e+02	-1.5240	-22.008445	0.000486	4.864924	1.648281	0.000195
1972	1.9611e+02	-1.4727	-21.895406	0.000284	2.837872	0.961497	0.000114
1973	1.9621e+02	-1.4374	-21.665289	0.000578	5.777097	1.957334	0.000231
1974	1.9631e+02	-1.4037	-21.528026	0.000345	3.445988	1.167532	0.000138
1975	1.9641e+02	-1.3652	-21.378652	0.000375	3.750046	1.270550	0.000150
1976	1.9651e+02	-1.3251	-21.217167	0.000405	4.054103	1.373567	0.000162
1977	1.9661e+02	-1.2754	-21.083941	0.000334	3.344635	1.133193	0.000134
1978	1.9671e+02	-1.2465	-20.946679	0.000345	3.445988	1.167532	0.000138
1979	1.9681e+02	-1.2000	-20.769045	0.000446	4.459514	1.510924	0.000179
1980	1.9691e+02	-1.1615	-20.623708	0.000365	3.648693	1.236211	0.000146
1981	1.9701e+02	-1.1246	-20.438000	0.000466	4.662219	1.579602	0.000187
1982	1.9711e+02	-1.0780	-20.288626	0.000375	3.750046	1.270550	0.000150
1983	1.9721e+02	-1.0508	-20.115029	0.000436	4.358161	1.476585	0.000174
1984	1.9731e+02	-1.0123	-19.973729	0.000355	3.547340	1.201871	0.000142
1985	1.9741e+02	-0.9657	-19.804169	0.000426	4.256808	1.442246	0.000170
1986	1.9751e+02	-0.9208	-19.654795	0.000375	3.750046	1.270550	0.000150
1987	1.9761e+02	-0.8823	-19.465050	0.000476	4.763571	1.613942	0.000191
1988	1.9771e+02	-0.8374	-19.323750	0.000355	3.547340	1.201871	0.000142
1989	1.9781e+02	-0.8021	-19.186488	0.000345	3.445988	1.167532	0.000138
1990	1.9791e+02	-0.7652	-19.029039	0.000395	3.952751	1.339228	0.000158
1991	1.9800e+02	-0.7267	-18.819108	0.000527	5.270334	1.785638	0.000211
1992	1.9810e+02	-0.6914	-18.677808	0.000355	3.547340	1.201871	0.000142
1993	1.9820e+02	-0.6513	-18.516323	0.000405	4.054103	1.373567	0.000162
1994	1.9830e+02	-0.6080	-18.362912	0.000385	3.851398	1.304889	0.000154
1995	1.9840e+02	-0.5599	-18.185278	0.000446	4.459514	1.510924	0.000179
1996	1.9850e+02	-0.5294	-18.011681	0.000436	4.358161	1.476585	0.000174
1997	1.9860e+02	-0.4877	-17.870381	0.000355	3.547340	1.201871	0.000142
1998	1.9870e+02	-0.4460	-17.721007	0.000375	3.750046	1.270550	0.000150
1999	1.9880e+02	-0.4075	-17.571633	0.000375	3.750046	1.270550	0.000150
2000	1.9890e+02	-0.3706	-17.385925	0.000466	4.662219	1.579602	0.000187
2001	1.9900e+02	-0.3321	-17.212328	0.000436	4.358161	1.476585	0.000174
2002	1.9910e+02	-0.2856	-17.050843	0.000405	4.054103	1.373567	0.000162
2003	1.9920e+02	-0.2519	-16.861097	0.000476	4.763571	1.613942	0.000191
2004	1.9930e+02	-0.2037	-16.711723	0.000375	3.750046	1.270550	0.000150
2005	1.9940e+02	-0.1588	-16.513904	0.000497	4.966277	1.682620	0.000199
2006	1.9950e+02	-0.1203	-16.372604	0.000355	3.547340	1.201871	0.000142
2007	1.9960e+02	-0.0930	-16.211119	0.000405	4.054103	1.373567	0.000162
2008	1.9970e+02	-0.0465	-16.013299	0.000497	4.966277	1.682620	0.000199
2009	1.9980e+02	-0.0112	-15.892185	0.000497	4.966277	1.682620	0.000122

Center data before PMax,+/-Pr and +/-Vc Calc.

PMax (uC/cm2):	7.07e+01
Pr (uC/cm2):	9.32e+00
-Pr (uC/cm2):	-1.59e+01
PLoss (uC/cm2):	-1.90e+01
-Vc:	-2.26e+00
C (Max-Eff) (nF):	3.54e-01
K (Eff):	1.20e+03
Vert. (+/-Pr) Shift (uC/cm2):	-3.29e+00
Offset (uC/cm2):	-3.07e+00

A (Loop Area - uC/cm2·Volts):	-1.77e-02



Hysteresis Version: 5.48.1 - Radiant Technologies, Inc., 1999 - 9/12/24

