»»»»»»»»»»»»»»»»»»»»»»»»»»»»»»»»»»»» Hysteresis ««««««««««««««««««««««««««««««««««««
»»»  Executed Version:	5.48.1
»»»  Vision Version:	5.48.4 (R)
»»»  Vision Compiled:	9/18/24
»»»  Driver Version:	5.47.0
»»»  Windows Version:	Windows 8 or 8.1
»»»  Processor Information:	x86 (AMD or Intel) - 32 Processors
»»»  Tester Name:	PMF21124-494 (100V)
»»»  Tester S/N:	PMF21124-494
»»»  Internal Amp Type:	100V RevK 270k
»»»  Internal Amp S/N:	iAB2-596/K     
»»»  Execution Count:	1
»»»»»»»»»»»»»»»»»»»»»»»»»»»»»»»»»»»»»»»»»»««««««««««««««««««««««««««««««««««««««««««

Stored:	6/11/2025 - 10:29:53
Configured:	06/11/25 10:21:25 AM
Executed:	06/11/25 10:28:55 AM

»»»»»»»»»»»»»»»»»»»»»»»»»»»»»»»»»»» Sample Info ««««««««««««««««««««««««««««««««««««
Sample Name:	
Lot Name:	
Wafer Name:	
Die Row/Column:	0/0
Capacitor Number:	0
Sample Area (cm2):	1.00e-04
Sample Thickness (microns):	3.00e-01

Amplifier:	Internal

»»»»»»»»»»»»»»»»»»»»»»»»»»»»»»»»»»» Tester Info «««««««««««««««««««««««««««««««««««
Tester Name:	PMF21124-494 (100V)
Tester Serial Number:	PMF21124-494
Return Signal Amp. Level:	1.9 [Index: 2]

»»»»»»»»»»»»»»»»»»»»»»»»»»»»»»»» Hysteresis Info ««««««««««««««««««««««««««««««««««
Task Name:	Hyst-1175
Volts:	20.00
Field:	666.67 (kV/cm)
DCBias:	0.00
DCField:	0.00 (kV/cm)
Hysteresis Period (ms):	2.00e+02
Preset:	Enabled
Preset Delay (ms):	1.00e+03
Profile:	Standard Bipolar

»»»»»»»»»»»»»»»»»»»»»»»»»»»»»»»»»»»»»» Data «««««««««««««««««««««««««««««««««««««««
Points:	2009

Valid Data

Point	Time (ms)	Drive Voltage	Measured Polarization (uC/cm2)	Capacitance (uF)	Normalized Capacitance (uF/cm2)	Dielectric Constant	Instantaneous Current (mA)
   1	0.0000e+00	0.0112	-1.846280	0.000123	1.228862	0.416350	0.000050
   2	9.9500e-02	0.0401	-1.796992	0.000123	1.228862	0.416350	0.000050
   3	1.9900e-01	0.0850	-1.721226	0.000189	1.888994	0.640009	0.000076
   4	2.9850e-01	0.0979	-1.636906	0.000210	2.102268	0.712268	0.000085
   5	3.9800e-01	0.1460	-1.561548	0.000188	1.878838	0.636568	0.000076
   6	4.9750e-01	0.1893	-1.485375	0.000190	1.899150	0.643449	0.000077
   7	5.9700e-01	0.2406	-1.407165	0.000195	1.949930	0.660654	0.000079
   8	6.9650e-01	0.2936	-1.325696	0.000203	2.031177	0.688181	0.000082
   9	7.9600e-01	0.3401	-1.248709	0.000192	1.919462	0.650331	0.000077
  10	8.9550e-01	0.3658	-1.168462	0.000200	2.000709	0.677859	0.000081
  11	9.9500e-01	0.4139	-1.091067	0.000193	1.929618	0.653772	0.000078
  12	1.0945e+00	0.4027	-1.002266	-0.000221	-2.213983	-0.750118	0.000089
  13	1.1940e+00	0.4652	-0.920798	0.000203	2.031177	0.688181	0.000082
  14	1.2935e+00	0.5118	-0.837700	0.000207	2.071800	0.701945	0.000084
  15	1.3930e+00	0.5551	-0.759083	0.000196	1.960085	0.664095	0.000079
  16	1.4925e+00	0.5823	-0.680466	0.000196	1.960085	0.664095	0.000079
  17	1.5920e+00	0.6369	-0.596146	0.000210	2.102268	0.712268	0.000085
  18	1.6915e+00	0.6625	-0.512233	0.000209	2.092112	0.708827	0.000084
  19	1.7910e+00	0.7010	-0.433209	0.000197	1.970241	0.667536	0.000079
  20	1.8905e+00	0.7781	-0.350111	0.000207	2.071800	0.701945	0.000084
  21	1.9900e+00	0.7957	-0.265791	0.000210	2.102268	0.712268	0.000085
  22	2.0895e+00	0.8230	-0.182286	0.000208	2.081956	0.705386	0.000084
  23	2.1890e+00	0.8743	-0.097151	0.000212	2.122580	0.719149	0.000086
  24	2.2885e+00	0.9112	-0.016090	0.000202	2.021021	0.684740	0.000081
  25	2.3880e+00	0.9433	0.066601	0.000206	2.061644	0.698504	0.000083
  26	2.4875e+00	0.9962	0.146440	0.000199	1.990553	0.674418	0.000080
  27	2.5870e+00	1.0315	0.232796	0.000215	2.153047	0.729472	0.000087
  28	2.6865e+00	1.0813	0.314265	0.000203	2.031177	0.688181	0.000082
  29	2.7860e+00	1.1262	0.394919	0.000201	2.010865	0.681299	0.000081
  30	2.8855e+00	1.1390	0.475572	0.000201	2.010865	0.681299	0.000081
  31	2.9850e+00	1.2016	0.557041	0.000203	2.031177	0.688181	0.000082
  32	3.0845e+00	1.2288	0.630770	0.000184	1.838215	0.622804	0.000074
  33	3.1840e+00	1.2930	0.711016	0.000200	2.000709	0.677859	0.000081
  34	3.2835e+00	1.3219	0.791670	0.000201	2.010865	0.681299	0.000081
  35	3.3830e+00	1.3395	0.872731	0.000202	2.021021	0.684740	0.000081
  36	3.4825e+00	1.3812	0.951349	0.000196	1.960085	0.664095	0.000079
  37	3.5820e+00	1.4550	1.032002	0.000201	2.010865	0.681299	0.000081
  38	3.6815e+00	1.4599	1.110619	0.000196	1.960085	0.664095	0.000079
  39	3.7810e+00	1.5208	1.192088	0.000203	2.031177	0.688181	0.000082
  40	3.8805e+00	1.5754	1.267446	0.000188	1.878838	0.636568	0.000076
  41	3.9800e+00	1.5930	1.349322	0.000204	2.041332	0.691622	0.000082
  42	4.0795e+00	1.6235	1.425495	0.000190	1.899150	0.643449	0.000077
  43	4.1790e+00	1.6812	1.511445	0.000214	2.142891	0.726031	0.000086
  44	4.2785e+00	1.7165	1.587210	0.000189	1.888994	0.640009	0.000076
  45	4.3780e+00	1.7550	1.669086	0.000204	2.041332	0.691622	0.000082
  46	4.4775e+00	1.7791	1.739556	0.000176	1.756968	0.595277	0.000071
  47	4.5770e+00	1.8192	1.823876	0.000210	2.102268	0.712268	0.000085
  48	4.6765e+00	1.8770	1.903715	0.000199	1.990553	0.674418	0.000080
  49	4.7760e+00	1.9171	1.987221	0.000208	2.081956	0.705386	0.000084
  50	4.8755e+00	1.9604	2.061764	0.000186	1.858527	0.629686	0.000075
  51	4.9750e+00	1.9812	2.145270	0.000208	2.081956	0.705386	0.000084
  52	5.0745e+00	2.0229	2.226331	0.000202	2.021021	0.684740	0.000081
  53	5.1740e+00	2.0679	2.305763	0.000198	1.980397	0.670977	0.000080
  54	5.2735e+00	2.1208	2.382750	0.000192	1.919462	0.650331	0.000077
  55	5.3730e+00	2.1352	2.462997	0.000200	2.000709	0.677859	0.000081
  56	5.4725e+00	2.2154	2.546909	0.000209	2.092112	0.708827	0.000084
  57	5.5720e+00	2.2219	2.627156	0.000200	2.000709	0.677859	0.000081
  58	5.6715e+00	2.2652	2.709439	0.000205	2.051488	0.695063	0.000083
  59	5.7710e+00	2.3165	2.788463	0.000197	1.970241	0.667536	0.000079
  60	5.8705e+00	2.3422	2.870339	0.000204	2.041332	0.691622	0.000082
  61	5.9700e+00	2.3871	2.946105	0.000189	1.888994	0.640009	0.000076
  62	6.0695e+00	2.4400	3.028796	0.000206	2.061644	0.698504	0.000083
  63	6.1690e+00	2.4737	3.103747	0.000187	1.868682	0.633127	0.000075
  64	6.2685e+00	2.4914	3.181956	0.000195	1.949930	0.660654	0.000079
  65	6.3680e+00	2.5379	3.259351	0.000193	1.929618	0.653772	0.000078
  66	6.4675e+00	2.5908	3.343671	0.000210	2.102268	0.712268	0.000085
  67	6.5670e+00	2.6422	3.421066	0.000193	1.929618	0.653772	0.000078
  68	6.6665e+00	2.6694	3.493573	0.000181	1.807747	0.612481	0.000073
  69	6.7660e+00	2.6807	3.573005	0.000198	1.980397	0.670977	0.000080
  70	6.8655e+00	2.7481	3.656510	0.000208	2.081956	0.705386	0.000084
  71	6.9650e+00	2.7994	3.731054	0.000186	1.858527	0.629686	0.000075
  72	7.0645e+00	2.8138	3.810079	0.000197	1.970241	0.667536	0.000079
  73	7.1640e+00	2.8748	3.887474	0.000193	1.929618	0.653772	0.000078
  74	7.2635e+00	2.9213	3.966091	0.000196	1.960085	0.664095	0.000079
  75	7.3630e+00	2.9454	4.045115	0.000197	1.970241	0.667536	0.000079
  76	7.4625e+00	2.9807	4.121696	0.000191	1.909306	0.646890	0.000077
  77	7.5620e+00	3.0031	4.195425	0.000184	1.838215	0.622804	0.000074
  78	7.6615e+00	3.0914	4.278930	0.000208	2.081956	0.705386	0.000084
  79	7.7610e+00	3.0849	4.348993	-0.000175	-1.746812	-0.591836	0.000070
  80	7.8605e+00	3.1555	4.427610	0.000196	1.960085	0.664095	0.000079
  81	7.9600e+00	3.1876	4.505820	0.000195	1.949930	0.660654	0.000079
  82	8.0595e+00	3.2341	4.582807	0.000192	1.919462	0.650331	0.000077
  83	8.1590e+00	3.2807	4.659795	0.000192	1.919462	0.650331	0.000077
  84	8.2585e+00	3.3127	4.735968	0.000190	1.899150	0.643449	0.000077
  85	8.3580e+00	3.3528	4.811734	0.000189	1.888994	0.640009	0.000076
  86	8.4575e+00	3.3849	4.889536	0.000194	1.939774	0.657213	0.000078
  87	8.5570e+00	3.4443	4.962451	0.000182	1.817903	0.615922	0.000073
  88	8.6565e+00	3.4651	5.041882	0.000198	1.980397	0.670977	0.000080
  89	8.7560e+00	3.5036	5.120500	0.000196	1.960085	0.664095	0.000079
  90	8.8555e+00	3.5405	5.190970	0.000176	1.756968	0.595277	0.000071
  91	8.9550e+00	3.5806	5.272031	0.000202	2.021021	0.684740	0.000081
  92	9.0545e+00	3.6320	5.341279	0.000173	1.726500	0.584954	0.000070
  93	9.1540e+00	3.6817	5.418267	0.000192	1.919462	0.650331	0.000077
  94	9.2535e+00	3.7074	5.490774	0.000181	1.807747	0.612481	0.000073
  95	9.3530e+00	3.7507	5.566947	0.000190	1.899150	0.643449	0.000077
  96	9.4525e+00	3.7667	5.637010	0.000175	1.746812	0.591836	0.000070
  97	9.5520e+00	3.8084	5.711554	0.000186	1.858527	0.629686	0.000075
  98	9.6515e+00	3.8630	5.781209	0.000174	1.736656	0.588395	0.000070
  99	9.7510e+00	3.9159	5.850457	0.000173	1.726500	0.584954	0.000070
 100	9.8505e+00	3.9352	5.927445	0.000192	1.919462	0.650331	0.000077
 101	9.9500e+00	3.9865	6.000767	0.000183	1.828059	0.619363	0.000074
 102	1.0050e+01	4.0395	6.070422	0.000174	1.736656	0.588395	0.000070
 103	1.0149e+01	4.0587	6.144151	0.000184	1.838215	0.622804	0.000074
 104	1.0248e+01	4.1068	6.213807	0.000174	1.736656	0.588395	0.000070
 105	1.0348e+01	4.1550	6.282648	0.000172	1.716344	0.581513	0.000069
 106	1.0447e+01	4.1870	6.355970	0.000183	1.828059	0.619363	0.000074
 107	1.0547e+01	4.2127	6.423588	0.000169	1.685877	0.571190	0.000068
 108	1.0646e+01	4.2544	6.498539	0.000187	1.868682	0.633127	0.000075
 109	1.0746e+01	4.2673	6.568602	0.000175	1.746812	0.591836	0.000070
 110	1.0845e+01	4.3362	6.641109	0.000181	1.807747	0.612481	0.000073
 111	1.0945e+01	4.3956	6.713209	0.000180	1.797591	0.609040	0.000072
 112	1.1044e+01	4.4277	6.783679	0.000176	1.756968	0.595277	0.000071
 113	1.1144e+01	4.4517	6.854149	0.000176	1.756968	0.595277	0.000071
 114	1.1243e+01	4.4822	6.930322	0.000190	1.899150	0.643449	0.000077
 115	1.1343e+01	4.5496	6.999571	0.000173	1.726500	0.584954	0.000070
 116	1.1443e+01	4.5833	7.076966	0.000193	1.929618	0.653772	0.000078
 117	1.1542e+01	4.6074	7.146621	0.000174	1.736656	0.588395	0.000070
 118	1.1642e+01	4.6635	7.222387	0.000189	1.888994	0.640009	0.000076
 119	1.1741e+01	4.6844	7.293265	0.000177	1.767124	0.598718	0.000071
 120	1.1841e+01	4.7517	7.364550	0.000178	1.777280	0.602159	0.000072
 121	1.1940e+01	4.7886	7.436242	0.000179	1.787435	0.605600	0.000072
 122	1.2040e+01	4.8223	7.513230	0.000192	1.919462	0.650331	0.000077
 123	1.2139e+01	4.8512	7.578404	0.000162	1.624941	0.550545	0.000066
 124	1.2239e+01	4.9186	7.657429	0.000197	1.970241	0.667536	0.000079
 125	1.2338e+01	4.9410	7.721382	0.000159	1.594474	0.540222	0.000064
 126	1.2438e+01	4.9940	7.797147	0.000189	1.888994	0.640009	0.000076
 127	1.2537e+01	5.0116	7.868840	0.000179	1.787435	0.605600	0.000072
 128	1.2636e+01	5.0710	7.942976	0.000185	1.848371	0.626245	0.000075
 129	1.2736e+01	5.0662	8.011410	-0.000171	-1.706188	-0.578072	0.000069
 130	1.2835e+01	5.1464	8.083102	0.000179	1.787435	0.605600	0.000072
 131	1.2935e+01	5.1769	8.152757	0.000174	1.736656	0.588395	0.000070
 132	1.3034e+01	5.2073	8.226486	0.000184	1.838215	0.622804	0.000074
 133	1.3134e+01	5.2731	8.293698	0.000168	1.675721	0.567750	0.000068
 134	1.3233e+01	5.2908	8.364168	0.000176	1.756968	0.595277	0.000071
 135	1.3333e+01	5.3373	8.430565	0.000166	1.655409	0.560868	0.000067
 136	1.3432e+01	5.3806	8.498999	0.000171	1.706188	0.578072	0.000069
 137	1.3532e+01	5.4255	8.573542	0.000186	1.858527	0.629686	0.000075
 138	1.3632e+01	5.4576	8.635458	0.000154	1.543694	0.523018	0.000062
 139	1.3731e+01	5.4865	8.702670	0.000168	1.675721	0.567750	0.000068
 140	1.3831e+01	5.5442	8.770289	0.000169	1.685877	0.571190	0.000068
 141	1.3930e+01	5.5539	8.838315	0.000170	1.696032	0.574631	0.000068
 142	1.4030e+01	5.6293	8.907156	0.000172	1.716344	0.581513	0.000069
 143	1.4129e+01	5.6405	8.974775	0.000169	1.685877	0.571190	0.000068
 144	1.4229e+01	5.6870	9.039542	0.000161	1.614785	0.547104	0.000065
 145	1.4328e+01	5.7335	9.106346	0.000167	1.665565	0.564309	0.000067
 146	1.4428e+01	5.7672	9.176409	0.000175	1.746812	0.591836	0.000070
 147	1.4527e+01	5.8041	9.240769	0.000160	1.604630	0.543663	0.000065
 148	1.4627e+01	5.8442	9.309203	0.000171	1.706188	0.578072	0.000069
 149	1.4726e+01	5.8988	9.374378	0.000162	1.624941	0.550545	0.000066
 150	1.4825e+01	5.9341	9.444848	0.000176	1.756968	0.595277	0.000071
 151	1.4925e+01	5.9822	9.508394	0.000158	1.584318	0.536781	0.000064
 152	1.5024e+01	6.0159	9.576420	0.000170	1.696032	0.574631	0.000068
 153	1.5124e+01	6.0624	9.640372	0.000159	1.594474	0.540222	0.000064
 154	1.5223e+01	6.0913	9.704733	0.000160	1.604630	0.543663	0.000065
 155	1.5323e+01	6.1442	9.774796	0.000175	1.746812	0.591836	0.000070
 156	1.5422e+01	6.1715	9.834268	0.000148	1.482759	0.502372	0.000060
 157	1.5522e+01	6.2180	9.906775	0.000181	1.807747	0.612481	0.000073
 158	1.5621e+01	6.2517	9.969505	0.000156	1.564006	0.529900	0.000063
 159	1.5721e+01	6.2966	10.034680	0.000162	1.624941	0.550545	0.000066
 160	1.5820e+01	6.3512	10.094152	0.000148	1.482759	0.502372	0.000060
 161	1.5920e+01	6.3768	10.162178	0.000170	1.696032	0.574631	0.000068
 162	1.6020e+01	6.4121	10.228982	0.000167	1.665565	0.564309	0.000067
 163	1.6119e+01	6.4618	10.291306	0.000155	1.553850	0.526459	0.000063
 164	1.6218e+01	6.4827	10.352000	0.000151	1.513227	0.512695	0.000061
 165	1.6318e+01	6.5389	10.415545	0.000158	1.584318	0.536781	0.000064
 166	1.6418e+01	6.5517	10.476647	0.000152	1.523382	0.516136	0.000061
 167	1.6517e+01	6.5982	10.542229	0.000164	1.635097	0.553986	0.000066
 168	1.6616e+01	6.6479	10.604145	0.000154	1.543694	0.523018	0.000062
 169	1.6716e+01	6.6848	10.666468	0.000155	1.553850	0.526459	0.000063
 170	1.6816e+01	6.7442	10.732051	0.000164	1.635097	0.553986	0.000066
 171	1.6915e+01	6.7650	10.791523	0.000148	1.482759	0.502372	0.000060
 172	1.7015e+01	6.8116	10.857105	0.000164	1.635097	0.553986	0.000066
 173	1.7114e+01	6.8404	10.916577	0.000148	1.482759	0.502372	0.000060
 174	1.7213e+01	6.8886	10.982974	0.000166	1.655409	0.560868	0.000067
 175	1.7313e+01	6.9191	11.046519	0.000158	1.584318	0.536781	0.000064
 176	1.7413e+01	6.9800	11.108842	0.000155	1.553850	0.526459	0.000063
 177	1.7512e+01	7.0217	11.171573	0.000156	1.564006	0.529900	0.000063
 178	1.7611e+01	7.0442	11.236341	0.000161	1.614785	0.547104	0.000065
 179	1.7711e+01	7.1212	11.298664	0.000155	1.553850	0.526459	0.000063
 180	1.7811e+01	7.1116	11.361802	-0.000157	-1.574162	-0.533340	0.000063
 181	1.7910e+01	7.1661	11.428606	0.000167	1.665565	0.564309	0.000067
 182	1.8009e+01	7.2207	11.490930	0.000155	1.553850	0.526459	0.000063
 183	1.8109e+01	7.2479	11.554882	0.000159	1.594474	0.540222	0.000064
 184	1.8209e+01	7.2720	11.616391	0.000153	1.533538	0.519577	0.000062
 185	1.8308e+01	7.3346	11.680751	0.000160	1.604630	0.543663	0.000065
 186	1.8407e+01	7.3682	11.743482	0.000156	1.564006	0.529900	0.000063
 187	1.8507e+01	7.3923	11.804991	0.000153	1.533538	0.519577	0.000062
 188	1.8607e+01	7.4436	11.866500	0.000153	1.533538	0.519577	0.000062
 189	1.8706e+01	7.4902	11.932082	0.000164	1.635097	0.553986	0.000066
 190	1.8805e+01	7.5222	11.995627	0.000158	1.584318	0.536781	0.000064
 191	1.8905e+01	7.5624	12.055099	0.000148	1.482759	0.502372	0.000060
 192	1.9005e+01	7.6105	12.116608	0.000153	1.533538	0.519577	0.000062
 193	1.9104e+01	7.6201	12.183412	0.000167	1.665565	0.564309	0.000067
 194	1.9203e+01	7.6891	12.246550	0.000157	1.574162	0.533340	0.000063
 195	1.9303e+01	7.7276	12.304800	0.000145	1.452291	0.492050	0.000059
 196	1.9402e+01	7.7597	12.363457	0.000146	1.462447	0.495491	0.000059
 197	1.9502e+01	7.7918	12.427003	0.000158	1.584318	0.536781	0.000064
 198	1.9602e+01	7.8495	12.482401	0.000138	1.381200	0.467963	0.000056
 199	1.9701e+01	7.8960	12.539022	0.000141	1.411668	0.478286	0.000057
 200	1.9800e+01	7.9137	12.596050	0.000142	1.421824	0.481727	0.000057
 201	1.9900e+01	7.9730	12.655522	0.000148	1.482759	0.502372	0.000060
 202	2.0000e+01	7.9971	12.709291	0.000134	1.340577	0.454200	0.000054
 203	2.0099e+01	8.0565	12.765097	0.000139	1.391356	0.471404	0.000056
 204	2.0198e+01	8.0821	12.824162	0.000147	1.472603	0.498931	0.000059
 205	2.0298e+01	8.1206	12.880782	0.000141	1.411668	0.478286	0.000057
 206	2.0398e+01	8.1575	12.938625	0.000144	1.442135	0.488609	0.000058
 207	2.0497e+01	8.2217	12.999319	0.000151	1.513227	0.512695	0.000061
 208	2.0596e+01	8.2474	13.053088	0.000134	1.340577	0.454200	0.000054
 209	2.0696e+01	8.3051	13.109709	0.000141	1.411668	0.478286	0.000057
 210	2.0796e+01	8.3179	13.168774	0.000147	1.472603	0.498931	0.000059
 211	2.0895e+01	8.3436	13.223358	0.000136	1.360888	0.461081	0.000055
 212	2.0994e+01	8.3982	13.282830	0.000148	1.482759	0.502372	0.000060
 213	2.1094e+01	8.4479	13.334562	0.000129	1.289797	0.436995	0.000052
 214	2.1194e+01	8.4992	13.392812	0.000145	1.452291	0.492050	0.000059
 215	2.1293e+01	8.5233	13.446581	0.000134	1.340577	0.454200	0.000054
 216	2.1392e+01	8.5538	13.510127	0.000158	1.584318	0.536781	0.000064
 217	2.1492e+01	8.6228	13.560230	0.000125	1.249174	0.423231	0.000050
 218	2.1591e+01	8.6228	13.618480	-0.000145	-1.452291	-0.492050	0.000059
 219	2.1691e+01	8.6789	13.677545	0.000147	1.472603	0.498931	0.000059
 220	2.1791e+01	8.7350	13.734165	0.000141	1.411668	0.478286	0.000057
 221	2.1890e+01	8.7591	13.794044	0.000149	1.492915	0.505813	0.000060
 222	2.1989e+01	8.7768	13.846592	0.000131	1.310109	0.443877	0.000053
 223	2.2089e+01	8.8072	13.908100	0.000153	1.533538	0.519577	0.000062
 224	2.2189e+01	8.8746	13.965536	0.000143	1.431980	0.485168	0.000058
 225	2.2288e+01	8.9099	14.024193	0.000146	1.462447	0.495491	0.000059
 226	2.2387e+01	8.9612	14.077148	0.000132	1.320265	0.447318	0.000053
 227	2.2487e+01	9.0126	14.134583	0.000143	1.431980	0.485168	0.000058
 228	2.2587e+01	9.0366	14.194055	0.000148	1.482759	0.502372	0.000060
 229	2.2686e+01	9.0767	14.247009	0.000132	1.320265	0.447318	0.000053
 230	2.2785e+01	9.1265	14.306481	0.000148	1.482759	0.502372	0.000060
 231	2.2885e+01	9.1618	14.361065	0.000136	1.360888	0.461081	0.000055
 232	2.2985e+01	9.1939	14.417279	0.000140	1.401512	0.474845	0.000056
 233	2.3084e+01	9.2420	14.471862	0.000136	1.360888	0.461081	0.000055
 234	2.3183e+01	9.3013	14.528076	0.000140	1.401512	0.474845	0.000056
 235	2.3283e+01	9.3110	14.581845	0.000134	1.340577	0.454200	0.000054
 236	2.3383e+01	9.3687	14.640095	0.000145	1.452291	0.492050	0.000059
 237	2.3482e+01	9.4056	14.698752	0.000146	1.462447	0.495491	0.000059
 238	2.3581e+01	9.4586	14.752114	0.000133	1.330421	0.450759	0.000054
 239	2.3681e+01	9.5035	14.807513	0.000138	1.381200	0.467963	0.000056
 240	2.3780e+01	9.5259	14.863319	0.000139	1.391356	0.471404	0.000056
 241	2.3880e+01	9.5660	14.918310	0.000137	1.371044	0.464522	0.000055
 242	2.3980e+01	9.6094	14.971672	0.000133	1.330421	0.450759	0.000054
 243	2.4079e+01	9.6430	15.032773	0.000152	1.523382	0.516136	0.000061
 244	2.4178e+01	9.6655	15.086135	0.000133	1.330421	0.450759	0.000054
 245	2.4278e+01	9.7377	15.140719	0.000136	1.360888	0.461081	0.000055
 246	2.4378e+01	9.7634	15.197747	0.000142	1.421824	0.481727	0.000057
 247	2.4477e+01	9.8051	15.252738	0.000137	1.371044	0.464522	0.000055
 248	2.4576e+01	9.8339	15.303656	0.000127	1.269485	0.430113	0.000051
 249	2.4676e+01	9.8885	15.363943	0.000150	1.503071	0.509254	0.000061
 250	2.4776e+01	9.9623	15.418934	0.000137	1.371044	0.464522	0.000055
 251	2.4875e+01	9.9543	15.475962	-0.000142	-1.421824	-0.481727	0.000057
 252	2.4974e+01	10.0184	15.526880	0.000127	1.269485	0.430113	0.000051
 253	2.5074e+01	10.0393	15.585130	0.000145	1.452291	0.492050	0.000059
 254	2.5174e+01	10.0794	15.640936	0.000139	1.391356	0.471404	0.000056
 255	2.5273e+01	10.1179	15.699186	0.000145	1.452291	0.492050	0.000059
 256	2.5372e+01	10.1596	15.751325	0.000130	1.299953	0.440436	0.000052
 257	2.5472e+01	10.1837	15.807131	0.000139	1.391356	0.471404	0.000056
 258	2.5572e+01	10.2446	15.861715	0.000136	1.360888	0.461081	0.000055
 259	2.5671e+01	10.2928	15.913855	0.000130	1.299953	0.440436	0.000052
 260	2.5770e+01	10.3120	15.971290	0.000143	1.431980	0.485168	0.000058
 261	2.5870e+01	10.3457	16.019357	0.000120	1.198394	0.406027	0.000048
 262	2.5970e+01	10.3970	16.077199	0.000144	1.442135	0.488609	0.000058
 263	2.6069e+01	10.4243	16.128117	0.000127	1.269485	0.430113	0.000051
 264	2.6169e+01	10.4837	16.181479	0.000133	1.330421	0.450759	0.000054
 265	2.6268e+01	10.5141	16.232397	0.000127	1.269485	0.430113	0.000051
 266	2.6367e+01	10.5751	16.285759	0.000133	1.330421	0.450759	0.000054
 267	2.6467e+01	10.5927	16.337899	0.000130	1.299953	0.440436	0.000052
 268	2.6567e+01	10.6425	16.394112	0.000140	1.401512	0.474845	0.000056
 269	2.6666e+01	10.6714	16.443808	0.000124	1.239018	0.419791	0.000050
 270	2.6765e+01	10.7002	16.501243	0.000143	1.431980	0.485168	0.000058
 271	2.6865e+01	10.7580	16.550532	0.000123	1.228862	0.416350	0.000050
 272	2.6965e+01	10.7885	16.603893	0.000133	1.330421	0.450759	0.000054
 273	2.7064e+01	10.8270	16.653997	0.000125	1.249174	0.423231	0.000050
 274	2.7163e+01	10.8623	16.703692	0.000124	1.239018	0.419791	0.000050
 275	2.7263e+01	10.9184	16.753388	0.000124	1.239018	0.419791	0.000050
 276	2.7363e+01	10.9425	16.807565	0.000135	1.350732	0.457641	0.000054
 277	2.7462e+01	10.9938	16.856446	0.000122	1.218706	0.412909	0.000049
 278	2.7561e+01	11.0467	16.910622	0.000135	1.350732	0.457641	0.000054
 279	2.7661e+01	11.0676	16.963577	0.000132	1.320265	0.447318	0.000053
 280	2.7761e+01	11.1318	17.018568	0.000137	1.371044	0.464522	0.000055
 281	2.7860e+01	11.1542	17.071930	0.000133	1.330421	0.450759	0.000054
 282	2.7959e+01	11.1735	17.127329	0.000138	1.381200	0.467963	0.000056
 283	2.8059e+01	11.2296	17.179468	0.000130	1.299953	0.440436	0.000052
 284	2.8159e+01	11.2890	17.237311	0.000144	1.442135	0.488609	0.000058
 285	2.8258e+01	11.2970	17.293524	0.000140	1.401512	0.474845	0.000056
 286	2.8358e+01	11.3708	17.350145	0.000141	1.411668	0.478286	0.000057
 287	2.8457e+01	11.3756	17.409210	0.000147	1.472603	0.498931	0.000059
 288	2.8556e+01	11.4013	17.457683	0.000121	1.208550	0.409468	0.000049
 289	2.8656e+01	11.4863	17.514304	0.000141	1.411668	0.478286	0.000057
 290	2.8756e+01	11.5136	17.566851	0.000131	1.310109	0.443877	0.000053
 291	2.8855e+01	11.5537	17.622657	0.000139	1.391356	0.471404	0.000056
 292	2.8954e+01	11.5858	17.678463	0.000139	1.391356	0.471404	0.000056
 293	2.9054e+01	11.6403	17.731825	0.000133	1.330421	0.450759	0.000054
 294	2.9154e+01	11.6644	17.786409	0.000136	1.360888	0.461081	0.000055
 295	2.9253e+01	11.7189	17.846288	0.000149	1.492915	0.505813	0.000060
 296	2.9352e+01	11.7430	17.896391	0.000125	1.249174	0.423231	0.000050
 297	2.9452e+01	11.8120	17.951383	0.000137	1.371044	0.464522	0.000055
 298	2.9552e+01	11.8360	18.005966	0.000136	1.360888	0.461081	0.000055
 299	2.9651e+01	11.8553	18.062180	0.000140	1.401512	0.474845	0.000056
 300	2.9750e+01	11.9146	18.111876	0.000124	1.239018	0.419791	0.000050
 301	2.9850e+01	11.9596	18.167274	0.000138	1.381200	0.467963	0.000056
 302	2.9950e+01	11.9868	18.217377	0.000125	1.249174	0.423231	0.000050
 303	3.0049e+01	12.0446	18.271146	0.000134	1.340577	0.454200	0.000054
 304	3.0148e+01	12.1104	18.320435	0.000123	1.228862	0.416350	0.000050
 305	3.0248e+01	12.1120	18.375426	0.000137	1.371044	0.464522	0.000055
 306	3.0348e+01	12.1392	18.425937	0.000126	1.259330	0.426672	0.000051
 307	3.0447e+01	12.1986	18.479706	0.000134	1.340577	0.454200	0.000054
 308	3.0547e+01	12.2467	18.530216	0.000126	1.259330	0.426672	0.000051
 309	3.0646e+01	12.2692	18.587244	0.000142	1.421824	0.481727	0.000057
 310	3.0745e+01	12.3029	18.635718	0.000121	1.208550	0.409468	0.000049
 311	3.0845e+01	12.3462	18.685821	0.000125	1.249174	0.423231	0.000050
 312	3.0945e+01	12.3943	18.738776	0.000132	1.320265	0.447318	0.000053
 313	3.1044e+01	12.4360	18.790916	0.000130	1.299953	0.440436	0.000052
 314	3.1143e+01	12.4649	18.841019	0.000125	1.249174	0.423231	0.000050
 315	3.1243e+01	12.4970	18.891529	0.000126	1.259330	0.426672	0.000051
 316	3.1343e+01	12.5644	18.943669	0.000130	1.299953	0.440436	0.000052
 317	3.1442e+01	12.6061	18.994587	0.000127	1.269485	0.430113	0.000051
 318	3.1541e+01	12.6301	19.046319	0.000129	1.289797	0.436995	0.000052
 319	3.1641e+01	12.6686	19.100903	0.000136	1.360888	0.461081	0.000055
 320	3.1741e+01	12.7119	19.149784	0.000122	1.218706	0.412909	0.000049
 321	3.1840e+01	12.7456	19.201110	0.000128	1.279641	0.433554	0.000052
 322	3.1939e+01	12.7841	19.255693	0.000136	1.360888	0.461081	0.000055
 323	3.2039e+01	12.8194	19.304167	0.000121	1.208550	0.409468	0.000049
 324	3.2139e+01	12.8852	19.356714	0.000131	1.310109	0.443877	0.000053
 325	3.2238e+01	12.8948	19.406003	0.000123	1.228862	0.416350	0.000050
 326	3.2337e+01	12.9397	19.454477	0.000121	1.208550	0.409468	0.000049
 327	3.2437e+01	12.9686	19.502543	0.000120	1.198394	0.406027	0.000048
 328	3.2536e+01	13.0312	19.553461	0.000127	1.269485	0.430113	0.000051
 329	3.2636e+01	13.0520	19.605193	0.000129	1.289797	0.436995	0.000052
 330	3.2736e+01	13.0986	19.657741	0.000131	1.310109	0.443877	0.000053
 331	3.2835e+01	13.1499	19.705807	0.000120	1.198394	0.406027	0.000048
 332	3.2934e+01	13.1756	19.756317	0.000126	1.259330	0.426672	0.000051
 333	3.3034e+01	13.2060	19.806013	0.000124	1.239018	0.419791	0.000050
 334	3.3133e+01	13.2702	19.856524	0.000126	1.259330	0.426672	0.000051
 335	3.3233e+01	13.3007	19.905812	0.000123	1.228862	0.416350	0.000050
 336	3.3333e+01	13.3424	19.955508	0.000124	1.239018	0.419791	0.000050
 337	3.3432e+01	13.3825	20.007648	0.000130	1.299953	0.440436	0.000052
 338	3.3532e+01	13.4066	20.052455	0.000112	1.117147	0.378500	0.000045
 339	3.3631e+01	13.4563	20.103781	0.000128	1.279641	0.433554	0.000052
 340	3.3730e+01	13.5173	20.153476	0.000124	1.239018	0.419791	0.000050
 341	3.3830e+01	13.5510	20.203987	0.000126	1.259330	0.426672	0.000051
 342	3.3929e+01	13.5959	20.250831	0.000117	1.167927	0.395704	0.000047
 343	3.4029e+01	13.6456	20.302971	0.000130	1.299953	0.440436	0.000052
 344	3.4129e+01	13.6649	20.355518	0.000131	1.310109	0.443877	0.000053
 345	3.4228e+01	13.6761	20.403992	0.000121	1.208550	0.409468	0.000049
 346	3.4328e+01	13.7419	20.450836	0.000117	1.167927	0.395704	0.000047
 347	3.4427e+01	13.7739	20.507457	0.000141	1.411668	0.478286	0.000057
 348	3.4526e+01	13.8108	20.558782	0.000128	1.279641	0.433554	0.000052
 349	3.4626e+01	13.8542	20.609293	0.000126	1.259330	0.426672	0.000051
 350	3.4725e+01	13.9007	20.661433	0.000130	1.299953	0.440436	0.000052
 351	3.4825e+01	13.9360	20.711536	0.000125	1.249174	0.423231	0.000050
 352	3.4925e+01	13.9889	20.760417	0.000122	1.218706	0.412909	0.000049
 353	3.5024e+01	14.0242	20.813779	0.000133	1.330421	0.450759	0.000054
 354	3.5123e+01	14.0643	20.864289	0.000126	1.259330	0.426672	0.000051
 355	3.5223e+01	14.0787	20.911541	0.000118	1.178082	0.399145	0.000047
 356	3.5322e+01	14.1349	20.961644	0.000125	1.249174	0.423231	0.000050
 357	3.5422e+01	14.1862	21.011747	0.000125	1.249174	0.423231	0.000050
 358	3.5522e+01	14.2215	21.063072	0.000128	1.279641	0.433554	0.000052
 359	3.5621e+01	14.2600	21.117249	0.000135	1.350732	0.457641	0.000054
 360	3.5721e+01	14.2905	21.162464	0.000113	1.127303	0.381941	0.000045
 361	3.5820e+01	14.3210	21.217862	0.000138	1.381200	0.467963	0.000056
 362	3.5919e+01	14.3900	21.263892	0.000115	1.147615	0.388822	0.000046
 363	3.6019e+01	14.4237	21.313995	0.000125	1.249174	0.423231	0.000050
 364	3.6118e+01	14.4461	21.364098	0.000125	1.249174	0.423231	0.000050
 365	3.6218e+01	14.4991	21.408091	0.000110	1.096835	0.371618	0.000044
 366	3.6318e+01	14.5520	21.456158	0.000120	1.198394	0.406027	0.000048
 367	3.6417e+01	14.5696	21.500151	0.000110	1.096835	0.371618	0.000044
 368	3.6517e+01	14.6290	21.548217	0.000120	1.198394	0.406027	0.000048
 369	3.6616e+01	14.6707	21.590581	0.000106	1.056212	0.357854	0.000043
 370	3.6715e+01	14.6980	21.641906	0.000128	1.279641	0.433554	0.000052
 371	3.6815e+01	14.7397	21.687121	0.000113	1.127303	0.381941	0.000045
 372	3.6914e+01	14.7830	21.732743	0.000114	1.137459	0.385382	0.000046
 373	3.7014e+01	14.8504	21.779995	0.000118	1.178082	0.399145	0.000047
 374	3.7114e+01	14.8664	21.824803	0.000112	1.117147	0.378500	0.000045
 375	3.7213e+01	14.8937	21.867574	0.000107	1.066368	0.361295	0.000043
 376	3.7313e+01	14.9595	21.916048	0.000121	1.208550	0.409468	0.000049
 377	3.7412e+01	14.9675	21.960448	0.000111	1.106991	0.375059	0.000045
 378	3.7511e+01	15.0140	22.005256	0.000112	1.117147	0.378500	0.000045
 379	3.7611e+01	15.0445	22.051693	0.000116	1.157771	0.392263	0.000047
 380	3.7711e+01	15.0894	22.095686	0.000110	1.096835	0.371618	0.000044
 381	3.7810e+01	15.1391	22.140086	0.000111	1.106991	0.375059	0.000045
 382	3.7910e+01	15.1825	22.188967	0.000122	1.218706	0.412909	0.000049
 383	3.8009e+01	15.2274	22.232960	0.000110	1.096835	0.371618	0.000044
 384	3.8108e+01	15.2739	22.282656	0.000124	1.239018	0.419791	0.000050
 385	3.8208e+01	15.2835	22.325834	0.000108	1.076524	0.364736	0.000043
 386	3.8307e+01	15.3204	22.373493	0.000119	1.188238	0.402586	0.000048
 387	3.8407e+01	15.3702	22.425633	0.000130	1.299953	0.440436	0.000052
 388	3.8507e+01	15.4215	22.474514	0.000122	1.218706	0.412909	0.000049
 389	3.8606e+01	15.4616	22.516878	0.000106	1.056212	0.357854	0.000043
 390	3.8706e+01	15.4825	22.567796	0.000127	1.269485	0.430113	0.000051
 391	3.8805e+01	15.5370	22.613011	0.000113	1.127303	0.381941	0.000045
 392	3.8904e+01	15.5835	22.660262	0.000118	1.178082	0.399145	0.000047
 393	3.9004e+01	15.6012	22.706700	0.000116	1.157771	0.392263	0.000047
 394	3.9103e+01	15.6397	22.749878	0.000108	1.076524	0.364736	0.000043
 395	3.9203e+01	15.6942	22.802018	0.000130	1.299953	0.440436	0.000052
 396	3.9303e+01	15.7311	22.848862	0.000117	1.167927	0.395704	0.000047
 397	3.9402e+01	15.7792	22.893670	0.000112	1.117147	0.378500	0.000045
 398	3.9502e+01	15.8258	22.940514	0.000117	1.167927	0.395704	0.000047
 399	3.9601e+01	15.8370	22.987766	0.000118	1.178082	0.399145	0.000047
 400	3.9700e+01	15.8979	23.031352	0.000109	1.086679	0.368177	0.000044
 401	3.9800e+01	15.9252	23.079011	0.000119	1.188238	0.402586	0.000048
 402	3.9900e+01	15.9605	23.125855	0.000117	1.167927	0.395704	0.000047
 403	3.9999e+01	16.0279	23.173514	0.000119	1.188238	0.402586	0.000048
 404	4.0099e+01	16.0616	23.221173	0.000119	1.188238	0.402586	0.000048
 405	4.0198e+01	16.0889	23.265981	0.000112	1.117147	0.378500	0.000045
 406	4.0297e+01	16.1209	23.308752	0.000107	1.066368	0.361295	0.000043
 407	4.0397e+01	16.1899	23.354782	0.000115	1.147615	0.388822	0.000046
 408	4.0496e+01	16.2188	23.400811	0.000115	1.147615	0.388822	0.000046
 409	4.0596e+01	16.2605	23.452136	0.000128	1.279641	0.433554	0.000052
 410	4.0696e+01	16.3038	23.499795	0.000119	1.188238	0.402586	0.000048
 411	4.0795e+01	16.3616	23.545825	0.000115	1.147615	0.388822	0.000046
 412	4.0895e+01	16.3632	23.590633	0.000112	1.117147	0.378500	0.000045
 413	4.0994e+01	16.4273	23.638292	0.000119	1.188238	0.402586	0.000048
 414	4.1093e+01	16.4418	23.685544	0.000118	1.178082	0.399145	0.000047
 415	4.1193e+01	16.4931	23.731166	0.000114	1.137459	0.385382	0.000046
 416	4.1292e+01	16.5284	23.782491	0.000128	1.279641	0.433554	0.000052
 417	4.1392e+01	16.5380	23.826484	0.000110	1.096835	0.371618	0.000044
 418	4.1492e+01	16.6086	23.876587	0.000125	1.249174	0.423231	0.000050
 419	4.1591e+01	16.6439	23.920173	0.000109	1.086679	0.368177	0.000044
 420	4.1691e+01	16.6840	23.963759	0.000109	1.086679	0.368177	0.000044
 421	4.1790e+01	16.7193	24.017121	0.000133	1.330421	0.450759	0.000054
 422	4.1889e+01	16.7835	24.063150	0.000115	1.147615	0.388822	0.000046
 423	4.1989e+01	16.8236	24.112439	0.000123	1.228862	0.416350	0.000050
 424	4.2089e+01	16.8621	24.159690	0.000118	1.178082	0.399145	0.000047
 425	4.2188e+01	16.8749	24.203276	0.000109	1.086679	0.368177	0.000044
 426	4.2288e+01	16.9407	24.250120	0.000117	1.167927	0.395704	0.000047
 427	4.2387e+01	16.9503	24.296557	0.000116	1.157771	0.392263	0.000047
 428	4.2486e+01	17.0145	24.345846	0.000123	1.228862	0.416350	0.000050
 429	4.2586e+01	17.0466	24.386988	0.000103	1.025744	0.347532	0.000041
 430	4.2685e+01	17.0947	24.433017	0.000115	1.147615	0.388822	0.000046
 431	4.2785e+01	17.1348	24.478640	0.000114	1.137459	0.385382	0.000046
 432	4.2885e+01	17.1813	24.524262	0.000114	1.137459	0.385382	0.000046
 433	4.2984e+01	17.1894	24.564996	0.000102	1.015588	0.344091	0.000041
 434	4.3084e+01	17.2343	24.611841	0.000117	1.167927	0.395704	0.000047
 435	4.3183e+01	17.2904	24.660722	0.000122	1.218706	0.412909	0.000049
 436	4.3282e+01	17.3225	24.703085	0.000106	1.056212	0.357854	0.000043
 437	4.3382e+01	17.3450	24.749522	0.000116	1.157771	0.392263	0.000047
 438	4.3481e+01	17.4059	24.797181	0.000119	1.188238	0.402586	0.000048
 439	4.3581e+01	17.4332	24.845248	0.000120	1.198394	0.406027	0.000048
 440	4.3681e+01	17.5006	24.884760	0.000099	0.985121	0.333768	0.000040
 441	4.3780e+01	17.5295	24.933641	0.000122	1.218706	0.412909	0.000049
 442	4.3880e+01	17.5712	24.972339	0.000096	0.964809	0.326886	0.000039
 443	4.3979e+01	17.6000	25.015924	0.000109	1.086679	0.368177	0.000044
 444	4.4078e+01	17.6546	25.066028	0.000125	1.249174	0.423231	0.000050
 445	4.4178e+01	17.6851	25.112057	0.000115	1.147615	0.388822	0.000046
 446	4.4278e+01	17.7123	25.159309	0.000118	1.178082	0.399145	0.000047
 447	4.4377e+01	17.7733	25.205339	0.000115	1.147615	0.388822	0.000046
 448	4.4477e+01	17.8198	25.250554	0.000113	1.127303	0.381941	0.000045
 449	4.4576e+01	17.8615	25.299842	0.000123	1.228862	0.416350	0.000050
 450	4.4675e+01	17.8760	25.346279	0.000116	1.157771	0.392263	0.000047
 451	4.4775e+01	17.9161	25.398826	0.000131	1.310109	0.443877	0.000053
 452	4.4874e+01	17.9722	25.446486	0.000119	1.188238	0.402586	0.000048
 453	4.4974e+01	18.0236	25.497403	0.000127	1.269485	0.430113	0.000051
 454	4.5074e+01	18.0075	25.547506	-0.000125	-1.249174	-0.423231	0.000050
 455	4.5173e+01	18.0749	25.593944	0.000116	1.157771	0.392263	0.000047
 456	4.5273e+01	18.1278	25.642417	0.000121	1.208550	0.409468	0.000049
 457	4.5372e+01	18.1567	25.690891	0.000121	1.208550	0.409468	0.000049
 458	4.5471e+01	18.1888	25.742624	0.000129	1.289797	0.436995	0.000052
 459	4.5571e+01	18.2690	25.790690	0.000120	1.198394	0.406027	0.000048
 460	4.5670e+01	18.3123	25.840386	0.000124	1.239018	0.419791	0.000050
 461	4.5770e+01	18.3123	25.892118	-0.000129	-1.289797	-0.436995	0.000052
 462	4.5870e+01	18.3813	25.942221	0.000125	1.249174	0.423231	0.000050
 463	4.5969e+01	18.4150	25.990288	0.000120	1.198394	0.406027	0.000048
 464	4.6069e+01	18.4294	26.042020	0.000129	1.289797	0.436995	0.000052
 465	4.6168e+01	18.4792	26.092531	0.000126	1.259330	0.426672	0.000051
 466	4.6267e+01	18.5321	26.140190	0.000119	1.188238	0.402586	0.000048
 467	4.6367e+01	18.5754	26.189478	0.000123	1.228862	0.416350	0.000050
 468	4.6467e+01	18.6107	26.235508	0.000115	1.147615	0.388822	0.000046
 469	4.6566e+01	18.6460	26.281945	0.000116	1.157771	0.392263	0.000047
 470	4.6666e+01	18.6813	26.330419	0.000121	1.208550	0.409468	0.000049
 471	4.6765e+01	18.7423	26.378485	0.000120	1.198394	0.406027	0.000048
 472	4.6864e+01	18.7503	26.428588	0.000125	1.249174	0.423231	0.000050
 473	4.6964e+01	18.7647	26.475433	0.000117	1.167927	0.395704	0.000047
 474	4.7063e+01	18.8417	26.522277	0.000117	1.167927	0.395704	0.000047
 475	4.7163e+01	18.9043	26.571973	0.000124	1.239018	0.419791	0.000050
 476	4.7263e+01	18.9187	26.623705	0.000129	1.289797	0.436995	0.000052
 477	4.7362e+01	18.9556	26.664032	0.000101	1.005432	0.340650	0.000041
 478	4.7462e+01	18.9973	26.712914	0.000122	1.218706	0.412909	0.000049
 479	4.7561e+01	19.0182	26.757314	0.000111	1.106991	0.375059	0.000045
 480	4.7660e+01	19.1160	26.809861	0.000131	1.310109	0.443877	0.000053
 481	4.7760e+01	19.1176	26.853039	0.000108	1.076524	0.364736	0.000043
 482	4.7859e+01	19.1594	26.905994	0.000132	1.320265	0.447318	0.000053
 483	4.7959e+01	19.1979	26.953246	0.000118	1.178082	0.399145	0.000047
 484	4.8059e+01	19.2444	27.003756	0.000126	1.259330	0.426672	0.000051
 485	4.8158e+01	19.3005	27.053045	0.000123	1.228862	0.416350	0.000050
 486	4.8258e+01	19.3069	27.099889	0.000117	1.167927	0.395704	0.000047
 487	4.8357e+01	19.3519	27.147548	0.000119	1.188238	0.402586	0.000048
 488	4.8456e+01	19.4257	27.193985	0.000116	1.157771	0.392263	0.000047
 489	4.8556e+01	19.4417	27.242866	0.000122	1.218706	0.412909	0.000049
 490	4.8656e+01	19.4850	27.290118	0.000118	1.178082	0.399145	0.000047
 491	4.8755e+01	19.5299	27.337370	0.000118	1.178082	0.399145	0.000047
 492	4.8855e+01	19.5700	27.387880	0.000126	1.259330	0.426672	0.000051
 493	4.8954e+01	19.5877	27.436354	0.000121	1.208550	0.409468	0.000049
 494	4.9053e+01	19.6406	27.482791	0.000116	1.157771	0.392263	0.000047
 495	4.9153e+01	19.6743	27.532487	0.000124	1.239018	0.419791	0.000050
 496	4.9252e+01	19.7256	27.580960	0.000121	1.208550	0.409468	0.000049
 497	4.9352e+01	19.7545	27.631471	0.000126	1.259330	0.426672	0.000051
 498	4.9452e+01	19.7866	27.677501	0.000115	1.147615	0.388822	0.000046
 499	4.9551e+01	19.8524	27.725974	0.000121	1.208550	0.409468	0.000049
 500	4.9651e+01	19.8845	27.773634	0.000119	1.188238	0.402586	0.000048
 501	4.9750e+01	19.9246	27.820071	0.000116	1.157771	0.392263	0.000047
 502	4.9849e+01	19.9695	27.870174	0.000125	1.249174	0.423231	0.000050
 503	4.9949e+01	19.9887	27.917018	0.000117	1.167927	0.395704	0.000047
 504	5.0048e+01	19.9599	27.892985	0.000060	0.599197	0.203013	-0.000024
 505	5.0148e+01	19.9262	27.866100	0.000067	0.670288	0.227100	-0.000027
 506	5.0248e+01	19.8797	27.836772	0.000073	0.731224	0.247745	-0.000029
 507	5.0347e+01	19.8460	27.812738	0.000060	0.599197	0.203013	-0.000024
 508	5.0447e+01	19.7914	27.785039	0.000069	0.690600	0.233982	-0.000028
 509	5.0546e+01	19.7449	27.762228	0.000057	0.568729	0.192691	-0.000023
 510	5.0645e+01	19.7256	27.730048	0.000080	0.802315	0.271832	-0.000032
 511	5.0745e+01	19.6695	27.707644	0.000056	0.558574	0.189250	-0.000023
 512	5.0844e+01	19.6406	27.678723	0.000072	0.721068	0.244304	-0.000029
 513	5.0944e+01	19.5877	27.651431	0.000068	0.680444	0.230541	-0.000027
 514	5.1044e+01	19.5700	27.616399	0.000087	0.873406	0.295918	-0.000035
 515	5.1143e+01	19.5187	27.592773	0.000059	0.589041	0.199573	-0.000024
 516	5.1242e+01	19.4706	27.562223	0.000076	0.761691	0.258068	-0.000031
 517	5.1342e+01	19.4385	27.534523	0.000069	0.690600	0.233982	-0.000028
 518	5.1441e+01	19.4208	27.506824	0.000069	0.690600	0.233982	-0.000028
 519	5.1541e+01	19.3535	27.475051	0.000079	0.792159	0.268391	-0.000032
 520	5.1641e+01	19.2861	27.444501	0.000076	0.761691	0.258068	-0.000031
 521	5.1740e+01	19.2572	27.413135	0.000078	0.782003	0.264950	-0.000032
 522	5.1840e+01	19.2299	27.384621	0.000071	0.710912	0.240863	-0.000029
 523	5.1939e+01	19.1898	27.357737	0.000067	0.670288	0.227100	-0.000027
 524	5.2038e+01	19.1754	27.323520	0.000085	0.853094	0.289036	-0.000034
 525	5.2138e+01	19.1160	27.294599	0.000072	0.721068	0.244304	-0.000029
 526	5.2237e+01	19.0888	27.263641	0.000077	0.771847	0.261509	-0.000031
 527	5.2337e+01	19.0422	27.229831	0.000084	0.842938	0.285595	-0.000034
 528	5.2437e+01	19.0150	27.198058	0.000079	0.792159	0.268391	-0.000032
 529	5.2536e+01	18.9604	27.165064	0.000082	0.822627	0.278713	-0.000033
 530	5.2636e+01	18.9380	27.135735	0.000073	0.731224	0.247745	-0.000029
 531	5.2735e+01	18.8610	27.102740	0.000082	0.822627	0.278713	-0.000033
 532	5.2834e+01	18.8417	27.064043	0.000096	0.964809	0.326886	-0.000039
 533	5.2934e+01	18.7936	27.029826	0.000085	0.853094	0.289036	-0.000034
 534	5.3033e+01	18.7262	26.993573	0.000090	0.903874	0.306241	-0.000036
 535	5.3133e+01	18.7423	26.955282	-0.000095	-0.954653	-0.323445	-0.000038
 536	5.3233e+01	18.6877	26.916585	0.000096	0.964809	0.326886	-0.000039
 537	5.3332e+01	18.6300	26.877887	0.000096	0.964809	0.326886	-0.000039
 538	5.3431e+01	18.6348	26.844078	-0.000084	-0.842938	-0.285595	-0.000034
 539	5.3531e+01	18.5530	26.807824	0.000090	0.903874	0.306241	-0.000036
 540	5.3630e+01	18.5161	26.771571	0.000090	0.903874	0.306241	-0.000036
 541	5.3730e+01	18.5032	26.736539	0.000087	0.873406	0.295918	-0.000035
 542	5.3830e+01	18.4342	26.697842	0.000096	0.964809	0.326886	-0.000039
 543	5.3929e+01	18.3925	26.657922	0.000100	0.995277	0.337209	-0.000040
 544	5.4029e+01	18.3508	26.618410	0.000099	0.985121	0.333768	-0.000040
 545	5.4128e+01	18.3252	26.582157	0.000090	0.903874	0.306241	-0.000036
 546	5.4227e+01	18.2899	26.542237	0.000100	0.995277	0.337209	-0.000040
 547	5.4327e+01	18.2578	26.502317	0.000100	0.995277	0.337209	-0.000040
 548	5.4426e+01	18.2161	26.464435	0.000094	0.944497	0.320004	-0.000038
 549	5.4526e+01	18.1583	26.427774	0.000091	0.914029	0.309682	-0.000037
 550	5.4626e+01	18.1391	26.390706	0.000092	0.924185	0.313122	-0.000037
 551	5.4725e+01	18.0957	26.350786	0.000100	0.995277	0.337209	-0.000040
 552	5.4825e+01	18.0348	26.316977	0.000084	0.842938	0.285595	-0.000034
 553	5.4924e+01	17.9979	26.281130	0.000089	0.893718	0.302800	-0.000036
 554	5.5023e+01	17.9546	26.240803	0.000101	1.005432	0.340650	-0.000041
 555	5.5123e+01	17.9466	26.202921	0.000094	0.944497	0.320004	-0.000038
 556	5.5222e+01	17.8840	26.167074	0.000089	0.893718	0.302800	-0.000036
 557	5.5322e+01	17.8647	26.130414	0.000091	0.914029	0.309682	-0.000037
 558	5.5422e+01	17.7942	26.091716	0.000096	0.964809	0.326886	-0.000039
 559	5.5521e+01	17.7605	26.053833	0.000094	0.944497	0.320004	-0.000038
 560	5.5620e+01	17.7380	26.019209	0.000086	0.863250	0.292477	-0.000035
 561	5.5720e+01	17.6851	25.982956	0.000090	0.903874	0.306241	-0.000036
 562	5.5819e+01	17.6450	25.940592	0.000106	1.056212	0.357854	-0.000043
 563	5.5919e+01	17.6032	25.903117	0.000093	0.934341	0.316563	-0.000038
 564	5.6019e+01	17.5728	25.865641	0.000093	0.934341	0.316563	-0.000038
 565	5.6118e+01	17.5166	25.827758	0.000094	0.944497	0.320004	-0.000038
 566	5.6218e+01	17.4958	25.789875	0.000094	0.944497	0.320004	-0.000038
 567	5.6317e+01	17.4380	25.751585	0.000095	0.954653	0.323445	-0.000038
 568	5.6416e+01	17.3947	25.709629	0.000105	1.046056	0.354413	-0.000042
 569	5.6516e+01	17.3931	25.668895	0.000102	1.015588	0.344091	-0.000041
 570	5.6615e+01	17.3161	25.636307	0.000081	0.812471	0.275273	-0.000033
 571	5.6715e+01	17.3000	25.596795	0.000099	0.985121	0.333768	-0.000040
 572	5.6815e+01	17.2246	25.555246	0.000104	1.035900	0.350972	-0.000042
 573	5.6914e+01	17.2102	25.514512	0.000102	1.015588	0.344091	-0.000041
 574	5.7014e+01	17.1797	25.479480	0.000087	0.873406	0.295918	-0.000035
 575	5.7113e+01	17.1204	25.438339	0.000103	1.025744	0.347532	-0.000041
 576	5.7212e+01	17.0771	25.400456	0.000094	0.944497	0.320004	-0.000038
 577	5.7312e+01	17.0402	25.360944	0.000099	0.985121	0.333768	-0.000040
 578	5.7411e+01	17.0209	25.328356	0.000081	0.812471	0.275273	-0.000033
 579	5.7511e+01	16.9551	25.286400	0.000105	1.046056	0.354413	-0.000042
 580	5.7611e+01	16.9407	25.244444	0.000105	1.046056	0.354413	-0.000042
 581	5.7710e+01	16.8990	25.202895	0.000104	1.035900	0.350972	-0.000042
 582	5.7809e+01	16.8573	25.165827	0.000092	0.924185	0.313122	-0.000037
 583	5.7909e+01	16.8268	25.123870	0.000105	1.046056	0.354413	-0.000042
 584	5.8008e+01	16.7610	25.091283	0.000081	0.812471	0.275273	-0.000033
 585	5.8108e+01	16.7113	25.050141	0.000103	1.025744	0.347532	-0.000041
 586	5.8208e+01	16.7033	25.012258	0.000094	0.944497	0.320004	-0.000038
 587	5.8307e+01	16.6744	24.973968	0.000095	0.954653	0.323445	-0.000038
 588	5.8407e+01	16.6263	24.934456	0.000099	0.985121	0.333768	-0.000040
 589	5.8506e+01	16.5621	24.896980	0.000093	0.934341	0.316563	-0.000038
 590	5.8605e+01	16.5204	24.855024	0.000105	1.046056	0.354413	-0.000042
 591	5.8705e+01	16.4963	24.817956	0.000092	0.924185	0.313122	-0.000037
 592	5.8804e+01	16.4514	24.780073	0.000094	0.944497	0.320004	-0.000038
 593	5.8904e+01	16.4065	24.737302	0.000107	1.066368	0.361295	-0.000043
 594	5.9004e+01	16.3712	24.698197	0.000097	0.974965	0.330327	-0.000039
 595	5.9103e+01	16.3391	24.655426	0.000107	1.066368	0.361295	-0.000043
 596	5.9203e+01	16.2878	24.617543	0.000094	0.944497	0.320004	-0.000038
 597	5.9302e+01	16.2605	24.578439	0.000097	0.974965	0.330327	-0.000039
 598	5.9401e+01	16.2252	24.537297	0.000103	1.025744	0.347532	-0.000041
 599	5.9501e+01	16.1562	24.492082	0.000113	1.127303	0.381941	-0.000045
 600	5.9600e+01	16.1257	24.451755	0.000101	1.005432	0.340650	-0.000041
 601	5.9700e+01	16.0985	24.410206	0.000104	1.035900	0.350972	-0.000042
 602	5.9800e+01	16.0632	24.368250	0.000105	1.046056	0.354413	-0.000042
 603	5.9899e+01	16.0054	24.327516	0.000102	1.015588	0.344091	-0.000041
 604	5.9998e+01	15.9814	24.285967	0.000104	1.035900	0.350972	-0.000042
 605	6.0098e+01	15.9477	24.246454	0.000099	0.985121	0.333768	-0.000040
 606	6.0197e+01	15.9044	24.202869	0.000109	1.086679	0.368177	-0.000044
 607	6.0297e+01	15.8498	24.161320	0.000104	1.035900	0.350972	-0.000042
 608	6.0397e+01	15.8209	24.117327	0.000110	1.096835	0.371618	-0.000044
 609	6.0496e+01	15.7760	24.077000	0.000101	1.005432	0.340650	-0.000041
 610	6.0596e+01	15.7199	24.036266	0.000102	1.015588	0.344091	-0.000041
 611	6.0695e+01	15.6878	23.994717	0.000104	1.035900	0.350972	-0.000042
 612	6.0794e+01	15.6653	23.947872	0.000117	1.167927	0.395704	-0.000047
 613	6.0894e+01	15.5883	23.906731	0.000103	1.025744	0.347532	-0.000041
 614	6.0993e+01	15.5947	23.868440	-0.000095	-0.954653	-0.323445	-0.000038
 615	6.1093e+01	15.5402	23.825262	0.000108	1.076524	0.364736	-0.000043
 616	6.1193e+01	15.4760	23.786565	0.000096	0.964809	0.326886	-0.000039
 617	6.1292e+01	15.4616	23.747052	0.000099	0.985121	0.333768	-0.000040
 618	6.1392e+01	15.4199	23.709170	0.000094	0.944497	0.320004	-0.000038
 619	6.1491e+01	15.4167	23.674138	0.000087	0.873406	0.295918	-0.000035
 620	6.1590e+01	15.3605	23.634219	0.000100	0.995277	0.337209	-0.000040
 621	6.1690e+01	15.3172	23.596743	0.000093	0.934341	0.316563	-0.000038
 622	6.1789e+01	15.2563	23.555194	0.000104	1.035900	0.350972	-0.000042
 623	6.1889e+01	15.2354	23.512423	0.000107	1.066368	0.361295	-0.000043
 624	6.1989e+01	15.1568	23.473318	0.000097	0.974965	0.330327	-0.000039
 625	6.2088e+01	15.1375	23.434621	0.000096	0.964809	0.326886	-0.000039
 626	6.2188e+01	15.1103	23.395923	0.000096	0.964809	0.326886	-0.000039
 627	6.2287e+01	15.0525	23.358448	0.000093	0.934341	0.316563	-0.000038
 628	6.2386e+01	15.0140	23.320157	0.000095	0.954653	0.323445	-0.000038
 629	6.2486e+01	14.9867	23.280645	0.000099	0.985121	0.333768	-0.000040
 630	6.2586e+01	14.9338	23.242355	0.000095	0.954653	0.323445	-0.000038
 631	6.2685e+01	14.8937	23.204472	0.000094	0.944497	0.320004	-0.000038
 632	6.2785e+01	14.8632	23.167811	0.000091	0.914029	0.309682	-0.000037
 633	6.2884e+01	14.8007	23.128299	0.000099	0.985121	0.333768	-0.000040
 634	6.2983e+01	14.7638	23.086750	0.000104	1.035900	0.350972	-0.000042
 635	6.3083e+01	14.7269	23.043979	0.000107	1.066368	0.361295	-0.000043
 636	6.3182e+01	14.6851	23.002430	0.000104	1.035900	0.350972	-0.000042
 637	6.3282e+01	14.6691	22.962918	0.000099	0.985121	0.333768	-0.000040
 638	6.3382e+01	14.6178	22.924220	0.000096	0.964809	0.326886	-0.000039
 639	6.3481e+01	14.6017	22.880635	0.000109	1.086679	0.368177	-0.000044
 640	6.3581e+01	14.5729	22.840308	0.000101	1.005432	0.340650	-0.000041
 641	6.3680e+01	14.4894	22.796722	0.000109	1.086679	0.368177	-0.000044
 642	6.3779e+01	14.4477	22.758025	0.000096	0.964809	0.326886	-0.000039
 643	6.3879e+01	14.4028	22.718105	0.000100	0.995277	0.337209	-0.000040
 644	6.3978e+01	14.3836	22.672075	0.000115	1.147615	0.388822	-0.000046
 645	6.4078e+01	14.3402	22.631748	0.000101	1.005432	0.340650	-0.000041
 646	6.4177e+01	14.2761	22.587755	0.000110	1.096835	0.371618	-0.000044
 647	6.4277e+01	14.2376	22.544577	0.000108	1.076524	0.364736	-0.000043
 648	6.4376e+01	14.2167	22.498140	0.000116	1.157771	0.392263	-0.000047
 649	6.4476e+01	14.1766	22.462294	0.000089	0.893718	0.302800	-0.000036
 650	6.4576e+01	14.1349	22.419116	0.000108	1.076524	0.364736	-0.000043
 651	6.4675e+01	14.1012	22.379603	0.000099	0.985121	0.333768	-0.000040
 652	6.4775e+01	14.0643	22.336425	0.000108	1.076524	0.364736	-0.000043
 653	6.4874e+01	14.0322	22.297320	0.000097	0.974965	0.330327	-0.000039
 654	6.4974e+01	13.9969	22.251291	0.000115	1.147615	0.388822	-0.000046
 655	6.5073e+01	13.9568	22.212593	0.000096	0.964809	0.326886	-0.000039
 656	6.5172e+01	13.8943	22.164934	0.000119	1.188238	0.402586	-0.000048
 657	6.5272e+01	13.8574	22.126236	0.000096	0.964809	0.326886	-0.000039
 658	6.5371e+01	13.8157	22.085502	0.000102	1.015588	0.344091	-0.000041
 659	6.5471e+01	13.7772	22.043139	0.000106	1.056212	0.357854	-0.000043
 660	6.5570e+01	13.7258	21.996701	0.000116	1.157771	0.392263	-0.000047
 661	6.5670e+01	13.7322	21.954745	-0.000105	-1.046056	-0.354413	-0.000042
 662	6.5769e+01	13.6697	21.914011	0.000102	1.015588	0.344091	-0.000041
 663	6.5869e+01	13.6167	21.869611	0.000111	1.106991	0.375059	-0.000045
 664	6.5969e+01	13.5702	21.831320	0.000095	0.954653	0.323445	-0.000038
 665	6.6068e+01	13.5317	21.785698	0.000114	1.137459	0.385382	-0.000046
 666	6.6168e+01	13.4932	21.740483	0.000113	1.127303	0.381941	-0.000045
 667	6.6267e+01	13.4627	21.699341	0.000103	1.025744	0.347532	-0.000041
 668	6.6367e+01	13.4274	21.652497	0.000117	1.167927	0.395704	-0.000047
 669	6.6466e+01	13.3986	21.610133	0.000106	1.056212	0.357854	-0.000043
 670	6.6566e+01	13.3649	21.566955	0.000108	1.076524	0.364736	-0.000043
 671	6.6665e+01	13.3087	21.518481	0.000121	1.208550	0.409468	-0.000049
 672	6.6764e+01	13.2702	21.476932	0.000104	1.035900	0.350972	-0.000042
 673	6.6864e+01	13.2093	21.429681	0.000118	1.178082	0.399145	-0.000047
 674	6.6963e+01	13.1916	21.391798	0.000094	0.944497	0.320004	-0.000038
 675	6.7063e+01	13.1355	21.345361	0.000116	1.157771	0.392263	-0.000047
 676	6.7162e+01	13.1066	21.303404	0.000105	1.046056	0.354413	-0.000042
 677	6.7262e+01	13.0633	21.255745	0.000119	1.188238	0.402586	-0.000048
 678	6.7362e+01	13.0216	21.213789	0.000105	1.046056	0.354413	-0.000042
 679	6.7461e+01	12.9782	21.169796	0.000110	1.096835	0.371618	-0.000044
 680	6.7561e+01	12.9430	21.128247	0.000104	1.035900	0.350972	-0.000042
 681	6.7660e+01	12.9301	21.087920	0.000101	1.005432	0.340650	-0.000041
 682	6.7760e+01	12.8643	21.047186	0.000102	1.015588	0.344091	-0.000041
 683	6.7859e+01	12.8194	20.998712	0.000121	1.208550	0.409468	-0.000049
 684	6.7959e+01	12.7681	20.964088	0.000086	0.863250	0.292477	-0.000035
 685	6.8058e+01	12.7440	20.919688	0.000111	1.106991	0.375059	-0.000045
 686	6.8157e+01	12.7087	20.875695	0.000110	1.096835	0.371618	-0.000044
 687	6.8257e+01	12.6574	20.833738	0.000105	1.046056	0.354413	-0.000042
 688	6.8356e+01	12.6430	20.788523	0.000113	1.127303	0.381941	-0.000045
 689	6.8456e+01	12.5964	20.745752	0.000107	1.066368	0.361295	-0.000043
 690	6.8555e+01	12.5740	20.705018	0.000102	1.015588	0.344091	-0.000041
 691	6.8655e+01	12.5066	20.657359	0.000119	1.188238	0.402586	-0.000048
 692	6.8754e+01	12.4890	20.614996	0.000106	1.056212	0.357854	-0.000043
 693	6.8854e+01	12.4296	20.571817	0.000108	1.076524	0.364736	-0.000043
 694	6.8954e+01	12.3847	20.527824	0.000110	1.096835	0.371618	-0.000044
 695	6.9053e+01	12.3670	20.485868	0.000105	1.046056	0.354413	-0.000042
 696	6.9153e+01	12.3189	20.441060	0.000112	1.117147	0.378500	-0.000045
 697	6.9252e+01	12.2852	20.396660	0.000111	1.106991	0.375059	-0.000045
 698	6.9352e+01	12.2226	20.351445	0.000113	1.127303	0.381941	-0.000045
 699	6.9451e+01	12.2114	20.307859	0.000109	1.086679	0.368177	-0.000044
 700	6.9550e+01	12.1489	20.259793	0.000120	1.198394	0.406027	-0.000048
 701	6.9650e+01	12.1087	20.212541	0.000118	1.178082	0.399145	-0.000047
 702	6.9749e+01	12.0494	20.163660	0.000122	1.218706	0.412909	-0.000049
 703	6.9849e+01	12.0253	20.113964	0.000124	1.239018	0.419791	-0.000050
 704	6.9948e+01	11.9948	20.064268	0.000124	1.239018	0.419791	-0.000050
 705	7.0048e+01	11.9371	20.017831	0.000116	1.157771	0.392263	-0.000047
 706	7.0147e+01	11.9050	19.973024	0.000112	1.117147	0.378500	-0.000045
 707	7.0247e+01	11.8793	19.923735	0.000123	1.228862	0.416350	-0.000050
 708	7.0347e+01	11.8184	19.878520	0.000113	1.127303	0.381941	-0.000045
 709	7.0446e+01	11.7831	19.830454	0.000120	1.198394	0.406027	-0.000048
 710	7.0546e+01	11.7574	19.779129	0.000128	1.279641	0.433554	-0.000052
 711	7.0645e+01	11.6868	19.733099	0.000115	1.147615	0.388822	-0.000046
 712	7.0745e+01	11.6884	19.681366	-0.000129	-1.289797	-0.436995	-0.000052
 713	7.0844e+01	11.6499	19.632893	0.000121	1.208550	0.409468	-0.000049
 714	7.0944e+01	11.5810	19.581160	0.000129	1.289797	0.436995	-0.000052
 715	7.1043e+01	11.5601	19.534723	0.000116	1.157771	0.392263	-0.000047
 716	7.1142e+01	11.5168	19.487879	0.000117	1.167927	0.395704	-0.000047
 717	7.1242e+01	11.4590	19.435739	0.000130	1.299953	0.440436	-0.000052
 718	7.1341e+01	11.4350	19.390931	0.000112	1.117147	0.378500	-0.000045
 719	7.1441e+01	11.4189	19.340421	0.000126	1.259330	0.426672	-0.000051
 720	7.1540e+01	11.3387	19.292762	0.000119	1.188238	0.402586	-0.000048
 721	7.1640e+01	11.3179	19.247139	0.000114	1.137459	0.385382	-0.000046
 722	7.1740e+01	11.2617	19.197036	0.000125	1.249174	0.423231	-0.000050
 723	7.1839e+01	11.2280	19.149784	0.000118	1.178082	0.399145	-0.000047
 724	7.1939e+01	11.2088	19.104569	0.000113	1.127303	0.381941	-0.000045
 725	7.2038e+01	11.1606	19.051615	0.000132	1.320265	0.447318	-0.000053
 726	7.2138e+01	11.1189	19.007214	0.000111	1.106991	0.375059	-0.000045
 727	7.2237e+01	11.0756	18.959963	0.000118	1.178082	0.399145	-0.000047
 728	7.2337e+01	11.0419	18.915562	0.000111	1.106991	0.375059	-0.000045
 729	7.2436e+01	10.9842	18.865867	0.000124	1.239018	0.419791	-0.000050
 730	7.2535e+01	10.9633	18.819022	0.000117	1.167927	0.395704	-0.000047
 731	7.2635e+01	10.9088	18.770548	0.000121	1.208550	0.409468	-0.000049
 732	7.2734e+01	10.8655	18.720445	0.000125	1.249174	0.423231	-0.000050
 733	7.2834e+01	10.8206	18.673601	0.000117	1.167927	0.395704	-0.000047
 734	7.2933e+01	10.7981	18.623905	0.000124	1.239018	0.419791	-0.000050
 735	7.3033e+01	10.7676	18.570136	0.000134	1.340577	0.454200	-0.000054
 736	7.3132e+01	10.7275	18.527365	0.000107	1.066368	0.361295	-0.000043
 737	7.3232e+01	10.6762	18.473188	0.000135	1.350732	0.457641	-0.000054
 738	7.3332e+01	10.6537	18.427159	0.000115	1.147615	0.388822	-0.000046
 739	7.3431e+01	10.5911	18.378278	0.000122	1.218706	0.412909	-0.000049
 740	7.3531e+01	10.5575	18.332248	0.000115	1.147615	0.388822	-0.000046
 741	7.3630e+01	10.5013	18.279701	0.000131	1.310109	0.443877	-0.000053
 742	7.3730e+01	10.5093	18.238152	-0.000104	-1.035900	-0.350972	-0.000042
 743	7.3829e+01	10.4339	18.183568	0.000136	1.360888	0.461081	-0.000055
 744	7.3928e+01	10.3906	18.135501	0.000120	1.198394	0.406027	-0.000048
 745	7.4028e+01	10.3457	18.084176	0.000128	1.279641	0.433554	-0.000052
 746	7.4127e+01	10.3264	18.038961	0.000113	1.127303	0.381941	-0.000045
 747	7.4227e+01	10.2623	17.983563	0.000138	1.381200	0.467963	-0.000056
 748	7.4326e+01	10.2446	17.938755	0.000112	1.117147	0.378500	-0.000045
 749	7.4426e+01	10.2029	17.887430	0.000128	1.279641	0.433554	-0.000052
 750	7.4525e+01	10.1500	17.836919	0.000126	1.259330	0.426672	-0.000051
 751	7.4625e+01	10.1291	17.789260	0.000119	1.188238	0.402586	-0.000048
 752	7.4725e+01	10.0906	17.737528	0.000129	1.289797	0.436995	-0.000052
 753	7.4824e+01	10.0056	17.691091	0.000116	1.157771	0.392263	-0.000047
 754	7.4924e+01	10.0104	17.642210	-0.000122	-1.218706	-0.412909	-0.000049
 755	7.5023e+01	9.9350	17.592921	0.000123	1.228862	0.416350	-0.000050
 756	7.5123e+01	9.9350	17.547706	0.000113	1.127303	0.381941	-0.000045
 757	7.5222e+01	9.8853	17.494752	0.000132	1.320265	0.447318	-0.000053
 758	7.5322e+01	9.8227	17.447092	0.000119	1.188238	0.402586	-0.000048
 759	7.5421e+01	9.8147	17.399026	0.000120	1.198394	0.406027	-0.000048
 760	7.5520e+01	9.7361	17.348108	0.000127	1.269485	0.430113	-0.000051
 761	7.5620e+01	9.7281	17.298820	0.000123	1.228862	0.416350	-0.000050
 762	7.5719e+01	9.6880	17.245458	0.000133	1.330421	0.450759	-0.000054
 763	7.5819e+01	9.6350	17.195762	0.000124	1.239018	0.419791	-0.000050
 764	7.5918e+01	9.5933	17.144437	0.000128	1.279641	0.433554	-0.000052
 765	7.6018e+01	9.5532	17.098407	0.000115	1.147615	0.388822	-0.000046
 766	7.6118e+01	9.5259	17.043416	0.000137	1.371044	0.464522	-0.000055
 767	7.6217e+01	9.4922	16.987203	0.000140	1.401512	0.474845	-0.000056
 768	7.6317e+01	9.4377	16.935878	0.000128	1.279641	0.433554	-0.000052
 769	7.6416e+01	9.4040	16.886996	0.000122	1.218706	0.412909	-0.000049
 770	7.6516e+01	9.3527	16.832413	0.000136	1.360888	0.461081	-0.000055
 771	7.6615e+01	9.3158	16.779051	0.000133	1.330421	0.450759	-0.000054
 772	7.6715e+01	9.2500	16.729355	0.000124	1.239018	0.419791	-0.000050
 773	7.6814e+01	9.2468	16.674771	0.000136	1.360888	0.461081	-0.000055
 774	7.6913e+01	9.2019	16.627519	0.000118	1.178082	0.399145	-0.000047
 775	7.7013e+01	9.1634	16.572935	0.000136	1.360888	0.461081	-0.000055
 776	7.7112e+01	9.1024	16.517537	0.000138	1.381200	0.467963	-0.000056
 777	7.7212e+01	9.0992	16.462546	0.000137	1.371044	0.464522	-0.000055
 778	7.7311e+01	9.0350	16.412850	0.000124	1.239018	0.419791	-0.000050
 779	7.7411e+01	9.0030	16.357044	0.000139	1.391356	0.471404	-0.000056
 780	7.7510e+01	8.9693	16.304089	0.000132	1.320265	0.447318	-0.000053
 781	7.7610e+01	8.9276	16.254394	0.000124	1.239018	0.419791	-0.000050
 782	7.7710e+01	8.8762	16.204290	0.000125	1.249174	0.423231	-0.000050
 783	7.7809e+01	8.8409	16.148892	0.000138	1.381200	0.467963	-0.000056
 784	7.7909e+01	8.8056	16.100011	0.000122	1.218706	0.412909	-0.000049
 785	7.8008e+01	8.7575	16.052759	0.000118	1.178082	0.399145	-0.000047
 786	7.8108e+01	8.7254	16.004285	0.000121	1.208550	0.409468	-0.000049
 787	7.8207e+01	8.6885	15.953367	0.000127	1.269485	0.430113	-0.000051
 788	7.8306e+01	8.6324	15.902857	0.000126	1.259330	0.426672	-0.000051
 789	7.8406e+01	8.5939	15.853976	0.000122	1.218706	0.412909	-0.000049
 790	7.8505e+01	8.5682	15.806724	0.000118	1.178082	0.399145	-0.000047
 791	7.8605e+01	8.5393	15.750918	0.000139	1.391356	0.471404	-0.000056
 792	7.8704e+01	8.4832	15.702852	0.000120	1.198394	0.406027	-0.000048
 793	7.8804e+01	8.4415	15.651934	0.000127	1.269485	0.430113	-0.000051
 794	7.8903e+01	8.3853	15.603460	0.000121	1.208550	0.409468	-0.000049
 795	7.9003e+01	8.3484	15.551728	0.000129	1.289797	0.436995	-0.000052
 796	7.9103e+01	8.3228	15.506105	0.000114	1.137459	0.385382	-0.000046
 797	7.9202e+01	8.2762	15.452336	0.000134	1.340577	0.454200	-0.000054
 798	7.9302e+01	8.2233	15.401826	0.000126	1.259330	0.426672	-0.000051
 799	7.9401e+01	8.2008	15.351315	0.000126	1.259330	0.426672	-0.000051
 800	7.9501e+01	8.1623	15.302027	0.000123	1.228862	0.416350	-0.000050
 801	7.9600e+01	8.1303	15.249479	0.000131	1.310109	0.443877	-0.000053
 802	7.9700e+01	8.0709	15.196932	0.000131	1.310109	0.443877	-0.000053
 803	7.9799e+01	8.0356	15.145607	0.000128	1.279641	0.433554	-0.000052
 804	7.9898e+01	7.9923	15.092653	0.000132	1.320265	0.447318	-0.000053
 805	7.9998e+01	7.9506	15.039698	0.000132	1.320265	0.447318	-0.000053
 806	8.0097e+01	7.9313	14.985114	0.000136	1.360888	0.461081	-0.000055
 807	8.0197e+01	7.8688	14.938270	0.000117	1.167927	0.395704	-0.000047
 808	8.0296e+01	7.8447	14.882056	0.000140	1.401512	0.474845	-0.000056
 809	8.0396e+01	7.8110	14.829102	0.000132	1.320265	0.447318	-0.000053
 810	8.0496e+01	7.7709	14.773703	0.000138	1.381200	0.467963	-0.000056
 811	8.0595e+01	7.7276	14.721156	0.000131	1.310109	0.443877	-0.000053
 812	8.0695e+01	7.6939	14.668202	0.000132	1.320265	0.447318	-0.000053
 813	8.0794e+01	7.6410	14.613618	0.000136	1.360888	0.461081	-0.000055
 814	8.0894e+01	7.6233	14.559034	0.000136	1.360888	0.461081	-0.000055
 815	8.0993e+01	7.5656	14.506894	0.000130	1.299953	0.440436	-0.000052
 816	8.1093e+01	7.5206	14.450681	0.000140	1.401512	0.474845	-0.000056
 817	8.1192e+01	7.4966	14.398133	0.000131	1.310109	0.443877	-0.000053
 818	8.1291e+01	7.4356	14.343550	0.000136	1.360888	0.461081	-0.000055
 819	8.1391e+01	7.4116	14.291002	0.000131	1.310109	0.443877	-0.000053
 820	8.1490e+01	7.3522	14.237641	0.000133	1.330421	0.450759	-0.000054
 821	8.1590e+01	7.3313	14.183464	0.000135	1.350732	0.457641	-0.000054
 822	8.1689e+01	7.2784	14.129695	0.000134	1.340577	0.454200	-0.000054
 823	8.1789e+01	7.2479	14.077148	0.000131	1.310109	0.443877	-0.000053
 824	8.1888e+01	7.1918	14.017676	0.000148	1.482759	0.502372	-0.000060
 825	8.1988e+01	7.1645	13.963092	0.000136	1.360888	0.461081	-0.000055
 826	8.2088e+01	7.1180	13.912989	0.000125	1.249174	0.423231	-0.000050
 827	8.2187e+01	7.1019	13.854331	0.000146	1.462447	0.495491	-0.000059
 828	8.2287e+01	7.0442	13.800155	0.000135	1.350732	0.457641	-0.000054
 829	8.2386e+01	6.9961	13.743127	0.000142	1.421824	0.481727	-0.000057
 830	8.2486e+01	6.9383	13.689765	0.000133	1.330421	0.450759	-0.000054
 831	8.2585e+01	6.9367	13.632737	0.000142	1.421824	0.481727	-0.000057
 832	8.2684e+01	6.8902	13.575709	0.000142	1.421824	0.481727	-0.000057
 833	8.2784e+01	6.8629	13.518681	0.000142	1.421824	0.481727	-0.000057
 834	8.2883e+01	6.8212	13.464097	0.000136	1.360888	0.461081	-0.000055
 835	8.2983e+01	6.7586	13.411142	0.000132	1.320265	0.447318	-0.000053
 836	8.3082e+01	6.7522	13.354929	0.000140	1.401512	0.474845	-0.000056
 837	8.3182e+01	6.6800	13.299938	0.000137	1.371044	0.464522	-0.000055
 838	8.3281e+01	6.6576	13.240873	0.000147	1.472603	0.498931	-0.000059
 839	8.3381e+01	6.5982	13.183438	0.000143	1.431980	0.485168	-0.000058
 840	8.3481e+01	6.5469	13.127632	0.000139	1.391356	0.471404	-0.000056
 841	8.3580e+01	6.5132	13.069789	0.000144	1.442135	0.488609	-0.000058
 842	8.3680e+01	6.5052	13.011132	0.000146	1.462447	0.495491	-0.000059
 843	8.3779e+01	6.4378	12.956141	0.000137	1.371044	0.464522	-0.000055
 844	8.3879e+01	6.4137	12.901964	0.000135	1.350732	0.457641	-0.000054
 845	8.3978e+01	6.3704	12.844122	0.000144	1.442135	0.488609	-0.000058
 846	8.4078e+01	6.3367	12.783428	0.000151	1.513227	0.512695	-0.000061
 847	8.4177e+01	6.2886	12.729251	0.000135	1.350732	0.457641	-0.000054
 848	8.4276e+01	6.2645	12.677111	0.000130	1.299953	0.440436	-0.000052
 849	8.4376e+01	6.2020	12.618861	0.000145	1.452291	0.492050	-0.000059
 850	8.4475e+01	6.1875	12.558167	0.000151	1.513227	0.512695	-0.000061
 851	8.4575e+01	6.1362	12.505213	0.000132	1.320265	0.447318	-0.000053
 852	8.4674e+01	6.0897	12.447370	0.000144	1.442135	0.488609	-0.000058
 853	8.4774e+01	6.0576	12.391971	0.000138	1.381200	0.467963	-0.000056
 854	8.4874e+01	6.0287	12.335351	0.000141	1.411668	0.478286	-0.000057
 855	8.4973e+01	5.9694	12.276693	0.000146	1.462447	0.495491	-0.000059
 856	8.5073e+01	5.9661	12.218851	0.000144	1.442135	0.488609	-0.000058
 857	8.5172e+01	5.9036	12.161008	0.000144	1.442135	0.488609	-0.000058
 858	8.5272e+01	5.8587	12.104795	0.000140	1.401512	0.474845	-0.000056
 859	8.5371e+01	5.7784	12.049396	0.000138	1.381200	0.467963	-0.000056
 860	8.5471e+01	5.7448	11.991146	0.000145	1.452291	0.492050	-0.000059
 861	8.5570e+01	5.7255	11.937784	0.000133	1.330421	0.450759	-0.000054
 862	8.5669e+01	5.6758	11.878312	0.000148	1.482759	0.502372	-0.000060
 863	8.5769e+01	5.6533	11.818026	0.000150	1.503071	0.509254	-0.000061
 864	8.5868e+01	5.6196	11.760590	0.000143	1.431980	0.485168	-0.000058
 865	8.5968e+01	5.5571	11.700711	0.000149	1.492915	0.505813	-0.000060
 866	8.6067e+01	5.5250	11.640424	0.000150	1.503071	0.509254	-0.000061
 867	8.6167e+01	5.4881	11.580952	0.000148	1.482759	0.502372	-0.000060
 868	8.6266e+01	5.4512	11.514963	0.000165	1.645253	0.557427	-0.000066
 869	8.6366e+01	5.4047	11.457528	0.000143	1.431980	0.485168	-0.000058
 870	8.6466e+01	5.3822	11.391131	0.000166	1.655409	0.560868	-0.000067
 871	8.6565e+01	5.3196	11.332881	0.000145	1.452291	0.492050	-0.000059
 872	8.6665e+01	5.2763	11.266484	0.000166	1.655409	0.560868	-0.000067
 873	8.6764e+01	5.2571	11.204975	0.000153	1.533538	0.519577	-0.000062
 874	8.6864e+01	5.2298	11.146318	0.000146	1.462447	0.495491	-0.000059
 875	8.6963e+01	5.1817	11.075440	0.000177	1.767124	0.598718	-0.000071
 876	8.7063e+01	5.1400	11.019227	0.000140	1.401512	0.474845	-0.000056
 877	8.7162e+01	5.1015	10.951201	0.000170	1.696032	0.574631	-0.000068
 878	8.7261e+01	5.0646	10.889692	0.000153	1.533538	0.519577	-0.000062
 879	8.7361e+01	5.0373	10.821259	0.000171	1.706188	0.578072	-0.000069
 880	8.7460e+01	4.9731	10.759342	0.000154	1.543694	0.523018	-0.000062
 881	8.7560e+01	4.9362	10.695390	0.000159	1.594474	0.540222	-0.000064
 882	8.7659e+01	4.8913	10.636325	0.000147	1.472603	0.498931	-0.000059
 883	8.7759e+01	4.8432	10.565040	0.000178	1.777280	0.602159	-0.000072
 884	8.7859e+01	4.8143	10.507605	0.000143	1.431980	0.485168	-0.000058
 885	8.7958e+01	4.7854	10.438764	0.000172	1.716344	0.581513	-0.000069
 886	8.8058e+01	4.7598	10.373996	0.000161	1.614785	0.547104	-0.000065
 887	8.8157e+01	4.6892	10.308007	0.000165	1.645253	0.557427	-0.000066
 888	8.8257e+01	4.6587	10.245684	0.000155	1.553850	0.526459	-0.000063
 889	8.8356e+01	4.6330	10.184989	0.000151	1.513227	0.512695	-0.000061
 890	8.8456e+01	4.5608	10.119815	0.000162	1.624941	0.550545	-0.000066
 891	8.8555e+01	4.5336	10.055455	0.000160	1.604630	0.543663	-0.000065
 892	8.8654e+01	4.4886	9.995168	0.000150	1.503071	0.509254	-0.000061
 893	8.8754e+01	4.4598	9.928364	0.000167	1.665565	0.564309	-0.000067
 894	8.8853e+01	4.4181	9.864004	0.000160	1.604630	0.543663	-0.000065
 895	8.8953e+01	4.4068	9.798421	0.000164	1.635097	0.553986	-0.000066
 896	8.9052e+01	4.3314	9.736505	0.000154	1.543694	0.523018	-0.000062
 897	8.9152e+01	4.3009	9.672145	0.000160	1.604630	0.543663	-0.000065
 898	8.9251e+01	4.2624	9.606563	0.000164	1.635097	0.553986	-0.000066
 899	8.9351e+01	4.2239	9.540981	0.000164	1.635097	0.553986	-0.000066
 900	8.9451e+01	4.1854	9.477435	0.000158	1.584318	0.536781	-0.000064
 901	8.9550e+01	4.1453	9.409002	0.000171	1.706188	0.578072	-0.000069
 902	8.9650e+01	4.1052	9.347086	0.000154	1.543694	0.523018	-0.000062
 903	8.9749e+01	4.0796	9.278245	0.000172	1.716344	0.581513	-0.000069
 904	8.9849e+01	4.0010	9.213885	0.000160	1.604630	0.543663	-0.000065
 905	8.9948e+01	3.9801	9.145859	0.000170	1.696032	0.574631	-0.000068
 906	9.0047e+01	3.9496	9.081091	0.000161	1.614785	0.547104	-0.000065
 907	9.0147e+01	3.9207	9.015916	0.000162	1.624941	0.550545	-0.000066
 908	9.0246e+01	3.8566	8.948705	0.000168	1.675721	0.567750	-0.000068
 909	9.0346e+01	3.8261	8.883530	0.000162	1.624941	0.550545	-0.000066
 910	9.0445e+01	3.7764	8.817948	0.000164	1.635097	0.553986	-0.000066
 911	9.0545e+01	3.7427	8.750329	0.000169	1.685877	0.571190	-0.000068
 912	9.0644e+01	3.6962	8.681081	0.000173	1.726500	0.584954	-0.000070
 913	9.0744e+01	3.6785	8.619572	0.000153	1.533538	0.519577	-0.000062
 914	9.0844e+01	3.6191	8.547880	0.000179	1.787435	0.605600	-0.000072
 915	9.0943e+01	3.5983	8.481483	0.000166	1.655409	0.560868	-0.000067
 916	9.1043e+01	3.5550	8.413049	0.000171	1.706188	0.578072	-0.000069
 917	9.1142e+01	3.5181	8.346653	0.000166	1.655409	0.560868	-0.000067
 918	9.1242e+01	3.4443	8.276182	0.000176	1.756968	0.595277	-0.000071
 919	9.1341e+01	3.4250	8.210600	0.000164	1.635097	0.553986	-0.000066
 920	9.1441e+01	3.3865	8.142981	0.000169	1.685877	0.571190	-0.000068
 921	9.1540e+01	3.3320	8.077399	0.000164	1.635097	0.553986	-0.000066
 922	9.1639e+01	3.3079	8.008558	0.000172	1.716344	0.581513	-0.000069
 923	9.1739e+01	3.2662	7.940939	0.000169	1.685877	0.571190	-0.000068
 924	9.1838e+01	3.2261	7.878616	0.000155	1.553850	0.526459	-0.000063
 925	9.1938e+01	3.1908	7.807331	0.000178	1.777280	0.602159	-0.000072
 926	9.2037e+01	3.1443	7.739305	0.000170	1.696032	0.574631	-0.000068
 927	9.2137e+01	3.1026	7.666798	0.000181	1.807747	0.612481	-0.000073
 928	9.2237e+01	3.0609	7.602845	0.000159	1.594474	0.540222	-0.000064
 929	9.2336e+01	3.0111	7.530338	0.000181	1.807747	0.612481	-0.000073
 930	9.2436e+01	2.9903	7.460683	0.000174	1.736656	0.588395	-0.000070
 931	9.2535e+01	2.9742	7.388176	0.000181	1.807747	0.612481	-0.000073
 932	9.2635e+01	2.8956	7.318113	0.000175	1.746812	0.591836	-0.000070
 933	9.2734e+01	2.8636	7.245198	0.000182	1.817903	0.615922	-0.000073
 934	9.2834e+01	2.8331	7.175950	0.000173	1.726500	0.584954	-0.000070
 935	9.2933e+01	2.7866	7.106702	0.000173	1.726500	0.584954	-0.000070
 936	9.3032e+01	2.7464	7.032565	0.000185	1.848371	0.626245	-0.000075
 937	9.3132e+01	2.7128	6.957614	0.000187	1.868682	0.633127	-0.000075
 938	9.3231e+01	2.6823	6.886330	0.000178	1.777280	0.602159	-0.000072
 939	9.3331e+01	2.6325	6.819118	0.000168	1.675721	0.567750	-0.000068
 940	9.3430e+01	2.6149	6.744982	0.000185	1.848371	0.626245	-0.000075
 941	9.3530e+01	2.5555	6.672067	0.000182	1.817903	0.615922	-0.000073
 942	9.3629e+01	2.5026	6.593858	0.000195	1.949930	0.660654	-0.000079
 943	9.3729e+01	2.4545	6.523387	0.000176	1.756968	0.595277	-0.000071
 944	9.3829e+01	2.4432	6.452102	0.000178	1.777280	0.602159	-0.000072
 945	9.3928e+01	2.3839	6.378781	0.000183	1.828059	0.619363	-0.000074
 946	9.4028e+01	2.3470	6.302608	0.000190	1.899150	0.643449	-0.000077
 947	9.4127e+01	2.3005	6.226435	0.000190	1.899150	0.643449	-0.000077
 948	9.4227e+01	2.2475	6.157186	0.000173	1.726500	0.584954	-0.000070
 949	9.4326e+01	2.2459	6.082235	0.000187	1.868682	0.633127	-0.000075
 950	9.4425e+01	2.1818	6.008914	0.000183	1.828059	0.619363	-0.000074
 951	9.4525e+01	2.1481	5.933963	0.000187	1.868682	0.633127	-0.000075
 952	9.4624e+01	2.0903	5.863085	0.000177	1.767124	0.598718	-0.000071
 953	9.4724e+01	2.0887	5.791393	0.000179	1.787435	0.605600	-0.000072
 954	9.4823e+01	2.0149	5.722959	0.000171	1.706188	0.578072	-0.000069
 955	9.4923e+01	1.9989	5.653711	0.000173	1.726500	0.584954	-0.000070
 956	9.5022e+01	1.9427	5.576723	0.000192	1.919462	0.650331	-0.000077
 957	9.5122e+01	1.8930	5.508697	0.000170	1.696032	0.574631	-0.000068
 958	9.5222e+01	1.8673	5.435375	0.000183	1.828059	0.619363	-0.000074
 959	9.5321e+01	1.8240	5.364498	0.000177	1.767124	0.598718	-0.000071
 960	9.5421e+01	1.7743	5.289139	0.000188	1.878838	0.636568	-0.000076
 961	9.5520e+01	1.7342	5.218669	0.000176	1.756968	0.595277	-0.000071
 962	9.5620e+01	1.7021	5.145347	0.000183	1.828059	0.619363	-0.000074
 963	9.5719e+01	1.6652	5.071618	0.000184	1.838215	0.622804	-0.000074
 964	9.5819e+01	1.6251	5.003592	0.000170	1.696032	0.574631	-0.000068
 965	9.5918e+01	1.5882	4.927012	0.000191	1.909306	0.646890	-0.000077
 966	9.6017e+01	1.5673	4.854098	0.000182	1.817903	0.615922	-0.000073
 967	9.6117e+01	1.5128	4.784442	0.000174	1.736656	0.588395	-0.000070
 968	9.6216e+01	1.4807	4.705010	0.000198	1.980397	0.670977	-0.000080
 969	9.6316e+01	1.4149	4.631688	0.000183	1.828059	0.619363	-0.000074
 970	9.6415e+01	1.3893	4.559589	0.000180	1.797591	0.609040	-0.000072
 971	9.6515e+01	1.3395	4.485860	0.000184	1.838215	0.622804	-0.000074
 972	9.6615e+01	1.2930	4.407650	0.000195	1.949930	0.660654	-0.000079
 973	9.6714e+01	1.2657	4.331070	0.000191	1.909306	0.646890	-0.000077
 974	9.6814e+01	1.2513	4.253267	0.000194	1.939774	0.657213	-0.000078
 975	9.6913e+01	1.1839	4.180353	0.000182	1.817903	0.615922	-0.000073
 976	9.7013e+01	1.1374	4.101736	0.000196	1.960085	0.664095	-0.000079
 977	9.7112e+01	1.1438	4.023119	-0.000196	-1.960085	-0.664095	-0.000079
 978	9.7212e+01	1.0652	3.946946	0.000190	1.899150	0.643449	-0.000077
 979	9.7311e+01	1.0139	3.867921	0.000197	1.970241	0.667536	-0.000079
 980	9.7410e+01	0.9818	3.786453	0.000203	2.031177	0.688181	-0.000082
 981	9.7510e+01	0.9481	3.713538	0.000182	1.817903	0.615922	-0.000073
 982	9.7609e+01	0.9032	3.635329	0.000195	1.949930	0.660654	-0.000079
 983	9.7709e+01	0.8454	3.556304	0.000197	1.970241	0.667536	-0.000079
 984	9.7808e+01	0.8310	3.480946	0.000188	1.878838	0.636568	-0.000076
 985	9.7908e+01	0.7813	3.399070	0.000204	2.041332	0.691622	-0.000082
 986	9.8007e+01	0.7363	3.324526	0.000186	1.858527	0.629686	-0.000075
 987	9.8107e+01	0.7251	3.241428	0.000207	2.071800	0.701945	-0.000084
 988	9.8207e+01	0.6353	3.171773	0.000174	1.736656	0.588395	-0.000070
 989	9.8306e+01	0.6337	3.087046	0.000211	2.112424	0.715709	-0.000085
 990	9.8406e+01	0.5968	3.009243	0.000194	1.939774	0.657213	-0.000078
 991	9.8505e+01	0.5583	2.931441	0.000194	1.939774	0.657213	-0.000078
 992	9.8605e+01	0.5230	2.855268	0.000190	1.899150	0.643449	-0.000077
 993	9.8704e+01	0.4668	2.767282	0.000219	2.193671	0.743236	-0.000088
 994	9.8803e+01	0.4396	2.692331	0.000187	1.868682	0.633127	-0.000075
 995	9.8903e+01	0.3818	2.608418	0.000209	2.092112	0.708827	-0.000084
 996	9.9002e+01	0.3593	2.527357	0.000202	2.021021	0.684740	-0.000081
 997	9.9102e+01	0.3208	2.449554	0.000194	1.939774	0.657213	-0.000078
 998	9.9201e+01	0.3016	2.369715	0.000199	1.990553	0.674418	-0.000080
 999	9.9301e+01	0.2198	2.286617	0.000207	2.071800	0.701945	-0.000084
1000	9.9400e+01	0.1861	2.203927	0.000206	2.061644	0.698504	-0.000083
1001	9.9500e+01	0.1604	2.130198	0.000184	1.838215	0.622804	-0.000074
1002	9.9600e+01	0.1011	2.046693	0.000208	2.081956	0.705386	-0.000084
1003	9.9699e+01	0.0754	1.964817	0.000204	2.041332	0.691622	-0.000082
1004	9.9799e+01	0.0193	1.879682	0.000212	2.122580	0.719149	-0.000086
1005	9.9898e+01	0.0209	1.816544	-0.000157	-1.574162	-0.533340	-0.000063
1006	9.9998e+01	-0.0337	1.734668	0.000204	2.041332	0.691622	-0.000082
1007	1.0010e+02	-0.0882	1.656458	0.000195	1.949930	0.660654	-0.000079
1008	1.0020e+02	-0.1059	1.570509	0.000214	2.142891	0.726031	-0.000086
1009	1.0030e+02	-0.1524	1.487004	0.000208	2.081956	0.705386	-0.000084
1010	1.0040e+02	-0.1893	1.409202	0.000194	1.939774	0.657213	-0.000078
1011	1.0050e+02	-0.2342	1.321623	0.000218	2.183515	0.739795	-0.000088
1012	1.0059e+02	-0.2888	1.240562	0.000202	2.021021	0.684740	-0.000081
1013	1.0069e+02	-0.3273	1.159501	0.000202	2.021021	0.684740	-0.000081
1014	1.0079e+02	-0.3529	1.079254	0.000200	2.000709	0.677859	-0.000081
1015	1.0089e+02	-0.4011	0.999822	0.000198	1.980397	0.670977	-0.000080
1016	1.0099e+02	-0.4588	0.919168	0.000201	2.010865	0.681299	-0.000081
1017	1.0109e+02	-0.4909	0.838515	0.000201	2.010865	0.681299	-0.000081
1018	1.0119e+02	-0.5101	0.751343	0.000217	2.173359	0.736354	-0.000088
1019	1.0129e+02	-0.5599	0.673541	0.000194	1.939774	0.657213	-0.000078
1020	1.0139e+02	-0.5968	0.594924	0.000196	1.960085	0.664095	-0.000079
1021	1.0149e+02	-0.6417	0.511826	0.000207	2.071800	0.701945	-0.000084
1022	1.0159e+02	-0.6674	0.432801	0.000197	1.970241	0.667536	-0.000079
1023	1.0169e+02	-0.7091	0.349704	0.000207	2.071800	0.701945	-0.000084
1024	1.0179e+02	-0.7476	0.266606	0.000207	2.071800	0.701945	-0.000084
1025	1.0189e+02	-0.8021	0.185545	0.000202	2.021021	0.684740	-0.000081
1026	1.0199e+02	-0.8374	0.100003	0.000213	2.132735	0.722590	-0.000086
1027	1.0209e+02	-0.8855	0.021793	0.000195	1.949930	0.660654	-0.000079
1028	1.0219e+02	-0.9112	-0.059268	0.000202	2.021021	0.684740	-0.000081
1029	1.0229e+02	-0.9513	-0.140737	0.000203	2.031177	0.688181	-0.000082
1030	1.0239e+02	-0.9850	-0.218947	0.000195	1.949930	0.660654	-0.000079
1031	1.0248e+02	-1.0347	-0.308969	0.000224	2.244450	0.760440	-0.000090
1032	1.0258e+02	-1.0732	-0.384735	0.000189	1.888994	0.640009	-0.000076
1033	1.0268e+02	-1.1230	-0.468240	0.000208	2.081956	0.705386	-0.000084
1034	1.0278e+02	-1.1550	-0.549709	0.000203	2.031177	0.688181	-0.000082
1035	1.0288e+02	-1.1855	-0.639731	0.000224	2.244450	0.760440	-0.000090
1036	1.0298e+02	-1.2401	-0.714683	0.000187	1.868682	0.633127	-0.000075
1037	1.0308e+02	-1.2850	-0.805520	0.000226	2.264762	0.767322	-0.000091
1038	1.0318e+02	-1.3123	-0.893099	0.000218	2.183515	0.739795	-0.000088
1039	1.0328e+02	-1.3363	-0.973345	0.000200	2.000709	0.677859	-0.000081
1040	1.0338e+02	-1.3941	-1.060924	0.000218	2.183515	0.739795	-0.000088
1041	1.0348e+02	-1.4197	-1.144836	0.000209	2.092112	0.708827	-0.000084
1042	1.0358e+02	-1.4919	-1.231600	0.000216	2.163203	0.732913	-0.000087
1043	1.0368e+02	-1.5080	-1.314698	0.000207	2.071800	0.701945	-0.000084
1044	1.0378e+02	-1.5561	-1.395352	0.000201	2.010865	0.681299	-0.000081
1045	1.0388e+02	-1.5930	-1.476413	0.000202	2.021021	0.684740	-0.000081
1046	1.0398e+02	-1.6347	-1.562770	0.000215	2.153047	0.729472	-0.000087
1047	1.0408e+02	-1.6716	-1.653607	0.000226	2.264762	0.767322	-0.000091
1048	1.0418e+02	-1.7021	-1.732632	0.000197	1.970241	0.667536	-0.000079
1049	1.0428e+02	-1.7598	-1.817766	0.000212	2.122580	0.719149	-0.000086
1050	1.0438e+02	-1.7967	-1.899235	0.000203	2.031177	0.688181	-0.000082
1051	1.0447e+02	-1.8208	-1.986813	0.000218	2.183515	0.739795	-0.000088
1052	1.0457e+02	-1.8465	-2.073985	0.000217	2.173359	0.736354	-0.000088
1053	1.0467e+02	-1.9074	-2.150565	0.000191	1.909306	0.646890	-0.000077
1054	1.0477e+02	-1.9363	-2.236514	0.000214	2.142891	0.726031	-0.000086
1055	1.0487e+02	-1.9892	-2.317983	0.000203	2.031177	0.688181	-0.000082
1056	1.0497e+02	-2.0181	-2.399451	0.000203	2.031177	0.688181	-0.000082
1057	1.0507e+02	-2.0630	-2.478068	0.000196	1.960085	0.664095	-0.000079
1058	1.0517e+02	-2.1064	-2.559537	0.000203	2.031177	0.688181	-0.000082
1059	1.0527e+02	-2.1208	-2.641820	0.000205	2.051488	0.695063	-0.000083
1060	1.0537e+02	-2.1930	-2.719623	0.000194	1.939774	0.657213	-0.000078
1061	1.0547e+02	-2.2459	-2.799462	0.000199	1.990553	0.674418	-0.000080
1062	1.0557e+02	-2.2652	-2.883782	0.000210	2.102268	0.712268	-0.000085
1063	1.0567e+02	-2.3101	-2.958325	0.000186	1.858527	0.629686	-0.000075
1064	1.0577e+02	-2.3630	-3.042645	0.000210	2.102268	0.712268	-0.000085
1065	1.0587e+02	-2.3823	-3.116782	0.000185	1.848371	0.626245	-0.000075
1066	1.0597e+02	-2.4384	-3.199065	0.000205	2.051488	0.695063	-0.000083
1067	1.0607e+02	-2.4609	-3.279311	0.000200	2.000709	0.677859	-0.000081
1068	1.0617e+02	-2.5090	-3.359150	0.000199	1.990553	0.674418	-0.000080
1069	1.0627e+02	-2.5636	-3.437767	0.000196	1.960085	0.664095	-0.000079
1070	1.0637e+02	-2.6037	-3.520051	0.000205	2.051488	0.695063	-0.000083
1071	1.0647e+02	-2.6245	-3.592150	0.000180	1.797591	0.609040	-0.000072
1072	1.0656e+02	-2.6678	-3.671175	0.000197	1.970241	0.667536	-0.000079
1073	1.0666e+02	-2.7112	-3.748977	0.000194	1.939774	0.657213	-0.000078
1074	1.0676e+02	-2.7529	-3.834112	0.000212	2.122580	0.719149	-0.000086
1075	1.0686e+02	-2.7930	-3.907841	0.000184	1.838215	0.622804	-0.000074
1076	1.0696e+02	-2.8267	-3.984829	0.000192	1.919462	0.650331	-0.000077
1077	1.0706e+02	-2.8700	-4.060187	0.000188	1.878838	0.636568	-0.000076
1078	1.0716e+02	-2.9133	-4.139619	0.000198	1.980397	0.670977	-0.000080
1079	1.0726e+02	-2.9630	-4.220680	0.000202	2.021021	0.684740	-0.000081
1080	1.0736e+02	-2.9807	-4.290743	0.000175	1.746812	0.591836	-0.000070
1081	1.0746e+02	-3.0432	-4.370989	0.000200	2.000709	0.677859	-0.000081
1082	1.0756e+02	-3.0657	-4.438608	0.000169	1.685877	0.571190	-0.000068
1083	1.0766e+02	-3.1234	-4.524150	0.000213	2.132735	0.722590	-0.000086
1084	1.0776e+02	-3.1411	-4.596657	0.000181	1.807747	0.612481	-0.000073
1085	1.0786e+02	-3.1812	-4.672015	0.000188	1.878838	0.636568	-0.000076
1086	1.0796e+02	-3.2406	-4.744930	0.000182	1.817903	0.615922	-0.000073
1087	1.0806e+02	-3.2582	-4.819881	0.000187	1.868682	0.633127	-0.000075
1088	1.0816e+02	-3.3063	-4.896054	0.000190	1.899150	0.643449	-0.000077
1089	1.0826e+02	-3.3625	-4.968968	0.000182	1.817903	0.615922	-0.000073
1090	1.0836e+02	-3.3817	-5.041068	0.000180	1.797591	0.609040	-0.000072
1091	1.0845e+02	-3.3978	-5.116019	0.000187	1.868682	0.633127	-0.000075
1092	1.0855e+02	-3.4812	-5.186082	0.000175	1.746812	0.591836	-0.000070
1093	1.0865e+02	-3.5069	-5.260218	0.000185	1.848371	0.626245	-0.000075
1094	1.0875e+02	-3.5389	-5.333947	0.000184	1.838215	0.622804	-0.000074
1095	1.0885e+02	-3.5806	-5.408491	0.000186	1.858527	0.629686	-0.000075
1096	1.0895e+02	-3.6063	-5.477739	0.000173	1.726500	0.584954	-0.000070
1097	1.0905e+02	-3.6689	-5.555949	0.000195	1.949930	0.660654	-0.000079
1098	1.0915e+02	-3.7106	-5.624790	0.000172	1.716344	0.581513	-0.000069
1099	1.0925e+02	-3.7218	-5.703814	0.000197	1.970241	0.667536	-0.000079
1100	1.0935e+02	-3.7796	-5.772655	0.000172	1.716344	0.581513	-0.000069
1101	1.0945e+02	-3.8293	-5.847606	0.000187	1.868682	0.633127	-0.000075
1102	1.0955e+02	-3.8518	-5.917262	0.000174	1.736656	0.588395	-0.000070
1103	1.0965e+02	-3.8903	-5.994657	0.000193	1.929618	0.653772	-0.000078
1104	1.0975e+02	-3.9448	-6.070015	0.000188	1.878838	0.636568	-0.000076
1105	1.0985e+02	-3.9769	-6.144966	0.000187	1.868682	0.633127	-0.000075
1106	1.0995e+02	-4.0330	-6.217473	0.000181	1.807747	0.612481	-0.000073
1107	1.1005e+02	-4.0571	-6.283870	0.000166	1.655409	0.560868	-0.000067
1108	1.1015e+02	-4.0860	-6.354340	0.000176	1.756968	0.595277	-0.000071
1109	1.1025e+02	-4.1534	-6.425625	0.000178	1.777280	0.602159	-0.000072
1110	1.1035e+02	-4.1790	-6.499354	0.000184	1.838215	0.622804	-0.000074
1111	1.1044e+02	-4.2272	-6.566566	0.000168	1.675721	0.567750	-0.000068
1112	1.1054e+02	-4.2480	-6.642739	0.000190	1.899150	0.643449	-0.000077
1113	1.1064e+02	-4.3074	-6.711172	0.000171	1.706188	0.578072	-0.000069
1114	1.1074e+02	-4.3394	-6.789382	0.000195	1.949930	0.660654	-0.000079
1115	1.1084e+02	-4.3731	-6.855371	0.000165	1.645253	0.557427	-0.000066
1116	1.1094e+02	-4.4068	-6.927878	0.000181	1.807747	0.612481	-0.000073
1117	1.1104e+02	-4.4485	-6.994683	0.000167	1.665565	0.564309	-0.000067
1118	1.1114e+02	-4.5079	-7.063931	0.000173	1.726500	0.584954	-0.000070
1119	1.1124e+02	-4.5416	-7.131957	0.000170	1.696032	0.574631	-0.000068
1120	1.1134e+02	-4.5785	-7.194280	0.000155	1.553850	0.526459	-0.000063
1121	1.1144e+02	-4.6122	-7.262307	0.000170	1.696032	0.574631	-0.000068
1122	1.1154e+02	-4.6699	-7.331148	0.000172	1.716344	0.581513	-0.000069
1123	1.1164e+02	-4.6988	-7.391434	0.000150	1.503071	0.509254	-0.000061
1124	1.1174e+02	-4.7437	-7.454572	0.000157	1.574162	0.533340	-0.000063
1125	1.1184e+02	-4.7822	-7.517710	0.000157	1.574162	0.533340	-0.000063
1126	1.1194e+02	-4.8047	-7.588995	0.000178	1.777280	0.602159	-0.000072
1127	1.1204e+02	-4.8624	-7.653763	0.000161	1.614785	0.547104	-0.000065
1128	1.1214e+02	-4.9073	-7.718123	0.000160	1.604630	0.543663	-0.000065
1129	1.1224e+02	-4.9442	-7.779632	0.000153	1.533538	0.519577	-0.000062
1130	1.1234e+02	-4.9763	-7.848880	0.000173	1.726500	0.584954	-0.000070
1131	1.1244e+02	-5.0229	-7.907130	0.000145	1.452291	0.492050	-0.000059
1132	1.1253e+02	-5.0758	-7.975156	0.000170	1.696032	0.574631	-0.000068
1133	1.1263e+02	-5.1047	-8.035035	0.000149	1.492915	0.505813	-0.000060
1134	1.1273e+02	-5.1608	-8.096544	0.000153	1.533538	0.519577	-0.000062
1135	1.1283e+02	-5.1849	-8.160904	0.000160	1.604630	0.543663	-0.000065
1136	1.1293e+02	-5.2122	-8.226079	0.000162	1.624941	0.550545	-0.000066
1137	1.1303e+02	-5.2539	-8.287588	0.000153	1.533538	0.519577	-0.000062
1138	1.1313e+02	-5.2763	-8.351133	0.000158	1.584318	0.536781	-0.000064
1139	1.1323e+02	-5.3405	-8.414271	0.000157	1.574162	0.533340	-0.000063
1140	1.1333e+02	-5.3485	-8.480668	0.000166	1.655409	0.560868	-0.000067
1141	1.1343e+02	-5.4207	-8.543806	0.000157	1.574162	0.533340	-0.000063
1142	1.1353e+02	-5.4576	-8.603686	0.000149	1.492915	0.505813	-0.000060
1143	1.1363e+02	-5.4945	-8.670083	0.000166	1.655409	0.560868	-0.000067
1144	1.1373e+02	-5.5298	-8.731999	0.000154	1.543694	0.523018	-0.000062
1145	1.1383e+02	-5.5619	-8.802062	0.000175	1.746812	0.591836	-0.000070
1146	1.1393e+02	-5.6180	-8.856645	0.000136	1.360888	0.461081	-0.000055
1147	1.1403e+02	-5.6517	-8.924672	0.000170	1.696032	0.574631	-0.000068
1148	1.1413e+02	-5.6950	-8.986588	0.000154	1.543694	0.523018	-0.000062
1149	1.1423e+02	-5.7239	-9.051355	0.000161	1.614785	0.547104	-0.000065
1150	1.1433e+02	-5.7833	-9.115715	0.000160	1.604630	0.543663	-0.000065
1151	1.1442e+02	-5.8073	-9.176002	0.000150	1.503071	0.509254	-0.000061
1152	1.1452e+02	-5.8522	-9.237511	0.000153	1.533538	0.519577	-0.000062
1153	1.1462e+02	-5.8940	-9.303093	0.000164	1.635097	0.553986	-0.000066
1154	1.1472e+02	-5.9485	-9.358899	0.000139	1.391356	0.471404	-0.000056
1155	1.1482e+02	-5.9918	-9.424481	0.000164	1.635097	0.553986	-0.000066
1156	1.1492e+02	-6.0079	-9.482324	0.000144	1.442135	0.488609	-0.000058
1157	1.1502e+02	-6.0512	-9.544647	0.000155	1.553850	0.526459	-0.000063
1158	1.1512e+02	-6.0849	-9.606970	0.000155	1.553850	0.526459	-0.000063
1159	1.1522e+02	-6.1282	-9.669701	0.000156	1.564006	0.529900	-0.000063
1160	1.1532e+02	-6.1715	-9.730803	0.000152	1.523382	0.516136	-0.000061
1161	1.1542e+02	-6.2212	-9.791089	0.000150	1.503071	0.509254	-0.000061
1162	1.1552e+02	-6.2597	-9.853005	0.000154	1.543694	0.523018	-0.000062
1163	1.1562e+02	-6.2838	-9.910848	0.000144	1.442135	0.488609	-0.000058
1164	1.1572e+02	-6.3191	-9.970727	0.000149	1.492915	0.505813	-0.000060
1165	1.1582e+02	-6.3816	-10.034273	0.000158	1.584318	0.536781	-0.000064
1166	1.1592e+02	-6.4153	-10.095781	0.000153	1.533538	0.519577	-0.000062
1167	1.1602e+02	-6.4362	-10.151587	0.000139	1.391356	0.471404	-0.000056
1168	1.1612e+02	-6.4859	-10.207801	0.000140	1.401512	0.474845	-0.000056
1169	1.1622e+02	-6.5164	-10.266865	0.000147	1.472603	0.498931	-0.000059
1170	1.1632e+02	-6.5725	-10.332040	0.000162	1.624941	0.550545	-0.000066
1171	1.1642e+02	-6.6207	-10.392327	0.000150	1.503071	0.509254	-0.000061
1172	1.1651e+02	-6.6479	-10.452206	0.000149	1.492915	0.505813	-0.000060
1173	1.1661e+02	-6.6768	-10.507605	0.000138	1.381200	0.467963	-0.000056
1174	1.1671e+02	-6.7522	-10.570743	0.000157	1.574162	0.533340	-0.000063
1175	1.1681e+02	-6.7747	-10.631437	0.000151	1.513227	0.512695	-0.000061
1176	1.1691e+02	-6.7987	-10.692131	0.000151	1.513227	0.512695	-0.000061
1177	1.1701e+02	-6.8388	-10.752825	0.000151	1.513227	0.512695	-0.000061
1178	1.1711e+02	-6.8870	-10.812297	0.000148	1.482759	0.502372	-0.000060
1179	1.1721e+02	-6.9335	-10.870140	0.000144	1.442135	0.488609	-0.000058
1180	1.1731e+02	-6.9784	-10.928390	0.000145	1.452291	0.492050	-0.000059
1181	1.1741e+02	-6.9993	-10.987862	0.000148	1.482759	0.502372	-0.000060
1182	1.1751e+02	-7.0634	-11.046926	0.000147	1.472603	0.498931	-0.000059
1183	1.1761e+02	-7.0795	-11.107213	0.000150	1.503071	0.509254	-0.000061
1184	1.1771e+02	-7.1068	-11.160982	0.000134	1.340577	0.454200	-0.000054
1185	1.1781e+02	-7.1469	-11.220047	0.000147	1.472603	0.498931	-0.000059
1186	1.1791e+02	-7.2046	-11.275853	0.000139	1.391356	0.471404	-0.000056
1187	1.1801e+02	-7.2495	-11.326363	0.000126	1.259330	0.426672	-0.000051
1188	1.1811e+02	-7.2848	-11.385021	0.000146	1.462447	0.495491	-0.000059
1189	1.1821e+02	-7.3281	-11.444085	0.000147	1.472603	0.498931	-0.000059
1190	1.1831e+02	-7.3763	-11.497855	0.000134	1.340577	0.454200	-0.000054
1191	1.1841e+02	-7.4019	-11.555290	0.000143	1.431980	0.485168	-0.000058
1192	1.1850e+02	-7.4292	-11.614354	0.000147	1.472603	0.498931	-0.000059
1193	1.1860e+02	-7.4821	-11.675049	0.000151	1.513227	0.512695	-0.000061
1194	1.1870e+02	-7.5158	-11.724744	0.000124	1.239018	0.419791	-0.000050
1195	1.1880e+02	-7.5559	-11.780143	0.000138	1.381200	0.467963	-0.000056
1196	1.1890e+02	-7.5993	-11.839208	0.000147	1.472603	0.498931	-0.000059
1197	1.1900e+02	-7.6506	-11.893791	0.000136	1.360888	0.461081	-0.000055
1198	1.1910e+02	-7.6506	-11.948375	0.000136	1.360888	0.461081	-0.000055
1199	1.1920e+02	-7.7212	-12.006625	0.000145	1.452291	0.492050	-0.000059
1200	1.1930e+02	-7.7533	-12.060395	0.000134	1.340577	0.454200	-0.000054
1201	1.1940e+02	-7.7821	-12.117423	0.000142	1.421824	0.481727	-0.000057
1202	1.1950e+02	-7.8287	-12.174858	0.000143	1.431980	0.485168	-0.000058
1203	1.1960e+02	-7.8704	-12.233108	0.000145	1.452291	0.492050	-0.000059
1204	1.1970e+02	-7.9249	-12.289321	0.000140	1.401512	0.474845	-0.000056
1205	1.1980e+02	-7.9490	-12.350422	0.000152	1.523382	0.516136	-0.000061
1206	1.1990e+02	-8.0292	-12.409080	0.000146	1.462447	0.495491	-0.000059
1207	1.2000e+02	-8.0468	-12.470181	0.000152	1.523382	0.516136	-0.000061
1208	1.2010e+02	-8.0885	-12.526394	0.000140	1.401512	0.474845	-0.000056
1209	1.2020e+02	-8.0966	-12.583422	0.000142	1.421824	0.481727	-0.000057
1210	1.2030e+02	-8.1527	-12.643302	0.000149	1.492915	0.505813	-0.000060
1211	1.2039e+02	-8.1960	-12.698293	0.000137	1.371044	0.464522	-0.000055
1212	1.2049e+02	-8.2361	-12.757358	0.000147	1.472603	0.498931	-0.000059
1213	1.2059e+02	-8.2762	-12.819681	0.000155	1.553850	0.526459	-0.000063
1214	1.2069e+02	-8.3436	-12.873858	0.000135	1.350732	0.457641	-0.000054
1215	1.2079e+02	-8.3757	-12.928849	0.000137	1.371044	0.464522	-0.000055
1216	1.2089e+02	-8.4046	-12.993209	0.000160	1.604630	0.543663	-0.000065
1217	1.2099e+02	-8.4623	-13.049422	0.000140	1.401512	0.474845	-0.000056
1218	1.2109e+02	-8.4607	-13.108080	-0.000146	-1.462447	-0.495491	-0.000059
1219	1.2119e+02	-8.5281	-13.163886	0.000139	1.391356	0.471404	-0.000056
1220	1.2129e+02	-8.5618	-13.223358	0.000148	1.482759	0.502372	-0.000060
1221	1.2139e+02	-8.5826	-13.276719	0.000133	1.330421	0.450759	-0.000054
1222	1.2149e+02	-8.6420	-13.333747	0.000142	1.421824	0.481727	-0.000057
1223	1.2159e+02	-8.6725	-13.388739	0.000137	1.371044	0.464522	-0.000055
1224	1.2169e+02	-8.7286	-13.446174	0.000143	1.431980	0.485168	-0.000058
1225	1.2179e+02	-8.7559	-13.495462	0.000123	1.228862	0.416350	-0.000050
1226	1.2189e+02	-8.7864	-13.554527	0.000147	1.472603	0.498931	-0.000059
1227	1.2199e+02	-8.8441	-13.607482	0.000132	1.320265	0.447318	-0.000053
1228	1.2209e+02	-8.8650	-13.667768	0.000150	1.503071	0.509254	-0.000061
1229	1.2219e+02	-8.9211	-13.722352	0.000136	1.360888	0.461081	-0.000055
1230	1.2229e+02	-8.9757	-13.776121	0.000134	1.340577	0.454200	-0.000054
1231	1.2239e+02	-8.9933	-13.829483	0.000133	1.330421	0.450759	-0.000054
1232	1.2248e+02	-9.0399	-13.882845	0.000133	1.330421	0.450759	-0.000054
1233	1.2258e+02	-9.0655	-13.940280	0.000143	1.431980	0.485168	-0.000058
1234	1.2268e+02	-9.1329	-13.994050	0.000134	1.340577	0.454200	-0.000054
1235	1.2278e+02	-9.1730	-14.053114	0.000147	1.472603	0.498931	-0.000059
1236	1.2288e+02	-9.1874	-14.103625	0.000126	1.259330	0.426672	-0.000051
1237	1.2298e+02	-9.2308	-14.160653	0.000142	1.421824	0.481727	-0.000057
1238	1.2308e+02	-9.2741	-14.215237	0.000136	1.360888	0.461081	-0.000055
1239	1.2318e+02	-9.2965	-14.266969	0.000129	1.289797	0.436995	-0.000052
1240	1.2328e+02	-9.3832	-14.323590	0.000141	1.411668	0.478286	-0.000057
1241	1.2338e+02	-9.3719	-14.381432	-0.000144	-1.442135	-0.488609	-0.000058
1242	1.2348e+02	-9.4361	-14.433572	0.000130	1.299953	0.440436	-0.000052
1243	1.2358e+02	-9.4505	-14.483675	0.000125	1.249174	0.423231	-0.000050
1244	1.2368e+02	-9.5147	-14.539481	0.000139	1.391356	0.471404	-0.000056
1245	1.2378e+02	-9.5628	-14.594473	0.000137	1.371044	0.464522	-0.000055
1246	1.2388e+02	-9.5869	-14.646205	0.000129	1.289797	0.436995	-0.000052
1247	1.2398e+02	-9.6350	-14.701196	0.000137	1.371044	0.464522	-0.000055
1248	1.2408e+02	-9.6799	-14.751707	0.000126	1.259330	0.426672	-0.000051
1249	1.2418e+02	-9.7184	-14.809142	0.000143	1.431980	0.485168	-0.000058
1250	1.2428e+02	-9.7569	-14.857616	0.000121	1.208550	0.409468	-0.000049
1251	1.2438e+02	-9.7810	-14.911792	0.000135	1.350732	0.457641	-0.000054
1252	1.2447e+02	-9.8356	-14.963932	0.000130	1.299953	0.440436	-0.000052
1253	1.2457e+02	-9.8853	-15.018516	0.000136	1.360888	0.461081	-0.000055
1254	1.2467e+02	-9.8853	-15.070249	0.000129	1.289797	0.436995	-0.000052
1255	1.2477e+02	-9.9623	-15.127684	0.000143	1.431980	0.485168	-0.000058
1256	1.2487e+02	-10.0024	-15.172899	0.000113	1.127303	0.381941	-0.000045
1257	1.2497e+02	-10.0473	-15.226261	0.000133	1.330421	0.450759	-0.000054
1258	1.2507e+02	-10.0842	-15.280030	0.000134	1.340577	0.454200	-0.000054
1259	1.2517e+02	-10.1067	-15.328911	0.000122	1.218706	0.412909	-0.000049
1260	1.2527e+02	-10.1596	-15.382273	0.000133	1.330421	0.450759	-0.000054
1261	1.2537e+02	-10.1821	-15.434820	0.000131	1.310109	0.443877	-0.000053
1262	1.2547e+02	-10.2270	-15.486960	0.000130	1.299953	0.440436	-0.000052
1263	1.2557e+02	-10.2895	-15.538693	0.000129	1.289797	0.436995	-0.000052
1264	1.2567e+02	-10.3377	-15.589610	0.000127	1.269485	0.430113	-0.000051
1265	1.2577e+02	-10.3617	-15.642565	0.000132	1.320265	0.447318	-0.000053
1266	1.2587e+02	-10.4002	-15.693890	0.000128	1.279641	0.433554	-0.000052
1267	1.2597e+02	-10.4275	-15.748067	0.000135	1.350732	0.457641	-0.000054
1268	1.2607e+02	-10.4708	-15.802651	0.000136	1.360888	0.461081	-0.000055
1269	1.2617e+02	-10.4981	-15.857642	0.000137	1.371044	0.464522	-0.000055
1270	1.2627e+02	-10.5366	-15.914262	0.000141	1.411668	0.478286	-0.000057
1271	1.2636e+02	-10.6120	-15.964366	0.000125	1.249174	0.423231	-0.000050
1272	1.2646e+02	-10.6264	-16.018950	0.000136	1.360888	0.461081	-0.000055
1273	1.2656e+02	-10.6585	-16.066609	0.000119	1.188238	0.402586	-0.000048
1274	1.2666e+02	-10.7083	-16.122007	0.000138	1.381200	0.467963	-0.000056
1275	1.2676e+02	-10.7564	-16.172110	0.000125	1.249174	0.423231	-0.000050
1276	1.2686e+02	-10.7869	-16.227102	0.000137	1.371044	0.464522	-0.000055
1277	1.2696e+02	-10.8254	-16.274353	0.000118	1.178082	0.399145	-0.000047
1278	1.2706e+02	-10.8847	-16.331381	0.000142	1.421824	0.481727	-0.000057
1279	1.2716e+02	-10.9056	-16.383114	0.000129	1.289797	0.436995	-0.000052
1280	1.2726e+02	-10.9425	-16.438920	0.000139	1.391356	0.471404	-0.000056
1281	1.2736e+02	-11.0066	-16.489430	0.000126	1.259330	0.426672	-0.000051
1282	1.2746e+02	-11.0291	-16.543199	0.000134	1.340577	0.454200	-0.000054
1283	1.2756e+02	-11.0933	-16.594117	0.000127	1.269485	0.430113	-0.000051
1284	1.2766e+02	-11.0965	-16.645442	0.000128	1.279641	0.433554	-0.000052
1285	1.2776e+02	-11.1558	-16.698804	0.000133	1.330421	0.450759	-0.000054
1286	1.2786e+02	-11.2024	-16.748093	0.000123	1.228862	0.416350	-0.000050
1287	1.2796e+02	-11.2152	-16.795752	0.000119	1.188238	0.402586	-0.000048
1288	1.2806e+02	-11.2537	-16.841374	0.000114	1.137459	0.385382	-0.000046
1289	1.2816e+02	-11.3114	-16.894329	0.000132	1.320265	0.447318	-0.000053
1290	1.2826e+02	-11.3676	-16.941580	0.000118	1.178082	0.399145	-0.000047
1291	1.2835e+02	-11.4029	-16.983537	0.000105	1.046056	0.354413	-0.000042
1292	1.2845e+02	-11.4302	-17.033232	0.000124	1.239018	0.419791	-0.000050
1293	1.2855e+02	-11.4911	-17.084965	0.000129	1.289797	0.436995	-0.000052
1294	1.2865e+02	-11.5120	-17.133846	0.000122	1.218706	0.412909	-0.000049
1295	1.2875e+02	-11.5360	-17.180283	0.000116	1.157771	0.392263	-0.000047
1296	1.2885e+02	-11.5810	-17.227942	0.000119	1.188238	0.402586	-0.000048
1297	1.2895e+02	-11.6291	-17.273565	0.000114	1.137459	0.385382	-0.000046
1298	1.2905e+02	-11.6676	-17.322446	0.000122	1.218706	0.412909	-0.000049
1299	1.2915e+02	-11.6981	-17.371734	0.000123	1.228862	0.416350	-0.000050
1300	1.2925e+02	-11.7350	-17.414912	0.000108	1.076524	0.364736	-0.000043
1301	1.2935e+02	-11.7879	-17.465830	0.000127	1.269485	0.430113	-0.000051
1302	1.2945e+02	-11.8376	-17.509823	0.000110	1.096835	0.371618	-0.000044
1303	1.2955e+02	-11.8713	-17.555853	0.000115	1.147615	0.388822	-0.000046
1304	1.2965e+02	-11.9114	-17.601475	0.000114	1.137459	0.385382	-0.000046
1305	1.2975e+02	-11.9435	-17.650764	0.000123	1.228862	0.416350	-0.000050
1306	1.2985e+02	-11.9900	-17.699645	0.000122	1.218706	0.412909	-0.000049
1307	1.2995e+02	-12.0205	-17.743231	0.000109	1.086679	0.368177	-0.000044
1308	1.3005e+02	-12.0767	-17.797407	0.000135	1.350732	0.457641	-0.000054
1309	1.3015e+02	-12.1071	-17.843029	0.000114	1.137459	0.385382	-0.000046
1310	1.3025e+02	-12.1344	-17.895577	0.000131	1.310109	0.443877	-0.000053
1311	1.3034e+02	-12.1938	-17.944050	0.000121	1.208550	0.409468	-0.000049
1312	1.3044e+02	-12.2226	-17.994968	0.000127	1.269485	0.430113	-0.000051
1313	1.3054e+02	-12.2692	-18.040998	0.000115	1.147615	0.388822	-0.000046
1314	1.3064e+02	-12.3285	-18.091101	0.000125	1.249174	0.423231	-0.000050
1315	1.3074e+02	-12.3542	-18.133057	0.000105	1.046056	0.354413	-0.000042
1316	1.3084e+02	-12.3863	-18.191715	0.000146	1.462447	0.495491	-0.000059
1317	1.3094e+02	-12.4408	-18.235300	0.000109	1.086679	0.368177	-0.000044
1318	1.3104e+02	-12.4761	-18.283774	0.000121	1.208550	0.409468	-0.000049
1319	1.3114e+02	-12.4873	-18.331026	0.000118	1.178082	0.399145	-0.000047
1320	1.3124e+02	-12.5611	-18.378685	0.000119	1.188238	0.402586	-0.000048
1321	1.3134e+02	-12.5724	-18.428381	0.000124	1.239018	0.419791	-0.000050
1322	1.3144e+02	-12.6157	-18.478076	0.000124	1.239018	0.419791	-0.000050
1323	1.3154e+02	-12.6478	-18.520847	0.000107	1.066368	0.361295	-0.000043
1324	1.3164e+02	-12.6863	-18.568914	0.000120	1.198394	0.406027	-0.000048
1325	1.3174e+02	-12.7344	-18.616573	0.000119	1.188238	0.402586	-0.000048
1326	1.3184e+02	-12.8050	-18.665454	0.000122	1.218706	0.412909	-0.000049
1327	1.3194e+02	-12.8323	-18.712706	0.000118	1.178082	0.399145	-0.000047
1328	1.3204e+02	-12.8692	-18.760772	0.000120	1.198394	0.406027	-0.000048
1329	1.3214e+02	-12.9141	-18.804358	0.000109	1.086679	0.368177	-0.000044
1330	1.3224e+02	-12.9654	-18.856498	0.000130	1.299953	0.440436	-0.000052
1331	1.3234e+02	-12.9766	-18.903342	0.000117	1.167927	0.395704	-0.000047
1332	1.3243e+02	-13.0119	-18.946928	0.000109	1.086679	0.368177	-0.000044
1333	1.3253e+02	-13.0585	-18.998660	0.000129	1.289797	0.436995	-0.000052
1334	1.3263e+02	-13.1258	-19.048763	0.000125	1.249174	0.423231	-0.000050
1335	1.3273e+02	-13.1387	-19.093571	0.000112	1.117147	0.378500	-0.000045
1336	1.3283e+02	-13.1868	-19.139193	0.000114	1.137459	0.385382	-0.000046
1337	1.3293e+02	-13.2189	-19.188889	0.000124	1.239018	0.419791	-0.000050
1338	1.3303e+02	-13.2686	-19.237770	0.000122	1.218706	0.412909	-0.000049
1339	1.3313e+02	-13.3183	-19.285429	0.000119	1.188238	0.402586	-0.000048
1340	1.3323e+02	-13.3328	-19.332274	0.000117	1.167927	0.395704	-0.000047
1341	1.3333e+02	-13.4082	-19.380748	0.000121	1.208550	0.409468	-0.000049
1342	1.3343e+02	-13.4162	-19.430036	0.000123	1.228862	0.416350	-0.000050
1343	1.3353e+02	-13.4659	-19.478510	0.000121	1.208550	0.409468	-0.000049
1344	1.3363e+02	-13.4996	-19.524947	0.000116	1.157771	0.392263	-0.000047
1345	1.3373e+02	-13.5526	-19.576679	0.000129	1.289797	0.436995	-0.000052
1346	1.3383e+02	-13.5718	-19.625560	0.000122	1.218706	0.412909	-0.000049
1347	1.3393e+02	-13.6215	-19.671998	0.000116	1.157771	0.392263	-0.000047
1348	1.3403e+02	-13.6745	-19.717620	0.000114	1.137459	0.385382	-0.000046
1349	1.3413e+02	-13.7066	-19.766094	0.000121	1.208550	0.409468	-0.000049
1350	1.3423e+02	-13.7403	-19.810494	0.000111	1.106991	0.375059	-0.000045
1351	1.3432e+02	-13.7804	-19.856116	0.000114	1.137459	0.385382	-0.000046
1352	1.3442e+02	-13.8285	-19.903775	0.000119	1.188238	0.402586	-0.000048
1353	1.3452e+02	-13.8493	-19.946546	0.000107	1.066368	0.361295	-0.000043
1354	1.3462e+02	-13.9167	-19.992576	0.000115	1.147615	0.388822	-0.000046
1355	1.3472e+02	-13.9456	-20.041050	0.000121	1.208550	0.409468	-0.000049
1356	1.3482e+02	-13.9761	-20.087894	0.000117	1.167927	0.395704	-0.000047
1357	1.3492e+02	-14.0162	-20.129443	0.000104	1.035900	0.350972	-0.000042
1358	1.3502e+02	-14.0467	-20.175880	0.000116	1.157771	0.392263	-0.000047
1359	1.3512e+02	-14.0755	-20.221095	0.000113	1.127303	0.381941	-0.000045
1360	1.3522e+02	-14.1509	-20.273642	0.000131	1.310109	0.443877	-0.000053
1361	1.3532e+02	-14.1638	-20.318043	0.000111	1.106991	0.375059	-0.000045
1362	1.3542e+02	-14.2247	-20.362036	0.000110	1.096835	0.371618	-0.000044
1363	1.3552e+02	-14.2392	-20.401548	0.000099	0.985121	0.333768	-0.000040
1364	1.3562e+02	-14.2632	-20.452873	0.000128	1.279641	0.433554	-0.000052
1365	1.3572e+02	-14.3306	-20.496459	0.000109	1.086679	0.368177	-0.000044
1366	1.3582e+02	-14.3916	-20.544933	0.000121	1.208550	0.409468	-0.000049
1367	1.3592e+02	-14.3964	-20.591777	0.000117	1.167927	0.395704	-0.000047
1368	1.3602e+02	-14.4638	-20.636177	0.000111	1.106991	0.375059	-0.000045
1369	1.3612e+02	-14.5023	-20.681392	0.000113	1.127303	0.381941	-0.000045
1370	1.3622e+02	-14.5311	-20.729459	0.000120	1.198394	0.406027	-0.000048
1371	1.3631e+02	-14.5809	-20.777118	0.000119	1.188238	0.402586	-0.000048
1372	1.3641e+02	-14.6258	-20.832109	0.000137	1.371044	0.464522	-0.000055
1373	1.3651e+02	-14.6499	-20.879768	0.000119	1.188238	0.402586	-0.000048
1374	1.3661e+02	-14.7012	-20.927020	0.000118	1.178082	0.399145	-0.000047
1375	1.3671e+02	-14.7477	-20.978752	0.000129	1.289797	0.436995	-0.000052
1376	1.3681e+02	-14.7990	-21.028448	0.000124	1.239018	0.419791	-0.000050
1377	1.3691e+02	-14.8456	-21.078959	0.000126	1.259330	0.426672	-0.000051
1378	1.3701e+02	-14.8552	-21.129469	0.000126	1.259330	0.426672	-0.000051
1379	1.3711e+02	-14.8712	-21.179980	0.000126	1.259330	0.426672	-0.000051
1380	1.3721e+02	-14.9290	-21.227639	0.000119	1.188238	0.402586	-0.000048
1381	1.3731e+02	-15.0044	-21.274483	0.000117	1.167927	0.395704	-0.000047
1382	1.3741e+02	-15.0156	-21.321735	0.000118	1.178082	0.399145	-0.000047
1383	1.3751e+02	-15.0461	-21.379985	0.000145	1.452291	0.492050	-0.000059
1384	1.3761e+02	-15.0894	-21.428051	0.000120	1.198394	0.406027	-0.000048
1385	1.3771e+02	-15.1375	-21.477747	0.000124	1.239018	0.419791	-0.000050
1386	1.3781e+02	-15.1825	-21.529480	0.000129	1.289797	0.436995	-0.000052
1387	1.3791e+02	-15.2145	-21.581212	0.000129	1.289797	0.436995	-0.000052
1388	1.3801e+02	-15.2563	-21.625205	0.000110	1.096835	0.371618	-0.000044
1389	1.3811e+02	-15.3349	-21.672864	0.000119	1.188238	0.402586	-0.000048
1390	1.3821e+02	-15.3365	-21.726226	0.000133	1.330421	0.450759	-0.000054
1391	1.3831e+02	-15.3734	-21.770219	0.000110	1.096835	0.371618	-0.000044
1392	1.3840e+02	-15.4199	-21.815841	0.000114	1.137459	0.385382	-0.000046
1393	1.3850e+02	-15.4680	-21.868796	0.000132	1.320265	0.447318	-0.000053
1394	1.3860e+02	-15.4889	-21.916455	0.000119	1.188238	0.402586	-0.000048
1395	1.3870e+02	-15.5402	-21.963299	0.000117	1.167927	0.395704	-0.000047
1396	1.3880e+02	-15.5819	-22.010958	0.000119	1.188238	0.402586	-0.000048
1397	1.3890e+02	-15.6220	-22.059432	0.000121	1.208550	0.409468	-0.000049
1398	1.3900e+02	-15.6525	-22.107906	0.000121	1.208550	0.409468	-0.000049
1399	1.3910e+02	-15.7086	-22.158009	0.000125	1.249174	0.423231	-0.000050
1400	1.3920e+02	-15.7375	-22.208112	0.000125	1.249174	0.423231	-0.000050
1401	1.3930e+02	-15.7921	-22.254142	0.000115	1.147615	0.388822	-0.000046
1402	1.3940e+02	-15.8306	-22.298542	0.000111	1.106991	0.375059	-0.000045
1403	1.3950e+02	-15.8643	-22.350275	0.000129	1.289797	0.436995	-0.000052
1404	1.3960e+02	-15.8963	-22.396304	0.000115	1.147615	0.388822	-0.000046
1405	1.3970e+02	-15.9397	-22.447630	0.000128	1.279641	0.433554	-0.000052
1406	1.3980e+02	-15.9653	-22.496918	0.000123	1.228862	0.416350	-0.000050
1407	1.3990e+02	-16.0167	-22.547836	0.000127	1.269485	0.430113	-0.000051
1408	1.4000e+02	-16.0520	-22.597124	0.000123	1.228862	0.416350	-0.000050
1409	1.4010e+02	-16.0840	-22.645191	0.000120	1.198394	0.406027	-0.000048
1410	1.4020e+02	-16.1354	-22.692035	0.000117	1.167927	0.395704	-0.000047
1411	1.4029e+02	-16.1562	-22.740509	0.000121	1.208550	0.409468	-0.000049
1412	1.4039e+02	-16.1947	-22.791834	0.000128	1.279641	0.433554	-0.000052
1413	1.4049e+02	-16.2589	-22.840308	0.000121	1.208550	0.409468	-0.000049
1414	1.4059e+02	-16.2894	-22.889189	0.000122	1.218706	0.412909	-0.000049
1415	1.4069e+02	-16.3215	-22.935219	0.000115	1.147615	0.388822	-0.000046
1416	1.4079e+02	-16.3632	-22.988988	0.000134	1.340577	0.454200	-0.000054
1417	1.4089e+02	-16.3937	-23.035425	0.000116	1.157771	0.392263	-0.000047
1418	1.4099e+02	-16.4674	-23.082269	0.000117	1.167927	0.395704	-0.000047
1419	1.4109e+02	-16.4963	-23.133595	0.000128	1.279641	0.433554	-0.000052
1420	1.4119e+02	-16.5236	-23.184512	0.000127	1.269485	0.430113	-0.000051
1421	1.4129e+02	-16.5717	-23.228505	0.000110	1.096835	0.371618	-0.000044
1422	1.4139e+02	-16.6134	-23.286348	0.000144	1.442135	0.488609	-0.000058
1423	1.4149e+02	-16.6487	-23.331563	0.000113	1.127303	0.381941	-0.000045
1424	1.4159e+02	-16.6856	-23.378815	0.000118	1.178082	0.399145	-0.000047
1425	1.4169e+02	-16.7289	-23.428918	0.000125	1.249174	0.423231	-0.000050
1426	1.4179e+02	-16.7787	-23.477392	0.000121	1.208550	0.409468	-0.000049
1427	1.4189e+02	-16.7931	-23.525458	0.000120	1.198394	0.406027	-0.000048
1428	1.4199e+02	-16.8396	-23.574746	0.000123	1.228862	0.416350	-0.000050
1429	1.4209e+02	-16.8990	-23.623220	0.000121	1.208550	0.409468	-0.000049
1430	1.4219e+02	-16.9182	-23.672916	0.000124	1.239018	0.419791	-0.000050
1431	1.4228e+02	-16.9904	-23.721390	0.000121	1.208550	0.409468	-0.000049
1432	1.4238e+02	-17.0450	-23.773937	0.000131	1.310109	0.443877	-0.000053
1433	1.4248e+02	-17.0370	-23.821596	-0.000119	-1.188238	-0.402586	-0.000048
1434	1.4258e+02	-17.0658	-23.877809	0.000140	1.401512	0.474845	-0.000056
1435	1.4268e+02	-17.1444	-23.925468	0.000119	1.188238	0.402586	-0.000048
1436	1.4278e+02	-17.1974	-23.981682	0.000140	1.401512	0.474845	-0.000056
1437	1.4288e+02	-17.2343	-24.033007	0.000128	1.279641	0.433554	-0.000052
1438	1.4298e+02	-17.2471	-24.085961	0.000132	1.320265	0.447318	-0.000053
1439	1.4308e+02	-17.2936	-24.140545	0.000136	1.360888	0.461081	-0.000055
1440	1.4318e+02	-17.3402	-24.191870	0.000128	1.279641	0.433554	-0.000052
1441	1.4328e+02	-17.3610	-24.237900	0.000115	1.147615	0.388822	-0.000046
1442	1.4338e+02	-17.4236	-24.292484	0.000136	1.360888	0.461081	-0.000055
1443	1.4348e+02	-17.4589	-24.342587	0.000125	1.249174	0.423231	-0.000050
1444	1.4358e+02	-17.4910	-24.397578	0.000137	1.371044	0.464522	-0.000055
1445	1.4368e+02	-17.5423	-24.448904	0.000128	1.279641	0.433554	-0.000052
1446	1.4378e+02	-17.5487	-24.505117	0.000140	1.401512	0.474845	-0.000056
1447	1.4388e+02	-17.6016	-24.559293	0.000135	1.350732	0.457641	-0.000054
1448	1.4398e+02	-17.6514	-24.614285	0.000137	1.371044	0.464522	-0.000055
1449	1.4408e+02	-17.6947	-24.666425	0.000130	1.299953	0.440436	-0.000052
1450	1.4418e+02	-17.7316	-24.718157	0.000129	1.289797	0.436995	-0.000052
1451	1.4428e+02	-17.7893	-24.770704	0.000131	1.310109	0.443877	-0.000053
1452	1.4437e+02	-17.8006	-24.823251	0.000131	1.310109	0.443877	-0.000053
1453	1.4447e+02	-17.8471	-24.872540	0.000123	1.228862	0.416350	-0.000050
1454	1.4457e+02	-17.9016	-24.927531	0.000137	1.371044	0.464522	-0.000055
1455	1.4467e+02	-17.9305	-24.973968	0.000116	1.157771	0.392263	-0.000047
1456	1.4477e+02	-17.9770	-25.026923	0.000132	1.320265	0.447318	-0.000053
1457	1.4487e+02	-18.0268	-25.079063	0.000130	1.299953	0.440436	-0.000052
1458	1.4497e+02	-18.0556	-25.125907	0.000117	1.167927	0.395704	-0.000047
1459	1.4507e+02	-18.0957	-25.174381	0.000121	1.208550	0.409468	-0.000049
1460	1.4517e+02	-18.1070	-25.224484	0.000125	1.249174	0.423231	-0.000050
1461	1.4527e+02	-18.1727	-25.282326	0.000144	1.442135	0.488609	-0.000058
1462	1.4537e+02	-18.2129	-25.336910	0.000136	1.360888	0.461081	-0.000055
1463	1.4547e+02	-18.2305	-25.385791	0.000122	1.218706	0.412909	-0.000049
1464	1.4557e+02	-18.2706	-25.437117	0.000128	1.279641	0.433554	-0.000052
1465	1.4567e+02	-18.3364	-25.489256	0.000130	1.299953	0.440436	-0.000052
1466	1.4577e+02	-18.3540	-25.540989	0.000129	1.289797	0.436995	-0.000052
1467	1.4587e+02	-18.3957	-25.593944	0.000132	1.320265	0.447318	-0.000053
1468	1.4597e+02	-18.4583	-25.646898	0.000132	1.320265	0.447318	-0.000053
1469	1.4607e+02	-18.4824	-25.696594	0.000124	1.239018	0.419791	-0.000050
1470	1.4617e+02	-18.5289	-25.750363	0.000134	1.340577	0.454200	-0.000054
1471	1.4626e+02	-18.5610	-25.801688	0.000128	1.279641	0.433554	-0.000052
1472	1.4636e+02	-18.6316	-25.858309	0.000141	1.411668	0.478286	-0.000057
1473	1.4646e+02	-18.6396	-25.909227	0.000127	1.269485	0.430113	-0.000051
1474	1.4656e+02	-18.6845	-25.967069	0.000144	1.442135	0.488609	-0.000058
1475	1.4666e+02	-18.7326	-26.025727	0.000146	1.462447	0.495491	-0.000059
1476	1.4676e+02	-18.7711	-26.078681	0.000132	1.320265	0.447318	-0.000053
1477	1.4686e+02	-18.7856	-26.136931	0.000145	1.452291	0.492050	-0.000059
1478	1.4696e+02	-18.8497	-26.189886	0.000132	1.320265	0.447318	-0.000053
1479	1.4706e+02	-18.8866	-26.249765	0.000149	1.492915	0.505813	-0.000060
1480	1.4716e+02	-18.9235	-26.307608	0.000144	1.442135	0.488609	-0.000058
1481	1.4726e+02	-18.9668	-26.364636	0.000142	1.421824	0.481727	-0.000057
1482	1.4736e+02	-19.0086	-26.416775	0.000130	1.299953	0.440436	-0.000052
1483	1.4746e+02	-19.0455	-26.472989	0.000140	1.401512	0.474845	-0.000056
1484	1.4756e+02	-19.0984	-26.532053	0.000147	1.472603	0.498931	-0.000059
1485	1.4766e+02	-19.1337	-26.591525	0.000148	1.482759	0.502372	-0.000060
1486	1.4776e+02	-19.1786	-26.649775	0.000145	1.452291	0.492050	-0.000059
1487	1.4786e+02	-19.2011	-26.706803	0.000142	1.421824	0.481727	-0.000057
1488	1.4796e+02	-19.2524	-26.763424	0.000141	1.411668	0.478286	-0.000057
1489	1.4806e+02	-19.2877	-26.822896	0.000148	1.482759	0.502372	-0.000060
1490	1.4816e+02	-19.3166	-26.880331	0.000143	1.431980	0.485168	-0.000058
1491	1.4825e+02	-19.3888	-26.933693	0.000133	1.330421	0.450759	-0.000054
1492	1.4835e+02	-19.4160	-26.995202	0.000153	1.533538	0.519577	-0.000062
1493	1.4845e+02	-19.4529	-27.058747	0.000158	1.584318	0.536781	-0.000064
1494	1.4855e+02	-19.4962	-27.109258	0.000126	1.259330	0.426672	-0.000051
1495	1.4865e+02	-19.5347	-27.169952	0.000151	1.513227	0.512695	-0.000061
1496	1.4875e+02	-19.5524	-27.237163	0.000168	1.675721	0.567750	-0.000068
1497	1.4885e+02	-19.5829	-27.301931	0.000161	1.614785	0.547104	-0.000065
1498	1.4895e+02	-19.6005	-27.357329	0.000138	1.381200	0.467963	-0.000056
1499	1.4905e+02	-19.6502	-27.418023	0.000151	1.513227	0.512695	-0.000061
1500	1.4915e+02	-19.6920	-27.476273	0.000145	1.452291	0.492050	-0.000059
1501	1.4925e+02	-19.7850	-27.546336	0.000175	1.746812	0.591836	-0.000070
1502	1.4935e+02	-19.7866	-27.600513	0.000135	1.350732	0.457641	-0.000054
1503	1.4945e+02	-19.8540	-27.665688	0.000162	1.624941	0.550545	-0.000066
1504	1.4955e+02	-19.8764	-27.723530	0.000144	1.442135	0.488609	-0.000058
1505	1.4965e+02	-19.9182	-27.795630	0.000180	1.797591	0.609040	-0.000072
1506	1.4975e+02	-19.9454	-27.854695	0.000147	1.472603	0.498931	-0.000059
1507	1.4985e+02	-20.0128	-27.917018	0.000155	1.553850	0.526459	-0.000063
1508	1.4995e+02	-19.9551	-27.915389	0.000004	0.040624	0.013764	0.000002
1509	1.5005e+02	-19.9101	-27.904390	0.000027	0.274209	0.092904	0.000011
1510	1.5015e+02	-19.8572	-27.903168	0.000003	0.030468	0.010323	0.000001
1511	1.5025e+02	-19.8412	-27.891763	0.000028	0.284365	0.096345	0.000011
1512	1.5034e+02	-19.7914	-27.879950	0.000029	0.294521	0.099786	0.000012
1513	1.5044e+02	-19.7577	-27.868137	0.000029	0.294521	0.099786	0.000012
1514	1.5054e+02	-19.7000	-27.853473	0.000037	0.365612	0.123873	0.000015
1515	1.5064e+02	-19.6551	-27.840438	0.000032	0.324988	0.110109	0.000013
1516	1.5074e+02	-19.6310	-27.819256	0.000053	0.528106	0.178927	0.000021
1517	1.5084e+02	-19.5861	-27.805406	0.000035	0.345300	0.116991	0.000014
1518	1.5094e+02	-19.5428	-27.788705	0.000042	0.416391	0.141077	0.000017
1519	1.5104e+02	-19.5123	-27.769560	0.000048	0.477327	0.161723	0.000019
1520	1.5114e+02	-19.4770	-27.750008	0.000049	0.487482	0.165164	0.000020
1521	1.5124e+02	-19.4465	-27.725567	0.000061	0.609353	0.206454	0.000025
1522	1.5134e+02	-19.4128	-27.700719	0.000062	0.619509	0.209895	0.000025
1523	1.5144e+02	-19.3615	-27.681167	0.000049	0.487482	0.165164	0.000020
1524	1.5154e+02	-19.3118	-27.660392	0.000052	0.517950	0.175486	0.000021
1525	1.5164e+02	-19.2909	-27.638396	0.000055	0.548418	0.185809	0.000022
1526	1.5174e+02	-19.2396	-27.615585	0.000057	0.568729	0.192691	0.000023
1527	1.5184e+02	-19.1946	-27.590737	0.000062	0.619509	0.209895	0.000025
1528	1.5194e+02	-19.1497	-27.567926	0.000057	0.568729	0.192691	0.000023
1529	1.5204e+02	-19.1064	-27.543078	0.000062	0.619509	0.209895	0.000025
1530	1.5214e+02	-19.0727	-27.516193	0.000067	0.670288	0.227100	0.000027
1531	1.5224e+02	-19.0503	-27.488086	0.000070	0.700756	0.237423	0.000028
1532	1.5233e+02	-19.0102	-27.464053	0.000060	0.599197	0.203013	0.000024
1533	1.5243e+02	-18.9701	-27.437576	0.000066	0.660132	0.223659	0.000027
1534	1.5253e+02	-18.9251	-27.413543	0.000060	0.599197	0.203013	0.000024
1535	1.5263e+02	-18.8979	-27.382177	0.000078	0.782003	0.264950	0.000032
1536	1.5273e+02	-18.8513	-27.358959	0.000058	0.578885	0.196132	0.000023
1537	1.5283e+02	-18.8080	-27.332889	0.000065	0.649977	0.220218	0.000026
1538	1.5293e+02	-18.7695	-27.312522	0.000051	0.507794	0.172045	0.000020
1539	1.5303e+02	-18.7182	-27.282786	0.000074	0.741379	0.251186	0.000030
1540	1.5313e+02	-18.6813	-27.259160	0.000059	0.589041	0.199573	0.000024
1541	1.5323e+02	-18.6300	-27.234719	0.000061	0.609353	0.206454	0.000025
1542	1.5333e+02	-18.6396	-27.206613	-0.000070	-0.700756	-0.237423	0.000028
1543	1.5343e+02	-18.5818	-27.183802	0.000057	0.568729	0.192691	0.000023
1544	1.5353e+02	-18.5738	-27.164656	0.000048	0.477327	0.161723	0.000019
1545	1.5363e+02	-18.4824	-27.134106	0.000076	0.761691	0.258068	0.000031
1546	1.5373e+02	-18.4487	-27.107628	0.000066	0.660132	0.223659	0.000027
1547	1.5383e+02	-18.3925	-27.071782	0.000089	0.893718	0.302800	0.000036
1548	1.5393e+02	-18.3540	-27.048564	0.000058	0.578885	0.196132	0.000023
1549	1.5403e+02	-18.3396	-27.026160	0.000056	0.558574	0.189250	0.000023
1550	1.5413e+02	-18.2626	-26.999275	0.000067	0.670288	0.227100	0.000027
1551	1.5422e+02	-18.2706	-26.967095	-0.000080	-0.802315	-0.271832	0.000032
1552	1.5432e+02	-18.1792	-26.947950	0.000048	0.477327	0.161723	0.000019
1553	1.5442e+02	-18.1727	-26.919029	0.000072	0.721068	0.244304	0.000029
1554	1.5452e+02	-18.0909	-26.891737	0.000068	0.680444	0.230541	0.000027
1555	1.5462e+02	-18.0781	-26.862408	0.000073	0.731224	0.247745	0.000029
1556	1.5472e+02	-18.0556	-26.829006	0.000083	0.832782	0.282154	0.000034
1557	1.5482e+02	-18.0139	-26.801714	0.000068	0.680444	0.230541	0.000027
1558	1.5492e+02	-17.9642	-26.771978	0.000074	0.741379	0.251186	0.000030
1559	1.5502e+02	-17.9241	-26.743057	0.000072	0.721068	0.244304	0.000029
1560	1.5512e+02	-17.8712	-26.709655	0.000083	0.832782	0.282154	0.000034
1561	1.5522e+02	-17.8631	-26.678697	0.000077	0.771847	0.261509	0.000031
1562	1.5532e+02	-17.8343	-26.646517	0.000080	0.802315	0.271832	0.000032
1563	1.5542e+02	-17.7701	-26.620039	0.000066	0.660132	0.223659	0.000027
1564	1.5552e+02	-17.7220	-26.585415	0.000086	0.863250	0.292477	0.000035
1565	1.5562e+02	-17.6851	-26.551606	0.000084	0.842938	0.285595	0.000034
1566	1.5572e+02	-17.6530	-26.526758	0.000062	0.619509	0.209895	0.000025
1567	1.5582e+02	-17.6241	-26.495393	0.000078	0.782003	0.264950	0.000032
1568	1.5592e+02	-17.5455	-26.461176	0.000085	0.853094	0.289036	0.000034
1569	1.5602e+02	-17.5407	-26.431032	0.000075	0.751535	0.254627	0.000030
1570	1.5612e+02	-17.4733	-26.396001	0.000087	0.873406	0.295918	0.000035
1571	1.5622e+02	-17.4685	-26.366672	0.000073	0.731224	0.247745	0.000029
1572	1.5631e+02	-17.4300	-26.336122	0.000076	0.761691	0.258068	0.000031
1573	1.5641e+02	-17.3546	-26.302312	0.000084	0.842938	0.285595	0.000034
1574	1.5651e+02	-17.3482	-26.269725	0.000081	0.812471	0.275273	0.000033
1575	1.5661e+02	-17.2984	-26.242840	0.000067	0.670288	0.227100	0.000027
1576	1.5671e+02	-17.2535	-26.207809	0.000087	0.873406	0.295918	0.000035
1577	1.5681e+02	-17.2022	-26.173592	0.000085	0.853094	0.289036	0.000034
1578	1.5691e+02	-17.1910	-26.140597	0.000082	0.822627	0.278713	0.000033
1579	1.5701e+02	-17.1509	-26.108417	0.000080	0.802315	0.271832	0.000032
1580	1.5711e+02	-17.0963	-26.076644	0.000079	0.792159	0.268391	0.000032
1581	1.5721e+02	-17.0722	-26.040798	0.000089	0.893718	0.302800	0.000036
1582	1.5731e+02	-17.0001	-26.009026	0.000079	0.792159	0.268391	0.000032
1583	1.5741e+02	-16.9920	-25.972365	0.000091	0.914029	0.309682	0.000037
1584	1.5751e+02	-16.9198	-25.941814	0.000076	0.761691	0.258068	0.000031
1585	1.5761e+02	-16.9134	-25.906783	0.000087	0.873406	0.295918	0.000035
1586	1.5771e+02	-16.8364	-25.874195	0.000081	0.812471	0.275273	0.000033
1587	1.5781e+02	-16.7995	-25.844459	0.000074	0.741379	0.251186	0.000030
1588	1.5791e+02	-16.7739	-25.807391	0.000092	0.924185	0.313122	0.000037
1589	1.5801e+02	-16.7723	-25.773582	0.000084	0.842938	0.285595	0.000034
1590	1.5811e+02	-16.6856	-25.741402	0.000080	0.802315	0.271832	0.000032
1591	1.5821e+02	-16.6471	-25.703111	0.000095	0.954653	0.323445	0.000038
1592	1.5830e+02	-16.6199	-25.674190	0.000072	0.721068	0.244304	0.000029
1593	1.5840e+02	-16.5621	-25.637122	0.000092	0.924185	0.313122	0.000037
1594	1.5850e+02	-16.5252	-25.599239	0.000094	0.944497	0.320004	0.000038
1595	1.5860e+02	-16.4883	-25.564208	0.000087	0.873406	0.295918	0.000035
1596	1.5870e+02	-16.4530	-25.527954	0.000090	0.903874	0.306241	0.000036
1597	1.5880e+02	-16.4065	-25.491293	0.000091	0.914029	0.309682	0.000037
1598	1.5890e+02	-16.3969	-25.455854	0.000088	0.883562	0.299359	0.000036
1599	1.5900e+02	-16.3167	-25.422045	0.000084	0.842938	0.285595	0.000034
1600	1.5910e+02	-16.2942	-25.385384	0.000091	0.914029	0.309682	0.000037
1601	1.5920e+02	-16.2685	-25.356463	0.000072	0.721068	0.244304	0.000029
1602	1.5930e+02	-16.2188	-25.321431	0.000087	0.873406	0.295918	0.000035
1603	1.5940e+02	-16.1675	-25.285993	0.000088	0.883562	0.299359	0.000036
1604	1.5950e+02	-16.1594	-25.253405	0.000081	0.812471	0.275273	0.000033
1605	1.5960e+02	-16.1097	-25.222447	0.000077	0.771847	0.261509	0.000031
1606	1.5970e+02	-16.0520	-25.189045	0.000083	0.832782	0.282154	0.000034
1607	1.5980e+02	-16.0102	-25.158087	0.000077	0.771847	0.261509	0.000031
1608	1.5990e+02	-15.9717	-25.121019	0.000092	0.924185	0.313122	0.000037
1609	1.6000e+02	-15.9461	-25.083951	0.000092	0.924185	0.313122	0.000037
1610	1.6010e+02	-15.8899	-25.051771	0.000080	0.802315	0.271832	0.000032
1611	1.6019e+02	-15.8787	-25.015517	0.000090	0.903874	0.306241	0.000036
1612	1.6029e+02	-15.8242	-24.978449	0.000092	0.924185	0.313122	0.000037
1613	1.6039e+02	-15.7808	-24.947084	0.000078	0.782003	0.264950	0.000032
1614	1.6049e+02	-15.7439	-24.913681	0.000083	0.832782	0.282154	0.000034
1615	1.6059e+02	-15.7038	-24.884353	0.000073	0.731224	0.247745	0.000029
1616	1.6069e+02	-15.6750	-24.845655	0.000096	0.964809	0.326886	0.000039
1617	1.6079e+02	-15.6188	-24.811031	0.000086	0.863250	0.292477	0.000035
1618	1.6089e+02	-15.5739	-24.776000	0.000087	0.873406	0.295918	0.000035
1619	1.6099e+02	-15.5145	-24.740561	0.000088	0.883562	0.299359	0.000036
1620	1.6109e+02	-15.4921	-24.703085	0.000093	0.934341	0.316563	0.000038
1621	1.6119e+02	-15.4584	-24.668461	0.000086	0.863250	0.292477	0.000035
1622	1.6129e+02	-15.4071	-24.630578	0.000094	0.944497	0.320004	0.000038
1623	1.6139e+02	-15.3734	-24.592696	0.000094	0.944497	0.320004	0.000038
1624	1.6149e+02	-15.3557	-24.548295	0.000111	1.106991	0.375059	0.000045
1625	1.6159e+02	-15.3044	-24.506746	0.000104	1.035900	0.350972	0.000042
1626	1.6169e+02	-15.2370	-24.472937	0.000084	0.842938	0.285595	0.000034
1627	1.6179e+02	-15.2065	-24.434647	0.000095	0.954653	0.323445	0.000038
1628	1.6189e+02	-15.1825	-24.388617	0.000115	1.147615	0.388822	0.000046
1629	1.6199e+02	-15.1440	-24.354400	0.000085	0.853094	0.289036	0.000034
1630	1.6209e+02	-15.0605	-24.314481	0.000100	0.995277	0.337209	0.000040
1631	1.6219e+02	-15.0589	-24.276598	0.000094	0.944497	0.320004	0.000038
1632	1.6228e+02	-15.0108	-24.238715	0.000094	0.944497	0.320004	0.000038
1633	1.6238e+02	-14.9675	-24.196759	0.000105	1.046056	0.354413	0.000042
1634	1.6248e+02	-14.9258	-24.153580	0.000108	1.076524	0.364736	0.000043
1635	1.6258e+02	-14.8905	-24.112846	0.000102	1.015588	0.344091	0.000041
1636	1.6268e+02	-14.8504	-24.077407	0.000088	0.883562	0.299359	0.000036
1637	1.6278e+02	-14.8279	-24.037488	0.000100	0.995277	0.337209	0.000040
1638	1.6288e+02	-14.7830	-23.998790	0.000096	0.964809	0.326886	0.000039
1639	1.6298e+02	-14.7413	-23.953168	0.000114	1.137459	0.385382	0.000046
1640	1.6308e+02	-14.7060	-23.917729	0.000088	0.883562	0.299359	0.000036
1641	1.6318e+02	-14.6627	-23.878624	0.000097	0.974965	0.330327	0.000039
1642	1.6328e+02	-14.6146	-23.841963	0.000091	0.914029	0.309682	0.000037
1643	1.6338e+02	-14.5793	-23.802044	0.000100	0.995277	0.337209	0.000040
1644	1.6348e+02	-14.5376	-23.765383	0.000091	0.914029	0.309682	0.000037
1645	1.6358e+02	-14.5055	-23.723427	0.000105	1.046056	0.354413	0.000042
1646	1.6368e+02	-14.4525	-23.683914	0.000099	0.985121	0.333768	0.000040
1647	1.6378e+02	-14.4204	-23.645217	0.000096	0.964809	0.326886	0.000039
1648	1.6388e+02	-14.3723	-23.604483	0.000102	1.015588	0.344091	0.000041
1649	1.6398e+02	-14.3531	-23.568636	0.000089	0.893718	0.302800	0.000036
1650	1.6408e+02	-14.2809	-23.538086	0.000076	0.761691	0.258068	0.000031
1651	1.6418e+02	-14.2680	-23.493278	0.000112	1.117147	0.378500	0.000045
1652	1.6427e+02	-14.2167	-23.457432	0.000089	0.893718	0.302800	0.000036
1653	1.6437e+02	-14.1959	-23.414254	0.000108	1.076524	0.364736	0.000043
1654	1.6447e+02	-14.1365	-23.373927	0.000101	1.005432	0.340650	0.000041
1655	1.6457e+02	-14.0996	-23.338080	0.000089	0.893718	0.302800	0.000036
1656	1.6467e+02	-14.0707	-23.296939	0.000103	1.025744	0.347532	0.000041
1657	1.6477e+02	-14.0162	-23.254575	0.000106	1.056212	0.357854	0.000043
1658	1.6487e+02	-13.9905	-23.210990	0.000109	1.086679	0.368177	0.000044
1659	1.6497e+02	-13.9424	-23.178402	0.000081	0.812471	0.275273	0.000033
1660	1.6507e+02	-13.9087	-23.140112	0.000095	0.954653	0.323445	0.000038
1661	1.6517e+02	-13.8734	-23.098156	0.000105	1.046056	0.354413	0.000042
1662	1.6527e+02	-13.8060	-23.061088	0.000092	0.924185	0.313122	0.000037
1663	1.6537e+02	-13.7772	-23.020761	0.000101	1.005432	0.340650	0.000041
1664	1.6547e+02	-13.7499	-22.976768	0.000110	1.096835	0.371618	0.000044
1665	1.6557e+02	-13.7178	-22.939292	0.000093	0.934341	0.316563	0.000038
1666	1.6567e+02	-13.6504	-22.902224	0.000092	0.924185	0.313122	0.000037
1667	1.6577e+02	-13.5975	-22.860675	0.000104	1.035900	0.350972	0.000042
1668	1.6587e+02	-13.5830	-22.820755	0.000100	0.995277	0.337209	0.000040
1669	1.6597e+02	-13.5253	-22.777170	0.000109	1.086679	0.368177	0.000044
1670	1.6607e+02	-13.5189	-22.738065	0.000097	0.974965	0.330327	0.000039
1671	1.6616e+02	-13.4419	-22.699367	0.000096	0.964809	0.326886	0.000039
1672	1.6626e+02	-13.4098	-22.661892	0.000093	0.934341	0.316563	0.000038
1673	1.6636e+02	-13.3921	-22.621565	0.000101	1.005432	0.340650	0.000041
1674	1.6646e+02	-13.3344	-22.583275	0.000095	0.954653	0.323445	0.000038
1675	1.6656e+02	-13.3039	-22.541726	0.000104	1.035900	0.350972	0.000042
1676	1.6666e+02	-13.2782	-22.501399	0.000101	1.005432	0.340650	0.000041
1677	1.6676e+02	-13.2189	-22.460665	0.000102	1.015588	0.344091	0.000041
1678	1.6686e+02	-13.1916	-22.425633	0.000087	0.873406	0.295918	0.000035
1679	1.6696e+02	-13.1258	-22.382455	0.000108	1.076524	0.364736	0.000043
1680	1.6706e+02	-13.1066	-22.339277	0.000108	1.076524	0.364736	0.000043
1681	1.6716e+02	-13.0440	-22.302208	0.000092	0.924185	0.313122	0.000037
1682	1.6726e+02	-13.0424	-22.263511	0.000096	0.964809	0.326886	0.000039
1683	1.6736e+02	-12.9847	-22.219518	0.000110	1.096835	0.371618	0.000044
1684	1.6746e+02	-12.9430	-22.179191	0.000101	1.005432	0.340650	0.000041
1685	1.6756e+02	-12.8740	-22.139271	0.000100	0.995277	0.337209	0.000040
1686	1.6766e+02	-12.8547	-22.101796	0.000093	0.934341	0.316563	0.000038
1687	1.6776e+02	-12.8210	-22.057803	0.000110	1.096835	0.371618	0.000044
1688	1.6786e+02	-12.7713	-22.017883	0.000100	0.995277	0.337209	0.000040
1689	1.6796e+02	-12.7472	-21.971854	0.000115	1.147615	0.388822	0.000046
1690	1.6806e+02	-12.6815	-21.928268	0.000109	1.086679	0.368177	0.000044
1691	1.6816e+02	-12.6446	-21.883053	0.000113	1.127303	0.381941	0.000045
1692	1.6825e+02	-12.6365	-21.845577	0.000093	0.934341	0.316563	0.000038
1693	1.6835e+02	-12.6093	-21.804436	0.000103	1.025744	0.347532	0.000041
1694	1.6845e+02	-12.5291	-21.760850	0.000109	1.086679	0.368177	0.000044
1695	1.6855e+02	-12.5098	-21.717672	0.000108	1.076524	0.364736	0.000043
1696	1.6865e+02	-12.4488	-21.674901	0.000107	1.066368	0.361295	0.000043
1697	1.6875e+02	-12.4152	-21.632130	0.000107	1.066368	0.361295	0.000043
1698	1.6885e+02	-12.3927	-21.588137	0.000110	1.096835	0.371618	0.000044
1699	1.6895e+02	-12.3510	-21.551069	0.000092	0.924185	0.313122	0.000037
1700	1.6905e+02	-12.3157	-21.504224	0.000117	1.167927	0.395704	0.000047
1701	1.6915e+02	-12.2900	-21.457787	0.000116	1.157771	0.392263	0.000047
1702	1.6925e+02	-12.2419	-21.416238	0.000104	1.035900	0.350972	0.000042
1703	1.6935e+02	-12.1986	-21.374282	0.000105	1.046056	0.354413	0.000042
1704	1.6945e+02	-12.1408	-21.332733	0.000104	1.035900	0.350972	0.000042
1705	1.6955e+02	-12.1055	-21.290369	0.000106	1.056212	0.357854	0.000043
1706	1.6965e+02	-12.0638	-21.251672	0.000096	0.964809	0.326886	0.000039
1707	1.6975e+02	-12.0382	-21.213382	0.000095	0.954653	0.323445	0.000038
1708	1.6985e+02	-11.9981	-21.175092	0.000095	0.954653	0.323445	0.000038
1709	1.6995e+02	-11.9483	-21.138023	0.000092	0.924185	0.313122	0.000037
1710	1.7005e+02	-11.8954	-21.094030	0.000110	1.096835	0.371618	0.000044
1711	1.7015e+02	-11.8665	-21.057370	0.000091	0.914029	0.309682	0.000037
1712	1.7024e+02	-11.8424	-21.011340	0.000115	1.147615	0.388822	0.000046
1713	1.7034e+02	-11.8007	-20.975901	0.000088	0.883562	0.299359	0.000036
1714	1.7044e+02	-11.7574	-20.930279	0.000114	1.137459	0.385382	0.000046
1715	1.7054e+02	-11.6965	-20.895247	0.000087	0.873406	0.295918	0.000035
1716	1.7064e+02	-11.6692	-20.855328	0.000100	0.995277	0.337209	0.000040
1717	1.7074e+02	-11.6371	-20.815001	0.000101	1.005432	0.340650	0.000041
1718	1.7084e+02	-11.5713	-20.770600	0.000111	1.106991	0.375059	0.000045
1719	1.7094e+02	-11.5585	-20.736384	0.000085	0.853094	0.289036	0.000034
1720	1.7104e+02	-11.5072	-20.696464	0.000100	0.995277	0.337209	0.000040
1721	1.7114e+02	-11.4687	-20.656952	0.000099	0.985121	0.333768	0.000040
1722	1.7124e+02	-11.4302	-20.613366	0.000109	1.086679	0.368177	0.000044
1723	1.7134e+02	-11.3917	-20.573854	0.000099	0.985121	0.333768	0.000040
1724	1.7144e+02	-11.3403	-20.535156	0.000096	0.964809	0.326886	0.000039
1725	1.7154e+02	-11.3018	-20.494015	0.000103	1.025744	0.347532	0.000041
1726	1.7164e+02	-11.2762	-20.444726	0.000123	1.228862	0.416350	0.000050
1727	1.7174e+02	-11.2216	-20.404807	0.000100	0.995277	0.337209	0.000040
1728	1.7184e+02	-11.1847	-20.366924	0.000094	0.944497	0.320004	0.000038
1729	1.7194e+02	-11.1767	-20.321709	0.000113	1.127303	0.381941	0.000045
1730	1.7204e+02	-11.1061	-20.281382	0.000101	1.005432	0.340650	0.000041
1731	1.7213e+02	-11.0852	-20.237389	0.000110	1.096835	0.371618	0.000044
1732	1.7223e+02	-11.0500	-20.197877	0.000099	0.985121	0.333768	0.000040
1733	1.7233e+02	-11.0082	-20.150625	0.000118	1.178082	0.399145	0.000047
1734	1.7243e+02	-10.9489	-20.102966	0.000119	1.188238	0.402586	0.000048
1735	1.7253e+02	-10.9216	-20.060602	0.000106	1.056212	0.357854	0.000043
1736	1.7263e+02	-10.8767	-20.019868	0.000102	1.015588	0.344091	0.000041
1737	1.7273e+02	-10.8206	-19.977912	0.000105	1.046056	0.354413	0.000042
1738	1.7283e+02	-10.7788	-19.933104	0.000112	1.117147	0.378500	0.000045
1739	1.7293e+02	-10.7692	-19.890740	0.000106	1.056212	0.357854	0.000043
1740	1.7303e+02	-10.7211	-19.847155	0.000109	1.086679	0.368177	0.000044
1741	1.7313e+02	-10.6986	-19.802347	0.000112	1.117147	0.378500	0.000045
1742	1.7323e+02	-10.6361	-19.760391	0.000105	1.046056	0.354413	0.000042
1743	1.7333e+02	-10.5639	-19.717620	0.000107	1.066368	0.361295	0.000043
1744	1.7343e+02	-10.5559	-19.677293	0.000101	1.005432	0.340650	0.000041
1745	1.7353e+02	-10.5270	-19.633300	0.000110	1.096835	0.371618	0.000044
1746	1.7363e+02	-10.4869	-19.591344	0.000105	1.046056	0.354413	0.000042
1747	1.7373e+02	-10.4452	-19.546943	0.000111	1.106991	0.375059	0.000045
1748	1.7383e+02	-10.4067	-19.502950	0.000110	1.096835	0.371618	0.000044
1749	1.7393e+02	-10.3585	-19.454477	0.000121	1.208550	0.409468	0.000049
1750	1.7403e+02	-10.2976	-19.416594	0.000094	0.944497	0.320004	0.000038
1751	1.7413e+02	-10.2767	-19.361602	0.000137	1.371044	0.464522	0.000055
1752	1.7422e+02	-10.2382	-19.322090	0.000099	0.985121	0.333768	0.000040
1753	1.7432e+02	-10.1981	-19.280949	0.000103	1.025744	0.347532	0.000041
1754	1.7442e+02	-10.1628	-19.237363	0.000109	1.086679	0.368177	0.000044
1755	1.7452e+02	-10.1323	-19.194999	0.000106	1.056212	0.357854	0.000043
1756	1.7462e+02	-10.0778	-19.149377	0.000114	1.137459	0.385382	0.000046
1757	1.7472e+02	-10.0345	-19.103347	0.000115	1.147615	0.388822	0.000046
1758	1.7482e+02	-9.9896	-19.057318	0.000115	1.147615	0.388822	0.000046
1759	1.7492e+02	-9.9719	-19.012510	0.000112	1.117147	0.378500	0.000045
1760	1.7502e+02	-9.9254	-18.964443	0.000120	1.198394	0.406027	0.000048
1761	1.7512e+02	-9.8853	-18.917599	0.000117	1.167927	0.395704	0.000047
1762	1.7522e+02	-9.8548	-18.874828	0.000107	1.066368	0.361295	0.000043
1763	1.7532e+02	-9.8067	-18.827984	0.000117	1.167927	0.395704	0.000047
1764	1.7542e+02	-9.7618	-18.778695	0.000123	1.228862	0.416350	0.000050
1765	1.7552e+02	-9.7152	-18.730629	0.000120	1.198394	0.406027	0.000048
1766	1.7562e+02	-9.6751	-18.691117	0.000099	0.985121	0.333768	0.000040
1767	1.7572e+02	-9.6430	-18.641828	0.000123	1.228862	0.416350	0.000050
1768	1.7582e+02	-9.5997	-18.600279	0.000104	1.035900	0.350972	0.000042
1769	1.7592e+02	-9.5725	-18.552213	0.000120	1.198394	0.406027	0.000048
1770	1.7602e+02	-9.5307	-18.509849	0.000106	1.056212	0.357854	0.000043
1771	1.7612e+02	-9.5051	-18.466671	0.000108	1.076524	0.364736	0.000043
1772	1.7621e+02	-9.4441	-18.421863	0.000112	1.117147	0.378500	0.000045
1773	1.7631e+02	-9.4377	-18.383166	0.000096	0.964809	0.326886	0.000039
1774	1.7641e+02	-9.3575	-18.335507	0.000119	1.188238	0.402586	0.000048
1775	1.7651e+02	-9.3190	-18.288255	0.000118	1.178082	0.399145	0.000047
1776	1.7661e+02	-9.2725	-18.249965	0.000095	0.954653	0.323445	0.000038
1777	1.7671e+02	-9.2275	-18.200269	0.000124	1.239018	0.419791	0.000050
1778	1.7681e+02	-9.2067	-18.154239	0.000115	1.147615	0.388822	0.000046
1779	1.7691e+02	-9.1441	-18.111876	0.000106	1.056212	0.357854	0.000043
1780	1.7701e+02	-9.1233	-18.060958	0.000127	1.269485	0.430113	0.000051
1781	1.7711e+02	-9.0671	-18.017372	0.000109	1.086679	0.368177	0.000044
1782	1.7721e+02	-9.0415	-17.972157	0.000113	1.127303	0.381941	0.000045
1783	1.7731e+02	-9.0126	-17.928164	0.000110	1.096835	0.371618	0.000044
1784	1.7741e+02	-8.9933	-17.882949	0.000113	1.127303	0.381941	0.000045
1785	1.7751e+02	-8.9115	-17.835290	0.000119	1.188238	0.402586	0.000048
1786	1.7761e+02	-8.8987	-17.794556	0.000102	1.015588	0.344091	0.000041
1787	1.7771e+02	-8.8265	-17.744045	0.000126	1.259330	0.426672	0.000051
1788	1.7781e+02	-8.7960	-17.697608	0.000116	1.157771	0.392263	0.000047
1789	1.7791e+02	-8.7655	-17.649949	0.000119	1.188238	0.402586	0.000048
1790	1.7801e+02	-8.7238	-17.599439	0.000126	1.259330	0.426672	0.000051
1791	1.7810e+02	-8.7126	-17.545669	0.000134	1.340577	0.454200	0.000054
1792	1.7820e+02	-8.6356	-17.499232	0.000116	1.157771	0.392263	0.000047
1793	1.7830e+02	-8.5923	-17.445463	0.000134	1.340577	0.454200	0.000054
1794	1.7840e+02	-8.5682	-17.397804	0.000119	1.188238	0.402586	0.000048
1795	1.7850e+02	-8.5265	-17.347294	0.000126	1.259330	0.426672	0.000051
1796	1.7860e+02	-8.4816	-17.299227	0.000120	1.198394	0.406027	0.000048
1797	1.7870e+02	-8.4463	-17.250346	0.000122	1.218706	0.412909	0.000049
1798	1.7880e+02	-8.3933	-17.201872	0.000121	1.208550	0.409468	0.000049
1799	1.7890e+02	-8.3645	-17.147288	0.000136	1.360888	0.461081	0.000055
1800	1.7900e+02	-8.3212	-17.091890	0.000138	1.381200	0.467963	0.000056
1801	1.7910e+02	-8.2827	-17.045453	0.000116	1.157771	0.392263	0.000047
1802	1.7920e+02	-8.2586	-16.992091	0.000133	1.330421	0.450759	0.000054
1803	1.7930e+02	-8.2024	-16.941580	0.000126	1.259330	0.426672	0.000051
1804	1.7940e+02	-8.1671	-16.890663	0.000127	1.269485	0.430113	0.000051
1805	1.7950e+02	-8.1110	-16.838523	0.000130	1.299953	0.440436	0.000052
1806	1.7960e+02	-8.0757	-16.787198	0.000128	1.279641	0.433554	0.000052
1807	1.7970e+02	-8.0404	-16.736280	0.000127	1.269485	0.430113	0.000051
1808	1.7980e+02	-8.0019	-16.689435	0.000117	1.167927	0.395704	0.000047
1809	1.7990e+02	-7.9634	-16.635666	0.000134	1.340577	0.454200	0.000054
1810	1.8000e+02	-7.9137	-16.584748	0.000127	1.269485	0.430113	0.000051
1811	1.8009e+02	-7.9008	-16.533016	0.000129	1.289797	0.436995	0.000052
1812	1.8019e+02	-7.8254	-16.481283	0.000129	1.289797	0.436995	0.000052
1813	1.8029e+02	-7.7982	-16.437290	0.000110	1.096835	0.371618	0.000044
1814	1.8039e+02	-7.7581	-16.385965	0.000128	1.279641	0.433554	0.000052
1815	1.8049e+02	-7.7148	-16.330974	0.000137	1.371044	0.464522	0.000055
1816	1.8059e+02	-7.6859	-16.285759	0.000113	1.127303	0.381941	0.000045
1817	1.8069e+02	-7.6474	-16.230768	0.000137	1.371044	0.464522	0.000055
1818	1.8079e+02	-7.6185	-16.177406	0.000133	1.330421	0.450759	0.000054
1819	1.8089e+02	-7.5399	-16.130969	0.000116	1.157771	0.392263	0.000047
1820	1.8099e+02	-7.5222	-16.079236	0.000129	1.289797	0.436995	0.000052
1821	1.8109e+02	-7.4854	-16.030762	0.000121	1.208550	0.409468	0.000049
1822	1.8119e+02	-7.4292	-15.978623	0.000130	1.299953	0.440436	0.000052
1823	1.8129e+02	-7.4228	-15.930149	0.000121	1.208550	0.409468	0.000049
1824	1.8139e+02	-7.3666	-15.876380	0.000134	1.340577	0.454200	0.000054
1825	1.8149e+02	-7.3410	-15.821388	0.000137	1.371044	0.464522	0.000055
1826	1.8159e+02	-7.3089	-15.769656	0.000129	1.289797	0.436995	0.000052
1827	1.8169e+02	-7.2479	-15.719553	0.000125	1.249174	0.423231	0.000050
1828	1.8179e+02	-7.2126	-15.667006	0.000131	1.310109	0.443877	0.000053
1829	1.8189e+02	-7.1773	-15.616495	0.000126	1.259330	0.426672	0.000051
1830	1.8199e+02	-7.1212	-15.563948	0.000131	1.310109	0.443877	0.000053
1831	1.8209e+02	-7.0891	-15.515067	0.000122	1.218706	0.412909	0.000049
1832	1.8218e+02	-7.0987	-15.462112	-0.000132	-1.320265	-0.447318	0.000053
1833	1.8228e+02	-7.0265	-15.411602	0.000126	1.259330	0.426672	0.000051
1834	1.8238e+02	-6.9576	-15.355388	0.000140	1.401512	0.474845	0.000056
1835	1.8248e+02	-6.9367	-15.304063	0.000128	1.279641	0.433554	0.000052
1836	1.8258e+02	-6.8998	-15.251516	0.000131	1.310109	0.443877	0.000053
1837	1.8268e+02	-6.8308	-15.195303	0.000140	1.401512	0.474845	0.000056
1838	1.8278e+02	-6.8148	-15.143570	0.000129	1.289797	0.436995	0.000052
1839	1.8288e+02	-6.7795	-15.085728	0.000144	1.442135	0.488609	0.000058
1840	1.8298e+02	-6.7410	-15.034403	0.000128	1.279641	0.433554	0.000052
1841	1.8308e+02	-6.6832	-14.986336	0.000120	1.198394	0.406027	0.000048
1842	1.8318e+02	-6.6560	-14.933789	0.000131	1.310109	0.443877	0.000053
1843	1.8328e+02	-6.6126	-14.882464	0.000128	1.279641	0.433554	0.000052
1844	1.8338e+02	-6.5613	-14.829917	0.000131	1.310109	0.443877	0.000053
1845	1.8348e+02	-6.5517	-14.774111	0.000139	1.391356	0.471404	0.000056
1846	1.8358e+02	-6.4955	-14.723193	0.000127	1.269485	0.430113	0.000051
1847	1.8368e+02	-6.4474	-14.668609	0.000136	1.360888	0.461081	0.000055
1848	1.8378e+02	-6.4554	-14.622172	-0.000116	-1.157771	-0.392263	0.000047
1849	1.8388e+02	-6.3913	-14.566366	0.000139	1.391356	0.471404	0.000056
1850	1.8398e+02	-6.3175	-14.511782	0.000136	1.360888	0.461081	0.000055
1851	1.8407e+02	-6.2886	-14.461272	0.000126	1.259330	0.426672	0.000051
1852	1.8417e+02	-6.2501	-14.408317	0.000132	1.320265	0.447318	0.000053
1853	1.8427e+02	-6.2292	-14.351289	0.000142	1.421824	0.481727	0.000057
1854	1.8437e+02	-6.1554	-14.295891	0.000138	1.381200	0.467963	0.000056
1855	1.8447e+02	-6.1506	-14.231123	0.000161	1.614785	0.547104	0.000065
1856	1.8457e+02	-6.1009	-14.188352	0.000107	1.066368	0.361295	0.000043
1857	1.8467e+02	-6.0480	-14.123585	0.000161	1.614785	0.547104	0.000065
1858	1.8477e+02	-6.0287	-14.068593	0.000137	1.371044	0.464522	0.000055
1859	1.8487e+02	-5.9886	-14.010751	0.000144	1.442135	0.488609	0.000058
1860	1.8497e+02	-5.9357	-13.953723	0.000142	1.421824	0.481727	0.000057
1861	1.8507e+02	-5.9180	-13.898324	0.000138	1.381200	0.467963	0.000056
1862	1.8517e+02	-5.8635	-13.840889	0.000143	1.431980	0.485168	0.000058
1863	1.8527e+02	-5.8202	-13.787934	0.000132	1.320265	0.447318	0.000053
1864	1.8537e+02	-5.7624	-13.728870	0.000147	1.472603	0.498931	0.000059
1865	1.8547e+02	-5.7415	-13.671434	0.000143	1.431980	0.485168	0.000058
1866	1.8557e+02	-5.6982	-13.608704	0.000156	1.564006	0.529900	0.000063
1867	1.8567e+02	-5.6437	-13.558600	0.000125	1.249174	0.423231	0.000050
1868	1.8577e+02	-5.6164	-13.498721	0.000149	1.492915	0.505813	0.000060
1869	1.8587e+02	-5.5747	-13.438027	0.000151	1.513227	0.512695	0.000061
1870	1.8597e+02	-5.5635	-13.380184	0.000144	1.442135	0.488609	0.000058
1871	1.8606e+02	-5.4913	-13.326823	0.000133	1.330421	0.450759	0.000054
1872	1.8616e+02	-5.4881	-13.268980	0.000144	1.442135	0.488609	0.000058
1873	1.8626e+02	-5.4271	-13.213989	0.000137	1.371044	0.464522	0.000055
1874	1.8636e+02	-5.3902	-13.157775	0.000140	1.401512	0.474845	0.000056
1875	1.8646e+02	-5.3341	-13.104821	0.000132	1.320265	0.447318	0.000053
1876	1.8656e+02	-5.3052	-13.048200	0.000141	1.411668	0.478286	0.000057
1877	1.8666e+02	-5.2458	-12.995653	0.000131	1.310109	0.443877	0.000053
1878	1.8676e+02	-5.2266	-12.943513	0.000130	1.299953	0.440436	0.000052
1879	1.8686e+02	-5.1977	-12.888115	0.000138	1.381200	0.467963	0.000056
1880	1.8696e+02	-5.1335	-12.827421	0.000151	1.513227	0.512695	0.000061
1881	1.8706e+02	-5.1047	-12.778132	0.000123	1.228862	0.416350	0.000050
1882	1.8716e+02	-5.0469	-12.717031	0.000152	1.523382	0.516136	0.000061
1883	1.8726e+02	-5.0373	-12.661225	0.000139	1.391356	0.471404	0.000056
1884	1.8736e+02	-4.9795	-12.605419	0.000139	1.391356	0.471404	0.000056
1885	1.8746e+02	-4.9346	-12.548798	0.000141	1.411668	0.478286	0.000057
1886	1.8756e+02	-4.9041	-12.497880	0.000127	1.269485	0.430113	0.000051
1887	1.8766e+02	-4.8560	-12.434742	0.000157	1.574162	0.533340	0.000063
1888	1.8776e+02	-4.8480	-12.382195	0.000131	1.310109	0.443877	0.000053
1889	1.8786e+02	-4.7614	-12.324760	0.000143	1.431980	0.485168	0.000058
1890	1.8796e+02	-4.7357	-12.270583	0.000135	1.350732	0.457641	0.000054
1891	1.8806e+02	-4.6940	-12.208260	0.000155	1.553850	0.526459	0.000063
1892	1.8815e+02	-4.6651	-12.148381	0.000149	1.492915	0.505813	0.000060
1893	1.8825e+02	-4.6122	-12.089723	0.000146	1.462447	0.495491	0.000059
1894	1.8835e+02	-4.5608	-12.030251	0.000148	1.482759	0.502372	0.000060
1895	1.8845e+02	-4.5416	-11.973223	0.000142	1.421824	0.481727	0.000057
1896	1.8855e+02	-4.5063	-11.917010	0.000140	1.401512	0.474845	0.000056
1897	1.8865e+02	-4.4614	-11.854687	0.000155	1.553850	0.526459	0.000063
1898	1.8875e+02	-4.4341	-11.796029	0.000146	1.462447	0.495491	0.000059
1899	1.8885e+02	-4.3780	-11.729225	0.000167	1.665565	0.564309	0.000067
1900	1.8895e+02	-4.3218	-11.675863	0.000133	1.330421	0.450759	0.000054
1901	1.8905e+02	-4.3058	-11.610688	0.000162	1.624941	0.550545	0.000066
1902	1.8915e+02	-4.2464	-11.552438	0.000145	1.452291	0.492050	0.000059
1903	1.8925e+02	-4.2336	-11.490522	0.000154	1.543694	0.523018	0.000062
1904	1.8935e+02	-4.1887	-11.432272	0.000145	1.452291	0.492050	0.000059
1905	1.8945e+02	-4.1469	-11.371171	0.000152	1.523382	0.516136	0.000061
1906	1.8955e+02	-4.1116	-11.312514	0.000146	1.462447	0.495491	0.000059
1907	1.8965e+02	-4.0555	-11.244080	0.000171	1.706188	0.578072	0.000069
1908	1.8975e+02	-4.0539	-11.190718	0.000133	1.330421	0.450759	0.000054
1909	1.8985e+02	-3.9769	-11.125951	0.000161	1.614785	0.547104	0.000065
1910	1.8995e+02	-3.9416	-11.062813	0.000157	1.574162	0.533340	0.000063
1911	1.9004e+02	-3.8790	-11.004970	0.000144	1.442135	0.488609	0.000058
1912	1.9014e+02	-3.8758	-10.935314	0.000174	1.736656	0.588395	0.000070
1913	1.9024e+02	-3.8245	-10.876657	0.000146	1.462447	0.495491	0.000059
1914	1.9034e+02	-3.7892	-10.809446	0.000168	1.675721	0.567750	0.000068
1915	1.9044e+02	-3.7347	-10.752825	0.000141	1.411668	0.478286	0.000057
1916	1.9054e+02	-3.6865	-10.686021	0.000167	1.665565	0.564309	0.000067
1917	1.9064e+02	-3.6849	-10.625327	0.000151	1.513227	0.512695	0.000061
1918	1.9074e+02	-3.6272	-10.558930	0.000166	1.655409	0.560868	0.000067
1919	1.9084e+02	-3.5790	-10.495385	0.000158	1.584318	0.536781	0.000064
1920	1.9094e+02	-3.5421	-10.428580	0.000167	1.665565	0.564309	0.000067
1921	1.9104e+02	-3.5004	-10.366664	0.000154	1.543694	0.523018	0.000062
1922	1.9114e+02	-3.4523	-10.303934	0.000156	1.564006	0.529900	0.000063
1923	1.9124e+02	-3.4202	-10.239166	0.000161	1.614785	0.547104	0.000065
1924	1.9134e+02	-3.3913	-10.172769	0.000166	1.655409	0.560868	0.000067
1925	1.9144e+02	-3.3496	-10.107187	0.000164	1.635097	0.553986	0.000066
1926	1.9154e+02	-3.3063	-10.042012	0.000162	1.624941	0.550545	0.000066
1927	1.9164e+02	-3.2694	-9.981726	0.000150	1.503071	0.509254	0.000061
1928	1.9174e+02	-3.2438	-9.911663	0.000175	1.746812	0.591836	0.000070
1929	1.9184e+02	-3.1844	-9.841600	0.000175	1.746812	0.591836	0.000070
1930	1.9194e+02	-3.1363	-9.777240	0.000160	1.604630	0.543663	0.000065
1931	1.9203e+02	-3.1170	-9.715731	0.000153	1.533538	0.519577	0.000062
1932	1.9213e+02	-3.0865	-9.644039	0.000179	1.787435	0.605600	0.000072
1933	1.9223e+02	-3.0127	-9.576420	0.000169	1.685877	0.571190	0.000068
1934	1.9233e+02	-2.9855	-9.508394	0.000170	1.696032	0.574631	0.000068
1935	1.9243e+02	-2.9550	-9.440367	0.000170	1.696032	0.574631	0.000068
1936	1.9253e+02	-2.8940	-9.377637	0.000156	1.564006	0.529900	0.000063
1937	1.9263e+02	-2.8587	-9.307574	0.000175	1.746812	0.591836	0.000070
1938	1.9273e+02	-2.8234	-9.242806	0.000161	1.614785	0.547104	0.000065
1939	1.9283e+02	-2.7833	-9.177224	0.000164	1.635097	0.553986	0.000066
1940	1.9293e+02	-2.7448	-9.110420	0.000167	1.665565	0.564309	0.000067
1941	1.9303e+02	-2.6903	-9.041172	0.000173	1.726500	0.584954	0.000070
1942	1.9313e+02	-2.6614	-8.976811	0.000160	1.604630	0.543663	0.000065
1943	1.9323e+02	-2.6358	-8.903490	0.000183	1.828059	0.619363	0.000074
1944	1.9333e+02	-2.5989	-8.839130	0.000160	1.604630	0.543663	0.000065
1945	1.9343e+02	-2.5475	-8.768252	0.000177	1.767124	0.598718	0.000071
1946	1.9353e+02	-2.5154	-8.701448	0.000167	1.665565	0.564309	0.000067
1947	1.9363e+02	-2.4785	-8.632607	0.000172	1.716344	0.581513	0.000069
1948	1.9373e+02	-2.4080	-8.567432	0.000162	1.624941	0.550545	0.000066
1949	1.9383e+02	-2.3935	-8.497777	0.000174	1.736656	0.588395	0.000070
1950	1.9393e+02	-2.3582	-8.430972	0.000167	1.665565	0.564309	0.000067
1951	1.9403e+02	-2.3181	-8.361317	0.000174	1.736656	0.588395	0.000070
1952	1.9412e+02	-2.2491	-8.290847	0.000176	1.756968	0.595277	0.000071
1953	1.9422e+02	-2.2251	-8.219562	0.000178	1.777280	0.602159	0.000072
1954	1.9432e+02	-2.1898	-8.147869	0.000179	1.787435	0.605600	0.000072
1955	1.9442e+02	-2.1625	-8.075770	0.000180	1.797591	0.609040	0.000072
1956	1.9452e+02	-2.0903	-8.001633	0.000185	1.848371	0.626245	0.000075
1957	1.9462e+02	-2.0791	-7.927497	0.000185	1.848371	0.626245	0.000075
1958	1.9472e+02	-2.0326	-7.857841	0.000174	1.736656	0.588395	0.000070
1959	1.9482e+02	-1.9828	-7.777188	0.000201	2.010865	0.681299	0.000081
1960	1.9492e+02	-1.9652	-7.702644	0.000186	1.858527	0.629686	0.000075
1961	1.9502e+02	-1.9219	-7.629322	0.000183	1.828059	0.619363	0.000074
1962	1.9512e+02	-1.8753	-7.549891	0.000198	1.980397	0.670977	0.000080
1963	1.9522e+02	-1.8368	-7.469644	0.000200	2.000709	0.677859	0.000081
1964	1.9532e+02	-1.7919	-7.396730	0.000182	1.817903	0.615922	0.000073
1965	1.9542e+02	-1.7374	-7.323001	0.000184	1.838215	0.622804	0.000074
1966	1.9552e+02	-1.7165	-7.244791	0.000195	1.949930	0.660654	0.000079
1967	1.9562e+02	-1.6524	-7.168618	0.000190	1.899150	0.643449	0.000077
1968	1.9572e+02	-1.6074	-7.091630	0.000192	1.919462	0.650331	0.000077
1969	1.9582e+02	-1.5962	-7.008125	0.000208	2.081956	0.705386	0.000084
1970	1.9592e+02	-1.5705	-6.936025	0.000180	1.797591	0.609040	0.000072
1971	1.9601e+02	-1.5080	-6.855371	0.000201	2.010865	0.681299	0.000081
1972	1.9611e+02	-1.4727	-6.773088	0.000205	2.051488	0.695063	0.000083
1973	1.9621e+02	-1.4358	-6.694879	0.000195	1.949930	0.660654	0.000079
1974	1.9631e+02	-1.4101	-6.618705	0.000190	1.899150	0.643449	0.000077
1975	1.9641e+02	-1.3636	-6.540496	0.000195	1.949930	0.660654	0.000079
1976	1.9651e+02	-1.3235	-6.460249	0.000200	2.000709	0.677859	0.000081
1977	1.9661e+02	-1.2689	-6.384076	0.000190	1.899150	0.643449	0.000077
1978	1.9671e+02	-1.2048	-6.303830	0.000200	2.000709	0.677859	0.000081
1979	1.9681e+02	-1.1903	-6.226435	0.000193	1.929618	0.653772	0.000078
1980	1.9691e+02	-1.1759	-6.144966	0.000203	2.031177	0.688181	0.000082
1981	1.9701e+02	-1.1053	-6.070422	0.000186	1.858527	0.629686	0.000075
1982	1.9711e+02	-1.0716	-5.989769	0.000201	2.010865	0.681299	0.000081
1983	1.9721e+02	-1.0139	-5.913188	0.000191	1.909306	0.646890	0.000077
1984	1.9731e+02	-0.9770	-5.833349	0.000199	1.990553	0.674418	0.000080
1985	1.9741e+02	-0.9609	-5.752695	0.000201	2.010865	0.681299	0.000081
1986	1.9751e+02	-0.9144	-5.672041	0.000201	2.010865	0.681299	0.000081
1987	1.9761e+02	-0.8647	-5.589351	0.000206	2.061644	0.698504	0.000083
1988	1.9771e+02	-0.8358	-5.511548	0.000194	1.939774	0.657213	0.000078
1989	1.9781e+02	-0.7861	-5.423970	0.000218	2.183515	0.739795	0.000088
1990	1.9791e+02	-0.7508	-5.344538	0.000198	1.980397	0.670977	0.000080
1991	1.9800e+02	-0.7251	-5.264699	0.000199	1.990553	0.674418	0.000080
1992	1.9810e+02	-0.6577	-5.186082	0.000196	1.960085	0.664095	0.000079
1993	1.9820e+02	-0.6353	-5.098096	0.000219	2.193671	0.743236	0.000088
1994	1.9830e+02	-0.6000	-5.020293	0.000194	1.939774	0.657213	0.000078
1995	1.9840e+02	-0.5198	-4.930678	0.000223	2.234294	0.756999	0.000090
1996	1.9850e+02	-0.5182	-4.852875	0.000194	1.939774	0.657213	0.000078
1997	1.9860e+02	-0.4732	-4.764889	0.000219	2.193671	0.743236	0.000088
1998	1.9870e+02	-0.4251	-4.685865	0.000197	1.970241	0.667536	0.000079
1999	1.9880e+02	-0.3706	-4.598694	0.000217	2.173359	0.736354	0.000088
2000	1.9890e+02	-0.3593	-4.514781	0.000209	2.092112	0.708827	0.000084
2001	1.9900e+02	-0.3064	-4.433313	0.000203	2.031177	0.688181	0.000082
2002	1.9910e+02	-0.2759	-4.355510	0.000194	1.939774	0.657213	0.000078
2003	1.9920e+02	-0.2182	-4.268746	0.000216	2.163203	0.732913	0.000087
2004	1.9930e+02	-0.1989	-4.185648	0.000207	2.071800	0.701945	0.000084
2005	1.9940e+02	-0.1636	-4.102551	0.000207	2.071800	0.701945	0.000084
2006	1.9950e+02	-0.1043	-4.015787	0.000216	2.163203	0.732913	0.000087
2007	1.9960e+02	-0.0914	-3.929430	0.000215	2.153047	0.729472	0.000087
2008	1.9970e+02	-0.0433	-3.847147	0.000205	2.051488	0.695063	0.000083
2009	1.9980e+02	0.0096	-3.759568	0.000205	2.051488	0.695063	0.000088

Center data before PMax,+/-Pr and +/-Vc Calc.

PMax (uC/cm2):	2.79e+01
Pr (uC/cm2):	1.79e+00
-Pr (uC/cm2):	-3.76e+00
PLoss (uC/cm2):	-1.91e+00
Vc:	9.17e-01
-Vc:	-8.92e-01
C (Max-Eff) (nF):	1.40e-01
K (Eff):	4.73e+02
Vert. (+/-Pr) Shift (uC/cm2):	-9.87e-01
Horiz. Shift (+/-Vc):	1.25e-02
Offset (uC/cm2):	1.84e+00

A (Loop Area - uC/cm2·Volts):	2.08e-02



Hysteresis Version: 5.48.1 - Radiant Technologies, Inc., 1999 - 9/12/24

