»»»»»»»»»»»»»»»»»»»»»»»»»»»»»»»»»»»» Hysteresis ««««««««««««««««««««««««««««««««««««
»»»  Executed Version:	5.48.1
»»»  Vision Version:	5.48.4 (R)
»»»  Vision Compiled:	9/18/24
»»»  Driver Version:	5.47.0
»»»  Windows Version:	Windows 8 or 8.1
»»»  Processor Information:	x86 (AMD or Intel) - 32 Processors
»»»  Tester Name:	PMF21124-494 (100V)
»»»  Tester S/N:	PMF21124-494
»»»  Internal Amp Type:	100V RevK 270k
»»»  Internal Amp S/N:	iAB2-596/K     
»»»  Execution Count:	1
»»»»»»»»»»»»»»»»»»»»»»»»»»»»»»»»»»»»»»»»»»««««««««««««««««««««««««««««««««««««««««««

Stored:	6/4/2025 - 14:54:8
Configured:	06/04/25 01:46:06 PM
Executed:	06/04/25 02:53:31 PM

»»»»»»»»»»»»»»»»»»»»»»»»»»»»»»»»»»» Sample Info ««««««««««««««««««««««««««««««««««««
Sample Name:	
Lot Name:	
Wafer Name:	
Die Row/Column:	0/0
Capacitor Number:	0
Sample Area (cm2):	1.00e-04
Sample Thickness (microns):	3.00e-01

Amplifier:	Internal

»»»»»»»»»»»»»»»»»»»»»»»»»»»»»»»»»»» Tester Info «««««««««««««««««««««««««««««««««««
Tester Name:	PMF21124-494 (100V)
Tester Serial Number:	PMF21124-494
Return Signal Amp. Level:	0.19 [Index: 3]

»»»»»»»»»»»»»»»»»»»»»»»»»»»»»»»» Hysteresis Info ««««««««««««««««««««««««««««««««««
Task Name:	Hyst-37
Volts:	20.00
Field:	666.67 (kV/cm)
DCBias:	0.00
DCField:	0.00 (kV/cm)
Hysteresis Period (ms):	2.00e+02
Preset:	Enabled
Preset Delay (ms):	1.00e+03
Profile:	Standard Bipolar

»»»»»»»»»»»»»»»»»»»»»»»»»»»»»»»»»»»»»» Data «««««««««««««««««««««««««««««««««««««««
Points:	2009

Valid Data

Point	Time (ms)	Drive Voltage	Measured Polarization (uC/cm2)	Capacitance (uF)	Normalized Capacitance (uF/cm2)	Dielectric Constant	Instantaneous Current (mA)
   1	0.0000e+00	-0.0112	-177.561304	0.000375	3.751626	1.271085	0.000150
   2	9.9500e-02	0.0176	-177.411930	0.000375	3.751626	1.271085	0.000150
   3	1.9900e-01	0.0594	-177.226222	0.000466	4.664183	1.580268	0.000187
   4	2.9850e-01	0.1027	-177.024365	0.000507	5.069764	1.717683	0.000203
   5	3.9800e-01	0.1460	-176.818471	0.000517	5.171160	1.752036	0.000207
   6	4.9750e-01	0.1861	-176.648911	0.000426	4.258602	1.442853	0.000170
   7	5.9700e-01	0.2358	-176.515686	0.000335	3.346045	1.133671	0.000134
   8	6.9650e-01	0.2599	-176.321903	0.000487	4.866974	1.648975	0.000195
   9	7.9600e-01	0.3080	-176.087749	0.000588	5.880927	1.992512	0.000235
  10	8.9550e-01	0.3481	-175.958561	0.000324	3.244649	1.099317	0.000130
  11	9.9500e-01	0.3866	-175.764779	0.000487	4.866974	1.648975	0.000195
  12	1.0945e+00	0.4267	-175.538699	0.000568	5.678136	1.923805	0.000227
  13	1.1940e+00	0.4604	-175.365102	0.000436	4.359997	1.477207	0.000174
  14	1.2935e+00	0.5069	-175.163245	0.000507	5.069764	1.717683	0.000203
  15	1.3930e+00	0.5454	-175.001760	0.000406	4.055812	1.374146	0.000162
  16	1.4925e+00	0.5871	-174.795866	0.000517	5.171160	1.752036	0.000207
  17	1.5920e+00	0.6160	-174.614195	0.000456	4.562788	1.545914	0.000183
  18	1.6915e+00	0.6690	-174.432524	0.000456	4.562788	1.545914	0.000183
  19	1.7910e+00	0.6946	-174.234704	0.000497	4.968369	1.683329	0.000199
  20	1.8905e+00	0.7396	-174.057070	0.000446	4.461393	1.511561	0.000179
  21	1.9900e+00	0.7829	-173.859251	0.000497	4.968369	1.683329	0.000199
  22	2.0895e+00	0.8214	-173.693728	0.000416	4.157207	1.408500	0.000166
  23	2.1890e+00	0.8567	-173.483797	0.000527	5.272555	1.786390	0.000211
  24	2.2885e+00	0.9080	-173.285977	0.000497	4.968369	1.683329	0.000199
  25	2.3880e+00	0.9353	-173.100269	0.000466	4.664183	1.580268	0.000187
  26	2.4875e+00	0.9818	-172.898412	0.000507	5.069764	1.717683	0.000203
  27	2.5870e+00	1.0155	-172.732890	0.000416	4.157207	1.408500	0.000166
  28	2.6865e+00	1.0636	-172.510847	0.000558	5.576741	1.889451	0.000223
  29	2.7860e+00	1.0957	-172.385696	0.000314	3.143254	1.064963	0.000126
  30	2.8855e+00	1.1534	-172.159616	0.000568	5.678136	1.923805	0.000227
  31	2.9850e+00	1.1759	-171.973908	0.000466	4.664183	1.580268	0.000187
  32	3.0845e+00	1.2176	-171.772051	0.000507	5.069764	1.717683	0.000203
  33	3.1840e+00	1.2657	-171.618640	0.000385	3.853021	1.305439	0.000154
  34	3.2835e+00	1.2978	-171.408709	0.000527	5.272555	1.786390	0.000211
  35	3.3830e+00	1.3395	-171.186667	0.000558	5.576741	1.889451	0.000223
  36	3.4825e+00	1.3877	-171.004996	0.000456	4.562788	1.545914	0.000183
  37	3.5820e+00	1.4230	-170.851584	0.000385	3.853021	1.305439	0.000154
  38	3.6815e+00	1.4631	-170.645691	0.000517	5.171160	1.752036	0.000207
  39	3.7810e+00	1.4887	-170.415574	0.000578	5.779532	1.958158	0.000231
  40	3.8805e+00	1.5385	-170.225828	0.000477	4.765579	1.614622	0.000191
  41	3.9800e+00	1.5786	-170.040120	0.000466	4.664183	1.580268	0.000187
  42	4.0795e+00	1.6139	-169.838263	0.000507	5.069764	1.717683	0.000203
  43	4.1790e+00	1.6684	-169.660629	0.000446	4.461393	1.511561	0.000179
  44	4.2785e+00	1.7021	-169.470884	0.000477	4.765579	1.614622	0.000191
  45	4.3780e+00	1.7390	-169.240767	0.000578	5.779532	1.958158	0.000231
  46	4.4775e+00	1.7871	-169.095430	0.000365	3.650230	1.236732	0.000146
  47	4.5770e+00	1.8064	-168.881462	0.000537	5.373950	1.820744	0.000215
  48	4.6765e+00	1.8561	-168.675568	0.000517	5.171160	1.752036	0.000207
  49	4.7760e+00	1.9010	-168.473711	0.000507	5.069764	1.717683	0.000203
  50	4.8755e+00	1.9331	-168.283966	0.000477	4.765579	1.614622	0.000191
  51	4.9750e+00	1.9812	-168.082109	0.000507	5.069764	1.717683	0.000203
  52	5.0745e+00	2.0165	-167.884290	0.000497	4.968369	1.683329	0.000199
  53	5.1740e+00	2.0566	-167.694544	0.000477	4.765579	1.614622	0.000191
  54	5.2735e+00	2.0983	-167.533059	0.000406	4.055812	1.374146	0.000162
  55	5.3730e+00	2.1336	-167.286794	0.000619	6.185113	2.095573	0.000248
  56	5.4725e+00	2.1689	-167.117234	0.000426	4.258602	1.442853	0.000170
  57	5.5720e+00	2.2138	-166.907303	0.000527	5.272555	1.786390	0.000211
  58	5.6715e+00	2.2539	-166.681223	0.000568	5.678136	1.923805	0.000227
  59	5.7710e+00	2.2989	-166.495515	0.000466	4.664183	1.580268	0.000187
  60	5.8705e+00	2.3390	-166.297695	0.000497	4.968369	1.683329	0.000199
  61	5.9700e+00	2.3678	-166.140247	0.000395	3.954416	1.339793	0.000158
  62	6.0695e+00	2.4272	-165.934353	0.000517	5.171160	1.752036	0.000207
  63	6.1690e+00	2.4513	-165.744608	0.000477	4.765579	1.614622	0.000191
  64	6.2685e+00	2.4962	-165.514491	0.000578	5.779532	1.958158	0.000231
  65	6.3680e+00	2.5299	-165.328783	0.000466	4.664183	1.580268	0.000187
  66	6.4675e+00	2.5652	-165.118852	0.000527	5.272555	1.786390	0.000211
  67	6.5670e+00	2.6245	-164.921032	0.000497	4.968369	1.683329	0.000199
  68	6.6665e+00	2.6598	-164.719175	0.000507	5.069764	1.717683	0.000203
  69	6.7660e+00	2.6951	-164.509244	0.000527	5.272555	1.786390	0.000211
  70	6.8655e+00	2.7384	-164.335647	0.000436	4.359997	1.477207	0.000174
  71	6.9650e+00	2.7737	-164.133791	0.000507	5.069764	1.717683	0.000203
  72	7.0645e+00	2.8122	-163.940008	0.000487	4.866974	1.648975	0.000195
  73	7.1640e+00	2.8555	-163.730077	0.000527	5.272555	1.786390	0.000211
  74	7.2635e+00	2.8956	-163.495923	0.000588	5.880927	1.992512	0.000235
  75	7.3630e+00	2.9390	-163.318289	0.000446	4.461393	1.511561	0.000179
  76	7.4625e+00	2.9726	-163.108358	0.000527	5.272555	1.786390	0.000211
  77	7.5620e+00	3.0063	-162.938798	0.000426	4.258602	1.442853	0.000170
  78	7.6615e+00	3.0561	-162.712719	0.000568	5.678136	1.923805	0.000227
  79	7.7610e+00	3.0914	-162.514899	0.000497	4.968369	1.683329	0.000199
  80	7.8605e+00	3.1427	-162.317079	0.000497	4.968369	1.683329	0.000199
  81	7.9600e+00	3.1700	-162.111186	0.000517	5.171160	1.752036	0.000207
  82	8.0595e+00	3.2133	-161.925477	0.000466	4.664183	1.580268	0.000187
  83	8.1590e+00	3.2454	-161.763992	0.000406	4.055812	1.374146	0.000162
  84	8.2585e+00	3.2983	-161.541949	0.000558	5.576741	1.889451	0.000223
  85	8.3580e+00	3.3320	-161.327981	0.000537	5.373950	1.820744	0.000215
  86	8.4575e+00	3.3769	-161.158422	0.000426	4.258602	1.442853	0.000170
  87	8.5570e+00	3.4122	-160.956565	0.000507	5.069764	1.717683	0.000203
  88	8.6565e+00	3.4635	-160.722411	0.000588	5.880927	1.992512	0.000235
  89	8.7560e+00	3.4828	-160.540740	0.000456	4.562788	1.545914	0.000183
  90	8.8555e+00	3.5341	-160.314660	0.000568	5.678136	1.923805	0.000227
  91	8.9550e+00	3.5694	-160.112803	0.000507	5.069764	1.717683	0.000203
  92	9.0545e+00	3.6095	-159.963429	0.000375	3.751626	1.271085	0.000150
  93	9.1540e+00	3.6560	-159.757535	0.000517	5.171160	1.752036	0.000207
  94	9.2535e+00	3.6929	-159.571827	0.000466	4.664183	1.580268	0.000187
  95	9.3530e+00	3.7395	-159.369970	0.000507	5.069764	1.717683	0.000203
  96	9.4525e+00	3.7683	-159.147928	0.000558	5.576741	1.889451	0.000223
  97	9.5520e+00	3.8052	-158.966257	0.000456	4.562788	1.545914	0.000183
  98	9.6515e+00	3.8646	-158.772474	0.000487	4.866974	1.648975	0.000195
  99	9.7510e+00	3.8887	-158.570618	0.000507	5.069764	1.717683	0.000203
 100	9.8505e+00	3.9256	-158.372798	0.000497	4.968369	1.683329	0.000199
 101	9.9500e+00	3.9753	-158.142681	0.000578	5.779532	1.958158	0.000231
 102	1.0050e+01	4.0186	-157.981196	0.000406	4.055812	1.374146	0.000162
 103	1.0149e+01	4.0395	-157.787413	0.000487	4.866974	1.648975	0.000195
 104	1.0248e+01	4.0940	-157.573445	0.000537	5.373950	1.820744	0.000215
 105	1.0348e+01	4.1245	-157.415997	0.000395	3.954416	1.339793	0.000158
 106	1.0447e+01	4.1710	-157.197991	0.000548	5.475346	1.855097	0.000219
 107	1.0547e+01	4.2143	-156.975949	0.000558	5.576741	1.889451	0.000223
 108	1.0646e+01	4.2432	-156.749869	0.000568	5.678136	1.923805	0.000227
 109	1.0746e+01	4.2833	-156.600495	0.000375	3.751626	1.271085	0.000150
 110	1.0845e+01	4.3298	-156.358267	0.000608	6.083717	2.061219	0.000243
 111	1.0945e+01	4.3667	-156.204856	0.000385	3.853021	1.305439	0.000154
 112	1.1044e+01	4.4165	-156.011073	0.000487	4.866974	1.648975	0.000195
 113	1.1144e+01	4.4517	-155.817291	0.000487	4.866974	1.648975	0.000195
 114	1.1243e+01	4.4806	-155.579100	0.000598	5.982322	2.026866	0.000239
 115	1.1343e+01	4.5320	-155.373206	0.000517	5.171160	1.752036	0.000207
 116	1.1443e+01	4.5656	-155.191535	0.000456	4.562788	1.545914	0.000183
 117	1.1542e+01	4.6025	-155.017938	0.000436	4.359997	1.477207	0.000174
 118	1.1642e+01	4.6539	-154.812044	0.000517	5.171160	1.752036	0.000207
 119	1.1741e+01	4.6860	-154.581927	0.000578	5.779532	1.958158	0.000231
 120	1.1841e+01	4.7245	-154.376033	0.000517	5.171160	1.752036	0.000207
 121	1.1940e+01	4.7662	-154.238771	0.000345	3.447440	1.168024	0.000138
 122	1.2040e+01	4.8111	-154.020766	0.000548	5.475346	1.855097	0.000219
 123	1.2139e+01	4.8464	-153.843132	0.000446	4.461393	1.511561	0.000179
 124	1.2239e+01	4.8897	-153.613015	0.000578	5.779532	1.958158	0.000231
 125	1.2338e+01	4.9266	-153.435381	0.000446	4.461393	1.511561	0.000179
 126	1.2438e+01	4.9667	-153.217376	0.000548	5.475346	1.855097	0.000219
 127	1.2537e+01	5.0004	-153.047816	0.000426	4.258602	1.442853	0.000170
 128	1.2636e+01	5.0485	-152.825773	0.000558	5.576741	1.889451	0.000223
 129	1.2736e+01	5.0854	-152.676399	0.000375	3.751626	1.271085	0.000150
 130	1.2835e+01	5.1191	-152.418023	0.000649	6.489299	2.198634	0.000260
 131	1.2935e+01	5.1640	-152.288834	0.000324	3.244649	1.099317	0.000130
 132	1.3034e+01	5.2057	-152.066792	0.000558	5.576741	1.889451	0.000223
 133	1.3134e+01	5.2474	-151.868972	0.000497	4.968369	1.683329	0.000199
 134	1.3233e+01	5.2795	-151.622707	0.000619	6.185113	2.095573	0.000248
 135	1.3333e+01	5.3261	-151.465259	0.000395	3.954416	1.339793	0.000158
 136	1.3432e+01	5.3646	-151.303773	0.000406	4.055812	1.374146	0.000162
 137	1.3532e+01	5.4095	-151.073656	0.000578	5.779532	1.958158	0.000231
 138	1.3632e+01	5.4432	-150.875837	0.000497	4.968369	1.683329	0.000199
 139	1.3731e+01	5.4817	-150.702240	0.000436	4.359997	1.477207	0.000174
 140	1.3831e+01	5.5250	-150.508457	0.000487	4.866974	1.648975	0.000195
 141	1.3930e+01	5.5683	-150.306601	0.000507	5.069764	1.717683	0.000203
 142	1.4030e+01	5.6004	-150.116855	0.000477	4.765579	1.614622	0.000191
 143	1.4129e+01	5.6469	-149.923073	0.000487	4.866974	1.648975	0.000195
 144	1.4229e+01	5.6854	-149.753513	0.000426	4.258602	1.442853	0.000170
 145	1.4328e+01	5.7175	-149.515322	0.000598	5.982322	2.026866	0.000239
 146	1.4428e+01	5.7608	-149.374022	0.000355	3.548835	1.202378	0.000142
 147	1.4527e+01	5.7961	-149.196388	0.000446	4.461393	1.511561	0.000179
 148	1.4627e+01	5.8490	-148.986457	0.000527	5.272555	1.786390	0.000211
 149	1.4726e+01	5.8827	-148.780563	0.000517	5.171160	1.752036	0.000207
 150	1.4825e+01	5.9276	-148.570632	0.000527	5.272555	1.786390	0.000211
 151	1.4925e+01	5.9629	-148.388961	0.000456	4.562788	1.545914	0.000183
 152	1.5024e+01	6.0111	-148.235550	0.000385	3.853021	1.305439	0.000154
 153	1.5124e+01	6.0431	-147.997359	0.000598	5.982322	2.026866	0.000239
 154	1.5223e+01	6.0752	-147.843948	0.000385	3.853021	1.305439	0.000154
 155	1.5323e+01	6.1234	-147.642091	0.000507	5.069764	1.717683	0.000203
 156	1.5422e+01	6.1490	-147.464457	0.000446	4.461393	1.511561	0.000179
 157	1.5522e+01	6.2052	-147.266637	0.000497	4.968369	1.683329	0.000199
 158	1.5621e+01	6.2533	-147.064781	0.000507	5.069764	1.717683	0.000203
 159	1.5721e+01	6.2806	-146.903295	0.000406	4.055812	1.374146	0.000162
 160	1.5820e+01	6.3111	-146.693364	0.000527	5.272555	1.786390	0.000211
 161	1.5920e+01	6.3560	-146.479396	0.000537	5.373950	1.820744	0.000215
 162	1.6020e+01	6.4041	-146.313873	0.000416	4.157207	1.408500	0.000166
 163	1.6119e+01	6.4410	-146.132202	0.000456	4.562788	1.545914	0.000183
 164	1.6218e+01	6.4779	-145.934383	0.000497	4.968369	1.683329	0.000199
 165	1.6318e+01	6.5228	-145.708303	0.000568	5.678136	1.923805	0.000227
 166	1.6418e+01	6.5693	-145.554892	0.000385	3.853021	1.305439	0.000154
 167	1.6517e+01	6.6030	-145.385332	0.000426	4.258602	1.442853	0.000170
 168	1.6616e+01	6.6367	-145.143104	0.000608	6.083717	2.061219	0.000243
 169	1.6716e+01	6.6704	-144.957396	0.000466	4.664183	1.580268	0.000187
 170	1.6816e+01	6.7233	-144.787836	0.000426	4.258602	1.442853	0.000170
 171	1.6915e+01	6.7570	-144.581942	0.000517	5.171160	1.752036	0.000207
 172	1.7015e+01	6.7891	-144.408345	0.000436	4.359997	1.477207	0.000174
 173	1.7114e+01	6.8324	-144.226674	0.000456	4.562788	1.545914	0.000183
 174	1.7213e+01	6.8757	-144.008669	0.000548	5.475346	1.855097	0.000219
 175	1.7313e+01	6.9175	-143.798738	0.000527	5.272555	1.786390	0.000211
 176	1.7413e+01	6.9640	-143.617067	0.000456	4.562788	1.545914	0.000183
 177	1.7512e+01	7.0009	-143.431359	0.000466	4.664183	1.580268	0.000187
 178	1.7611e+01	7.0297	-143.205279	0.000568	5.678136	1.923805	0.000227
 179	1.7711e+01	7.0763	-143.019571	0.000466	4.664183	1.580268	0.000187
 180	1.7811e+01	7.1228	-142.821751	0.000497	4.968369	1.683329	0.000199
 181	1.7910e+01	7.1613	-142.664303	0.000395	3.954416	1.339793	0.000158
 182	1.8009e+01	7.1998	-142.482632	0.000456	4.562788	1.545914	0.000183
 183	1.8109e+01	7.2367	-142.264626	0.000548	5.475346	1.855097	0.000219
 184	1.8209e+01	7.2768	-142.086992	0.000446	4.461393	1.511561	0.000179
 185	1.8308e+01	7.3201	-141.873024	0.000537	5.373950	1.820744	0.000215
 186	1.8407e+01	7.3554	-141.667130	0.000517	5.171160	1.752036	0.000207
 187	1.8507e+01	7.4019	-141.481422	0.000466	4.664183	1.580268	0.000187
 188	1.8607e+01	7.4404	-141.267454	0.000537	5.373950	1.820744	0.000215
 189	1.8706e+01	7.4725	-141.105968	0.000406	4.055812	1.374146	0.000162
 190	1.8805e+01	7.5190	-140.904112	0.000507	5.069764	1.717683	0.000203
 191	1.8905e+01	7.5575	-140.686106	0.000548	5.475346	1.855097	0.000219
 192	1.9005e+01	7.5993	-140.516546	0.000426	4.258602	1.442853	0.000170
 193	1.9104e+01	7.6345	-140.262207	0.000639	6.387903	2.164280	0.000256
 194	1.9203e+01	7.6763	-140.084573	0.000446	4.461393	1.511561	0.000179
 195	1.9303e+01	7.7132	-139.902902	0.000456	4.562788	1.545914	0.000183
 196	1.9402e+01	7.7533	-139.709119	0.000487	4.866974	1.648975	0.000195
 197	1.9502e+01	7.7998	-139.503225	0.000517	5.171160	1.752036	0.000207
 198	1.9602e+01	7.8335	-139.285220	0.000548	5.475346	1.855097	0.000219
 199	1.9701e+01	7.8736	-139.119698	0.000416	4.157207	1.408500	0.000166
 200	1.9800e+01	7.9153	-138.929952	0.000477	4.765579	1.614622	0.000191
 201	1.9900e+01	7.9538	-138.659464	0.000679	6.793484	2.301695	0.000272
 202	2.0000e+01	7.9923	-138.502016	0.000395	3.954416	1.339793	0.000158
 203	2.0099e+01	8.0308	-138.296122	0.000517	5.171160	1.752036	0.000207
 204	2.0198e+01	8.0693	-138.057931	0.000598	5.982322	2.026866	0.000239
 205	2.0298e+01	8.1078	-137.868185	0.000477	4.765579	1.614622	0.000191
 206	2.0398e+01	8.1591	-137.654217	0.000537	5.373950	1.820744	0.000215
 207	2.0497e+01	8.2057	-137.436212	0.000548	5.475346	1.855097	0.000219
 208	2.0596e+01	8.2329	-137.282801	0.000385	3.853021	1.305439	0.000154
 209	2.0696e+01	8.2666	-137.036535	0.000619	6.185113	2.095573	0.000248
 210	2.0796e+01	8.3163	-136.790270	0.000619	6.185113	2.095573	0.000248
 211	2.0895e+01	8.3468	-136.592451	0.000497	4.968369	1.683329	0.000199
 212	2.0994e+01	8.3837	-136.370408	0.000558	5.576741	1.889451	0.000223
 213	2.1094e+01	8.4318	-136.124143	0.000619	6.185113	2.095573	0.000248
 214	2.1194e+01	8.4703	-135.922286	0.000507	5.069764	1.717683	0.000203
 215	2.1293e+01	8.5153	-135.728504	0.000487	4.866974	1.648975	0.000195
 216	2.1392e+01	8.5554	-135.453978	0.000689	6.894880	2.336048	0.000276
 217	2.1492e+01	8.5923	-135.288456	0.000416	4.157207	1.408500	0.000166
 218	2.1591e+01	8.6372	-135.050265	0.000598	5.982322	2.026866	0.000239
 219	2.1691e+01	8.6693	-134.812074	0.000598	5.982322	2.026866	0.000239
 220	2.1791e+01	8.7094	-134.585994	0.000568	5.678136	1.923805	0.000227
 221	2.1890e+01	8.7447	-134.331655	0.000639	6.387903	2.164280	0.000256
 222	2.1989e+01	8.7880	-134.145946	0.000466	4.664183	1.580268	0.000187
 223	2.2089e+01	8.8329	-133.887570	0.000649	6.489299	2.198634	0.000260
 224	2.2189e+01	8.8746	-133.697824	0.000477	4.765579	1.614622	0.000191
 225	2.2288e+01	8.9115	-133.415225	0.000710	7.097670	2.404756	0.000284
 226	2.2387e+01	8.9484	-133.217405	0.000497	4.968369	1.683329	0.000199
 227	2.2487e+01	8.9965	-132.950954	0.000669	6.692089	2.267341	0.000268
 228	2.2587e+01	9.0318	-132.736986	0.000537	5.373950	1.820744	0.000215
 229	2.2686e+01	9.0735	-132.490721	0.000619	6.185113	2.095573	0.000248
 230	2.2785e+01	9.1088	-132.252530	0.000598	5.982322	2.026866	0.000239
 231	2.2885e+01	9.1538	-132.002227	0.000629	6.286508	2.129927	0.000252
 232	2.2985e+01	9.1842	-131.780185	0.000558	5.576741	1.889451	0.000223
 233	2.3084e+01	9.2308	-131.493548	0.000720	7.199066	2.439109	0.000288
 234	2.3183e+01	9.2741	-131.247283	0.000619	6.185113	2.095573	0.000248
 235	2.3283e+01	9.3206	-131.013129	0.000588	5.880927	1.992512	0.000235
 236	2.3383e+01	9.3511	-130.778975	0.000588	5.880927	1.992512	0.000235
 237	2.3482e+01	9.3848	-130.492338	0.000720	7.199066	2.439109	0.000288
 238	2.3581e+01	9.4233	-130.278370	0.000537	5.373950	1.820744	0.000215
 239	2.3681e+01	9.4778	-130.048254	0.000578	5.779532	1.958158	0.000231
 240	2.3780e+01	9.5035	-129.769691	0.000700	6.996275	2.370402	0.000280
 241	2.3880e+01	9.5484	-129.531500	0.000598	5.982322	2.026866	0.000239
 242	2.3980e+01	9.5821	-129.236789	0.000740	7.401856	2.507817	0.000296
 243	2.4079e+01	9.6302	-128.962264	0.000689	6.894880	2.336048	0.000276
 244	2.4178e+01	9.6703	-128.736184	0.000568	5.678136	1.923805	0.000227
 245	2.4278e+01	9.7024	-128.445511	0.000730	7.300461	2.473463	0.000292
 246	2.4378e+01	9.7505	-128.215394	0.000578	5.779532	1.958158	0.000231
 247	2.4477e+01	9.7874	-127.920683	0.000740	7.401856	2.507817	0.000296
 248	2.4576e+01	9.8227	-127.670381	0.000629	6.286508	2.129927	0.000252
 249	2.4676e+01	9.8692	-127.424115	0.000619	6.185113	2.095573	0.000248
 250	2.4776e+01	9.9061	-127.129404	0.000740	7.401856	2.507817	0.000296
 251	2.4875e+01	9.9511	-126.854879	0.000689	6.894880	2.336048	0.000276
 252	2.4974e+01	9.9815	-126.548057	0.000771	7.706042	2.610878	0.000308
 253	2.5074e+01	10.0313	-126.249309	0.000750	7.503251	2.542170	0.000300
 254	2.5174e+01	10.0650	-125.982858	0.000669	6.692089	2.267341	0.000268
 255	2.5273e+01	10.1131	-125.692184	0.000730	7.300461	2.473463	0.000292
 256	2.5372e+01	10.1452	-125.437845	0.000639	6.387903	2.164280	0.000256
 257	2.5472e+01	10.1917	-125.135059	0.000760	7.604647	2.576524	0.000304
 258	2.5572e+01	10.2174	-124.848423	0.000720	7.199066	2.439109	0.000288
 259	2.5671e+01	10.2687	-124.577935	0.000679	6.793484	2.301695	0.000272
 260	2.5770e+01	10.3072	-124.242852	0.000842	8.415809	2.851353	0.000337
 261	2.5870e+01	10.3457	-123.972364	0.000679	6.793484	2.301695	0.000272
 262	2.5970e+01	10.3890	-123.653431	0.000801	8.010228	2.713939	0.000321
 263	2.6069e+01	10.4243	-123.399091	0.000639	6.387903	2.164280	0.000256
 264	2.6169e+01	10.4628	-123.092269	0.000771	7.706042	2.610878	0.000308
 265	2.6268e+01	10.5077	-122.805632	0.000720	7.199066	2.439109	0.000288
 266	2.6367e+01	10.5398	-122.490735	0.000791	7.908833	2.679585	0.000316
 267	2.6467e+01	10.5767	-122.224284	0.000669	6.692089	2.267341	0.000268
 268	2.6567e+01	10.6264	-121.901314	0.000811	8.111623	2.748292	0.000325
 269	2.6666e+01	10.6585	-121.578343	0.000811	8.111623	2.748292	0.000325
 270	2.6765e+01	10.7083	-121.299780	0.000700	6.996275	2.370402	0.000280
 271	2.6865e+01	10.7355	-121.041404	0.000649	6.489299	2.198634	0.000260
 272	2.6965e+01	10.7917	-120.706321	0.000842	8.415809	2.851353	0.000337
 273	2.7064e+01	10.8254	-120.347016	0.000902	9.024181	3.057475	0.000361
 274	2.7163e+01	10.8574	-120.028083	0.000801	8.010228	2.713939	0.000321
 275	2.7263e+01	10.9040	-119.717223	0.000781	7.807437	2.645231	0.000312
 276	2.7363e+01	10.9505	-119.402327	0.000791	7.908833	2.679585	0.000316
 277	2.7462e+01	10.9794	-119.071281	0.000831	8.314414	2.817000	0.000333
 278	2.7561e+01	11.0323	-118.804830	0.000669	6.692089	2.267341	0.000268
 279	2.7661e+01	11.0676	-118.453600	0.000882	8.821390	2.988768	0.000353
 280	2.7761e+01	11.1109	-118.130629	0.000811	8.111623	2.748292	0.000325
 281	2.7860e+01	11.1494	-117.779398	0.000882	8.821390	2.988768	0.000353
 282	2.7959e+01	11.1815	-117.452390	0.000821	8.213018	2.782646	0.000329
 283	2.8059e+01	11.2184	-117.181902	0.000679	6.793484	2.301695	0.000272
 284	2.8159e+01	11.2585	-116.806448	0.000943	9.429762	3.194890	0.000377
 285	2.8258e+01	11.3002	-116.422920	0.000963	9.632553	3.263597	0.000385
 286	2.8358e+01	11.3435	-116.116098	0.000771	7.706042	2.610878	0.000308
 287	2.8457e+01	11.3884	-115.805239	0.000781	7.807437	2.645231	0.000312
 288	2.8556e+01	11.4157	-115.458045	0.000872	8.719995	2.954414	0.000349
 289	2.8656e+01	11.4590	-115.143148	0.000791	7.908833	2.679585	0.000316
 290	2.8756e+01	11.4991	-114.759620	0.000963	9.632553	3.263597	0.000385
 291	2.8855e+01	11.5392	-114.440687	0.000801	8.010228	2.713939	0.000321
 292	2.8954e+01	11.5858	-114.117716	0.000811	8.111623	2.748292	0.000325
 293	2.9054e+01	11.6179	-113.774559	0.000862	8.618600	2.920061	0.000345
 294	2.9154e+01	11.6564	-113.435440	0.000852	8.517204	2.885707	0.000341
 295	2.9253e+01	11.6965	-113.100358	0.000842	8.415809	2.851353	0.000337
 296	2.9352e+01	11.7462	-112.745090	0.000892	8.922785	3.023122	0.000357
 297	2.9452e+01	11.7815	-112.349450	0.000994	9.936738	3.366658	0.000398
 298	2.9552e+01	11.8216	-112.018405	0.000831	8.314414	2.817000	0.000333
 299	2.9651e+01	11.8649	-111.651026	0.000923	9.226971	3.126183	0.000369
 300	2.9750e+01	11.9050	-111.267498	0.000963	9.632553	3.263597	0.000385
 301	2.9850e+01	11.9451	-110.908193	0.000902	9.024181	3.057475	0.000361
 302	2.9950e+01	11.9852	-110.556962	0.000882	8.821390	2.988768	0.000353
 303	3.0049e+01	12.0157	-110.213806	0.000862	8.618600	2.920061	0.000345
 304	3.0148e+01	12.0558	-109.842389	0.000933	9.328367	3.160536	0.000373
 305	3.0248e+01	12.0943	-109.458861	0.000963	9.632553	3.263597	0.000385
 306	3.0348e+01	12.1392	-109.059185	0.001004	10.038134	3.401012	0.000402
 307	3.0447e+01	12.1697	-108.659508	0.001004	10.038134	3.401012	0.000402
 308	3.0547e+01	12.2194	-108.312315	0.000872	8.719995	2.954414	0.000349
 309	3.0646e+01	12.2531	-107.957047	0.000892	8.922785	3.023122	0.000357
 310	3.0745e+01	12.2964	-107.585630	0.000933	9.328367	3.160536	0.000373
 311	3.0845e+01	12.3317	-107.206140	0.000953	9.531157	3.229243	0.000381
 312	3.0945e+01	12.3863	-106.806463	0.001004	10.038134	3.401012	0.000402
 313	3.1044e+01	12.4168	-106.435047	0.000933	9.328367	3.160536	0.000373
 314	3.1143e+01	12.4569	-106.059593	0.000943	9.429762	3.194890	0.000377
 315	3.1243e+01	12.4954	-105.647805	0.001034	10.342320	3.504073	0.000414
 316	3.1343e+01	12.5387	-105.252166	0.000994	9.936738	3.366658	0.000398
 317	3.1442e+01	12.5820	-104.872675	0.000953	9.531157	3.229243	0.000381
 318	3.1541e+01	12.6109	-104.464924	0.001024	10.240924	3.469719	0.000410
 319	3.1641e+01	12.6606	-104.081396	0.000963	9.632553	3.263597	0.000385
 320	3.1741e+01	12.6991	-103.681720	0.001004	10.038134	3.401012	0.000402
 321	3.1840e+01	12.7296	-103.269932	0.001034	10.342320	3.504073	0.000414
 322	3.1939e+01	12.7809	-102.854107	0.001044	10.443715	3.538426	0.000418
 323	3.2039e+01	12.8098	-102.486728	0.000923	9.226971	3.126183	0.000369
 324	3.2139e+01	12.8531	-102.091089	0.000994	9.936738	3.366658	0.000398
 325	3.2238e+01	12.8916	-101.655078	0.001095	10.950691	3.710195	0.000438
 326	3.2337e+01	12.9413	-101.251364	0.001014	10.139529	3.435365	0.000406
 327	3.2437e+01	12.9734	-100.823428	0.001075	10.747901	3.641487	0.000430
 328	3.2536e+01	13.0135	-100.439900	0.000963	9.632553	3.263597	0.000385
 329	3.2636e+01	13.0504	-99.983704	0.001146	11.457668	3.881963	0.000458
 330	3.2736e+01	13.0937	-99.527507	0.001146	11.457668	3.881963	0.000458
 331	3.2835e+01	13.1322	-99.099571	0.001075	10.747901	3.641487	0.000430
 332	3.2934e+01	13.1708	-98.683746	0.001044	10.443715	3.538426	0.000418
 333	3.3034e+01	13.2125	-98.195253	0.001227	12.268830	4.156792	0.000491
 334	3.3133e+01	13.2590	-97.763279	0.001085	10.849296	3.675841	0.000434
 335	3.3233e+01	13.2927	-97.331306	0.001085	10.849296	3.675841	0.000434
 336	3.3333e+01	13.3280	-96.899332	0.001085	10.849296	3.675841	0.000434
 337	3.3432e+01	13.3793	-96.459284	0.001105	11.052087	3.744548	0.000442
 338	3.3532e+01	13.4114	-95.986939	0.001186	11.863249	4.019378	0.000475
 339	3.3631e+01	13.4531	-95.486334	0.001257	12.573016	4.259853	0.000503
 340	3.3730e+01	13.4900	-95.062435	0.001065	10.646505	3.607134	0.000426
 341	3.3830e+01	13.5333	-94.598165	0.001166	11.660458	3.950670	0.000467
 342	3.3929e+01	13.5670	-94.125820	0.001186	11.863249	4.019378	0.000475
 343	3.4029e+01	13.6071	-93.705958	0.001055	10.545110	3.572780	0.000422
 344	3.4129e+01	13.6504	-93.233613	0.001186	11.863249	4.019378	0.000475
 345	3.4228e+01	13.6873	-92.773379	0.001156	11.559063	3.916317	0.000463
 346	3.4328e+01	13.7306	-92.296997	0.001196	11.964644	4.053731	0.000479
 347	3.4427e+01	13.7707	-91.816578	0.001207	12.066039	4.088085	0.000483
 348	3.4526e+01	13.8076	-91.364419	0.001136	11.356272	3.847609	0.000454
 349	3.4626e+01	13.8461	-90.904185	0.001156	11.559063	3.916317	0.000463
 350	3.4725e+01	13.8927	-90.395506	0.001278	12.775806	4.328560	0.000511
 351	3.4825e+01	13.9312	-89.931236	0.001166	11.660458	3.950670	0.000467
 352	3.4925e+01	13.9745	-89.466965	0.001166	11.660458	3.950670	0.000467
 353	3.5024e+01	14.0146	-88.930026	0.001349	13.485574	4.569036	0.000540
 354	3.5123e+01	14.0451	-88.457681	0.001186	11.863249	4.019378	0.000475
 355	3.5223e+01	14.0852	-87.969188	0.001227	12.268830	4.156792	0.000491
 356	3.5322e+01	14.1317	-87.456471	0.001288	12.877202	4.362914	0.000515
 357	3.5422e+01	14.1702	-86.959904	0.001247	12.471621	4.225499	0.000499
 358	3.5522e+01	14.2039	-86.479485	0.001207	12.066039	4.088085	0.000483
 359	3.5621e+01	14.2440	-85.962731	0.001298	12.978597	4.397268	0.000519
 360	3.5721e+01	14.2889	-85.445978	0.001298	12.978597	4.397268	0.000519
 361	3.5820e+01	14.3242	-84.965559	0.001207	12.066039	4.088085	0.000483
 362	3.5919e+01	14.3643	-84.416508	0.001379	13.789759	4.672097	0.000552
 363	3.6019e+01	14.4156	-83.883606	0.001338	13.384178	4.534682	0.000536
 364	3.6118e+01	14.4429	-83.374927	0.001278	12.775806	4.328560	0.000511
 365	3.6218e+01	14.4830	-82.862211	0.001288	12.877202	4.362914	0.000515
 366	3.6318e+01	14.5343	-82.329309	0.001338	13.384178	4.534682	0.000536
 367	3.6417e+01	14.5648	-81.824667	0.001267	12.674411	4.294207	0.000507
 368	3.6517e+01	14.6065	-81.275617	0.001379	13.789759	4.672097	0.000552
 369	3.6616e+01	14.6434	-80.750789	0.001318	13.181388	4.465975	0.000527
 370	3.6715e+01	14.6851	-80.173479	0.001450	14.499526	4.912573	0.000580
 371	3.6815e+01	14.7269	-79.640577	0.001338	13.384178	4.534682	0.000536
 372	3.6914e+01	14.7638	-79.107675	0.001338	13.384178	4.534682	0.000536
 373	3.7014e+01	14.8071	-78.554587	0.001389	13.891155	4.706451	0.000556
 374	3.7114e+01	14.8472	-78.013611	0.001359	13.586969	4.603390	0.000544
 375	3.7213e+01	14.8937	-77.492820	0.001308	13.079992	4.431621	0.000523
 376	3.7313e+01	14.9290	-76.907436	0.001470	14.702317	4.981280	0.000588
 377	3.7412e+01	14.9611	-76.346274	0.001409	14.093945	4.775158	0.000564
 378	3.7511e+01	14.9996	-75.756852	0.001480	14.803712	5.015633	0.000592
 379	3.7611e+01	15.0509	-75.175505	0.001460	14.600922	4.946926	0.000584
 380	3.7711e+01	15.0878	-74.622417	0.001389	13.891155	4.706451	0.000556
 381	3.7810e+01	15.1279	-74.000698	0.001561	15.614875	5.290463	0.000625
 382	3.7910e+01	15.1632	-73.403202	0.001501	15.006503	5.084341	0.000600
 383	3.8009e+01	15.2049	-72.838003	0.001420	14.195341	4.809512	0.000568
 384	3.8108e+01	15.2370	-72.256655	0.001460	14.600922	4.946926	0.000584
 385	3.8208e+01	15.2851	-71.598602	0.001653	16.527432	5.599646	0.000661
 386	3.8307e+01	15.3220	-71.049552	0.001379	13.789759	4.672097	0.000552
 387	3.8407e+01	15.3621	-70.419759	0.001582	15.817665	5.359170	0.000633
 388	3.8507e+01	15.4022	-69.789966	0.001582	15.817665	5.359170	0.000633
 389	3.8606e+01	15.4439	-69.156135	0.001592	15.919060	5.393524	0.000637
 390	3.8706e+01	15.4905	-68.542491	0.001541	15.412084	5.221755	0.000617
 391	3.8805e+01	15.5177	-67.949032	0.001491	14.905108	5.049987	0.000596
 392	3.8904e+01	15.5659	-67.351536	0.001501	15.006503	5.084341	0.000600
 393	3.9004e+01	15.5980	-66.681371	0.001683	16.831618	5.702707	0.000674
 394	3.9103e+01	15.6525	-66.051578	0.001582	15.817665	5.359170	0.000633
 395	3.9203e+01	15.6766	-65.409673	0.001612	16.121851	5.462231	0.000645
 396	3.9303e+01	15.7295	-64.804103	0.001521	15.209293	5.153048	0.000609
 397	3.9402e+01	15.7648	-64.129901	0.001693	16.933013	5.737060	0.000678
 398	3.9502e+01	15.8001	-63.475885	0.001643	16.426037	5.565292	0.000657
 399	3.9601e+01	15.8450	-62.817832	0.001653	16.527432	5.599646	0.000661
 400	3.9700e+01	15.8723	-62.147668	0.001683	16.831618	5.702707	0.000674
 401	3.9800e+01	15.9252	-61.509800	0.001602	16.020456	5.427877	0.000641
 402	3.9900e+01	15.9637	-60.892118	0.001551	15.513479	5.256109	0.000621
 403	3.9999e+01	16.0038	-60.254251	0.001602	16.020456	5.427877	0.000641
 404	4.0099e+01	16.0359	-59.559864	0.001744	17.439990	5.908829	0.000698
 405	4.0198e+01	16.0872	-58.893736	0.001673	16.730223	5.668353	0.000669
 406	4.0297e+01	16.1097	-58.183200	0.001785	17.845571	6.046243	0.000714
 407	4.0397e+01	16.1642	-57.488813	0.001744	17.439990	5.908829	0.000698
 408	4.0496e+01	16.1963	-56.786351	0.001764	17.642780	5.977536	0.000706
 409	4.0596e+01	16.2413	-56.096001	0.001734	17.338595	5.874475	0.000694
 410	4.0696e+01	16.2814	-55.357205	0.001856	18.555338	6.286719	0.000743
 411	4.0795e+01	16.3183	-54.666855	0.001734	17.338595	5.874475	0.000694
 412	4.0895e+01	16.3664	-53.960356	0.001774	17.744176	6.011889	0.000710
 413	4.0994e+01	16.3985	-53.294229	0.001673	16.730223	5.668353	0.000669
 414	4.1093e+01	16.4466	-52.571582	0.001815	18.149757	6.149304	0.000726
 415	4.1193e+01	16.4819	-51.877194	0.001744	17.439990	5.908829	0.000698
 416	4.1292e+01	16.5252	-51.146473	0.001835	18.352547	6.218011	0.000734
 417	4.1392e+01	16.5621	-50.435937	0.001785	17.845571	6.046243	0.000714
 418	4.1492e+01	16.5990	-49.717327	0.001805	18.048362	6.114950	0.000722
 419	4.1591e+01	16.6519	-48.986605	0.001835	18.352547	6.218011	0.000734
 420	4.1691e+01	16.6872	-48.276069	0.001785	17.845571	6.046243	0.000714
 421	4.1790e+01	16.7161	-47.561496	0.001795	17.946966	6.080597	0.000718
 422	4.1889e+01	16.7626	-46.867109	0.001744	17.439990	5.908829	0.000698
 423	4.1989e+01	16.7963	-46.047570	0.002058	20.583244	6.973792	0.000824
 424	4.2089e+01	16.8300	-45.349146	0.001754	17.541385	5.943182	0.000702
 425	4.2188e+01	16.8846	-44.586127	0.001916	19.163710	6.492841	0.000767
 426	4.2288e+01	16.9134	-43.798886	0.001977	19.772081	6.698963	0.000791
 427	4.2387e+01	16.9632	-43.076238	0.001815	18.149757	6.149304	0.000726
 428	4.2486e+01	17.0001	-42.313220	0.001916	19.163710	6.492841	0.000767
 429	4.2586e+01	17.0353	-41.465421	0.002129	21.293011	7.214267	0.000852
 430	4.2685e+01	17.0706	-40.670105	0.001997	19.974872	6.767670	0.000799
 431	4.2785e+01	17.1172	-39.858641	0.002038	20.380453	6.905084	0.000816
 432	4.2885e+01	17.1573	-39.043140	0.002048	20.481849	6.939438	0.000820
 433	4.2984e+01	17.1974	-38.215527	0.002079	20.786034	7.042499	0.000832
 434	4.3084e+01	17.2391	-37.420211	0.001997	19.974872	6.767670	0.000799
 435	4.3183e+01	17.2776	-36.616821	0.002018	20.177663	6.836377	0.000807
 436	4.3282e+01	17.3177	-35.805357	0.002038	20.380453	6.905084	0.000816
 437	4.3382e+01	17.3498	-34.981781	0.002068	20.684639	7.008145	0.000828
 438	4.3481e+01	17.3931	-34.218763	0.001916	19.163710	6.492841	0.000767
 439	4.3581e+01	17.4444	-33.383075	0.002099	20.988825	7.111206	0.000840
 440	4.3681e+01	17.4749	-32.595834	0.001977	19.772081	6.698963	0.000791
 441	4.3780e+01	17.5198	-31.788407	0.002028	20.279058	6.870731	0.000811
 442	4.3880e+01	17.5503	-30.980980	0.002028	20.279058	6.870731	0.000811
 443	4.3979e+01	17.5856	-30.173553	0.002028	20.279058	6.870731	0.000811
 444	4.4078e+01	17.6353	-29.337865	0.002099	20.988825	7.111206	0.000840
 445	4.4178e+01	17.6770	-28.506215	0.002089	20.887430	7.076853	0.000836
 446	4.4278e+01	17.7204	-27.759345	0.001876	18.758129	6.355426	0.000751
 447	4.4377e+01	17.7492	-26.895398	0.002170	21.698592	7.351682	0.000868
 448	4.4477e+01	17.7990	-26.063748	0.002089	20.887430	7.076853	0.000836
 449	4.4576e+01	17.8343	-25.219987	0.002119	21.191616	7.179914	0.000848
 450	4.4675e+01	17.8760	-24.416597	0.002018	20.177663	6.836377	0.000807
 451	4.4775e+01	17.9193	-23.556687	0.002160	21.597197	7.317328	0.000864
 452	4.4874e+01	17.9514	-22.700814	0.002150	21.495801	7.282975	0.000860
 453	4.4974e+01	17.9738	-21.832830	0.002180	21.799987	7.386036	0.000872
 454	4.5074e+01	18.0380	-21.017329	0.002048	20.481849	6.939438	0.000820
 455	4.5173e+01	18.0749	-20.133196	0.002221	22.205568	7.523450	0.000889
 456	4.5273e+01	18.1230	-19.305583	0.002079	20.786034	7.042499	0.000832
 457	4.5372e+01	18.1599	-18.437599	0.002180	21.799987	7.386036	0.000872
 458	4.5471e+01	18.1984	-17.565578	0.002190	21.901383	7.420389	0.000876
 459	4.5571e+01	18.2289	-16.709705	0.002150	21.495801	7.282975	0.000860
 460	4.5670e+01	18.2722	-15.789238	0.002312	23.118126	7.832633	0.000925
 461	4.5770e+01	18.3139	-14.913179	0.002200	22.002778	7.454743	0.000880
 462	4.5870e+01	18.3508	-13.920044	0.002494	24.943241	8.450999	0.000998
 463	4.5969e+01	18.3957	-12.939020	0.002464	24.639055	8.347938	0.000986
 464	4.6069e+01	18.4358	-11.937810	0.002515	25.146032	8.519706	0.001006
 465	4.6168e+01	18.4727	-10.900266	0.002606	26.058589	8.828889	0.001043
 466	4.6267e+01	18.5128	-9.915205	0.002474	24.740451	8.382292	0.000990
 467	4.6367e+01	18.5497	-8.877661	0.002606	26.058589	8.828889	0.001043
 468	4.6467e+01	18.5882	-7.900675	0.002454	24.537660	8.313584	0.000982
 469	4.6566e+01	18.6235	-6.907539	0.002494	24.943241	8.450999	0.000998
 470	4.6666e+01	18.6749	-5.962849	0.002373	23.726498	8.038755	0.000949
 471	4.6765e+01	18.7086	-4.985863	0.002454	24.537660	8.313584	0.000982
 472	4.6864e+01	18.7487	-3.960430	0.002575	25.754404	8.725828	0.001031
 473	4.6964e+01	18.7856	-2.943072	0.002555	25.551613	8.657121	0.001022
 474	4.7063e+01	18.8353	-1.966085	0.002454	24.537660	8.313584	0.000982
 475	4.7163e+01	18.8754	-0.920467	0.002626	26.261380	8.897596	0.001051
 476	4.7263e+01	18.9171	0.068631	0.002484	24.841846	8.416645	0.000994
 477	4.7362e+01	18.9556	1.094064	0.002575	25.754404	8.725828	0.001031
 478	4.7462e+01	18.9909	2.119496	0.002575	25.754404	8.725828	0.001031
 479	4.7561e+01	19.0294	3.148966	0.002586	25.855799	8.760182	0.001035
 480	4.7660e+01	19.0631	4.097693	0.002383	23.827893	8.073109	0.000953
 481	4.7760e+01	19.1016	5.082754	0.002474	24.740451	8.382292	0.000990
 482	4.7859e+01	19.1497	6.100112	0.002555	25.551613	8.657121	0.001022
 483	4.7959e+01	19.1914	7.169953	0.002687	26.869752	9.103718	0.001075
 484	4.8059e+01	19.2315	8.227683	0.002657	26.565566	9.000657	0.001063
 485	4.8158e+01	19.2749	9.269264	0.002616	26.159985	8.863243	0.001047
 486	4.8258e+01	19.3037	10.351216	0.002717	27.173938	9.206779	0.001087
 487	4.8357e+01	19.3454	11.457391	0.002778	27.782309	9.412901	0.001112
 488	4.8456e+01	19.3920	12.527232	0.002687	26.869752	9.103718	0.001075
 489	4.8556e+01	19.4337	13.710113	0.002971	29.708820	10.065621	0.001189
 490	4.8656e+01	19.4513	14.836474	0.002829	28.289286	9.584669	0.001132
 491	4.8755e+01	19.5107	15.995132	0.002910	29.100448	9.859499	0.001164
 492	4.8855e+01	19.5460	17.149753	0.002900	28.999053	9.825145	0.001160
 493	4.8954e+01	19.5845	18.292262	0.002869	28.694867	9.722084	0.001148
 494	4.9053e+01	19.6310	19.450920	0.002910	29.100448	9.859499	0.001164
 495	4.9153e+01	19.6647	20.645912	0.003001	30.013006	10.168682	0.001201
 496	4.9252e+01	19.7064	21.832830	0.002981	29.810215	10.099974	0.001193
 497	4.9352e+01	19.7561	23.027822	0.003001	30.013006	10.168682	0.001201
 498	4.9452e+01	19.7930	24.218777	0.002991	29.911610	10.134328	0.001197
 499	4.9551e+01	19.8219	25.478364	0.003164	31.635330	10.718340	0.001266
 500	4.9651e+01	19.8604	26.653170	0.002951	29.506029	9.996913	0.001181
 501	4.9750e+01	19.9005	27.965239	0.003295	32.953469	11.164938	0.001319
 502	4.9849e+01	19.9534	29.265197	0.003265	32.649283	11.061877	0.001306
 503	4.9949e+01	19.9743	30.593415	0.003336	33.359050	11.302352	0.001335
 504	5.0048e+01	19.9502	31.699590	-0.002778	-27.782309	-9.412901	0.001112
 505	5.0148e+01	19.9021	32.817876	-0.002809	-28.086495	-9.515962	0.001124
 506	5.0248e+01	19.8700	33.948274	-0.002839	-28.390681	-9.619023	0.001136
 507	5.0347e+01	19.8283	35.082710	-0.002849	-28.492076	-9.653377	0.001140
 508	5.0447e+01	19.7882	36.309999	-0.003082	-30.824168	-10.443511	0.001233
 509	5.0546e+01	19.7513	37.395988	-0.002728	-27.275333	-9.241133	0.001091
 510	5.0645e+01	19.7096	38.409309	-0.002545	-25.450218	-8.622767	0.001018
 511	5.0745e+01	19.6599	39.483188	-0.002697	-26.971147	-9.138072	0.001079
 512	5.0844e+01	19.6486	40.633771	-0.002890	-28.897658	-9.790791	0.001156
 513	5.0944e+01	19.5845	41.752058	-0.002809	-28.086495	-9.515962	0.001124
 514	5.1044e+01	19.5460	42.898604	-0.002880	-28.796262	-9.756438	0.001152
 515	5.1143e+01	19.5075	44.024965	-0.002829	-28.289286	-9.584669	0.001132
 516	5.1242e+01	19.4658	45.123066	-0.002758	-27.579519	-9.344194	0.001104
 517	5.1342e+01	19.4353	46.221167	-0.002758	-27.579519	-9.344194	0.001104
 518	5.1441e+01	19.3904	47.282934	-0.002667	-26.666961	-9.035011	0.001067
 519	5.1541e+01	19.3454	48.328552	-0.002626	-26.261380	-8.897596	0.001051
 520	5.1641e+01	19.3085	49.353984	-0.002575	-25.754404	-8.725828	0.001031
 521	5.1740e+01	19.2765	50.448048	-0.002748	-27.478123	-9.309840	0.001100
 522	5.1840e+01	19.2331	51.481555	-0.002596	-25.957194	-8.794535	0.001039
 523	5.1939e+01	19.1962	52.527173	-0.002626	-26.261380	-8.897596	0.001051
 524	5.2038e+01	19.1577	53.512234	-0.002474	-24.740451	-8.382292	0.000990
 525	5.2138e+01	19.1032	54.545741	-0.002596	-25.957194	-8.794535	0.001039
 526	5.2237e+01	19.0615	55.546951	-0.002515	-25.146032	-8.519706	0.001006
 527	5.2337e+01	19.0230	56.495678	-0.002383	-23.827893	-8.073109	0.000953
 528	5.2437e+01	18.9925	57.399996	-0.002271	-22.712545	-7.695219	0.000909
 529	5.2536e+01	18.9508	58.267980	-0.002180	-21.799987	-7.386036	0.000872
 530	5.2636e+01	18.9107	59.196521	-0.002332	-23.320917	-7.901340	0.000933
 531	5.2735e+01	18.8658	60.044320	-0.002129	-21.293011	-7.214267	0.000852
 532	5.2834e+01	18.8337	60.936527	-0.002241	-22.408359	-7.592158	0.000897
 533	5.2934e+01	18.7904	61.828734	-0.002241	-22.408359	-7.592158	0.000897
 534	5.3033e+01	18.7519	62.737089	-0.002281	-22.813940	-7.729572	0.000913
 535	5.3133e+01	18.7086	63.762522	-0.002575	-25.754404	-8.725828	0.001031
 536	5.3233e+01	18.6733	64.791991	-0.002586	-25.855799	-8.760182	0.001035
 537	5.3332e+01	18.6348	65.809350	-0.002555	-25.551613	-8.657121	0.001022
 538	5.3431e+01	18.5963	66.818634	-0.002535	-25.348822	-8.588414	0.001014
 539	5.3531e+01	18.5401	67.751212	-0.002342	-23.422312	-7.935694	0.000937
 540	5.3630e+01	18.5128	68.643419	-0.002241	-22.408359	-7.592158	0.000897
 541	5.3730e+01	18.4776	69.442772	-0.002008	-20.076267	-6.802024	0.000803
 542	5.3830e+01	18.4166	70.330942	-0.002231	-22.306964	-7.557804	0.000893
 543	5.3929e+01	18.4038	71.190852	-0.002160	-21.597197	-7.317328	0.000864
 544	5.4029e+01	18.3460	72.026539	-0.002099	-20.988825	-7.111206	0.000840
 545	5.4128e+01	18.3203	72.817817	-0.001987	-19.873477	-6.733316	0.000795
 546	5.4227e+01	18.2802	73.613133	-0.001997	-19.974872	-6.767670	0.000799
 547	5.4327e+01	18.2433	74.396337	-0.001967	-19.670686	-6.664609	0.000787
 548	5.4426e+01	18.1952	75.179542	-0.001967	-19.670686	-6.664609	0.000787
 549	5.4526e+01	18.1503	75.991006	-0.002038	-20.380453	-6.905084	0.000816
 550	5.4626e+01	18.1150	76.749988	-0.001906	-19.062314	-6.458487	0.000763
 551	5.4725e+01	18.0733	77.593749	-0.002119	-21.191616	-7.179914	0.000848
 552	5.4825e+01	18.0236	78.429436	-0.002099	-20.988825	-7.111206	0.000840
 553	5.4924e+01	17.9979	79.277234	-0.002129	-21.293011	-7.214267	0.000852
 554	5.5023e+01	17.9562	80.104847	-0.002079	-20.786034	-7.042499	0.000832
 555	5.5123e+01	17.9129	80.956683	-0.002139	-21.394406	-7.248621	0.000856
 556	5.5222e+01	17.8776	81.776222	-0.002058	-20.583244	-6.973792	0.000824
 557	5.5322e+01	17.8407	82.595760	-0.002058	-20.583244	-6.973792	0.000824
 558	5.5422e+01	17.7990	83.423373	-0.002079	-20.786034	-7.042499	0.000832
 559	5.5521e+01	17.7589	84.291357	-0.002180	-21.799987	-7.386036	0.000872
 560	5.5620e+01	17.7155	85.179527	-0.002231	-22.306964	-7.557804	0.000893
 561	5.5720e+01	17.6819	86.027325	-0.002129	-21.293011	-7.214267	0.000852
 562	5.5819e+01	17.6385	86.854938	-0.002079	-20.786034	-7.042499	0.000832
 563	5.5919e+01	17.5968	87.710811	-0.002150	-21.495801	-7.282975	0.000860
 564	5.6019e+01	17.5551	88.578795	-0.002180	-21.799987	-7.386036	0.000872
 565	5.6118e+01	17.5198	89.475039	-0.002251	-22.509754	-7.626511	0.000901
 566	5.6218e+01	17.4797	90.314764	-0.002109	-21.090220	-7.145560	0.000844
 567	5.6317e+01	17.4412	91.223119	-0.002281	-22.813940	-7.729572	0.000913
 568	5.6416e+01	17.3931	92.131475	-0.002281	-22.813940	-7.729572	0.000913
 569	5.6516e+01	17.3498	92.987347	-0.002150	-21.495801	-7.282975	0.000860
 570	5.6615e+01	17.3161	93.843220	-0.002150	-21.495801	-7.282975	0.000860
 571	5.6715e+01	17.2760	94.650647	-0.002028	-20.279058	-6.870731	0.000811
 572	5.6815e+01	17.2295	95.470186	-0.002058	-20.583244	-6.973792	0.000824
 573	5.6914e+01	17.2054	96.297799	-0.002079	-20.786034	-7.042499	0.000832
 574	5.7014e+01	17.1605	97.109263	-0.002038	-20.380453	-6.905084	0.000816
 575	5.7113e+01	17.1204	97.932839	-0.002068	-20.684639	-7.008145	0.000828
 576	5.7212e+01	17.0771	98.760452	-0.002079	-20.786034	-7.042499	0.000832
 577	5.7312e+01	17.0353	99.547693	-0.001977	-19.772081	-6.698963	0.000791
 578	5.7411e+01	16.9985	100.334934	-0.001977	-19.772081	-6.698963	0.000791
 579	5.7511e+01	16.9567	101.097953	-0.001916	-19.163710	-6.492841	0.000767
 580	5.7611e+01	16.9214	101.873083	-0.001947	-19.467896	-6.595902	0.000779
 581	5.7710e+01	16.8781	102.640139	-0.001927	-19.265105	-6.527194	0.000771
 582	5.7809e+01	16.8380	103.370861	-0.001835	-18.352547	-6.218011	0.000734
 583	5.7909e+01	16.7979	104.154065	-0.001967	-19.670686	-6.664609	0.000787
 584	5.8008e+01	16.7546	104.904972	-0.001886	-18.859524	-6.389780	0.000755
 585	5.8108e+01	16.7145	105.692214	-0.001977	-19.772081	-6.698963	0.000791
 586	5.8208e+01	16.6760	106.398712	-0.001774	-17.744176	-6.011889	0.000710
 587	5.8307e+01	16.6375	107.165768	-0.001927	-19.265105	-6.527194	0.000771
 588	5.8407e+01	16.6070	107.880341	-0.001795	-17.946966	-6.080597	0.000718
 589	5.8506e+01	16.5573	108.615100	-0.001845	-18.453943	-6.252365	0.000738
 590	5.8605e+01	16.5204	109.382156	-0.001927	-19.265105	-6.527194	0.000771
 591	5.8705e+01	16.4787	110.064432	-0.001714	-17.135804	-5.805768	0.000686
 592	5.8804e+01	16.4466	110.835525	-0.001937	-19.366500	-6.561548	0.000775
 593	5.8904e+01	16.3953	111.586432	-0.001886	-18.859524	-6.389780	0.000755
 594	5.9004e+01	16.3664	112.296968	-0.001785	-17.845571	-6.046243	0.000714
 595	5.9103e+01	16.3199	112.987318	-0.001734	-17.338595	-5.874475	0.000694
 596	5.9203e+01	16.2798	113.726114	-0.001856	-18.555338	-6.286719	0.000743
 597	5.9302e+01	16.2445	114.424538	-0.001754	-17.541385	-5.943182	0.000702
 598	5.9401e+01	16.2076	115.042220	-0.001551	-15.513479	-5.256109	0.000621
 599	5.9501e+01	16.1578	115.716422	-0.001693	-16.933013	-5.737060	0.000678
 600	5.9600e+01	16.1225	116.366401	-0.001632	-16.324642	-5.530938	0.000653
 601	5.9700e+01	16.0824	117.048676	-0.001714	-17.135804	-5.805768	0.000686
 602	5.9800e+01	16.0359	117.767287	-0.001805	-18.048362	-6.114950	0.000722
 603	5.9899e+01	16.0054	118.445525	-0.001703	-17.034409	-5.771414	0.000682
 604	5.9998e+01	15.9637	119.083393	-0.001602	-16.020456	-5.427877	0.000641
 605	6.0098e+01	15.9268	119.834300	-0.001886	-18.859524	-6.389780	0.000755
 606	6.0197e+01	15.8835	120.480242	-0.001622	-16.223246	-5.496585	0.000649
 607	6.0297e+01	15.8466	121.158481	-0.001703	-17.034409	-5.771414	0.000682
 608	6.0397e+01	15.8033	121.788274	-0.001582	-15.817665	-5.359170	0.000633
 609	6.0496e+01	15.7552	122.470550	-0.001714	-17.135804	-5.805768	0.000686
 610	6.0596e+01	15.7279	123.108417	-0.001602	-16.020456	-5.427877	0.000641
 611	6.0695e+01	15.6878	123.750322	-0.001612	-16.121851	-5.462231	0.000645
 612	6.0794e+01	15.6493	124.412412	-0.001663	-16.628828	-5.633999	0.000665
 613	6.0894e+01	15.6076	125.030094	-0.001551	-15.513479	-5.256109	0.000621
 614	6.0993e+01	15.5611	125.720444	-0.001734	-17.338595	-5.874475	0.000694
 615	6.1093e+01	15.5338	126.321977	-0.001511	-15.107898	-5.118694	0.000605
 616	6.1193e+01	15.4744	126.955808	-0.001592	-15.919060	-5.393524	0.000637
 617	6.1292e+01	15.4504	127.573489	-0.001551	-15.513479	-5.256109	0.000621
 618	6.1392e+01	15.4103	128.195208	-0.001561	-15.614875	-5.290463	0.000625
 619	6.1491e+01	15.3589	128.841150	-0.001622	-16.223246	-5.496585	0.000649
 620	6.1590e+01	15.3300	129.422497	-0.001460	-14.600922	-4.946926	0.000584
 621	6.1690e+01	15.2867	130.019994	-0.001501	-15.006503	-5.084341	0.000600
 622	6.1789e+01	15.2418	130.633638	-0.001541	-15.412084	-5.221755	0.000617
 623	6.1889e+01	15.2065	131.214986	-0.001460	-14.600922	-4.946926	0.000584
 624	6.1989e+01	15.1648	131.759999	-0.001369	-13.688364	-4.637743	0.000548
 625	6.2088e+01	15.1231	132.288864	-0.001328	-13.282783	-4.500329	0.000532
 626	6.2188e+01	15.0878	132.850026	-0.001409	-14.093945	-4.775158	0.000564
 627	6.2287e+01	15.0413	133.395039	-0.001369	-13.688364	-4.637743	0.000548
 628	6.2386e+01	15.0076	133.972349	-0.001450	-14.499526	-4.912573	0.000580
 629	6.2486e+01	14.9627	134.464880	-0.001237	-12.370225	-4.191146	0.000495
 630	6.2586e+01	14.9226	134.965485	-0.001257	-12.573016	-4.259853	0.000503
 631	6.2685e+01	14.8809	135.494350	-0.001328	-13.282783	-4.500329	0.000532
 632	6.2785e+01	14.8440	136.007066	-0.001288	-12.877202	-4.362914	0.000515
 633	6.2884e+01	14.8071	136.531894	-0.001318	-13.181388	-4.465975	0.000527
 634	6.2983e+01	14.7718	137.036535	-0.001267	-12.674411	-4.294207	0.000507
 635	6.3083e+01	14.7269	137.581549	-0.001369	-13.688364	-4.637743	0.000548
 636	6.3182e+01	14.6835	138.066005	-0.001217	-12.167435	-4.122438	0.000487
 637	6.3282e+01	14.6482	138.554499	-0.001227	-12.268830	-4.156792	0.000491
 638	6.3382e+01	14.6065	139.047029	-0.001237	-12.370225	-4.191146	0.000495
 639	6.3481e+01	14.5648	139.551671	-0.001267	-12.674411	-4.294207	0.000507
 640	6.3581e+01	14.5279	140.056313	-0.001267	-12.674411	-4.294207	0.000507
 641	6.3680e+01	14.4991	140.532695	-0.001196	-11.964644	-4.053731	0.000479
 642	6.3779e+01	14.4509	140.960631	-0.001075	-10.747901	-3.641487	0.000430
 643	6.3879e+01	14.4012	141.461236	-0.001257	-12.573016	-4.259853	0.000503
 644	6.3978e+01	14.3627	141.957804	-0.001247	-12.471621	-4.225499	0.000499
 645	6.4078e+01	14.3338	142.397852	-0.001105	-11.052087	-3.744548	0.000442
 646	6.4177e+01	14.2937	142.870197	-0.001186	-11.863249	-4.019378	0.000475
 647	6.4277e+01	14.2472	143.302170	-0.001085	-10.849296	-3.675841	0.000434
 648	6.4376e+01	14.2055	143.754329	-0.001136	-11.356272	-3.847609	0.000454
 649	6.4476e+01	14.1638	144.230711	-0.001196	-11.964644	-4.053731	0.000479
 650	6.4576e+01	14.1349	144.662685	-0.001085	-10.849296	-3.675841	0.000434
 651	6.4675e+01	14.0884	145.094658	-0.001085	-10.849296	-3.675841	0.000434
 652	6.4775e+01	14.0579	145.554892	-0.001156	-11.559063	-3.916317	0.000463
 653	6.4874e+01	14.0130	146.023200	-0.001176	-11.761854	-3.985024	0.000471
 654	6.4974e+01	13.9777	146.455173	-0.001085	-10.849296	-3.675841	0.000434
 655	6.5073e+01	13.9328	146.875035	-0.001055	-10.545110	-3.572780	0.000422
 656	6.5172e+01	13.8911	147.298935	-0.001065	-10.646505	-3.607134	0.000426
 657	6.5272e+01	13.8493	147.751094	-0.001136	-11.356272	-3.847609	0.000454
 658	6.5371e+01	13.8076	148.187104	-0.001095	-10.950691	-3.710195	0.000438
 659	6.5471e+01	13.7691	148.651375	-0.001166	-11.660458	-3.950670	0.000467
 660	6.5570e+01	13.7322	149.051051	-0.001004	-10.038134	-3.401012	0.000402
 661	6.5670e+01	13.6857	149.495136	-0.001115	-11.153482	-3.778902	0.000446
 662	6.5769e+01	13.6536	149.886739	-0.000984	-9.835343	-3.332304	0.000394
 663	6.5869e+01	13.6039	150.326786	-0.001105	-11.052087	-3.744548	0.000442
 664	6.5969e+01	13.5814	150.706277	-0.000953	-9.531157	-3.229243	0.000381
 665	6.6068e+01	13.5301	151.142288	-0.001095	-10.950691	-3.710195	0.000438
 666	6.6168e+01	13.4916	151.558113	-0.001044	-10.443715	-3.538426	0.000418
 667	6.6267e+01	13.4499	151.957789	-0.001004	-10.038134	-3.401012	0.000402
 668	6.6367e+01	13.4098	152.317094	-0.000902	-9.024181	-3.057475	0.000361
 669	6.6466e+01	13.3793	152.761179	-0.001115	-11.153482	-3.778902	0.000446
 670	6.6566e+01	13.3312	153.177004	-0.001044	-10.443715	-3.538426	0.000418
 671	6.6665e+01	13.2863	153.532272	-0.000892	-8.922785	-3.023122	0.000357
 672	6.6764e+01	13.2478	153.907726	-0.000943	-9.429762	-3.194890	0.000377
 673	6.6864e+01	13.2157	154.275105	-0.000923	-9.226971	-3.126183	0.000369
 674	6.6963e+01	13.1691	154.654596	-0.000953	-9.531157	-3.229243	0.000381
 675	6.7063e+01	13.1306	154.993715	-0.000852	-8.517204	-2.885707	0.000341
 676	6.7162e+01	13.0873	155.369169	-0.000943	-9.429762	-3.194890	0.000377
 677	6.7262e+01	13.0536	155.736548	-0.000923	-9.226971	-3.126183	0.000369
 678	6.7362e+01	13.0200	156.128150	-0.000984	-9.835343	-3.332304	0.000394
 679	6.7461e+01	12.9606	156.463233	-0.000842	-8.415809	-2.851353	0.000337
 680	6.7561e+01	12.9301	156.830612	-0.000923	-9.226971	-3.126183	0.000369
 681	6.7660e+01	12.8996	157.185880	-0.000892	-8.922785	-3.023122	0.000357
 682	6.7760e+01	12.8579	157.508851	-0.000811	-8.111623	-2.748292	0.000325
 683	6.7859e+01	12.8114	157.819710	-0.000781	-7.807437	-2.645231	0.000312
 684	6.7959e+01	12.7761	158.203238	-0.000963	-9.632553	-3.263597	0.000385
 685	6.8058e+01	12.7328	158.497949	-0.000740	-7.401856	-2.507817	0.000296
 686	6.8157e+01	12.6959	158.812846	-0.000791	-7.908833	-2.679585	0.000316
 687	6.8257e+01	12.6542	159.151965	-0.000852	-8.517204	-2.885707	0.000341
 688	6.8356e+01	12.6157	159.422453	-0.000679	-6.793484	-2.301695	0.000272
 689	6.8456e+01	12.5708	159.781758	-0.000902	-9.024181	-3.057475	0.000361
 690	6.8555e+01	12.5307	160.100692	-0.000801	-8.010228	-2.713939	0.000321
 691	6.8655e+01	12.4938	160.383291	-0.000710	-7.097670	-2.404756	0.000284
 692	6.8754e+01	12.4553	160.657817	-0.000689	-6.894880	-2.336048	0.000276
 693	6.8854e+01	12.4119	161.057493	-0.001004	-10.038134	-3.401012	0.000402
 694	6.8954e+01	12.3879	161.319907	-0.000659	-6.590694	-2.232988	0.000264
 695	6.9053e+01	12.3398	161.606544	-0.000720	-7.199066	-2.439109	0.000288
 696	6.9153e+01	12.2980	161.957774	-0.000882	-8.821390	-2.988768	0.000353
 697	6.9252e+01	12.2547	162.216151	-0.000649	-6.489299	-2.198634	0.000260
 698	6.9352e+01	12.2146	162.506825	-0.000730	-7.300461	-2.473463	0.000292
 699	6.9451e+01	12.1777	162.793462	-0.000720	-7.199066	-2.439109	0.000288
 700	6.9550e+01	12.1392	163.096247	-0.000760	-7.604647	-2.576524	0.000304
 701	6.9650e+01	12.1023	163.390958	-0.000740	-7.401856	-2.507817	0.000296
 702	6.9749e+01	12.0590	163.665483	-0.000689	-6.894880	-2.336048	0.000276
 703	6.9849e+01	12.0189	163.935971	-0.000679	-6.793484	-2.301695	0.000272
 704	6.9948e+01	11.9820	164.242793	-0.000771	-7.706042	-2.610878	0.000308
 705	7.0048e+01	11.9323	164.485021	-0.000608	-6.083717	-2.061219	0.000243
 706	7.0147e+01	11.9034	164.723212	-0.000598	-5.982322	-2.026866	0.000239
 707	7.0247e+01	11.8601	165.042146	-0.000801	-8.010228	-2.713939	0.000321
 708	7.0347e+01	11.8168	165.304560	-0.000659	-6.590694	-2.232988	0.000264
 709	7.0446e+01	11.7767	165.583122	-0.000700	-6.996275	-2.370402	0.000280
 710	7.0546e+01	11.7446	165.821313	-0.000598	-5.982322	-2.026866	0.000239
 711	7.0645e+01	11.7013	166.091801	-0.000679	-6.793484	-2.301695	0.000272
 712	7.0745e+01	11.6628	166.362289	-0.000679	-6.793484	-2.301695	0.000272
 713	7.0844e+01	11.6146	166.620666	-0.000649	-6.489299	-2.198634	0.000260
 714	7.0944e+01	11.5777	166.870969	-0.000629	-6.286508	-2.129927	0.000252
 715	7.1043e+01	11.5473	167.097048	-0.000568	-5.678136	-1.923805	0.000227
 716	7.1142e+01	11.5040	167.355425	-0.000649	-6.489299	-2.198634	0.000260
 717	7.1242e+01	11.4526	167.601690	-0.000619	-6.185113	-2.095573	0.000248
 718	7.1341e+01	11.4173	167.856030	-0.000639	-6.387903	-2.164280	0.000256
 719	7.1441e+01	11.3933	168.086146	-0.000578	-5.779532	-1.958158	0.000231
 720	7.1540e+01	11.3339	168.279929	-0.000487	-4.866974	-1.648975	0.000195
 721	7.1640e+01	11.3034	168.526194	-0.000619	-6.185113	-2.095573	0.000248
 722	7.1740e+01	11.2697	168.732088	-0.000517	-5.171160	-1.752036	0.000207
 723	7.1839e+01	11.2232	169.006613	-0.000689	-6.894880	-2.336048	0.000276
 724	7.1939e+01	11.1799	169.184247	-0.000446	-4.461393	-1.511561	0.000179
 725	7.2038e+01	11.1414	169.398216	-0.000537	-5.373950	-1.820744	0.000215
 726	7.2138e+01	11.1013	169.620258	-0.000558	-5.576741	-1.889451	0.000223
 727	7.2237e+01	11.0644	169.822115	-0.000507	-5.069764	-1.717683	0.000203
 728	7.2337e+01	11.0179	170.040120	-0.000548	-5.475346	-1.855097	0.000219
 729	7.2436e+01	10.9826	170.233903	-0.000487	-4.866974	-1.648975	0.000195
 730	7.2535e+01	10.9425	170.443834	-0.000527	-5.272555	-1.786390	0.000211
 731	7.2635e+01	10.9088	170.577059	-0.000335	-3.346045	-1.133671	0.000134
 732	7.2734e+01	10.8623	170.823324	-0.000619	-6.185113	-2.095573	0.000248
 733	7.2834e+01	10.8189	170.992884	-0.000426	-4.258602	-1.442853	0.000170
 734	7.2933e+01	10.7837	171.206852	-0.000537	-5.373950	-1.820744	0.000215
 735	7.3033e+01	10.7516	171.356226	-0.000375	-3.751626	-1.271085	0.000150
 736	7.3132e+01	10.7018	171.566157	-0.000527	-5.272555	-1.786390	0.000211
 737	7.3232e+01	10.6649	171.743791	-0.000446	-4.461393	-1.511561	0.000179
 738	7.3332e+01	10.6216	171.893165	-0.000375	-3.751626	-1.271085	0.000150
 739	7.3431e+01	10.5831	172.054651	-0.000406	-4.055812	-1.374146	0.000162
 740	7.3531e+01	10.5382	172.212099	-0.000395	-3.954416	-1.339793	0.000158
 741	7.3630e+01	10.4997	172.373585	-0.000406	-4.055812	-1.374146	0.000162
 742	7.3730e+01	10.4596	172.579479	-0.000517	-5.171160	-1.752036	0.000207
 743	7.3829e+01	10.4243	172.720778	-0.000355	-3.548835	-1.202378	0.000142
 744	7.3928e+01	10.3842	172.894375	-0.000436	-4.359997	-1.477207	0.000174
 745	7.4028e+01	10.3521	173.051823	-0.000395	-3.954416	-1.339793	0.000158
 746	7.4127e+01	10.3088	173.213309	-0.000406	-4.055812	-1.374146	0.000162
 747	7.4227e+01	10.2623	173.342497	-0.000324	-3.244649	-1.099317	0.000130
 748	7.4326e+01	10.2238	173.491871	-0.000375	-3.751626	-1.271085	0.000150
 749	7.4426e+01	10.1869	173.641245	-0.000375	-3.751626	-1.271085	0.000150
 750	7.4525e+01	10.1355	173.790619	-0.000375	-3.751626	-1.271085	0.000150
 751	7.4625e+01	10.1051	173.996513	-0.000517	-5.171160	-1.752036	0.000207
 752	7.4725e+01	10.0682	174.081293	-0.000213	-2.129301	-0.721427	0.000085
 753	7.4824e+01	10.0361	174.218556	-0.000345	-3.447440	-1.168024	0.000138
 754	7.4924e+01	9.9847	174.392152	-0.000436	-4.359997	-1.477207	0.000174
 755	7.5023e+01	9.9462	174.541526	-0.000375	-3.751626	-1.271085	0.000150
 756	7.5123e+01	9.9093	174.662641	-0.000304	-3.041859	-1.030610	0.000122
 757	7.5222e+01	9.8708	174.771643	-0.000274	-2.737673	-0.927549	0.000110
 758	7.5322e+01	9.8211	174.929092	-0.000395	-3.954416	-1.339793	0.000158
 759	7.5421e+01	9.7906	175.042131	-0.000284	-2.839068	-0.961902	0.000114
 760	7.5520e+01	9.7521	175.207654	-0.000416	-4.157207	-1.408500	0.000166
 761	7.5620e+01	9.7104	175.308582	-0.000253	-2.534882	-0.858841	0.000101
 762	7.5719e+01	9.6671	175.401436	-0.000233	-2.332092	-0.790134	0.000093
 763	7.5819e+01	9.6238	175.538699	-0.000345	-3.447440	-1.168024	0.000138
 764	7.5918e+01	9.5917	175.667887	-0.000324	-3.244649	-1.099317	0.000130
 765	7.6018e+01	9.5436	175.704222	-0.000091	-0.912558	-0.309183	0.000037
 766	7.6118e+01	9.5035	175.837447	-0.000335	-3.346045	-1.133671	0.000134
 767	7.6217e+01	9.4714	175.910116	-0.000183	-1.825115	-0.618366	0.000073
 768	7.6317e+01	9.4345	176.031230	-0.000304	-3.041859	-1.030610	0.000122
 769	7.6416e+01	9.3896	176.087749	-0.000142	-1.419534	-0.480951	0.000057
 770	7.6516e+01	9.3447	176.204826	-0.000294	-2.940463	-0.996256	0.000118
 771	7.6615e+01	9.3142	176.281532	-0.000193	-1.926511	-0.652719	0.000077
 772	7.6715e+01	9.2644	176.398609	-0.000294	-2.940463	-0.996256	0.000118
 773	7.6814e+01	9.2372	176.418795	-0.000051	-0.506976	-0.171768	0.000020
 774	7.6913e+01	9.1939	176.471277	-0.000132	-1.318139	-0.446598	0.000053
 775	7.7013e+01	9.1441	176.527797	-0.000142	-1.419534	-0.480951	0.000057
 776	7.7112e+01	9.1104	176.584317	-0.000142	-1.419534	-0.480951	0.000057
 777	7.7212e+01	9.0703	176.620651	-0.000091	-0.912558	-0.309183	0.000037
 778	7.7311e+01	9.0350	176.661023	-0.000101	-1.013953	-0.343537	0.000041
 779	7.7411e+01	8.9869	176.778100	-0.000294	-2.940463	-0.996256	0.000118
 780	7.7510e+01	8.9500	176.814434	-0.000091	-0.912558	-0.309183	0.000037
 781	7.7610e+01	8.9115	176.891139	-0.000193	-1.926511	-0.652719	0.000077
 782	7.7710e+01	8.8698	176.919399	-0.000071	-0.709767	-0.240476	0.000028
 783	7.7809e+01	8.8297	176.971882	-0.000132	-1.318139	-0.446598	0.000053
 784	7.7909e+01	8.7912	177.036476	-0.000162	-1.622325	-0.549658	0.000065
 785	7.8008e+01	8.7511	177.072811	-0.000091	-0.912558	-0.309183	0.000037
 786	7.8108e+01	8.7158	177.117219	-0.000112	-1.115348	-0.377890	0.000045
 787	7.8207e+01	8.6821	177.193925	-0.000193	-1.926511	-0.652719	0.000077
 788	7.8306e+01	8.6292	177.214110	-0.000051	-0.506976	-0.171768	0.000020
 789	7.8406e+01	8.5923	177.258519	-0.000112	-1.115348	-0.377890	0.000045
 790	7.8505e+01	8.5441	177.315039	-0.000142	-1.419534	-0.480951	0.000057
 791	7.8605e+01	8.5153	177.311002	0.000010	0.101395	0.034354	-0.000004
 792	7.8704e+01	8.4591	177.331187	-0.000051	-0.506976	-0.171768	0.000020
 793	7.8804e+01	8.4351	177.359447	-0.000071	-0.709767	-0.240476	0.000028
 794	7.8903e+01	8.3966	177.424041	-0.000162	-1.622325	-0.549658	0.000065
 795	7.9003e+01	8.3468	177.444227	-0.000051	-0.506976	-0.171768	0.000020
 796	7.9103e+01	8.3099	177.456339	-0.000030	-0.304186	-0.103061	0.000012
 797	7.9202e+01	8.2714	177.476524	-0.000051	-0.506976	-0.171768	0.000020
 798	7.9302e+01	8.2281	177.496710	-0.000051	-0.506976	-0.171768	0.000020
 799	7.9401e+01	8.1944	177.529007	-0.000081	-0.811162	-0.274829	0.000032
 800	7.9501e+01	8.1495	177.492673	0.000091	0.912558	0.309183	-0.000037
 801	7.9600e+01	8.1190	177.508821	-0.000041	-0.405581	-0.137415	0.000016
 802	7.9700e+01	8.0757	177.520933	-0.000030	-0.304186	-0.103061	0.000012
 803	7.9799e+01	8.0372	177.541118	-0.000051	-0.506976	-0.171768	0.000020
 804	7.9898e+01	7.9875	177.557267	-0.000041	-0.405581	-0.137415	0.000016
 805	7.9998e+01	7.9474	177.561304	-0.000010	-0.101395	-0.034354	0.000004
 806	8.0097e+01	7.9137	177.537081	0.000061	0.608372	0.206122	-0.000024
 807	8.0197e+01	7.8896	177.549193	-0.000030	-0.304186	-0.103061	0.000012
 808	8.0296e+01	7.8206	177.524970	0.000061	0.608372	0.206122	-0.000024
 809	8.0396e+01	7.7966	177.533044	-0.000020	-0.202791	-0.068707	0.000008
 810	8.0496e+01	7.7549	177.512858	0.000051	0.506976	0.171768	-0.000020
 811	8.0595e+01	7.7132	177.537081	-0.000061	-0.608372	-0.206122	0.000024
 812	8.0695e+01	7.6650	177.500747	0.000091	0.912558	0.309183	-0.000037
 813	8.0794e+01	7.6329	177.464413	0.000091	0.912558	0.309183	-0.000037
 814	8.0894e+01	7.6009	177.476524	-0.000030	-0.304186	-0.103061	0.000012
 815	8.0993e+01	7.5559	177.500747	-0.000061	-0.608372	-0.206122	0.000024
 816	8.1093e+01	7.5206	177.448264	0.000132	1.318139	0.446598	-0.000053
 817	8.1192e+01	7.4821	177.436153	0.000030	0.304186	0.103061	-0.000012
 818	8.1291e+01	7.4372	177.391744	0.000112	1.115348	0.377890	-0.000045
 819	8.1391e+01	7.3923	177.347336	0.000112	1.115348	0.377890	-0.000045
 820	8.1490e+01	7.3570	177.339262	0.000020	0.202791	0.068707	-0.000008
 821	8.1590e+01	7.3105	177.294853	0.000112	1.115348	0.377890	-0.000045
 822	8.1689e+01	7.2720	177.238333	0.000142	1.419534	0.480951	-0.000057
 823	8.1789e+01	7.2399	177.234296	0.000010	0.101395	0.034354	-0.000004
 824	8.1888e+01	7.1966	177.206036	0.000071	0.709767	0.240476	-0.000028
 825	8.1988e+01	7.1581	177.161628	0.000112	1.115348	0.377890	-0.000045
 826	8.2088e+01	7.1148	177.129331	0.000081	0.811162	0.274829	-0.000032
 827	8.2187e+01	7.0747	177.109145	0.000051	0.506976	0.171768	-0.000020
 828	8.2287e+01	7.0394	177.028402	0.000203	2.027906	0.687073	-0.000081
 829	8.2386e+01	7.0009	176.963808	0.000162	1.622325	0.549658	-0.000065
 830	8.2486e+01	6.9543	176.931511	0.000081	0.811162	0.274829	-0.000032
 831	8.2585e+01	6.9207	176.870954	0.000152	1.520929	0.515305	-0.000061
 832	8.2684e+01	6.8741	176.806360	0.000162	1.622325	0.549658	-0.000065
 833	8.2784e+01	6.8324	176.794248	0.000030	0.304186	0.103061	-0.000012
 834	8.2883e+01	6.7939	176.765988	0.000071	0.709767	0.240476	-0.000028
 835	8.2983e+01	6.7538	176.648911	0.000294	2.940463	0.996256	-0.000118
 836	8.3082e+01	6.7314	176.628726	0.000051	0.506976	0.171768	-0.000020
 837	8.3182e+01	6.6720	176.535872	0.000233	2.332092	0.790134	-0.000093
 838	8.3281e+01	6.6351	176.491463	0.000112	1.115348	0.377890	-0.000045
 839	8.3381e+01	6.5998	176.434943	0.000142	1.419534	0.480951	-0.000057
 840	8.3481e+01	6.5613	176.370349	0.000162	1.622325	0.549658	-0.000065
 841	8.3580e+01	6.5116	176.285569	0.000213	2.129301	0.721427	-0.000085
 842	8.3680e+01	6.4763	176.233086	0.000132	1.318139	0.446598	-0.000053
 843	8.3779e+01	6.4346	176.144269	0.000223	2.230696	0.755780	-0.000089
 844	8.3879e+01	6.3961	176.055452	0.000223	2.230696	0.755780	-0.000089
 845	8.3978e+01	6.3576	175.970673	0.000213	2.129301	0.721427	-0.000085
 846	8.4078e+01	6.3159	175.922227	0.000122	1.216743	0.412244	-0.000049
 847	8.4177e+01	6.2758	175.805150	0.000294	2.940463	0.996256	-0.000118
 848	8.4276e+01	6.2501	175.740556	0.000162	1.622325	0.549658	-0.000065
 849	8.4376e+01	6.1939	175.692110	0.000122	1.216743	0.412244	-0.000049
 850	8.4475e+01	6.1570	175.591182	0.000253	2.534882	0.858841	-0.000101
 851	8.4575e+01	6.1250	175.494291	0.000243	2.433487	0.824488	-0.000097
 852	8.4674e+01	6.0849	175.397399	0.000243	2.433487	0.824488	-0.000097
 853	8.4774e+01	6.0464	175.324731	0.000183	1.825115	0.618366	-0.000073
 854	8.4874e+01	5.9998	175.219765	0.000264	2.636278	0.893195	-0.000105
 855	8.4973e+01	5.9645	175.114800	0.000264	2.636278	0.893195	-0.000105
 856	8.5073e+01	5.9164	174.997723	0.000294	2.940463	0.996256	-0.000118
 857	8.5172e+01	5.8795	174.884683	0.000284	2.839068	0.961902	-0.000114
 858	8.5272e+01	5.8442	174.828163	0.000142	1.419534	0.480951	-0.000057
 859	8.5371e+01	5.8025	174.735309	0.000233	2.332092	0.790134	-0.000093
 860	8.5471e+01	5.7672	174.630343	0.000264	2.636278	0.893195	-0.000105
 861	8.5570e+01	5.7287	174.521341	0.000274	2.737673	0.927549	-0.000110
 862	8.5669e+01	5.6902	174.408301	0.000284	2.839068	0.961902	-0.000114
 863	8.5769e+01	5.6405	174.279113	0.000324	3.244649	1.099317	-0.000130
 864	8.5868e+01	5.6020	174.166073	0.000284	2.839068	0.961902	-0.000114
 865	8.5968e+01	5.5619	174.073219	0.000233	2.332092	0.790134	-0.000093
 866	8.6067e+01	5.5266	173.935956	0.000345	3.447440	1.168024	-0.000138
 867	8.6167e+01	5.4801	173.851176	0.000213	2.129301	0.721427	-0.000085
 868	8.6266e+01	5.4416	173.762359	0.000223	2.230696	0.755780	-0.000089
 869	8.6366e+01	5.4047	173.637208	0.000314	3.143254	1.064963	-0.000126
 870	8.6466e+01	5.3694	173.536280	0.000253	2.534882	0.858841	-0.000101
 871	8.6565e+01	5.3228	173.390943	0.000365	3.650230	1.236732	-0.000146
 872	8.6665e+01	5.2827	173.281940	0.000274	2.737673	0.927549	-0.000110
 873	8.6764e+01	5.2474	173.185049	0.000243	2.433487	0.824488	-0.000097
 874	8.6864e+01	5.2025	172.991266	0.000487	4.866974	1.648975	-0.000195
 875	8.6963e+01	5.1624	172.894375	0.000243	2.433487	0.824488	-0.000097
 876	8.7063e+01	5.1223	172.773261	0.000304	3.041859	1.030610	-0.000122
 877	8.7162e+01	5.0806	172.635998	0.000345	3.447440	1.168024	-0.000138
 878	8.7261e+01	5.0453	172.535070	0.000253	2.534882	0.858841	-0.000101
 879	8.7361e+01	5.0132	172.397807	0.000345	3.447440	1.168024	-0.000138
 880	8.7460e+01	4.9731	172.288805	0.000274	2.737673	0.927549	-0.000110
 881	8.7560e+01	4.9218	172.123282	0.000416	4.157207	1.408500	-0.000166
 882	8.7659e+01	4.8897	172.010242	0.000284	2.839068	0.961902	-0.000114
 883	8.7759e+01	4.8512	171.852794	0.000395	3.954416	1.339793	-0.000158
 884	8.7859e+01	4.8095	171.707457	0.000365	3.650230	1.236732	-0.000146
 885	8.7958e+01	4.7598	171.558083	0.000375	3.751626	1.271085	-0.000150
 886	8.8058e+01	4.7293	171.432932	0.000314	3.143254	1.064963	-0.000126
 887	8.8157e+01	4.6828	171.271447	0.000406	4.055812	1.374146	-0.000162
 888	8.8257e+01	4.6475	171.150332	0.000304	3.041859	1.030610	-0.000122
 889	8.8356e+01	4.6025	171.009033	0.000355	3.548835	1.202378	-0.000142
 890	8.8456e+01	4.5673	170.875807	0.000335	3.346045	1.133671	-0.000134
 891	8.8555e+01	4.5336	170.718359	0.000395	3.954416	1.339793	-0.000158
 892	8.8654e+01	4.4886	170.544762	0.000436	4.359997	1.477207	-0.000174
 893	8.8754e+01	4.4437	170.427685	0.000294	2.940463	0.996256	-0.000118
 894	8.8853e+01	4.4020	170.237940	0.000477	4.765579	1.614622	-0.000191
 895	8.8953e+01	4.3683	170.124900	0.000284	2.839068	0.961902	-0.000114
 896	8.9052e+01	4.3330	169.959377	0.000416	4.157207	1.408500	-0.000166
 897	8.9152e+01	4.2897	169.818078	0.000355	3.548835	1.202378	-0.000142
 898	8.9251e+01	4.2400	169.620258	0.000497	4.968369	1.683329	-0.000199
 899	8.9351e+01	4.2095	169.499144	0.000304	3.041859	1.030610	-0.000122
 900	8.9451e+01	4.1630	169.361881	0.000345	3.447440	1.168024	-0.000138
 901	8.9550e+01	4.1293	169.180210	0.000456	4.562788	1.545914	-0.000183
 902	8.9650e+01	4.0892	169.018725	0.000406	4.055812	1.374146	-0.000162
 903	8.9749e+01	4.0459	168.873388	0.000365	3.650230	1.236732	-0.000146
 904	8.9849e+01	4.0170	168.715940	0.000395	3.954416	1.339793	-0.000158
 905	8.9948e+01	3.9673	168.554454	0.000406	4.055812	1.374146	-0.000162
 906	9.0047e+01	3.9304	168.388932	0.000416	4.157207	1.408500	-0.000166
 907	9.0147e+01	3.8919	168.235520	0.000385	3.853021	1.305439	-0.000154
 908	9.0246e+01	3.8502	168.061924	0.000436	4.359997	1.477207	-0.000174
 909	9.0346e+01	3.8181	167.920624	0.000355	3.548835	1.202378	-0.000142
 910	9.0445e+01	3.7748	167.722804	0.000497	4.968369	1.683329	-0.000199
 911	9.0545e+01	3.7298	167.581504	0.000355	3.548835	1.202378	-0.000142
 912	9.0644e+01	3.6913	167.407908	0.000436	4.359997	1.477207	-0.000174
 913	9.0744e+01	3.6480	167.286794	0.000304	3.041859	1.030610	-0.000122
 914	9.0844e+01	3.6047	167.105122	0.000456	4.562788	1.545914	-0.000183
 915	9.0943e+01	3.5774	166.931526	0.000436	4.359997	1.477207	-0.000174
 916	9.1043e+01	3.5245	166.766003	0.000416	4.157207	1.408500	-0.000166
 917	9.1142e+01	3.4988	166.580295	0.000466	4.664183	1.580268	-0.000187
 918	9.1242e+01	3.4491	166.455144	0.000314	3.143254	1.064963	-0.000126
 919	9.1341e+01	3.4138	166.257324	0.000497	4.968369	1.683329	-0.000199
 920	9.1441e+01	3.3753	166.071616	0.000466	4.664183	1.580268	-0.000187
 921	9.1540e+01	3.3240	165.889945	0.000456	4.562788	1.545914	-0.000183
 922	9.1639e+01	3.2871	165.768831	0.000304	3.041859	1.030610	-0.000122
 923	9.1739e+01	3.2566	165.591197	0.000446	4.461393	1.511561	-0.000179
 924	9.1838e+01	3.2197	165.405488	0.000466	4.664183	1.580268	-0.000187
 925	9.1938e+01	3.1684	165.231891	0.000436	4.359997	1.477207	-0.000174
 926	9.2037e+01	3.1395	165.054258	0.000446	4.461393	1.511561	-0.000179
 927	9.2137e+01	3.0946	164.852401	0.000507	5.069764	1.717683	-0.000203
 928	9.2237e+01	3.0529	164.670730	0.000456	4.562788	1.545914	-0.000183
 929	9.2336e+01	3.0176	164.476947	0.000487	4.866974	1.648975	-0.000195
 930	9.2436e+01	2.9759	164.339684	0.000345	3.447440	1.168024	-0.000138
 931	9.2535e+01	2.9374	164.162051	0.000446	4.461393	1.511561	-0.000179
 932	9.2635e+01	2.8908	163.996528	0.000416	4.157207	1.408500	-0.000166
 933	9.2734e+01	2.8603	163.806783	0.000477	4.765579	1.614622	-0.000191
 934	9.2834e+01	2.8106	163.629149	0.000446	4.461393	1.511561	-0.000179
 935	9.2933e+01	2.7769	163.427292	0.000507	5.069764	1.717683	-0.000203
 936	9.3032e+01	2.7448	163.213324	0.000537	5.373950	1.820744	-0.000215
 937	9.3132e+01	2.6919	163.072024	0.000355	3.548835	1.202378	-0.000142
 938	9.3231e+01	2.6662	162.882278	0.000477	4.765579	1.614622	-0.000191
 939	9.3331e+01	2.6101	162.700607	0.000456	4.562788	1.545914	-0.000183
 940	9.3430e+01	2.5748	162.494713	0.000517	5.171160	1.752036	-0.000207
 941	9.3530e+01	2.5395	162.329191	0.000416	4.157207	1.408500	-0.000166
 942	9.3629e+01	2.4962	162.155594	0.000436	4.359997	1.477207	-0.000174
 943	9.3729e+01	2.4593	161.977960	0.000446	4.461393	1.511561	-0.000179
 944	9.3829e+01	2.4128	161.792252	0.000466	4.664183	1.580268	-0.000187
 945	9.3928e+01	2.3727	161.570209	0.000558	5.576741	1.889451	-0.000223
 946	9.4028e+01	2.3390	161.416798	0.000385	3.853021	1.305439	-0.000154
 947	9.4127e+01	2.2908	161.247239	0.000426	4.258602	1.442853	-0.000170
 948	9.4227e+01	2.2572	161.033270	0.000537	5.373950	1.820744	-0.000215
 949	9.4326e+01	2.2219	160.831414	0.000507	5.069764	1.717683	-0.000203
 950	9.4425e+01	2.1818	160.621482	0.000527	5.272555	1.786390	-0.000211
 951	9.4525e+01	2.1384	160.431737	0.000477	4.765579	1.614622	-0.000191
 952	9.4624e+01	2.1096	160.258140	0.000436	4.359997	1.477207	-0.000174
 953	9.4724e+01	2.0486	160.072432	0.000466	4.664183	1.580268	-0.000187
 954	9.4823e+01	2.0165	159.850390	0.000558	5.576741	1.889451	-0.000223
 955	9.4923e+01	1.9796	159.680830	0.000426	4.258602	1.442853	-0.000170
 956	9.5022e+01	1.9379	159.462825	0.000548	5.475346	1.855097	-0.000219
 957	9.5122e+01	1.8898	159.273079	0.000477	4.765579	1.614622	-0.000191
 958	9.5222e+01	1.8449	159.079297	0.000487	4.866974	1.648975	-0.000195
 959	9.5321e+01	1.8176	158.885514	0.000487	4.866974	1.648975	-0.000195
 960	9.5421e+01	1.7743	158.691732	0.000487	4.866974	1.648975	-0.000195
 961	9.5520e+01	1.7406	158.469689	0.000558	5.576741	1.889451	-0.000223
 962	9.5620e+01	1.6973	158.259758	0.000527	5.272555	1.786390	-0.000211
 963	9.5719e+01	1.6492	158.106347	0.000385	3.853021	1.305439	-0.000154
 964	9.5819e+01	1.6203	157.904490	0.000507	5.069764	1.717683	-0.000203
 965	9.5918e+01	1.5721	157.714745	0.000477	4.765579	1.614622	-0.000191
 966	9.6017e+01	1.5385	157.504814	0.000527	5.272555	1.786390	-0.000211
 967	9.6117e+01	1.5000	157.302957	0.000507	5.069764	1.717683	-0.000203
 968	9.6216e+01	1.4550	157.105137	0.000497	4.968369	1.683329	-0.000199
 969	9.6316e+01	1.4214	156.903280	0.000507	5.069764	1.717683	-0.000203
 970	9.6415e+01	1.3812	156.693349	0.000527	5.272555	1.786390	-0.000211
 971	9.6515e+01	1.3443	156.479381	0.000537	5.373950	1.820744	-0.000215
 972	9.6615e+01	1.3042	156.289636	0.000477	4.765579	1.614622	-0.000191
 973	9.6714e+01	1.2529	156.091816	0.000497	4.968369	1.683329	-0.000199
 974	9.6814e+01	1.2144	155.906108	0.000466	4.664183	1.580268	-0.000187
 975	9.6913e+01	1.1839	155.675991	0.000578	5.779532	1.958158	-0.000231
 976	9.7013e+01	1.1310	155.494320	0.000456	4.562788	1.545914	-0.000183
 977	9.7112e+01	1.1085	155.280352	0.000537	5.373950	1.820744	-0.000215
 978	9.7212e+01	1.0636	155.090607	0.000477	4.765579	1.614622	-0.000191
 979	9.7311e+01	1.0251	154.872601	0.000548	5.475346	1.855097	-0.000219
 980	9.7410e+01	0.9770	154.674782	0.000497	4.968369	1.683329	-0.000199
 981	9.7510e+01	0.9337	154.472925	0.000507	5.069764	1.717683	-0.000203
 982	9.7609e+01	0.8952	154.287217	0.000466	4.664183	1.580268	-0.000187
 983	9.7709e+01	0.8615	154.053063	0.000588	5.880927	1.992512	-0.000235
 984	9.7808e+01	0.8150	153.851206	0.000507	5.069764	1.717683	-0.000203
 985	9.7908e+01	0.7781	153.617052	0.000588	5.880927	1.992512	-0.000235
 986	9.8007e+01	0.7331	153.451529	0.000416	4.157207	1.408500	-0.000166
 987	9.8107e+01	0.6898	153.225450	0.000568	5.678136	1.923805	-0.000227
 988	9.8207e+01	0.6658	153.019556	0.000517	5.171160	1.752036	-0.000207
 989	9.8306e+01	0.6240	152.817699	0.000507	5.069764	1.717683	-0.000203
 990	9.8406e+01	0.5791	152.607768	0.000527	5.272555	1.786390	-0.000211
 991	9.8505e+01	0.5422	152.409948	0.000497	4.968369	1.683329	-0.000199
 992	9.8605e+01	0.4989	152.200017	0.000527	5.272555	1.786390	-0.000211
 993	9.8704e+01	0.4588	151.982012	0.000548	5.475346	1.855097	-0.000219
 994	9.8803e+01	0.4187	151.739784	0.000608	6.083717	2.061219	-0.000243
 995	9.8903e+01	0.3866	151.529853	0.000527	5.272555	1.786390	-0.000211
 996	9.9002e+01	0.3433	151.376442	0.000385	3.853021	1.305439	-0.000154
 997	9.9102e+01	0.3032	151.146325	0.000578	5.779532	1.958158	-0.000231
 998	9.9201e+01	0.2679	150.972728	0.000436	4.359997	1.477207	-0.000174
 999	9.9301e+01	0.2262	150.734537	0.000598	5.982322	2.026866	-0.000239
1000	9.9400e+01	0.1877	150.500383	0.000588	5.880927	1.992512	-0.000235
1001	9.9500e+01	0.1364	150.298526	0.000507	5.069764	1.717683	-0.000203
1002	9.9600e+01	0.1059	150.104744	0.000487	4.866974	1.648975	-0.000195
1003	9.9699e+01	0.0658	149.866553	0.000598	5.982322	2.026866	-0.000239
1004	9.9799e+01	0.0144	149.672770	0.000487	4.866974	1.648975	-0.000195
1005	9.9898e+01	-0.0144	149.531471	0.000355	3.548835	1.202378	-0.000142
1006	9.9998e+01	-0.0417	149.321540	0.000527	5.272555	1.786390	-0.000211
1007	1.0010e+02	-0.0914	149.091423	0.000578	5.779532	1.958158	-0.000231
1008	1.0020e+02	-0.1332	148.865343	0.000568	5.678136	1.923805	-0.000227
1009	1.0030e+02	-0.1604	148.671561	0.000487	4.866974	1.648975	-0.000195
1010	1.0040e+02	-0.2086	148.502001	0.000426	4.258602	1.442853	-0.000170
1011	1.0050e+02	-0.2471	148.292070	0.000527	5.272555	1.786390	-0.000211
1012	1.0059e+02	-0.2904	148.082139	0.000527	5.272555	1.786390	-0.000211
1013	1.0069e+02	-0.3305	147.880282	0.000507	5.069764	1.717683	-0.000203
1014	1.0079e+02	-0.3577	147.638054	0.000608	6.083717	2.061219	-0.000243
1015	1.0089e+02	-0.4123	147.476569	0.000406	4.055812	1.374146	-0.000162
1016	1.0099e+02	-0.4476	147.254526	0.000558	5.576741	1.889451	-0.000223
1017	1.0109e+02	-0.4813	147.060744	0.000487	4.866974	1.648975	-0.000195
1018	1.0119e+02	-0.5246	146.826590	0.000588	5.880927	1.992512	-0.000235
1019	1.0129e+02	-0.5695	146.628770	0.000497	4.968369	1.683329	-0.000199
1020	1.0139e+02	-0.6064	146.443062	0.000466	4.664183	1.580268	-0.000187
1021	1.0149e+02	-0.6417	146.216982	0.000568	5.678136	1.923805	-0.000227
1022	1.0159e+02	-0.6882	145.990903	0.000568	5.678136	1.923805	-0.000227
1023	1.0169e+02	-0.7203	145.821343	0.000426	4.258602	1.442853	-0.000170
1024	1.0179e+02	-0.7524	145.562966	0.000649	6.489299	2.198634	-0.000260
1025	1.0189e+02	-0.8133	145.413592	0.000375	3.751626	1.271085	-0.000150
1026	1.0199e+02	-0.8535	145.126956	0.000720	7.199066	2.439109	-0.000288
1027	1.0209e+02	-0.8936	144.969507	0.000395	3.954416	1.339793	-0.000158
1028	1.0219e+02	-0.9240	144.791873	0.000446	4.461393	1.511561	-0.000179
1029	1.0229e+02	-0.9657	144.525422	0.000669	6.692089	2.267341	-0.000268
1030	1.0239e+02	-1.0059	144.303380	0.000558	5.576741	1.889451	-0.000223
1031	1.0248e+02	-1.0444	144.089412	0.000537	5.373950	1.820744	-0.000215
1032	1.0258e+02	-1.0780	143.956186	0.000335	3.346045	1.133671	-0.000134
1033	1.0268e+02	-1.1294	143.697809	0.000649	6.489299	2.198634	-0.000260
1034	1.0278e+02	-1.1679	143.487878	0.000527	5.272555	1.786390	-0.000211
1035	1.0288e+02	-1.2144	143.265836	0.000558	5.576741	1.889451	-0.000223
1036	1.0298e+02	-1.2513	143.100313	0.000416	4.157207	1.408500	-0.000166
1037	1.0308e+02	-1.2914	142.854048	0.000619	6.185113	2.095573	-0.000248
1038	1.0318e+02	-1.3171	142.644117	0.000527	5.272555	1.786390	-0.000211
1039	1.0328e+02	-1.3764	142.474557	0.000426	4.258602	1.442853	-0.000170
1040	1.0338e+02	-1.4069	142.244441	0.000578	5.779532	1.958158	-0.000231
1041	1.0348e+02	-1.4390	142.042584	0.000507	5.069764	1.717683	-0.000203
1042	1.0358e+02	-1.4903	141.860913	0.000456	4.562788	1.545914	-0.000183
1043	1.0368e+02	-1.5240	141.650982	0.000527	5.272555	1.786390	-0.000211
1044	1.0378e+02	-1.5657	141.445088	0.000517	5.171160	1.752036	-0.000207
1045	1.0388e+02	-1.6026	141.223045	0.000558	5.576741	1.889451	-0.000223
1046	1.0398e+02	-1.6315	141.021188	0.000507	5.069764	1.717683	-0.000203
1047	1.0408e+02	-1.6941	140.803183	0.000548	5.475346	1.855097	-0.000219
1048	1.0418e+02	-1.7213	140.617475	0.000466	4.664183	1.580268	-0.000187
1049	1.0428e+02	-1.7631	140.403507	0.000537	5.373950	1.820744	-0.000215
1050	1.0438e+02	-1.8192	140.201650	0.000507	5.069764	1.717683	-0.000203
1051	1.0447e+02	-1.8336	139.987682	0.000537	5.373950	1.820744	-0.000215
1052	1.0457e+02	-1.8850	139.806011	0.000456	4.562788	1.545914	-0.000183
1053	1.0467e+02	-1.9267	139.583968	0.000558	5.576741	1.889451	-0.000223
1054	1.0477e+02	-1.9652	139.398260	0.000466	4.664183	1.580268	-0.000187
1055	1.0487e+02	-1.9892	139.196403	0.000507	5.069764	1.717683	-0.000203
1056	1.0497e+02	-2.0454	138.978398	0.000548	5.475346	1.855097	-0.000219
1057	1.0507e+02	-2.0839	138.780578	0.000497	4.968369	1.683329	-0.000199
1058	1.0517e+02	-2.1176	138.570647	0.000527	5.272555	1.786390	-0.000211
1059	1.0527e+02	-2.1641	138.352642	0.000548	5.475346	1.855097	-0.000219
1060	1.0537e+02	-2.1914	138.142711	0.000527	5.272555	1.786390	-0.000211
1061	1.0547e+02	-2.2523	137.932780	0.000527	5.272555	1.786390	-0.000211
1062	1.0557e+02	-2.2764	137.747071	0.000466	4.664183	1.580268	-0.000187
1063	1.0567e+02	-2.3229	137.557326	0.000477	4.765579	1.614622	-0.000191
1064	1.0577e+02	-2.3582	137.359506	0.000497	4.968369	1.683329	-0.000199
1065	1.0587e+02	-2.3951	137.165724	0.000487	4.866974	1.648975	-0.000195
1066	1.0597e+02	-2.4465	136.955793	0.000527	5.272555	1.786390	-0.000211
1067	1.0607e+02	-2.4850	136.757973	0.000497	4.968369	1.683329	-0.000199
1068	1.0617e+02	-2.5090	136.564191	0.000487	4.866974	1.648975	-0.000195
1069	1.0627e+02	-2.5588	136.374445	0.000477	4.765579	1.614622	-0.000191
1070	1.0637e+02	-2.5973	136.168551	0.000517	5.171160	1.752036	-0.000207
1071	1.0647e+02	-2.6438	135.978806	0.000477	4.765579	1.614622	-0.000191
1072	1.0656e+02	-2.6807	135.793098	0.000466	4.664183	1.580268	-0.000187
1073	1.0666e+02	-2.7160	135.583167	0.000527	5.272555	1.786390	-0.000211
1074	1.0676e+02	-2.7689	135.389384	0.000487	4.866974	1.648975	-0.000195
1075	1.0686e+02	-2.7914	135.155230	0.000588	5.880927	1.992512	-0.000235
1076	1.0696e+02	-2.8379	135.001819	0.000385	3.853021	1.305439	-0.000154
1077	1.0706e+02	-2.8796	134.775739	0.000568	5.678136	1.923805	-0.000227
1078	1.0716e+02	-2.9229	134.590031	0.000466	4.664183	1.580268	-0.000187
1079	1.0726e+02	-2.9614	134.380100	0.000527	5.272555	1.786390	-0.000211
1080	1.0736e+02	-2.9983	134.218615	0.000406	4.055812	1.374146	-0.000162
1081	1.0746e+02	-3.0336	134.012721	0.000517	5.171160	1.752036	-0.000207
1082	1.0756e+02	-3.0769	133.818938	0.000487	4.866974	1.648975	-0.000195
1083	1.0766e+02	-3.1202	133.633230	0.000466	4.664183	1.580268	-0.000187
1084	1.0776e+02	-3.1587	133.427336	0.000517	5.171160	1.752036	-0.000207
1085	1.0786e+02	-3.1988	133.209331	0.000548	5.475346	1.855097	-0.000219
1086	1.0796e+02	-3.2373	133.007474	0.000507	5.069764	1.717683	-0.000203
1087	1.0806e+02	-3.2887	132.825803	0.000456	4.562788	1.545914	-0.000183
1088	1.0816e+02	-3.3176	132.644132	0.000456	4.562788	1.545914	-0.000183
1089	1.0826e+02	-3.3561	132.422089	0.000558	5.576741	1.889451	-0.000223
1090	1.0836e+02	-3.3978	132.236381	0.000466	4.664183	1.580268	-0.000187
1091	1.0845e+02	-3.4331	132.054710	0.000456	4.562788	1.545914	-0.000183
1092	1.0855e+02	-3.4780	131.844779	0.000527	5.272555	1.786390	-0.000211
1093	1.0865e+02	-3.5085	131.683294	0.000406	4.055812	1.374146	-0.000162
1094	1.0875e+02	-3.5518	131.481437	0.000507	5.069764	1.717683	-0.000203
1095	1.0885e+02	-3.5887	131.247283	0.000588	5.880927	1.992512	-0.000235
1096	1.0895e+02	-3.6448	131.065612	0.000456	4.562788	1.545914	-0.000183
1097	1.0905e+02	-3.6785	130.883941	0.000456	4.562788	1.545914	-0.000183
1098	1.0915e+02	-3.7170	130.682084	0.000507	5.069764	1.717683	-0.000203
1099	1.0925e+02	-3.7571	130.447930	0.000588	5.880927	1.992512	-0.000235
1100	1.0935e+02	-3.8004	130.294519	0.000385	3.853021	1.305439	-0.000154
1101	1.0945e+02	-3.8277	130.068439	0.000568	5.678136	1.923805	-0.000227
1102	1.0955e+02	-3.8742	129.906954	0.000406	4.055812	1.374146	-0.000162
1103	1.0965e+02	-3.9159	129.709134	0.000497	4.968369	1.683329	-0.000199
1104	1.0975e+02	-3.9609	129.470943	0.000598	5.982322	2.026866	-0.000239
1105	1.0985e+02	-3.9881	129.341755	0.000324	3.244649	1.099317	-0.000130
1106	1.0995e+02	-4.0250	129.079341	0.000659	6.590694	2.232988	-0.000264
1107	1.1005e+02	-4.0748	128.889596	0.000477	4.765579	1.614622	-0.000191
1108	1.1015e+02	-4.1100	128.715999	0.000436	4.359997	1.477207	-0.000174
1109	1.1025e+02	-4.1534	128.558550	0.000395	3.954416	1.339793	-0.000158
1110	1.1035e+02	-4.1967	128.348619	0.000527	5.272555	1.786390	-0.000211
1111	1.1044e+02	-4.2255	128.199245	0.000375	3.751626	1.271085	-0.000150
1112	1.1054e+02	-4.2657	127.977203	0.000558	5.576741	1.889451	-0.000223
1113	1.1064e+02	-4.3122	127.791495	0.000466	4.664183	1.580268	-0.000187
1114	1.1074e+02	-4.3507	127.561378	0.000578	5.779532	1.958158	-0.000231
1115	1.1084e+02	-4.4004	127.395855	0.000416	4.157207	1.408500	-0.000166
1116	1.1094e+02	-4.4245	127.193999	0.000507	5.069764	1.717683	-0.000203
1117	1.1104e+02	-4.4646	127.004253	0.000477	4.765579	1.614622	-0.000191
1118	1.1114e+02	-4.5127	126.838731	0.000416	4.157207	1.408500	-0.000166
1119	1.1124e+02	-4.5528	126.612651	0.000568	5.678136	1.923805	-0.000227
1120	1.1134e+02	-4.5977	126.447128	0.000416	4.157207	1.408500	-0.000166
1121	1.1144e+02	-4.6298	126.229123	0.000548	5.475346	1.855097	-0.000219
1122	1.1154e+02	-4.6731	126.071675	0.000395	3.954416	1.339793	-0.000158
1123	1.1164e+02	-4.7116	125.877892	0.000487	4.866974	1.648975	-0.000195
1124	1.1174e+02	-4.7582	125.688147	0.000477	4.765579	1.614622	-0.000191
1125	1.1184e+02	-4.7902	125.494364	0.000487	4.866974	1.648975	-0.000195
1126	1.1194e+02	-4.8368	125.332879	0.000406	4.055812	1.374146	-0.000162
1127	1.1204e+02	-4.8737	125.102762	0.000578	5.779532	1.958158	-0.000231
1128	1.1214e+02	-4.9090	124.921091	0.000456	4.562788	1.545914	-0.000183
1129	1.1224e+02	-4.9539	124.727309	0.000487	4.866974	1.648975	-0.000195
1130	1.1234e+02	-4.9988	124.541600	0.000466	4.664183	1.580268	-0.000187
1131	1.1244e+02	-5.0373	124.347818	0.000487	4.866974	1.648975	-0.000195
1132	1.1253e+02	-5.0742	124.198444	0.000375	3.751626	1.271085	-0.000150
1133	1.1263e+02	-5.1095	123.976401	0.000558	5.576741	1.889451	-0.000223
1134	1.1273e+02	-5.1560	123.782619	0.000487	4.866974	1.648975	-0.000195
1135	1.1283e+02	-5.1993	123.580762	0.000507	5.069764	1.717683	-0.000203
1136	1.1293e+02	-5.2298	123.427351	0.000385	3.853021	1.305439	-0.000154
1137	1.1303e+02	-5.2603	123.225494	0.000507	5.069764	1.717683	-0.000203
1138	1.1313e+02	-5.3132	123.027674	0.000497	4.968369	1.683329	-0.000199
1139	1.1323e+02	-5.3517	122.846003	0.000456	4.562788	1.545914	-0.000183
1140	1.1333e+02	-5.3822	122.668369	0.000446	4.461393	1.511561	-0.000179
1141	1.1343e+02	-5.4191	122.482661	0.000466	4.664183	1.580268	-0.000187
1142	1.1353e+02	-5.4720	122.313101	0.000426	4.258602	1.442853	-0.000170
1143	1.1363e+02	-5.4993	122.095096	0.000548	5.475346	1.855097	-0.000219
1144	1.1373e+02	-5.5458	121.901314	0.000487	4.866974	1.648975	-0.000195
1145	1.1383e+02	-5.5891	121.715605	0.000466	4.664183	1.580268	-0.000187
1146	1.1393e+02	-5.6325	121.570268	0.000365	3.650230	1.236732	-0.000146
1147	1.1403e+02	-5.6613	121.324003	0.000619	6.185113	2.095573	-0.000248
1148	1.1413e+02	-5.7047	121.194815	0.000324	3.244649	1.099317	-0.000130
1149	1.1423e+02	-5.7432	120.968735	0.000568	5.678136	1.923805	-0.000227
1150	1.1433e+02	-5.7849	120.766878	0.000507	5.069764	1.717683	-0.000203
1151	1.1442e+02	-5.8378	120.581170	0.000466	4.664183	1.580268	-0.000187
1152	1.1452e+02	-5.8538	120.391425	0.000477	4.765579	1.614622	-0.000191
1153	1.1462e+02	-5.9068	120.197642	0.000487	4.866974	1.648975	-0.000195
1154	1.1472e+02	-5.9501	120.015971	0.000456	4.562788	1.545914	-0.000183
1155	1.1482e+02	-5.9822	119.834300	0.000456	4.562788	1.545914	-0.000183
1156	1.1492e+02	-6.0223	119.644555	0.000477	4.765579	1.614622	-0.000191
1157	1.1502e+02	-6.0688	119.446735	0.000497	4.968369	1.683329	-0.000199
1158	1.1512e+02	-6.1057	119.277175	0.000426	4.258602	1.442853	-0.000170
1159	1.1522e+02	-6.1442	119.111653	0.000416	4.157207	1.408500	-0.000166
1160	1.1532e+02	-6.1795	118.885573	0.000568	5.678136	1.923805	-0.000227
1161	1.1542e+02	-6.2276	118.703902	0.000456	4.562788	1.545914	-0.000183
1162	1.1552e+02	-6.2613	118.510120	0.000487	4.866974	1.648975	-0.000195
1163	1.1562e+02	-6.3078	118.356708	0.000385	3.853021	1.305439	-0.000154
1164	1.1572e+02	-6.3399	118.166963	0.000477	4.765579	1.614622	-0.000191
1165	1.1582e+02	-6.3832	117.961069	0.000517	5.171160	1.752036	-0.000207
1166	1.1592e+02	-6.4201	117.751138	0.000527	5.272555	1.786390	-0.000211
1167	1.1602e+02	-6.4651	117.605801	0.000365	3.650230	1.236732	-0.000146
1168	1.1612e+02	-6.5004	117.460464	0.000365	3.650230	1.236732	-0.000146
1169	1.1622e+02	-6.5421	117.230348	0.000578	5.779532	1.958158	-0.000231
1170	1.1632e+02	-6.5806	117.052714	0.000446	4.461393	1.511561	-0.000179
1171	1.1642e+02	-6.6175	116.850857	0.000507	5.069764	1.717683	-0.000203
1172	1.1651e+02	-6.6592	116.693409	0.000395	3.954416	1.339793	-0.000158
1173	1.1661e+02	-6.6993	116.515775	0.000446	4.461393	1.511561	-0.000179
1174	1.1671e+02	-6.7298	116.281621	0.000588	5.880927	1.992512	-0.000235
1175	1.1681e+02	-6.7827	116.140321	0.000355	3.548835	1.202378	-0.000142
1176	1.1691e+02	-6.8148	115.950576	0.000477	4.765579	1.614622	-0.000191
1177	1.1701e+02	-6.8565	115.756793	0.000487	4.866974	1.648975	-0.000195
1178	1.1711e+02	-6.8950	115.542825	0.000537	5.373950	1.820744	-0.000215
1179	1.1721e+02	-6.9383	115.401525	0.000355	3.548835	1.202378	-0.000142
1180	1.1731e+02	-6.9832	115.195631	0.000517	5.171160	1.752036	-0.000207
1181	1.1741e+02	-7.0217	115.038183	0.000395	3.954416	1.339793	-0.000158
1182	1.1751e+02	-7.0618	114.876697	0.000406	4.055812	1.374146	-0.000162
1183	1.1761e+02	-7.0987	114.690989	0.000466	4.664183	1.580268	-0.000187
1184	1.1771e+02	-7.1324	114.472984	0.000548	5.475346	1.855097	-0.000219
1185	1.1781e+02	-7.1886	114.279201	0.000487	4.866974	1.648975	-0.000195
1186	1.1791e+02	-7.2223	114.137902	0.000355	3.548835	1.202378	-0.000142
1187	1.1801e+02	-7.2543	113.964305	0.000436	4.359997	1.477207	-0.000174
1188	1.1811e+02	-7.3041	113.750337	0.000537	5.373950	1.820744	-0.000215
1189	1.1821e+02	-7.3346	113.568665	0.000456	4.562788	1.545914	-0.000183
1190	1.1831e+02	-7.3682	113.386994	0.000456	4.562788	1.545914	-0.000183
1191	1.1841e+02	-7.4164	113.249732	0.000345	3.447440	1.168024	-0.000138
1192	1.1850e+02	-7.4436	113.047875	0.000507	5.069764	1.717683	-0.000203
1193	1.1860e+02	-7.4934	112.854092	0.000487	4.866974	1.648975	-0.000195
1194	1.1870e+02	-7.5351	112.688570	0.000416	4.157207	1.408500	-0.000166
1195	1.1880e+02	-7.5720	112.486713	0.000507	5.069764	1.717683	-0.000203
1196	1.1890e+02	-7.6137	112.296968	0.000477	4.765579	1.614622	-0.000191
1197	1.1900e+02	-7.6586	112.103185	0.000487	4.866974	1.648975	-0.000195
1198	1.1910e+02	-7.7003	111.953811	0.000375	3.751626	1.271085	-0.000150
1199	1.1920e+02	-7.7356	111.812511	0.000355	3.548835	1.202378	-0.000142
1200	1.1930e+02	-7.7725	111.594506	0.000548	5.475346	1.855097	-0.000219
1201	1.1940e+02	-7.8190	111.428984	0.000416	4.157207	1.408500	-0.000166
1202	1.1950e+02	-7.8559	111.227127	0.000507	5.069764	1.717683	-0.000203
1203	1.1960e+02	-7.8960	111.041418	0.000466	4.664183	1.580268	-0.000187
1204	1.1970e+02	-7.9393	110.859747	0.000456	4.562788	1.545914	-0.000183
1205	1.1980e+02	-7.9778	110.674039	0.000466	4.664183	1.580268	-0.000187
1206	1.1990e+02	-8.0164	110.496405	0.000446	4.461393	1.511561	-0.000179
1207	1.2000e+02	-8.0532	110.330883	0.000416	4.157207	1.408500	-0.000166
1208	1.2010e+02	-8.0982	110.137100	0.000487	4.866974	1.648975	-0.000195
1209	1.2020e+02	-8.1367	110.020023	0.000294	2.940463	0.996256	-0.000118
1210	1.2030e+02	-8.1800	109.797981	0.000558	5.576741	1.889451	-0.000223
1211	1.2039e+02	-8.2185	109.640532	0.000395	3.954416	1.339793	-0.000158
1212	1.2049e+02	-8.2506	109.434638	0.000517	5.171160	1.752036	-0.000207
1213	1.2059e+02	-8.2987	109.277190	0.000395	3.954416	1.339793	-0.000158
1214	1.2069e+02	-8.3388	109.087445	0.000477	4.765579	1.614622	-0.000191
1215	1.2079e+02	-8.3725	108.889625	0.000497	4.968369	1.683329	-0.000199
1216	1.2089e+02	-8.4158	108.732177	0.000395	3.954416	1.339793	-0.000158
1217	1.2099e+02	-8.4655	108.542431	0.000477	4.765579	1.614622	-0.000191
1218	1.2109e+02	-8.4928	108.344612	0.000497	4.968369	1.683329	-0.000199
1219	1.2119e+02	-8.5361	108.231572	0.000284	2.839068	0.961902	-0.000114
1220	1.2129e+02	-8.5682	108.017604	0.000537	5.373950	1.820744	-0.000215
1221	1.2139e+02	-8.6115	107.848044	0.000426	4.258602	1.442853	-0.000170
1222	1.2149e+02	-8.6580	107.682522	0.000416	4.157207	1.408500	-0.000166
1223	1.2159e+02	-8.7030	107.500850	0.000456	4.562788	1.545914	-0.000183
1224	1.2169e+02	-8.7350	107.363588	0.000345	3.447440	1.168024	-0.000138
1225	1.2179e+02	-8.7784	107.157694	0.000517	5.171160	1.752036	-0.000207
1226	1.2189e+02	-8.8121	106.976023	0.000456	4.562788	1.545914	-0.000183
1227	1.2199e+02	-8.8473	106.806463	0.000426	4.258602	1.442853	-0.000170
1228	1.2209e+02	-8.8874	106.657089	0.000375	3.751626	1.271085	-0.000150
1229	1.2219e+02	-8.9292	106.443121	0.000537	5.373950	1.820744	-0.000215
1230	1.2229e+02	-8.9677	106.293747	0.000375	3.751626	1.271085	-0.000150
1231	1.2239e+02	-9.0126	106.116113	0.000446	4.461393	1.511561	-0.000179
1232	1.2248e+02	-9.0511	105.982887	0.000335	3.346045	1.133671	-0.000134
1233	1.2258e+02	-9.0960	105.760845	0.000558	5.576741	1.889451	-0.000223
1234	1.2268e+02	-9.1313	105.607434	0.000385	3.853021	1.305439	-0.000154
1235	1.2278e+02	-9.1762	105.437874	0.000426	4.258602	1.442853	-0.000170
1236	1.2288e+02	-9.2099	105.276389	0.000406	4.055812	1.374146	-0.000162
1237	1.2298e+02	-9.2516	105.122977	0.000385	3.853021	1.305439	-0.000154
1238	1.2308e+02	-9.2885	104.917084	0.000517	5.171160	1.752036	-0.000207
1239	1.2318e+02	-9.3382	104.747524	0.000426	4.258602	1.442853	-0.000170
1240	1.2328e+02	-9.3816	104.569890	0.000446	4.461393	1.511561	-0.000179
1241	1.2338e+02	-9.4201	104.396293	0.000436	4.359997	1.477207	-0.000174
1242	1.2348e+02	-9.4457	104.254993	0.000355	3.548835	1.202378	-0.000142
1243	1.2358e+02	-9.4906	104.077359	0.000446	4.461393	1.511561	-0.000179
1244	1.2368e+02	-9.5243	103.891651	0.000466	4.664183	1.580268	-0.000187
1245	1.2378e+02	-9.5789	103.726129	0.000416	4.157207	1.408500	-0.000166
1246	1.2388e+02	-9.6013	103.564643	0.000406	4.055812	1.374146	-0.000162
1247	1.2398e+02	-9.6463	103.399121	0.000416	4.157207	1.408500	-0.000166
1248	1.2408e+02	-9.6960	103.237635	0.000406	4.055812	1.374146	-0.000162
1249	1.2418e+02	-9.7281	103.072113	0.000416	4.157207	1.408500	-0.000166
1250	1.2428e+02	-9.7746	102.890441	0.000456	4.562788	1.545914	-0.000183
1251	1.2438e+02	-9.8067	102.749142	0.000355	3.548835	1.202378	-0.000142
1252	1.2447e+02	-9.8420	102.567471	0.000456	4.562788	1.545914	-0.000183
1253	1.2457e+02	-9.8789	102.393874	0.000436	4.359997	1.477207	-0.000174
1254	1.2467e+02	-9.9254	102.232388	0.000406	4.055812	1.374146	-0.000162
1255	1.2477e+02	-9.9687	102.050717	0.000456	4.562788	1.545914	-0.000183
1256	1.2487e+02	-10.0104	101.909417	0.000355	3.548835	1.202378	-0.000142
1257	1.2497e+02	-10.0553	101.731783	0.000446	4.461393	1.511561	-0.000179
1258	1.2507e+02	-10.0874	101.550112	0.000456	4.562788	1.545914	-0.000183
1259	1.2517e+02	-10.1291	101.368441	0.000456	4.562788	1.545914	-0.000183
1260	1.2527e+02	-10.1789	101.198882	0.000426	4.258602	1.442853	-0.000170
1261	1.2537e+02	-10.2029	101.057582	0.000355	3.548835	1.202378	-0.000142
1262	1.2547e+02	-10.2462	100.855725	0.000507	5.069764	1.717683	-0.000203
1263	1.2557e+02	-10.2863	100.690202	0.000416	4.157207	1.408500	-0.000166
1264	1.2567e+02	-10.3297	100.516606	0.000436	4.359997	1.477207	-0.000174
1265	1.2577e+02	-10.3633	100.363194	0.000385	3.853021	1.305439	-0.000154
1266	1.2587e+02	-10.4002	100.213820	0.000375	3.751626	1.271085	-0.000150
1267	1.2597e+02	-10.4484	100.032149	0.000456	4.562788	1.545914	-0.000183
1268	1.2607e+02	-10.4949	99.870664	0.000406	4.055812	1.374146	-0.000162
1269	1.2617e+02	-10.5270	99.709178	0.000406	4.055812	1.374146	-0.000162
1270	1.2627e+02	-10.5719	99.535582	0.000436	4.359997	1.477207	-0.000174
1271	1.2636e+02	-10.6120	99.337762	0.000497	4.968369	1.683329	-0.000199
1272	1.2646e+02	-10.6457	99.192425	0.000365	3.650230	1.236732	-0.000146
1273	1.2656e+02	-10.6906	98.974420	0.000548	5.475346	1.855097	-0.000219
1274	1.2666e+02	-10.7275	98.825046	0.000375	3.751626	1.271085	-0.000150
1275	1.2676e+02	-10.7580	98.675672	0.000375	3.751626	1.271085	-0.000150
1276	1.2686e+02	-10.8077	98.510149	0.000416	4.157207	1.408500	-0.000166
1277	1.2696e+02	-10.8366	98.360775	0.000375	3.751626	1.271085	-0.000150
1278	1.2706e+02	-10.8815	98.183141	0.000446	4.461393	1.511561	-0.000179
1279	1.2716e+02	-10.9280	98.045879	0.000345	3.447440	1.168024	-0.000138
1280	1.2726e+02	-10.9730	97.844022	0.000507	5.069764	1.717683	-0.000203
1281	1.2736e+02	-10.9986	97.682536	0.000406	4.055812	1.374146	-0.000162
1282	1.2746e+02	-11.0467	97.537199	0.000365	3.650230	1.236732	-0.000146
1283	1.2756e+02	-11.0804	97.375714	0.000406	4.055812	1.374146	-0.000162
1284	1.2766e+02	-11.1141	97.185969	0.000477	4.765579	1.614622	-0.000191
1285	1.2776e+02	-11.1703	97.028520	0.000395	3.954416	1.339793	-0.000158
1286	1.2786e+02	-11.1991	96.850886	0.000446	4.461393	1.511561	-0.000179
1287	1.2796e+02	-11.2377	96.709587	0.000355	3.548835	1.202378	-0.000142
1288	1.2806e+02	-11.2890	96.540027	0.000426	4.258602	1.442853	-0.000170
1289	1.2816e+02	-11.3227	96.354319	0.000466	4.664183	1.580268	-0.000187
1290	1.2826e+02	-11.3692	96.172648	0.000456	4.562788	1.545914	-0.000183
1291	1.2835e+02	-11.4093	96.007125	0.000416	4.157207	1.408500	-0.000166
1292	1.2845e+02	-11.4414	95.898122	0.000274	2.737673	0.927549	-0.000110
1293	1.2855e+02	-11.4831	95.704340	0.000487	4.866974	1.648975	-0.000195
1294	1.2865e+02	-11.5248	95.559003	0.000365	3.650230	1.236732	-0.000146
1295	1.2875e+02	-11.5649	95.353109	0.000517	5.171160	1.752036	-0.000207
1296	1.2885e+02	-11.5986	95.207772	0.000365	3.650230	1.236732	-0.000146
1297	1.2895e+02	-11.6451	95.034175	0.000436	4.359997	1.477207	-0.000174
1298	1.2905e+02	-11.6740	94.852504	0.000456	4.562788	1.545914	-0.000183
1299	1.2915e+02	-11.7285	94.707167	0.000365	3.650230	1.236732	-0.000146
1300	1.2925e+02	-11.7638	94.541645	0.000416	4.157207	1.408500	-0.000166
1301	1.2935e+02	-11.8088	94.384196	0.000395	3.954416	1.339793	-0.000158
1302	1.2945e+02	-11.8344	94.234822	0.000375	3.751626	1.271085	-0.000150
1303	1.2955e+02	-11.8842	94.073337	0.000406	4.055812	1.374146	-0.000162
1304	1.2965e+02	-11.9162	93.883592	0.000477	4.765579	1.614622	-0.000191
1305	1.2975e+02	-11.9515	93.766515	0.000294	2.940463	0.996256	-0.000118
1306	1.2985e+02	-12.0045	93.548509	0.000548	5.475346	1.855097	-0.000219
1307	1.2995e+02	-12.0414	93.399135	0.000375	3.751626	1.271085	-0.000150
1308	1.3005e+02	-12.0751	93.229576	0.000426	4.258602	1.442853	-0.000170
1309	1.3015e+02	-12.1264	93.055979	0.000436	4.359997	1.477207	-0.000174
1310	1.3025e+02	-12.1537	92.894493	0.000406	4.055812	1.374146	-0.000162
1311	1.3034e+02	-12.1938	92.716859	0.000446	4.461393	1.511561	-0.000179
1312	1.3044e+02	-12.2307	92.539225	0.000446	4.461393	1.511561	-0.000179
1313	1.3054e+02	-12.2756	92.401963	0.000345	3.447440	1.168024	-0.000138
1314	1.3064e+02	-12.3221	92.244514	0.000395	3.954416	1.339793	-0.000158
1315	1.3074e+02	-12.3510	92.078992	0.000416	4.157207	1.408500	-0.000166
1316	1.3084e+02	-12.3991	91.905395	0.000436	4.359997	1.477207	-0.000174
1317	1.3094e+02	-12.4472	91.743910	0.000406	4.055812	1.374146	-0.000162
1318	1.3104e+02	-12.4841	91.538016	0.000517	5.171160	1.752036	-0.000207
1319	1.3114e+02	-12.5226	91.429013	0.000274	2.737673	0.927549	-0.000110
1320	1.3124e+02	-12.5627	91.255416	0.000436	4.359997	1.477207	-0.000174
1321	1.3134e+02	-12.6012	91.077782	0.000446	4.461393	1.511561	-0.000179
1322	1.3144e+02	-12.6398	90.896111	0.000456	4.562788	1.545914	-0.000183
1323	1.3154e+02	-12.6783	90.726551	0.000426	4.258602	1.442853	-0.000170
1324	1.3164e+02	-12.7135	90.589289	0.000345	3.447440	1.168024	-0.000138
1325	1.3174e+02	-12.7553	90.391469	0.000497	4.968369	1.683329	-0.000199
1326	1.3184e+02	-12.7889	90.205761	0.000466	4.664183	1.580268	-0.000187
1327	1.3194e+02	-12.8387	90.072535	0.000335	3.346045	1.133671	-0.000134
1328	1.3204e+02	-12.8756	89.923161	0.000375	3.751626	1.271085	-0.000150
1329	1.3214e+02	-12.9189	89.733416	0.000477	4.765579	1.614622	-0.000191
1330	1.3224e+02	-12.9558	89.592116	0.000355	3.548835	1.202378	-0.000142
1331	1.3234e+02	-12.9943	89.434668	0.000395	3.954416	1.339793	-0.000158
1332	1.3243e+02	-13.0360	89.252997	0.000456	4.562788	1.545914	-0.000183
1333	1.3253e+02	-13.0777	89.095549	0.000395	3.954416	1.339793	-0.000158
1334	1.3263e+02	-13.1114	88.885618	0.000527	5.272555	1.786390	-0.000211
1335	1.3273e+02	-13.1563	88.732206	0.000385	3.853021	1.305439	-0.000154
1336	1.3283e+02	-13.1916	88.590907	0.000355	3.548835	1.202378	-0.000142
1337	1.3293e+02	-13.2317	88.429421	0.000406	4.055812	1.374146	-0.000162
1338	1.3303e+02	-13.2702	88.271973	0.000395	3.954416	1.339793	-0.000158
1339	1.3313e+02	-13.3167	88.082228	0.000477	4.765579	1.614622	-0.000191
1340	1.3323e+02	-13.3649	87.973225	0.000274	2.737673	0.927549	-0.000110
1341	1.3333e+02	-13.4018	87.775405	0.000497	4.968369	1.683329	-0.000199
1342	1.3343e+02	-13.4419	87.642180	0.000335	3.346045	1.133671	-0.000134
1343	1.3353e+02	-13.4804	87.452434	0.000477	4.765579	1.614622	-0.000191
1344	1.3363e+02	-13.5141	87.307097	0.000365	3.650230	1.236732	-0.000146
1345	1.3373e+02	-13.5574	87.113315	0.000487	4.866974	1.648975	-0.000195
1346	1.3383e+02	-13.5959	86.955867	0.000395	3.954416	1.339793	-0.000158
1347	1.3393e+02	-13.6360	86.802456	0.000385	3.853021	1.305439	-0.000154
1348	1.3403e+02	-13.6761	86.624822	0.000446	4.461393	1.511561	-0.000179
1349	1.3413e+02	-13.7242	86.459299	0.000416	4.157207	1.408500	-0.000166
1350	1.3423e+02	-13.7579	86.313962	0.000365	3.650230	1.236732	-0.000146
1351	1.3432e+02	-13.7884	86.144402	0.000426	4.258602	1.442853	-0.000170
1352	1.3442e+02	-13.8301	86.007140	0.000345	3.447440	1.168024	-0.000138
1353	1.3452e+02	-13.8734	85.825469	0.000456	4.562788	1.545914	-0.000183
1354	1.3462e+02	-13.9119	85.676095	0.000375	3.751626	1.271085	-0.000150
1355	1.3472e+02	-13.9616	85.490386	0.000466	4.664183	1.580268	-0.000187
1356	1.3482e+02	-13.9905	85.341012	0.000375	3.751626	1.271085	-0.000150
1357	1.3492e+02	-14.0338	85.219898	0.000304	3.041859	1.030610	-0.000122
1358	1.3502e+02	-14.0755	85.058413	0.000406	4.055812	1.374146	-0.000162
1359	1.3512e+02	-14.1044	84.896927	0.000406	4.055812	1.374146	-0.000162
1360	1.3522e+02	-14.1654	84.719293	0.000446	4.461393	1.511561	-0.000179
1361	1.3532e+02	-14.1943	84.545697	0.000436	4.359997	1.477207	-0.000174
1362	1.3542e+02	-14.2392	84.396323	0.000375	3.751626	1.271085	-0.000150
1363	1.3552e+02	-14.2809	84.230800	0.000416	4.157207	1.408500	-0.000166
1364	1.3562e+02	-14.3114	84.081426	0.000375	3.751626	1.271085	-0.000150
1365	1.3572e+02	-14.3515	83.895718	0.000466	4.664183	1.580268	-0.000187
1366	1.3582e+02	-14.3900	83.758455	0.000345	3.447440	1.168024	-0.000138
1367	1.3592e+02	-14.4285	83.588895	0.000426	4.258602	1.442853	-0.000170
1368	1.3602e+02	-14.4782	83.435484	0.000385	3.853021	1.305439	-0.000154
1369	1.3612e+02	-14.5135	83.286110	0.000375	3.751626	1.271085	-0.000150
1370	1.3622e+02	-14.5520	83.108476	0.000446	4.461393	1.511561	-0.000179
1371	1.3631e+02	-14.5857	82.930842	0.000446	4.461393	1.511561	-0.000179
1372	1.3641e+02	-14.6338	82.745134	0.000466	4.664183	1.580268	-0.000187
1373	1.3651e+02	-14.6659	82.632094	0.000284	2.839068	0.961902	-0.000114
1374	1.3661e+02	-14.6980	82.498869	0.000335	3.346045	1.133671	-0.000134
1375	1.3671e+02	-14.7477	82.325272	0.000436	4.359997	1.477207	-0.000174
1376	1.3681e+02	-14.7910	82.135527	0.000477	4.765579	1.614622	-0.000191
1377	1.3691e+02	-14.8375	81.986153	0.000375	3.751626	1.271085	-0.000150
1378	1.3701e+02	-14.8728	81.869076	0.000294	2.940463	0.996256	-0.000118
1379	1.3711e+02	-14.9097	81.727776	0.000355	3.548835	1.202378	-0.000142
1380	1.3721e+02	-14.9482	81.493622	0.000588	5.880927	1.992512	-0.000235
1381	1.3731e+02	-14.9835	81.332137	0.000406	4.055812	1.374146	-0.000162
1382	1.3741e+02	-15.0365	81.202948	0.000324	3.244649	1.099317	-0.000130
1383	1.3751e+02	-15.0670	81.041463	0.000406	4.055812	1.374146	-0.000162
1384	1.3761e+02	-15.1087	80.879977	0.000406	4.055812	1.374146	-0.000162
1385	1.3771e+02	-15.1472	80.734640	0.000365	3.650230	1.236732	-0.000146
1386	1.3781e+02	-15.1841	80.561044	0.000436	4.359997	1.477207	-0.000174
1387	1.3791e+02	-15.2210	80.448004	0.000284	2.839068	0.961902	-0.000114
1388	1.3801e+02	-15.2659	80.278444	0.000426	4.258602	1.442853	-0.000170
1389	1.3811e+02	-15.3108	80.116959	0.000406	4.055812	1.374146	-0.000162
1390	1.3821e+02	-15.3525	79.959510	0.000395	3.954416	1.339793	-0.000158
1391	1.3831e+02	-15.3814	79.789951	0.000426	4.258602	1.442853	-0.000170
1392	1.3840e+02	-15.4263	79.648651	0.000355	3.548835	1.202378	-0.000142
1393	1.3850e+02	-15.4568	79.491203	0.000395	3.954416	1.339793	-0.000158
1394	1.3860e+02	-15.5065	79.333754	0.000395	3.954416	1.339793	-0.000158
1395	1.3870e+02	-15.5482	79.192455	0.000355	3.548835	1.202378	-0.000142
1396	1.3880e+02	-15.5835	79.026932	0.000416	4.157207	1.408500	-0.000166
1397	1.3890e+02	-15.6332	78.901781	0.000314	3.143254	1.064963	-0.000126
1398	1.3900e+02	-15.6669	78.728184	0.000436	4.359997	1.477207	-0.000174
1399	1.3910e+02	-15.7038	78.562661	0.000416	4.157207	1.408500	-0.000166
1400	1.3920e+02	-15.7504	78.417325	0.000365	3.650230	1.236732	-0.000146
1401	1.3930e+02	-15.7776	78.259876	0.000395	3.954416	1.339793	-0.000158
1402	1.3940e+02	-15.8209	78.118577	0.000355	3.548835	1.202378	-0.000142
1403	1.3950e+02	-15.8675	77.961128	0.000395	3.954416	1.339793	-0.000158
1404	1.3960e+02	-15.9124	77.795606	0.000416	4.157207	1.408500	-0.000166
1405	1.3970e+02	-15.9381	77.613935	0.000456	4.562788	1.545914	-0.000183
1406	1.3980e+02	-15.9766	77.504932	0.000274	2.737673	0.927549	-0.000110
1407	1.3990e+02	-16.0215	77.363632	0.000355	3.548835	1.202378	-0.000142
1408	1.4000e+02	-16.0584	77.202147	0.000406	4.055812	1.374146	-0.000162
1409	1.4010e+02	-16.1113	77.028550	0.000436	4.359997	1.477207	-0.000174
1410	1.4020e+02	-16.1514	76.891287	0.000345	3.447440	1.168024	-0.000138
1411	1.4029e+02	-16.1819	76.721728	0.000426	4.258602	1.442853	-0.000170
1412	1.4039e+02	-16.2236	76.588502	0.000335	3.346045	1.133671	-0.000134
1413	1.4049e+02	-16.2589	76.414905	0.000436	4.359997	1.477207	-0.000174
1414	1.4059e+02	-16.2990	76.273605	0.000355	3.548835	1.202378	-0.000142
1415	1.4069e+02	-16.3455	76.124231	0.000375	3.751626	1.271085	-0.000150
1416	1.4079e+02	-16.3888	75.995043	0.000324	3.244649	1.099317	-0.000130
1417	1.4089e+02	-16.4241	75.813372	0.000456	4.562788	1.545914	-0.000183
1418	1.4099e+02	-16.4610	75.704369	0.000274	2.737673	0.927549	-0.000110
1419	1.4109e+02	-16.5027	75.538847	0.000416	4.157207	1.408500	-0.000166
1420	1.4119e+02	-16.5412	75.365250	0.000436	4.359997	1.477207	-0.000174
1421	1.4129e+02	-16.5781	75.223950	0.000355	3.548835	1.202378	-0.000142
1422	1.4139e+02	-16.6166	75.078613	0.000365	3.650230	1.236732	-0.000146
1423	1.4149e+02	-16.6616	74.900979	0.000446	4.461393	1.511561	-0.000179
1424	1.4159e+02	-16.7001	74.743531	0.000395	3.954416	1.339793	-0.000158
1425	1.4169e+02	-16.7370	74.590120	0.000385	3.853021	1.305439	-0.000154
1426	1.4179e+02	-16.7787	74.420560	0.000426	4.258602	1.442853	-0.000170
1427	1.4189e+02	-16.8268	74.327706	0.000233	2.332092	0.790134	-0.000093
1428	1.4199e+02	-16.8589	74.137961	0.000477	4.765579	1.614622	-0.000191
1429	1.4209e+02	-16.8958	74.004735	0.000335	3.346045	1.133671	-0.000134
1430	1.4219e+02	-16.9391	73.835176	0.000426	4.258602	1.442853	-0.000170
1431	1.4228e+02	-16.9824	73.693876	0.000355	3.548835	1.202378	-0.000142
1432	1.4238e+02	-17.0161	73.556613	0.000345	3.447440	1.168024	-0.000138
1433	1.4248e+02	-17.0530	73.362831	0.000487	4.866974	1.648975	-0.000195
1434	1.4258e+02	-17.1043	73.209419	0.000385	3.853021	1.305439	-0.000154
1435	1.4268e+02	-17.1460	73.023711	0.000466	4.664183	1.580268	-0.000187
1436	1.4278e+02	-17.1861	72.886449	0.000345	3.447440	1.168024	-0.000138
1437	1.4288e+02	-17.2246	72.745149	0.000355	3.548835	1.202378	-0.000142
1438	1.4298e+02	-17.2664	72.559441	0.000466	4.664183	1.580268	-0.000187
1439	1.4308e+02	-17.3145	72.422178	0.000345	3.447440	1.168024	-0.000138
1440	1.4318e+02	-17.3450	72.284915	0.000345	3.447440	1.168024	-0.000138
1441	1.4328e+02	-17.3754	72.127467	0.000395	3.954416	1.339793	-0.000158
1442	1.4338e+02	-17.4172	71.982130	0.000365	3.650230	1.236732	-0.000146
1443	1.4348e+02	-17.4621	71.812571	0.000426	4.258602	1.442853	-0.000170
1444	1.4358e+02	-17.5006	71.663196	0.000375	3.751626	1.271085	-0.000150
1445	1.4368e+02	-17.5375	71.505748	0.000395	3.954416	1.339793	-0.000158
1446	1.4378e+02	-17.5792	71.360411	0.000365	3.650230	1.236732	-0.000146
1447	1.4388e+02	-17.6209	71.202963	0.000395	3.954416	1.339793	-0.000158
1448	1.4398e+02	-17.6578	71.025329	0.000446	4.461393	1.511561	-0.000179
1449	1.4408e+02	-17.7011	70.912289	0.000284	2.839068	0.961902	-0.000114
1450	1.4418e+02	-17.7316	70.762915	0.000375	3.751626	1.271085	-0.000150
1451	1.4428e+02	-17.7765	70.552984	0.000527	5.272555	1.786390	-0.000211
1452	1.4437e+02	-17.8038	70.415722	0.000345	3.447440	1.168024	-0.000138
1453	1.4447e+02	-17.8663	70.234050	0.000456	4.562788	1.545914	-0.000183
1454	1.4457e+02	-17.8984	70.116973	0.000294	2.940463	0.996256	-0.000118
1455	1.4467e+02	-17.9369	69.967599	0.000375	3.751626	1.271085	-0.000150
1456	1.4477e+02	-17.9802	69.802077	0.000416	4.157207	1.408500	-0.000166
1457	1.4487e+02	-18.0187	69.664814	0.000345	3.447440	1.168024	-0.000138
1458	1.4497e+02	-18.0637	69.519477	0.000365	3.650230	1.236732	-0.000146
1459	1.4507e+02	-18.0974	69.345881	0.000436	4.359997	1.477207	-0.000174
1460	1.4517e+02	-18.1359	69.216692	0.000324	3.244649	1.099317	-0.000130
1461	1.4527e+02	-18.1760	69.030984	0.000466	4.664183	1.580268	-0.000187
1462	1.4537e+02	-18.2193	68.893721	0.000345	3.447440	1.168024	-0.000138
1463	1.4547e+02	-18.2546	68.724162	0.000426	4.258602	1.442853	-0.000170
1464	1.4557e+02	-18.2979	68.554602	0.000426	4.258602	1.442853	-0.000170
1465	1.4567e+02	-18.3332	68.364857	0.000477	4.765579	1.614622	-0.000191
1466	1.4577e+02	-18.3813	68.227594	0.000345	3.447440	1.168024	-0.000138
1467	1.4587e+02	-18.4150	68.086294	0.000355	3.548835	1.202378	-0.000142
1468	1.4597e+02	-18.4487	67.940957	0.000365	3.650230	1.236732	-0.000146
1469	1.4607e+02	-18.4920	67.787546	0.000385	3.853021	1.305439	-0.000154
1470	1.4617e+02	-18.5481	67.573578	0.000537	5.373950	1.820744	-0.000215
1471	1.4626e+02	-18.5754	67.448427	0.000314	3.143254	1.064963	-0.000126
1472	1.4636e+02	-18.6139	67.303090	0.000365	3.650230	1.236732	-0.000146
1473	1.4646e+02	-18.6604	67.125456	0.000446	4.461393	1.511561	-0.000179
1474	1.4656e+02	-18.7054	66.951859	0.000436	4.359997	1.477207	-0.000174
1475	1.4666e+02	-18.7326	66.814596	0.000345	3.447440	1.168024	-0.000138
1476	1.4676e+02	-18.7808	66.632925	0.000456	4.562788	1.545914	-0.000183
1477	1.4686e+02	-18.8225	66.503737	0.000324	3.244649	1.099317	-0.000130
1478	1.4696e+02	-18.8578	66.318029	0.000466	4.664183	1.580268	-0.000187
1479	1.4706e+02	-18.8914	66.144432	0.000436	4.359997	1.477207	-0.000174
1480	1.4716e+02	-18.9412	65.991021	0.000385	3.853021	1.305439	-0.000154
1481	1.4726e+02	-18.9781	65.833572	0.000395	3.954416	1.339793	-0.000158
1482	1.4736e+02	-19.0118	65.672087	0.000406	4.055812	1.374146	-0.000162
1483	1.4746e+02	-19.0535	65.538862	0.000335	3.346045	1.133671	-0.000134
1484	1.4756e+02	-19.0904	65.393525	0.000365	3.650230	1.236732	-0.000146
1485	1.4766e+02	-19.1337	65.203779	0.000477	4.765579	1.614622	-0.000191
1486	1.4776e+02	-19.1706	65.034220	0.000426	4.258602	1.442853	-0.000170
1487	1.4786e+02	-19.2219	64.880808	0.000385	3.853021	1.305439	-0.000154
1488	1.4796e+02	-19.2524	64.719323	0.000406	4.055812	1.374146	-0.000162
1489	1.4806e+02	-19.3021	64.525541	0.000487	4.866974	1.648975	-0.000195
1490	1.4816e+02	-19.3310	64.360018	0.000416	4.157207	1.408500	-0.000166
1491	1.4825e+02	-19.3775	64.194495	0.000416	4.157207	1.408500	-0.000166
1492	1.4835e+02	-19.4096	64.012824	0.000456	4.562788	1.545914	-0.000183
1493	1.4845e+02	-19.4545	63.839227	0.000436	4.359997	1.477207	-0.000174
1494	1.4855e+02	-19.4946	63.738299	0.000253	2.534882	0.858841	-0.000101
1495	1.4865e+02	-19.5267	63.536442	0.000507	5.069764	1.717683	-0.000203
1496	1.4875e+02	-19.5716	63.366883	0.000426	4.258602	1.442853	-0.000170
1497	1.4885e+02	-19.6085	63.213471	0.000385	3.853021	1.305439	-0.000154
1498	1.4895e+02	-19.6454	63.019689	0.000487	4.866974	1.648975	-0.000195
1499	1.4905e+02	-19.6968	62.894538	0.000314	3.143254	1.064963	-0.000126
1500	1.4915e+02	-19.7273	62.688644	0.000517	5.171160	1.752036	-0.000207
1501	1.4925e+02	-19.7690	62.555418	0.000335	3.346045	1.133671	-0.000134
1502	1.4935e+02	-19.8075	62.357599	0.000497	4.968369	1.683329	-0.000199
1503	1.4945e+02	-19.8476	62.179965	0.000446	4.461393	1.511561	-0.000179
1504	1.4955e+02	-19.8877	62.042702	0.000345	3.447440	1.168024	-0.000138
1505	1.4965e+02	-19.9342	61.844882	0.000497	4.968369	1.683329	-0.000199
1506	1.4975e+02	-19.9631	61.679360	0.000416	4.157207	1.408500	-0.000166
1507	1.4985e+02	-20.0048	61.493652	0.000466	4.664183	1.580268	-0.000187
1508	1.4995e+02	-19.9791	61.614766	0.000304	3.041859	1.030610	0.000122
1509	1.5005e+02	-19.9422	61.638988	0.000061	0.608372	0.206122	0.000024
1510	1.5015e+02	-19.8925	61.715694	0.000193	1.926511	0.652719	0.000077
1511	1.5025e+02	-19.8476	61.820660	0.000264	2.636278	0.893195	0.000105
1512	1.5034e+02	-19.8091	61.893328	0.000183	1.825115	0.618366	0.000073
1513	1.5044e+02	-19.7722	61.998294	0.000264	2.636278	0.893195	0.000105
1514	1.5054e+02	-19.7273	62.054813	0.000142	1.419534	0.480951	0.000057
1515	1.5064e+02	-19.6839	62.139593	0.000213	2.129301	0.721427	0.000085
1516	1.5074e+02	-19.6454	62.224373	0.000213	2.129301	0.721427	0.000085
1517	1.5084e+02	-19.6230	62.329339	0.000264	2.636278	0.893195	0.000105
1518	1.5094e+02	-19.5636	62.446416	0.000294	2.940463	0.996256	0.000118
1519	1.5104e+02	-19.5283	62.523121	0.000193	1.926511	0.652719	0.000077
1520	1.5114e+02	-19.4898	62.607901	0.000213	2.129301	0.721427	0.000085
1521	1.5124e+02	-19.4545	62.688644	0.000203	2.027906	0.687073	0.000081
1522	1.5134e+02	-19.4112	62.785535	0.000243	2.433487	0.824488	0.000097
1523	1.5144e+02	-19.3663	62.898575	0.000284	2.839068	0.961902	0.000114
1524	1.5154e+02	-19.3326	62.975280	0.000193	1.926511	0.652719	0.000077
1525	1.5164e+02	-19.2941	63.092357	0.000294	2.940463	0.996256	0.000118
1526	1.5174e+02	-19.2460	63.185211	0.000233	2.332092	0.790134	0.000093
1527	1.5184e+02	-19.2123	63.269991	0.000213	2.129301	0.721427	0.000085
1528	1.5194e+02	-19.1706	63.346697	0.000193	1.926511	0.652719	0.000077
1529	1.5204e+02	-19.1257	63.487997	0.000355	3.548835	1.202378	0.000142
1530	1.5214e+02	-19.0936	63.548554	0.000152	1.520929	0.515305	0.000061
1531	1.5224e+02	-19.0487	63.669668	0.000304	3.041859	1.030610	0.000122
1532	1.5233e+02	-19.0150	63.770596	0.000253	2.534882	0.858841	0.000101
1533	1.5243e+02	-18.9829	63.895747	0.000314	3.143254	1.064963	0.000126
1534	1.5253e+02	-18.9267	63.964379	0.000172	1.723720	0.584012	0.000069
1535	1.5263e+02	-18.9027	64.085493	0.000304	3.041859	1.030610	0.000122
1536	1.5273e+02	-18.8562	64.198533	0.000284	2.839068	0.961902	0.000114
1537	1.5283e+02	-18.8160	64.299461	0.000253	2.534882	0.858841	0.000101
1538	1.5293e+02	-18.7679	64.412501	0.000284	2.839068	0.961902	0.000114
1539	1.5303e+02	-18.7390	64.481132	0.000172	1.723720	0.584012	0.000069
1540	1.5313e+02	-18.6893	64.569949	0.000223	2.230696	0.755780	0.000089
1541	1.5323e+02	-18.6476	64.715286	0.000365	3.650230	1.236732	0.000146
1542	1.5333e+02	-18.6123	64.783917	0.000172	1.723720	0.584012	0.000069
1543	1.5343e+02	-18.5770	64.945403	0.000406	4.055812	1.374146	0.000162
1544	1.5353e+02	-18.5385	65.042294	0.000243	2.433487	0.824488	0.000097
1545	1.5363e+02	-18.5016	65.114962	0.000183	1.825115	0.618366	0.000073
1546	1.5373e+02	-18.4567	65.264336	0.000375	3.751626	1.271085	0.000150
1547	1.5383e+02	-18.4150	65.365265	0.000253	2.534882	0.858841	0.000101
1548	1.5393e+02	-18.3781	65.462156	0.000243	2.433487	0.824488	0.000097
1549	1.5403e+02	-18.3332	65.571159	0.000274	2.737673	0.927549	0.000110
1550	1.5413e+02	-18.3059	65.700347	0.000324	3.244649	1.099317	0.000130
1551	1.5422e+02	-18.2514	65.801275	0.000253	2.534882	0.858841	0.000101
1552	1.5432e+02	-18.2209	65.898167	0.000243	2.433487	0.824488	0.000097
1553	1.5442e+02	-18.1776	66.003132	0.000264	2.636278	0.893195	0.000105
1554	1.5452e+02	-18.1342	66.136358	0.000335	3.346045	1.133671	0.000134
1555	1.5462e+02	-18.0974	66.245360	0.000274	2.737673	0.927549	0.000110
1556	1.5472e+02	-18.0508	66.366474	0.000304	3.041859	1.030610	0.000122
1557	1.5482e+02	-18.0268	66.475477	0.000274	2.737673	0.927549	0.000110
1558	1.5492e+02	-17.9786	66.588517	0.000284	2.839068	0.961902	0.000114
1559	1.5502e+02	-17.9433	66.669260	0.000203	2.027906	0.687073	0.000081
1560	1.5512e+02	-17.8968	66.814596	0.000365	3.650230	1.236732	0.000146
1561	1.5522e+02	-17.8599	66.923599	0.000274	2.737673	0.927549	0.000110
1562	1.5532e+02	-17.8214	67.072973	0.000375	3.751626	1.271085	0.000150
1563	1.5542e+02	-17.7829	67.169864	0.000243	2.433487	0.824488	0.000097
1564	1.5552e+02	-17.7380	67.282904	0.000284	2.839068	0.961902	0.000114
1565	1.5562e+02	-17.6995	67.383833	0.000253	2.534882	0.858841	0.000101
1566	1.5572e+02	-17.6642	67.480724	0.000243	2.433487	0.824488	0.000097
1567	1.5582e+02	-17.6209	67.622024	0.000355	3.548835	1.202378	0.000142
1568	1.5592e+02	-17.5760	67.751212	0.000324	3.244649	1.099317	0.000130
1569	1.5602e+02	-17.5343	67.848103	0.000243	2.433487	0.824488	0.000097
1570	1.5612e+02	-17.5070	67.977292	0.000324	3.244649	1.099317	0.000130
1571	1.5622e+02	-17.4524	68.126666	0.000375	3.751626	1.271085	0.000150
1572	1.5631e+02	-17.4156	68.235668	0.000274	2.737673	0.927549	0.000110
1573	1.5641e+02	-17.3787	68.360819	0.000314	3.143254	1.064963	0.000126
1574	1.5651e+02	-17.3418	68.477896	0.000294	2.940463	0.996256	0.000118
1575	1.5661e+02	-17.2984	68.574788	0.000243	2.433487	0.824488	0.000097
1576	1.5671e+02	-17.2648	68.691865	0.000294	2.940463	0.996256	0.000118
1577	1.5681e+02	-17.2279	68.825090	0.000335	3.346045	1.133671	0.000134
1578	1.5691e+02	-17.1845	68.978501	0.000385	3.853021	1.305439	0.000154
1579	1.5701e+02	-17.1332	69.087504	0.000274	2.737673	0.927549	0.000110
1580	1.5711e+02	-17.0947	69.204581	0.000294	2.940463	0.996256	0.000118
1581	1.5721e+02	-17.0578	69.289361	0.000213	2.129301	0.721427	0.000085
1582	1.5731e+02	-17.0241	69.454883	0.000416	4.157207	1.408500	0.000166
1583	1.5741e+02	-16.9856	69.563886	0.000274	2.737673	0.927549	0.000110
1584	1.5751e+02	-16.9391	69.709223	0.000365	3.650230	1.236732	0.000146
1585	1.5761e+02	-16.9086	69.830337	0.000304	3.041859	1.030610	0.000122
1586	1.5771e+02	-16.8653	69.939340	0.000274	2.737673	0.927549	0.000110
1587	1.5781e+02	-16.8252	70.060454	0.000304	3.041859	1.030610	0.000122
1588	1.5791e+02	-16.7787	70.205790	0.000365	3.650230	1.236732	0.000146
1589	1.5801e+02	-16.7386	70.343053	0.000345	3.447440	1.168024	0.000138
1590	1.5811e+02	-16.7097	70.456093	0.000284	2.839068	0.961902	0.000114
1591	1.5821e+02	-16.6648	70.565096	0.000274	2.737673	0.927549	0.000110
1592	1.5830e+02	-16.6295	70.698321	0.000335	3.346045	1.133671	0.000134
1593	1.5840e+02	-16.5830	70.827509	0.000324	3.244649	1.099317	0.000130
1594	1.5850e+02	-16.5445	70.948623	0.000304	3.041859	1.030610	0.000122
1595	1.5860e+02	-16.4995	71.073775	0.000314	3.143254	1.064963	0.000126
1596	1.5870e+02	-16.4578	71.178740	0.000264	2.636278	0.893195	0.000105
1597	1.5880e+02	-16.4338	71.320040	0.000355	3.548835	1.202378	0.000142
1598	1.5890e+02	-16.3840	71.429043	0.000274	2.737673	0.927549	0.000110
1599	1.5900e+02	-16.3519	71.570342	0.000355	3.548835	1.202378	0.000142
1600	1.5910e+02	-16.3070	71.679345	0.000274	2.737673	0.927549	0.000110
1601	1.5920e+02	-16.2749	71.816608	0.000345	3.447440	1.168024	0.000138
1602	1.5930e+02	-16.2252	71.965982	0.000375	3.751626	1.271085	0.000150
1603	1.5940e+02	-16.1899	72.070947	0.000264	2.636278	0.893195	0.000105
1604	1.5950e+02	-16.1434	72.175913	0.000264	2.636278	0.893195	0.000105
1605	1.5960e+02	-16.1033	72.297027	0.000304	3.041859	1.030610	0.000122
1606	1.5970e+02	-16.0744	72.450438	0.000385	3.853021	1.305439	0.000154
1607	1.5980e+02	-16.0327	72.579626	0.000324	3.244649	1.099317	0.000130
1608	1.5990e+02	-15.9846	72.688629	0.000274	2.737673	0.927549	0.000110
1609	1.6000e+02	-15.9509	72.813780	0.000314	3.143254	1.064963	0.000126
1610	1.6010e+02	-15.9220	72.947006	0.000335	3.346045	1.133671	0.000134
1611	1.6019e+02	-15.8691	73.080231	0.000335	3.346045	1.133671	0.000134
1612	1.6029e+02	-15.8258	73.213457	0.000335	3.346045	1.133671	0.000134
1613	1.6039e+02	-15.7937	73.334571	0.000304	3.041859	1.030610	0.000122
1614	1.6049e+02	-15.7488	73.483945	0.000375	3.751626	1.271085	0.000150
1615	1.6059e+02	-15.7086	73.601022	0.000294	2.940463	0.996256	0.000118
1616	1.6069e+02	-15.6621	73.726173	0.000314	3.143254	1.064963	0.000126
1617	1.6079e+02	-15.6284	73.859398	0.000335	3.346045	1.133671	0.000134
1618	1.6089e+02	-15.5867	74.008772	0.000375	3.751626	1.271085	0.000150
1619	1.6099e+02	-15.5498	74.129886	0.000304	3.041859	1.030610	0.000122
1620	1.6109e+02	-15.5065	74.275223	0.000365	3.650230	1.236732	0.000146
1621	1.6119e+02	-15.4712	74.372115	0.000243	2.433487	0.824488	0.000097
1622	1.6129e+02	-15.4407	74.513414	0.000355	3.548835	1.202378	0.000142
1623	1.6139e+02	-15.3910	74.658751	0.000365	3.650230	1.236732	0.000146
1624	1.6149e+02	-15.3493	74.771791	0.000284	2.839068	0.961902	0.000114
1625	1.6159e+02	-15.3124	74.892905	0.000304	3.041859	1.030610	0.000122
1626	1.6169e+02	-15.2707	75.026131	0.000335	3.346045	1.133671	0.000134
1627	1.6179e+02	-15.2258	75.167430	0.000355	3.548835	1.202378	0.000142
1628	1.6189e+02	-15.1905	75.312767	0.000365	3.650230	1.236732	0.000146
1629	1.6199e+02	-15.1488	75.413696	0.000253	2.534882	0.858841	0.000101
1630	1.6209e+02	-15.1055	75.575181	0.000406	4.055812	1.374146	0.000162
1631	1.6219e+02	-15.0702	75.684184	0.000274	2.737673	0.927549	0.000110
1632	1.6228e+02	-15.0317	75.841632	0.000395	3.954416	1.339793	0.000158
1633	1.6238e+02	-14.9851	75.966783	0.000314	3.143254	1.064963	0.000126
1634	1.6248e+02	-14.9498	76.083860	0.000294	2.940463	0.996256	0.000118
1635	1.6258e+02	-14.9113	76.237271	0.000385	3.853021	1.305439	0.000154
1636	1.6268e+02	-14.8664	76.330125	0.000233	2.332092	0.790134	0.000093
1637	1.6278e+02	-14.8359	76.467388	0.000345	3.447440	1.168024	0.000138
1638	1.6288e+02	-14.7846	76.624836	0.000395	3.954416	1.339793	0.000158
1639	1.6298e+02	-14.7445	76.741913	0.000294	2.940463	0.996256	0.000118
1640	1.6308e+02	-14.7140	76.875139	0.000335	3.346045	1.133671	0.000134
1641	1.6318e+02	-14.6595	77.016438	0.000355	3.548835	1.202378	0.000142
1642	1.6328e+02	-14.6370	77.141590	0.000314	3.143254	1.064963	0.000126
1643	1.6338e+02	-14.5905	77.270778	0.000324	3.244649	1.099317	0.000130
1644	1.6348e+02	-14.5568	77.404004	0.000335	3.346045	1.133671	0.000134
1645	1.6358e+02	-14.5119	77.537229	0.000335	3.346045	1.133671	0.000134
1646	1.6368e+02	-14.4734	77.654306	0.000294	2.940463	0.996256	0.000118
1647	1.6378e+02	-14.4221	77.755234	0.000253	2.534882	0.858841	0.000101
1648	1.6388e+02	-14.3916	77.953054	0.000497	4.968369	1.683329	0.000199
1649	1.6398e+02	-14.3515	78.062057	0.000274	2.737673	0.927549	0.000110
1650	1.6408e+02	-14.3082	78.195282	0.000335	3.346045	1.133671	0.000134
1651	1.6418e+02	-14.2729	78.344656	0.000375	3.751626	1.271085	0.000150
1652	1.6427e+02	-14.2311	78.441547	0.000243	2.433487	0.824488	0.000097
1653	1.6437e+02	-14.1782	78.590921	0.000375	3.751626	1.271085	0.000150
1654	1.6447e+02	-14.1574	78.703961	0.000284	2.839068	0.961902	0.000114
1655	1.6457e+02	-14.1140	78.869484	0.000416	4.157207	1.408500	0.000166
1656	1.6467e+02	-14.0884	79.002709	0.000335	3.346045	1.133671	0.000134
1657	1.6477e+02	-14.0322	79.115749	0.000284	2.839068	0.961902	0.000114
1658	1.6487e+02	-13.9985	79.261086	0.000365	3.650230	1.236732	0.000146
1659	1.6497e+02	-13.9552	79.386237	0.000314	3.143254	1.064963	0.000126
1660	1.6507e+02	-13.9119	79.511388	0.000314	3.143254	1.064963	0.000126
1661	1.6517e+02	-13.8782	79.652688	0.000355	3.548835	1.202378	0.000142
1662	1.6527e+02	-13.8349	79.798025	0.000365	3.650230	1.236732	0.000146
1663	1.6537e+02	-13.7996	79.915102	0.000294	2.940463	0.996256	0.000118
1664	1.6547e+02	-13.7515	80.076587	0.000406	4.055812	1.374146	0.000162
1665	1.6557e+02	-13.7162	80.165404	0.000223	2.230696	0.755780	0.000089
1666	1.6567e+02	-13.6713	80.339001	0.000436	4.359997	1.477207	0.000174
1667	1.6577e+02	-13.6296	80.464152	0.000314	3.143254	1.064963	0.000126
1668	1.6587e+02	-13.5862	80.601415	0.000345	3.447440	1.168024	0.000138
1669	1.6597e+02	-13.5542	80.726566	0.000314	3.143254	1.064963	0.000126
1670	1.6607e+02	-13.5108	80.888052	0.000406	4.055812	1.374146	0.000162
1671	1.6616e+02	-13.4707	81.009166	0.000304	3.041859	1.030610	0.000122
1672	1.6626e+02	-13.4435	81.154503	0.000365	3.650230	1.236732	0.000146
1673	1.6636e+02	-13.3969	81.255431	0.000253	2.534882	0.858841	0.000101
1674	1.6646e+02	-13.3488	81.416916	0.000406	4.055812	1.374146	0.000162
1675	1.6656e+02	-13.3119	81.525919	0.000274	2.737673	0.927549	0.000110
1676	1.6666e+02	-13.2718	81.659145	0.000335	3.346045	1.133671	0.000134
1677	1.6676e+02	-13.2429	81.776222	0.000294	2.940463	0.996256	0.000118
1678	1.6686e+02	-13.1980	81.921558	0.000365	3.650230	1.236732	0.000146
1679	1.6696e+02	-13.1547	82.111304	0.000477	4.765579	1.614622	0.000191
1680	1.6706e+02	-13.1194	82.252604	0.000355	3.548835	1.202378	0.000142
1681	1.6716e+02	-13.0841	82.373718	0.000304	3.041859	1.030610	0.000122
1682	1.6726e+02	-13.0424	82.502906	0.000324	3.244649	1.099317	0.000130
1683	1.6736e+02	-12.9943	82.652280	0.000375	3.751626	1.271085	0.000150
1684	1.6746e+02	-12.9542	82.765320	0.000284	2.839068	0.961902	0.000114
1685	1.6756e+02	-12.9173	82.902582	0.000345	3.447440	1.168024	0.000138
1686	1.6766e+02	-12.8804	83.043882	0.000355	3.548835	1.202378	0.000142
1687	1.6776e+02	-12.8355	83.217479	0.000436	4.359997	1.477207	0.000174
1688	1.6786e+02	-12.8050	83.342630	0.000314	3.143254	1.064963	0.000126
1689	1.6796e+02	-12.7681	83.487967	0.000365	3.650230	1.236732	0.000146
1690	1.6806e+02	-12.7135	83.617155	0.000324	3.244649	1.099317	0.000130
1691	1.6816e+02	-12.6750	83.738269	0.000304	3.041859	1.030610	0.000122
1692	1.6825e+02	-12.6398	83.907829	0.000426	4.258602	1.442853	0.000170
1693	1.6835e+02	-12.5996	84.037018	0.000324	3.244649	1.099317	0.000130
1694	1.6845e+02	-12.5627	84.194466	0.000395	3.954416	1.339793	0.000158
1695	1.6855e+02	-12.5307	84.311543	0.000294	2.940463	0.996256	0.000118
1696	1.6865e+02	-12.4777	84.468991	0.000395	3.954416	1.339793	0.000158
1697	1.6875e+02	-12.4424	84.594142	0.000314	3.143254	1.064963	0.000126
1698	1.6885e+02	-12.4007	84.727368	0.000335	3.346045	1.133671	0.000134
1699	1.6895e+02	-12.3799	84.888853	0.000406	4.055812	1.374146	0.000162
1700	1.6905e+02	-12.3189	85.018042	0.000324	3.244649	1.099317	0.000130
1701	1.6915e+02	-12.2804	85.155304	0.000345	3.447440	1.168024	0.000138
1702	1.6925e+02	-12.2387	85.328901	0.000436	4.359997	1.477207	0.000174
1703	1.6935e+02	-12.1986	85.433866	0.000264	2.636278	0.893195	0.000105
1704	1.6945e+02	-12.1601	85.559018	0.000314	3.143254	1.064963	0.000126
1705	1.6955e+02	-12.1184	85.700317	0.000355	3.548835	1.202378	0.000142
1706	1.6965e+02	-12.0767	85.837580	0.000345	3.447440	1.168024	0.000138
1707	1.6975e+02	-12.0398	86.019251	0.000456	4.562788	1.545914	0.000183
1708	1.6985e+02	-11.9965	86.184774	0.000416	4.157207	1.408500	0.000166
1709	1.6995e+02	-11.9644	86.281665	0.000243	2.433487	0.824488	0.000097
1710	1.7005e+02	-11.9178	86.431039	0.000375	3.751626	1.271085	0.000150
1711	1.7015e+02	-11.8842	86.548116	0.000294	2.940463	0.996256	0.000118
1712	1.7024e+02	-11.8408	86.709601	0.000406	4.055812	1.374146	0.000162
1713	1.7034e+02	-11.8072	86.858975	0.000375	3.751626	1.271085	0.000150
1714	1.7044e+02	-11.7558	87.016424	0.000395	3.954416	1.339793	0.000158
1715	1.7054e+02	-11.7302	87.149649	0.000335	3.346045	1.133671	0.000134
1716	1.7064e+02	-11.6868	87.294986	0.000365	3.650230	1.236732	0.000146
1717	1.7074e+02	-11.6387	87.432249	0.000345	3.447440	1.168024	0.000138
1718	1.7084e+02	-11.5986	87.585660	0.000385	3.853021	1.305439	0.000154
1719	1.7094e+02	-11.5697	87.710811	0.000314	3.143254	1.064963	0.000126
1720	1.7104e+02	-11.5328	87.880371	0.000426	4.258602	1.442853	0.000170
1721	1.7114e+02	-11.4783	88.013596	0.000335	3.346045	1.133671	0.000134
1722	1.7124e+02	-11.4446	88.203342	0.000477	4.765579	1.614622	0.000191
1723	1.7134e+02	-11.4029	88.324456	0.000304	3.041859	1.030610	0.000122
1724	1.7144e+02	-11.3644	88.506127	0.000456	4.562788	1.545914	0.000183
1725	1.7154e+02	-11.3259	88.627241	0.000304	3.041859	1.030610	0.000122
1726	1.7164e+02	-11.2842	88.788726	0.000406	4.055812	1.374146	0.000162
1727	1.7174e+02	-11.2441	88.950212	0.000406	4.055812	1.374146	0.000162
1728	1.7184e+02	-11.2008	89.055177	0.000264	2.636278	0.893195	0.000105
1729	1.7194e+02	-11.1623	89.204551	0.000375	3.751626	1.271085	0.000150
1730	1.7204e+02	-11.1157	89.394297	0.000477	4.765579	1.614622	0.000191
1731	1.7213e+02	-11.0756	89.503299	0.000274	2.737673	0.927549	0.000110
1732	1.7223e+02	-11.0467	89.668822	0.000416	4.157207	1.408500	0.000166
1733	1.7233e+02	-11.0082	89.818196	0.000375	3.751626	1.271085	0.000150
1734	1.7243e+02	-10.9617	89.979681	0.000406	4.055812	1.374146	0.000162
1735	1.7253e+02	-10.9216	90.157315	0.000446	4.461393	1.511561	0.000179
1736	1.7263e+02	-10.8831	90.310726	0.000385	3.853021	1.305439	0.000154
1737	1.7273e+02	-10.8542	90.427803	0.000294	2.940463	0.996256	0.000118
1738	1.7283e+02	-10.8093	90.585252	0.000395	3.954416	1.339793	0.000158
1739	1.7293e+02	-10.7644	90.710403	0.000314	3.143254	1.064963	0.000126
1740	1.7303e+02	-10.7291	90.908223	0.000497	4.968369	1.683329	0.000199
1741	1.7313e+02	-10.6842	91.049522	0.000355	3.548835	1.202378	0.000142
1742	1.7323e+02	-10.6505	91.182748	0.000335	3.346045	1.133671	0.000134
1743	1.7333e+02	-10.6056	91.352307	0.000426	4.258602	1.442853	0.000170
1744	1.7343e+02	-10.5639	91.509756	0.000395	3.954416	1.339793	0.000158
1745	1.7353e+02	-10.5286	91.663167	0.000385	3.853021	1.305439	0.000154
1746	1.7363e+02	-10.4901	91.800430	0.000345	3.447440	1.168024	0.000138
1747	1.7373e+02	-10.4484	91.990175	0.000477	4.765579	1.614622	0.000191
1748	1.7383e+02	-10.4083	92.115326	0.000314	3.143254	1.064963	0.000126
1749	1.7393e+02	-10.3666	92.288923	0.000436	4.359997	1.477207	0.000174
1750	1.7403e+02	-10.3329	92.373703	0.000213	2.129301	0.721427	0.000085
1751	1.7413e+02	-10.2912	92.571522	0.000497	4.968369	1.683329	0.000199
1752	1.7422e+02	-10.2446	92.785491	0.000537	5.373950	1.820744	0.000215
1753	1.7432e+02	-10.2013	92.918716	0.000335	3.346045	1.133671	0.000134
1754	1.7442e+02	-10.1676	93.068090	0.000375	3.751626	1.271085	0.000150
1755	1.7452e+02	-10.1323	93.197279	0.000324	3.244649	1.099317	0.000130
1756	1.7462e+02	-10.0874	93.370875	0.000436	4.359997	1.477207	0.000174
1757	1.7472e+02	-10.0441	93.516212	0.000365	3.650230	1.236732	0.000146
1758	1.7482e+02	-10.0024	93.669623	0.000385	3.853021	1.305439	0.000154
1759	1.7492e+02	-9.9687	93.823035	0.000385	3.853021	1.305439	0.000154
1760	1.7502e+02	-9.9254	94.016817	0.000487	4.866974	1.648975	0.000195
1761	1.7512e+02	-9.8933	94.166191	0.000375	3.751626	1.271085	0.000150
1762	1.7522e+02	-9.8516	94.303454	0.000345	3.447440	1.168024	0.000138
1763	1.7532e+02	-9.8067	94.440716	0.000345	3.447440	1.168024	0.000138
1764	1.7542e+02	-9.7698	94.614313	0.000436	4.359997	1.477207	0.000174
1765	1.7552e+02	-9.7377	94.759650	0.000365	3.650230	1.236732	0.000146
1766	1.7562e+02	-9.6831	94.933247	0.000436	4.359997	1.477207	0.000174
1767	1.7572e+02	-9.6479	95.013990	0.000203	2.027906	0.687073	0.000081
1768	1.7582e+02	-9.6045	95.219884	0.000517	5.171160	1.752036	0.000207
1769	1.7592e+02	-9.5725	95.365220	0.000365	3.650230	1.236732	0.000146
1770	1.7602e+02	-9.5291	95.575151	0.000527	5.272555	1.786390	0.000211
1771	1.7612e+02	-9.4971	95.724525	0.000375	3.751626	1.271085	0.000150
1772	1.7621e+02	-9.4602	95.861788	0.000345	3.447440	1.168024	0.000138
1773	1.7631e+02	-9.4120	96.019236	0.000395	3.954416	1.339793	0.000158
1774	1.7641e+02	-9.3703	96.168610	0.000375	3.751626	1.271085	0.000150
1775	1.7651e+02	-9.3366	96.330096	0.000406	4.055812	1.374146	0.000162
1776	1.7661e+02	-9.2965	96.483507	0.000385	3.853021	1.305439	0.000154
1777	1.7671e+02	-9.2564	96.636918	0.000385	3.853021	1.305439	0.000154
1778	1.7681e+02	-9.2131	96.802441	0.000416	4.157207	1.408500	0.000166
1779	1.7691e+02	-9.1714	96.980075	0.000446	4.461393	1.511561	0.000179
1780	1.7701e+02	-9.1313	97.129449	0.000375	3.751626	1.271085	0.000150
1781	1.7711e+02	-9.0912	97.286897	0.000395	3.954416	1.339793	0.000158
1782	1.7721e+02	-9.0559	97.444345	0.000395	3.954416	1.339793	0.000158
1783	1.7731e+02	-9.0094	97.609868	0.000416	4.157207	1.408500	0.000166
1784	1.7741e+02	-8.9741	97.743093	0.000335	3.346045	1.133671	0.000134
1785	1.7751e+02	-8.9452	97.936876	0.000487	4.866974	1.648975	0.000195
1786	1.7761e+02	-8.8939	98.078176	0.000355	3.548835	1.202378	0.000142
1787	1.7771e+02	-8.8570	98.239661	0.000406	4.055812	1.374146	0.000162
1788	1.7781e+02	-8.8088	98.393072	0.000385	3.853021	1.305439	0.000154
1789	1.7791e+02	-8.7784	98.542446	0.000375	3.751626	1.271085	0.000150
1790	1.7801e+02	-8.7367	98.699895	0.000395	3.954416	1.339793	0.000158
1791	1.7810e+02	-8.6837	98.877528	0.000446	4.461393	1.511561	0.000179
1792	1.7820e+02	-8.6596	99.039014	0.000406	4.055812	1.374146	0.000162
1793	1.7830e+02	-8.6179	99.240871	0.000507	5.069764	1.717683	0.000203
1794	1.7840e+02	-8.5714	99.370059	0.000324	3.244649	1.099317	0.000130
1795	1.7850e+02	-8.5313	99.539619	0.000426	4.258602	1.442853	0.000170
1796	1.7860e+02	-8.4896	99.693030	0.000385	3.853021	1.305439	0.000154
1797	1.7870e+02	-8.4463	99.870664	0.000446	4.461393	1.511561	0.000179
1798	1.7880e+02	-8.4142	100.011964	0.000355	3.548835	1.202378	0.000142
1799	1.7890e+02	-8.3741	100.205746	0.000487	4.866974	1.648975	0.000195
1800	1.7900e+02	-8.3468	100.343009	0.000345	3.447440	1.168024	0.000138
1801	1.7910e+02	-8.2971	100.524680	0.000456	4.562788	1.545914	0.000183
1802	1.7920e+02	-8.2570	100.649831	0.000314	3.143254	1.064963	0.000126
1803	1.7930e+02	-8.2105	100.843614	0.000487	4.866974	1.648975	0.000195
1804	1.7940e+02	-8.1768	100.997025	0.000385	3.853021	1.305439	0.000154
1805	1.7950e+02	-8.1335	101.158510	0.000406	4.055812	1.374146	0.000162
1806	1.7960e+02	-8.0998	101.352293	0.000487	4.866974	1.648975	0.000195
1807	1.7970e+02	-8.0597	101.473407	0.000304	3.041859	1.030610	0.000122
1808	1.7980e+02	-8.0196	101.638929	0.000416	4.157207	1.408500	0.000166
1809	1.7990e+02	-7.9762	101.808489	0.000426	4.258602	1.442853	0.000170
1810	1.8000e+02	-7.9313	101.978049	0.000426	4.258602	1.442853	0.000170
1811	1.8009e+02	-7.8880	102.111274	0.000335	3.346045	1.133671	0.000134
1812	1.8019e+02	-7.8543	102.288908	0.000446	4.461393	1.511561	0.000179
1813	1.8029e+02	-7.8062	102.450394	0.000406	4.055812	1.374146	0.000162
1814	1.8039e+02	-7.7709	102.599768	0.000375	3.751626	1.271085	0.000150
1815	1.8049e+02	-7.7436	102.785476	0.000466	4.664183	1.580268	0.000187
1816	1.8059e+02	-7.6955	102.942924	0.000395	3.954416	1.339793	0.000158
1817	1.8069e+02	-7.6586	103.096335	0.000385	3.853021	1.305439	0.000154
1818	1.8079e+02	-7.6201	103.261858	0.000416	4.157207	1.408500	0.000166
1819	1.8089e+02	-7.5880	103.439492	0.000446	4.461393	1.511561	0.000179
1820	1.8099e+02	-7.5383	103.584829	0.000365	3.650230	1.236732	0.000146
1821	1.8109e+02	-7.5126	103.697869	0.000284	2.839068	0.961902	0.000114
1822	1.8119e+02	-7.4549	103.919911	0.000558	5.576741	1.889451	0.000223
1823	1.8129e+02	-7.4164	104.057174	0.000345	3.447440	1.168024	0.000138
1824	1.8139e+02	-7.3811	104.234808	0.000446	4.461393	1.511561	0.000179
1825	1.8149e+02	-7.3394	104.400330	0.000416	4.157207	1.408500	0.000166
1826	1.8159e+02	-7.3009	104.590076	0.000477	4.765579	1.614622	0.000191
1827	1.8169e+02	-7.2527	104.715227	0.000314	3.143254	1.064963	0.000126
1828	1.8179e+02	-7.2174	104.872675	0.000395	3.954416	1.339793	0.000158
1829	1.8189e+02	-7.1822	105.018012	0.000365	3.650230	1.236732	0.000146
1830	1.8199e+02	-7.1276	105.215832	0.000497	4.968369	1.683329	0.000199
1831	1.8209e+02	-7.0907	105.377317	0.000406	4.055812	1.374146	0.000162
1832	1.8218e+02	-7.0570	105.546877	0.000426	4.258602	1.442853	0.000170
1833	1.8228e+02	-7.0201	105.728548	0.000456	4.562788	1.545914	0.000183
1834	1.8238e+02	-6.9832	105.890033	0.000406	4.055812	1.374146	0.000162
1835	1.8248e+02	-6.9335	106.031333	0.000355	3.548835	1.202378	0.000142
1836	1.8258e+02	-6.9014	106.188781	0.000395	3.954416	1.339793	0.000158
1837	1.8268e+02	-6.8613	106.358341	0.000426	4.258602	1.442853	0.000170
1838	1.8278e+02	-6.8148	106.544049	0.000466	4.664183	1.580268	0.000187
1839	1.8288e+02	-6.7747	106.689386	0.000365	3.650230	1.236732	0.000146
1840	1.8298e+02	-6.7410	106.862983	0.000436	4.359997	1.477207	0.000174
1841	1.8308e+02	-6.7009	107.072914	0.000527	5.272555	1.786390	0.000211
1842	1.8318e+02	-6.6576	107.198065	0.000314	3.143254	1.064963	0.000126
1843	1.8328e+02	-6.6303	107.351476	0.000385	3.853021	1.305439	0.000154
1844	1.8338e+02	-6.5934	107.533148	0.000456	4.562788	1.545914	0.000183
1845	1.8348e+02	-6.5372	107.718856	0.000466	4.664183	1.580268	0.000187
1846	1.8358e+02	-6.5036	107.896490	0.000446	4.461393	1.511561	0.000179
1847	1.8368e+02	-6.4538	108.082198	0.000466	4.664183	1.580268	0.000187
1848	1.8378e+02	-6.4346	108.154866	0.000183	1.825115	0.618366	0.000073
1849	1.8388e+02	-6.3848	108.348649	0.000487	4.866974	1.648975	0.000195
1850	1.8398e+02	-6.3463	108.526283	0.000446	4.461393	1.511561	0.000179
1851	1.8407e+02	-6.3030	108.724103	0.000497	4.968369	1.683329	0.000199
1852	1.8417e+02	-6.2661	108.881551	0.000395	3.954416	1.339793	0.000158
1853	1.8427e+02	-6.2164	109.051111	0.000426	4.258602	1.442853	0.000170
1854	1.8437e+02	-6.1763	109.244893	0.000487	4.866974	1.648975	0.000195
1855	1.8447e+02	-6.1458	109.402341	0.000395	3.954416	1.339793	0.000158
1856	1.8457e+02	-6.1121	109.567864	0.000416	4.157207	1.408500	0.000166
1857	1.8467e+02	-6.0640	109.733386	0.000416	4.157207	1.408500	0.000166
1858	1.8477e+02	-6.0255	109.878723	0.000365	3.650230	1.236732	0.000146
1859	1.8487e+02	-5.9870	110.084617	0.000517	5.171160	1.752036	0.000207
1860	1.8497e+02	-5.9437	110.213806	0.000324	3.244649	1.099317	0.000130
1861	1.8507e+02	-5.9116	110.403551	0.000477	4.765579	1.614622	0.000191
1862	1.8517e+02	-5.8651	110.581185	0.000446	4.461393	1.511561	0.000179
1863	1.8527e+02	-5.8266	110.738633	0.000395	3.954416	1.339793	0.000158
1864	1.8537e+02	-5.7865	110.936453	0.000497	4.968369	1.683329	0.000199
1865	1.8547e+02	-5.7399	111.114087	0.000446	4.461393	1.511561	0.000179
1866	1.8557e+02	-5.7095	111.247312	0.000335	3.346045	1.133671	0.000134
1867	1.8567e+02	-5.6710	111.445132	0.000497	4.968369	1.683329	0.000199
1868	1.8577e+02	-5.6212	111.622766	0.000446	4.461393	1.511561	0.000179
1869	1.8587e+02	-5.5908	111.804437	0.000456	4.562788	1.545914	0.000183
1870	1.8597e+02	-5.5522	111.949774	0.000365	3.650230	1.236732	0.000146
1871	1.8606e+02	-5.5025	112.131445	0.000456	4.562788	1.545914	0.000183
1872	1.8616e+02	-5.4640	112.309079	0.000446	4.461393	1.511561	0.000179
1873	1.8626e+02	-5.4319	112.470565	0.000406	4.055812	1.374146	0.000162
1874	1.8636e+02	-5.3886	112.652236	0.000456	4.562788	1.545914	0.000183
1875	1.8646e+02	-5.3485	112.846018	0.000487	4.866974	1.648975	0.000195
1876	1.8656e+02	-5.3036	113.031726	0.000466	4.664183	1.580268	0.000187
1877	1.8666e+02	-5.2683	113.197249	0.000416	4.157207	1.408500	0.000166
1878	1.8676e+02	-5.2442	113.362772	0.000416	4.157207	1.408500	0.000166
1879	1.8686e+02	-5.1961	113.536368	0.000436	4.359997	1.477207	0.000174
1880	1.8696e+02	-5.1432	113.722077	0.000466	4.664183	1.580268	0.000187
1881	1.8706e+02	-5.1095	113.895673	0.000436	4.359997	1.477207	0.000174
1882	1.8716e+02	-5.0662	114.032936	0.000345	3.447440	1.168024	0.000138
1883	1.8726e+02	-5.0341	114.222681	0.000477	4.765579	1.614622	0.000191
1884	1.8736e+02	-4.9827	114.444724	0.000558	5.576741	1.889451	0.000223
1885	1.8746e+02	-4.9475	114.594098	0.000375	3.751626	1.271085	0.000150
1886	1.8756e+02	-4.9186	114.779806	0.000466	4.664183	1.580268	0.000187
1887	1.8766e+02	-4.8705	114.945329	0.000416	4.157207	1.408500	0.000166
1888	1.8776e+02	-4.8368	115.110851	0.000416	4.157207	1.408500	0.000166
1889	1.8786e+02	-4.7870	115.328857	0.000548	5.475346	1.855097	0.000219
1890	1.8796e+02	-4.7501	115.486305	0.000395	3.954416	1.339793	0.000158
1891	1.8806e+02	-4.7004	115.667976	0.000456	4.562788	1.545914	0.000183
1892	1.8815e+02	-4.6683	115.853684	0.000466	4.664183	1.580268	0.000187
1893	1.8825e+02	-4.6330	116.051504	0.000497	4.968369	1.683329	0.000199
1894	1.8835e+02	-4.5897	116.208952	0.000395	3.954416	1.339793	0.000158
1895	1.8845e+02	-4.5448	116.378512	0.000426	4.258602	1.442853	0.000170
1896	1.8855e+02	-4.5063	116.572294	0.000487	4.866974	1.648975	0.000195
1897	1.8865e+02	-4.4742	116.729743	0.000395	3.954416	1.339793	0.000158
1898	1.8875e+02	-4.4357	116.935637	0.000517	5.171160	1.752036	0.000207
1899	1.8885e+02	-4.3908	117.129419	0.000487	4.866974	1.648975	0.000195
1900	1.8895e+02	-4.3539	117.294942	0.000416	4.157207	1.408500	0.000166
1901	1.8905e+02	-4.3154	117.456427	0.000406	4.055812	1.374146	0.000162
1902	1.8915e+02	-4.2785	117.682507	0.000568	5.678136	1.923805	0.000227
1903	1.8925e+02	-4.2368	117.872252	0.000477	4.765579	1.614622	0.000191
1904	1.8935e+02	-4.1870	118.025663	0.000385	3.853021	1.305439	0.000154
1905	1.8945e+02	-4.1485	118.239631	0.000537	5.373950	1.820744	0.000215
1906	1.8955e+02	-4.1165	118.417265	0.000446	4.461393	1.511561	0.000179
1907	1.8965e+02	-4.0748	118.574714	0.000395	3.954416	1.339793	0.000158
1908	1.8975e+02	-4.0314	118.756385	0.000456	4.562788	1.545914	0.000183
1909	1.8985e+02	-3.9961	118.970353	0.000537	5.373950	1.820744	0.000215
1910	1.8995e+02	-3.9528	119.156061	0.000466	4.664183	1.580268	0.000187
1911	1.9004e+02	-3.9223	119.353881	0.000497	4.968369	1.683329	0.000199
1912	1.9014e+02	-3.8694	119.515366	0.000406	4.055812	1.374146	0.000162
1913	1.9024e+02	-3.8341	119.656666	0.000355	3.548835	1.202378	0.000142
1914	1.9034e+02	-3.8068	119.898894	0.000608	6.083717	2.061219	0.000243
1915	1.9044e+02	-3.7507	120.052305	0.000385	3.853021	1.305439	0.000154
1916	1.9054e+02	-3.7106	120.278385	0.000568	5.678136	1.923805	0.000227
1917	1.9064e+02	-3.6801	120.460056	0.000456	4.562788	1.545914	0.000183
1918	1.9074e+02	-3.6320	120.637690	0.000446	4.461393	1.511561	0.000179
1919	1.9084e+02	-3.5903	120.799176	0.000406	4.055812	1.374146	0.000162
1920	1.9094e+02	-3.5582	121.033329	0.000588	5.880927	1.992512	0.000235
1921	1.9104e+02	-3.5181	121.215001	0.000456	4.562788	1.545914	0.000183
1922	1.9114e+02	-3.4667	121.380523	0.000416	4.157207	1.408500	0.000166
1923	1.9124e+02	-3.4347	121.594491	0.000537	5.373950	1.820744	0.000215
1924	1.9134e+02	-3.3994	121.832682	0.000598	5.982322	2.026866	0.000239
1925	1.9144e+02	-3.3625	121.986093	0.000385	3.853021	1.305439	0.000154
1926	1.9154e+02	-3.3240	122.127393	0.000355	3.548835	1.202378	0.000142
1927	1.9164e+02	-3.2855	122.345399	0.000548	5.475346	1.855097	0.000219
1928	1.9174e+02	-3.2341	122.506884	0.000406	4.055812	1.374146	0.000162
1929	1.9184e+02	-3.1860	122.724889	0.000548	5.475346	1.855097	0.000219
1930	1.9194e+02	-3.1603	122.902523	0.000446	4.461393	1.511561	0.000179
1931	1.9203e+02	-3.1138	123.072083	0.000426	4.258602	1.442853	0.000170
1932	1.9213e+02	-3.0737	123.314311	0.000608	6.083717	2.061219	0.000243
1933	1.9223e+02	-3.0320	123.443499	0.000324	3.244649	1.099317	0.000130
1934	1.9233e+02	-2.9951	123.653431	0.000527	5.272555	1.786390	0.000211
1935	1.9243e+02	-2.9614	123.883547	0.000578	5.779532	1.958158	0.000231
1936	1.9253e+02	-2.9197	124.045033	0.000406	4.055812	1.374146	0.000162
1937	1.9263e+02	-2.8860	124.234778	0.000477	4.765579	1.614622	0.000191
1938	1.9273e+02	-2.8331	124.388189	0.000385	3.853021	1.305439	0.000154
1939	1.9283e+02	-2.7962	124.646566	0.000649	6.489299	2.198634	0.000260
1940	1.9293e+02	-2.7561	124.791903	0.000365	3.650230	1.236732	0.000146
1941	1.9303e+02	-2.7288	124.989722	0.000497	4.968369	1.683329	0.000199
1942	1.9313e+02	-2.6839	125.183505	0.000487	4.866974	1.648975	0.000195
1943	1.9323e+02	-2.6374	125.405547	0.000558	5.576741	1.889451	0.000223
1944	1.9333e+02	-2.5989	125.611441	0.000517	5.171160	1.752036	0.000207
1945	1.9343e+02	-2.5604	125.801187	0.000477	4.765579	1.614622	0.000191
1946	1.9353e+02	-2.5235	125.970746	0.000426	4.258602	1.442853	0.000170
1947	1.9363e+02	-2.4785	126.160492	0.000477	4.765579	1.614622	0.000191
1948	1.9373e+02	-2.4432	126.338126	0.000446	4.461393	1.511561	0.000179
1949	1.9383e+02	-2.3935	126.560168	0.000558	5.576741	1.889451	0.000223
1950	1.9393e+02	-2.3582	126.770099	0.000527	5.272555	1.786390	0.000211
1951	1.9403e+02	-2.3149	126.935622	0.000416	4.157207	1.408500	0.000166
1952	1.9412e+02	-2.2764	127.153627	0.000548	5.475346	1.855097	0.000219
1953	1.9422e+02	-2.2507	127.335298	0.000456	4.562788	1.545914	0.000183
1954	1.9432e+02	-2.2058	127.545229	0.000527	5.272555	1.786390	0.000211
1955	1.9442e+02	-2.1625	127.706715	0.000406	4.055812	1.374146	0.000162
1956	1.9452e+02	-2.1224	127.928757	0.000558	5.576741	1.889451	0.000223
1957	1.9462e+02	-2.0727	128.082168	0.000385	3.853021	1.305439	0.000154
1958	1.9472e+02	-2.0470	128.304211	0.000558	5.576741	1.889451	0.000223
1959	1.9482e+02	-1.9973	128.502031	0.000497	4.968369	1.683329	0.000199
1960	1.9492e+02	-1.9604	128.728110	0.000568	5.678136	1.923805	0.000227
1961	1.9502e+02	-1.9122	128.905744	0.000446	4.461393	1.511561	0.000179
1962	1.9512e+02	-1.8770	129.107601	0.000507	5.069764	1.717683	0.000203
1963	1.9522e+02	-1.8433	129.317532	0.000527	5.272555	1.786390	0.000211
1964	1.9532e+02	-1.8032	129.531500	0.000537	5.373950	1.820744	0.000215
1965	1.9542e+02	-1.7663	129.713171	0.000456	4.562788	1.545914	0.000183
1966	1.9552e+02	-1.7165	129.890805	0.000446	4.461393	1.511561	0.000179
1967	1.9562e+02	-1.6812	130.116885	0.000568	5.678136	1.923805	0.000227
1968	1.9572e+02	-1.6411	130.318742	0.000507	5.069764	1.717683	0.000203
1969	1.9582e+02	-1.6042	130.532710	0.000537	5.373950	1.820744	0.000215
1970	1.9592e+02	-1.5561	130.690158	0.000395	3.954416	1.339793	0.000158
1971	1.9601e+02	-1.5208	130.867792	0.000446	4.461393	1.511561	0.000179
1972	1.9611e+02	-1.4871	131.081760	0.000537	5.373950	1.820744	0.000215
1973	1.9621e+02	-1.4438	131.259394	0.000446	4.461393	1.511561	0.000179
1974	1.9631e+02	-1.3941	131.481437	0.000558	5.576741	1.889451	0.000223
1975	1.9641e+02	-1.3748	131.695405	0.000537	5.373950	1.820744	0.000215
1976	1.9651e+02	-1.3251	131.885150	0.000477	4.765579	1.614622	0.000191
1977	1.9661e+02	-1.2866	132.103156	0.000548	5.475346	1.855097	0.000219
1978	1.9671e+02	-1.2417	132.305012	0.000507	5.069764	1.717683	0.000203
1979	1.9681e+02	-1.2064	132.474572	0.000426	4.258602	1.442853	0.000170
1980	1.9691e+02	-1.1727	132.652206	0.000446	4.461393	1.511561	0.000179
1981	1.9701e+02	-1.1246	132.858100	0.000517	5.171160	1.752036	0.000207
1982	1.9711e+02	-1.0877	133.092254	0.000588	5.880927	1.992512	0.000235
1983	1.9721e+02	-1.0379	133.261814	0.000426	4.258602	1.442853	0.000170
1984	1.9731e+02	-1.0042	133.500005	0.000598	5.982322	2.026866	0.000239
1985	1.9741e+02	-0.9657	133.685713	0.000466	4.664183	1.580268	0.000187
1986	1.9751e+02	-0.9240	133.851235	0.000416	4.157207	1.408500	0.000166
1987	1.9761e+02	-0.8871	134.077315	0.000568	5.678136	1.923805	0.000227
1988	1.9771e+02	-0.8406	134.267060	0.000477	4.765579	1.614622	0.000191
1989	1.9781e+02	-0.8037	134.489103	0.000558	5.576741	1.889451	0.000223
1990	1.9791e+02	-0.7636	134.690960	0.000507	5.069764	1.717683	0.000203
1991	1.9800e+02	-0.7267	134.904928	0.000537	5.373950	1.820744	0.000215
1992	1.9810e+02	-0.6850	135.066413	0.000406	4.055812	1.374146	0.000162
1993	1.9820e+02	-0.6433	135.284419	0.000548	5.475346	1.855097	0.000219
1994	1.9830e+02	-0.6080	135.502424	0.000548	5.475346	1.855097	0.000219
1995	1.9840e+02	-0.5711	135.655835	0.000385	3.853021	1.305439	0.000154
1996	1.9850e+02	-0.5246	135.877878	0.000558	5.576741	1.889451	0.000223
1997	1.9860e+02	-0.4925	136.083771	0.000517	5.171160	1.752036	0.000207
1998	1.9870e+02	-0.4476	136.293703	0.000527	5.272555	1.786390	0.000211
1999	1.9880e+02	-0.4011	136.499596	0.000517	5.171160	1.752036	0.000207
2000	1.9890e+02	-0.3658	136.705490	0.000517	5.171160	1.752036	0.000207
2001	1.9900e+02	-0.3321	136.871013	0.000416	4.157207	1.408500	0.000166
2002	1.9910e+02	-0.2888	137.113241	0.000608	6.083717	2.061219	0.000243
2003	1.9920e+02	-0.2487	137.298949	0.000466	4.664183	1.580268	0.000187
2004	1.9930e+02	-0.2086	137.504843	0.000517	5.171160	1.752036	0.000207
2005	1.9940e+02	-0.1700	137.710737	0.000517	5.171160	1.752036	0.000207
2006	1.9950e+02	-0.1299	137.932780	0.000558	5.576741	1.889451	0.000223
2007	1.9960e+02	-0.0898	138.118488	0.000466	4.664183	1.580268	0.000187
2008	1.9970e+02	-0.0497	138.316308	0.000497	4.968369	1.683329	0.000199
2009	1.9980e+02	-0.0193	138.530276	0.000497	4.968369	1.683329	0.000215

Center data before PMax,+/-Pr and +/-Vc Calc.

PMax (uC/cm2):	3.06e+01
Pr (uC/cm2):	1.50e+02
-Pr (uC/cm2):	1.39e+02
PLoss (uC/cm2):	3.16e+02
Vc:	1.89e+01
C (Max-Eff) (nF):	1.53e-01
K (Eff):	5.19e+02
Vert. (+/-Pr) Shift (uC/cm2):	1.44e+02
Offset (uC/cm2):	1.78e+02

A (Loop Area - uC/cm2·Volts):	-1.25e+01



Hysteresis Version: 5.48.1 - Radiant Technologies, Inc., 1999 - 9/12/24

