»»»»»»»»»»»»»»»»»»»»»»»»»»»»»»»»»»»» Hysteresis ««««««««««««««««««««««««««««««««««««
»»»  Executed Version:	5.48.1
»»»  Vision Version:	5.48.4 (R)
»»»  Vision Compiled:	9/18/24
»»»  Driver Version:	5.47.0
»»»  Windows Version:	Windows 8 or 8.1
»»»  Processor Information:	x86 (AMD or Intel) - 32 Processors
»»»  Tester Name:	PMF21124-494 (100V)
»»»  Tester S/N:	PMF21124-494
»»»  Internal Amp Type:	100V RevK 270k
»»»  Internal Amp S/N:	iAB2-596/K     
»»»  Execution Count:	1
»»»»»»»»»»»»»»»»»»»»»»»»»»»»»»»»»»»»»»»»»»««««««««««««««««««««««««««««««««««««««««««

Stored:	6/5/2025 - 15:22:53
Configured:	06/05/25 02:51:50 PM
Executed:	06/05/25 03:22:13 PM

»»»»»»»»»»»»»»»»»»»»»»»»»»»»»»»»»»» Sample Info ««««««««««««««««««««««««««««««««««««
Sample Name:	
Lot Name:	
Wafer Name:	
Die Row/Column:	0/0
Capacitor Number:	0
Sample Area (cm2):	1.00e-04
Sample Thickness (microns):	3.00e-01

Amplifier:	Internal

»»»»»»»»»»»»»»»»»»»»»»»»»»»»»»»»»»» Tester Info «««««««««««««««««««««««««««««««««««
Tester Name:	PMF21124-494 (100V)
Tester Serial Number:	PMF21124-494
Return Signal Amp. Level:	0.19 [Index: 3]

»»»»»»»»»»»»»»»»»»»»»»»»»»»»»»»» Hysteresis Info ««««««««««««««««««««««««««««««««««
Task Name:	Hyst-353
Volts:	20.00
Field:	666.67 (kV/cm)
DCBias:	0.00
DCField:	0.00 (kV/cm)
Hysteresis Period (ms):	2.00e+02
Preset:	Enabled
Preset Delay (ms):	1.00e+03
Profile:	Standard Bipolar

»»»»»»»»»»»»»»»»»»»»»»»»»»»»»»»»»»»»»» Data «««««««««««««««««««««««««««««««««««««««
Points:	2009

Valid Data

Point	Time (ms)	Drive Voltage	Measured Polarization (uC/cm2)	Capacitance (uF)	Normalized Capacitance (uF/cm2)	Dielectric Constant	Instantaneous Current (mA)
   1	0.0000e+00	-0.0096	47.192098	0.000436	4.357112	1.476230	0.000174
   2	9.9500e-02	0.0241	47.365695	0.000436	4.357112	1.476230	0.000174
   3	1.9900e-01	0.0674	47.595812	0.000578	5.775707	1.956863	0.000231
   4	2.9850e-01	0.0946	47.797669	0.000507	5.066410	1.716546	0.000203
   5	3.9800e-01	0.1428	48.027785	0.000578	5.775707	1.956863	0.000231
   6	4.9750e-01	0.1861	48.249828	0.000557	5.573051	1.888201	0.000223
   7	5.9700e-01	0.2278	48.524353	0.000689	6.890317	2.334503	0.000276
   8	6.9650e-01	0.2711	48.746395	0.000557	5.573051	1.888201	0.000223
   9	7.9600e-01	0.3048	48.972475	0.000567	5.674379	1.922532	0.000227
  10	8.9550e-01	0.3529	49.206629	0.000588	5.877035	1.991193	0.000235
  11	9.9500e-01	0.3898	49.452894	0.000618	6.181020	2.094186	0.000248
  12	1.0945e+00	0.4187	49.703197	0.000628	6.282348	2.128517	0.000252
  13	1.1940e+00	0.4668	49.973685	0.000679	6.788989	2.300172	0.000272
  14	1.2935e+00	0.5150	50.143244	0.000426	4.255784	1.441899	0.000170
  15	1.3930e+00	0.5486	50.393547	0.000628	6.282348	2.128517	0.000252
  16	1.4925e+00	0.5823	50.647886	0.000638	6.383676	2.162848	0.000256
  17	1.5920e+00	0.6257	50.873966	0.000567	5.674379	1.922532	0.000227
  18	1.6915e+00	0.6609	51.152528	0.000699	6.991645	2.368834	0.000280
  19	1.7910e+00	0.7059	51.322088	0.000426	4.255784	1.441899	0.000170
  20	1.8905e+00	0.7412	51.596613	0.000689	6.890317	2.334503	0.000276
  21	1.9900e+00	0.7893	51.826730	0.000578	5.775707	1.956863	0.000231
  22	2.0895e+00	0.8278	52.068958	0.000608	6.079692	2.059855	0.000243
  23	2.1890e+00	0.8663	52.359632	0.000730	7.295630	2.471826	0.000292
  24	2.2885e+00	0.9064	52.573600	0.000537	5.370394	1.819539	0.000215
  25	2.3880e+00	0.9449	52.811791	0.000598	5.978363	2.025524	0.000239
  26	2.4875e+00	0.9802	53.090354	0.000699	6.991645	2.368834	0.000280
  27	2.5870e+00	1.0283	53.324507	0.000588	5.877035	1.991193	0.000235
  28	2.6865e+00	1.0620	53.566736	0.000608	6.079692	2.059855	0.000243
  29	2.7860e+00	1.1069	53.800889	0.000588	5.877035	1.991193	0.000235
  30	2.8855e+00	1.1486	54.043118	0.000608	6.079692	2.059855	0.000243
  31	2.9850e+00	1.1935	54.285346	0.000608	6.079692	2.059855	0.000243
  32	3.0845e+00	1.2256	54.531611	0.000618	6.181020	2.094186	0.000248
  33	3.1840e+00	1.2689	54.773839	0.000608	6.079692	2.059855	0.000243
  34	3.2835e+00	1.2930	55.056439	0.000709	7.092974	2.403165	0.000284
  35	3.3830e+00	1.3443	55.298667	0.000608	6.079692	2.059855	0.000243
  36	3.4825e+00	1.3925	55.520709	0.000557	5.573051	1.888201	0.000223
  37	3.5820e+00	1.4181	55.791197	0.000679	6.788989	2.300172	0.000272
  38	3.6815e+00	1.4647	56.029388	0.000598	5.978363	2.025524	0.000239
  39	3.7810e+00	1.4935	56.303914	0.000689	6.890317	2.334503	0.000276
  40	3.8805e+00	1.5433	56.554216	0.000628	6.282348	2.128517	0.000252
  41	3.9800e+00	1.5866	56.772221	0.000547	5.471722	1.853870	0.000219
  42	4.0795e+00	1.6235	57.034635	0.000659	6.586333	2.231510	0.000264
  43	4.1790e+00	1.6668	57.264752	0.000578	5.775707	1.956863	0.000231
  44	4.2785e+00	1.7005	57.494869	0.000578	5.775707	1.956863	0.000231
  45	4.3780e+00	1.7438	57.781505	0.000719	7.194302	2.437495	0.000288
  46	4.4775e+00	1.7903	57.995473	0.000537	5.370394	1.819539	0.000215
  47	4.5770e+00	1.8192	58.233664	0.000598	5.978363	2.025524	0.000239
  48	4.6765e+00	1.8673	58.483967	0.000628	6.282348	2.128517	0.000252
  49	4.7760e+00	1.8978	58.770604	0.000719	7.194302	2.437495	0.000288
  50	4.8755e+00	1.9379	58.968423	0.000497	4.965082	1.682215	0.000199
  51	4.9750e+00	1.9892	59.271208	0.000760	7.599615	2.574819	0.000304
  52	5.0745e+00	2.0213	59.489214	0.000547	5.471722	1.853870	0.000219
  53	5.1740e+00	2.0582	59.739516	0.000628	6.282348	2.128517	0.000252
  54	5.2735e+00	2.0967	59.997893	0.000649	6.485004	2.197179	0.000260
  55	5.3730e+00	2.1497	60.215898	0.000547	5.471722	1.853870	0.000219
  56	5.4725e+00	2.1737	60.474275	0.000649	6.485004	2.197179	0.000260
  57	5.5720e+00	2.2187	60.756874	0.000709	7.092974	2.403165	0.000284
  58	5.6715e+00	2.2604	60.991028	0.000588	5.877035	1.991193	0.000235
  59	5.7710e+00	2.3005	61.249405	0.000649	6.485004	2.197179	0.000260
  60	5.8705e+00	2.3326	61.463373	0.000537	5.370394	1.819539	0.000215
  61	5.9700e+00	2.3871	61.741935	0.000699	6.991645	2.368834	0.000280
  62	6.0695e+00	2.4224	61.996275	0.000638	6.383676	2.162848	0.000256
  63	6.1690e+00	2.4545	62.274837	0.000699	6.991645	2.368834	0.000280
  64	6.2685e+00	2.5026	62.529177	0.000638	6.383676	2.162848	0.000256
  65	6.3680e+00	2.5395	62.763331	0.000588	5.877035	1.991193	0.000235
  66	6.4675e+00	2.5780	62.997485	0.000588	5.877035	1.991193	0.000235
  67	6.5670e+00	2.6229	63.263936	0.000669	6.687661	2.265841	0.000268
  68	6.6665e+00	2.6582	63.530387	0.000669	6.687661	2.265841	0.000268
  69	6.7660e+00	2.7047	63.768578	0.000598	5.978363	2.025524	0.000239
  70	6.8655e+00	2.7464	64.039066	0.000679	6.788989	2.300172	0.000272
  71	6.9650e+00	2.7833	64.285331	0.000618	6.181020	2.094186	0.000248
  72	7.0645e+00	2.8218	64.527559	0.000608	6.079692	2.059855	0.000243
  73	7.1640e+00	2.8636	64.745564	0.000547	5.471722	1.853870	0.000219
  74	7.2635e+00	2.8988	65.028164	0.000709	7.092974	2.403165	0.000284
  75	7.3630e+00	2.9357	65.294615	0.000669	6.687661	2.265841	0.000268
  76	7.4625e+00	2.9742	65.548954	0.000638	6.383676	2.162848	0.000256
  77	7.5620e+00	3.0224	65.799257	0.000628	6.282348	2.128517	0.000252
  78	7.6615e+00	3.0577	66.049559	0.000628	6.282348	2.128517	0.000252
  79	7.7610e+00	3.0881	66.320047	0.000679	6.788989	2.300172	0.000272
  80	7.8605e+00	3.1331	66.550164	0.000578	5.775707	1.956863	0.000231
  81	7.9600e+00	3.1796	66.800466	0.000628	6.282348	2.128517	0.000252
  82	8.0595e+00	3.2181	67.066917	0.000669	6.687661	2.265841	0.000268
  83	8.1590e+00	3.2566	67.373740	0.000770	7.700943	2.609150	0.000308
  84	8.2585e+00	3.2983	67.595782	0.000557	5.573051	1.888201	0.000223
  85	8.3580e+00	3.3400	67.846085	0.000628	6.282348	2.128517	0.000252
  86	8.4575e+00	3.3865	68.132721	0.000719	7.194302	2.437495	0.000288
  87	8.5570e+00	3.4186	68.370912	0.000598	5.978363	2.025524	0.000239
  88	8.6565e+00	3.4555	68.588918	0.000547	5.471722	1.853870	0.000219
  89	8.7560e+00	3.5004	68.895740	0.000770	7.700943	2.609150	0.000308
  90	8.8555e+00	3.5373	69.154117	0.000649	6.485004	2.197179	0.000260
  91	8.9550e+00	3.5726	69.408456	0.000638	6.383676	2.162848	0.000256
  92	9.0545e+00	3.6143	69.634536	0.000567	5.674379	1.922532	0.000227
  93	9.1540e+00	3.6528	69.913098	0.000699	6.991645	2.368834	0.000280
  94	9.2535e+00	3.7010	70.151289	0.000598	5.978363	2.025524	0.000239
  95	9.3530e+00	3.7379	70.425814	0.000689	6.890317	2.334503	0.000276
  96	9.4525e+00	3.7780	70.684191	0.000649	6.485004	2.197179	0.000260
  97	9.5520e+00	3.8149	70.946605	0.000659	6.586333	2.231510	0.000264
  98	9.6515e+00	3.8470	71.180759	0.000588	5.877035	1.991193	0.000235
  99	9.7510e+00	3.8951	71.443173	0.000659	6.586333	2.231510	0.000264
 100	9.8505e+00	3.9288	71.705586	0.000659	6.586333	2.231510	0.000264
 101	9.9500e+00	3.9753	71.955889	0.000628	6.282348	2.128517	0.000252
 102	1.0050e+01	4.0186	72.250600	0.000740	7.396958	2.506157	0.000296
 103	1.0149e+01	4.0507	72.500902	0.000628	6.282348	2.128517	0.000252
 104	1.0248e+01	4.0956	72.755242	0.000638	6.383676	2.162848	0.000256
 105	1.0348e+01	4.1309	73.029767	0.000689	6.890317	2.334503	0.000276
 106	1.0447e+01	4.1630	73.292181	0.000659	6.586333	2.231510	0.000264
 107	1.0547e+01	4.2047	73.518260	0.000567	5.674379	1.922532	0.000227
 108	1.0646e+01	4.2592	73.776637	0.000649	6.485004	2.197179	0.000260
 109	1.0746e+01	4.2897	74.030977	0.000638	6.383676	2.162848	0.000256
 110	1.0845e+01	4.3427	74.305502	0.000689	6.890317	2.334503	0.000276
 111	1.0945e+01	4.3715	74.559841	0.000638	6.383676	2.162848	0.000256
 112	1.1044e+01	4.4197	74.793995	0.000588	5.877035	1.991193	0.000235
 113	1.1144e+01	4.4485	75.072558	0.000699	6.991645	2.368834	0.000280
 114	1.1243e+01	4.4919	75.310749	0.000598	5.978363	2.025524	0.000239
 115	1.1343e+01	4.5384	75.589311	0.000699	6.991645	2.368834	0.000280
 116	1.1443e+01	4.5801	75.807316	0.000547	5.471722	1.853870	0.000219
 117	1.1542e+01	4.6122	76.093953	0.000719	7.194302	2.437495	0.000288
 118	1.1642e+01	4.6459	76.344255	0.000628	6.282348	2.128517	0.000252
 119	1.1741e+01	4.6972	76.570335	0.000567	5.674379	1.922532	0.000227
 120	1.1841e+01	4.7309	76.873120	0.000760	7.599615	2.574819	0.000304
 121	1.1940e+01	4.7678	77.115348	0.000608	6.079692	2.059855	0.000243
 122	1.2040e+01	4.8079	77.349502	0.000588	5.877035	1.991193	0.000235
 123	1.2139e+01	4.8512	77.628065	0.000699	6.991645	2.368834	0.000280
 124	1.2239e+01	4.8929	77.878367	0.000628	6.282348	2.128517	0.000252
 125	1.2338e+01	4.9298	78.116558	0.000598	5.978363	2.025524	0.000239
 126	1.2438e+01	4.9731	78.407232	0.000730	7.295630	2.471826	0.000292
 127	1.2537e+01	5.0068	78.677720	0.000679	6.788989	2.300172	0.000272
 128	1.2636e+01	5.0598	78.911874	0.000588	5.877035	1.991193	0.000235
 129	1.2736e+01	5.0806	79.178325	0.000669	6.687661	2.265841	0.000268
 130	1.2835e+01	5.1351	79.420553	0.000608	6.079692	2.059855	0.000243
 131	1.2935e+01	5.1672	79.687004	0.000669	6.687661	2.265841	0.000268
 132	1.3034e+01	5.2170	79.969603	0.000709	7.092974	2.403165	0.000284
 133	1.3134e+01	5.2571	80.223943	0.000638	6.383676	2.162848	0.000256
 134	1.3233e+01	5.2956	80.494431	0.000679	6.788989	2.300172	0.000272
 135	1.3333e+01	5.3373	80.740696	0.000618	6.181020	2.094186	0.000248
 136	1.3432e+01	5.3774	81.035407	0.000740	7.396958	2.506157	0.000296
 137	1.3532e+01	5.4095	81.285710	0.000628	6.282348	2.128517	0.000252
 138	1.3632e+01	5.4464	81.507752	0.000557	5.573051	1.888201	0.000223
 139	1.3731e+01	5.4929	81.786314	0.000699	6.991645	2.368834	0.000280
 140	1.3831e+01	5.5362	82.044691	0.000649	6.485004	2.197179	0.000260
 141	1.3930e+01	5.5683	82.294993	0.000628	6.282348	2.128517	0.000252
 142	1.4030e+01	5.6180	82.525110	0.000578	5.775707	1.956863	0.000231
 143	1.4129e+01	5.6517	82.856155	0.000831	8.308912	2.815136	0.000333
 144	1.4229e+01	5.6870	83.045901	0.000476	4.762425	1.613553	0.000191
 145	1.4328e+01	5.7271	83.352723	0.000770	7.700943	2.609150	0.000308
 146	1.4428e+01	5.7688	83.570728	0.000547	5.471722	1.853870	0.000219
 147	1.4527e+01	5.8105	83.877551	0.000770	7.700943	2.609150	0.000308
 148	1.4627e+01	5.8442	84.139964	0.000659	6.586333	2.231510	0.000264
 149	1.4726e+01	5.8843	84.353933	0.000537	5.370394	1.819539	0.000215
 150	1.4825e+01	5.9325	84.612309	0.000649	6.485004	2.197179	0.000260
 151	1.4925e+01	5.9742	84.894909	0.000709	7.092974	2.403165	0.000284
 152	1.5024e+01	6.0079	85.096766	0.000507	5.066410	1.716546	0.000203
 153	1.5124e+01	6.0512	85.411662	0.000790	7.903599	2.677812	0.000316
 154	1.5223e+01	6.0849	85.670039	0.000649	6.485004	2.197179	0.000260
 155	1.5323e+01	6.1234	85.908230	0.000598	5.978363	2.025524	0.000239
 156	1.5422e+01	6.1683	86.146421	0.000598	5.978363	2.025524	0.000239
 157	1.5522e+01	6.2116	86.376538	0.000578	5.775707	1.956863	0.000231
 158	1.5621e+01	6.2501	86.707583	0.000831	8.308912	2.815136	0.000333
 159	1.5721e+01	6.2854	86.949811	0.000608	6.079692	2.059855	0.000243
 160	1.5820e+01	6.3223	87.179928	0.000578	5.775707	1.956863	0.000231
 161	1.5920e+01	6.3608	87.430230	0.000628	6.282348	2.128517	0.000252
 162	1.6020e+01	6.4009	87.684570	0.000638	6.383676	2.162848	0.000256
 163	1.6119e+01	6.4506	87.942946	0.000649	6.485004	2.197179	0.000260
 164	1.6218e+01	6.4907	88.201323	0.000649	6.485004	2.197179	0.000260
 165	1.6318e+01	6.5164	88.443551	0.000608	6.079692	2.059855	0.000243
 166	1.6418e+01	6.5758	88.689816	0.000618	6.181020	2.094186	0.000248
 167	1.6517e+01	6.6046	88.948193	0.000649	6.485004	2.197179	0.000260
 168	1.6616e+01	6.6415	89.202533	0.000638	6.383676	2.162848	0.000256
 169	1.6716e+01	6.6864	89.432649	0.000578	5.775707	1.956863	0.000231
 170	1.6816e+01	6.7169	89.711212	0.000699	6.991645	2.368834	0.000280
 171	1.6915e+01	6.7650	89.933254	0.000557	5.573051	1.888201	0.000223
 172	1.7015e+01	6.8100	90.191631	0.000649	6.485004	2.197179	0.000260
 173	1.7114e+01	6.8437	90.494416	0.000760	7.599615	2.574819	0.000304
 174	1.7213e+01	6.8838	90.692236	0.000497	4.965082	1.682215	0.000199
 175	1.7313e+01	6.9175	90.950612	0.000649	6.485004	2.197179	0.000260
 176	1.7413e+01	6.9624	91.249361	0.000750	7.498286	2.540488	0.000300
 177	1.7512e+01	7.0025	91.487552	0.000598	5.978363	2.025524	0.000239
 178	1.7611e+01	7.0442	91.701520	0.000537	5.370394	1.819539	0.000215
 179	1.7711e+01	7.0731	91.951822	0.000628	6.282348	2.128517	0.000252
 180	1.7811e+01	7.1196	92.214236	0.000659	6.586333	2.231510	0.000264
 181	1.7910e+01	7.1597	92.472613	0.000649	6.485004	2.197179	0.000260
 182	1.8009e+01	7.1982	92.702729	0.000578	5.775707	1.956863	0.000231
 183	1.8109e+01	7.2383	92.997440	0.000740	7.396958	2.506157	0.000296
 184	1.8209e+01	7.2768	93.243706	0.000618	6.181020	2.094186	0.000248
 185	1.8308e+01	7.3217	93.506119	0.000659	6.586333	2.231510	0.000264
 186	1.8407e+01	7.3554	93.712013	0.000517	5.167738	1.750877	0.000207
 187	1.8507e+01	7.4003	93.962316	0.000628	6.282348	2.128517	0.000252
 188	1.8607e+01	7.4388	94.220692	0.000649	6.485004	2.197179	0.000260
 189	1.8706e+01	7.4821	94.475032	0.000638	6.383676	2.162848	0.000256
 190	1.8805e+01	7.5206	94.689000	0.000537	5.370394	1.819539	0.000215
 191	1.8905e+01	7.5672	94.995822	0.000770	7.700943	2.609150	0.000308
 192	1.9005e+01	7.5944	95.270348	0.000689	6.890317	2.334503	0.000276
 193	1.9104e+01	7.6345	95.452019	0.000456	4.559769	1.544891	0.000183
 194	1.9203e+01	7.6923	95.722507	0.000679	6.788989	2.300172	0.000272
 195	1.9303e+01	7.7180	95.960698	0.000598	5.978363	2.025524	0.000239
 196	1.9402e+01	7.7565	96.251372	0.000730	7.295630	2.471826	0.000292
 197	1.9502e+01	7.8078	96.477451	0.000567	5.674379	1.922532	0.000227
 198	1.9602e+01	7.8383	96.756014	0.000699	6.991645	2.368834	0.000280
 199	1.9701e+01	7.8768	96.986130	0.000578	5.775707	1.956863	0.000231
 200	1.9800e+01	7.9233	97.192024	0.000517	5.167738	1.750877	0.000207
 201	1.9900e+01	7.9522	97.478661	0.000719	7.194302	2.437495	0.000288
 202	2.0000e+01	8.0131	97.745112	0.000669	6.687661	2.265841	0.000268
 203	2.0099e+01	8.0436	98.007526	0.000659	6.586333	2.231510	0.000264
 204	2.0198e+01	8.0789	98.225531	0.000547	5.471722	1.853870	0.000219
 205	2.0298e+01	8.1142	98.459685	0.000588	5.877035	1.991193	0.000235
 206	2.0398e+01	8.1527	98.726136	0.000669	6.687661	2.265841	0.000268
 207	2.0497e+01	8.1976	98.992587	0.000669	6.687661	2.265841	0.000268
 208	2.0596e+01	8.2409	99.198481	0.000517	5.167738	1.750877	0.000207
 209	2.0696e+01	8.2843	99.452820	0.000638	6.383676	2.162848	0.000256
 210	2.0796e+01	8.3147	99.715234	0.000659	6.586333	2.231510	0.000264
 211	2.0895e+01	8.3629	99.953425	0.000598	5.978363	2.025524	0.000239
 212	2.0994e+01	8.4062	100.167393	0.000537	5.370394	1.819539	0.000215
 213	2.1094e+01	8.4399	100.417696	0.000628	6.282348	2.128517	0.000252
 214	2.1194e+01	8.4800	100.651850	0.000588	5.877035	1.991193	0.000235
 215	2.1293e+01	8.5185	100.922338	0.000679	6.788989	2.300172	0.000272
 216	2.1392e+01	8.5602	101.132269	0.000527	5.269066	1.785208	0.000211
 217	2.1492e+01	8.5955	101.346237	0.000537	5.370394	1.819539	0.000215
 218	2.1591e+01	8.6340	101.649022	0.000760	7.599615	2.574819	0.000304
 219	2.1691e+01	8.6725	101.879139	0.000578	5.775707	1.956863	0.000231
 220	2.1791e+01	8.7206	102.121367	0.000608	6.079692	2.059855	0.000243
 221	2.1890e+01	8.7527	102.367632	0.000618	6.181020	2.094186	0.000248
 222	2.1989e+01	8.8024	102.573526	0.000517	5.167738	1.750877	0.000207
 223	2.2089e+01	8.8361	102.823829	0.000628	6.282348	2.128517	0.000252
 224	2.2189e+01	8.8778	103.074131	0.000628	6.282348	2.128517	0.000252
 225	2.2288e+01	8.9195	103.275988	0.000507	5.066410	1.716546	0.000203
 226	2.2387e+01	8.9564	103.526290	0.000628	6.282348	2.128517	0.000252
 227	2.2487e+01	8.9949	103.756407	0.000578	5.775707	1.956863	0.000231
 228	2.2587e+01	9.0318	104.010747	0.000638	6.383676	2.162848	0.000256
 229	2.2686e+01	9.0800	104.248938	0.000598	5.978363	2.025524	0.000239
 230	2.2785e+01	9.1185	104.487129	0.000598	5.978363	2.025524	0.000239
 231	2.2885e+01	9.1505	104.757617	0.000679	6.788989	2.300172	0.000272
 232	2.2985e+01	9.1923	104.991771	0.000588	5.877035	1.991193	0.000235
 233	2.3084e+01	9.2388	105.213813	0.000557	5.573051	1.888201	0.000223
 234	2.3183e+01	9.2757	105.423744	0.000527	5.269066	1.785208	0.000211
 235	2.3283e+01	9.3142	105.682121	0.000649	6.485004	2.197179	0.000260
 236	2.3383e+01	9.3639	105.908200	0.000567	5.674379	1.922532	0.000227
 237	2.3482e+01	9.3912	106.202911	0.000740	7.396958	2.506157	0.000296
 238	2.3581e+01	9.4233	106.433028	0.000578	5.775707	1.956863	0.000231
 239	2.3681e+01	9.4762	106.642959	0.000527	5.269066	1.785208	0.000211
 240	2.3780e+01	9.5163	106.860964	0.000547	5.471722	1.853870	0.000219
 241	2.3880e+01	9.5516	107.111267	0.000628	6.282348	2.128517	0.000252
 242	2.3980e+01	9.6029	107.361569	0.000628	6.282348	2.128517	0.000252
 243	2.4079e+01	9.6382	107.591686	0.000578	5.775707	1.956863	0.000231
 244	2.4178e+01	9.6831	107.813728	0.000557	5.573051	1.888201	0.000223
 245	2.4278e+01	9.7168	108.064031	0.000628	6.282348	2.128517	0.000252
 246	2.4378e+01	9.7537	108.282036	0.000547	5.471722	1.853870	0.000219
 247	2.4477e+01	9.7922	108.508116	0.000567	5.674379	1.922532	0.000227
 248	2.4576e+01	9.8372	108.762455	0.000638	6.383676	2.162848	0.000256
 249	2.4676e+01	9.8789	109.008721	0.000618	6.181020	2.094186	0.000248
 250	2.4776e+01	9.9077	109.234800	0.000567	5.674379	1.922532	0.000227
 251	2.4875e+01	9.9478	109.493177	0.000649	6.485004	2.197179	0.000260
 252	2.4974e+01	9.9815	109.690997	0.000497	4.965082	1.682215	0.000199
 253	2.5074e+01	10.0345	109.949373	0.000649	6.485004	2.197179	0.000260
 254	2.5174e+01	10.0650	110.187564	0.000598	5.978363	2.025524	0.000239
 255	2.5273e+01	10.1179	110.429792	0.000608	6.079692	2.059855	0.000243
 256	2.5372e+01	10.1580	110.635686	0.000517	5.167738	1.750877	0.000207
 257	2.5472e+01	10.1981	110.885989	0.000628	6.282348	2.128517	0.000252
 258	2.5572e+01	10.2382	111.120143	0.000588	5.877035	1.991193	0.000235
 259	2.5671e+01	10.2719	111.330074	0.000527	5.269066	1.785208	0.000211
 260	2.5770e+01	10.3168	111.596525	0.000669	6.687661	2.265841	0.000268
 261	2.5870e+01	10.3409	111.778196	0.000456	4.559769	1.544891	0.000183
 262	2.5970e+01	10.3794	112.044647	0.000669	6.687661	2.265841	0.000268
 263	2.6069e+01	10.4403	112.262652	0.000547	5.471722	1.853870	0.000219
 264	2.6169e+01	10.4660	112.521029	0.000649	6.485004	2.197179	0.000260
 265	2.6268e+01	10.5093	112.743071	0.000557	5.573051	1.888201	0.000223
 266	2.6367e+01	10.5478	112.973188	0.000578	5.775707	1.956863	0.000231
 267	2.6467e+01	10.5815	113.223490	0.000628	6.282348	2.128517	0.000252
 268	2.6567e+01	10.6296	113.461681	0.000598	5.978363	2.025524	0.000239
 269	2.6666e+01	10.6617	113.679687	0.000547	5.471722	1.853870	0.000219
 270	2.6765e+01	10.6986	113.893655	0.000537	5.370394	1.819539	0.000215
 271	2.6865e+01	10.7484	114.139920	0.000618	6.181020	2.094186	0.000248
 272	2.6965e+01	10.7901	114.361963	0.000557	5.573051	1.888201	0.000223
 273	2.7064e+01	10.8270	114.571894	0.000527	5.269066	1.785208	0.000211
 274	2.7163e+01	10.8655	114.810085	0.000598	5.978363	2.025524	0.000239
 275	2.7263e+01	10.9072	115.007904	0.000497	4.965082	1.682215	0.000199
 276	2.7363e+01	10.9489	115.250132	0.000608	6.079692	2.059855	0.000243
 277	2.7462e+01	10.9890	115.476212	0.000567	5.674379	1.922532	0.000227
 278	2.7561e+01	11.0179	115.710366	0.000588	5.877035	1.991193	0.000235
 279	2.7661e+01	11.0724	115.936446	0.000567	5.674379	1.922532	0.000227
 280	2.7761e+01	11.0981	116.170599	0.000588	5.877035	1.991193	0.000235
 281	2.7860e+01	11.1462	116.384568	0.000537	5.370394	1.819539	0.000215
 282	2.7959e+01	11.1847	116.634870	0.000628	6.282348	2.128517	0.000252
 283	2.8059e+01	11.2248	116.836727	0.000507	5.066410	1.716546	0.000203
 284	2.8159e+01	11.2601	117.078955	0.000608	6.079692	2.059855	0.000243
 285	2.8258e+01	11.3163	117.296960	0.000547	5.471722	1.853870	0.000219
 286	2.8358e+01	11.3499	117.559374	0.000659	6.586333	2.231510	0.000264
 287	2.8457e+01	11.3756	117.728934	0.000426	4.255784	1.441899	0.000170
 288	2.8556e+01	11.4253	117.991348	0.000659	6.586333	2.231510	0.000264
 289	2.8656e+01	11.4606	118.189167	0.000497	4.965082	1.682215	0.000199
 290	2.8756e+01	11.5007	118.411210	0.000557	5.573051	1.888201	0.000223
 291	2.8855e+01	11.5425	118.665549	0.000638	6.383676	2.162848	0.000256
 292	2.8954e+01	11.5826	118.855295	0.000476	4.762425	1.613553	0.000191
 293	2.9054e+01	11.6291	119.125783	0.000679	6.788989	2.300172	0.000272
 294	2.9154e+01	11.6596	119.335714	0.000527	5.269066	1.785208	0.000211
 295	2.9253e+01	11.7109	119.577942	0.000608	6.079692	2.059855	0.000243
 296	2.9352e+01	11.7478	119.779799	0.000507	5.066410	1.716546	0.000203
 297	2.9452e+01	11.7831	120.022027	0.000608	6.079692	2.059855	0.000243
 298	2.9552e+01	11.8280	120.264255	0.000608	6.079692	2.059855	0.000243
 299	2.9651e+01	11.8681	120.486298	0.000557	5.573051	1.888201	0.000223
 300	2.9750e+01	11.9146	120.696229	0.000527	5.269066	1.785208	0.000211
 301	2.9850e+01	11.9547	120.902123	0.000517	5.167738	1.750877	0.000207
 302	2.9950e+01	11.9772	121.140314	0.000598	5.978363	2.025524	0.000239
 303	3.0049e+01	12.0157	121.382542	0.000608	6.079692	2.059855	0.000243
 304	3.0148e+01	12.0638	121.640918	0.000649	6.485004	2.197179	0.000260
 305	3.0248e+01	12.0927	121.834701	0.000486	4.863753	1.647884	0.000195
 306	3.0348e+01	12.1408	122.076929	0.000608	6.079692	2.059855	0.000243
 307	3.0447e+01	12.1793	122.303009	0.000567	5.674379	1.922532	0.000227
 308	3.0547e+01	12.2162	122.468531	0.000415	4.154456	1.407568	0.000166
 309	3.0646e+01	12.2595	122.755168	0.000719	7.194302	2.437495	0.000288
 310	3.0745e+01	12.3077	122.969136	0.000537	5.370394	1.819539	0.000215
 311	3.0845e+01	12.3478	123.187141	0.000547	5.471722	1.853870	0.000219
 312	3.0945e+01	12.3847	123.433407	0.000618	6.181020	2.094186	0.000248
 313	3.1044e+01	12.4200	123.619115	0.000466	4.661097	1.579222	0.000187
 314	3.1143e+01	12.4681	123.861343	0.000608	6.079692	2.059855	0.000243
 315	3.1243e+01	12.5034	124.095497	0.000588	5.877035	1.991193	0.000235
 316	3.1343e+01	12.5355	124.317539	0.000557	5.573051	1.888201	0.000223
 317	3.1442e+01	12.5820	124.483062	0.000415	4.154456	1.407568	0.000166
 318	3.1541e+01	12.6141	124.749513	0.000669	6.687661	2.265841	0.000268
 319	3.1641e+01	12.6590	124.971555	0.000557	5.573051	1.888201	0.000223
 320	3.1741e+01	12.7055	125.193598	0.000557	5.573051	1.888201	0.000223
 321	3.1840e+01	12.7472	125.415640	0.000557	5.573051	1.888201	0.000223
 322	3.1939e+01	12.7841	125.629608	0.000537	5.370394	1.819539	0.000215
 323	3.2039e+01	12.8162	125.847614	0.000547	5.471722	1.853870	0.000219
 324	3.2139e+01	12.8531	126.065619	0.000547	5.471722	1.853870	0.000219
 325	3.2238e+01	12.9012	126.275550	0.000527	5.269066	1.785208	0.000211
 326	3.2337e+01	12.9430	126.473370	0.000497	4.965082	1.682215	0.000199
 327	3.2437e+01	12.9686	126.707524	0.000588	5.877035	1.991193	0.000235
 328	3.2536e+01	13.0200	126.921492	0.000537	5.370394	1.819539	0.000215
 329	3.2636e+01	13.0472	127.155646	0.000588	5.877035	1.991193	0.000235
 330	3.2736e+01	13.0873	127.397874	0.000608	6.079692	2.059855	0.000243
 331	3.2835e+01	13.1387	127.575508	0.000446	4.458441	1.510561	0.000179
 332	3.2934e+01	13.1691	127.825810	0.000628	6.282348	2.128517	0.000252
 333	3.3034e+01	13.2125	128.027667	0.000507	5.066410	1.716546	0.000203
 334	3.3133e+01	13.2542	128.257784	0.000578	5.775707	1.956863	0.000231
 335	3.3233e+01	13.2991	128.467715	0.000527	5.269066	1.785208	0.000211
 336	3.3333e+01	13.3328	128.637275	0.000426	4.255784	1.441899	0.000170
 337	3.3432e+01	13.3745	128.907763	0.000679	6.788989	2.300172	0.000272
 338	3.3532e+01	13.4130	129.125768	0.000547	5.471722	1.853870	0.000219
 339	3.3631e+01	13.4579	129.359922	0.000588	5.877035	1.991193	0.000235
 340	3.3730e+01	13.4964	129.521407	0.000405	4.053128	1.373237	0.000162
 341	3.3830e+01	13.5429	129.763635	0.000608	6.079692	2.059855	0.000243
 342	3.3929e+01	13.5846	129.969529	0.000517	5.167738	1.750877	0.000207
 343	3.4029e+01	13.6167	130.195609	0.000567	5.674379	1.922532	0.000227
 344	3.4129e+01	13.6600	130.401503	0.000517	5.167738	1.750877	0.000207
 345	3.4228e+01	13.6953	130.591248	0.000476	4.762425	1.613553	0.000191
 346	3.4328e+01	13.7386	130.849625	0.000649	6.485004	2.197179	0.000260
 347	3.4427e+01	13.7707	131.079742	0.000578	5.775707	1.956863	0.000231
 348	3.4526e+01	13.8108	131.289673	0.000527	5.269066	1.785208	0.000211
 349	3.4626e+01	13.8574	131.463270	0.000436	4.357112	1.476230	0.000174
 350	3.4725e+01	13.8975	131.713572	0.000628	6.282348	2.128517	0.000252
 351	3.4825e+01	13.9328	131.887169	0.000436	4.357112	1.476230	0.000174
 352	3.4925e+01	13.9777	132.089026	0.000507	5.066410	1.716546	0.000203
 353	3.5024e+01	14.0162	132.359514	0.000679	6.788989	2.300172	0.000272
 354	3.5123e+01	14.0435	132.541185	0.000456	4.559769	1.544891	0.000183
 355	3.5223e+01	14.0884	132.763227	0.000557	5.573051	1.888201	0.000223
 356	3.5322e+01	14.1237	132.989307	0.000567	5.674379	1.922532	0.000227
 357	3.5422e+01	14.1750	133.211349	0.000557	5.573051	1.888201	0.000223
 358	3.5522e+01	14.2119	133.405132	0.000486	4.863753	1.647884	0.000195
 359	3.5621e+01	14.2488	133.574692	0.000426	4.255784	1.441899	0.000170
 360	3.5721e+01	14.2905	133.837105	0.000659	6.586333	2.231510	0.000264
 361	3.5820e+01	14.3306	134.059148	0.000557	5.573051	1.888201	0.000223
 362	3.5919e+01	14.3755	134.248893	0.000476	4.762425	1.613553	0.000191
 363	3.6019e+01	14.4108	134.479010	0.000578	5.775707	1.956863	0.000231
 364	3.6118e+01	14.4509	134.701052	0.000557	5.573051	1.888201	0.000223
 365	3.6218e+01	14.4846	134.886761	0.000466	4.661097	1.579222	0.000187
 366	3.6318e+01	14.5376	135.112840	0.000567	5.674379	1.922532	0.000227
 367	3.6417e+01	14.5712	135.306623	0.000486	4.863753	1.647884	0.000195
 368	3.6517e+01	14.6130	135.552888	0.000618	6.181020	2.094186	0.000248
 369	3.6616e+01	14.6515	135.742633	0.000476	4.762425	1.613553	0.000191
 370	3.6715e+01	14.6964	135.996973	0.000638	6.383676	2.162848	0.000256
 371	3.6815e+01	14.7220	136.166533	0.000426	4.255784	1.441899	0.000170
 372	3.6914e+01	14.7702	136.372427	0.000517	5.167738	1.750877	0.000207
 373	3.7014e+01	14.8119	136.562172	0.000476	4.762425	1.613553	0.000191
 374	3.7114e+01	14.8552	136.808437	0.000618	6.181020	2.094186	0.000248
 375	3.7213e+01	14.8905	137.018368	0.000527	5.269066	1.785208	0.000211
 376	3.7313e+01	14.9338	137.216188	0.000497	4.965082	1.682215	0.000199
 377	3.7412e+01	14.9691	137.426119	0.000527	5.269066	1.785208	0.000211
 378	3.7511e+01	15.0028	137.615864	0.000476	4.762425	1.613553	0.000191
 379	3.7611e+01	15.0541	137.821758	0.000517	5.167738	1.750877	0.000207
 380	3.7711e+01	15.0798	138.047838	0.000567	5.674379	1.922532	0.000227
 381	3.7810e+01	15.1247	138.249695	0.000507	5.066410	1.716546	0.000203
 382	3.7910e+01	15.1680	138.479812	0.000578	5.775707	1.956863	0.000231
 383	3.8009e+01	15.2033	138.617074	0.000345	3.445159	1.167251	0.000138
 384	3.8108e+01	15.2482	138.859302	0.000608	6.079692	2.059855	0.000243
 385	3.8208e+01	15.2964	139.077308	0.000547	5.471722	1.853870	0.000219
 386	3.8307e+01	15.3252	139.299350	0.000557	5.573051	1.888201	0.000223
 387	3.8407e+01	15.3750	139.497170	0.000497	4.965082	1.682215	0.000199
 388	3.8507e+01	15.4006	139.666729	0.000426	4.255784	1.441899	0.000170
 389	3.8606e+01	15.4568	139.917032	0.000628	6.282348	2.128517	0.000252
 390	3.8706e+01	15.4905	140.062369	0.000365	3.647815	1.235913	0.000146
 391	3.8805e+01	15.5306	140.272300	0.000527	5.269066	1.785208	0.000211
 392	3.8904e+01	15.5691	140.502417	0.000578	5.775707	1.956863	0.000231
 393	3.9004e+01	15.5996	140.676013	0.000436	4.357112	1.476230	0.000174
 394	3.9103e+01	15.6493	140.926316	0.000628	6.282348	2.128517	0.000252
 395	3.9203e+01	15.6814	141.095875	0.000426	4.255784	1.441899	0.000170
 396	3.9303e+01	15.7263	141.309844	0.000537	5.370394	1.819539	0.000215
 397	3.9402e+01	15.7712	141.499589	0.000476	4.762425	1.613553	0.000191
 398	3.9502e+01	15.8113	141.717594	0.000547	5.471722	1.853870	0.000219
 399	3.9601e+01	15.8546	141.907340	0.000476	4.762425	1.613553	0.000191
 400	3.9700e+01	15.8867	142.093048	0.000466	4.661097	1.579222	0.000187
 401	3.9800e+01	15.9268	142.331239	0.000598	5.978363	2.025524	0.000239
 402	3.9900e+01	15.9621	142.512910	0.000456	4.559769	1.544891	0.000183
 403	3.9999e+01	16.0135	142.706693	0.000486	4.863753	1.647884	0.000195
 404	4.0099e+01	16.0520	142.904512	0.000497	4.965082	1.682215	0.000199
 405	4.0198e+01	16.0921	143.126555	0.000557	5.573051	1.888201	0.000223
 406	4.0297e+01	16.1257	143.316300	0.000476	4.762425	1.613553	0.000191
 407	4.0397e+01	16.1659	143.497971	0.000456	4.559769	1.544891	0.000183
 408	4.0496e+01	16.2076	143.715977	0.000547	5.471722	1.853870	0.000219
 409	4.0596e+01	16.2477	143.897648	0.000456	4.559769	1.544891	0.000183
 410	4.0696e+01	16.2846	144.111616	0.000537	5.370394	1.819539	0.000215
 411	4.0795e+01	16.3343	144.297324	0.000466	4.661097	1.579222	0.000187
 412	4.0895e+01	16.3664	144.539552	0.000608	6.079692	2.059855	0.000243
 413	4.0994e+01	16.4065	144.741409	0.000507	5.066410	1.716546	0.000203
 414	4.1093e+01	16.4514	144.951340	0.000527	5.269066	1.785208	0.000211
 415	4.1193e+01	16.4819	145.116863	0.000415	4.154456	1.407568	0.000166
 416	4.1292e+01	16.5236	145.290460	0.000436	4.357112	1.476230	0.000174
 417	4.1392e+01	16.5605	145.556910	0.000669	6.687661	2.265841	0.000268
 418	4.1492e+01	16.6086	145.710322	0.000385	3.850471	1.304575	0.000154
 419	4.1591e+01	16.6423	145.920253	0.000527	5.269066	1.785208	0.000211
 420	4.1691e+01	16.6872	146.101924	0.000456	4.559769	1.544891	0.000183
 421	4.1790e+01	16.7225	146.307818	0.000517	5.167738	1.750877	0.000207
 422	4.1889e+01	16.7642	146.525823	0.000547	5.471722	1.853870	0.000219
 423	4.1989e+01	16.8156	146.723643	0.000497	4.965082	1.682215	0.000199
 424	4.2089e+01	16.8444	146.905314	0.000456	4.559769	1.544891	0.000183
 425	4.2188e+01	16.8765	147.119282	0.000537	5.370394	1.819539	0.000215
 426	4.2288e+01	16.9214	147.292879	0.000436	4.357112	1.476230	0.000174
 427	4.2387e+01	16.9599	147.502810	0.000527	5.269066	1.785208	0.000211
 428	4.2486e+01	17.0065	147.692555	0.000476	4.762425	1.613553	0.000191
 429	4.2586e+01	17.0402	147.874226	0.000456	4.559769	1.544891	0.000183
 430	4.2685e+01	17.0819	148.088195	0.000537	5.370394	1.819539	0.000215
 431	4.2785e+01	17.1236	148.290051	0.000507	5.066410	1.716546	0.000203
 432	4.2885e+01	17.1605	148.491908	0.000507	5.066410	1.716546	0.000203
 433	4.2984e+01	17.2070	148.693765	0.000507	5.066410	1.716546	0.000203
 434	4.3084e+01	17.2455	148.887547	0.000486	4.863753	1.647884	0.000195
 435	4.3183e+01	17.2776	149.057107	0.000426	4.255784	1.441899	0.000170
 436	4.3282e+01	17.3177	149.250890	0.000486	4.863753	1.647884	0.000195
 437	4.3382e+01	17.3610	149.468895	0.000547	5.471722	1.853870	0.000219
 438	4.3481e+01	17.4027	149.662678	0.000486	4.863753	1.647884	0.000195
 439	4.3581e+01	17.4460	149.884720	0.000557	5.573051	1.888201	0.000223
 440	4.3681e+01	17.4829	150.082540	0.000497	4.965082	1.682215	0.000199
 441	4.3780e+01	17.5214	150.272285	0.000476	4.762425	1.613553	0.000191
 442	4.3880e+01	17.5615	150.433770	0.000405	4.053128	1.373237	0.000162
 443	4.3979e+01	17.5952	150.627553	0.000486	4.863753	1.647884	0.000195
 444	4.4078e+01	17.6498	150.817298	0.000476	4.762425	1.613553	0.000191
 445	4.4178e+01	17.6835	151.063564	0.000618	6.181020	2.094186	0.000248
 446	4.4278e+01	17.7252	151.216975	0.000385	3.850471	1.304575	0.000154
 447	4.4377e+01	17.7637	151.378460	0.000405	4.053128	1.373237	0.000162
 448	4.4477e+01	17.7942	151.568206	0.000476	4.762425	1.613553	0.000191
 449	4.4576e+01	17.8375	151.794285	0.000567	5.674379	1.922532	0.000227
 450	4.4675e+01	17.8744	151.963845	0.000426	4.255784	1.441899	0.000170
 451	4.4775e+01	17.9193	152.177813	0.000537	5.370394	1.819539	0.000215
 452	4.4874e+01	17.9706	152.351410	0.000436	4.357112	1.476230	0.000174
 453	4.4974e+01	17.9995	152.565378	0.000537	5.370394	1.819539	0.000215
 454	4.5074e+01	18.0428	152.743012	0.000446	4.458441	1.510561	0.000179
 455	4.5173e+01	18.0781	152.920646	0.000446	4.458441	1.510561	0.000179
 456	4.5273e+01	18.1262	153.130577	0.000527	5.269066	1.785208	0.000211
 457	4.5372e+01	18.1599	153.267840	0.000345	3.445159	1.167251	0.000138
 458	4.5471e+01	18.1952	153.514105	0.000618	6.181020	2.094186	0.000248
 459	4.5571e+01	18.2385	153.724036	0.000527	5.269066	1.785208	0.000211
 460	4.5670e+01	18.2722	153.889559	0.000415	4.154456	1.407568	0.000166
 461	4.5770e+01	18.3155	154.123713	0.000588	5.877035	1.991193	0.000235
 462	4.5870e+01	18.3604	154.305384	0.000456	4.559769	1.544891	0.000183
 463	4.5969e+01	18.4038	154.466869	0.000405	4.053128	1.373237	0.000162
 464	4.6069e+01	18.4455	154.688912	0.000557	5.573051	1.888201	0.000223
 465	4.6168e+01	18.4792	154.838286	0.000375	3.749143	1.270244	0.000150
 466	4.6267e+01	18.5273	155.064365	0.000567	5.674379	1.922532	0.000227
 467	4.6367e+01	18.5578	155.237962	0.000436	4.357112	1.476230	0.000174
 468	4.6467e+01	18.5979	155.476153	0.000598	5.978363	2.025524	0.000239
 469	4.6566e+01	18.6332	155.649750	0.000436	4.357112	1.476230	0.000174
 470	4.6666e+01	18.6733	155.863718	0.000537	5.370394	1.819539	0.000215
 471	4.6765e+01	18.7150	156.037315	0.000436	4.357112	1.476230	0.000174
 472	4.6864e+01	18.7599	156.227060	0.000476	4.762425	1.613553	0.000191
 473	4.6964e+01	18.7952	156.412768	0.000466	4.661097	1.579222	0.000187
 474	4.7063e+01	18.8401	156.606551	0.000486	4.863753	1.647884	0.000195
 475	4.7163e+01	18.8754	156.808408	0.000507	5.066410	1.716546	0.000203
 476	4.7263e+01	18.9235	156.994116	0.000466	4.661097	1.579222	0.000187
 477	4.7362e+01	18.9620	157.232307	0.000598	5.978363	2.025524	0.000239
 478	4.7462e+01	18.9957	157.409941	0.000446	4.458441	1.510561	0.000179
 479	4.7561e+01	19.0342	157.579501	0.000426	4.255784	1.441899	0.000170
 480	4.7660e+01	19.0743	157.769246	0.000476	4.762425	1.613553	0.000191
 481	4.7760e+01	19.1128	158.003400	0.000588	5.877035	1.991193	0.000235
 482	4.7859e+01	19.1594	158.189108	0.000466	4.661097	1.579222	0.000187
 483	4.7959e+01	19.1995	158.350594	0.000405	4.053128	1.373237	0.000162
 484	4.8059e+01	19.2364	158.552450	0.000507	5.066410	1.716546	0.000203
 485	4.8158e+01	19.2733	158.726047	0.000436	4.357112	1.476230	0.000174
 486	4.8258e+01	19.3102	158.960201	0.000588	5.877035	1.991193	0.000235
 487	4.8357e+01	19.3583	159.109575	0.000375	3.749143	1.270244	0.000150
 488	4.8456e+01	19.3872	159.291246	0.000456	4.559769	1.544891	0.000183
 489	4.8556e+01	19.4305	159.521363	0.000578	5.775707	1.956863	0.000231
 490	4.8656e+01	19.4770	159.694960	0.000436	4.357112	1.476230	0.000174
 491	4.8755e+01	19.5075	159.864520	0.000426	4.255784	1.441899	0.000170
 492	4.8855e+01	19.5492	160.021968	0.000395	3.951800	1.338906	0.000158
 493	4.8954e+01	19.5909	160.239973	0.000547	5.471722	1.853870	0.000219
 494	4.9053e+01	19.6310	160.409533	0.000426	4.255784	1.441899	0.000170
 495	4.9153e+01	19.6663	160.631575	0.000557	5.573051	1.888201	0.000223
 496	4.9252e+01	19.7176	160.825358	0.000486	4.863753	1.647884	0.000195
 497	4.9352e+01	19.7497	161.027215	0.000507	5.066410	1.716546	0.000203
 498	4.9452e+01	19.7962	161.200811	0.000436	4.357112	1.476230	0.000174
 499	4.9551e+01	19.8267	161.370371	0.000426	4.255784	1.441899	0.000170
 500	4.9651e+01	19.8684	161.539931	0.000426	4.255784	1.441899	0.000170
 501	4.9750e+01	19.9149	161.721602	0.000456	4.559769	1.544891	0.000183
 502	4.9849e+01	19.9470	161.907310	0.000466	4.661097	1.579222	0.000187
 503	4.9949e+01	19.9887	162.097056	0.000476	4.762425	1.613553	0.000191
 504	5.0048e+01	19.9454	162.004201	0.000233	2.330548	0.789611	-0.000093
 505	5.0148e+01	19.9117	161.854827	0.000375	3.749143	1.270244	-0.000150
 506	5.0248e+01	19.8716	161.725639	0.000324	3.242502	1.098589	-0.000130
 507	5.0347e+01	19.8283	161.608562	0.000294	2.938518	0.995597	-0.000118
 508	5.0447e+01	19.7882	161.479374	0.000324	3.242502	1.098589	-0.000130
 509	5.0546e+01	19.7481	161.338074	0.000355	3.546487	1.201582	-0.000142
 510	5.0645e+01	19.7080	161.192737	0.000365	3.647815	1.235913	-0.000146
 511	5.0745e+01	19.6727	161.067586	0.000314	3.141174	1.064259	-0.000126
 512	5.0844e+01	19.6358	160.938398	0.000324	3.242502	1.098589	-0.000130
 513	5.0944e+01	19.5941	160.817284	0.000304	3.039846	1.029928	-0.000122
 514	5.1044e+01	19.5620	160.688095	0.000324	3.242502	1.098589	-0.000130
 515	5.1143e+01	19.5155	160.510461	0.000446	4.458441	1.510561	-0.000179
 516	5.1242e+01	19.4754	160.425681	0.000213	2.127892	0.720949	-0.000085
 517	5.1342e+01	19.4449	160.244010	0.000456	4.559769	1.544891	-0.000183
 518	5.1441e+01	19.3888	160.122896	0.000304	3.039846	1.029928	-0.000122
 519	5.1541e+01	19.3599	160.001782	0.000304	3.039846	1.029928	-0.000122
 520	5.1641e+01	19.3134	159.808000	0.000486	4.863753	1.647884	-0.000195
 521	5.1740e+01	19.2716	159.694960	0.000284	2.837189	0.961266	-0.000114
 522	5.1840e+01	19.2380	159.577883	0.000294	2.938518	0.995597	-0.000118
 523	5.1939e+01	19.1962	159.440620	0.000345	3.445159	1.167251	-0.000138
 524	5.2038e+01	19.1577	159.275098	0.000415	4.154456	1.407568	-0.000166
 525	5.2138e+01	19.1144	159.125724	0.000375	3.749143	1.270244	-0.000150
 526	5.2237e+01	19.0807	158.984424	0.000355	3.546487	1.201582	-0.000142
 527	5.2337e+01	19.0406	158.847161	0.000345	3.445159	1.167251	-0.000138
 528	5.2437e+01	19.0053	158.754307	0.000233	2.330548	0.789611	-0.000093
 529	5.2536e+01	18.9460	158.572636	0.000456	4.559769	1.544891	-0.000183
 530	5.2636e+01	18.9219	158.427299	0.000365	3.647815	1.235913	-0.000146
 531	5.2735e+01	18.8786	158.273888	0.000385	3.850471	1.304575	-0.000154
 532	5.2834e+01	18.8337	158.112403	0.000405	4.053128	1.373237	-0.000162
 533	5.2934e+01	18.8048	157.946880	0.000415	4.154456	1.407568	-0.000166
 534	5.3033e+01	18.7551	157.805580	0.000355	3.546487	1.201582	-0.000142
 535	5.3133e+01	18.7214	157.660243	0.000365	3.647815	1.235913	-0.000146
 536	5.3233e+01	18.6781	157.559315	0.000253	2.533205	0.858273	-0.000101
 537	5.3332e+01	18.6428	157.401867	0.000395	3.951800	1.338906	-0.000158
 538	5.3431e+01	18.5963	157.228270	0.000436	4.357112	1.476230	-0.000174
 539	5.3531e+01	18.5465	157.078896	0.000375	3.749143	1.270244	-0.000150
 540	5.3630e+01	18.5161	156.933559	0.000365	3.647815	1.235913	-0.000146
 541	5.3730e+01	18.4808	156.772074	0.000405	4.053128	1.373237	-0.000162
 542	5.3830e+01	18.4358	156.602514	0.000426	4.255784	1.441899	-0.000170
 543	5.3929e+01	18.3957	156.473326	0.000324	3.242502	1.098589	-0.000130
 544	5.4029e+01	18.3540	156.311840	0.000405	4.053128	1.373237	-0.000162
 545	5.4128e+01	18.3219	156.162466	0.000375	3.749143	1.270244	-0.000150
 546	5.4227e+01	18.2706	156.025203	0.000345	3.445159	1.167251	-0.000138
 547	5.4327e+01	18.2433	155.875829	0.000375	3.749143	1.270244	-0.000150
 548	5.4426e+01	18.1952	155.714344	0.000405	4.053128	1.373237	-0.000162
 549	5.4526e+01	18.1551	155.532673	0.000456	4.559769	1.544891	-0.000183
 550	5.4626e+01	18.1118	155.419633	0.000284	2.837189	0.961266	-0.000114
 551	5.4725e+01	18.0781	155.217776	0.000507	5.066410	1.716546	-0.000203
 552	5.4825e+01	18.0444	155.056291	0.000405	4.053128	1.373237	-0.000162
 553	5.4924e+01	17.9979	154.882694	0.000436	4.357112	1.476230	-0.000174
 554	5.5023e+01	17.9626	154.757543	0.000314	3.141174	1.064259	-0.000126
 555	5.5123e+01	17.9177	154.592020	0.000415	4.154456	1.407568	-0.000166
 556	5.5222e+01	17.8808	154.406312	0.000466	4.661097	1.579222	-0.000187
 557	5.5322e+01	17.8423	154.248864	0.000395	3.951800	1.338906	-0.000158
 558	5.5422e+01	17.7942	154.103527	0.000365	3.647815	1.235913	-0.000146
 559	5.5521e+01	17.7573	153.942041	0.000405	4.053128	1.373237	-0.000162
 560	5.5620e+01	17.7268	153.800742	0.000355	3.546487	1.201582	-0.000142
 561	5.5720e+01	17.6835	153.655405	0.000365	3.647815	1.235913	-0.000146
 562	5.5819e+01	17.6385	153.453548	0.000507	5.066410	1.716546	-0.000203
 563	5.5919e+01	17.6032	153.300137	0.000385	3.850471	1.304575	-0.000154
 564	5.6019e+01	17.5599	153.162874	0.000345	3.445159	1.167251	-0.000138
 565	5.6118e+01	17.5198	152.944869	0.000547	5.471722	1.853870	-0.000219
 566	5.6218e+01	17.4765	152.835866	0.000274	2.735861	0.926935	-0.000110
 567	5.6317e+01	17.4460	152.646121	0.000476	4.762425	1.613553	-0.000191
 568	5.6416e+01	17.4011	152.496747	0.000375	3.749143	1.270244	-0.000150
 569	5.6516e+01	17.3498	152.347373	0.000375	3.749143	1.270244	-0.000150
 570	5.6615e+01	17.3321	152.185887	0.000405	4.053128	1.373237	-0.000162
 571	5.6715e+01	17.2856	152.008253	0.000446	4.458441	1.510561	-0.000179
 572	5.6815e+01	17.2423	151.854842	0.000385	3.850471	1.304575	-0.000154
 573	5.6914e+01	17.2022	151.677208	0.000446	4.458441	1.510561	-0.000179
 574	5.7014e+01	17.1476	151.527834	0.000375	3.749143	1.270244	-0.000150
 575	5.7113e+01	17.1156	151.346163	0.000456	4.559769	1.544891	-0.000183
 576	5.7212e+01	17.0787	151.196789	0.000375	3.749143	1.270244	-0.000150
 577	5.7312e+01	17.0321	151.023192	0.000436	4.357112	1.476230	-0.000174
 578	5.7411e+01	17.0001	150.873818	0.000375	3.749143	1.270244	-0.000150
 579	5.7511e+01	16.9696	150.712333	0.000405	4.053128	1.373237	-0.000162
 580	5.7611e+01	16.9166	150.571033	0.000355	3.546487	1.201582	-0.000142
 581	5.7710e+01	16.8862	150.385325	0.000466	4.661097	1.579222	-0.000187
 582	5.7809e+01	16.8428	150.199617	0.000466	4.661097	1.579222	-0.000187
 583	5.7909e+01	16.8059	150.021983	0.000446	4.458441	1.510561	-0.000179
 584	5.8008e+01	16.7706	149.856460	0.000415	4.154456	1.407568	-0.000166
 585	5.8108e+01	16.7241	149.727272	0.000324	3.242502	1.098589	-0.000130
 586	5.8208e+01	16.6808	149.553675	0.000436	4.357112	1.476230	-0.000174
 587	5.8307e+01	16.6455	149.347781	0.000517	5.167738	1.750877	-0.000207
 588	5.8407e+01	16.6150	149.214555	0.000334	3.343830	1.132920	-0.000134
 589	5.8506e+01	16.5605	149.028847	0.000466	4.661097	1.579222	-0.000187
 590	5.8605e+01	16.5220	148.863325	0.000415	4.154456	1.407568	-0.000166
 591	5.8705e+01	16.4851	148.717988	0.000365	3.647815	1.235913	-0.000146
 592	5.8804e+01	16.4482	148.548428	0.000426	4.255784	1.441899	-0.000170
 593	5.8904e+01	16.4065	148.386943	0.000405	4.053128	1.373237	-0.000162
 594	5.9004e+01	16.3696	148.189123	0.000497	4.965082	1.682215	-0.000199
 595	5.9103e+01	16.3295	148.047823	0.000355	3.546487	1.201582	-0.000142
 596	5.9203e+01	16.2878	147.878264	0.000426	4.255784	1.441899	-0.000170
 597	5.9302e+01	16.2461	147.700630	0.000446	4.458441	1.510561	-0.000179
 598	5.9401e+01	16.2076	147.518958	0.000456	4.559769	1.544891	-0.000183
 599	5.9501e+01	16.1626	147.381696	0.000345	3.445159	1.167251	-0.000138
 600	5.9600e+01	16.1113	147.204062	0.000446	4.458441	1.510561	-0.000179
 601	5.9700e+01	16.0889	147.034502	0.000426	4.255784	1.441899	-0.000170
 602	5.9800e+01	16.0439	146.832645	0.000507	5.066410	1.716546	-0.000203
 603	5.9899e+01	16.0054	146.671160	0.000405	4.053128	1.373237	-0.000162
 604	5.9998e+01	15.9637	146.541972	0.000324	3.242502	1.098589	-0.000130
 605	6.0098e+01	15.9268	146.356263	0.000466	4.661097	1.579222	-0.000187
 606	6.0197e+01	15.8899	146.170555	0.000466	4.661097	1.579222	-0.000187
 607	6.0297e+01	15.8498	145.948513	0.000557	5.573051	1.888201	-0.000223
 608	6.0397e+01	15.8065	145.843547	0.000263	2.634533	0.892604	-0.000105
 609	6.0496e+01	15.7680	145.657839	0.000466	4.661097	1.579222	-0.000187
 610	6.0596e+01	15.7231	145.472131	0.000466	4.661097	1.579222	-0.000187
 611	6.0695e+01	15.6942	145.298534	0.000436	4.357112	1.476230	-0.000174
 612	6.0794e+01	15.6573	145.124937	0.000436	4.357112	1.476230	-0.000174
 613	6.0894e+01	15.6028	144.959414	0.000415	4.154456	1.407568	-0.000166
 614	6.0993e+01	15.5659	144.785818	0.000436	4.357112	1.476230	-0.000174
 615	6.1093e+01	15.5258	144.620295	0.000415	4.154456	1.407568	-0.000166
 616	6.1193e+01	15.4841	144.406327	0.000537	5.370394	1.819539	-0.000215
 617	6.1292e+01	15.4552	144.269064	0.000345	3.445159	1.167251	-0.000138
 618	6.1392e+01	15.4087	144.079319	0.000476	4.762425	1.613553	-0.000191
 619	6.1491e+01	15.3766	143.881499	0.000497	4.965082	1.682215	-0.000199
 620	6.1590e+01	15.3284	143.687717	0.000486	4.863753	1.647884	-0.000195
 621	6.1690e+01	15.2851	143.542380	0.000365	3.647815	1.235913	-0.000146
 622	6.1789e+01	15.2563	143.360709	0.000456	4.559769	1.544891	-0.000183
 623	6.1889e+01	15.2145	143.183075	0.000446	4.458441	1.510561	-0.000179
 624	6.1989e+01	15.1680	143.021589	0.000405	4.053128	1.373237	-0.000162
 625	6.2088e+01	15.1231	142.835881	0.000466	4.661097	1.579222	-0.000187
 626	6.2188e+01	15.0894	142.666321	0.000426	4.255784	1.441899	-0.000170
 627	6.2287e+01	15.0525	142.500799	0.000415	4.154456	1.407568	-0.000166
 628	6.2386e+01	15.0092	142.327202	0.000436	4.357112	1.476230	-0.000174
 629	6.2486e+01	14.9739	142.109197	0.000547	5.471722	1.853870	-0.000219
 630	6.2586e+01	14.9258	141.963860	0.000365	3.647815	1.235913	-0.000146
 631	6.2685e+01	14.8921	141.806411	0.000395	3.951800	1.338906	-0.000158
 632	6.2785e+01	14.8536	141.624740	0.000456	4.559769	1.544891	-0.000183
 633	6.2884e+01	14.8007	141.410772	0.000537	5.370394	1.819539	-0.000215
 634	6.2983e+01	14.7718	141.269472	0.000355	3.546487	1.201582	-0.000142
 635	6.3083e+01	14.7365	141.083764	0.000466	4.661097	1.579222	-0.000187
 636	6.3182e+01	14.6948	140.950539	0.000334	3.343830	1.132920	-0.000134
 637	6.3282e+01	14.6482	140.716385	0.000588	5.877035	1.991193	-0.000235
 638	6.3382e+01	14.6178	140.538751	0.000446	4.458441	1.510561	-0.000179
 639	6.3481e+01	14.5729	140.389377	0.000375	3.749143	1.270244	-0.000150
 640	6.3581e+01	14.5392	140.215780	0.000436	4.357112	1.476230	-0.000174
 641	6.3680e+01	14.4926	140.030072	0.000466	4.661097	1.579222	-0.000187
 642	6.3779e+01	14.4509	139.828215	0.000507	5.066410	1.716546	-0.000203
 643	6.3879e+01	14.4221	139.686915	0.000355	3.546487	1.201582	-0.000142
 644	6.3978e+01	14.3723	139.517355	0.000426	4.255784	1.441899	-0.000170
 645	6.4078e+01	14.3386	139.339721	0.000446	4.458441	1.510561	-0.000179
 646	6.4177e+01	14.2969	139.141902	0.000497	4.965082	1.682215	-0.000199
 647	6.4277e+01	14.2504	138.984453	0.000395	3.951800	1.338906	-0.000158
 648	6.4376e+01	14.1991	138.790671	0.000486	4.863753	1.647884	-0.000195
 649	6.4476e+01	14.1782	138.645334	0.000365	3.647815	1.235913	-0.000146
 650	6.4576e+01	14.1365	138.419254	0.000567	5.674379	1.922532	-0.000227
 651	6.4675e+01	14.0900	138.249695	0.000426	4.255784	1.441899	-0.000170
 652	6.4775e+01	14.0515	138.047838	0.000507	5.066410	1.716546	-0.000203
 653	6.4874e+01	14.0194	137.882315	0.000415	4.154456	1.407568	-0.000166
 654	6.4974e+01	13.9697	137.704681	0.000446	4.458441	1.510561	-0.000179
 655	6.5073e+01	13.9440	137.531085	0.000436	4.357112	1.476230	-0.000174
 656	6.5172e+01	13.9007	137.321154	0.000527	5.269066	1.785208	-0.000211
 657	6.5272e+01	13.8590	137.139482	0.000456	4.559769	1.544891	-0.000183
 658	6.5371e+01	13.8221	136.982034	0.000395	3.951800	1.338906	-0.000158
 659	6.5471e+01	13.7788	136.772103	0.000527	5.269066	1.785208	-0.000211
 660	6.5570e+01	13.7354	136.594469	0.000446	4.458441	1.510561	-0.000179
 661	6.5670e+01	13.6921	136.380501	0.000537	5.370394	1.819539	-0.000215
 662	6.5769e+01	13.6520	136.235164	0.000365	3.647815	1.235913	-0.000146
 663	6.5869e+01	13.6215	136.057530	0.000446	4.458441	1.510561	-0.000179
 664	6.5969e+01	13.5814	135.859710	0.000497	4.965082	1.682215	-0.000199
 665	6.6068e+01	13.5413	135.657854	0.000507	5.066410	1.716546	-0.000203
 666	6.6168e+01	13.4996	135.488294	0.000426	4.255784	1.441899	-0.000170
 667	6.6267e+01	13.4627	135.326809	0.000405	4.053128	1.373237	-0.000162
 668	6.6367e+01	13.4066	135.120915	0.000517	5.167738	1.750877	-0.000207
 669	6.6466e+01	13.3697	134.951355	0.000426	4.255784	1.441899	-0.000170
 670	6.6566e+01	13.3344	134.765647	0.000466	4.661097	1.579222	-0.000187
 671	6.6665e+01	13.2927	134.559753	0.000517	5.167738	1.750877	-0.000207
 672	6.6764e+01	13.2542	134.370007	0.000476	4.762425	1.613553	-0.000191
 673	6.6864e+01	13.2189	134.196411	0.000436	4.357112	1.476230	-0.000174
 674	6.6963e+01	13.1804	134.042999	0.000385	3.850471	1.304575	-0.000154
 675	6.7063e+01	13.1403	133.824994	0.000547	5.471722	1.853870	-0.000219
 676	6.7162e+01	13.1034	133.627174	0.000497	4.965082	1.682215	-0.000199
 677	6.7262e+01	13.0488	133.465689	0.000405	4.053128	1.373237	-0.000162
 678	6.7362e+01	13.0119	133.243646	0.000557	5.573051	1.888201	-0.000223
 679	6.7461e+01	12.9766	133.074087	0.000426	4.255784	1.441899	-0.000170
 680	6.7561e+01	12.9397	132.892416	0.000456	4.559769	1.544891	-0.000183
 681	6.7660e+01	12.9012	132.694596	0.000497	4.965082	1.682215	-0.000199
 682	6.7760e+01	12.8659	132.537148	0.000395	3.951800	1.338906	-0.000158
 683	6.7859e+01	12.8258	132.298957	0.000598	5.978363	2.025524	-0.000239
 684	6.7959e+01	12.7809	132.145546	0.000385	3.850471	1.304575	-0.000154
 685	6.8058e+01	12.7440	131.959837	0.000466	4.661097	1.579222	-0.000187
 686	6.8157e+01	12.7023	131.733758	0.000567	5.674379	1.922532	-0.000227
 687	6.8257e+01	12.6478	131.572272	0.000405	4.053128	1.373237	-0.000162
 688	6.8356e+01	12.6205	131.338118	0.000588	5.877035	1.991193	-0.000235
 689	6.8456e+01	12.5900	131.164522	0.000436	4.357112	1.476230	-0.000174
 690	6.8555e+01	12.5387	130.994962	0.000426	4.255784	1.441899	-0.000170
 691	6.8655e+01	12.4986	130.780994	0.000537	5.370394	1.819539	-0.000215
 692	6.8754e+01	12.4601	130.591248	0.000476	4.762425	1.613553	-0.000191
 693	6.8854e+01	12.4264	130.409577	0.000456	4.559769	1.544891	-0.000183
 694	6.8954e+01	12.3799	130.244055	0.000415	4.154456	1.407568	-0.000166
 695	6.9053e+01	12.3430	130.050272	0.000486	4.863753	1.647884	-0.000195
 696	6.9153e+01	12.2932	129.828230	0.000557	5.573051	1.888201	-0.000223
 697	6.9252e+01	12.2628	129.674818	0.000385	3.850471	1.304575	-0.000154
 698	6.9352e+01	12.2291	129.444702	0.000578	5.775707	1.956863	-0.000231
 699	6.9451e+01	12.1793	129.234771	0.000527	5.269066	1.785208	-0.000211
 700	6.9550e+01	12.1376	129.089434	0.000365	3.647815	1.235913	-0.000146
 701	6.9650e+01	12.1055	128.859317	0.000578	5.775707	1.956863	-0.000231
 702	6.9749e+01	12.0670	128.705906	0.000385	3.850471	1.304575	-0.000154
 703	6.9849e+01	12.0301	128.508086	0.000497	4.965082	1.682215	-0.000199
 704	6.9948e+01	11.9852	128.282007	0.000567	5.674379	1.922532	-0.000227
 705	7.0048e+01	11.9483	128.104373	0.000446	4.458441	1.510561	-0.000179
 706	7.0147e+01	11.9098	127.910590	0.000486	4.863753	1.647884	-0.000195
 707	7.0247e+01	11.8649	127.716808	0.000486	4.863753	1.647884	-0.000195
 708	7.0347e+01	11.8328	127.506877	0.000527	5.269066	1.785208	-0.000211
 709	7.0446e+01	11.7879	127.325205	0.000456	4.559769	1.544891	-0.000183
 710	7.0546e+01	11.7414	127.103163	0.000557	5.573051	1.888201	-0.000223
 711	7.0645e+01	11.6981	126.909380	0.000486	4.863753	1.647884	-0.000195
 712	7.0745e+01	11.6660	126.703487	0.000517	5.167738	1.750877	-0.000207
 713	7.0844e+01	11.6227	126.509704	0.000486	4.863753	1.647884	-0.000195
 714	7.0944e+01	11.5810	126.283624	0.000567	5.674379	1.922532	-0.000227
 715	7.1043e+01	11.5457	126.134250	0.000375	3.749143	1.270244	-0.000150
 716	7.1142e+01	11.5104	125.879911	0.000638	6.383676	2.162848	-0.000256
 717	7.1242e+01	11.4622	125.726500	0.000385	3.850471	1.304575	-0.000154
 718	7.1341e+01	11.4286	125.528680	0.000497	4.965082	1.682215	-0.000199
 719	7.1441e+01	11.3884	125.318749	0.000527	5.269066	1.785208	-0.000211
 720	7.1540e+01	11.3435	125.145152	0.000436	4.357112	1.476230	-0.000174
 721	7.1640e+01	11.3114	124.923110	0.000557	5.573051	1.888201	-0.000223
 722	7.1740e+01	11.2585	124.721253	0.000507	5.066410	1.716546	-0.000203
 723	7.1839e+01	11.2216	124.507285	0.000537	5.370394	1.819539	-0.000215
 724	7.1939e+01	11.1911	124.261019	0.000618	6.181020	2.094186	-0.000248
 725	7.2038e+01	11.1510	124.091460	0.000426	4.255784	1.441899	-0.000170
 726	7.2138e+01	11.1077	123.881529	0.000527	5.269066	1.785208	-0.000211
 727	7.2237e+01	11.0644	123.655449	0.000567	5.674379	1.922532	-0.000227
 728	7.2337e+01	11.0339	123.493964	0.000405	4.053128	1.373237	-0.000162
 729	7.2436e+01	10.9874	123.267884	0.000567	5.674379	1.922532	-0.000227
 730	7.2535e+01	10.9473	123.078139	0.000476	4.762425	1.613553	-0.000191
 731	7.2635e+01	10.9088	122.888393	0.000476	4.762425	1.613553	-0.000191
 732	7.2734e+01	10.8735	122.690574	0.000497	4.965082	1.682215	-0.000199
 733	7.2834e+01	10.8334	122.460457	0.000578	5.775707	1.956863	-0.000231
 734	7.2933e+01	10.7901	122.266674	0.000486	4.863753	1.647884	-0.000195
 735	7.3033e+01	10.7468	122.040595	0.000567	5.674379	1.922532	-0.000227
 736	7.3132e+01	10.7002	121.810478	0.000578	5.775707	1.956863	-0.000231
 737	7.3232e+01	10.6665	121.624770	0.000466	4.661097	1.579222	-0.000187
 738	7.3332e+01	10.6232	121.406764	0.000547	5.471722	1.853870	-0.000219
 739	7.3431e+01	10.5863	121.221056	0.000466	4.661097	1.579222	-0.000187
 740	7.3531e+01	10.5494	121.015162	0.000517	5.167738	1.750877	-0.000207
 741	7.3630e+01	10.5109	120.825417	0.000476	4.762425	1.613553	-0.000191
 742	7.3730e+01	10.4692	120.607412	0.000547	5.471722	1.853870	-0.000219
 743	7.3829e+01	10.4259	120.373258	0.000588	5.877035	1.991193	-0.000235
 744	7.3928e+01	10.3922	120.223884	0.000375	3.749143	1.270244	-0.000150
 745	7.4028e+01	10.3521	119.961470	0.000659	6.586333	2.231510	-0.000264
 746	7.4127e+01	10.3168	119.739427	0.000557	5.573051	1.888201	-0.000223
 747	7.4227e+01	10.2719	119.521422	0.000547	5.471722	1.853870	-0.000219
 748	7.4326e+01	10.2350	119.327640	0.000486	4.863753	1.647884	-0.000195
 749	7.4426e+01	10.1917	119.093486	0.000588	5.877035	1.991193	-0.000235
 750	7.4525e+01	10.1516	118.911815	0.000456	4.559769	1.544891	-0.000183
 751	7.4625e+01	10.1163	118.673624	0.000598	5.978363	2.025524	-0.000239
 752	7.4725e+01	10.0730	118.495990	0.000446	4.458441	1.510561	-0.000179
 753	7.4824e+01	10.0345	118.257799	0.000598	5.978363	2.025524	-0.000239
 754	7.4924e+01	9.9831	118.076127	0.000456	4.559769	1.544891	-0.000183
 755	7.5023e+01	9.9591	117.854085	0.000557	5.573051	1.888201	-0.000223
 756	7.5123e+01	9.9158	117.623968	0.000578	5.775707	1.956863	-0.000231
 757	7.5222e+01	9.8724	117.446334	0.000446	4.458441	1.510561	-0.000179
 758	7.5322e+01	9.8323	117.216218	0.000578	5.775707	1.956863	-0.000231
 759	7.5421e+01	9.8051	117.030509	0.000466	4.661097	1.579222	-0.000187
 760	7.5520e+01	9.7537	116.788281	0.000608	6.079692	2.059855	-0.000243
 761	7.5620e+01	9.7168	116.626796	0.000405	4.053128	1.373237	-0.000162
 762	7.5719e+01	9.6767	116.408790	0.000547	5.471722	1.853870	-0.000219
 763	7.5819e+01	9.6270	116.202897	0.000517	5.167738	1.750877	-0.000207
 764	7.5918e+01	9.5965	115.976817	0.000567	5.674379	1.922532	-0.000227
 765	7.6018e+01	9.5516	115.746700	0.000578	5.775707	1.956863	-0.000231
 766	7.6118e+01	9.5147	115.540806	0.000517	5.167738	1.750877	-0.000207
 767	7.6217e+01	9.4746	115.338949	0.000507	5.066410	1.716546	-0.000203
 768	7.6317e+01	9.4361	115.096721	0.000608	6.079692	2.059855	-0.000243
 769	7.6416e+01	9.3896	114.878716	0.000547	5.471722	1.853870	-0.000219
 770	7.6516e+01	9.3575	114.664748	0.000537	5.370394	1.819539	-0.000215
 771	7.6615e+01	9.3174	114.487114	0.000446	4.458441	1.510561	-0.000179
 772	7.6715e+01	9.2789	114.256997	0.000578	5.775707	1.956863	-0.000231
 773	7.6814e+01	9.2308	114.030917	0.000567	5.674379	1.922532	-0.000227
 774	7.6913e+01	9.1971	113.788689	0.000608	6.079692	2.059855	-0.000243
 775	7.7013e+01	9.1521	113.582795	0.000517	5.167738	1.750877	-0.000207
 776	7.7112e+01	9.1104	113.389013	0.000486	4.863753	1.647884	-0.000195
 777	7.7212e+01	9.0655	113.146785	0.000608	6.079692	2.059855	-0.000243
 778	7.7311e+01	9.0382	112.928779	0.000547	5.471722	1.853870	-0.000219
 779	7.7411e+01	8.9949	112.726923	0.000507	5.066410	1.716546	-0.000203
 780	7.7510e+01	8.9484	112.484695	0.000608	6.079692	2.059855	-0.000243
 781	7.7610e+01	8.9163	112.270726	0.000537	5.370394	1.819539	-0.000215
 782	7.7710e+01	8.8810	112.060795	0.000527	5.269066	1.785208	-0.000211
 783	7.7809e+01	8.8345	111.838753	0.000557	5.573051	1.888201	-0.000223
 784	7.7909e+01	8.7928	111.620747	0.000547	5.471722	1.853870	-0.000219
 785	7.8008e+01	8.7479	111.414854	0.000517	5.167738	1.750877	-0.000207
 786	7.8108e+01	8.7190	111.172625	0.000608	6.079692	2.059855	-0.000243
 787	7.8207e+01	8.6693	110.962694	0.000527	5.269066	1.785208	-0.000211
 788	7.8306e+01	8.6340	110.708355	0.000638	6.383676	2.162848	-0.000256
 789	7.8406e+01	8.5923	110.526684	0.000456	4.559769	1.544891	-0.000183
 790	7.8505e+01	8.5618	110.324827	0.000507	5.066410	1.716546	-0.000203
 791	7.8605e+01	8.5169	110.074524	0.000628	6.282348	2.128517	-0.000252
 792	7.8704e+01	8.4832	109.864593	0.000527	5.269066	1.785208	-0.000211
 793	7.8804e+01	8.4318	109.630440	0.000588	5.877035	1.991193	-0.000235
 794	7.8903e+01	8.3982	109.412434	0.000547	5.471722	1.853870	-0.000219
 795	7.9003e+01	8.3597	109.222689	0.000476	4.762425	1.613553	-0.000191
 796	7.9103e+01	8.3163	108.956238	0.000669	6.687661	2.265841	-0.000268
 797	7.9202e+01	8.2794	108.730158	0.000567	5.674379	1.922532	-0.000227
 798	7.9302e+01	8.2313	108.508116	0.000557	5.573051	1.888201	-0.000223
 799	7.9401e+01	8.2024	108.306259	0.000507	5.066410	1.716546	-0.000203
 800	7.9501e+01	8.1575	108.064031	0.000608	6.079692	2.059855	-0.000243
 801	7.9600e+01	8.1142	107.894471	0.000426	4.255784	1.441899	-0.000170
 802	7.9700e+01	8.0709	107.632057	0.000659	6.586333	2.231510	-0.000264
 803	7.9799e+01	8.0340	107.414052	0.000547	5.471722	1.853870	-0.000219
 804	7.9898e+01	7.9955	107.200084	0.000537	5.370394	1.819539	-0.000215
 805	7.9998e+01	7.9586	106.961893	0.000598	5.978363	2.025524	-0.000239
 806	8.0097e+01	7.9121	106.743887	0.000547	5.471722	1.853870	-0.000219
 807	8.0197e+01	7.8848	106.521845	0.000557	5.573051	1.888201	-0.000223
 808	8.0296e+01	7.8367	106.319988	0.000507	5.066410	1.716546	-0.000203
 809	8.0396e+01	7.7902	106.097946	0.000557	5.573051	1.888201	-0.000223
 810	8.0496e+01	7.7581	105.847643	0.000628	6.282348	2.128517	-0.000252
 811	8.0595e+01	7.7132	105.670009	0.000446	4.458441	1.510561	-0.000179
 812	8.0695e+01	7.6763	105.419707	0.000628	6.282348	2.128517	-0.000252
 813	8.0794e+01	7.6410	105.229962	0.000476	4.762425	1.613553	-0.000191
 814	8.0894e+01	7.5993	104.963511	0.000669	6.687661	2.265841	-0.000268
 815	8.0993e+01	7.5640	104.757617	0.000517	5.167738	1.750877	-0.000207
 816	8.1093e+01	7.5303	104.499240	0.000649	6.485004	2.197179	-0.000260
 817	8.1192e+01	7.4837	104.273160	0.000567	5.674379	1.922532	-0.000227
 818	8.1291e+01	7.4420	104.079378	0.000486	4.863753	1.647884	-0.000195
 819	8.1391e+01	7.3939	103.829075	0.000628	6.282348	2.128517	-0.000252
 820	8.1490e+01	7.3602	103.586847	0.000608	6.079692	2.059855	-0.000243
 821	8.1590e+01	7.3281	103.393065	0.000486	4.863753	1.647884	-0.000195
 822	8.1689e+01	7.2832	103.150837	0.000608	6.079692	2.059855	-0.000243
 823	8.1789e+01	7.2383	102.936868	0.000537	5.370394	1.819539	-0.000215
 824	8.1888e+01	7.1982	102.682529	0.000638	6.383676	2.162848	-0.000256
 825	8.1988e+01	7.1693	102.444338	0.000598	5.978363	2.025524	-0.000239
 826	8.2088e+01	7.1260	102.210184	0.000588	5.877035	1.991193	-0.000235
 827	8.2187e+01	7.0859	102.024476	0.000466	4.661097	1.579222	-0.000187
 828	8.2287e+01	7.0314	101.802433	0.000557	5.573051	1.888201	-0.000223
 829	8.2386e+01	6.9977	101.580391	0.000557	5.573051	1.888201	-0.000223
 830	8.2486e+01	6.9656	101.334126	0.000618	6.181020	2.094186	-0.000248
 831	8.2585e+01	6.9223	101.116120	0.000547	5.471722	1.853870	-0.000219
 832	8.2684e+01	6.8822	100.869855	0.000618	6.181020	2.094186	-0.000248
 833	8.2784e+01	6.8388	100.631664	0.000598	5.978363	2.025524	-0.000239
 834	8.2883e+01	6.7955	100.425770	0.000517	5.167738	1.750877	-0.000207
 835	8.2983e+01	6.7618	100.155282	0.000679	6.788989	2.300172	-0.000272
 836	8.3082e+01	6.7282	99.937277	0.000547	5.471722	1.853870	-0.000219
 837	8.3182e+01	6.6848	99.674863	0.000659	6.586333	2.231510	-0.000264
 838	8.3281e+01	6.6447	99.477043	0.000497	4.965082	1.682215	-0.000199
 839	8.3381e+01	6.6159	99.226741	0.000628	6.282348	2.128517	-0.000252
 840	8.3481e+01	6.5629	99.008735	0.000547	5.471722	1.853870	-0.000219
 841	8.3580e+01	6.5260	98.758433	0.000628	6.282348	2.128517	-0.000252
 842	8.3680e+01	6.4891	98.496019	0.000659	6.586333	2.231510	-0.000264
 843	8.3779e+01	6.4442	98.286088	0.000527	5.269066	1.785208	-0.000211
 844	8.3879e+01	6.4041	98.064046	0.000557	5.573051	1.888201	-0.000223
 845	8.3978e+01	6.3672	97.842003	0.000557	5.573051	1.888201	-0.000223
 846	8.4078e+01	6.3271	97.619961	0.000557	5.573051	1.888201	-0.000223
 847	8.4177e+01	6.2854	97.369658	0.000628	6.282348	2.128517	-0.000252
 848	8.4276e+01	6.2453	97.135504	0.000588	5.877035	1.991193	-0.000235
 849	8.4376e+01	6.2068	96.877128	0.000649	6.485004	2.197179	-0.000260
 850	8.4475e+01	6.1651	96.642974	0.000588	5.877035	1.991193	-0.000235
 851	8.4575e+01	6.1282	96.429006	0.000537	5.370394	1.819539	-0.000215
 852	8.4674e+01	6.0913	96.202926	0.000567	5.674379	1.922532	-0.000227
 853	8.4774e+01	6.0528	95.948587	0.000638	6.383676	2.162848	-0.000256
 854	8.4874e+01	6.0046	95.698284	0.000628	6.282348	2.128517	-0.000252
 855	8.4973e+01	5.9710	95.476242	0.000557	5.573051	1.888201	-0.000223
 856	8.5073e+01	5.9276	95.238051	0.000598	5.978363	2.025524	-0.000239
 857	8.5172e+01	5.8827	95.011971	0.000567	5.674379	1.922532	-0.000227
 858	8.5272e+01	5.8571	94.737446	0.000689	6.890317	2.334503	-0.000276
 859	8.5371e+01	5.8073	94.515403	0.000557	5.573051	1.888201	-0.000223
 860	8.5471e+01	5.7736	94.248952	0.000669	6.687661	2.265841	-0.000268
 861	8.5570e+01	5.7303	94.043058	0.000517	5.167738	1.750877	-0.000207
 862	8.5669e+01	5.6790	93.804867	0.000598	5.978363	2.025524	-0.000239
 863	8.5769e+01	5.6437	93.558602	0.000618	6.181020	2.094186	-0.000248
 864	8.5868e+01	5.6116	93.284077	0.000689	6.890317	2.334503	-0.000276
 865	8.5968e+01	5.5747	93.057997	0.000567	5.674379	1.922532	-0.000227
 866	8.6067e+01	5.5282	92.856141	0.000507	5.066410	1.716546	-0.000203
 867	8.6167e+01	5.4961	92.621987	0.000588	5.877035	1.991193	-0.000235
 868	8.6266e+01	5.4432	92.355536	0.000669	6.687661	2.265841	-0.000268
 869	8.6366e+01	5.4127	92.117345	0.000598	5.978363	2.025524	-0.000239
 870	8.6466e+01	5.3597	91.867042	0.000628	6.282348	2.128517	-0.000252
 871	8.6565e+01	5.3325	91.645000	0.000557	5.573051	1.888201	-0.000223
 872	8.6665e+01	5.2876	91.382586	0.000659	6.586333	2.231510	-0.000264
 873	8.6764e+01	5.2539	91.124209	0.000649	6.485004	2.197179	-0.000260
 874	8.6864e+01	5.2089	90.877944	0.000618	6.181020	2.094186	-0.000248
 875	8.6963e+01	5.1656	90.631679	0.000618	6.181020	2.094186	-0.000248
 876	8.7063e+01	5.1335	90.421748	0.000527	5.269066	1.785208	-0.000211
 877	8.7162e+01	5.0902	90.175482	0.000618	6.181020	2.094186	-0.000248
 878	8.7261e+01	5.0469	89.925180	0.000628	6.282348	2.128517	-0.000252
 879	8.7361e+01	5.0116	89.686989	0.000598	5.978363	2.025524	-0.000239
 880	8.7460e+01	4.9683	89.468984	0.000547	5.471722	1.853870	-0.000219
 881	8.7560e+01	4.9266	89.178310	0.000730	7.295630	2.471826	-0.000292
 882	8.7659e+01	4.8865	88.956267	0.000557	5.573051	1.888201	-0.000223
 883	8.7759e+01	4.8480	88.689816	0.000669	6.687661	2.265841	-0.000268
 884	8.7859e+01	4.8095	88.435477	0.000638	6.383676	2.162848	-0.000256
 885	8.7958e+01	4.7646	88.152877	0.000709	7.092974	2.403165	-0.000284
 886	8.8058e+01	4.7341	87.938909	0.000537	5.370394	1.819539	-0.000215
 887	8.8157e+01	4.6908	87.716867	0.000557	5.573051	1.888201	-0.000223
 888	8.8257e+01	4.6539	87.462527	0.000638	6.383676	2.162848	-0.000256
 889	8.8356e+01	4.6138	87.220299	0.000608	6.079692	2.059855	-0.000243
 890	8.8456e+01	4.5705	86.945774	0.000689	6.890317	2.334503	-0.000276
 891	8.8555e+01	4.5368	86.711620	0.000588	5.877035	1.991193	-0.000235
 892	8.8654e+01	4.4886	86.433058	0.000699	6.991645	2.368834	-0.000280
 893	8.8754e+01	4.4501	86.186792	0.000618	6.181020	2.094186	-0.000248
 894	8.8853e+01	4.4132	85.936490	0.000628	6.282348	2.128517	-0.000252
 895	8.8953e+01	4.3747	85.694262	0.000608	6.079692	2.059855	-0.000243
 896	8.9052e+01	4.3314	85.415699	0.000699	6.991645	2.368834	-0.000280
 897	8.9152e+01	4.2897	85.173471	0.000608	6.079692	2.059855	-0.000243
 898	8.9251e+01	4.2576	84.919132	0.000638	6.383676	2.162848	-0.000256
 899	8.9351e+01	4.2159	84.693052	0.000567	5.674379	1.922532	-0.000227
 900	8.9451e+01	4.1774	84.402378	0.000730	7.295630	2.471826	-0.000292
 901	8.9550e+01	4.1341	84.188410	0.000537	5.370394	1.819539	-0.000215
 902	8.9650e+01	4.0940	83.885625	0.000760	7.599615	2.574819	-0.000304
 903	8.9749e+01	4.0507	83.655508	0.000578	5.775707	1.956863	-0.000231
 904	8.9849e+01	4.0234	83.417317	0.000598	5.978363	2.025524	-0.000239
 905	8.9948e+01	3.9689	83.154903	0.000659	6.586333	2.231510	-0.000264
 906	9.0047e+01	3.9368	82.904601	0.000628	6.282348	2.128517	-0.000252
 907	9.0147e+01	3.8967	82.597779	0.000770	7.700943	2.609150	-0.000308
 908	9.0246e+01	3.8582	82.331328	0.000669	6.687661	2.265841	-0.000268
 909	9.0346e+01	3.8213	82.161768	0.000426	4.255784	1.441899	-0.000170
 910	9.0445e+01	3.7699	81.863020	0.000750	7.498286	2.540488	-0.000300
 911	9.0545e+01	3.7379	81.616755	0.000618	6.181020	2.094186	-0.000248
 912	9.0644e+01	3.6945	81.354341	0.000659	6.586333	2.231510	-0.000264
 913	9.0744e+01	3.6593	81.128261	0.000567	5.674379	1.922532	-0.000227
 914	9.0844e+01	3.6079	80.825476	0.000760	7.599615	2.574819	-0.000304
 915	9.0943e+01	3.5758	80.587285	0.000598	5.978363	2.025524	-0.000239
 916	9.1043e+01	3.5405	80.336983	0.000628	6.282348	2.128517	-0.000252
 917	9.1142e+01	3.4940	80.106866	0.000578	5.775707	1.956863	-0.000231
 918	9.1242e+01	3.4539	79.840415	0.000669	6.687661	2.265841	-0.000268
 919	9.1341e+01	3.4154	79.578001	0.000659	6.586333	2.231510	-0.000264
 920	9.1441e+01	3.3817	79.311550	0.000669	6.687661	2.265841	-0.000268
 921	9.1540e+01	3.3304	79.065285	0.000618	6.181020	2.094186	-0.000248
 922	9.1639e+01	3.2983	78.810945	0.000638	6.383676	2.162848	-0.000256
 923	9.1739e+01	3.2598	78.548531	0.000659	6.586333	2.231510	-0.000264
 924	9.1838e+01	3.2261	78.290155	0.000649	6.485004	2.197179	-0.000260
 925	9.1938e+01	3.1732	78.043890	0.000618	6.181020	2.094186	-0.000248
 926	9.2037e+01	3.1347	77.781476	0.000659	6.586333	2.231510	-0.000264
 927	9.2137e+01	3.1026	77.515025	0.000669	6.687661	2.265841	-0.000268
 928	9.2237e+01	3.0625	77.292982	0.000557	5.573051	1.888201	-0.000223
 929	9.2336e+01	3.0160	77.022494	0.000679	6.788989	2.300172	-0.000272
 930	9.2436e+01	2.9775	76.731820	0.000730	7.295630	2.471826	-0.000292
 931	9.2535e+01	2.9341	76.489592	0.000608	6.079692	2.059855	-0.000243
 932	9.2635e+01	2.9005	76.231216	0.000649	6.485004	2.197179	-0.000260
 933	9.2734e+01	2.8555	75.997062	0.000588	5.877035	1.991193	-0.000235
 934	9.2834e+01	2.8218	75.730611	0.000669	6.687661	2.265841	-0.000268
 935	9.2933e+01	2.7769	75.472234	0.000649	6.485004	2.197179	-0.000260
 936	9.3032e+01	2.7368	75.157337	0.000790	7.903599	2.677812	-0.000316
 937	9.3132e+01	2.6983	74.894924	0.000659	6.586333	2.231510	-0.000264
 938	9.3231e+01	2.6566	74.697104	0.000497	4.965082	1.682215	-0.000199
 939	9.3331e+01	2.6181	74.402393	0.000740	7.396958	2.506157	-0.000296
 940	9.3430e+01	2.5796	74.152091	0.000628	6.282348	2.128517	-0.000252
 941	9.3530e+01	2.5411	73.885640	0.000669	6.687661	2.265841	-0.000268
 942	9.3629e+01	2.4946	73.635337	0.000628	6.282348	2.128517	-0.000252
 943	9.3729e+01	2.4657	73.356775	0.000699	6.991645	2.368834	-0.000280
 944	9.3829e+01	2.4272	73.110510	0.000618	6.181020	2.094186	-0.000248
 945	9.3928e+01	2.3775	72.872319	0.000598	5.978363	2.025524	-0.000239
 946	9.4028e+01	2.3406	72.553385	0.000800	8.004927	2.712143	-0.000321
 947	9.4127e+01	2.2973	72.307120	0.000618	6.181020	2.094186	-0.000248
 948	9.4227e+01	2.2556	72.008372	0.000750	7.498286	2.540488	-0.000300
 949	9.4326e+01	2.2170	71.806515	0.000507	5.066410	1.716546	-0.000203
 950	9.4425e+01	2.1834	71.487581	0.000800	8.004927	2.712143	-0.000321
 951	9.4525e+01	2.1384	71.257464	0.000578	5.775707	1.956863	-0.000231
 952	9.4624e+01	2.0999	70.986976	0.000679	6.788989	2.300172	-0.000272
 953	9.4724e+01	2.0695	70.732637	0.000638	6.383676	2.162848	-0.000256
 954	9.4823e+01	2.0165	70.474260	0.000649	6.485004	2.197179	-0.000260
 955	9.4923e+01	1.9812	70.191661	0.000709	7.092974	2.403165	-0.000284
 956	9.5022e+01	1.9491	69.905024	0.000719	7.194302	2.437495	-0.000288
 957	9.5122e+01	1.9058	69.662796	0.000608	6.079692	2.059855	-0.000243
 958	9.5222e+01	1.8689	69.355973	0.000770	7.700943	2.609150	-0.000308
 959	9.5321e+01	1.8224	69.170265	0.000466	4.661097	1.579222	-0.000187
 960	9.5421e+01	1.7887	68.855369	0.000790	7.903599	2.677812	-0.000316
 961	9.5520e+01	1.7422	68.613140	0.000608	6.079692	2.059855	-0.000243
 962	9.5620e+01	1.7037	68.338615	0.000689	6.890317	2.334503	-0.000276
 963	9.5719e+01	1.6636	68.072164	0.000669	6.687661	2.265841	-0.000268
 964	9.5819e+01	1.6219	67.789565	0.000709	7.092974	2.403165	-0.000284
 965	9.5918e+01	1.5818	67.519077	0.000679	6.788989	2.300172	-0.000272
 966	9.6017e+01	1.5497	67.313183	0.000517	5.167738	1.750877	-0.000207
 967	9.6117e+01	1.4984	66.986175	0.000821	8.207584	2.780805	-0.000329
 968	9.6216e+01	1.4582	66.756058	0.000578	5.775707	1.956863	-0.000231
 969	9.6316e+01	1.4246	66.489607	0.000669	6.687661	2.265841	-0.000268
 970	9.6415e+01	1.3909	66.247379	0.000608	6.079692	2.059855	-0.000243
 971	9.6515e+01	1.3460	65.932482	0.000790	7.903599	2.677812	-0.000316
 972	9.6615e+01	1.3026	65.682180	0.000628	6.282348	2.128517	-0.000252
 973	9.6714e+01	1.2609	65.443989	0.000598	5.978363	2.025524	-0.000239
 974	9.6814e+01	1.2208	65.177538	0.000669	6.687661	2.265841	-0.000268
 975	9.6913e+01	1.1839	64.915124	0.000659	6.586333	2.231510	-0.000264
 976	9.7013e+01	1.1470	64.656747	0.000649	6.485004	2.197179	-0.000260
 977	9.7112e+01	1.1085	64.378185	0.000699	6.991645	2.368834	-0.000280
 978	9.7212e+01	1.0636	64.135957	0.000608	6.079692	2.059855	-0.000243
 979	9.7311e+01	1.0219	63.853357	0.000709	7.092974	2.403165	-0.000284
 980	9.7410e+01	0.9818	63.594981	0.000649	6.485004	2.197179	-0.000260
 981	9.7510e+01	0.9433	63.324493	0.000679	6.788989	2.300172	-0.000272
 982	9.7609e+01	0.9112	63.054005	0.000679	6.788989	2.300172	-0.000272
 983	9.7709e+01	0.8727	62.787554	0.000669	6.687661	2.265841	-0.000268
 984	9.7808e+01	0.8230	62.549363	0.000598	5.978363	2.025524	-0.000239
 985	9.7908e+01	0.7797	62.250615	0.000750	7.498286	2.540488	-0.000300
 986	9.8007e+01	0.7396	61.992238	0.000649	6.485004	2.197179	-0.000260
 987	9.8107e+01	0.7010	61.705601	0.000719	7.194302	2.437495	-0.000288
 988	9.8207e+01	0.6625	61.423002	0.000709	7.092974	2.403165	-0.000284
 989	9.8306e+01	0.6273	61.160588	0.000659	6.586333	2.231510	-0.000264
 990	9.8406e+01	0.5871	60.926434	0.000588	5.877035	1.991193	-0.000235
 991	9.8505e+01	0.5390	60.680169	0.000618	6.181020	2.094186	-0.000248
 992	9.8605e+01	0.5182	60.341049	0.000851	8.511568	2.883797	-0.000341
 993	9.8704e+01	0.4765	60.078635	0.000659	6.586333	2.231510	-0.000264
 994	9.8803e+01	0.4283	59.848519	0.000578	5.775707	1.956863	-0.000231
 995	9.8903e+01	0.3882	59.569956	0.000699	6.991645	2.368834	-0.000280
 996	9.9002e+01	0.3417	59.291394	0.000699	6.991645	2.368834	-0.000280
 997	9.9102e+01	0.3000	58.996683	0.000740	7.396958	2.506157	-0.000296
 998	9.9201e+01	0.2663	58.742344	0.000638	6.383676	2.162848	-0.000256
 999	9.9301e+01	0.2182	58.483967	0.000649	6.485004	2.197179	-0.000260
1000	9.9400e+01	0.1813	58.217516	0.000669	6.687661	2.265841	-0.000268
1001	9.9500e+01	0.1492	57.922805	0.000740	7.396958	2.506157	-0.000296
1002	9.9600e+01	0.1059	57.660391	0.000659	6.586333	2.231510	-0.000264
1003	9.9699e+01	0.0642	57.381829	0.000699	6.991645	2.368834	-0.000280
1004	9.9799e+01	0.0273	57.111341	0.000679	6.788989	2.300172	-0.000272
1005	9.9898e+01	-0.0112	56.917558	0.000486	4.863753	1.647884	-0.000195
1006	9.9998e+01	-0.0481	56.663219	0.000638	6.383676	2.162848	-0.000256
1007	1.0010e+02	-0.0914	56.332174	0.000831	8.308912	2.815136	-0.000333
1008	1.0020e+02	-0.1299	56.110131	0.000557	5.573051	1.888201	-0.000223
1009	1.0030e+02	-0.1717	55.807346	0.000760	7.599615	2.574819	-0.000304
1010	1.0040e+02	-0.2021	55.524746	0.000709	7.092974	2.403165	-0.000284
1011	1.0050e+02	-0.2454	55.294630	0.000578	5.775707	1.956863	-0.000231
1012	1.0059e+02	-0.2775	55.036253	0.000649	6.485004	2.197179	-0.000260
1013	1.0069e+02	-0.3208	54.709245	0.000821	8.207584	2.780805	-0.000329
1014	1.0079e+02	-0.3626	54.454905	0.000638	6.383676	2.162848	-0.000256
1015	1.0089e+02	-0.4011	54.176343	0.000699	6.991645	2.368834	-0.000280
1016	1.0099e+02	-0.4460	53.926041	0.000628	6.282348	2.128517	-0.000252
1017	1.0109e+02	-0.4765	53.639404	0.000719	7.194302	2.437495	-0.000288
1018	1.0119e+02	-0.5198	53.356804	0.000709	7.092974	2.403165	-0.000284
1019	1.0129e+02	-0.5599	53.106502	0.000628	6.282348	2.128517	-0.000252
1020	1.0139e+02	-0.6032	52.856200	0.000628	6.282348	2.128517	-0.000252
1021	1.0149e+02	-0.6369	52.537266	0.000800	8.004927	2.712143	-0.000321
1022	1.0159e+02	-0.6850	52.274852	0.000659	6.586333	2.231510	-0.000264
1023	1.0169e+02	-0.7219	52.024550	0.000628	6.282348	2.128517	-0.000252
1024	1.0179e+02	-0.7636	51.721765	0.000760	7.599615	2.574819	-0.000304
1025	1.0189e+02	-0.7957	51.455314	0.000669	6.687661	2.265841	-0.000268
1026	1.0199e+02	-0.8454	51.156566	0.000750	7.498286	2.540488	-0.000300
1027	1.0209e+02	-0.8791	50.938560	0.000547	5.471722	1.853870	-0.000219
1028	1.0219e+02	-0.9192	50.635775	0.000760	7.599615	2.574819	-0.000304
1029	1.0229e+02	-0.9577	50.369324	0.000669	6.687661	2.265841	-0.000268
1030	1.0239e+02	-1.0123	50.094799	0.000689	6.890317	2.334503	-0.000276
1031	1.0248e+02	-1.0460	49.808162	0.000719	7.194302	2.437495	-0.000288
1032	1.0258e+02	-1.0845	49.578045	0.000578	5.775707	1.956863	-0.000231
1033	1.0268e+02	-1.1246	49.263149	0.000790	7.903599	2.677812	-0.000316
1034	1.0278e+02	-1.1599	49.008809	0.000638	6.383676	2.162848	-0.000256
1035	1.0288e+02	-1.2000	48.742358	0.000669	6.687661	2.265841	-0.000268
1036	1.0298e+02	-1.2417	48.447647	0.000740	7.396958	2.506157	-0.000296
1037	1.0308e+02	-1.2770	48.217531	0.000578	5.775707	1.956863	-0.000231
1038	1.0318e+02	-1.3219	47.898597	0.000800	8.004927	2.712143	-0.000321
1039	1.0328e+02	-1.3636	47.652332	0.000618	6.181020	2.094186	-0.000248
1040	1.0338e+02	-1.3973	47.357621	0.000740	7.396958	2.506157	-0.000296
1041	1.0348e+02	-1.4470	47.070984	0.000719	7.194302	2.437495	-0.000288
1042	1.0358e+02	-1.4823	46.816645	0.000638	6.383676	2.162848	-0.000256
1043	1.0368e+02	-1.5096	46.550194	0.000669	6.687661	2.265841	-0.000268
1044	1.0378e+02	-1.5609	46.324114	0.000567	5.674379	1.922532	-0.000227
1045	1.0388e+02	-1.6058	45.984995	0.000851	8.511568	2.883797	-0.000341
1046	1.0398e+02	-1.6395	45.726618	0.000649	6.485004	2.197179	-0.000260
1047	1.0408e+02	-1.6780	45.456130	0.000679	6.788989	2.300172	-0.000272
1048	1.0418e+02	-1.7181	45.181605	0.000689	6.890317	2.334503	-0.000276
1049	1.0428e+02	-1.7598	44.907079	0.000689	6.890317	2.334503	-0.000276
1050	1.0438e+02	-1.7999	44.596220	0.000780	7.802271	2.643481	-0.000312
1051	1.0447e+02	-1.8401	44.349955	0.000618	6.181020	2.094186	-0.000248
1052	1.0457e+02	-1.8753	44.059281	0.000730	7.295630	2.471826	-0.000292
1053	1.0467e+02	-1.9171	43.796867	0.000659	6.586333	2.231510	-0.000264
1054	1.0477e+02	-1.9668	43.526379	0.000679	6.788989	2.300172	-0.000272
1055	1.0487e+02	-1.9925	43.259928	0.000669	6.687661	2.265841	-0.000268
1056	1.0497e+02	-2.0406	42.965217	0.000740	7.396958	2.506157	-0.000296
1057	1.0507e+02	-2.0695	42.670506	0.000740	7.396958	2.506157	-0.000296
1058	1.0517e+02	-2.1176	42.387907	0.000709	7.092974	2.403165	-0.000284
1059	1.0527e+02	-2.1641	42.145679	0.000608	6.079692	2.059855	-0.000243
1060	1.0537e+02	-2.1882	41.875190	0.000679	6.788989	2.300172	-0.000272
1061	1.0547e+02	-2.2411	41.580480	0.000740	7.396958	2.506157	-0.000296
1062	1.0557e+02	-2.2796	41.297880	0.000709	7.092974	2.403165	-0.000284
1063	1.0567e+02	-2.3149	41.011243	0.000719	7.194302	2.437495	-0.000288
1064	1.0577e+02	-2.3630	40.748830	0.000659	6.586333	2.231510	-0.000264
1065	1.0587e+02	-2.3919	40.482379	0.000669	6.687661	2.265841	-0.000268
1066	1.0597e+02	-2.4400	40.183631	0.000750	7.498286	2.540488	-0.000300
1067	1.0607e+02	-2.4801	39.917180	0.000669	6.687661	2.265841	-0.000268
1068	1.0617e+02	-2.5090	39.634580	0.000709	7.092974	2.403165	-0.000284
1069	1.0627e+02	-2.5668	39.372166	0.000659	6.586333	2.231510	-0.000264
1070	1.0637e+02	-2.5924	39.081493	0.000730	7.295630	2.471826	-0.000292
1071	1.0647e+02	-2.6309	38.835227	0.000618	6.181020	2.094186	-0.000248
1072	1.0656e+02	-2.6775	38.552628	0.000709	7.092974	2.403165	-0.000284
1073	1.0666e+02	-2.7047	38.290214	0.000659	6.586333	2.231510	-0.000264
1074	1.0676e+02	-2.7529	38.019726	0.000679	6.788989	2.300172	-0.000272
1075	1.0686e+02	-2.7978	37.761349	0.000649	6.485004	2.197179	-0.000260
1076	1.0696e+02	-2.8315	37.438378	0.000811	8.106256	2.746474	-0.000325
1077	1.0706e+02	-2.8748	37.228447	0.000527	5.269066	1.785208	-0.000211
1078	1.0716e+02	-2.9165	36.917588	0.000780	7.802271	2.643481	-0.000312
1079	1.0726e+02	-2.9582	36.614803	0.000760	7.599615	2.574819	-0.000304
1080	1.0736e+02	-2.9839	36.352389	0.000659	6.586333	2.231510	-0.000264
1081	1.0746e+02	-3.0256	36.122272	0.000578	5.775707	1.956863	-0.000231
1082	1.0756e+02	-3.0753	35.819487	0.000760	7.599615	2.574819	-0.000304
1083	1.0766e+02	-3.1074	35.593407	0.000567	5.674379	1.922532	-0.000227
1084	1.0776e+02	-3.1523	35.270436	0.000811	8.106256	2.746474	-0.000325
1085	1.0786e+02	-3.1988	35.012060	0.000649	6.485004	2.197179	-0.000260
1086	1.0796e+02	-3.2341	34.721386	0.000730	7.295630	2.471826	-0.000292
1087	1.0806e+02	-3.2710	34.422638	0.000750	7.498286	2.540488	-0.000300
1088	1.0816e+02	-3.3176	34.192521	0.000578	5.775707	1.956863	-0.000231
1089	1.0826e+02	-3.3593	33.962404	0.000578	5.775707	1.956863	-0.000231
1090	1.0836e+02	-3.3962	33.704028	0.000649	6.485004	2.197179	-0.000260
1091	1.0845e+02	-3.4459	33.385094	0.000800	8.004927	2.712143	-0.000321
1092	1.0855e+02	-3.4684	33.118643	0.000669	6.687661	2.265841	-0.000268
1093	1.0865e+02	-3.5069	32.856229	0.000659	6.586333	2.231510	-0.000264
1094	1.0875e+02	-3.5518	32.597853	0.000649	6.485004	2.197179	-0.000260
1095	1.0885e+02	-3.5951	32.343513	0.000638	6.383676	2.162848	-0.000256
1096	1.0895e+02	-3.6320	32.064951	0.000699	6.991645	2.368834	-0.000280
1097	1.0905e+02	-3.6673	31.802537	0.000659	6.586333	2.231510	-0.000264
1098	1.0915e+02	-3.7202	31.519937	0.000709	7.092974	2.403165	-0.000284
1099	1.0925e+02	-3.7411	31.225226	0.000740	7.396958	2.506157	-0.000296
1100	1.0935e+02	-3.7972	30.999147	0.000567	5.674379	1.922532	-0.000227
1101	1.0945e+02	-3.8325	30.704436	0.000740	7.396958	2.506157	-0.000296
1102	1.0955e+02	-3.8694	30.437985	0.000669	6.687661	2.265841	-0.000268
1103	1.0965e+02	-3.9063	30.236128	0.000507	5.066410	1.716546	-0.000203
1104	1.0975e+02	-3.9464	29.913157	0.000811	8.106256	2.746474	-0.000325
1105	1.0985e+02	-3.9913	29.679003	0.000588	5.877035	1.991193	-0.000235
1106	1.0995e+02	-4.0330	29.396404	0.000709	7.092974	2.403165	-0.000284
1107	1.1005e+02	-4.0715	29.146101	0.000628	6.282348	2.128517	-0.000252
1108	1.1015e+02	-4.1100	28.863502	0.000709	7.092974	2.403165	-0.000284
1109	1.1025e+02	-4.1566	28.572828	0.000730	7.295630	2.471826	-0.000292
1110	1.1035e+02	-4.1854	28.302340	0.000679	6.788989	2.300172	-0.000272
1111	1.1044e+02	-4.2255	28.084335	0.000547	5.471722	1.853870	-0.000219
1112	1.1054e+02	-4.2673	27.797698	0.000719	7.194302	2.437495	-0.000288
1113	1.1064e+02	-4.3106	27.539321	0.000649	6.485004	2.197179	-0.000260
1114	1.1074e+02	-4.3491	27.268833	0.000679	6.788989	2.300172	-0.000272
1115	1.1084e+02	-4.3860	26.994308	0.000689	6.890317	2.334503	-0.000276
1116	1.1094e+02	-4.4357	26.727857	0.000669	6.687661	2.265841	-0.000268
1117	1.1104e+02	-4.4726	26.457369	0.000679	6.788989	2.300172	-0.000272
1118	1.1114e+02	-4.5223	26.166695	0.000730	7.295630	2.471826	-0.000292
1119	1.1124e+02	-4.5432	25.920430	0.000618	6.181020	2.094186	-0.000248
1120	1.1134e+02	-4.5929	25.649942	0.000679	6.788989	2.300172	-0.000272
1121	1.1144e+02	-4.6298	25.407714	0.000608	6.079692	2.059855	-0.000243
1122	1.1154e+02	-4.6699	25.141263	0.000669	6.687661	2.265841	-0.000268
1123	1.1164e+02	-4.6972	24.866738	0.000689	6.890317	2.334503	-0.000276
1124	1.1174e+02	-4.7469	24.652769	0.000537	5.370394	1.819539	-0.000215
1125	1.1184e+02	-4.7886	24.345947	0.000770	7.700943	2.609150	-0.000308
1126	1.1194e+02	-4.8271	24.091608	0.000638	6.383676	2.162848	-0.000256
1127	1.1204e+02	-4.8705	23.829194	0.000659	6.586333	2.231510	-0.000264
1128	1.1214e+02	-4.9202	23.574854	0.000638	6.383676	2.162848	-0.000256
1129	1.1224e+02	-4.9539	23.316477	0.000649	6.485004	2.197179	-0.000260
1130	1.1234e+02	-4.9908	23.041952	0.000689	6.890317	2.334503	-0.000276
1131	1.1244e+02	-5.0309	22.791650	0.000628	6.282348	2.128517	-0.000252
1132	1.1253e+02	-5.0646	22.500976	0.000730	7.295630	2.471826	-0.000292
1133	1.1263e+02	-5.1031	22.295082	0.000517	5.167738	1.750877	-0.000207
1134	1.1273e+02	-5.1432	22.016520	0.000699	6.991645	2.368834	-0.000280
1135	1.1283e+02	-5.1945	21.758143	0.000649	6.485004	2.197179	-0.000260
1136	1.1293e+02	-5.2266	21.491692	0.000669	6.687661	2.265841	-0.000268
1137	1.1303e+02	-5.2715	21.269650	0.000557	5.573051	1.888201	-0.000223
1138	1.1313e+02	-5.2972	21.019347	0.000628	6.282348	2.128517	-0.000252
1139	1.1323e+02	-5.3437	20.756933	0.000659	6.586333	2.231510	-0.000264
1140	1.1333e+02	-5.3806	20.482408	0.000689	6.890317	2.334503	-0.000276
1141	1.1343e+02	-5.4319	20.232106	0.000628	6.282348	2.128517	-0.000252
1142	1.1353e+02	-5.4624	19.981803	0.000628	6.282348	2.128517	-0.000252
1143	1.1363e+02	-5.5073	19.727464	0.000638	6.383676	2.162848	-0.000256
1144	1.1373e+02	-5.5426	19.493310	0.000588	5.877035	1.991193	-0.000235
1145	1.1383e+02	-5.5940	19.214748	0.000699	6.991645	2.368834	-0.000280
1146	1.1393e+02	-5.6180	19.012891	0.000507	5.066410	1.716546	-0.000203
1147	1.1403e+02	-5.6774	18.738366	0.000689	6.890317	2.334503	-0.000276
1148	1.1413e+02	-5.7095	18.467877	0.000679	6.788989	2.300172	-0.000272
1149	1.1423e+02	-5.7544	18.213538	0.000638	6.383676	2.162848	-0.000256
1150	1.1433e+02	-5.7784	17.971310	0.000608	6.079692	2.059855	-0.000243
1151	1.1442e+02	-5.8186	17.721007	0.000628	6.282348	2.128517	-0.000252
1152	1.1452e+02	-5.8619	17.442445	0.000699	6.991645	2.368834	-0.000280
1153	1.1462e+02	-5.9020	17.171957	0.000679	6.788989	2.300172	-0.000272
1154	1.1472e+02	-5.9501	16.962026	0.000527	5.269066	1.785208	-0.000211
1155	1.1482e+02	-5.9934	16.683463	0.000699	6.991645	2.368834	-0.000280
1156	1.1492e+02	-6.0159	16.417012	0.000669	6.687661	2.265841	-0.000268
1157	1.1502e+02	-6.0624	16.199007	0.000547	5.471722	1.853870	-0.000219
1158	1.1512e+02	-6.1009	15.964853	0.000588	5.877035	1.991193	-0.000235
1159	1.1522e+02	-6.1410	15.706477	0.000649	6.485004	2.197179	-0.000260
1160	1.1532e+02	-6.1827	15.460211	0.000618	6.181020	2.094186	-0.000248
1161	1.1542e+02	-6.2180	15.173575	0.000719	7.194302	2.437495	-0.000288
1162	1.1552e+02	-6.2565	14.963644	0.000527	5.269066	1.785208	-0.000211
1163	1.1562e+02	-6.3062	14.697193	0.000669	6.687661	2.265841	-0.000268
1164	1.1572e+02	-6.3431	14.454965	0.000608	6.079692	2.059855	-0.000243
1165	1.1582e+02	-6.3800	14.188514	0.000669	6.687661	2.265841	-0.000268
1166	1.1592e+02	-6.4266	13.958397	0.000578	5.775707	1.956863	-0.000231
1167	1.1602e+02	-6.4651	13.720206	0.000598	5.978363	2.025524	-0.000239
1168	1.1612e+02	-6.4971	13.486052	0.000588	5.877035	1.991193	-0.000235
1169	1.1622e+02	-6.5421	13.219601	0.000669	6.687661	2.265841	-0.000268
1170	1.1632e+02	-6.5774	12.997559	0.000557	5.573051	1.888201	-0.000223
1171	1.1642e+02	-6.6126	12.731108	0.000669	6.687661	2.265841	-0.000268
1172	1.1651e+02	-6.6624	12.480805	0.000628	6.282348	2.128517	-0.000252
1173	1.1661e+02	-6.6961	12.282985	0.000497	4.965082	1.682215	-0.000199
1174	1.1671e+02	-6.7362	11.992312	0.000730	7.295630	2.471826	-0.000292
1175	1.1681e+02	-6.7747	11.725861	0.000669	6.687661	2.265841	-0.000268
1176	1.1691e+02	-6.8292	11.471521	0.000638	6.383676	2.162848	-0.000256
1177	1.1701e+02	-6.8549	11.249479	0.000557	5.573051	1.888201	-0.000223
1178	1.1711e+02	-6.9014	11.023399	0.000567	5.674379	1.922532	-0.000227
1179	1.1721e+02	-6.9319	10.773097	0.000628	6.282348	2.128517	-0.000252
1180	1.1731e+02	-6.9736	10.530869	0.000608	6.079692	2.059855	-0.000243
1181	1.1741e+02	-7.0137	10.272492	0.000649	6.485004	2.197179	-0.000260
1182	1.1751e+02	-7.0554	10.018152	0.000638	6.383676	2.162848	-0.000256
1183	1.1761e+02	-7.1003	9.751701	0.000669	6.687661	2.265841	-0.000268
1184	1.1771e+02	-7.1292	9.517548	0.000588	5.877035	1.991193	-0.000235
1185	1.1781e+02	-7.1757	9.255134	0.000659	6.586333	2.231510	-0.000264
1186	1.1791e+02	-7.2126	9.029054	0.000567	5.674379	1.922532	-0.000227
1187	1.1801e+02	-7.2559	8.782789	0.000618	6.181020	2.094186	-0.000248
1188	1.1811e+02	-7.2928	8.536524	0.000618	6.181020	2.094186	-0.000248
1189	1.1821e+02	-7.3281	8.334667	0.000507	5.066410	1.716546	-0.000203
1190	1.1831e+02	-7.3747	8.060142	0.000689	6.890317	2.334503	-0.000276
1191	1.1841e+02	-7.4228	7.793691	0.000669	6.687661	2.265841	-0.000268
1192	1.1850e+02	-7.4533	7.551462	0.000608	6.079692	2.059855	-0.000243
1193	1.1860e+02	-7.4934	7.309234	0.000608	6.079692	2.059855	-0.000243
1194	1.1870e+02	-7.5367	7.083155	0.000567	5.674379	1.922532	-0.000227
1195	1.1880e+02	-7.5784	6.840927	0.000608	6.079692	2.059855	-0.000243
1196	1.1890e+02	-7.6105	6.594661	0.000618	6.181020	2.094186	-0.000248
1197	1.1900e+02	-7.6538	6.417027	0.000446	4.458441	1.510561	-0.000179
1198	1.1910e+02	-7.6987	6.146539	0.000679	6.788989	2.300172	-0.000272
1199	1.1920e+02	-7.7260	5.908348	0.000598	5.978363	2.025524	-0.000239
1200	1.1930e+02	-7.7709	5.637860	0.000679	6.788989	2.300172	-0.000272
1201	1.1940e+02	-7.8142	5.407743	0.000578	5.775707	1.956863	-0.000231
1202	1.1950e+02	-7.8479	5.193775	0.000537	5.370394	1.819539	-0.000215
1203	1.1960e+02	-7.8816	4.927324	0.000669	6.687661	2.265841	-0.000268
1204	1.1970e+02	-7.9313	4.701245	0.000567	5.674379	1.922532	-0.000227
1205	1.1980e+02	-7.9666	4.426719	0.000689	6.890317	2.334503	-0.000276
1206	1.1990e+02	-8.0228	4.224863	0.000507	5.066410	1.716546	-0.000203
1207	1.2000e+02	-8.0532	3.942263	0.000709	7.092974	2.403165	-0.000284
1208	1.2010e+02	-8.0966	3.720221	0.000557	5.573051	1.888201	-0.000223
1209	1.2020e+02	-8.1238	3.498178	0.000557	5.573051	1.888201	-0.000223
1210	1.2030e+02	-8.1736	3.264024	0.000588	5.877035	1.991193	-0.000235
1211	1.2039e+02	-8.2153	3.009685	0.000638	6.383676	2.162848	-0.000256
1212	1.2049e+02	-8.2554	2.811865	0.000497	4.965082	1.682215	-0.000199
1213	1.2059e+02	-8.2907	2.565600	0.000618	6.181020	2.094186	-0.000248
1214	1.2069e+02	-8.3372	2.307223	0.000649	6.485004	2.197179	-0.000260
1215	1.2079e+02	-8.3661	2.085181	0.000557	5.573051	1.888201	-0.000223
1216	1.2089e+02	-8.4062	1.822767	0.000659	6.586333	2.231510	-0.000264
1217	1.2099e+02	-8.4527	1.576502	0.000618	6.181020	2.094186	-0.000248
1218	1.2109e+02	-8.4928	1.326199	0.000628	6.282348	2.128517	-0.000252
1219	1.2119e+02	-8.5233	1.120305	0.000517	5.167738	1.750877	-0.000207
1220	1.2129e+02	-8.5714	0.870003	0.000628	6.282348	2.128517	-0.000252
1221	1.2139e+02	-8.6019	0.664109	0.000517	5.167738	1.750877	-0.000207
1222	1.2149e+02	-8.6548	0.385546	0.000699	6.991645	2.368834	-0.000280
1223	1.2159e+02	-8.6821	0.139281	0.000618	6.181020	2.094186	-0.000248
1224	1.2169e+02	-8.7238	-0.102947	0.000608	6.079692	2.059855	-0.000243
1225	1.2179e+02	-8.7655	-0.312878	0.000527	5.269066	1.785208	-0.000211
1226	1.2189e+02	-8.8072	-0.538958	0.000567	5.674379	1.922532	-0.000227
1227	1.2199e+02	-8.8570	-0.785223	0.000618	6.181020	2.094186	-0.000248
1228	1.2209e+02	-8.8891	-1.047637	0.000659	6.586333	2.231510	-0.000264
1229	1.2219e+02	-8.9356	-1.281791	0.000588	5.877035	1.991193	-0.000235
1230	1.2229e+02	-8.9580	-1.511907	0.000578	5.775707	1.956863	-0.000231
1231	1.2239e+02	-9.0014	-1.746061	0.000588	5.877035	1.991193	-0.000235
1232	1.2248e+02	-9.0495	-1.980215	0.000588	5.877035	1.991193	-0.000235
1233	1.2258e+02	-9.0896	-2.230517	0.000628	6.282348	2.128517	-0.000252
1234	1.2268e+02	-9.1265	-2.472746	0.000608	6.079692	2.059855	-0.000243
1235	1.2278e+02	-9.1698	-2.702862	0.000578	5.775707	1.956863	-0.000231
1236	1.2288e+02	-9.2019	-2.953165	0.000628	6.282348	2.128517	-0.000252
1237	1.2298e+02	-9.2484	-3.191356	0.000598	5.978363	2.025524	-0.000239
1238	1.2308e+02	-9.2853	-3.417435	0.000567	5.674379	1.922532	-0.000227
1239	1.2318e+02	-9.3238	-3.679849	0.000659	6.586333	2.231510	-0.000264
1240	1.2328e+02	-9.3655	-3.889780	0.000527	5.269066	1.785208	-0.000211
1241	1.2338e+02	-9.4024	-4.071451	0.000456	4.559769	1.544891	-0.000183
1242	1.2348e+02	-9.4489	-4.309642	0.000598	5.978363	2.025524	-0.000239
1243	1.2358e+02	-9.4906	-4.616465	0.000770	7.700943	2.609150	-0.000308
1244	1.2368e+02	-9.5243	-4.794099	0.000446	4.458441	1.510561	-0.000179
1245	1.2378e+02	-9.5741	-5.060550	0.000669	6.687661	2.265841	-0.000268
1246	1.2388e+02	-9.6045	-5.310852	0.000628	6.282348	2.128517	-0.000252
1247	1.2398e+02	-9.6495	-5.545006	0.000588	5.877035	1.991193	-0.000235
1248	1.2408e+02	-9.6912	-5.734751	0.000476	4.762425	1.613553	-0.000191
1249	1.2418e+02	-9.7265	-6.001202	0.000669	6.687661	2.265841	-0.000268
1250	1.2428e+02	-9.7602	-6.271690	0.000679	6.788989	2.300172	-0.000272
1251	1.2438e+02	-9.8083	-6.457399	0.000466	4.661097	1.579222	-0.000187
1252	1.2447e+02	-9.8388	-6.699627	0.000608	6.079692	2.059855	-0.000243
1253	1.2457e+02	-9.8901	-6.897446	0.000497	4.965082	1.682215	-0.000199
1254	1.2467e+02	-9.9222	-7.151786	0.000638	6.383676	2.162848	-0.000256
1255	1.2477e+02	-9.9623	-7.349606	0.000497	4.965082	1.682215	-0.000199
1256	1.2487e+02	-9.9992	-7.575685	0.000567	5.674379	1.922532	-0.000227
1257	1.2497e+02	-10.0393	-7.805802	0.000578	5.775707	1.956863	-0.000231
1258	1.2507e+02	-10.0938	-8.064179	0.000649	6.485004	2.197179	-0.000260
1259	1.2517e+02	-10.1163	-8.298333	0.000588	5.877035	1.991193	-0.000235
1260	1.2527e+02	-10.1644	-8.520375	0.000557	5.573051	1.888201	-0.000223
1261	1.2537e+02	-10.1997	-8.754529	0.000588	5.877035	1.991193	-0.000235
1262	1.2547e+02	-10.2446	-9.000794	0.000618	6.181020	2.094186	-0.000248
1263	1.2557e+02	-10.2735	-9.226874	0.000567	5.674379	1.922532	-0.000227
1264	1.2567e+02	-10.3297	-9.444879	0.000547	5.471722	1.853870	-0.000219
1265	1.2577e+02	-10.3633	-9.666922	0.000557	5.573051	1.888201	-0.000223
1266	1.2587e+02	-10.4018	-9.893001	0.000567	5.674379	1.922532	-0.000227
1267	1.2597e+02	-10.4468	-10.135229	0.000608	6.079692	2.059855	-0.000243
1268	1.2607e+02	-10.4788	-10.381495	0.000618	6.181020	2.094186	-0.000248
1269	1.2617e+02	-10.5222	-10.534906	0.000385	3.850471	1.304575	-0.000154
1270	1.2627e+02	-10.5607	-10.825579	0.000730	7.295630	2.471826	-0.000292
1271	1.2636e+02	-10.6040	-11.039548	0.000537	5.370394	1.819539	-0.000215
1272	1.2646e+02	-10.6345	-11.305999	0.000669	6.687661	2.265841	-0.000268
1273	1.2656e+02	-10.6826	-11.544190	0.000598	5.978363	2.025524	-0.000239
1274	1.2666e+02	-10.7243	-11.701638	0.000395	3.951800	1.338906	-0.000158
1275	1.2676e+02	-10.7612	-11.951940	0.000628	6.282348	2.128517	-0.000252
1276	1.2686e+02	-10.7997	-12.173983	0.000557	5.573051	1.888201	-0.000223
1277	1.2696e+02	-10.8398	-12.444471	0.000679	6.788989	2.300172	-0.000272
1278	1.2706e+02	-10.8847	-12.666513	0.000557	5.573051	1.888201	-0.000223
1279	1.2716e+02	-10.9152	-12.868370	0.000507	5.066410	1.716546	-0.000203
1280	1.2726e+02	-10.9601	-13.110598	0.000608	6.079692	2.059855	-0.000243
1281	1.2736e+02	-10.9954	-13.332641	0.000557	5.573051	1.888201	-0.000223
1282	1.2746e+02	-11.0435	-13.603129	0.000679	6.788989	2.300172	-0.000272
1283	1.2756e+02	-11.0852	-13.849394	0.000618	6.181020	2.094186	-0.000248
1284	1.2766e+02	-11.1205	-14.067399	0.000547	5.471722	1.853870	-0.000219
1285	1.2776e+02	-11.1655	-14.269256	0.000507	5.066410	1.716546	-0.000203
1286	1.2786e+02	-11.2024	-14.499373	0.000578	5.775707	1.956863	-0.000231
1287	1.2796e+02	-11.2409	-14.765824	0.000669	6.687661	2.265841	-0.000268
1288	1.2806e+02	-11.2713	-14.979792	0.000537	5.370394	1.819539	-0.000215
1289	1.2816e+02	-11.3163	-15.242206	0.000659	6.586333	2.231510	-0.000264
1290	1.2826e+02	-11.3612	-15.444063	0.000507	5.066410	1.716546	-0.000203
1291	1.2835e+02	-11.3981	-15.698402	0.000638	6.383676	2.162848	-0.000256
1292	1.2845e+02	-11.4334	-15.968890	0.000679	6.788989	2.300172	-0.000272
1293	1.2855e+02	-11.4863	-16.227267	0.000649	6.485004	2.197179	-0.000260
1294	1.2865e+02	-11.5216	-16.461421	0.000588	5.877035	1.991193	-0.000235
1295	1.2875e+02	-11.5665	-16.675389	0.000537	5.370394	1.819539	-0.000215
1296	1.2885e+02	-11.6050	-16.945877	0.000679	6.788989	2.300172	-0.000272
1297	1.2895e+02	-11.6467	-17.212328	0.000669	6.687661	2.265841	-0.000268
1298	1.2905e+02	-11.6756	-17.498965	0.000719	7.194302	2.437495	-0.000288
1299	1.2915e+02	-11.7221	-17.716970	0.000547	5.471722	1.853870	-0.000219
1300	1.2925e+02	-11.7590	-17.951124	0.000588	5.877035	1.991193	-0.000235
1301	1.2935e+02	-11.7911	-18.229686	0.000699	6.991645	2.368834	-0.000280
1302	1.2945e+02	-11.8360	-18.500175	0.000679	6.788989	2.300172	-0.000272
1303	1.2955e+02	-11.8729	-18.762588	0.000659	6.586333	2.231510	-0.000264
1304	1.2965e+02	-11.9178	-19.041151	0.000699	6.991645	2.368834	-0.000280
1305	1.2975e+02	-11.9547	-19.295490	0.000638	6.383676	2.162848	-0.000256
1306	1.2985e+02	-11.9997	-19.557904	0.000659	6.586333	2.231510	-0.000264
1307	1.2995e+02	-12.0366	-19.832429	0.000689	6.890317	2.334503	-0.000276
1308	1.3005e+02	-12.0767	-20.082732	0.000628	6.282348	2.128517	-0.000252
1309	1.3015e+02	-12.1216	-20.381480	0.000750	7.498286	2.540488	-0.000300
1310	1.3025e+02	-12.1569	-20.664079	0.000709	7.092974	2.403165	-0.000284
1311	1.3034e+02	-12.2034	-20.902270	0.000598	5.978363	2.025524	-0.000239
1312	1.3044e+02	-12.2339	-21.217167	0.000790	7.903599	2.677812	-0.000316
1313	1.3054e+02	-12.2724	-21.499766	0.000709	7.092974	2.403165	-0.000284
1314	1.3064e+02	-12.3253	-21.798514	0.000750	7.498286	2.540488	-0.000300
1315	1.3074e+02	-12.3526	-22.044780	0.000618	6.181020	2.094186	-0.000248
1316	1.3084e+02	-12.3991	-22.367751	0.000811	8.106256	2.746474	-0.000325
1317	1.3094e+02	-12.4376	-22.650350	0.000709	7.092974	2.403165	-0.000284
1318	1.3104e+02	-12.4761	-22.924875	0.000689	6.890317	2.334503	-0.000276
1319	1.3114e+02	-12.5098	-23.211512	0.000719	7.194302	2.437495	-0.000288
1320	1.3124e+02	-12.5515	-23.530446	0.000800	8.004927	2.712143	-0.000321
1321	1.3134e+02	-12.5900	-23.821119	0.000730	7.295630	2.471826	-0.000292
1322	1.3144e+02	-12.6349	-24.148127	0.000821	8.207584	2.780805	-0.000329
1323	1.3154e+02	-12.6718	-24.434764	0.000719	7.194302	2.437495	-0.000288
1324	1.3164e+02	-12.7119	-24.713326	0.000699	6.991645	2.368834	-0.000280
1325	1.3174e+02	-12.7537	-25.032260	0.000800	8.004927	2.712143	-0.000321
1326	1.3184e+02	-12.7954	-25.391565	0.000902	9.018209	3.055452	-0.000361
1327	1.3194e+02	-12.8387	-25.678202	0.000719	7.194302	2.437495	-0.000288
1328	1.3204e+02	-12.8772	-25.980987	0.000760	7.599615	2.574819	-0.000304
1329	1.3214e+02	-12.9189	-26.291846	0.000780	7.802271	2.643481	-0.000312
1330	1.3224e+02	-12.9526	-26.602706	0.000780	7.802271	2.643481	-0.000312
1331	1.3234e+02	-12.9911	-26.921640	0.000800	8.004927	2.712143	-0.000321
1332	1.3243e+02	-13.0344	-27.305168	0.000963	9.626178	3.261438	-0.000385
1333	1.3253e+02	-13.0745	-27.555470	0.000628	6.282348	2.128517	-0.000252
1334	1.3263e+02	-13.1066	-27.943035	0.000973	9.727507	3.295768	-0.000390
1335	1.3273e+02	-13.1499	-28.241783	0.000750	7.498286	2.540488	-0.000300
1336	1.3283e+02	-13.1900	-28.572828	0.000831	8.308912	2.815136	-0.000333
1337	1.3293e+02	-13.2349	-28.879651	0.000770	7.700943	2.609150	-0.000308
1338	1.3303e+02	-13.2702	-29.255104	0.000942	9.423522	3.192776	-0.000377
1339	1.3313e+02	-13.3071	-29.586149	0.000831	8.308912	2.815136	-0.000333
1340	1.3323e+02	-13.3472	-29.897009	0.000780	7.802271	2.643481	-0.000312
1341	1.3333e+02	-13.3905	-30.272462	0.000942	9.423522	3.192776	-0.000377
1342	1.3343e+02	-13.4322	-30.575248	0.000760	7.599615	2.574819	-0.000304
1343	1.3353e+02	-13.4772	-30.954738	0.000952	9.524850	3.227107	-0.000381
1344	1.3363e+02	-13.5060	-31.233301	0.000699	6.991645	2.368834	-0.000280
1345	1.3373e+02	-13.5542	-31.604717	0.000932	9.322194	3.158445	-0.000373
1346	1.3383e+02	-13.5846	-31.968059	0.000912	9.119537	3.089783	-0.000365
1347	1.3393e+02	-13.6344	-32.327364	0.000902	9.018209	3.055452	-0.000361
1348	1.3403e+02	-13.6713	-32.694744	0.000922	9.220866	3.124114	-0.000369
1349	1.3413e+02	-13.7146	-33.017715	0.000811	8.106256	2.746474	-0.000325
1350	1.3423e+02	-13.7547	-33.377020	0.000902	9.018209	3.055452	-0.000361
1351	1.3432e+02	-13.7868	-33.724213	0.000871	8.714225	2.952459	-0.000349
1352	1.3442e+02	-13.8317	-34.095630	0.000932	9.322194	3.158445	-0.000373
1353	1.3452e+02	-13.8654	-34.426675	0.000831	8.308912	2.815136	-0.000333
1354	1.3462e+02	-13.9039	-34.806166	0.000952	9.524850	3.227107	-0.000381
1355	1.3472e+02	-13.9584	-35.230065	0.001064	10.639460	3.604747	-0.000426
1356	1.3482e+02	-13.9825	-35.561110	0.000831	8.308912	2.815136	-0.000333
1357	1.3492e+02	-14.0338	-35.948675	0.000973	9.727507	3.295768	-0.000390
1358	1.3502e+02	-14.0691	-36.303943	0.000892	8.916881	3.021121	-0.000357
1359	1.3512e+02	-14.1108	-36.691508	0.000973	9.727507	3.295768	-0.000390
1360	1.3522e+02	-14.1525	-37.070999	0.000952	9.524850	3.227107	-0.000381
1361	1.3532e+02	-14.1959	-37.438378	0.000922	9.220866	3.124114	-0.000369
1362	1.3542e+02	-14.2247	-37.846129	0.001023	10.234148	3.467423	-0.000410
1363	1.3552e+02	-14.2632	-38.225620	0.000952	9.524850	3.227107	-0.000381
1364	1.3562e+02	-14.3114	-38.661630	0.001094	10.943445	3.707740	-0.000438
1365	1.3572e+02	-14.3418	-38.956341	0.000740	7.396958	2.506157	-0.000296
1366	1.3582e+02	-14.3916	-39.392352	0.001094	10.943445	3.707740	-0.000438
1367	1.3592e+02	-14.4188	-39.743583	0.000882	8.815553	2.986790	-0.000353
1368	1.3602e+02	-14.4654	-40.171519	0.001074	10.740789	3.639078	-0.000430
1369	1.3612e+02	-14.5087	-40.534861	0.000912	9.119537	3.089783	-0.000365
1370	1.3622e+02	-14.5504	-40.974909	0.001104	11.044773	3.742070	-0.000442
1371	1.3631e+02	-14.5841	-41.394771	0.001054	10.538132	3.570416	-0.000422
1372	1.3641e+02	-14.6226	-41.786373	0.000983	9.828835	3.330099	-0.000394
1373	1.3651e+02	-14.6611	-42.129530	0.000861	8.612897	2.918128	-0.000345
1374	1.3661e+02	-14.7092	-42.605912	0.001196	11.956727	4.051049	-0.000479
1375	1.3671e+02	-14.7541	-42.985403	0.000952	9.524850	3.227107	-0.000381
1376	1.3681e+02	-14.7878	-43.389116	0.001013	10.132819	3.433092	-0.000406
1377	1.3691e+02	-14.8263	-43.813016	0.001064	10.639460	3.604747	-0.000426
1378	1.3701e+02	-14.8744	-44.240952	0.001074	10.740789	3.639078	-0.000430
1379	1.3711e+02	-14.9017	-44.656777	0.001044	10.436804	3.536085	-0.000418
1380	1.3721e+02	-14.9434	-45.112973	0.001145	11.450086	3.879394	-0.000458
1381	1.3731e+02	-14.9932	-45.561095	0.001125	11.247430	3.810732	-0.000450
1382	1.3741e+02	-15.0301	-45.976920	0.001044	10.436804	3.536085	-0.000418
1383	1.3751e+02	-15.0686	-46.396782	0.001054	10.538132	3.570416	-0.000422
1384	1.3761e+02	-15.0926	-46.885276	0.001226	12.260712	4.154042	-0.000491
1385	1.3771e+02	-15.1440	-47.288989	0.001013	10.132819	3.433092	-0.000406
1386	1.3781e+02	-15.1760	-47.757297	0.001175	11.754071	3.982387	-0.000471
1387	1.3791e+02	-15.2210	-48.209456	0.001135	11.348758	3.845063	-0.000454
1388	1.3801e+02	-15.2595	-48.637393	0.001074	10.740789	3.639078	-0.000430
1389	1.3811e+02	-15.2996	-49.117812	0.001206	12.058055	4.085380	-0.000483
1390	1.3821e+02	-15.3445	-49.541711	0.001064	10.639460	3.604747	-0.000426
1391	1.3831e+02	-15.3830	-50.018093	0.001196	11.956727	4.051049	-0.000479
1392	1.3840e+02	-15.4215	-50.514661	0.001246	12.463368	4.222703	-0.000499
1393	1.3850e+02	-15.4584	-50.946634	0.001084	10.842117	3.673409	-0.000434
1394	1.3860e+02	-15.5017	-51.455314	0.001277	12.767352	4.325696	-0.000511
1395	1.3870e+02	-15.5482	-51.879213	0.001064	10.639460	3.604747	-0.000426
1396	1.3880e+02	-15.5803	-52.379818	0.001256	12.564696	4.257034	-0.000503
1397	1.3890e+02	-15.6188	-52.872348	0.001236	12.362040	4.188372	-0.000495
1398	1.3900e+02	-15.6621	-53.360842	0.001226	12.260712	4.154042	-0.000491
1399	1.3910e+02	-15.7054	-53.889706	0.001327	13.273993	4.497351	-0.000532
1400	1.3920e+02	-15.7471	-54.313606	0.001064	10.639460	3.604747	-0.000426
1401	1.3930e+02	-15.7728	-54.874768	0.001408	14.084619	4.771998	-0.000564
1402	1.3940e+02	-15.8225	-55.322890	0.001125	11.247430	3.810732	-0.000450
1403	1.3950e+02	-15.8627	-55.863866	0.001358	13.577978	4.600343	-0.000544
1404	1.3960e+02	-15.9108	-56.372545	0.001277	12.767352	4.325696	-0.000511
1405	1.3970e+02	-15.9429	-56.865075	0.001236	12.362040	4.188372	-0.000495
1406	1.3980e+02	-15.9862	-57.402014	0.001348	13.476650	4.566013	-0.000540
1407	1.3990e+02	-16.0247	-57.910694	0.001277	12.767352	4.325696	-0.000511
1408	1.4000e+02	-16.0584	-58.431484	0.001307	13.071337	4.428689	-0.000523
1409	1.4010e+02	-16.1017	-58.960349	0.001327	13.273993	4.497351	-0.000532
1410	1.4020e+02	-16.1498	-59.489214	0.001327	13.273993	4.497351	-0.000532
1411	1.4029e+02	-16.1979	-60.018078	0.001327	13.273993	4.497351	-0.000532
1412	1.4039e+02	-16.2236	-60.546943	0.001327	13.273993	4.497351	-0.000532
1413	1.4049e+02	-16.2605	-61.095994	0.001378	13.780634	4.669005	-0.000552
1414	1.4059e+02	-16.2990	-61.649081	0.001388	13.881963	4.703336	-0.000556
1415	1.4069e+02	-16.3407	-62.190057	0.001358	13.577978	4.600343	-0.000544
1416	1.4079e+02	-16.3872	-62.743145	0.001388	13.881963	4.703336	-0.000556
1417	1.4089e+02	-16.4193	-63.312381	0.001429	14.287275	4.840660	-0.000572
1418	1.4099e+02	-16.4626	-63.873543	0.001408	14.084619	4.771998	-0.000564
1419	1.4109e+02	-16.4979	-64.438742	0.001419	14.185947	4.806329	-0.000568
1420	1.4119e+02	-16.5428	-65.003941	0.001419	14.185947	4.806329	-0.000568
1421	1.4129e+02	-16.5781	-65.605474	0.001510	15.097901	5.115307	-0.000605
1422	1.4139e+02	-16.6054	-66.166636	0.001408	14.084619	4.771998	-0.000564
1423	1.4149e+02	-16.6632	-66.784318	0.001550	15.503214	5.252631	-0.000621
1424	1.4159e+02	-16.7049	-67.365665	0.001459	14.591260	4.943653	-0.000584
1425	1.4169e+02	-16.7450	-67.955087	0.001479	14.793916	5.012315	-0.000592
1426	1.4179e+02	-16.7803	-68.572769	0.001550	15.503214	5.252631	-0.000621
1427	1.4189e+02	-16.8140	-69.190451	0.001550	15.503214	5.252631	-0.000621
1428	1.4199e+02	-16.8589	-69.783910	0.001490	14.895245	5.046645	-0.000596
1429	1.4209e+02	-16.8958	-70.421777	0.001601	16.009855	5.424286	-0.000641
1430	1.4219e+02	-16.9295	-71.027348	0.001520	15.199229	5.149638	-0.000609
1431	1.4228e+02	-16.9808	-71.653104	0.001571	15.705870	5.321293	-0.000629
1432	1.4238e+02	-17.0209	-72.250600	0.001500	14.996573	5.080976	-0.000600
1433	1.4248e+02	-17.0530	-72.949024	0.001753	17.529778	5.939249	-0.000702
1434	1.4258e+02	-17.1011	-73.574780	0.001571	15.705870	5.321293	-0.000629
1435	1.4268e+02	-17.1396	-74.216685	0.001611	16.111183	5.458617	-0.000645
1436	1.4278e+02	-17.1797	-74.915109	0.001753	17.529778	5.939249	-0.000702
1437	1.4288e+02	-17.2166	-75.597385	0.001712	17.124465	5.801926	-0.000686
1438	1.4298e+02	-17.2487	-76.194881	0.001500	14.996573	5.080976	-0.000600
1439	1.4308e+02	-17.3065	-76.897343	0.001763	17.631106	5.973580	-0.000706
1440	1.4318e+02	-17.3353	-77.563470	0.001672	16.719152	5.664602	-0.000669
1441	1.4328e+02	-17.3738	-78.274006	0.001783	17.833762	6.042242	-0.000714
1442	1.4338e+02	-17.4107	-78.976468	0.001763	17.631106	5.973580	-0.000706
1443	1.4348e+02	-17.4589	-79.658744	0.001712	17.124465	5.801926	-0.000686
1444	1.4358e+02	-17.5070	-80.393503	0.001844	18.441731	6.248228	-0.000738
1445	1.4368e+02	-17.5262	-81.108076	0.001794	17.935090	6.076573	-0.000718
1446	1.4378e+02	-17.5712	-81.810537	0.001763	17.631106	5.973580	-0.000706
1447	1.4388e+02	-17.6161	-82.573556	0.001915	19.151029	6.488544	-0.000767
1448	1.4398e+02	-17.6530	-83.271980	0.001753	17.529778	5.939249	-0.000702
1449	1.4408e+02	-17.7011	-84.018850	0.001875	18.745716	6.351220	-0.000751
1450	1.4418e+02	-17.7300	-84.798018	0.001956	19.556342	6.625868	-0.000783
1451	1.4428e+02	-17.7781	-85.556999	0.001905	19.049701	6.454213	-0.000763
1452	1.4437e+02	-17.8118	-86.328092	0.001935	19.353685	6.557206	-0.000775
1453	1.4447e+02	-17.8679	-87.091111	0.001915	19.151029	6.488544	-0.000767
1454	1.4457e+02	-17.8984	-87.813758	0.001814	18.137747	6.145235	-0.000726
1455	1.4467e+02	-17.9369	-88.677705	0.002168	21.684234	7.346817	-0.000868
1456	1.4477e+02	-17.9690	-89.464947	0.001976	19.758998	6.694530	-0.000791
1457	1.4487e+02	-18.0187	-90.232002	0.001925	19.252357	6.522875	-0.000771
1458	1.4497e+02	-18.0524	-91.047504	0.002047	20.468295	6.934846	-0.000820
1459	1.4507e+02	-18.1038	-91.858968	0.002037	20.366967	6.900515	-0.000816
1460	1.4517e+02	-18.1262	-92.714841	0.002148	21.481577	7.278155	-0.000860
1461	1.4527e+02	-18.1760	-93.566676	0.002138	21.380249	7.243824	-0.000856
1462	1.4537e+02	-18.2048	-94.430623	0.002168	21.684234	7.346817	-0.000868
1463	1.4547e+02	-18.2546	-95.306682	0.002199	21.988218	7.449810	-0.000880
1464	1.4557e+02	-18.2931	-96.122183	0.002047	20.468295	6.934846	-0.000820
1465	1.4567e+02	-18.3332	-96.982093	0.002158	21.582905	7.312486	-0.000864
1466	1.4577e+02	-18.3765	-97.894486	0.002290	22.900172	7.758788	-0.000917
1467	1.4587e+02	-18.4134	-98.798804	0.002270	22.697516	7.690126	-0.000909
1468	1.4597e+02	-18.4535	-99.727346	0.002331	23.305485	7.896112	-0.000933
1469	1.4607e+02	-18.4920	-100.550921	0.002067	20.670952	7.003508	-0.000828
1470	1.4617e+02	-18.5321	-101.499648	0.002381	23.812126	8.067767	-0.000953
1471	1.4626e+02	-18.5818	-102.428189	0.002331	23.305485	7.896112	-0.000933
1472	1.4636e+02	-18.6171	-103.389028	0.002412	24.116110	8.170759	-0.000966
1473	1.4646e+02	-18.6492	-104.273160	0.002219	22.190875	7.518472	-0.000889
1474	1.4656e+02	-18.6909	-105.274370	0.002513	25.129392	8.514069	-0.001006
1475	1.4666e+02	-18.7358	-106.235208	0.002412	24.116110	8.170759	-0.000966
1476	1.4676e+02	-18.7711	-107.220269	0.002472	24.724079	8.376745	-0.000990
1477	1.4686e+02	-18.7968	-108.221479	0.002513	25.129392	8.514069	-0.001006
1478	1.4696e+02	-18.8465	-109.210577	0.002483	24.825408	8.411076	-0.000994
1479	1.4706e+02	-18.8850	-110.195639	0.002472	24.724079	8.376745	-0.000990
1480	1.4716e+02	-18.9396	-111.265480	0.002685	26.851971	9.097694	-0.001075
1481	1.4726e+02	-18.9765	-112.258615	0.002493	24.926736	8.445407	-0.000998
1482	1.4736e+02	-19.0086	-113.320382	0.002665	26.649315	9.029032	-0.001067
1483	1.4746e+02	-19.0535	-114.390223	0.002685	26.851971	9.097694	-0.001075
1484	1.4756e+02	-19.0920	-115.496398	0.002776	27.763925	9.406673	-0.001112
1485	1.4766e+02	-19.1289	-116.533942	0.002604	26.041346	8.823047	-0.001043
1486	1.4776e+02	-19.1706	-117.664340	0.002837	28.371894	9.612658	-0.001136
1487	1.4786e+02	-19.2075	-118.754366	0.002736	27.358612	9.269349	-0.001096
1488	1.4796e+02	-19.2556	-119.824207	0.002685	26.851971	9.097694	-0.001075
1489	1.4806e+02	-19.2957	-121.019199	0.002999	29.993146	10.161953	-0.001201
1490	1.4816e+02	-19.3310	-122.169783	0.002888	28.878535	9.784313	-0.001156
1491	1.4825e+02	-19.3631	-123.304218	0.002847	28.473223	9.646989	-0.001140
1492	1.4835e+02	-19.4064	-124.483062	0.002959	29.587833	10.024629	-0.001185
1493	1.4845e+02	-19.4465	-125.657868	0.002949	29.486505	9.990298	-0.001181
1494	1.4855e+02	-19.4834	-126.885158	0.003080	30.803771	10.436600	-0.001233
1495	1.4865e+02	-19.5331	-128.092261	0.003030	30.297130	10.264946	-0.001213
1496	1.4875e+02	-19.5700	-129.291291	0.003009	30.094474	10.196284	-0.001205
1497	1.4885e+02	-19.6021	-130.558951	0.003182	31.817053	10.779909	-0.001274
1498	1.4895e+02	-19.6390	-131.838723	0.003212	32.121038	10.882902	-0.001286
1499	1.4905e+02	-19.6887	-133.098310	0.003161	31.614397	10.711248	-0.001266
1500	1.4915e+02	-19.7337	-134.418453	0.003313	33.134320	11.226211	-0.001327
1501	1.4925e+02	-19.7722	-135.722448	0.003273	32.729007	11.088888	-0.001311
1502	1.4935e+02	-19.8010	-137.054703	0.003344	33.438304	11.329204	-0.001339
1503	1.4945e+02	-19.8556	-138.362735	0.003283	32.830335	11.123219	-0.001315
1504	1.4955e+02	-19.8813	-139.678841	0.003303	33.032991	11.191880	-0.001323
1505	1.4965e+02	-19.9294	-141.087801	0.003536	35.363540	11.981492	-0.001416
1506	1.4975e+02	-19.9583	-142.496762	0.003536	35.363540	11.981492	-0.001416
1507	1.4985e+02	-20.0064	-143.873425	0.003455	34.552914	11.706844	-0.001384
1508	1.4995e+02	-19.9615	-144.906932	-0.002594	-25.940018	-8.788716	-0.001039
1509	1.5005e+02	-19.9246	-145.912178	-0.002523	-25.230720	-8.548399	-0.001010
1510	1.5015e+02	-19.8877	-146.792274	-0.002209	-22.089546	-7.484141	-0.000885
1511	1.5025e+02	-19.8476	-147.627961	-0.002097	-20.974936	-7.106501	-0.000840
1512	1.5034e+02	-19.8107	-148.447500	-0.002057	-20.569623	-6.969177	-0.000824
1513	1.5044e+02	-19.7593	-149.206481	-0.001905	-19.049701	-6.454213	-0.000763
1514	1.5054e+02	-19.7337	-149.933166	-0.001824	-18.239075	-6.179566	-0.000730
1515	1.5064e+02	-19.6823	-150.611404	-0.001702	-17.023137	-5.767595	-0.000682
1516	1.5074e+02	-19.6390	-151.216975	-0.001520	-15.199229	-5.149638	-0.000609
1517	1.5084e+02	-19.6117	-151.858879	-0.001611	-16.111183	-5.458617	-0.000645
1518	1.5094e+02	-19.5684	-152.500784	-0.001611	-16.111183	-5.458617	-0.000645
1519	1.5104e+02	-19.5299	-153.033686	-0.001338	-13.375322	-4.531682	-0.000536
1520	1.5114e+02	-19.4866	-153.574662	-0.001358	-13.577978	-4.600343	-0.000544
1521	1.5124e+02	-19.4433	-154.071230	-0.001246	-12.463368	-4.222703	-0.000499
1522	1.5134e+02	-19.4064	-154.596057	-0.001317	-13.172665	-4.463020	-0.000527
1523	1.5144e+02	-19.3679	-155.048217	-0.001135	-11.348758	-3.845063	-0.000454
1524	1.5154e+02	-19.3358	-155.480190	-0.001084	-10.842117	-3.673409	-0.000434
1525	1.5164e+02	-19.2909	-155.928312	-0.001125	-11.247430	-3.810732	-0.000450
1526	1.5174e+02	-19.2460	-156.311840	-0.000963	-9.626178	-3.261438	-0.000385
1527	1.5184e+02	-19.2139	-156.687294	-0.000942	-9.423522	-3.192776	-0.000377
1528	1.5194e+02	-19.1706	-157.042562	-0.000892	-8.916881	-3.021121	-0.000357
1529	1.5204e+02	-19.1273	-157.385718	-0.000861	-8.612897	-2.918128	-0.000345
1530	1.5214e+02	-19.0904	-157.716763	-0.000831	-8.308912	-2.815136	-0.000333
1531	1.5224e+02	-19.0615	-158.007437	-0.000730	-7.295630	-2.471826	-0.000292
1532	1.5233e+02	-19.0053	-158.310222	-0.000760	-7.599615	-2.574819	-0.000304
1533	1.5243e+02	-18.9684	-158.621082	-0.000780	-7.802271	-2.643481	-0.000312
1534	1.5253e+02	-18.9332	-158.927904	-0.000770	-7.700943	-2.609150	-0.000308
1535	1.5263e+02	-18.8882	-159.145909	-0.000547	-5.471722	-1.853870	-0.000219
1536	1.5273e+02	-18.8513	-159.367952	-0.000557	-5.573051	-1.888201	-0.000223
1537	1.5283e+02	-18.8160	-159.589994	-0.000557	-5.573051	-1.888201	-0.000223
1538	1.5293e+02	-18.7663	-159.832222	-0.000608	-6.079692	-2.059855	-0.000243
1539	1.5303e+02	-18.7390	-160.042153	-0.000527	-5.269066	-1.785208	-0.000211
1540	1.5313e+02	-18.6941	-160.191528	-0.000375	-3.749143	-1.270244	-0.000150
1541	1.5323e+02	-18.6476	-160.361087	-0.000426	-4.255784	-1.441899	-0.000170
1542	1.5333e+02	-18.6139	-160.558907	-0.000497	-4.965082	-1.682215	-0.000199
1543	1.5343e+02	-18.5722	-160.663872	-0.000263	-2.634533	-0.892604	-0.000105
1544	1.5353e+02	-18.5353	-160.845544	-0.000456	-4.559769	-1.544891	-0.000183
1545	1.5363e+02	-18.4968	-160.962620	-0.000294	-2.938518	-0.995597	-0.000118
1546	1.5373e+02	-18.4551	-161.116032	-0.000385	-3.850471	-1.304575	-0.000154
1547	1.5383e+02	-18.4102	-161.196774	-0.000203	-2.026564	-0.686618	-0.000081
1548	1.5393e+02	-18.3813	-161.305777	-0.000274	-2.735861	-0.926935	-0.000110
1549	1.5403e+02	-18.3380	-161.451114	-0.000365	-3.647815	-1.235913	-0.000146
1550	1.5413e+02	-18.2947	-161.455151	-0.000010	-0.101328	-0.034331	-0.000004
1551	1.5422e+02	-18.2481	-161.661045	-0.000517	-5.167738	-1.750877	-0.000207
1552	1.5432e+02	-18.2129	-161.673156	-0.000030	-0.303985	-0.102993	-0.000012
1553	1.5442e+02	-18.1711	-161.729676	-0.000142	-1.418595	-0.480633	-0.000057
1554	1.5452e+02	-18.1359	-161.790233	-0.000152	-1.519923	-0.514964	-0.000061
1555	1.5462e+02	-18.0877	-161.858865	-0.000172	-1.722579	-0.583626	-0.000069
1556	1.5472e+02	-18.0540	-161.899236	-0.000101	-1.013282	-0.343309	-0.000041
1557	1.5482e+02	-18.0059	-161.967867	-0.000172	-1.722579	-0.583626	-0.000069
1558	1.5492e+02	-17.9722	-161.996127	-0.000071	-0.709297	-0.240316	-0.000028
1559	1.5502e+02	-17.9369	-162.016313	-0.000051	-0.506641	-0.171655	-0.000020
1560	1.5512e+02	-17.8888	-162.044573	-0.000071	-0.709297	-0.240316	-0.000028
1561	1.5522e+02	-17.8519	-162.080907	-0.000091	-0.911954	-0.308978	-0.000037
1562	1.5532e+02	-17.8102	-162.076870	0.000010	0.101328	0.034331	0.000004
1563	1.5542e+02	-17.7733	-162.068796	0.000020	0.202656	0.068662	0.000008
1564	1.5552e+02	-17.7300	-162.097056	-0.000071	-0.709297	-0.240316	-0.000028
1565	1.5562e+02	-17.6995	-162.084944	0.000030	0.303985	0.102993	0.000012
1566	1.5572e+02	-17.6466	-162.016313	0.000172	1.722579	0.583626	0.000069
1567	1.5582e+02	-17.6113	-161.975942	0.000101	1.013282	0.343309	0.000041
1568	1.5592e+02	-17.5808	-162.016313	-0.000101	-1.013282	-0.343309	-0.000041
1569	1.5602e+02	-17.5375	-161.988053	0.000071	0.709297	0.240316	0.000028
1570	1.5612e+02	-17.4926	-161.984016	0.000010	0.101328	0.034331	0.000004
1571	1.5622e+02	-17.4621	-161.927496	0.000142	1.418595	0.480633	0.000057
1572	1.5631e+02	-17.4156	-161.895199	0.000081	0.810626	0.274647	0.000032
1573	1.5641e+02	-17.3738	-161.822530	0.000182	1.823907	0.617957	0.000073
1574	1.5651e+02	-17.3321	-161.814456	0.000020	0.202656	0.068662	0.000008
1575	1.5661e+02	-17.2952	-161.794270	0.000051	0.506641	0.171655	0.000020
1576	1.5671e+02	-17.2551	-161.685268	0.000274	2.735861	0.926935	0.000110
1577	1.5681e+02	-17.2198	-161.604525	0.000203	2.026564	0.686618	0.000081
1578	1.5691e+02	-17.1701	-161.580302	0.000061	0.607969	0.205986	0.000024
1579	1.5701e+02	-17.1412	-161.499559	0.000203	2.026564	0.686618	0.000081
1580	1.5711e+02	-17.0963	-161.434965	0.000162	1.621251	0.549295	0.000065
1581	1.5721e+02	-17.0530	-161.370371	0.000162	1.621251	0.549295	0.000065
1582	1.5731e+02	-17.0177	-161.321926	0.000122	1.215938	0.411971	0.000049
1583	1.5741e+02	-16.9792	-161.241183	0.000203	2.026564	0.686618	0.000081
1584	1.5751e+02	-16.9423	-161.176589	0.000162	1.621251	0.549295	0.000065
1585	1.5761e+02	-16.9006	-161.059512	0.000294	2.938518	0.995597	0.000118
1586	1.5771e+02	-16.8573	-161.027215	0.000081	0.810626	0.274647	0.000032
1587	1.5781e+02	-16.8188	-160.926286	0.000253	2.533205	0.858273	0.000101
1588	1.5791e+02	-16.7819	-160.809209	0.000294	2.938518	0.995597	0.000118
1589	1.5801e+02	-16.7434	-160.736541	0.000182	1.823907	0.617957	0.000073
1590	1.5811e+02	-16.6969	-160.655798	0.000203	2.026564	0.686618	0.000081
1591	1.5821e+02	-16.6632	-160.558907	0.000243	2.431877	0.823942	0.000097
1592	1.5830e+02	-16.6215	-160.498350	0.000152	1.519923	0.514964	0.000061
1593	1.5840e+02	-16.5797	-160.381273	0.000294	2.938518	0.995597	0.000118
1594	1.5850e+02	-16.5364	-160.272270	0.000274	2.735861	0.926935	0.000110
1595	1.5860e+02	-16.5043	-160.159230	0.000284	2.837189	0.961266	0.000114
1596	1.5870e+02	-16.4674	-160.050228	0.000274	2.735861	0.926935	0.000110
1597	1.5880e+02	-16.4225	-159.989671	0.000152	1.519923	0.514964	0.000061
1598	1.5890e+02	-16.3776	-159.864520	0.000314	3.141174	1.064259	0.000126
1599	1.5900e+02	-16.3423	-159.747443	0.000294	2.938518	0.995597	0.000118
1600	1.5910e+02	-16.2894	-159.646514	0.000253	2.533205	0.858273	0.000101
1601	1.5920e+02	-16.2589	-159.533474	0.000284	2.837189	0.961266	0.000114
1602	1.5930e+02	-16.2172	-159.392175	0.000355	3.546487	1.201582	0.000142
1603	1.5940e+02	-16.1771	-159.315469	0.000193	1.925236	0.652288	0.000077
1604	1.5950e+02	-16.1498	-159.162058	0.000385	3.850471	1.304575	0.000154
1605	1.5960e+02	-16.1017	-159.101501	0.000152	1.519923	0.514964	0.000061
1606	1.5970e+02	-16.0600	-158.927904	0.000436	4.357112	1.476230	0.000174
1607	1.5980e+02	-16.0247	-158.826976	0.000253	2.533205	0.858273	0.000101
1608	1.5990e+02	-15.9782	-158.730084	0.000243	2.431877	0.823942	0.000097
1609	1.6000e+02	-15.9493	-158.604933	0.000314	3.141174	1.064259	0.000126
1610	1.6010e+02	-15.8979	-158.435373	0.000426	4.255784	1.441899	0.000170
1611	1.6019e+02	-15.8691	-158.358668	0.000193	1.925236	0.652288	0.000077
1612	1.6029e+02	-15.8306	-158.176997	0.000456	4.559769	1.544891	0.000183
1613	1.6039e+02	-15.7760	-158.063957	0.000284	2.837189	0.961266	0.000114
1614	1.6049e+02	-15.7423	-157.975140	0.000223	2.229220	0.755280	0.000089
1615	1.6059e+02	-15.7086	-157.878249	0.000243	2.431877	0.823942	0.000097
1616	1.6069e+02	-15.6605	-157.720800	0.000395	3.951800	1.338906	0.000158
1617	1.6079e+02	-15.6220	-157.619872	0.000253	2.533205	0.858273	0.000101
1618	1.6089e+02	-15.5883	-157.458387	0.000405	4.053128	1.373237	0.000162
1619	1.6099e+02	-15.5450	-157.349384	0.000274	2.735861	0.926935	0.000110
1620	1.6109e+02	-15.5001	-157.200010	0.000375	3.749143	1.270244	0.000150
1621	1.6119e+02	-15.4632	-157.062747	0.000345	3.445159	1.167251	0.000138
1622	1.6129e+02	-15.4375	-156.909336	0.000385	3.850471	1.304575	0.000154
1623	1.6139e+02	-15.3766	-156.812445	0.000243	2.431877	0.823942	0.000097
1624	1.6149e+02	-15.3413	-156.634811	0.000446	4.458441	1.510561	0.000179
1625	1.6159e+02	-15.3028	-156.558105	0.000193	1.925236	0.652288	0.000077
1626	1.6169e+02	-15.2611	-156.372397	0.000466	4.661097	1.579222	0.000187
1627	1.6179e+02	-15.2210	-156.231097	0.000355	3.546487	1.201582	0.000142
1628	1.6189e+02	-15.1841	-156.089798	0.000355	3.546487	1.201582	0.000142
1629	1.6199e+02	-15.1472	-155.948498	0.000355	3.546487	1.201582	0.000142
1630	1.6209e+02	-15.1055	-155.811235	0.000345	3.445159	1.167251	0.000138
1631	1.6219e+02	-15.0637	-155.710307	0.000253	2.533205	0.858273	0.000101
1632	1.6228e+02	-15.0220	-155.556896	0.000385	3.850471	1.304575	0.000154
1633	1.6238e+02	-14.9835	-155.399447	0.000395	3.951800	1.338906	0.000158
1634	1.6248e+02	-14.9547	-155.262185	0.000345	3.445159	1.167251	0.000138
1635	1.6258e+02	-14.9065	-155.112811	0.000375	3.749143	1.270244	0.000150
1636	1.6268e+02	-14.8648	-154.987660	0.000314	3.141174	1.064259	0.000126
1637	1.6278e+02	-14.8231	-154.850397	0.000345	3.445159	1.167251	0.000138
1638	1.6288e+02	-14.7814	-154.692949	0.000395	3.951800	1.338906	0.000158
1639	1.6298e+02	-14.7493	-154.519352	0.000436	4.357112	1.476230	0.000174
1640	1.6308e+02	-14.6980	-154.398238	0.000304	3.039846	1.029928	0.000122
1641	1.6318e+02	-14.6707	-154.224641	0.000436	4.357112	1.476230	0.000174
1642	1.6328e+02	-14.6226	-154.034896	0.000476	4.762425	1.613553	0.000191
1643	1.6338e+02	-14.5809	-153.954153	0.000203	2.026564	0.686618	0.000081
1644	1.6348e+02	-14.5440	-153.768445	0.000466	4.661097	1.579222	0.000187
1645	1.6358e+02	-14.5007	-153.647330	0.000304	3.039846	1.029928	0.000122
1646	1.6368e+02	-14.4718	-153.477771	0.000426	4.255784	1.441899	0.000170
1647	1.6378e+02	-14.4253	-153.344545	0.000334	3.343830	1.132920	0.000134
1648	1.6388e+02	-14.3852	-153.187097	0.000395	3.951800	1.338906	0.000158
1649	1.6398e+02	-14.3531	-153.021574	0.000415	4.154456	1.407568	0.000166
1650	1.6408e+02	-14.3033	-152.904498	0.000294	2.938518	0.995597	0.000118
1651	1.6418e+02	-14.2664	-152.726864	0.000446	4.458441	1.510561	0.000179
1652	1.6427e+02	-14.2311	-152.565378	0.000405	4.053128	1.373237	0.000162
1653	1.6437e+02	-14.1814	-152.383707	0.000456	4.559769	1.544891	0.000183
1654	1.6447e+02	-14.1558	-152.226259	0.000395	3.951800	1.338906	0.000158
1655	1.6457e+02	-14.1092	-152.044588	0.000456	4.559769	1.544891	0.000183
1656	1.6467e+02	-14.0723	-151.951733	0.000233	2.330548	0.789611	0.000093
1657	1.6477e+02	-14.0306	-151.761988	0.000476	4.762425	1.613553	0.000191
1658	1.6487e+02	-13.9937	-151.628763	0.000334	3.343830	1.132920	0.000134
1659	1.6497e+02	-13.9440	-151.406720	0.000557	5.573051	1.888201	0.000223
1660	1.6507e+02	-13.9055	-151.301755	0.000263	2.634533	0.892604	0.000105
1661	1.6517e+02	-13.8750	-151.168529	0.000334	3.343830	1.132920	0.000134
1662	1.6527e+02	-13.8237	-151.015118	0.000385	3.850471	1.304575	0.000154
1663	1.6537e+02	-13.7916	-150.845558	0.000426	4.255784	1.441899	0.000170
1664	1.6547e+02	-13.7435	-150.684073	0.000405	4.053128	1.373237	0.000162
1665	1.6557e+02	-13.7146	-150.494327	0.000476	4.762425	1.613553	0.000191
1666	1.6567e+02	-13.6681	-150.348991	0.000365	3.647815	1.235913	0.000146
1667	1.6577e+02	-13.6247	-150.272285	0.000193	1.925236	0.652288	0.000077
1668	1.6587e+02	-13.5911	-150.046205	0.000567	5.674379	1.922532	0.000227
1669	1.6597e+02	-13.5445	-149.908943	0.000345	3.445159	1.167251	0.000138
1670	1.6607e+02	-13.5044	-149.739383	0.000426	4.255784	1.441899	0.000170
1671	1.6616e+02	-13.4707	-149.581935	0.000395	3.951800	1.338906	0.000158
1672	1.6626e+02	-13.4242	-149.416412	0.000415	4.154456	1.407568	0.000166
1673	1.6636e+02	-13.3905	-149.271075	0.000365	3.647815	1.235913	0.000146
1674	1.6646e+02	-13.3552	-149.113627	0.000395	3.951800	1.338906	0.000158
1675	1.6656e+02	-13.3103	-148.923882	0.000476	4.762425	1.613553	0.000191
1676	1.6666e+02	-13.2654	-148.754322	0.000426	4.255784	1.441899	0.000170
1677	1.6676e+02	-13.2253	-148.584762	0.000426	4.255784	1.441899	0.000170
1678	1.6686e+02	-13.1884	-148.415203	0.000426	4.255784	1.441899	0.000170
1679	1.6696e+02	-13.1483	-148.294088	0.000304	3.039846	1.029928	0.000122
1680	1.6706e+02	-13.1146	-148.092232	0.000507	5.066410	1.716546	0.000203
1681	1.6716e+02	-13.0681	-147.954969	0.000345	3.445159	1.167251	0.000138
1682	1.6726e+02	-13.0167	-147.708704	0.000618	6.181020	2.094186	0.000248
1683	1.6736e+02	-12.9831	-147.599701	0.000274	2.735861	0.926935	0.000110
1684	1.6746e+02	-12.9558	-147.454364	0.000365	3.647815	1.235913	0.000146
1685	1.6756e+02	-12.9141	-147.288842	0.000415	4.154456	1.407568	0.000166
1686	1.6766e+02	-12.8836	-147.139468	0.000375	3.749143	1.270244	0.000150
1687	1.6776e+02	-12.8387	-146.982019	0.000395	3.951800	1.338906	0.000158
1688	1.6786e+02	-12.7922	-146.768051	0.000537	5.370394	1.819539	0.000215
1689	1.6796e+02	-12.7569	-146.626751	0.000355	3.546487	1.201582	0.000142
1690	1.6806e+02	-12.7151	-146.428932	0.000497	4.965082	1.682215	0.000199
1691	1.6816e+02	-12.6734	-146.283595	0.000365	3.647815	1.235913	0.000146
1692	1.6825e+02	-12.6301	-146.134221	0.000375	3.749143	1.270244	0.000150
1693	1.6835e+02	-12.5948	-145.928327	0.000517	5.167738	1.750877	0.000207
1694	1.6845e+02	-12.5563	-145.782990	0.000365	3.647815	1.235913	0.000146
1695	1.6855e+02	-12.5210	-145.589208	0.000486	4.863753	1.647884	0.000195
1696	1.6865e+02	-12.4761	-145.439834	0.000375	3.749143	1.270244	0.000150
1697	1.6875e+02	-12.4360	-145.262200	0.000446	4.458441	1.510561	0.000179
1698	1.6885e+02	-12.4007	-145.060343	0.000507	5.066410	1.716546	0.000203
1699	1.6895e+02	-12.3558	-144.927117	0.000334	3.343830	1.132920	0.000134
1700	1.6905e+02	-12.3173	-144.749483	0.000446	4.458441	1.510561	0.000179
1701	1.6915e+02	-12.2756	-144.563775	0.000466	4.661097	1.579222	0.000187
1702	1.6925e+02	-12.2355	-144.402290	0.000405	4.053128	1.373237	0.000162
1703	1.6935e+02	-12.1970	-144.212544	0.000476	4.762425	1.613553	0.000191
1704	1.6945e+02	-12.1569	-144.026836	0.000466	4.661097	1.579222	0.000187
1705	1.6955e+02	-12.1136	-143.873425	0.000385	3.850471	1.304575	0.000154
1706	1.6965e+02	-12.0783	-143.679642	0.000486	4.863753	1.647884	0.000195
1707	1.6975e+02	-12.0366	-143.530268	0.000375	3.749143	1.270244	0.000150
1708	1.6985e+02	-11.9852	-143.324374	0.000517	5.167738	1.750877	0.000207
1709	1.6995e+02	-11.9612	-143.183075	0.000355	3.546487	1.201582	0.000142
1710	1.7005e+02	-11.9178	-143.001404	0.000456	4.559769	1.544891	0.000183
1711	1.7015e+02	-11.8777	-142.795510	0.000517	5.167738	1.750877	0.000207
1712	1.7024e+02	-11.8392	-142.629987	0.000415	4.154456	1.407568	0.000166
1713	1.7034e+02	-11.7927	-142.484650	0.000365	3.647815	1.235913	0.000146
1714	1.7044e+02	-11.7574	-142.282793	0.000507	5.066410	1.716546	0.000203
1715	1.7054e+02	-11.7221	-142.133419	0.000375	3.749143	1.270244	0.000150
1716	1.7064e+02	-11.6788	-141.915414	0.000547	5.471722	1.853870	0.000219
1717	1.7074e+02	-11.6371	-141.733743	0.000456	4.559769	1.544891	0.000183
1718	1.7084e+02	-11.5986	-141.556109	0.000446	4.458441	1.510561	0.000179
1719	1.7094e+02	-11.5633	-141.418846	0.000345	3.445159	1.167251	0.000138
1720	1.7104e+02	-11.5216	-141.249287	0.000426	4.255784	1.441899	0.000170
1721	1.7114e+02	-11.4879	-141.075690	0.000436	4.357112	1.476230	0.000174
1722	1.7124e+02	-11.4430	-140.889982	0.000466	4.661097	1.579222	0.000187
1723	1.7134e+02	-11.4061	-140.720422	0.000426	4.255784	1.441899	0.000170
1724	1.7144e+02	-11.3628	-140.518565	0.000507	5.066410	1.716546	0.000203
1725	1.7154e+02	-11.3259	-140.316708	0.000507	5.066410	1.716546	0.000203
1726	1.7164e+02	-11.2745	-140.147149	0.000426	4.255784	1.441899	0.000170
1727	1.7174e+02	-11.2393	-139.985663	0.000405	4.053128	1.373237	0.000162
1728	1.7184e+02	-11.2072	-139.824178	0.000405	4.053128	1.373237	0.000162
1729	1.7194e+02	-11.1590	-139.622321	0.000507	5.066410	1.716546	0.000203
1730	1.7204e+02	-11.1157	-139.472947	0.000375	3.749143	1.270244	0.000150
1731	1.7213e+02	-11.0820	-139.287239	0.000466	4.661097	1.579222	0.000187
1732	1.7223e+02	-11.0435	-139.093456	0.000486	4.863753	1.647884	0.000195
1733	1.7233e+02	-11.0066	-138.919859	0.000436	4.357112	1.476230	0.000174
1734	1.7243e+02	-10.9569	-138.730114	0.000476	4.762425	1.613553	0.000191
1735	1.7253e+02	-10.9184	-138.572666	0.000395	3.951800	1.338906	0.000158
1736	1.7263e+02	-10.8767	-138.358697	0.000537	5.370394	1.819539	0.000215
1737	1.7273e+02	-10.8462	-138.197212	0.000405	4.053128	1.373237	0.000162
1738	1.7283e+02	-10.7965	-138.023615	0.000436	4.357112	1.476230	0.000174
1739	1.7293e+02	-10.7644	-137.850018	0.000436	4.357112	1.476230	0.000174
1740	1.7303e+02	-10.7179	-137.644124	0.000517	5.167738	1.750877	0.000207
1741	1.7313e+02	-10.6858	-137.446305	0.000497	4.965082	1.682215	0.000199
1742	1.7323e+02	-10.6473	-137.256559	0.000476	4.762425	1.613553	0.000191
1743	1.7333e+02	-10.5976	-137.082963	0.000436	4.357112	1.476230	0.000174
1744	1.7343e+02	-10.5607	-136.901291	0.000456	4.559769	1.544891	0.000183
1745	1.7353e+02	-10.5238	-136.759992	0.000355	3.546487	1.201582	0.000142
1746	1.7363e+02	-10.4837	-136.562172	0.000497	4.965082	1.682215	0.000199
1747	1.7373e+02	-10.4436	-136.352241	0.000527	5.269066	1.785208	0.000211
1748	1.7383e+02	-10.4067	-136.158458	0.000486	4.863753	1.647884	0.000195
1749	1.7393e+02	-10.3666	-135.988899	0.000426	4.255784	1.441899	0.000170
1750	1.7403e+02	-10.3232	-135.799153	0.000476	4.762425	1.613553	0.000191
1751	1.7413e+02	-10.2799	-135.569037	0.000578	5.775707	1.956863	0.000231
1752	1.7422e+02	-10.2446	-135.435811	0.000334	3.343830	1.132920	0.000134
1753	1.7432e+02	-10.2093	-135.233954	0.000507	5.066410	1.716546	0.000203
1754	1.7442e+02	-10.1676	-135.084580	0.000375	3.749143	1.270244	0.000150
1755	1.7452e+02	-10.1227	-134.834278	0.000628	6.282348	2.128517	0.000252
1756	1.7462e+02	-10.0826	-134.692978	0.000355	3.546487	1.201582	0.000142
1757	1.7472e+02	-10.0441	-134.458824	0.000588	5.877035	1.991193	0.000235
1758	1.7482e+02	-10.0120	-134.309450	0.000375	3.749143	1.270244	0.000150
1759	1.7492e+02	-9.9623	-134.119705	0.000476	4.762425	1.613553	0.000191
1760	1.7502e+02	-9.9222	-133.925922	0.000486	4.863753	1.647884	0.000195
1761	1.7512e+02	-9.8869	-133.720028	0.000517	5.167738	1.750877	0.000207
1762	1.7522e+02	-9.8452	-133.518172	0.000507	5.066410	1.716546	0.000203
1763	1.7532e+02	-9.8163	-133.364761	0.000385	3.850471	1.304575	0.000154
1764	1.7542e+02	-9.7634	-133.146755	0.000547	5.471722	1.853870	0.000219
1765	1.7552e+02	-9.7265	-132.948936	0.000497	4.965082	1.682215	0.000199
1766	1.7562e+02	-9.6864	-132.767264	0.000456	4.559769	1.544891	0.000183
1767	1.7572e+02	-9.6479	-132.585593	0.000456	4.559769	1.544891	0.000183
1768	1.7582e+02	-9.6045	-132.387774	0.000497	4.965082	1.682215	0.000199
1769	1.7592e+02	-9.5692	-132.206103	0.000456	4.559769	1.544891	0.000183
1770	1.7602e+02	-9.5275	-132.000209	0.000517	5.167738	1.750877	0.000207
1771	1.7612e+02	-9.4922	-131.786240	0.000537	5.370394	1.819539	0.000215
1772	1.7621e+02	-9.4409	-131.632829	0.000385	3.850471	1.304575	0.000154
1773	1.7631e+02	-9.4072	-131.455195	0.000446	4.458441	1.510561	0.000179
1774	1.7641e+02	-9.3735	-131.281598	0.000436	4.357112	1.476230	0.000174
1775	1.7651e+02	-9.3254	-131.019185	0.000659	6.586333	2.231510	0.000264
1776	1.7661e+02	-9.3013	-130.853662	0.000415	4.154456	1.407568	0.000166
1777	1.7671e+02	-9.2436	-130.611434	0.000608	6.079692	2.059855	0.000243
1778	1.7681e+02	-9.2019	-130.449949	0.000405	4.053128	1.373237	0.000162
1779	1.7691e+02	-9.1746	-130.268277	0.000456	4.559769	1.544891	0.000183
1780	1.7701e+02	-9.1313	-130.066421	0.000507	5.066410	1.716546	0.000203
1781	1.7711e+02	-9.0896	-129.872638	0.000486	4.863753	1.647884	0.000195
1782	1.7721e+02	-9.0415	-129.666744	0.000517	5.167738	1.750877	0.000207
1783	1.7731e+02	-9.0094	-129.501222	0.000415	4.154456	1.407568	0.000166
1784	1.7741e+02	-8.9789	-129.275142	0.000567	5.674379	1.922532	0.000227
1785	1.7751e+02	-8.9227	-129.081360	0.000486	4.863753	1.647884	0.000195
1786	1.7761e+02	-8.8874	-128.835094	0.000618	6.181020	2.094186	0.000248
1787	1.7771e+02	-8.8570	-128.649386	0.000466	4.661097	1.579222	0.000187
1788	1.7781e+02	-8.7992	-128.475789	0.000436	4.357112	1.476230	0.000174
1789	1.7791e+02	-8.7703	-128.306229	0.000426	4.255784	1.441899	0.000170
1790	1.7801e+02	-8.7254	-128.068038	0.000598	5.978363	2.025524	0.000239
1791	1.7810e+02	-8.6901	-127.870219	0.000497	4.965082	1.682215	0.000199
1792	1.7820e+02	-8.6436	-127.676436	0.000486	4.863753	1.647884	0.000195
1793	1.7830e+02	-8.6019	-127.490728	0.000466	4.661097	1.579222	0.000187
1794	1.7840e+02	-8.5698	-127.305020	0.000466	4.661097	1.579222	0.000187
1795	1.7850e+02	-8.5249	-127.087014	0.000547	5.471722	1.853870	0.000219
1796	1.7860e+02	-8.4928	-126.889195	0.000497	4.965082	1.682215	0.000199
1797	1.7870e+02	-8.4559	-126.655041	0.000588	5.877035	1.991193	0.000235
1798	1.7880e+02	-8.4142	-126.481444	0.000436	4.357112	1.476230	0.000174
1799	1.7890e+02	-8.3757	-126.271513	0.000527	5.269066	1.785208	0.000211
1800	1.7900e+02	-8.3308	-126.069656	0.000507	5.066410	1.716546	0.000203
1801	1.7910e+02	-8.2923	-125.892022	0.000446	4.458441	1.510561	0.000179
1802	1.7920e+02	-8.2490	-125.641720	0.000628	6.282348	2.128517	0.000252
1803	1.7930e+02	-8.2089	-125.508494	0.000334	3.343830	1.132920	0.000134
1804	1.7940e+02	-8.1752	-125.282415	0.000567	5.674379	1.922532	0.000227
1805	1.7950e+02	-8.1383	-125.052298	0.000578	5.775707	1.956863	0.000231
1806	1.7960e+02	-8.0918	-124.834293	0.000547	5.471722	1.853870	0.000219
1807	1.7970e+02	-8.0532	-124.628399	0.000517	5.167738	1.750877	0.000207
1808	1.7980e+02	-8.0099	-124.446728	0.000456	4.559769	1.544891	0.000183
1809	1.7990e+02	-7.9746	-124.200462	0.000618	6.181020	2.094186	0.000248
1810	1.8000e+02	-7.9313	-124.018791	0.000456	4.559769	1.544891	0.000183
1811	1.8009e+02	-7.8928	-123.768489	0.000628	6.282348	2.128517	0.000252
1812	1.8019e+02	-7.8527	-123.623152	0.000365	3.647815	1.235913	0.000146
1813	1.8029e+02	-7.8046	-123.384961	0.000598	5.978363	2.025524	0.000239
1814	1.8039e+02	-7.7597	-123.179067	0.000517	5.167738	1.750877	0.000207
1815	1.8049e+02	-7.7388	-122.957025	0.000557	5.573051	1.888201	0.000223
1816	1.8059e+02	-7.6891	-122.710759	0.000618	6.181020	2.094186	0.000248
1817	1.8069e+02	-7.6442	-122.553311	0.000395	3.951800	1.338906	0.000158
1818	1.8079e+02	-7.6217	-122.335306	0.000547	5.471722	1.853870	0.000219
1819	1.8089e+02	-7.5832	-122.105189	0.000578	5.775707	1.956863	0.000231
1820	1.8099e+02	-7.5399	-121.891221	0.000537	5.370394	1.819539	0.000215
1821	1.8109e+02	-7.4902	-121.697438	0.000486	4.863753	1.647884	0.000195
1822	1.8119e+02	-7.4613	-121.487507	0.000527	5.269066	1.785208	0.000211
1823	1.8129e+02	-7.4212	-121.281613	0.000517	5.167738	1.750877	0.000207
1824	1.8139e+02	-7.3698	-120.986902	0.000740	7.396958	2.506157	0.000296
1825	1.8149e+02	-7.3410	-120.853677	0.000334	3.343830	1.132920	0.000134
1826	1.8159e+02	-7.2993	-120.631634	0.000557	5.573051	1.888201	0.000223
1827	1.8169e+02	-7.2543	-120.413629	0.000547	5.471722	1.853870	0.000219
1828	1.8179e+02	-7.2142	-120.199661	0.000537	5.370394	1.819539	0.000215
1829	1.8189e+02	-7.1709	-120.005878	0.000486	4.863753	1.647884	0.000195
1830	1.8199e+02	-7.1356	-119.727316	0.000699	6.991645	2.368834	0.000280
1831	1.8209e+02	-7.0859	-119.553719	0.000436	4.357112	1.476230	0.000174
1832	1.8218e+02	-7.0538	-119.339751	0.000537	5.370394	1.819539	0.000215
1833	1.8228e+02	-7.0169	-119.137894	0.000507	5.066410	1.716546	0.000203
1834	1.8238e+02	-6.9768	-118.932000	0.000517	5.167738	1.750877	0.000207
1835	1.8248e+02	-6.9239	-118.665549	0.000669	6.687661	2.265841	0.000268
1836	1.8258e+02	-6.8886	-118.495990	0.000426	4.255784	1.441899	0.000170
1837	1.8268e+02	-6.8629	-118.249724	0.000618	6.181020	2.094186	0.000248
1838	1.8278e+02	-6.8180	-118.088239	0.000405	4.053128	1.373237	0.000162
1839	1.8288e+02	-6.7795	-117.841974	0.000618	6.181020	2.094186	0.000248
1840	1.8298e+02	-6.7362	-117.619931	0.000557	5.573051	1.888201	0.000223
1841	1.8308e+02	-6.7009	-117.422112	0.000497	4.965082	1.682215	0.000199
1842	1.8318e+02	-6.6608	-117.196032	0.000567	5.674379	1.922532	0.000227
1843	1.8328e+02	-6.6143	-116.929581	0.000669	6.687661	2.265841	0.000268
1844	1.8338e+02	-6.5790	-116.760021	0.000426	4.255784	1.441899	0.000170
1845	1.8348e+02	-6.5421	-116.521830	0.000598	5.978363	2.025524	0.000239
1846	1.8358e+02	-6.4923	-116.348233	0.000436	4.357112	1.476230	0.000174
1847	1.8368e+02	-6.4522	-116.061597	0.000719	7.194302	2.437495	0.000288
1848	1.8378e+02	-6.4169	-115.879926	0.000456	4.559769	1.544891	0.000183
1849	1.8388e+02	-6.3848	-115.682106	0.000497	4.965082	1.682215	0.000199
1850	1.8398e+02	-6.3399	-115.456026	0.000567	5.674379	1.922532	0.000227
1851	1.8407e+02	-6.3014	-115.242058	0.000537	5.370394	1.819539	0.000215
1852	1.8417e+02	-6.2645	-114.991756	0.000628	6.282348	2.128517	0.000252
1853	1.8427e+02	-6.2164	-114.810085	0.000456	4.559769	1.544891	0.000183
1854	1.8437e+02	-6.1843	-114.600154	0.000527	5.269066	1.785208	0.000211
1855	1.8447e+02	-6.1426	-114.366000	0.000588	5.877035	1.991193	0.000235
1856	1.8457e+02	-6.1025	-114.152032	0.000537	5.370394	1.819539	0.000215
1857	1.8467e+02	-6.0640	-113.909803	0.000608	6.079692	2.059855	0.000243
1858	1.8477e+02	-6.0207	-113.679687	0.000578	5.775707	1.956863	0.000231
1859	1.8487e+02	-5.9854	-113.481867	0.000497	4.965082	1.682215	0.000199
1860	1.8497e+02	-5.9453	-113.235602	0.000618	6.181020	2.094186	0.000248
1861	1.8507e+02	-5.9020	-112.989336	0.000618	6.181020	2.094186	0.000248
1862	1.8517e+02	-5.8587	-112.787480	0.000507	5.066410	1.716546	0.000203
1863	1.8527e+02	-5.8266	-112.561400	0.000567	5.674379	1.922532	0.000227
1864	1.8537e+02	-5.7817	-112.339358	0.000557	5.573051	1.888201	0.000223
1865	1.8547e+02	-5.7448	-112.117315	0.000557	5.573051	1.888201	0.000223
1866	1.8557e+02	-5.7047	-111.891236	0.000567	5.674379	1.922532	0.000227
1867	1.8567e+02	-5.6710	-111.673230	0.000547	5.471722	1.853870	0.000219
1868	1.8577e+02	-5.6196	-111.414854	0.000649	6.485004	2.197179	0.000260
1869	1.8587e+02	-5.5795	-111.184737	0.000578	5.775707	1.956863	0.000231
1870	1.8597e+02	-5.5490	-110.982880	0.000507	5.066410	1.716546	0.000203
1871	1.8606e+02	-5.5105	-110.752763	0.000578	5.775707	1.956863	0.000231
1872	1.8616e+02	-5.4624	-110.490349	0.000659	6.586333	2.231510	0.000264
1873	1.8626e+02	-5.4287	-110.316753	0.000436	4.357112	1.476230	0.000174
1874	1.8636e+02	-5.3838	-110.062413	0.000638	6.383676	2.162848	0.000256
1875	1.8646e+02	-5.3453	-109.852482	0.000527	5.269066	1.785208	0.000211
1876	1.8656e+02	-5.3020	-109.634477	0.000547	5.471722	1.853870	0.000219
1877	1.8666e+02	-5.2715	-109.359951	0.000689	6.890317	2.334503	0.000276
1878	1.8676e+02	-5.2202	-109.121760	0.000598	5.978363	2.025524	0.000239
1879	1.8686e+02	-5.1913	-108.932015	0.000476	4.762425	1.613553	0.000191
1880	1.8696e+02	-5.1416	-108.661527	0.000679	6.788989	2.300172	0.000272
1881	1.8706e+02	-5.1095	-108.382965	0.000699	6.991645	2.368834	0.000280
1882	1.8716e+02	-5.0678	-108.225516	0.000395	3.951800	1.338906	0.000158
1883	1.8726e+02	-5.0325	-107.995400	0.000578	5.775707	1.956863	0.000231
1884	1.8736e+02	-4.9779	-107.753171	0.000608	6.079692	2.059855	0.000243
1885	1.8746e+02	-4.9475	-107.531129	0.000557	5.573051	1.888201	0.000223
1886	1.8756e+02	-4.9090	-107.313124	0.000547	5.471722	1.853870	0.000219
1887	1.8766e+02	-4.8640	-107.066858	0.000618	6.181020	2.094186	0.000248
1888	1.8776e+02	-4.8271	-106.840779	0.000567	5.674379	1.922532	0.000227
1889	1.8786e+02	-4.7870	-106.634885	0.000517	5.167738	1.750877	0.000207
1890	1.8796e+02	-4.7485	-106.388620	0.000618	6.181020	2.094186	0.000248
1891	1.8806e+02	-4.7052	-106.138317	0.000628	6.282348	2.128517	0.000252
1892	1.8815e+02	-4.6731	-105.940497	0.000497	4.965082	1.682215	0.000199
1893	1.8825e+02	-4.6410	-105.653861	0.000719	7.194302	2.437495	0.000288
1894	1.8835e+02	-4.5961	-105.443930	0.000527	5.269066	1.785208	0.000211
1895	1.8845e+02	-4.5480	-105.262259	0.000456	4.559769	1.544891	0.000183
1896	1.8855e+02	-4.5079	-105.044253	0.000547	5.471722	1.853870	0.000219
1897	1.8865e+02	-4.4678	-104.757617	0.000719	7.194302	2.437495	0.000288
1898	1.8875e+02	-4.4245	-104.507314	0.000628	6.282348	2.128517	0.000252
1899	1.8885e+02	-4.3844	-104.305457	0.000507	5.066410	1.716546	0.000203
1900	1.8895e+02	-4.3443	-104.071304	0.000588	5.877035	1.991193	0.000235
1901	1.8905e+02	-4.3074	-103.837150	0.000588	5.877035	1.991193	0.000235
1902	1.8915e+02	-4.2721	-103.615107	0.000557	5.573051	1.888201	0.000223
1903	1.8925e+02	-4.2336	-103.389028	0.000567	5.674379	1.922532	0.000227
1904	1.8935e+02	-4.1854	-103.154874	0.000588	5.877035	1.991193	0.000235
1905	1.8945e+02	-4.1437	-102.868237	0.000719	7.194302	2.437495	0.000288
1906	1.8955e+02	-4.1116	-102.674455	0.000486	4.863753	1.647884	0.000195
1907	1.8965e+02	-4.0683	-102.440301	0.000588	5.877035	1.991193	0.000235
1908	1.8975e+02	-4.0346	-102.173850	0.000669	6.687661	2.265841	0.000268
1909	1.8985e+02	-3.9897	-101.935659	0.000598	5.978363	2.025524	0.000239
1910	1.8995e+02	-3.9496	-101.717653	0.000547	5.471722	1.853870	0.000219
1911	1.9004e+02	-3.9143	-101.467351	0.000628	6.282348	2.128517	0.000252
1912	1.9014e+02	-3.8662	-101.249346	0.000547	5.471722	1.853870	0.000219
1913	1.9024e+02	-3.8293	-101.003080	0.000618	6.181020	2.094186	0.000248
1914	1.9034e+02	-3.7860	-100.781038	0.000557	5.573051	1.888201	0.000223
1915	1.9044e+02	-3.7459	-100.510550	0.000679	6.788989	2.300172	0.000272
1916	1.9054e+02	-3.7058	-100.300619	0.000527	5.269066	1.785208	0.000211
1917	1.9064e+02	-3.6753	-100.058391	0.000608	6.079692	2.059855	0.000243
1918	1.9074e+02	-3.6272	-99.787903	0.000679	6.788989	2.300172	0.000272
1919	1.9084e+02	-3.5903	-99.561823	0.000567	5.674379	1.922532	0.000227
1920	1.9094e+02	-3.5534	-99.355929	0.000517	5.167738	1.750877	0.000207
1921	1.9104e+02	-3.5069	-99.125812	0.000578	5.775707	1.956863	0.000231
1922	1.9114e+02	-3.4780	-98.851287	0.000689	6.890317	2.334503	0.000276
1923	1.9124e+02	-3.4331	-98.568688	0.000709	7.092974	2.403165	0.000284
1924	1.9134e+02	-3.3881	-98.350682	0.000547	5.471722	1.853870	0.000219
1925	1.9144e+02	-3.3480	-98.092306	0.000649	6.485004	2.197179	0.000260
1926	1.9154e+02	-3.3143	-97.914672	0.000446	4.458441	1.510561	0.000179
1927	1.9164e+02	-3.2662	-97.636109	0.000699	6.991645	2.368834	0.000280
1928	1.9174e+02	-3.2325	-97.381770	0.000638	6.383676	2.162848	0.000256
1929	1.9184e+02	-3.1988	-97.143579	0.000598	5.978363	2.025524	0.000239
1930	1.9194e+02	-3.1619	-96.852905	0.000730	7.295630	2.471826	0.000292
1931	1.9203e+02	-3.1202	-96.659122	0.000486	4.863753	1.647884	0.000195
1932	1.9213e+02	-3.0737	-96.424969	0.000588	5.877035	1.991193	0.000235
1933	1.9223e+02	-3.0432	-96.134295	0.000730	7.295630	2.471826	0.000292
1934	1.9233e+02	-2.9903	-95.916289	0.000547	5.471722	1.853870	0.000219
1935	1.9243e+02	-2.9502	-95.686173	0.000578	5.775707	1.956863	0.000231
1936	1.9253e+02	-2.9149	-95.415685	0.000679	6.788989	2.300172	0.000272
1937	1.9263e+02	-2.8620	-95.145197	0.000679	6.788989	2.300172	0.000272
1938	1.9273e+02	-2.8363	-94.919117	0.000567	5.674379	1.922532	0.000227
1939	1.9283e+02	-2.7882	-94.668814	0.000628	6.282348	2.128517	0.000252
1940	1.9293e+02	-2.7593	-94.414475	0.000638	6.383676	2.162848	0.000256
1941	1.9303e+02	-2.7192	-94.156098	0.000649	6.485004	2.197179	0.000260
1942	1.9313e+02	-2.6791	-93.897722	0.000649	6.485004	2.197179	0.000260
1943	1.9323e+02	-2.6325	-93.659531	0.000598	5.978363	2.025524	0.000239
1944	1.9333e+02	-2.5924	-93.457674	0.000507	5.066410	1.716546	0.000203
1945	1.9343e+02	-2.5555	-93.146814	0.000780	7.802271	2.643481	0.000312
1946	1.9353e+02	-2.5235	-92.924772	0.000557	5.573051	1.888201	0.000223
1947	1.9363e+02	-2.4705	-92.638135	0.000719	7.194302	2.437495	0.000288
1948	1.9373e+02	-2.4368	-92.440316	0.000497	4.965082	1.682215	0.000199
1949	1.9383e+02	-2.3983	-92.185976	0.000638	6.383676	2.162848	0.000256
1950	1.9393e+02	-2.3518	-91.879154	0.000770	7.700943	2.609150	0.000308
1951	1.9403e+02	-2.3197	-91.632888	0.000618	6.181020	2.094186	0.000248
1952	1.9412e+02	-2.2748	-91.410846	0.000557	5.573051	1.888201	0.000223
1953	1.9422e+02	-2.2443	-91.180729	0.000578	5.775707	1.956863	0.000231
1954	1.9432e+02	-2.2058	-90.918315	0.000659	6.586333	2.231510	0.000264
1955	1.9442e+02	-2.1609	-90.668013	0.000628	6.282348	2.128517	0.000252
1956	1.9452e+02	-2.1208	-90.401562	0.000669	6.687661	2.265841	0.000268
1957	1.9462e+02	-2.0791	-90.167408	0.000588	5.877035	1.991193	0.000235
1958	1.9472e+02	-2.0374	-89.929217	0.000598	5.978363	2.025524	0.000239
1959	1.9482e+02	-2.0005	-89.622395	0.000770	7.700943	2.609150	0.000308
1960	1.9492e+02	-1.9620	-89.364018	0.000649	6.485004	2.197179	0.000260
1961	1.9502e+02	-1.9251	-89.182347	0.000456	4.559769	1.544891	0.000183
1962	1.9512e+02	-1.8834	-88.907822	0.000689	6.890317	2.334503	0.000276
1963	1.9522e+02	-1.8288	-88.653482	0.000638	6.383676	2.162848	0.000256
1964	1.9532e+02	-1.7999	-88.407217	0.000618	6.181020	2.094186	0.000248
1965	1.9542e+02	-1.7550	-88.076172	0.000831	8.308912	2.815136	0.000333
1966	1.9552e+02	-1.7117	-87.829907	0.000618	6.181020	2.094186	0.000248
1967	1.9562e+02	-1.6812	-87.595753	0.000588	5.877035	1.991193	0.000235
1968	1.9572e+02	-1.6315	-87.329302	0.000669	6.687661	2.265841	0.000268
1969	1.9582e+02	-1.5962	-87.078999	0.000628	6.282348	2.128517	0.000252
1970	1.9592e+02	-1.5609	-86.836771	0.000608	6.079692	2.059855	0.000243
1971	1.9601e+02	-1.5192	-86.525912	0.000780	7.802271	2.643481	0.000312
1972	1.9611e+02	-1.4759	-86.315981	0.000527	5.269066	1.785208	0.000211
1973	1.9621e+02	-1.4470	-85.988973	0.000821	8.207584	2.780805	0.000329
1974	1.9631e+02	-1.3957	-85.799227	0.000476	4.762425	1.613553	0.000191
1975	1.9641e+02	-1.3524	-85.488368	0.000780	7.802271	2.643481	0.000312
1976	1.9651e+02	-1.3235	-85.246140	0.000608	6.079692	2.059855	0.000243
1977	1.9661e+02	-1.2802	-84.999874	0.000618	6.181020	2.094186	0.000248
1978	1.9671e+02	-1.2337	-84.725349	0.000689	6.890317	2.334503	0.000276
1979	1.9681e+02	-1.1903	-84.495232	0.000578	5.775707	1.956863	0.000231
1980	1.9691e+02	-1.1550	-84.212633	0.000709	7.092974	2.403165	0.000284
1981	1.9701e+02	-1.1214	-83.930033	0.000709	7.092974	2.403165	0.000284
1982	1.9711e+02	-1.0813	-83.679731	0.000628	6.282348	2.128517	0.000252
1983	1.9721e+02	-1.0476	-83.376946	0.000760	7.599615	2.574819	0.000304
1984	1.9731e+02	-1.0042	-83.138755	0.000598	5.978363	2.025524	0.000239
1985	1.9741e+02	-0.9641	-82.904601	0.000588	5.877035	1.991193	0.000235
1986	1.9751e+02	-0.9305	-82.593741	0.000780	7.802271	2.643481	0.000312
1987	1.9761e+02	-0.8839	-82.323253	0.000679	6.788989	2.300172	0.000272
1988	1.9771e+02	-0.8422	-82.081025	0.000608	6.079692	2.059855	0.000243
1989	1.9781e+02	-0.8037	-81.818611	0.000659	6.586333	2.231510	0.000264
1990	1.9791e+02	-0.7604	-81.544086	0.000689	6.890317	2.334503	0.000276
1991	1.9800e+02	-0.7219	-81.269561	0.000689	6.890317	2.334503	0.000276
1992	1.9810e+02	-0.6834	-80.986961	0.000709	7.092974	2.403165	0.000284
1993	1.9820e+02	-0.6385	-80.744733	0.000608	6.079692	2.059855	0.000243
1994	1.9830e+02	-0.6096	-80.482320	0.000659	6.586333	2.231510	0.000264
1995	1.9840e+02	-0.5599	-80.227980	0.000638	6.383676	2.162848	0.000256
1996	1.9850e+02	-0.5262	-79.925195	0.000760	7.599615	2.574819	0.000304
1997	1.9860e+02	-0.4765	-79.678929	0.000618	6.181020	2.094186	0.000248
1998	1.9870e+02	-0.4364	-79.400367	0.000699	6.991645	2.368834	0.000280
1999	1.9880e+02	-0.4091	-79.162176	0.000598	5.978363	2.025524	0.000239
2000	1.9890e+02	-0.3626	-78.863428	0.000750	7.498286	2.540488	0.000300
2001	1.9900e+02	-0.3208	-78.617163	0.000618	6.181020	2.094186	0.000248
2002	1.9910e+02	-0.2872	-78.358786	0.000649	6.485004	2.197179	0.000260
2003	1.9920e+02	-0.2519	-78.072149	0.000719	7.194302	2.437495	0.000288
2004	1.9930e+02	-0.2021	-77.809736	0.000659	6.586333	2.231510	0.000264
2005	1.9940e+02	-0.1684	-77.510988	0.000750	7.498286	2.540488	0.000300
2006	1.9950e+02	-0.1235	-77.256648	0.000638	6.383676	2.162848	0.000256
2007	1.9960e+02	-0.0898	-77.042680	0.000537	5.370394	1.819539	0.000215
2008	1.9970e+02	-0.0449	-76.735858	0.000770	7.700943	2.609150	0.000308
2009	1.9980e+02	0.0032	-76.457295	0.000770	7.700943	2.609150	0.000280

Center data before PMax,+/-Pr and +/-Vc Calc.

PMax (uC/cm2):	1.62e+02
Pr (uC/cm2):	5.70e+01
-Pr (uC/cm2):	-7.65e+01
PLoss (uC/cm2):	-1.24e+02
-Vc:	-8.71e+00
C (Max-Eff) (nF):	8.11e-01
K (Eff):	2.75e+03
Vert. (+/-Pr) Shift (uC/cm2):	-9.74e+00
Offset (uC/cm2):	-4.72e+01

A (Loop Area - uC/cm2·Volts):	8.89e-01



Hysteresis Version: 5.48.1 - Radiant Technologies, Inc., 1999 - 9/12/24

