»»»»»»»»»»»»»»»»»»»»»»»»»»»»»»»»»»»» Hysteresis ««««««««««««««««««««««««««««««««««««
»»»  Executed Version:	5.48.1
»»»  Vision Version:	5.48.4 (R)
»»»  Vision Compiled:	9/18/24
»»»  Driver Version:	5.47.0
»»»  Windows Version:	Windows 8 or 8.1
»»»  Processor Information:	x86 (AMD or Intel) - 32 Processors
»»»  Tester Name:	PMF21124-494 (100V)
»»»  Tester S/N:	PMF21124-494
»»»  Internal Amp Type:	100V RevK 270k
»»»  Internal Amp S/N:	iAB2-596/K     
»»»  Execution Count:	1
»»»»»»»»»»»»»»»»»»»»»»»»»»»»»»»»»»»»»»»»»»««««««««««««««««««««««««««««««««««««««««««

Stored:	6/5/2025 - 17:11:52
Configured:	06/05/25 02:51:50 PM
Executed:	06/05/25 05:11:18 PM

»»»»»»»»»»»»»»»»»»»»»»»»»»»»»»»»»»» Sample Info ««««««««««««««««««««««««««««««««««««
Sample Name:	
Lot Name:	
Wafer Name:	
Die Row/Column:	0/0
Capacitor Number:	0
Sample Area (cm2):	1.00e-04
Sample Thickness (microns):	3.00e-01

Amplifier:	Internal

»»»»»»»»»»»»»»»»»»»»»»»»»»»»»»»»»»» Tester Info «««««««««««««««««««««««««««««««««««
Tester Name:	PMF21124-494 (100V)
Tester Serial Number:	PMF21124-494
Return Signal Amp. Level:	0.19 [Index: 3]

»»»»»»»»»»»»»»»»»»»»»»»»»»»»»»»» Hysteresis Info ««««««««««««««««««««««««««««««««««
Task Name:	Hyst-353
Volts:	20.00
Field:	666.67 (kV/cm)
DCBias:	0.00
DCField:	0.00 (kV/cm)
Hysteresis Period (ms):	2.00e+02
Preset:	Enabled
Preset Delay (ms):	1.00e+03
Profile:	Standard Bipolar

»»»»»»»»»»»»»»»»»»»»»»»»»»»»»»»»»»»»»» Data «««««««««««««««««««««««««««««««««««««««
Points:	2009

Valid Data

Point	Time (ms)	Drive Voltage	Measured Polarization (uC/cm2)	Capacitance (uF)	Normalized Capacitance (uF/cm2)	Dielectric Constant	Instantaneous Current (mA)
   1	0.0000e+00	0.0000	156.903280	0.000416	4.155039	1.407765	0.000166
   2	9.9500e-02	0.0257	157.068803	0.000416	4.155039	1.407765	0.000166
   3	1.9900e-01	0.0738	157.302957	0.000588	5.877860	1.991473	0.000235
   4	2.9850e-01	0.1107	157.585556	0.000709	7.093969	2.403502	0.000284
   5	3.9800e-01	0.1476	157.811636	0.000568	5.675175	1.922802	0.000227
   6	4.9750e-01	0.1877	158.057901	0.000618	6.181888	2.094480	0.000248
   7	5.9700e-01	0.2342	158.328389	0.000679	6.789942	2.300495	0.000272
   8	6.9650e-01	0.2791	158.598877	0.000679	6.789942	2.300495	0.000272
   9	7.9600e-01	0.3128	158.885514	0.000720	7.195312	2.437838	0.000288
  10	8.9550e-01	0.3449	159.119668	0.000588	5.877860	1.991473	0.000235
  11	9.9500e-01	0.3882	159.390156	0.000679	6.789942	2.300495	0.000272
  12	1.0945e+00	0.4315	159.684867	0.000740	7.397997	2.506509	0.000296
  13	1.1940e+00	0.4652	159.931132	0.000618	6.181888	2.094480	0.000248
  14	1.2935e+00	0.5085	160.233917	0.000760	7.600681	2.575181	0.000304
  15	1.3930e+00	0.5470	160.464034	0.000578	5.776518	1.957137	0.000231
  16	1.4925e+00	0.5855	160.770856	0.000770	7.702024	2.609516	0.000308
  17	1.5920e+00	0.6305	161.017122	0.000618	6.181888	2.094480	0.000248
  18	1.6915e+00	0.6674	161.336055	0.000801	8.006051	2.712524	0.000321
  19	1.7910e+00	0.7043	161.614618	0.000699	6.992627	2.369166	0.000280
  20	1.8905e+00	0.7540	161.901255	0.000720	7.195312	2.437838	0.000288
  21	1.9900e+00	0.7813	162.179817	0.000699	6.992627	2.369166	0.000280
  22	2.0895e+00	0.8278	162.466454	0.000720	7.195312	2.437838	0.000288
  23	2.1890e+00	0.8663	162.781350	0.000790	7.904709	2.678188	0.000316
  24	2.2885e+00	0.9000	163.047801	0.000669	6.688600	2.266159	0.000268
  25	2.3880e+00	0.9545	163.334438	0.000720	7.195312	2.437838	0.000288
  26	2.4875e+00	0.9914	163.637223	0.000760	7.600681	2.575181	0.000304
  27	2.5870e+00	1.0267	163.927897	0.000730	7.296654	2.472173	0.000292
  28	2.6865e+00	1.0652	164.218570	0.000730	7.296654	2.472173	0.000292
  29	2.7860e+00	1.0973	164.509244	0.000730	7.296654	2.472173	0.000292
  30	2.8855e+00	1.1502	164.856438	0.000872	8.715448	2.952874	0.000349
  31	2.9850e+00	1.1887	165.098666	0.000608	6.080545	2.060144	0.000243
  32	3.0845e+00	1.2192	165.405488	0.000770	7.702024	2.609516	0.000308
  33	3.1840e+00	1.2657	165.700199	0.000740	7.397997	2.506509	0.000296
  34	3.2835e+00	1.3010	166.047393	0.000872	8.715448	2.952874	0.000349
  35	3.3830e+00	1.3460	166.342104	0.000740	7.397997	2.506509	0.000296
  36	3.4825e+00	1.3828	166.596443	0.000638	6.384572	2.163152	0.000256
  37	3.5820e+00	1.4278	166.911340	0.000790	7.904709	2.678188	0.000316
  38	3.6815e+00	1.4631	167.193939	0.000709	7.093969	2.403502	0.000284
  39	3.7810e+00	1.5128	167.508836	0.000790	7.904709	2.678188	0.000316
  40	3.8805e+00	1.5401	167.843918	0.000841	8.411421	2.849867	0.000337
  41	3.9800e+00	1.5866	168.078072	0.000588	5.877860	1.991473	0.000235
  42	4.0795e+00	1.6155	168.425266	0.000872	8.715448	2.952874	0.000349
  43	4.1790e+00	1.6652	168.744200	0.000801	8.006051	2.712524	0.000321
  44	4.2785e+00	1.7085	169.038910	0.000740	7.397997	2.506509	0.000296
  45	4.3780e+00	1.7534	169.309399	0.000679	6.789942	2.300495	0.000272
  46	4.4775e+00	1.7791	169.648518	0.000851	8.512763	2.884202	0.000341
  47	4.5770e+00	1.8208	170.019934	0.000932	9.323503	3.158888	0.000373
  48	4.6765e+00	1.8786	170.286385	0.000669	6.688600	2.266159	0.000268
  49	4.7760e+00	1.9010	170.593208	0.000770	7.702024	2.609516	0.000308
  50	4.8755e+00	1.9507	170.887919	0.000740	7.397997	2.506509	0.000296
  51	4.9750e+00	1.9796	171.223001	0.000841	8.411421	2.849867	0.000337
  52	5.0745e+00	2.0245	171.501563	0.000699	6.992627	2.369166	0.000280
  53	5.1740e+00	2.0550	171.796274	0.000740	7.397997	2.506509	0.000296
  54	5.2735e+00	2.1015	172.119245	0.000811	8.107394	2.746859	0.000325
  55	5.3730e+00	2.1352	172.430105	0.000780	7.803366	2.643852	0.000312
  56	5.4725e+00	2.1850	172.769224	0.000851	8.512763	2.884202	0.000341
  57	5.5720e+00	2.2170	173.067972	0.000750	7.499339	2.540845	0.000300
  58	5.6715e+00	2.2668	173.386906	0.000801	8.006051	2.712524	0.000321
  59	5.7710e+00	2.3037	173.734099	0.000872	8.715448	2.952874	0.000349
  60	5.8705e+00	2.3342	174.004587	0.000679	6.789942	2.300495	0.000272
  61	5.9700e+00	2.3823	174.331595	0.000821	8.208736	2.781195	0.000329
  62	6.0695e+00	2.4288	174.638418	0.000770	7.702024	2.609516	0.000308
  63	6.1690e+00	2.4737	174.937166	0.000750	7.499339	2.540845	0.000300
  64	6.2685e+00	2.5042	175.256100	0.000801	8.006051	2.712524	0.000321
  65	6.3680e+00	2.5475	175.570996	0.000790	7.904709	2.678188	0.000316
  66	6.4675e+00	2.5892	175.893967	0.000811	8.107394	2.746859	0.000325
  67	6.5670e+00	2.6229	176.220975	0.000821	8.208736	2.781195	0.000329
  68	6.6665e+00	2.6550	176.515686	0.000740	7.397997	2.506509	0.000296
  69	6.7660e+00	2.7047	176.830582	0.000790	7.904709	2.678188	0.000316
  70	6.8655e+00	2.7481	177.165665	0.000841	8.411421	2.849867	0.000337
  71	6.9650e+00	2.7866	177.476524	0.000780	7.803366	2.643852	0.000312
  72	7.0645e+00	2.8122	177.795458	0.000801	8.006051	2.712524	0.000321
  73	7.1640e+00	2.8587	178.122466	0.000821	8.208736	2.781195	0.000329
  74	7.2635e+00	2.9053	178.421214	0.000750	7.499339	2.540845	0.000300
  75	7.3630e+00	2.9438	178.760333	0.000851	8.512763	2.884202	0.000341
  76	7.4625e+00	2.9807	179.079267	0.000801	8.006051	2.712524	0.000321
  77	7.5620e+00	3.0079	179.361867	0.000709	7.093969	2.403502	0.000284
  78	7.6615e+00	3.0609	179.692912	0.000831	8.310078	2.815531	0.000333
  79	7.7610e+00	3.1026	180.003771	0.000780	7.803366	2.643852	0.000312
  80	7.8605e+00	3.1347	180.342891	0.000851	8.512763	2.884202	0.000341
  81	7.9600e+00	3.1764	180.657787	0.000790	7.904709	2.678188	0.000316
  82	8.0595e+00	3.2245	181.000944	0.000861	8.614106	2.918538	0.000345
  83	8.1590e+00	3.2582	181.279506	0.000699	6.992627	2.369166	0.000280
  84	8.2585e+00	3.3047	181.586328	0.000770	7.702024	2.609516	0.000308
  85	8.3580e+00	3.3304	181.945633	0.000902	9.019475	3.055881	0.000361
  86	8.4575e+00	3.3833	182.232270	0.000720	7.195312	2.437838	0.000288
  87	8.5570e+00	3.4282	182.567352	0.000841	8.411421	2.849867	0.000337
  88	8.6565e+00	3.4635	182.898397	0.000831	8.310078	2.815531	0.000333
  89	8.7560e+00	3.5052	183.233480	0.000841	8.411421	2.849867	0.000337
  90	8.8555e+00	3.5357	183.532228	0.000750	7.499339	2.540845	0.000300
  91	8.9550e+00	3.5806	183.859236	0.000821	8.208736	2.781195	0.000329
  92	9.0545e+00	3.6127	184.198355	0.000851	8.512763	2.884202	0.000341
  93	9.1540e+00	3.6560	184.489029	0.000730	7.296654	2.472173	0.000292
  94	9.2535e+00	3.6978	184.795851	0.000770	7.702024	2.609516	0.000308
  95	9.3530e+00	3.7395	185.147082	0.000882	8.816790	2.987209	0.000353
  96	9.4525e+00	3.7828	185.441793	0.000740	7.397997	2.506509	0.000296
  97	9.5520e+00	3.8197	185.748615	0.000770	7.702024	2.609516	0.000308
  98	9.6515e+00	3.8598	186.063512	0.000790	7.904709	2.678188	0.000316
  99	9.7510e+00	3.8903	186.382446	0.000801	8.006051	2.712524	0.000321
 100	9.8505e+00	3.9400	186.721565	0.000851	8.512763	2.884202	0.000341
 101	9.9500e+00	3.9785	187.028387	0.000770	7.702024	2.609516	0.000308
 102	1.0050e+01	4.0202	187.323098	0.000740	7.397997	2.506509	0.000296
 103	1.0149e+01	4.0635	187.678366	0.000892	8.918133	3.021545	0.000357
 104	1.0248e+01	4.1004	187.956929	0.000699	6.992627	2.369166	0.000280
 105	1.0348e+01	4.1373	188.324308	0.000922	9.222160	3.124552	0.000369
 106	1.0447e+01	4.1790	188.594796	0.000679	6.789942	2.300495	0.000272
 107	1.0547e+01	4.2207	188.917767	0.000811	8.107394	2.746859	0.000325
 108	1.0646e+01	4.2496	189.240738	0.000811	8.107394	2.746859	0.000325
 109	1.0746e+01	4.2913	189.478929	0.000598	5.979203	2.025809	0.000239
 110	1.0845e+01	4.3394	189.834197	0.000892	8.918133	3.021545	0.000357
 111	1.0945e+01	4.3763	190.189465	0.000892	8.918133	3.021545	0.000357
 112	1.1044e+01	4.4229	190.463990	0.000689	6.891285	2.334830	0.000276
 113	1.1144e+01	4.4598	190.815221	0.000882	8.816790	2.987209	0.000353
 114	1.1243e+01	4.4967	191.109932	0.000740	7.397997	2.506509	0.000296
 115	1.1343e+01	4.5400	191.420791	0.000780	7.803366	2.643852	0.000312
 116	1.1443e+01	4.5737	191.691279	0.000679	6.789942	2.300495	0.000272
 117	1.1542e+01	4.6122	192.050584	0.000902	9.019475	3.055881	0.000361
 118	1.1642e+01	4.6571	192.361444	0.000780	7.803366	2.643852	0.000312
 119	1.1741e+01	4.7004	192.619820	0.000649	6.485915	2.197487	0.000260
 120	1.1841e+01	4.7405	192.926643	0.000770	7.702024	2.609516	0.000308
 121	1.1940e+01	4.7726	193.249614	0.000811	8.107394	2.746859	0.000325
 122	1.2040e+01	4.8159	193.568547	0.000801	8.006051	2.712524	0.000321
 123	1.2139e+01	4.8496	193.899592	0.000831	8.310078	2.815531	0.000333
 124	1.2239e+01	4.8961	194.182192	0.000709	7.093969	2.403502	0.000284
 125	1.2338e+01	4.9362	194.505163	0.000811	8.107394	2.746859	0.000325
 126	1.2438e+01	4.9731	194.803911	0.000750	7.499339	2.540845	0.000300
 127	1.2537e+01	5.0116	195.094585	0.000730	7.296654	2.472173	0.000292
 128	1.2636e+01	5.0517	195.401407	0.000770	7.702024	2.609516	0.000308
 129	1.2736e+01	5.0838	195.716303	0.000790	7.904709	2.678188	0.000316
 130	1.2835e+01	5.1368	196.031200	0.000790	7.904709	2.678188	0.000316
 131	1.2935e+01	5.1704	196.354171	0.000811	8.107394	2.746859	0.000325
 132	1.3034e+01	5.2089	196.665030	0.000780	7.803366	2.643852	0.000312
 133	1.3134e+01	5.2507	196.959741	0.000740	7.397997	2.506509	0.000296
 134	1.3233e+01	5.2924	197.258489	0.000750	7.499339	2.540845	0.000300
 135	1.3333e+01	5.3357	197.581460	0.000811	8.107394	2.746859	0.000325
 136	1.3432e+01	5.3694	197.892320	0.000780	7.803366	2.643852	0.000312
 137	1.3532e+01	5.4095	198.154733	0.000659	6.587257	2.231823	0.000264
 138	1.3632e+01	5.4448	198.497890	0.000861	8.614106	2.918538	0.000345
 139	1.3731e+01	5.4865	198.780489	0.000709	7.093969	2.403502	0.000284
 140	1.3831e+01	5.5394	199.075200	0.000740	7.397997	2.506509	0.000296
 141	1.3930e+01	5.5699	199.402208	0.000821	8.208736	2.781195	0.000329
 142	1.4030e+01	5.6164	199.664622	0.000659	6.587257	2.231823	0.000264
 143	1.4129e+01	5.6533	199.995667	0.000831	8.310078	2.815531	0.000333
 144	1.4229e+01	5.6966	200.286341	0.000730	7.296654	2.472173	0.000292
 145	1.4328e+01	5.7335	200.577015	0.000730	7.296654	2.472173	0.000292
 146	1.4428e+01	5.7640	200.871726	0.000740	7.397997	2.506509	0.000296
 147	1.4527e+01	5.8153	201.198734	0.000821	8.208736	2.781195	0.000329
 148	1.4627e+01	5.8506	201.505556	0.000770	7.702024	2.609516	0.000308
 149	1.4726e+01	5.8907	201.808341	0.000760	7.600681	2.575181	0.000304
 150	1.4825e+01	5.9308	202.086904	0.000699	6.992627	2.369166	0.000280
 151	1.4925e+01	5.9726	202.357392	0.000679	6.789942	2.300495	0.000272
 152	1.5024e+01	6.0127	202.692474	0.000841	8.411421	2.849867	0.000337
 153	1.5124e+01	6.0560	202.975074	0.000709	7.093969	2.403502	0.000284
 154	1.5223e+01	6.0961	203.298044	0.000811	8.107394	2.746859	0.000325
 155	1.5323e+01	6.1282	203.604867	0.000770	7.702024	2.609516	0.000308
 156	1.5422e+01	6.1715	203.891503	0.000720	7.195312	2.437838	0.000288
 157	1.5522e+01	6.2132	204.202363	0.000780	7.803366	2.643852	0.000312
 158	1.5621e+01	6.2485	204.472851	0.000679	6.789942	2.300495	0.000272
 159	1.5721e+01	6.2886	204.779673	0.000770	7.702024	2.609516	0.000308
 160	1.5820e+01	6.3223	205.082458	0.000760	7.600681	2.575181	0.000304
 161	1.5920e+01	6.3768	205.385244	0.000760	7.600681	2.575181	0.000304
 162	1.6020e+01	6.4009	205.708214	0.000811	8.107394	2.746859	0.000325
 163	1.6119e+01	6.4586	205.938331	0.000578	5.776518	1.957137	0.000231
 164	1.6218e+01	6.4811	206.241116	0.000760	7.600681	2.575181	0.000304
 165	1.6318e+01	6.5212	206.511604	0.000679	6.789942	2.300495	0.000272
 166	1.6418e+01	6.5677	206.854761	0.000861	8.614106	2.918538	0.000345
 167	1.6517e+01	6.5998	207.092952	0.000598	5.979203	2.025809	0.000239
 168	1.6616e+01	6.6495	207.415923	0.000811	8.107394	2.746859	0.000325
 169	1.6716e+01	6.6768	207.702559	0.000720	7.195312	2.437838	0.000288
 170	1.6816e+01	6.7233	207.997270	0.000740	7.397997	2.506509	0.000296
 171	1.6915e+01	6.7650	208.304093	0.000770	7.702024	2.609516	0.000308
 172	1.7015e+01	6.8003	208.574581	0.000679	6.789942	2.300495	0.000272
 173	1.7114e+01	6.8469	208.885440	0.000780	7.803366	2.643852	0.000312
 174	1.7213e+01	6.8870	209.172077	0.000720	7.195312	2.437838	0.000288
 175	1.7313e+01	6.9175	209.418342	0.000618	6.181888	2.094480	0.000248
 176	1.7413e+01	6.9768	209.713053	0.000740	7.397997	2.506509	0.000296
 177	1.7512e+01	7.0057	210.023912	0.000780	7.803366	2.643852	0.000312
 178	1.7611e+01	7.0490	210.322661	0.000750	7.499339	2.540845	0.000300
 179	1.7711e+01	7.0907	210.568926	0.000618	6.181888	2.094480	0.000248
 180	1.7811e+01	7.1228	210.887860	0.000801	8.006051	2.712524	0.000321
 181	1.7910e+01	7.1597	211.170459	0.000709	7.093969	2.403502	0.000284
 182	1.8009e+01	7.1982	211.469207	0.000750	7.499339	2.540845	0.000300
 183	1.8109e+01	7.2415	211.731621	0.000659	6.587257	2.231823	0.000264
 184	1.8209e+01	7.2864	212.006146	0.000689	6.891285	2.334830	0.000276
 185	1.8308e+01	7.3297	212.321043	0.000790	7.904709	2.678188	0.000316
 186	1.8407e+01	7.3634	212.619791	0.000750	7.499339	2.540845	0.000300
 187	1.8507e+01	7.4051	212.922576	0.000760	7.600681	2.575181	0.000304
 188	1.8607e+01	7.4404	213.197101	0.000689	6.891285	2.334830	0.000276
 189	1.8706e+01	7.4918	213.479701	0.000709	7.093969	2.403502	0.000284
 190	1.8805e+01	7.5271	213.750189	0.000679	6.789942	2.300495	0.000272
 191	1.8905e+01	7.5656	214.048937	0.000750	7.499339	2.540845	0.000300
 192	1.9005e+01	7.6009	214.371908	0.000811	8.107394	2.746859	0.000325
 193	1.9104e+01	7.6458	214.622210	0.000628	6.283230	2.128816	0.000252
 194	1.9203e+01	7.6891	214.892698	0.000679	6.789942	2.300495	0.000272
 195	1.9303e+01	7.7212	215.199521	0.000770	7.702024	2.609516	0.000308
 196	1.9402e+01	7.7597	215.478083	0.000699	6.992627	2.369166	0.000280
 197	1.9502e+01	7.8046	215.784905	0.000770	7.702024	2.609516	0.000308
 198	1.9602e+01	7.8479	216.067505	0.000709	7.093969	2.403502	0.000284
 199	1.9701e+01	7.8832	216.362216	0.000740	7.397997	2.506509	0.000296
 200	1.9800e+01	7.9217	216.644815	0.000709	7.093969	2.403502	0.000284
 201	1.9900e+01	7.9650	216.947600	0.000760	7.600681	2.575181	0.000304
 202	2.0000e+01	7.9987	217.222126	0.000689	6.891285	2.334830	0.000276
 203	2.0099e+01	8.0484	217.504725	0.000709	7.093969	2.403502	0.000284
 204	2.0198e+01	8.0853	217.755027	0.000628	6.283230	2.128816	0.000252
 205	2.0298e+01	8.1158	218.057813	0.000760	7.600681	2.575181	0.000304
 206	2.0398e+01	8.1623	218.356561	0.000750	7.499339	2.540845	0.000300
 207	2.0497e+01	8.2024	218.635123	0.000699	6.992627	2.369166	0.000280
 208	2.0596e+01	8.2393	218.901574	0.000669	6.688600	2.266159	0.000268
 209	2.0696e+01	8.2810	219.192248	0.000730	7.296654	2.472173	0.000292
 210	2.0796e+01	8.3196	219.482922	0.000730	7.296654	2.472173	0.000292
 211	2.0895e+01	8.3581	219.749372	0.000669	6.688600	2.266159	0.000268
 212	2.0994e+01	8.4046	220.056195	0.000770	7.702024	2.609516	0.000308
 213	2.1094e+01	8.4559	220.350906	0.000740	7.397997	2.506509	0.000296
 214	2.1194e+01	8.4816	220.633505	0.000709	7.093969	2.403502	0.000284
 215	2.1293e+01	8.5153	220.891882	0.000649	6.485915	2.197487	0.000260
 216	2.1392e+01	8.5666	221.239076	0.000872	8.715448	2.952874	0.000349
 217	2.1492e+01	8.5955	221.485341	0.000618	6.181888	2.094480	0.000248
 218	2.1591e+01	8.6452	221.731606	0.000618	6.181888	2.094480	0.000248
 219	2.1691e+01	8.6709	222.030354	0.000750	7.499339	2.540845	0.000300
 220	2.1791e+01	8.7254	222.316991	0.000720	7.195312	2.437838	0.000288
 221	2.1890e+01	8.7575	222.607665	0.000730	7.296654	2.472173	0.000292
 222	2.1989e+01	8.7976	222.878153	0.000679	6.789942	2.300495	0.000272
 223	2.2089e+01	8.8377	223.148641	0.000679	6.789942	2.300495	0.000272
 224	2.2189e+01	8.8826	223.447389	0.000750	7.499339	2.540845	0.000300
 225	2.2288e+01	8.9179	223.738063	0.000730	7.296654	2.472173	0.000292
 226	2.2387e+01	8.9596	223.984328	0.000618	6.181888	2.094480	0.000248
 227	2.2487e+01	8.9997	224.283076	0.000750	7.499339	2.540845	0.000300
 228	2.2587e+01	9.0366	224.557601	0.000689	6.891285	2.334830	0.000276
 229	2.2686e+01	9.0816	224.836164	0.000699	6.992627	2.369166	0.000280
 230	2.2785e+01	9.1185	225.106652	0.000679	6.789942	2.300495	0.000272
 231	2.2885e+01	9.1521	225.381177	0.000689	6.891285	2.334830	0.000276
 232	2.2985e+01	9.2019	225.667813	0.000720	7.195312	2.437838	0.000288
 233	2.3084e+01	9.2404	225.970599	0.000760	7.600681	2.575181	0.000304
 234	2.3183e+01	9.2693	226.228975	0.000649	6.485915	2.197487	0.000260
 235	2.3283e+01	9.3158	226.515612	0.000720	7.195312	2.437838	0.000288
 236	2.3383e+01	9.3527	226.773989	0.000649	6.485915	2.197487	0.000260
 237	2.3482e+01	9.3912	227.052551	0.000699	6.992627	2.369166	0.000280
 238	2.3581e+01	9.4457	227.310928	0.000649	6.485915	2.197487	0.000260
 239	2.3681e+01	9.4778	227.609676	0.000750	7.499339	2.540845	0.000300
 240	2.3780e+01	9.5179	227.864015	0.000638	6.384572	2.163152	0.000256
 241	2.3880e+01	9.5548	228.142578	0.000699	6.992627	2.369166	0.000280
 242	2.3980e+01	9.5901	228.417103	0.000689	6.891285	2.334830	0.000276
 243	2.4079e+01	9.6446	228.683554	0.000669	6.688600	2.266159	0.000268
 244	2.4178e+01	9.6799	228.986339	0.000760	7.600681	2.575181	0.000304
 245	2.4278e+01	9.7200	229.244716	0.000649	6.485915	2.197487	0.000260
 246	2.4378e+01	9.7618	229.495018	0.000628	6.283230	2.128816	0.000252
 247	2.4477e+01	9.7954	229.809915	0.000790	7.904709	2.678188	0.000316
 248	2.4576e+01	9.8356	230.064254	0.000638	6.384572	2.163152	0.000256
 249	2.4676e+01	9.8789	230.346854	0.000709	7.093969	2.403502	0.000284
 250	2.4776e+01	9.9093	230.597156	0.000628	6.283230	2.128816	0.000252
 251	2.4875e+01	9.9591	230.912053	0.000790	7.904709	2.678188	0.000316
 252	2.4974e+01	9.9928	231.150244	0.000598	5.979203	2.025809	0.000239
 253	2.5074e+01	10.0345	231.461103	0.000780	7.803366	2.643852	0.000312
 254	2.5174e+01	10.0810	231.679109	0.000547	5.472491	1.854130	0.000219
 255	2.5273e+01	10.1163	231.965745	0.000720	7.195312	2.437838	0.000288
 256	2.5372e+01	10.1564	232.252382	0.000720	7.195312	2.437838	0.000288
 257	2.5472e+01	10.1965	232.518833	0.000669	6.688600	2.266159	0.000268
 258	2.5572e+01	10.2334	232.773172	0.000638	6.384572	2.163152	0.000256
 259	2.5671e+01	10.2623	233.075958	0.000760	7.600681	2.575181	0.000304
 260	2.5770e+01	10.3200	233.330297	0.000638	6.384572	2.163152	0.000256
 261	2.5870e+01	10.3505	233.592711	0.000659	6.587257	2.231823	0.000264
 262	2.5970e+01	10.3986	233.871273	0.000699	6.992627	2.369166	0.000280
 263	2.6069e+01	10.4323	234.129650	0.000649	6.485915	2.197487	0.000260
 264	2.6169e+01	10.4724	234.392064	0.000659	6.587257	2.231823	0.000264
 265	2.6268e+01	10.5141	234.698886	0.000770	7.702024	2.609516	0.000308
 266	2.6367e+01	10.5591	234.941114	0.000608	6.080545	2.060144	0.000243
 267	2.6467e+01	10.5895	235.215640	0.000689	6.891285	2.334830	0.000276
 268	2.6567e+01	10.6264	235.478053	0.000659	6.587257	2.231823	0.000264
 269	2.6666e+01	10.6665	235.744504	0.000669	6.688600	2.266159	0.000268
 270	2.6765e+01	10.7147	235.982695	0.000598	5.979203	2.025809	0.000239
 271	2.6865e+01	10.7628	236.249146	0.000669	6.688600	2.266159	0.000268
 272	2.6965e+01	10.7981	236.491374	0.000608	6.080545	2.060144	0.000243
 273	2.7064e+01	10.8286	236.737640	0.000618	6.181888	2.094480	0.000248
 274	2.7163e+01	10.8767	237.048499	0.000780	7.803366	2.643852	0.000312
 275	2.7263e+01	10.9136	237.302839	0.000638	6.384572	2.163152	0.000256
 276	2.7363e+01	10.9553	237.557178	0.000638	6.384572	2.163152	0.000256
 277	2.7462e+01	10.9890	237.811518	0.000638	6.384572	2.163152	0.000256
 278	2.7561e+01	11.0275	238.102192	0.000730	7.296654	2.472173	0.000292
 279	2.7661e+01	11.0708	238.344420	0.000608	6.080545	2.060144	0.000243
 280	2.7761e+01	11.1061	238.594722	0.000628	6.283230	2.128816	0.000252
 281	2.7860e+01	11.1478	238.836950	0.000608	6.080545	2.060144	0.000243
 282	2.7959e+01	11.1975	239.111475	0.000689	6.891285	2.334830	0.000276
 283	2.8059e+01	11.2264	239.361778	0.000628	6.283230	2.128816	0.000252
 284	2.8159e+01	11.2745	239.620155	0.000649	6.485915	2.197487	0.000260
 285	2.8258e+01	11.3002	239.870457	0.000628	6.283230	2.128816	0.000252
 286	2.8358e+01	11.3516	240.132871	0.000659	6.587257	2.231823	0.000264
 287	2.8457e+01	11.3949	240.375099	0.000608	6.080545	2.060144	0.000243
 288	2.8556e+01	11.4302	240.629439	0.000638	6.384572	2.163152	0.000256
 289	2.8656e+01	11.4703	240.924149	0.000740	7.397997	2.506509	0.000296
 290	2.8756e+01	11.5007	241.166378	0.000608	6.080545	2.060144	0.000243
 291	2.8855e+01	11.5473	241.424754	0.000649	6.485915	2.197487	0.000260
 292	2.8954e+01	11.5810	241.614500	0.000476	4.763094	1.613780	0.000191
 293	2.9054e+01	11.6323	241.901136	0.000720	7.195312	2.437838	0.000288
 294	2.9154e+01	11.6708	242.159513	0.000649	6.485915	2.197487	0.000260
 295	2.9253e+01	11.7093	242.413853	0.000638	6.384572	2.163152	0.000256
 296	2.9352e+01	11.7494	242.643969	0.000578	5.776518	1.957137	0.000231
 297	2.9452e+01	11.7911	242.894272	0.000628	6.283230	2.128816	0.000252
 298	2.9552e+01	11.8216	243.164760	0.000679	6.789942	2.300495	0.000272
 299	2.9651e+01	11.8649	243.419099	0.000638	6.384572	2.163152	0.000256
 300	2.9750e+01	11.9114	243.637105	0.000547	5.472491	1.854130	0.000219
 301	2.9850e+01	11.9451	243.903556	0.000669	6.688600	2.266159	0.000268
 302	2.9950e+01	11.9884	244.137709	0.000588	5.877860	1.991473	0.000235
 303	3.0049e+01	12.0382	244.388012	0.000628	6.283230	2.128816	0.000252
 304	3.0148e+01	12.0654	244.626203	0.000598	5.979203	2.025809	0.000239
 305	3.0248e+01	12.1039	244.900728	0.000689	6.891285	2.334830	0.000276
 306	3.0348e+01	12.1424	245.062214	0.000405	4.053697	1.373430	0.000162
 307	3.0447e+01	12.1890	245.377110	0.000790	7.904709	2.678188	0.000316
 308	3.0547e+01	12.2243	245.607227	0.000578	5.776518	1.957137	0.000231
 309	3.0646e+01	12.2628	245.861566	0.000638	6.384572	2.163152	0.000256
 310	3.0745e+01	12.3045	246.087646	0.000568	5.675175	1.922802	0.000227
 311	3.0845e+01	12.3478	246.366208	0.000699	6.992627	2.369166	0.000280
 312	3.0945e+01	12.3847	246.592288	0.000568	5.675175	1.922802	0.000227
 313	3.1044e+01	12.4296	246.830479	0.000598	5.979203	2.025809	0.000239
 314	3.1143e+01	12.4649	247.056559	0.000568	5.675175	1.922802	0.000227
 315	3.1243e+01	12.5114	247.331084	0.000689	6.891285	2.334830	0.000276
 316	3.1343e+01	12.5531	247.569275	0.000598	5.979203	2.025809	0.000239
 317	3.1442e+01	12.5884	247.815540	0.000618	6.181888	2.094480	0.000248
 318	3.1541e+01	12.6221	248.045657	0.000578	5.776518	1.957137	0.000231
 319	3.1641e+01	12.6702	248.299996	0.000638	6.384572	2.163152	0.000256
 320	3.1741e+01	12.7135	248.538187	0.000598	5.979203	2.025809	0.000239
 321	3.1840e+01	12.7504	248.764267	0.000568	5.675175	1.922802	0.000227
 322	3.1939e+01	12.7825	249.030718	0.000669	6.688600	2.266159	0.000268
 323	3.2039e+01	12.8307	249.260835	0.000578	5.776518	1.957137	0.000231
 324	3.2139e+01	12.8659	249.511137	0.000628	6.283230	2.128816	0.000252
 325	3.2238e+01	12.8980	249.729142	0.000547	5.472491	1.854130	0.000219
 326	3.2337e+01	12.9430	249.967333	0.000598	5.979203	2.025809	0.000239
 327	3.2437e+01	12.9782	250.185339	0.000547	5.472491	1.854130	0.000219
 328	3.2536e+01	13.0183	250.451790	0.000669	6.688600	2.266159	0.000268
 329	3.2636e+01	13.0585	250.657684	0.000517	5.168463	1.751123	0.000207
 330	3.2736e+01	13.1018	250.912023	0.000638	6.384572	2.163152	0.000256
 331	3.2835e+01	13.1306	251.154251	0.000608	6.080545	2.060144	0.000243
 332	3.2934e+01	13.1852	251.356108	0.000507	5.067121	1.716787	0.000203
 333	3.3034e+01	13.2109	251.586225	0.000578	5.776518	1.957137	0.000231
 334	3.3133e+01	13.2574	251.816342	0.000578	5.776518	1.957137	0.000231
 335	3.3233e+01	13.3007	252.098941	0.000709	7.093969	2.403502	0.000284
 336	3.3333e+01	13.3472	252.304835	0.000517	5.168463	1.751123	0.000207
 337	3.3432e+01	13.3809	252.514766	0.000527	5.269806	1.785459	0.000211
 338	3.3532e+01	13.4178	252.732771	0.000547	5.472491	1.854130	0.000219
 339	3.3631e+01	13.4515	253.019408	0.000720	7.195312	2.437838	0.000288
 340	3.3730e+01	13.5012	253.217228	0.000497	4.965779	1.682451	0.000199
 341	3.3830e+01	13.5381	253.491753	0.000689	6.891285	2.334830	0.000276
 342	3.3929e+01	13.5782	253.665350	0.000436	4.357724	1.476437	0.000174
 343	3.4029e+01	13.6167	253.923727	0.000649	6.485915	2.197487	0.000260
 344	3.4129e+01	13.6568	254.153843	0.000578	5.776518	1.957137	0.000231
 345	3.4228e+01	13.6953	254.355700	0.000507	5.067121	1.716787	0.000203
 346	3.4328e+01	13.7338	254.597928	0.000608	6.080545	2.060144	0.000243
 347	3.4427e+01	13.7788	254.840156	0.000608	6.080545	2.060144	0.000243
 348	3.4526e+01	13.8157	255.066236	0.000568	5.675175	1.922802	0.000227
 349	3.4626e+01	13.8445	255.312501	0.000618	6.181888	2.094480	0.000248
 350	3.4725e+01	13.8862	255.526469	0.000537	5.371148	1.819794	0.000215
 351	3.4825e+01	13.9440	255.748512	0.000557	5.573833	1.888466	0.000223
 352	3.4925e+01	13.9729	256.006889	0.000649	6.485915	2.197487	0.000260
 353	3.5024e+01	14.0162	256.237005	0.000578	5.776518	1.957137	0.000231
 354	3.5123e+01	14.0595	256.459048	0.000557	5.573833	1.888466	0.000223
 355	3.5223e+01	14.0996	256.685127	0.000568	5.675175	1.922802	0.000227
 356	3.5322e+01	14.1413	256.919281	0.000588	5.877860	1.991473	0.000235
 357	3.5422e+01	14.1814	257.169584	0.000628	6.283230	2.128816	0.000252
 358	3.5522e+01	14.2103	257.371440	0.000507	5.067121	1.716787	0.000203
 359	3.5621e+01	14.2584	257.601557	0.000578	5.776518	1.957137	0.000231
 360	3.5721e+01	14.2793	257.847822	0.000618	6.181888	2.094480	0.000248
 361	3.5820e+01	14.3418	258.065828	0.000547	5.472491	1.854130	0.000219
 362	3.5919e+01	14.3755	258.299982	0.000588	5.877860	1.991473	0.000235
 363	3.6019e+01	14.4140	258.530098	0.000578	5.776518	1.957137	0.000231
 364	3.6118e+01	14.4670	258.756178	0.000568	5.675175	1.922802	0.000227
 365	3.6218e+01	14.5055	258.986295	0.000578	5.776518	1.957137	0.000231
 366	3.6318e+01	14.5311	259.216411	0.000578	5.776518	1.957137	0.000231
 367	3.6417e+01	14.5664	259.430380	0.000537	5.371148	1.819794	0.000215
 368	3.6517e+01	14.6162	259.660496	0.000578	5.776518	1.957137	0.000231
 369	3.6616e+01	14.6515	259.902725	0.000608	6.080545	2.060144	0.000243
 370	3.6715e+01	14.6868	260.124767	0.000557	5.573833	1.888466	0.000223
 371	3.6815e+01	14.7333	260.330661	0.000517	5.168463	1.751123	0.000207
 372	3.6914e+01	14.7782	260.572889	0.000608	6.080545	2.060144	0.000243
 373	3.7014e+01	14.8103	260.794932	0.000557	5.573833	1.888466	0.000223
 374	3.7114e+01	14.8488	261.041197	0.000618	6.181888	2.094480	0.000248
 375	3.7213e+01	14.8857	261.239016	0.000497	4.965779	1.682451	0.000199
 376	3.7313e+01	14.9306	261.497393	0.000649	6.485915	2.197487	0.000260
 377	3.7412e+01	14.9787	261.703287	0.000517	5.168463	1.751123	0.000207
 378	3.7511e+01	15.0140	261.965701	0.000659	6.587257	2.231823	0.000264
 379	3.7611e+01	15.0541	262.127186	0.000405	4.053697	1.373430	0.000162
 380	3.7711e+01	15.1006	262.369414	0.000608	6.080545	2.060144	0.000243
 381	3.7810e+01	15.1311	262.607605	0.000598	5.979203	2.025809	0.000239
 382	3.7910e+01	15.1712	262.821574	0.000537	5.371148	1.819794	0.000215
 383	3.8009e+01	15.2113	263.067839	0.000618	6.181888	2.094480	0.000248
 384	3.8108e+01	15.2498	263.293919	0.000568	5.675175	1.922802	0.000227
 385	3.8208e+01	15.2803	263.491738	0.000497	4.965779	1.682451	0.000199
 386	3.8307e+01	15.3268	263.766263	0.000689	6.891285	2.334830	0.000276
 387	3.8407e+01	15.3702	263.956009	0.000476	4.763094	1.613780	0.000191
 388	3.8507e+01	15.4103	264.194200	0.000598	5.979203	2.025809	0.000239
 389	3.8606e+01	15.4488	264.400094	0.000517	5.168463	1.751123	0.000207
 390	3.8706e+01	15.4889	264.630210	0.000578	5.776518	1.957137	0.000231
 391	3.8805e+01	15.5306	264.844179	0.000537	5.371148	1.819794	0.000215
 392	3.8904e+01	15.5675	265.086407	0.000608	6.080545	2.060144	0.000243
 393	3.9004e+01	15.6156	265.284226	0.000497	4.965779	1.682451	0.000199
 394	3.9103e+01	15.6573	265.498195	0.000537	5.371148	1.819794	0.000215
 395	3.9203e+01	15.6926	265.764646	0.000669	6.688600	2.266159	0.000268
 396	3.9303e+01	15.7247	265.958428	0.000486	4.864436	1.648116	0.000195
 397	3.9402e+01	15.7712	266.184508	0.000568	5.675175	1.922802	0.000227
 398	3.9502e+01	15.8145	266.414624	0.000578	5.776518	1.957137	0.000231
 399	3.9601e+01	15.8482	266.656853	0.000608	6.080545	2.060144	0.000243
 400	3.9700e+01	15.8867	266.850635	0.000486	4.864436	1.648116	0.000195
 401	3.9800e+01	15.9284	267.080752	0.000578	5.776518	1.957137	0.000231
 402	3.9900e+01	15.9701	267.270497	0.000476	4.763094	1.613780	0.000191
 403	3.9999e+01	16.0118	267.504651	0.000588	5.877860	1.991473	0.000235
 404	4.0099e+01	16.0503	267.738805	0.000588	5.877860	1.991473	0.000235
 405	4.0198e+01	16.0905	267.968922	0.000578	5.776518	1.957137	0.000231
 406	4.0297e+01	16.1274	268.178853	0.000527	5.269806	1.785459	0.000211
 407	4.0397e+01	16.1659	268.384747	0.000517	5.168463	1.751123	0.000207
 408	4.0496e+01	16.2156	268.606789	0.000557	5.573833	1.888466	0.000223
 409	4.0596e+01	16.2477	268.804609	0.000497	4.965779	1.682451	0.000199
 410	4.0696e+01	16.2878	269.062986	0.000649	6.485915	2.197487	0.000260
 411	4.0795e+01	16.3263	269.293102	0.000578	5.776518	1.957137	0.000231
 412	4.0895e+01	16.3568	269.490922	0.000497	4.965779	1.682451	0.000199
 413	4.0994e+01	16.4081	269.717002	0.000568	5.675175	1.922802	0.000227
 414	4.1093e+01	16.4498	269.947118	0.000578	5.776518	1.957137	0.000231
 415	4.1193e+01	16.4835	270.153012	0.000517	5.168463	1.751123	0.000207
 416	4.1292e+01	16.5220	270.379092	0.000568	5.675175	1.922802	0.000227
 417	4.1392e+01	16.5749	270.556726	0.000446	4.459066	1.510773	0.000179
 418	4.1492e+01	16.6134	270.782805	0.000568	5.675175	1.922802	0.000227
 419	4.1591e+01	16.6487	271.061368	0.000699	6.992627	2.369166	0.000280
 420	4.1691e+01	16.6856	271.247076	0.000466	4.661751	1.579444	0.000187
 421	4.1790e+01	16.7354	271.477193	0.000578	5.776518	1.957137	0.000231
 422	4.1889e+01	16.7610	271.707309	0.000578	5.776518	1.957137	0.000231
 423	4.1989e+01	16.8075	271.921278	0.000537	5.371148	1.819794	0.000215
 424	4.2089e+01	16.8444	272.139283	0.000547	5.472491	1.854130	0.000219
 425	4.2188e+01	16.8829	272.329028	0.000476	4.763094	1.613780	0.000191
 426	4.2288e+01	16.9311	272.559145	0.000578	5.776518	1.957137	0.000231
 427	4.2387e+01	16.9567	272.777150	0.000547	5.472491	1.854130	0.000219
 428	4.2486e+01	17.0049	273.003230	0.000568	5.675175	1.922802	0.000227
 429	4.2586e+01	17.0466	273.225272	0.000557	5.573833	1.888466	0.000223
 430	4.2685e+01	17.0851	273.427129	0.000507	5.067121	1.716787	0.000203
 431	4.2785e+01	17.1172	273.653209	0.000568	5.675175	1.922802	0.000227
 432	4.2885e+01	17.1653	273.879288	0.000568	5.675175	1.922802	0.000227
 433	4.2984e+01	17.2006	274.085182	0.000517	5.168463	1.751123	0.000207
 434	4.3084e+01	17.2487	274.274928	0.000476	4.763094	1.613780	0.000191
 435	4.3183e+01	17.2840	274.589824	0.000790	7.904709	2.678188	0.000316
 436	4.3282e+01	17.3241	274.763421	0.000436	4.357724	1.476437	0.000174
 437	4.3382e+01	17.3594	274.969315	0.000517	5.168463	1.751123	0.000207
 438	4.3481e+01	17.4059	275.183283	0.000537	5.371148	1.819794	0.000215
 439	4.3581e+01	17.4508	275.405326	0.000557	5.573833	1.888466	0.000223
 440	4.3681e+01	17.4877	275.570848	0.000416	4.155039	1.407765	0.000166
 441	4.3780e+01	17.5295	275.817114	0.000618	6.181888	2.094480	0.000248
 442	4.3880e+01	17.5744	276.031082	0.000537	5.371148	1.819794	0.000215
 443	4.3979e+01	17.6081	276.265236	0.000588	5.877860	1.991473	0.000235
 444	4.4078e+01	17.6482	276.418647	0.000385	3.851012	1.304758	0.000154
 445	4.4178e+01	17.6851	276.652801	0.000588	5.877860	1.991473	0.000235
 446	4.4278e+01	17.7188	276.850620	0.000497	4.965779	1.682451	0.000199
 447	4.4377e+01	17.7653	277.080737	0.000578	5.776518	1.957137	0.000231
 448	4.4477e+01	17.7990	277.262408	0.000456	4.560409	1.545108	0.000183
 449	4.4576e+01	17.8471	277.476376	0.000537	5.371148	1.819794	0.000215
 450	4.4675e+01	17.8808	277.674196	0.000497	4.965779	1.682451	0.000199
 451	4.4775e+01	17.9257	277.904313	0.000578	5.776518	1.957137	0.000231
 452	4.4874e+01	17.9578	278.114244	0.000527	5.269806	1.785459	0.000211
 453	4.4974e+01	17.9931	278.344361	0.000578	5.776518	1.957137	0.000231
 454	4.5074e+01	18.0412	278.550255	0.000517	5.168463	1.751123	0.000207
 455	4.5173e+01	18.0861	278.711740	0.000405	4.053697	1.373430	0.000162
 456	4.5273e+01	18.1214	278.953968	0.000608	6.080545	2.060144	0.000243
 457	4.5372e+01	18.1551	279.127565	0.000436	4.357724	1.476437	0.000174
 458	4.5471e+01	18.2000	279.361719	0.000588	5.877860	1.991473	0.000235
 459	4.5571e+01	18.2385	279.612021	0.000628	6.283230	2.128816	0.000252
 460	4.5670e+01	18.2770	279.793692	0.000456	4.560409	1.545108	0.000183
 461	4.5770e+01	18.3187	280.011698	0.000547	5.472491	1.854130	0.000219
 462	4.5870e+01	18.3637	280.165109	0.000385	3.851012	1.304758	0.000154
 463	4.5969e+01	18.4038	280.415411	0.000628	6.283230	2.128816	0.000252
 464	4.6069e+01	18.4471	280.593045	0.000446	4.459066	1.510773	0.000179
 465	4.6168e+01	18.4888	280.794902	0.000507	5.067121	1.716787	0.000203
 466	4.6267e+01	18.5193	281.041167	0.000618	6.181888	2.094480	0.000248
 467	4.6367e+01	18.5513	281.243024	0.000507	5.067121	1.716787	0.000203
 468	4.6467e+01	18.6059	281.416621	0.000436	4.357724	1.476437	0.000174
 469	4.6566e+01	18.6380	281.598292	0.000456	4.560409	1.545108	0.000183
 470	4.6666e+01	18.6797	281.836483	0.000598	5.979203	2.025809	0.000239
 471	4.6765e+01	18.7150	282.042377	0.000517	5.168463	1.751123	0.000207
 472	4.6864e+01	18.7455	282.284605	0.000608	6.080545	2.060144	0.000243
 473	4.6964e+01	18.7904	282.442053	0.000395	3.952354	1.339094	0.000158
 474	4.7063e+01	18.8401	282.651984	0.000527	5.269806	1.785459	0.000211
 475	4.7163e+01	18.8738	282.865953	0.000537	5.371148	1.819794	0.000215
 476	4.7263e+01	18.9155	283.083958	0.000547	5.472491	1.854130	0.000219
 477	4.7362e+01	18.9476	283.237369	0.000385	3.851012	1.304758	0.000154
 478	4.7462e+01	18.9989	283.483634	0.000618	6.181888	2.094480	0.000248
 479	4.7561e+01	19.0406	283.673380	0.000476	4.763094	1.613780	0.000191
 480	4.7660e+01	19.0775	283.871199	0.000497	4.965779	1.682451	0.000199
 481	4.7760e+01	19.1160	284.052871	0.000456	4.560409	1.545108	0.000183
 482	4.7859e+01	19.1642	284.278950	0.000568	5.675175	1.922802	0.000227
 483	4.7959e+01	19.1914	284.460621	0.000456	4.560409	1.545108	0.000183
 484	4.8059e+01	19.2348	284.686701	0.000568	5.675175	1.922802	0.000227
 485	4.8158e+01	19.2765	284.872409	0.000466	4.661751	1.579444	0.000187
 486	4.8258e+01	19.3150	285.114637	0.000608	6.080545	2.060144	0.000243
 487	4.8357e+01	19.3519	285.300345	0.000466	4.661751	1.579444	0.000187
 488	4.8456e+01	19.3968	285.465868	0.000416	4.155039	1.407765	0.000166
 489	4.8556e+01	19.4337	285.724245	0.000649	6.485915	2.197487	0.000260
 490	4.8656e+01	19.4834	285.901879	0.000446	4.459066	1.510773	0.000179
 491	4.8755e+01	19.5091	286.103735	0.000507	5.067121	1.716787	0.000203
 492	4.8855e+01	19.5652	286.257147	0.000385	3.851012	1.304758	0.000154
 493	4.8954e+01	19.5893	286.475152	0.000547	5.472491	1.854130	0.000219
 494	4.9053e+01	19.6310	286.681046	0.000517	5.168463	1.751123	0.000207
 495	4.9153e+01	19.6743	286.878866	0.000497	4.965779	1.682451	0.000199
 496	4.9252e+01	19.7208	287.096871	0.000547	5.472491	1.854130	0.000219
 497	4.9352e+01	19.7529	287.278542	0.000456	4.560409	1.545108	0.000183
 498	4.9452e+01	19.7818	287.520770	0.000608	6.080545	2.060144	0.000243
 499	4.9551e+01	19.8331	287.670144	0.000375	3.749670	1.270422	0.000150
 500	4.9651e+01	19.8829	287.888149	0.000547	5.472491	1.854130	0.000219
 501	4.9750e+01	19.9198	288.085969	0.000497	4.965779	1.682451	0.000199
 502	4.9849e+01	19.9551	288.291863	0.000517	5.168463	1.751123	0.000207
 503	4.9949e+01	19.9952	288.493720	0.000507	5.067121	1.716787	0.000203
 504	5.0048e+01	19.9551	288.380680	0.000284	2.837588	0.961401	-0.000114
 505	5.0148e+01	19.9117	288.283789	0.000243	2.432218	0.824058	-0.000097
 506	5.0248e+01	19.8652	288.146526	0.000345	3.445642	1.167415	-0.000138
 507	5.0347e+01	19.8315	288.110192	0.000091	0.912082	0.309022	-0.000037
 508	5.0447e+01	19.7978	287.940632	0.000426	4.256382	1.442101	-0.000170
 509	5.0546e+01	19.7561	287.803370	0.000345	3.445642	1.167415	-0.000138
 510	5.0645e+01	19.7160	287.694367	0.000274	2.736245	0.927065	-0.000110
 511	5.0745e+01	19.6743	287.569216	0.000314	3.141615	1.064408	-0.000126
 512	5.0844e+01	19.6294	287.444065	0.000314	3.141615	1.064408	-0.000126
 513	5.0944e+01	19.5941	287.322950	0.000304	3.040273	1.030072	-0.000122
 514	5.1044e+01	19.5524	287.189725	0.000334	3.344300	1.133079	-0.000134
 515	5.1143e+01	19.5091	287.088797	0.000253	2.533560	0.858394	-0.000101
 516	5.1242e+01	19.4690	286.935385	0.000385	3.851012	1.304758	-0.000154
 517	5.1342e+01	19.4337	286.769863	0.000416	4.155039	1.407765	-0.000166
 518	5.1441e+01	19.3984	286.660860	0.000274	2.736245	0.927065	-0.000110
 519	5.1541e+01	19.3599	286.555895	0.000263	2.634903	0.892729	-0.000105
 520	5.1641e+01	19.3102	286.370186	0.000466	4.661751	1.579444	-0.000187
 521	5.1740e+01	19.2781	286.240998	0.000324	3.242957	1.098744	-0.000130
 522	5.1840e+01	19.2396	286.095661	0.000365	3.648327	1.236087	-0.000146
 523	5.1939e+01	19.1979	285.966473	0.000324	3.242957	1.098744	-0.000130
 524	5.2038e+01	19.1626	285.821136	0.000365	3.648327	1.236087	-0.000146
 525	5.2138e+01	19.1176	285.663688	0.000395	3.952354	1.339094	-0.000158
 526	5.2237e+01	19.0759	285.550648	0.000284	2.837588	0.961401	-0.000114
 527	5.2337e+01	19.0374	285.425497	0.000314	3.141615	1.064408	-0.000126
 528	5.2437e+01	18.9941	285.288234	0.000345	3.445642	1.167415	-0.000138
 529	5.2536e+01	18.9428	285.155009	0.000334	3.344300	1.133079	-0.000134
 530	5.2636e+01	18.9123	284.985449	0.000426	4.256382	1.442101	-0.000170
 531	5.2735e+01	18.8802	284.852223	0.000334	3.344300	1.133079	-0.000134
 532	5.2834e+01	18.8369	284.739184	0.000284	2.837588	0.961401	-0.000114
 533	5.2934e+01	18.7904	284.565587	0.000436	4.357724	1.476437	-0.000174
 534	5.3033e+01	18.7615	284.436398	0.000324	3.242957	1.098744	-0.000130
 535	5.3133e+01	18.7166	284.270876	0.000416	4.155039	1.407765	-0.000166
 536	5.3233e+01	18.6845	284.129576	0.000355	3.546985	1.201751	-0.000142
 537	5.3332e+01	18.6396	283.964054	0.000416	4.155039	1.407765	-0.000166
 538	5.3431e+01	18.5963	283.875237	0.000223	2.229533	0.755386	-0.000089
 539	5.3531e+01	18.5610	283.709714	0.000416	4.155039	1.407765	-0.000166
 540	5.3630e+01	18.5225	283.564377	0.000365	3.648327	1.236087	-0.000146
 541	5.3730e+01	18.4776	283.410966	0.000385	3.851012	1.304758	-0.000154
 542	5.3830e+01	18.4391	283.265629	0.000365	3.648327	1.236087	-0.000146
 543	5.3929e+01	18.4054	283.108181	0.000395	3.952354	1.339094	-0.000158
 544	5.4029e+01	18.3588	282.995141	0.000284	2.837588	0.961401	-0.000114
 545	5.4128e+01	18.3235	282.760987	0.000588	5.877860	1.991473	-0.000235
 546	5.4227e+01	18.2786	282.643910	0.000294	2.938930	0.995736	-0.000118
 547	5.4327e+01	18.2433	282.482425	0.000405	4.053697	1.373430	-0.000162
 548	5.4426e+01	18.2048	282.353236	0.000324	3.242957	1.098744	-0.000130
 549	5.4526e+01	18.1695	282.191751	0.000405	4.053697	1.373430	-0.000162
 550	5.4626e+01	18.1310	282.010080	0.000456	4.560409	1.545108	-0.000183
 551	5.4725e+01	18.0813	281.884929	0.000314	3.141615	1.064408	-0.000126
 552	5.4825e+01	18.0348	281.731517	0.000385	3.851012	1.304758	-0.000154
 553	5.4924e+01	18.0123	281.594255	0.000345	3.445642	1.167415	-0.000138
 554	5.5023e+01	17.9674	281.424695	0.000426	4.256382	1.442101	-0.000170
 555	5.5123e+01	17.9145	281.271284	0.000385	3.851012	1.304758	-0.000154
 556	5.5222e+01	17.8824	281.129984	0.000355	3.546985	1.201751	-0.000142
 557	5.5322e+01	17.8455	281.000796	0.000324	3.242957	1.098744	-0.000130
 558	5.5422e+01	17.7990	280.827199	0.000436	4.357724	1.476437	-0.000174
 559	5.5521e+01	17.7589	280.641491	0.000466	4.661751	1.579444	-0.000187
 560	5.5620e+01	17.7188	280.488080	0.000385	3.851012	1.304758	-0.000154
 561	5.5720e+01	17.6915	280.371003	0.000294	2.938930	0.995736	-0.000118
 562	5.5819e+01	17.6450	280.205480	0.000416	4.155039	1.407765	-0.000166
 563	5.5919e+01	17.6065	280.035920	0.000426	4.256382	1.442101	-0.000170
 564	5.6019e+01	17.5647	279.906732	0.000324	3.242957	1.098744	-0.000130
 565	5.6118e+01	17.5246	279.721024	0.000466	4.661751	1.579444	-0.000187
 566	5.6218e+01	17.4829	279.543390	0.000446	4.459066	1.510773	-0.000179
 567	5.6317e+01	17.4412	279.389979	0.000385	3.851012	1.304758	-0.000154
 568	5.6416e+01	17.4043	279.236568	0.000385	3.851012	1.304758	-0.000154
 569	5.6516e+01	17.3610	279.103342	0.000334	3.344300	1.133079	-0.000134
 570	5.6615e+01	17.3273	278.905522	0.000497	4.965779	1.682451	-0.000199
 571	5.6715e+01	17.2872	278.772297	0.000334	3.344300	1.133079	-0.000134
 572	5.6815e+01	17.2423	278.594663	0.000446	4.459066	1.510773	-0.000179
 573	5.6914e+01	17.2070	278.429140	0.000416	4.155039	1.407765	-0.000166
 574	5.7014e+01	17.1589	278.271692	0.000395	3.952354	1.339094	-0.000158
 575	5.7113e+01	17.1204	278.077910	0.000486	4.864436	1.648116	-0.000195
 576	5.7212e+01	17.0803	277.948721	0.000324	3.242957	1.098744	-0.000130
 577	5.7312e+01	17.0482	277.771087	0.000446	4.459066	1.510773	-0.000179
 578	5.7411e+01	16.9968	277.605565	0.000416	4.155039	1.407765	-0.000166
 579	5.7511e+01	16.9648	277.476376	0.000324	3.242957	1.098744	-0.000130
 580	5.7611e+01	16.9279	277.318928	0.000395	3.952354	1.339094	-0.000158
 581	5.7710e+01	16.8829	277.153406	0.000416	4.155039	1.407765	-0.000166
 582	5.7809e+01	16.8493	276.971734	0.000456	4.560409	1.545108	-0.000183
 583	5.7909e+01	16.8059	276.790063	0.000456	4.560409	1.545108	-0.000183
 584	5.8008e+01	16.7642	276.664912	0.000314	3.141615	1.064408	-0.000126
 585	5.8108e+01	16.7225	276.475167	0.000476	4.763094	1.613780	-0.000191
 586	5.8208e+01	16.6856	276.358090	0.000294	2.938930	0.995736	-0.000118
 587	5.8307e+01	16.6375	276.184493	0.000436	4.357724	1.476437	-0.000174
 588	5.8407e+01	16.6118	276.014933	0.000426	4.256382	1.442101	-0.000170
 589	5.8506e+01	16.5669	275.849411	0.000416	4.155039	1.407765	-0.000166
 590	5.8605e+01	16.5252	275.663702	0.000466	4.661751	1.579444	-0.000187
 591	5.8705e+01	16.4851	275.518366	0.000365	3.648327	1.236087	-0.000146
 592	5.8804e+01	16.4562	275.360917	0.000395	3.952354	1.339094	-0.000158
 593	5.8904e+01	16.4081	275.179246	0.000456	4.560409	1.545108	-0.000183
 594	5.9004e+01	16.3696	275.005649	0.000436	4.357724	1.476437	-0.000174
 595	5.9103e+01	16.3263	274.872424	0.000334	3.344300	1.133079	-0.000134
 596	5.9203e+01	16.2894	274.674604	0.000497	4.965779	1.682451	-0.000199
 597	5.9302e+01	16.2461	274.521193	0.000385	3.851012	1.304758	-0.000154
 598	5.9401e+01	16.2076	274.355670	0.000416	4.155039	1.407765	-0.000166
 599	5.9501e+01	16.1787	274.182074	0.000436	4.357724	1.476437	-0.000174
 600	5.9600e+01	16.1177	274.012514	0.000426	4.256382	1.442101	-0.000170
 601	5.9700e+01	16.0969	273.863140	0.000375	3.749670	1.270422	-0.000150
 602	5.9800e+01	16.0584	273.701654	0.000405	4.053697	1.373430	-0.000162
 603	5.9899e+01	16.0102	273.507872	0.000486	4.864436	1.648116	-0.000195
 604	5.9998e+01	15.9782	273.342349	0.000416	4.155039	1.407765	-0.000166
 605	6.0098e+01	15.9300	273.168753	0.000436	4.357724	1.476437	-0.000174
 606	6.0197e+01	15.8947	273.031490	0.000345	3.445642	1.167415	-0.000138
 607	6.0297e+01	15.8370	272.813485	0.000547	5.472491	1.854130	-0.000219
 608	6.0397e+01	15.8081	272.672185	0.000355	3.546985	1.201751	-0.000142
 609	6.0496e+01	15.7728	272.486477	0.000466	4.661751	1.579444	-0.000187
 610	6.0596e+01	15.7311	272.324991	0.000405	4.053697	1.373430	-0.000162
 611	6.0695e+01	15.6878	272.167543	0.000395	3.952354	1.339094	-0.000158
 612	6.0794e+01	15.6477	271.969723	0.000497	4.965779	1.682451	-0.000199
 613	6.0894e+01	15.6108	271.775941	0.000486	4.864436	1.648116	-0.000195
 614	6.0993e+01	15.5675	271.618492	0.000395	3.952354	1.339094	-0.000158
 615	6.1093e+01	15.5370	271.428747	0.000476	4.763094	1.613780	-0.000191
 616	6.1193e+01	15.5001	271.234965	0.000486	4.864436	1.648116	-0.000195
 617	6.1292e+01	15.4472	271.073479	0.000405	4.053697	1.373430	-0.000162
 618	6.1392e+01	15.4119	270.883734	0.000476	4.763094	1.613780	-0.000191
 619	6.1491e+01	15.3734	270.722248	0.000405	4.053697	1.373430	-0.000162
 620	6.1590e+01	15.3252	270.552689	0.000426	4.256382	1.442101	-0.000170
 621	6.1690e+01	15.2835	270.342758	0.000527	5.269806	1.785459	-0.000211
 622	6.1789e+01	15.2482	270.197421	0.000365	3.648327	1.236087	-0.000146
 623	6.1889e+01	15.2081	269.995564	0.000507	5.067121	1.716787	-0.000203
 624	6.1989e+01	15.1744	269.838116	0.000395	3.952354	1.339094	-0.000158
 625	6.2088e+01	15.1424	269.652407	0.000466	4.661751	1.579444	-0.000187
 626	6.2188e+01	15.0990	269.486885	0.000416	4.155039	1.407765	-0.000166
 627	6.2287e+01	15.0573	269.289065	0.000497	4.965779	1.682451	-0.000199
 628	6.2386e+01	15.0172	269.091245	0.000497	4.965779	1.682451	-0.000199
 629	6.2486e+01	14.9691	268.941871	0.000375	3.749670	1.270422	-0.000150
 630	6.2586e+01	14.9306	268.748089	0.000486	4.864436	1.648116	-0.000195
 631	6.2685e+01	14.8921	268.534121	0.000537	5.371148	1.819794	-0.000215
 632	6.2785e+01	14.8648	268.356487	0.000446	4.459066	1.510773	-0.000179
 633	6.2884e+01	14.8135	268.215187	0.000355	3.546985	1.201751	-0.000142
 634	6.2983e+01	14.7702	268.041590	0.000436	4.357724	1.476437	-0.000174
 635	6.3083e+01	14.7317	267.799362	0.000608	6.080545	2.060144	-0.000243
 636	6.3182e+01	14.6884	267.637877	0.000405	4.053697	1.373430	-0.000162
 637	6.3282e+01	14.6466	267.448131	0.000476	4.763094	1.613780	-0.000191
 638	6.3382e+01	14.6033	267.250312	0.000497	4.965779	1.682451	-0.000199
 639	6.3481e+01	14.5745	267.064603	0.000466	4.661751	1.579444	-0.000187
 640	6.3581e+01	14.5327	266.899081	0.000416	4.155039	1.407765	-0.000166
 641	6.3680e+01	14.4894	266.681075	0.000547	5.472491	1.854130	-0.000219
 642	6.3779e+01	14.4509	266.551887	0.000324	3.242957	1.098744	-0.000130
 643	6.3879e+01	14.4221	266.329845	0.000557	5.573833	1.888466	-0.000223
 644	6.3978e+01	14.3852	266.156248	0.000436	4.357724	1.476437	-0.000174
 645	6.4078e+01	14.3402	265.966502	0.000476	4.763094	1.613780	-0.000191
 646	6.4177e+01	14.2953	265.772720	0.000486	4.864436	1.648116	-0.000195
 647	6.4277e+01	14.2520	265.587012	0.000466	4.661751	1.579444	-0.000187
 648	6.4376e+01	14.2135	265.393229	0.000486	4.864436	1.648116	-0.000195
 649	6.4476e+01	14.1798	265.207521	0.000466	4.661751	1.579444	-0.000187
 650	6.4576e+01	14.1317	265.013738	0.000486	4.864436	1.648116	-0.000195
 651	6.4675e+01	14.1028	264.819956	0.000486	4.864436	1.648116	-0.000195
 652	6.4775e+01	14.0579	264.605988	0.000537	5.371148	1.819794	-0.000215
 653	6.4874e+01	14.0194	264.464688	0.000355	3.546985	1.201751	-0.000142
 654	6.4974e+01	13.9809	264.258794	0.000517	5.168463	1.751123	-0.000207
 655	6.5073e+01	13.9392	264.060974	0.000497	4.965779	1.682451	-0.000199
 656	6.5172e+01	13.8943	263.842969	0.000547	5.472491	1.854130	-0.000219
 657	6.5272e+01	13.8574	263.657261	0.000466	4.661751	1.579444	-0.000187
 658	6.5371e+01	13.8221	263.503850	0.000385	3.851012	1.304758	-0.000154
 659	6.5471e+01	13.7788	263.314104	0.000476	4.763094	1.613780	-0.000191
 660	6.5570e+01	13.7370	263.108210	0.000517	5.168463	1.751123	-0.000207
 661	6.5670e+01	13.7018	262.926539	0.000456	4.560409	1.545108	-0.000183
 662	6.5769e+01	13.6552	262.752942	0.000436	4.357724	1.476437	-0.000174
 663	6.5869e+01	13.6215	262.522826	0.000578	5.776518	1.957137	-0.000231
 664	6.5969e+01	13.5830	262.337117	0.000466	4.661751	1.579444	-0.000187
 665	6.6068e+01	13.5397	262.179669	0.000395	3.952354	1.339094	-0.000158
 666	6.6168e+01	13.4884	261.965701	0.000537	5.371148	1.819794	-0.000215
 667	6.6267e+01	13.4627	261.763844	0.000507	5.067121	1.716787	-0.000203
 668	6.6367e+01	13.4194	261.557950	0.000517	5.168463	1.751123	-0.000207
 669	6.6466e+01	13.3857	261.335908	0.000557	5.573833	1.888466	-0.000223
 670	6.6566e+01	13.3392	261.146162	0.000476	4.763094	1.613780	-0.000191
 671	6.6665e+01	13.2975	260.948343	0.000497	4.965779	1.682451	-0.000199
 672	6.6764e+01	13.2574	260.766672	0.000456	4.560409	1.545108	-0.000183
 673	6.6864e+01	13.2189	260.556741	0.000527	5.269806	1.785459	-0.000211
 674	6.6963e+01	13.1627	260.354884	0.000507	5.067121	1.716787	-0.000203
 675	6.7063e+01	13.1403	260.177250	0.000446	4.459066	1.510773	-0.000179
 676	6.7162e+01	13.1034	259.943096	0.000588	5.877860	1.991473	-0.000235
 677	6.7262e+01	13.0649	259.753351	0.000476	4.763094	1.613780	-0.000191
 678	6.7362e+01	13.0296	259.531308	0.000557	5.573833	1.888466	-0.000223
 679	6.7461e+01	12.9847	259.333488	0.000497	4.965779	1.682451	-0.000199
 680	6.7561e+01	12.9446	259.143743	0.000476	4.763094	1.613780	-0.000191
 681	6.7660e+01	12.9044	258.974183	0.000426	4.256382	1.442101	-0.000170
 682	6.7760e+01	12.8579	258.727918	0.000618	6.181888	2.094480	-0.000248
 683	6.7859e+01	12.8339	258.566433	0.000405	4.053697	1.373430	-0.000162
 684	6.7959e+01	12.7825	258.344390	0.000557	5.573833	1.888466	-0.000223
 685	6.8058e+01	12.7440	258.150608	0.000486	4.864436	1.648116	-0.000195
 686	6.8157e+01	12.7103	257.964899	0.000466	4.661751	1.579444	-0.000187
 687	6.8257e+01	12.6654	257.738820	0.000568	5.675175	1.922802	-0.000227
 688	6.8356e+01	12.6221	257.569260	0.000426	4.256382	1.442101	-0.000170
 689	6.8456e+01	12.5740	257.335106	0.000588	5.877860	1.991473	-0.000235
 690	6.8555e+01	12.5483	257.173621	0.000405	4.053697	1.373430	-0.000162
 691	6.8655e+01	12.5050	256.915244	0.000649	6.485915	2.197487	-0.000260
 692	6.8754e+01	12.4745	256.721462	0.000486	4.864436	1.648116	-0.000195
 693	6.8854e+01	12.4248	256.543828	0.000446	4.459066	1.510773	-0.000179
 694	6.8954e+01	12.3879	256.366194	0.000446	4.459066	1.510773	-0.000179
 695	6.9053e+01	12.3398	256.140114	0.000568	5.675175	1.922802	-0.000227
 696	6.9153e+01	12.2997	255.958443	0.000456	4.560409	1.545108	-0.000183
 697	6.9252e+01	12.2547	255.760623	0.000497	4.965779	1.682451	-0.000199
 698	6.9352e+01	12.2243	255.542618	0.000547	5.472491	1.854130	-0.000219
 699	6.9451e+01	12.1793	255.324613	0.000547	5.472491	1.854130	-0.000219
 700	6.9550e+01	12.1408	255.138904	0.000466	4.661751	1.579444	-0.000187
 701	6.9650e+01	12.1071	254.924936	0.000537	5.371148	1.819794	-0.000215
 702	6.9749e+01	12.0590	254.706931	0.000547	5.472491	1.854130	-0.000219
 703	6.9849e+01	12.0253	254.492963	0.000537	5.371148	1.819794	-0.000215
 704	6.9948e+01	11.9836	254.343589	0.000375	3.749670	1.270422	-0.000150
 705	7.0048e+01	11.9403	254.113472	0.000578	5.776518	1.957137	-0.000231
 706	7.0147e+01	11.9146	253.887392	0.000568	5.675175	1.922802	-0.000227
 707	7.0247e+01	11.8697	253.709758	0.000446	4.459066	1.510773	-0.000179
 708	7.0347e+01	11.8312	253.479642	0.000578	5.776518	1.957137	-0.000231
 709	7.0446e+01	11.7879	253.281822	0.000497	4.965779	1.682451	-0.000199
 710	7.0546e+01	11.7510	253.092077	0.000476	4.763094	1.613780	-0.000191
 711	7.0645e+01	11.7045	252.906368	0.000466	4.661751	1.579444	-0.000187
 712	7.0745e+01	11.6644	252.676252	0.000578	5.776518	1.957137	-0.000231
 713	7.0844e+01	11.6211	252.486506	0.000476	4.763094	1.613780	-0.000191
 714	7.0944e+01	11.5890	252.276575	0.000527	5.269806	1.785459	-0.000211
 715	7.1043e+01	11.5585	252.062607	0.000537	5.371148	1.819794	-0.000215
 716	7.1142e+01	11.5136	251.860750	0.000507	5.067121	1.716787	-0.000203
 717	7.1242e+01	11.4703	251.654856	0.000517	5.168463	1.751123	-0.000207
 718	7.1341e+01	11.4221	251.420702	0.000588	5.877860	1.991473	-0.000235
 719	7.1441e+01	11.3901	251.226920	0.000486	4.864436	1.648116	-0.000195
 720	7.1540e+01	11.3548	251.016989	0.000527	5.269806	1.785459	-0.000211
 721	7.1640e+01	11.3114	250.847429	0.000426	4.256382	1.442101	-0.000170
 722	7.1740e+01	11.2729	250.593090	0.000638	6.384572	2.163152	-0.000256
 723	7.1839e+01	11.2377	250.371047	0.000557	5.573833	1.888466	-0.000223
 724	7.1939e+01	11.2008	250.229747	0.000355	3.546985	1.201751	-0.000142
 725	7.2038e+01	11.1510	249.979445	0.000628	6.283230	2.128816	-0.000252
 726	7.2138e+01	11.1109	249.769514	0.000527	5.269806	1.785459	-0.000211
 727	7.2237e+01	11.0676	249.563620	0.000517	5.168463	1.751123	-0.000207
 728	7.2337e+01	11.0419	249.353689	0.000527	5.269806	1.785459	-0.000211
 729	7.2436e+01	10.9906	249.147795	0.000517	5.168463	1.751123	-0.000207
 730	7.2535e+01	10.9505	248.945938	0.000507	5.067121	1.716787	-0.000203
 731	7.2635e+01	10.9120	248.703710	0.000608	6.080545	2.060144	-0.000243
 732	7.2734e+01	10.8751	248.518002	0.000466	4.661751	1.579444	-0.000187
 733	7.2834e+01	10.8334	248.304034	0.000537	5.371148	1.819794	-0.000215
 734	7.2933e+01	10.7885	248.090065	0.000537	5.371148	1.819794	-0.000215
 735	7.3033e+01	10.7403	247.851874	0.000598	5.979203	2.025809	-0.000239
 736	7.3132e+01	10.7050	247.654055	0.000497	4.965779	1.682451	-0.000199
 737	7.3232e+01	10.6714	247.427975	0.000568	5.675175	1.922802	-0.000227
 738	7.3332e+01	10.6296	247.234193	0.000486	4.864436	1.648116	-0.000195
 739	7.3431e+01	10.5927	246.996002	0.000598	5.979203	2.025809	-0.000239
 740	7.3531e+01	10.5526	246.818368	0.000446	4.459066	1.510773	-0.000179
 741	7.3630e+01	10.5141	246.555954	0.000659	6.587257	2.231823	-0.000264
 742	7.3730e+01	10.4676	246.374283	0.000456	4.560409	1.545108	-0.000183
 743	7.3829e+01	10.4339	246.119943	0.000638	6.384572	2.163152	-0.000256
 744	7.3928e+01	10.4002	245.942309	0.000446	4.459066	1.510773	-0.000179
 745	7.4028e+01	10.3553	245.687970	0.000638	6.384572	2.163152	-0.000256
 746	7.4127e+01	10.3184	245.498224	0.000476	4.763094	1.613780	-0.000191
 747	7.4227e+01	10.2783	245.308479	0.000476	4.763094	1.613780	-0.000191
 748	7.4326e+01	10.2382	245.070288	0.000598	5.979203	2.025809	-0.000239
 749	7.4426e+01	10.1997	244.852283	0.000547	5.472491	1.854130	-0.000219
 750	7.4525e+01	10.1612	244.630240	0.000557	5.573833	1.888466	-0.000223
 751	7.4625e+01	10.1131	244.408198	0.000557	5.573833	1.888466	-0.000223
 752	7.4725e+01	10.0746	244.218452	0.000476	4.763094	1.613780	-0.000191
 753	7.4824e+01	10.0377	243.964113	0.000638	6.384572	2.163152	-0.000256
 754	7.4924e+01	9.9880	243.778404	0.000466	4.661751	1.579444	-0.000187
 755	7.5023e+01	9.9478	243.552325	0.000568	5.675175	1.922802	-0.000227
 756	7.5123e+01	9.9110	243.342394	0.000527	5.269806	1.785459	-0.000211
 757	7.5222e+01	9.8708	243.124388	0.000547	5.472491	1.854130	-0.000219
 758	7.5322e+01	9.8323	242.861975	0.000659	6.587257	2.231823	-0.000264
 759	7.5421e+01	9.8003	242.704526	0.000395	3.952354	1.339094	-0.000158
 760	7.5520e+01	9.7537	242.478447	0.000568	5.675175	1.922802	-0.000227
 761	7.5620e+01	9.7088	242.276590	0.000507	5.067121	1.716787	-0.000203
 762	7.5719e+01	9.6815	242.046473	0.000578	5.776518	1.957137	-0.000231
 763	7.5819e+01	9.6366	241.836542	0.000527	5.269806	1.785459	-0.000211
 764	7.5918e+01	9.5965	241.614500	0.000557	5.573833	1.888466	-0.000223
 765	7.6018e+01	9.5612	241.384383	0.000578	5.776518	1.957137	-0.000231
 766	7.6118e+01	9.5131	241.134080	0.000628	6.283230	2.128816	-0.000252
 767	7.6217e+01	9.4714	240.924149	0.000527	5.269806	1.785459	-0.000211
 768	7.6317e+01	9.4297	240.694033	0.000578	5.776518	1.957137	-0.000231
 769	7.6416e+01	9.4008	240.512362	0.000456	4.560409	1.545108	-0.000183
 770	7.6516e+01	9.3511	240.282245	0.000578	5.776518	1.957137	-0.000231
 771	7.6615e+01	9.3222	240.076351	0.000517	5.168463	1.751123	-0.000207
 772	7.6715e+01	9.2853	239.793751	0.000709	7.093969	2.403502	-0.000284
 773	7.6814e+01	9.2340	239.595932	0.000497	4.965779	1.682451	-0.000199
 774	7.6913e+01	9.1923	239.373889	0.000557	5.573833	1.888466	-0.000223
 775	7.7013e+01	9.1521	239.123587	0.000628	6.283230	2.128816	-0.000252
 776	7.7112e+01	9.1104	238.889433	0.000588	5.877860	1.991473	-0.000235
 777	7.7212e+01	9.0864	238.691613	0.000497	4.965779	1.682451	-0.000199
 778	7.7311e+01	9.0479	238.433237	0.000649	6.485915	2.197487	-0.000260
 779	7.7411e+01	8.9965	238.211194	0.000557	5.573833	1.888466	-0.000223
 780	7.7510e+01	8.9564	238.029523	0.000456	4.560409	1.545108	-0.000183
 781	7.7610e+01	8.9115	237.763072	0.000669	6.688600	2.266159	-0.000268
 782	7.7710e+01	8.8826	237.532955	0.000578	5.776518	1.957137	-0.000231
 783	7.7809e+01	8.8393	237.306876	0.000568	5.675175	1.922802	-0.000227
 784	7.7909e+01	8.8024	237.056573	0.000628	6.283230	2.128816	-0.000252
 785	7.8008e+01	8.7543	236.830494	0.000568	5.675175	1.922802	-0.000227
 786	7.8108e+01	8.7078	236.628637	0.000507	5.067121	1.716787	-0.000203
 787	7.8207e+01	8.6757	236.354112	0.000689	6.891285	2.334830	-0.000276
 788	7.8306e+01	8.6388	236.128032	0.000568	5.675175	1.922802	-0.000227
 789	7.8406e+01	8.5987	235.910027	0.000547	5.472491	1.854130	-0.000219
 790	7.8505e+01	8.5570	235.635502	0.000689	6.891285	2.334830	-0.000276
 791	7.8605e+01	8.5137	235.429608	0.000517	5.168463	1.751123	-0.000207
 792	7.8704e+01	8.4864	235.231788	0.000497	4.965779	1.682451	-0.000199
 793	7.8804e+01	8.4399	234.965337	0.000669	6.688600	2.266159	-0.000268
 794	7.8903e+01	8.4030	234.743295	0.000557	5.573833	1.888466	-0.000223
 795	7.9003e+01	8.3516	234.468769	0.000689	6.891285	2.334830	-0.000276
 796	7.9103e+01	8.3115	234.238653	0.000578	5.776518	1.957137	-0.000231
 797	7.9202e+01	8.2778	234.040833	0.000497	4.965779	1.682451	-0.000199
 798	7.9302e+01	8.2377	233.762271	0.000699	6.992627	2.369166	-0.000280
 799	7.9401e+01	8.2024	233.532154	0.000578	5.776518	1.957137	-0.000231
 800	7.9501e+01	8.1559	233.310111	0.000557	5.573833	1.888466	-0.000223
 801	7.9600e+01	8.1206	233.055772	0.000638	6.384572	2.163152	-0.000256
 802	7.9700e+01	8.0789	232.797395	0.000649	6.485915	2.197487	-0.000260
 803	7.9799e+01	8.0404	232.591501	0.000517	5.168463	1.751123	-0.000207
 804	7.9898e+01	7.9939	232.333125	0.000649	6.485915	2.197487	-0.000260
 805	7.9998e+01	7.9698	232.074748	0.000649	6.485915	2.197487	-0.000260
 806	8.0097e+01	7.9217	231.828483	0.000618	6.181888	2.094480	-0.000248
 807	8.0197e+01	7.8736	231.630663	0.000497	4.965779	1.682451	-0.000199
 808	8.0296e+01	7.8415	231.360175	0.000679	6.789942	2.300495	-0.000272
 809	8.0396e+01	7.8078	231.130058	0.000578	5.776518	1.957137	-0.000231
 810	8.0496e+01	7.7565	230.887830	0.000608	6.080545	2.060144	-0.000243
 811	8.0595e+01	7.7228	230.637528	0.000628	6.283230	2.128816	-0.000252
 812	8.0695e+01	7.6779	230.387225	0.000628	6.283230	2.128816	-0.000252
 813	8.0794e+01	7.6410	230.140960	0.000618	6.181888	2.094480	-0.000248
 814	8.0894e+01	7.6057	229.894695	0.000618	6.181888	2.094480	-0.000248
 815	8.0993e+01	7.5640	229.680726	0.000537	5.371148	1.819794	-0.000215
 816	8.1093e+01	7.5239	229.402164	0.000699	6.992627	2.369166	-0.000280
 817	8.1192e+01	7.4821	229.155899	0.000618	6.181888	2.094480	-0.000248
 818	8.1291e+01	7.4501	228.909633	0.000618	6.181888	2.094480	-0.000248
 819	8.1391e+01	7.3971	228.639145	0.000679	6.789942	2.300495	-0.000272
 820	8.1490e+01	7.3586	228.380769	0.000649	6.485915	2.197487	-0.000260
 821	8.1590e+01	7.3249	228.178912	0.000507	5.067121	1.716787	-0.000203
 822	8.1689e+01	7.2832	227.900350	0.000699	6.992627	2.369166	-0.000280
 823	8.1789e+01	7.2447	227.694456	0.000517	5.168463	1.751123	-0.000207
 824	8.1888e+01	7.1966	227.415893	0.000699	6.992627	2.369166	-0.000280
 825	8.1988e+01	7.1661	227.201925	0.000537	5.371148	1.819794	-0.000215
 826	8.2088e+01	7.1212	226.931437	0.000679	6.789942	2.300495	-0.000272
 827	8.2187e+01	7.0811	226.652875	0.000699	6.992627	2.369166	-0.000280
 828	8.2287e+01	7.0410	226.426795	0.000568	5.675175	1.922802	-0.000227
 829	8.2386e+01	7.0057	226.160344	0.000669	6.688600	2.266159	-0.000268
 830	8.2486e+01	6.9624	225.954450	0.000517	5.168463	1.751123	-0.000207
 831	8.2585e+01	6.9175	225.667813	0.000720	7.195312	2.437838	-0.000288
 832	8.2684e+01	6.8790	225.453845	0.000537	5.371148	1.819794	-0.000215
 833	8.2784e+01	6.8485	225.167209	0.000720	7.195312	2.437838	-0.000288
 834	8.2883e+01	6.8084	224.892683	0.000689	6.891285	2.334830	-0.000276
 835	8.2983e+01	6.7650	224.642381	0.000628	6.283230	2.128816	-0.000252
 836	8.3082e+01	6.7298	224.392079	0.000628	6.283230	2.128816	-0.000252
 837	8.3182e+01	6.6768	224.117553	0.000689	6.891285	2.334830	-0.000276
 838	8.3281e+01	6.6528	223.859177	0.000649	6.485915	2.197487	-0.000260
 839	8.3381e+01	6.6046	223.596763	0.000659	6.587257	2.231823	-0.000264
 840	8.3481e+01	6.5661	223.358572	0.000598	5.979203	2.025809	-0.000239
 841	8.3580e+01	6.5308	223.084047	0.000689	6.891285	2.334830	-0.000276
 842	8.3680e+01	6.4843	222.805484	0.000699	6.992627	2.369166	-0.000280
 843	8.3779e+01	6.4442	222.579405	0.000568	5.675175	1.922802	-0.000227
 844	8.3879e+01	6.4025	222.329102	0.000628	6.283230	2.128816	-0.000252
 845	8.3978e+01	6.3688	222.030354	0.000750	7.499339	2.540845	-0.000300
 846	8.4078e+01	6.3303	221.788126	0.000608	6.080545	2.060144	-0.000243
 847	8.4177e+01	6.2982	221.549935	0.000598	5.979203	2.025809	-0.000239
 848	8.4276e+01	6.2485	221.275410	0.000689	6.891285	2.334830	-0.000276
 849	8.4376e+01	6.2100	221.029145	0.000618	6.181888	2.094480	-0.000248
 850	8.4475e+01	6.1667	220.742508	0.000720	7.195312	2.437838	-0.000288
 851	8.4575e+01	6.1314	220.484131	0.000649	6.485915	2.197487	-0.000260
 852	8.4674e+01	6.0881	220.237866	0.000618	6.181888	2.094480	-0.000248
 853	8.4774e+01	6.0512	219.959304	0.000699	6.992627	2.369166	-0.000280
 854	8.4874e+01	6.0062	219.700927	0.000649	6.485915	2.197487	-0.000260
 855	8.4973e+01	5.9726	219.458699	0.000608	6.080545	2.060144	-0.000243
 856	8.5073e+01	5.9405	219.208396	0.000628	6.283230	2.128816	-0.000252
 857	8.5172e+01	5.8923	218.921760	0.000720	7.195312	2.437838	-0.000288
 858	8.5272e+01	5.8538	218.651272	0.000679	6.789942	2.300495	-0.000272
 859	8.5371e+01	5.8153	218.348486	0.000760	7.600681	2.575181	-0.000304
 860	8.5471e+01	5.7704	218.130481	0.000547	5.472491	1.854130	-0.000219
 861	8.5570e+01	5.7287	217.855956	0.000689	6.891285	2.334830	-0.000276
 862	8.5669e+01	5.6886	217.589505	0.000669	6.688600	2.266159	-0.000268
 863	8.5769e+01	5.6533	217.314980	0.000689	6.891285	2.334830	-0.000276
 864	8.5868e+01	5.6132	217.052566	0.000659	6.587257	2.231823	-0.000264
 865	8.5968e+01	5.5683	216.822449	0.000578	5.776518	1.957137	-0.000231
 866	8.6067e+01	5.5314	216.568110	0.000638	6.384572	2.163152	-0.000256
 867	8.6167e+01	5.4929	216.273399	0.000740	7.397997	2.506509	-0.000296
 868	8.6266e+01	5.4496	216.002911	0.000679	6.789942	2.300495	-0.000272
 869	8.6366e+01	5.4191	215.772794	0.000578	5.776518	1.957137	-0.000231
 870	8.6466e+01	5.3838	215.490194	0.000709	7.093969	2.403502	-0.000284
 871	8.6565e+01	5.3357	215.211632	0.000699	6.992627	2.369166	-0.000280
 872	8.6665e+01	5.2956	214.933070	0.000699	6.992627	2.369166	-0.000280
 873	8.6764e+01	5.2523	214.719101	0.000537	5.371148	1.819794	-0.000215
 874	8.6864e+01	5.2073	214.404205	0.000790	7.904709	2.678188	-0.000316
 875	8.6963e+01	5.1704	214.117568	0.000720	7.195312	2.437838	-0.000288
 876	8.7063e+01	5.1368	213.871303	0.000618	6.181888	2.094480	-0.000248
 877	8.7162e+01	5.0918	213.568518	0.000760	7.600681	2.575181	-0.000304
 878	8.7261e+01	5.0501	213.350512	0.000547	5.472491	1.854130	-0.000219
 879	8.7361e+01	5.0100	213.063876	0.000720	7.195312	2.437838	-0.000288
 880	8.7460e+01	4.9747	212.866056	0.000497	4.965779	1.682451	-0.000199
 881	8.7560e+01	4.9298	212.518862	0.000872	8.715448	2.952874	-0.000349
 882	8.7659e+01	4.8977	212.252411	0.000669	6.688600	2.266159	-0.000268
 883	8.7759e+01	4.8544	212.014220	0.000598	5.979203	2.025809	-0.000239
 884	8.7859e+01	4.8159	211.719510	0.000740	7.397997	2.506509	-0.000296
 885	8.7958e+01	4.7790	211.457096	0.000659	6.587257	2.231823	-0.000264
 886	8.8058e+01	4.7373	211.190645	0.000669	6.688600	2.266159	-0.000268
 887	8.8157e+01	4.6972	210.904008	0.000720	7.195312	2.437838	-0.000288
 888	8.8257e+01	4.6587	210.601223	0.000760	7.600681	2.575181	-0.000304
 889	8.8356e+01	4.6122	210.383218	0.000547	5.472491	1.854130	-0.000219
 890	8.8456e+01	4.5737	210.084470	0.000750	7.499339	2.540845	-0.000300
 891	8.8555e+01	4.5432	209.777647	0.000770	7.702024	2.609516	-0.000308
 892	8.8654e+01	4.5015	209.547530	0.000578	5.776518	1.957137	-0.000231
 893	8.8754e+01	4.4566	209.260894	0.000720	7.195312	2.437838	-0.000288
 894	8.8853e+01	4.4084	208.982331	0.000699	6.992627	2.369166	-0.000280
 895	8.8953e+01	4.3731	208.703769	0.000699	6.992627	2.369166	-0.000280
 896	8.9052e+01	4.3298	208.421170	0.000709	7.093969	2.403502	-0.000284
 897	8.9152e+01	4.2881	208.158756	0.000659	6.587257	2.231823	-0.000264
 898	8.9251e+01	4.2496	207.916528	0.000608	6.080545	2.060144	-0.000243
 899	8.9351e+01	4.2127	207.589520	0.000821	8.208736	2.781195	-0.000329
 900	8.9451e+01	4.1838	207.335180	0.000638	6.384572	2.163152	-0.000256
 901	8.9550e+01	4.1309	207.044506	0.000730	7.296654	2.472173	-0.000292
 902	8.9650e+01	4.0972	206.765944	0.000699	6.992627	2.369166	-0.000280
 903	8.9749e+01	4.0555	206.515642	0.000628	6.283230	2.128816	-0.000252
 904	8.9849e+01	4.0106	206.261302	0.000638	6.384572	2.163152	-0.000256
 905	8.9948e+01	3.9833	205.934294	0.000821	8.208736	2.781195	-0.000329
 906	9.0047e+01	3.9464	205.663806	0.000679	6.789942	2.300495	-0.000272
 907	9.0147e+01	3.9063	205.389281	0.000689	6.891285	2.334830	-0.000276
 908	9.0246e+01	3.8614	205.110718	0.000699	6.992627	2.369166	-0.000280
 909	9.0346e+01	3.8213	204.852342	0.000649	6.485915	2.197487	-0.000260
 910	9.0445e+01	3.7828	204.545519	0.000770	7.702024	2.609516	-0.000308
 911	9.0545e+01	3.7411	204.279068	0.000669	6.688600	2.266159	-0.000268
 912	9.0644e+01	3.7058	203.964172	0.000790	7.904709	2.678188	-0.000316
 913	9.0744e+01	3.6577	203.701758	0.000659	6.587257	2.231823	-0.000264
 914	9.0844e+01	3.6256	203.398973	0.000760	7.600681	2.575181	-0.000304
 915	9.0943e+01	3.5758	203.168856	0.000578	5.776518	1.957137	-0.000231
 916	9.1043e+01	3.5357	202.878182	0.000730	7.296654	2.472173	-0.000292
 917	9.1142e+01	3.4988	202.579434	0.000750	7.499339	2.540845	-0.000300
 918	9.1242e+01	3.4619	202.308946	0.000679	6.789942	2.300495	-0.000272
 919	9.1341e+01	3.4186	202.002124	0.000770	7.702024	2.609516	-0.000308
 920	9.1441e+01	3.3769	201.711450	0.000730	7.296654	2.472173	-0.000292
 921	9.1540e+01	3.3432	201.453073	0.000649	6.485915	2.197487	-0.000260
 922	9.1639e+01	3.2951	201.194697	0.000649	6.485915	2.197487	-0.000260
 923	9.1739e+01	3.2630	200.899986	0.000740	7.397997	2.506509	-0.000296
 924	9.1838e+01	3.2229	200.597201	0.000760	7.600681	2.575181	-0.000304
 925	9.1938e+01	3.1780	200.326712	0.000679	6.789942	2.300495	-0.000272
 926	9.2037e+01	3.1475	200.072373	0.000638	6.384572	2.163152	-0.000256
 927	9.2137e+01	3.0994	199.741328	0.000831	8.310078	2.815531	-0.000333
 928	9.2237e+01	3.0529	199.486988	0.000638	6.384572	2.163152	-0.000256
 929	9.2336e+01	3.0192	199.228612	0.000649	6.485915	2.197487	-0.000260
 930	9.2436e+01	2.9903	198.905641	0.000811	8.107394	2.746859	-0.000325
 931	9.2535e+01	2.9454	198.627078	0.000699	6.992627	2.369166	-0.000280
 932	9.2635e+01	2.9021	198.324293	0.000760	7.600681	2.575181	-0.000304
 933	9.2734e+01	2.8700	198.069954	0.000638	6.384572	2.163152	-0.000256
 934	9.2834e+01	2.8251	197.779280	0.000730	7.296654	2.472173	-0.000292
 935	9.2933e+01	2.7737	197.464383	0.000790	7.904709	2.678188	-0.000316
 936	9.3032e+01	2.7432	197.181784	0.000709	7.093969	2.403502	-0.000284
 937	9.3132e+01	2.7015	196.895147	0.000720	7.195312	2.437838	-0.000288
 938	9.3231e+01	2.6582	196.632733	0.000659	6.587257	2.231823	-0.000264
 939	9.3331e+01	2.6406	196.321874	0.000780	7.803366	2.643852	-0.000312
 940	9.3430e+01	2.5828	195.998903	0.000811	8.107394	2.746859	-0.000325
 941	9.3530e+01	2.5379	195.752638	0.000618	6.181888	2.094480	-0.000248
 942	9.3629e+01	2.4946	195.466001	0.000720	7.195312	2.437838	-0.000288
 943	9.3729e+01	2.4673	195.118807	0.000872	8.715448	2.952874	-0.000349
 944	9.3829e+01	2.4256	194.868505	0.000628	6.283230	2.128816	-0.000252
 945	9.3928e+01	2.3775	194.557645	0.000780	7.803366	2.643852	-0.000312
 946	9.4028e+01	2.3374	194.238712	0.000801	8.006051	2.712524	-0.000321
 947	9.4127e+01	2.3069	193.964187	0.000689	6.891285	2.334830	-0.000276
 948	9.4227e+01	2.2732	193.661401	0.000760	7.600681	2.575181	-0.000304
 949	9.4326e+01	2.2283	193.362653	0.000750	7.499339	2.540845	-0.000300
 950	9.4425e+01	2.1802	193.080054	0.000709	7.093969	2.403502	-0.000284
 951	9.4525e+01	2.1368	192.761120	0.000801	8.006051	2.712524	-0.000321
 952	9.4624e+01	2.1048	192.518892	0.000608	6.080545	2.060144	-0.000243
 953	9.4724e+01	2.0679	192.195921	0.000811	8.107394	2.746859	-0.000325
 954	9.4823e+01	2.0294	191.840653	0.000892	8.918133	3.021545	-0.000357
 955	9.4923e+01	1.9844	191.578239	0.000659	6.587257	2.231823	-0.000264
 956	9.5022e+01	1.9524	191.259306	0.000801	8.006051	2.712524	-0.000321
 957	9.5122e+01	1.9058	190.964595	0.000740	7.397997	2.506509	-0.000296
 958	9.5222e+01	1.8641	190.690069	0.000689	6.891285	2.334830	-0.000276
 959	9.5321e+01	1.8272	190.407470	0.000709	7.093969	2.403502	-0.000284
 960	9.5421e+01	1.7919	190.064313	0.000861	8.614106	2.918538	-0.000345
 961	9.5520e+01	1.7422	189.757491	0.000770	7.702024	2.609516	-0.000308
 962	9.5620e+01	1.7053	189.462780	0.000740	7.397997	2.506509	-0.000296
 963	9.5719e+01	1.6700	189.188255	0.000689	6.891285	2.334830	-0.000276
 964	9.5819e+01	1.6155	188.832987	0.000892	8.918133	3.021545	-0.000357
 965	9.5918e+01	1.5802	188.542313	0.000730	7.296654	2.472173	-0.000292
 966	9.6017e+01	1.5369	188.247602	0.000740	7.397997	2.506509	-0.000296
 967	9.6117e+01	1.5064	187.969040	0.000699	6.992627	2.369166	-0.000280
 968	9.6216e+01	1.4599	187.633958	0.000841	8.411421	2.849867	-0.000337
 969	9.6316e+01	1.4278	187.339247	0.000740	7.397997	2.506509	-0.000296
 970	9.6415e+01	1.3764	187.044536	0.000740	7.397997	2.506509	-0.000296
 971	9.6515e+01	1.3363	186.749825	0.000740	7.397997	2.506509	-0.000296
 972	9.6615e+01	1.3058	186.443003	0.000770	7.702024	2.609516	-0.000308
 973	9.6714e+01	1.2657	186.099846	0.000861	8.614106	2.918538	-0.000345
 974	9.6814e+01	1.2240	185.829358	0.000679	6.789942	2.300495	-0.000272
 975	9.6913e+01	1.1871	185.490239	0.000851	8.512763	2.884202	-0.000341
 976	9.7013e+01	1.1502	185.183416	0.000770	7.702024	2.609516	-0.000308
 977	9.7112e+01	1.1021	184.884668	0.000750	7.499339	2.540845	-0.000300
 978	9.7212e+01	1.0588	184.573809	0.000780	7.803366	2.643852	-0.000312
 979	9.7311e+01	1.0203	184.246801	0.000821	8.208736	2.781195	-0.000329
 980	9.7410e+01	0.9818	183.960164	0.000720	7.195312	2.437838	-0.000288
 981	9.7510e+01	0.9433	183.649305	0.000780	7.803366	2.643852	-0.000312
 982	9.7609e+01	0.9128	183.314222	0.000841	8.411421	2.849867	-0.000337
 983	9.7709e+01	0.8727	183.015474	0.000750	7.499339	2.540845	-0.000300
 984	9.7808e+01	0.8262	182.684429	0.000831	8.310078	2.815531	-0.000333
 985	9.7908e+01	0.7845	182.393756	0.000730	7.296654	2.472173	-0.000292
 986	9.8007e+01	0.7588	182.099045	0.000740	7.397997	2.506509	-0.000296
 987	9.8107e+01	0.7107	181.731665	0.000922	9.222160	3.124552	-0.000369
 988	9.8207e+01	0.6642	181.469251	0.000659	6.587257	2.231823	-0.000264
 989	9.8306e+01	0.6401	181.118021	0.000882	8.816790	2.987209	-0.000353
 990	9.8406e+01	0.5952	180.815235	0.000760	7.600681	2.575181	-0.000304
 991	9.8505e+01	0.5519	180.488227	0.000821	8.208736	2.781195	-0.000329
 992	9.8605e+01	0.5166	180.165257	0.000811	8.107394	2.746859	-0.000325
 993	9.8704e+01	0.4732	179.878620	0.000720	7.195312	2.437838	-0.000288
 994	9.8803e+01	0.4347	179.535463	0.000861	8.614106	2.918538	-0.000345
 995	9.8903e+01	0.3898	179.196344	0.000851	8.512763	2.884202	-0.000341
 996	9.9002e+01	0.3481	178.921819	0.000689	6.891285	2.334830	-0.000276
 997	9.9102e+01	0.3064	178.602885	0.000801	8.006051	2.712524	-0.000321
 998	9.9201e+01	0.2711	178.267803	0.000841	8.411421	2.849867	-0.000337
 999	9.9301e+01	0.2294	177.960980	0.000770	7.702024	2.609516	-0.000308
1000	9.9400e+01	0.1941	177.646084	0.000790	7.904709	2.678188	-0.000316
1001	9.9500e+01	0.1604	177.339262	0.000770	7.702024	2.609516	-0.000308
1002	9.9600e+01	0.1123	176.979956	0.000902	9.019475	3.055881	-0.000361
1003	9.9699e+01	0.0690	176.677171	0.000760	7.600681	2.575181	-0.000304
1004	9.9799e+01	0.0257	176.370349	0.000770	7.702024	2.609516	-0.000308
1005	9.9898e+01	-0.0016	176.071601	0.000750	7.499339	2.540845	-0.000300
1006	9.9998e+01	-0.0417	175.780927	0.000730	7.296654	2.472173	-0.000292
1007	1.0010e+02	-0.0834	175.433733	0.000872	8.715448	2.952874	-0.000349
1008	1.0020e+02	-0.1219	175.126911	0.000770	7.702024	2.609516	-0.000308
1009	1.0030e+02	-0.1604	174.824126	0.000760	7.600681	2.575181	-0.000304
1010	1.0040e+02	-0.2021	174.468858	0.000892	8.918133	3.021545	-0.000357
1011	1.0050e+02	-0.2422	174.129739	0.000851	8.512763	2.884202	-0.000341
1012	1.0059e+02	-0.2856	173.822916	0.000770	7.702024	2.609516	-0.000308
1013	1.0069e+02	-0.3208	173.520131	0.000760	7.600681	2.575181	-0.000304
1014	1.0079e+02	-0.3545	173.168900	0.000882	8.816790	2.987209	-0.000353
1015	1.0089e+02	-0.3978	172.882264	0.000720	7.195312	2.437838	-0.000288
1016	1.0099e+02	-0.4364	172.514884	0.000922	9.222160	3.124552	-0.000369
1017	1.0109e+02	-0.4765	172.183839	0.000831	8.310078	2.815531	-0.000333
1018	1.0119e+02	-0.5150	171.836646	0.000872	8.715448	2.952874	-0.000349
1019	1.0129e+02	-0.5615	171.554046	0.000709	7.093969	2.403502	-0.000284
1020	1.0139e+02	-0.6032	171.190704	0.000912	9.120818	3.090217	-0.000365
1021	1.0149e+02	-0.6337	170.871770	0.000801	8.006051	2.712524	-0.000321
1022	1.0159e+02	-0.6834	170.581096	0.000730	7.296654	2.472173	-0.000292
1023	1.0169e+02	-0.7155	170.237940	0.000861	8.614106	2.918538	-0.000345
1024	1.0179e+02	-0.7636	169.870560	0.000922	9.222160	3.124552	-0.000369
1025	1.0189e+02	-0.7957	169.551627	0.000801	8.006051	2.712524	-0.000321
1026	1.0199e+02	-0.8406	169.232693	0.000801	8.006051	2.712524	-0.000321
1027	1.0209e+02	-0.8727	168.929908	0.000760	7.600681	2.575181	-0.000304
1028	1.0219e+02	-0.9144	168.582714	0.000872	8.715448	2.952874	-0.000349
1029	1.0229e+02	-0.9593	168.259743	0.000811	8.107394	2.746859	-0.000325
1030	1.0239e+02	-0.9914	167.936772	0.000811	8.107394	2.746859	-0.000325
1031	1.0248e+02	-1.0379	167.585542	0.000882	8.816790	2.987209	-0.000353
1032	1.0258e+02	-1.0796	167.282756	0.000760	7.600681	2.575181	-0.000304
1033	1.0268e+02	-1.1133	166.923451	0.000902	9.019475	3.055881	-0.000361
1034	1.0278e+02	-1.1663	166.608555	0.000790	7.904709	2.678188	-0.000316
1035	1.0288e+02	-1.1968	166.285584	0.000811	8.107394	2.746859	-0.000325
1036	1.0298e+02	-1.2288	165.930316	0.000892	8.918133	3.021545	-0.000357
1037	1.0308e+02	-1.2754	165.635605	0.000740	7.397997	2.506509	-0.000296
1038	1.0318e+02	-1.3203	165.304560	0.000831	8.310078	2.815531	-0.000333
1039	1.0328e+02	-1.3588	164.929106	0.000942	9.424845	3.193224	-0.000377
1040	1.0338e+02	-1.3893	164.622284	0.000770	7.702024	2.609516	-0.000308
1041	1.0348e+02	-1.4390	164.291239	0.000831	8.310078	2.815531	-0.000333
1042	1.0358e+02	-1.4727	163.972305	0.000801	8.006051	2.712524	-0.000321
1043	1.0368e+02	-1.5192	163.604926	0.000922	9.222160	3.124552	-0.000369
1044	1.0378e+02	-1.5593	163.273881	0.000831	8.310078	2.815531	-0.000333
1045	1.0388e+02	-1.6010	162.946873	0.000821	8.208736	2.781195	-0.000329
1046	1.0398e+02	-1.6267	162.672347	0.000689	6.891285	2.334830	-0.000276
1047	1.0408e+02	-1.6764	162.252485	0.001054	10.539612	3.570917	-0.000422
1048	1.0418e+02	-1.7149	161.961812	0.000730	7.296654	2.472173	-0.000292
1049	1.0428e+02	-1.7438	161.614618	0.000872	8.715448	2.952874	-0.000349
1050	1.0438e+02	-1.8016	161.307796	0.000770	7.702024	2.609516	-0.000308
1051	1.0447e+02	-1.8352	160.960602	0.000872	8.715448	2.952874	-0.000349
1052	1.0457e+02	-1.8770	160.621482	0.000851	8.512763	2.884202	-0.000341
1053	1.0467e+02	-1.9122	160.254103	0.000922	9.222160	3.124552	-0.000369
1054	1.0477e+02	-1.9524	159.927095	0.000821	8.208736	2.781195	-0.000329
1055	1.0487e+02	-1.9957	159.600087	0.000821	8.208736	2.781195	-0.000329
1056	1.0497e+02	-2.0390	159.252893	0.000872	8.715448	2.952874	-0.000349
1057	1.0507e+02	-2.0759	158.958183	0.000740	7.397997	2.506509	-0.000296
1058	1.0517e+02	-2.1176	158.619063	0.000851	8.512763	2.884202	-0.000341
1059	1.0527e+02	-2.1513	158.267832	0.000882	8.816790	2.987209	-0.000353
1060	1.0537e+02	-2.1898	157.908527	0.000902	9.019475	3.055881	-0.000361
1061	1.0547e+02	-2.2347	157.601705	0.000770	7.702024	2.609516	-0.000308
1062	1.0557e+02	-2.2700	157.222214	0.000953	9.526187	3.227560	-0.000381
1063	1.0567e+02	-2.3181	156.911355	0.000780	7.803366	2.643852	-0.000312
1064	1.0577e+02	-2.3470	156.588384	0.000811	8.107394	2.746859	-0.000325
1065	1.0587e+02	-2.3887	156.261376	0.000821	8.208736	2.781195	-0.000329
1066	1.0597e+02	-2.4320	155.930331	0.000831	8.310078	2.815531	-0.000333
1067	1.0607e+02	-2.4657	155.591211	0.000851	8.512763	2.884202	-0.000341
1068	1.0617e+02	-2.5138	155.268240	0.000811	8.107394	2.746859	-0.000325
1069	1.0627e+02	-2.5491	154.892787	0.000942	9.424845	3.193224	-0.000377
1070	1.0637e+02	-2.5908	154.577890	0.000790	7.904709	2.678188	-0.000316
1071	1.0647e+02	-2.6309	154.246845	0.000831	8.310078	2.815531	-0.000333
1072	1.0656e+02	-2.6775	153.887540	0.000902	9.019475	3.055881	-0.000361
1073	1.0666e+02	-2.7095	153.540346	0.000872	8.715448	2.952874	-0.000349
1074	1.0676e+02	-2.7513	153.229487	0.000780	7.803366	2.643852	-0.000312
1075	1.0686e+02	-2.7898	152.958999	0.000679	6.789942	2.300495	-0.000272
1076	1.0696e+02	-2.8299	152.547211	0.001034	10.336927	3.502246	-0.000414
1077	1.0706e+02	-2.8748	152.248463	0.000750	7.499339	2.540845	-0.000300
1078	1.0716e+02	-2.9149	151.860898	0.000973	9.728872	3.296231	-0.000390
1079	1.0726e+02	-2.9518	151.533890	0.000821	8.208736	2.781195	-0.000329
1080	1.0736e+02	-2.9839	151.251290	0.000709	7.093969	2.403502	-0.000284
1081	1.0746e+02	-3.0240	150.883911	0.000922	9.222160	3.124552	-0.000369
1082	1.0756e+02	-3.0705	150.548829	0.000841	8.411421	2.849867	-0.000337
1083	1.0766e+02	-3.1042	150.233932	0.000790	7.904709	2.678188	-0.000316
1084	1.0776e+02	-3.1427	149.870590	0.000912	9.120818	3.090217	-0.000365
1085	1.0786e+02	-3.1876	149.583953	0.000720	7.195312	2.437838	-0.000288
1086	1.0796e+02	-3.2181	149.256945	0.000821	8.208736	2.781195	-0.000329
1087	1.0806e+02	-3.2662	148.921863	0.000841	8.411421	2.849867	-0.000337
1088	1.0816e+02	-3.3111	148.586781	0.000841	8.411421	2.849867	-0.000337
1089	1.0826e+02	-3.3496	148.251699	0.000841	8.411421	2.849867	-0.000337
1090	1.0836e+02	-3.3930	147.956988	0.000740	7.397997	2.506509	-0.000296
1091	1.0845e+02	-3.4315	147.638054	0.000801	8.006051	2.712524	-0.000321
1092	1.0855e+02	-3.4667	147.242415	0.000993	9.931557	3.364903	-0.000398
1093	1.0865e+02	-3.5101	146.996149	0.000618	6.181888	2.094480	-0.000248
1094	1.0875e+02	-3.5534	146.661067	0.000841	8.411421	2.849867	-0.000337
1095	1.0885e+02	-3.5871	146.297725	0.000912	9.120818	3.090217	-0.000365
1096	1.0895e+02	-3.6336	145.994940	0.000760	7.600681	2.575181	-0.000304
1097	1.0905e+02	-3.6721	145.615449	0.000953	9.526187	3.227560	-0.000381
1098	1.0915e+02	-3.7074	145.361109	0.000638	6.384572	2.163152	-0.000256
1099	1.0925e+02	-3.7443	145.030064	0.000831	8.310078	2.815531	-0.000333
1100	1.0935e+02	-3.7876	144.715168	0.000790	7.904709	2.678188	-0.000316
1101	1.0945e+02	-3.8309	144.376048	0.000851	8.512763	2.884202	-0.000341
1102	1.0955e+02	-3.8710	144.073263	0.000760	7.600681	2.575181	-0.000304
1103	1.0965e+02	-3.9095	143.717995	0.000892	8.918133	3.021545	-0.000357
1104	1.0975e+02	-3.9512	143.390987	0.000821	8.208736	2.781195	-0.000329
1105	1.0985e+02	-3.9881	143.080128	0.000780	7.803366	2.643852	-0.000312
1106	1.0995e+02	-4.0298	142.773305	0.000770	7.702024	2.609516	-0.000308
1107	1.1005e+02	-4.0683	142.405926	0.000922	9.222160	3.124552	-0.000369
1108	1.1015e+02	-4.1036	142.135438	0.000679	6.789942	2.300495	-0.000272
1109	1.1025e+02	-4.1405	141.824578	0.000780	7.803366	2.643852	-0.000312
1110	1.1035e+02	-4.1870	141.485459	0.000851	8.512763	2.884202	-0.000341
1111	1.1044e+02	-4.2239	141.146340	0.000851	8.512763	2.884202	-0.000341
1112	1.1054e+02	-4.2624	140.835480	0.000780	7.803366	2.643852	-0.000312
1113	1.1064e+02	-4.3009	140.496361	0.000851	8.512763	2.884202	-0.000341
1114	1.1074e+02	-4.3459	140.161279	0.000841	8.411421	2.849867	-0.000337
1115	1.1084e+02	-4.3812	139.870605	0.000730	7.296654	2.472173	-0.000292
1116	1.1094e+02	-4.4245	139.535523	0.000841	8.411421	2.849867	-0.000337
1117	1.1104e+02	-4.4614	139.252923	0.000709	7.093969	2.403502	-0.000284
1118	1.1114e+02	-4.5031	138.877469	0.000942	9.424845	3.193224	-0.000377
1119	1.1124e+02	-4.5448	138.594870	0.000709	7.093969	2.403502	-0.000284
1120	1.1134e+02	-4.5881	138.267862	0.000821	8.208736	2.781195	-0.000329
1121	1.1144e+02	-4.6266	137.965077	0.000760	7.600681	2.575181	-0.000304
1122	1.1154e+02	-4.6603	137.601734	0.000912	9.120818	3.090217	-0.000365
1123	1.1164e+02	-4.7004	137.339321	0.000659	6.587257	2.231823	-0.000264
1124	1.1174e+02	-4.7469	136.992127	0.000872	8.715448	2.952874	-0.000349
1125	1.1184e+02	-4.7838	136.717602	0.000689	6.891285	2.334830	-0.000276
1126	1.1194e+02	-4.8271	136.370408	0.000872	8.715448	2.952874	-0.000349
1127	1.1204e+02	-4.8640	136.071660	0.000750	7.499339	2.540845	-0.000300
1128	1.1214e+02	-4.8961	135.744652	0.000821	8.208736	2.781195	-0.000329
1129	1.1224e+02	-4.9475	135.429755	0.000790	7.904709	2.678188	-0.000316
1130	1.1234e+02	-4.9956	135.147156	0.000709	7.093969	2.403502	-0.000284
1131	1.1244e+02	-5.0212	134.795925	0.000882	8.816790	2.987209	-0.000353
1132	1.1253e+02	-5.0549	134.509289	0.000720	7.195312	2.437838	-0.000288
1133	1.1263e+02	-5.1047	134.186318	0.000811	8.107394	2.746859	-0.000325
1134	1.1273e+02	-5.1368	133.895644	0.000730	7.296654	2.472173	-0.000292
1135	1.1283e+02	-5.1849	133.568636	0.000821	8.208736	2.781195	-0.000329
1136	1.1293e+02	-5.2202	133.269888	0.000750	7.499339	2.540845	-0.000300
1137	1.1303e+02	-5.2667	132.995363	0.000689	6.891285	2.334830	-0.000276
1138	1.1313e+02	-5.2972	132.644132	0.000882	8.816790	2.987209	-0.000353
1139	1.1323e+02	-5.3373	132.345384	0.000750	7.499339	2.540845	-0.000300
1140	1.1333e+02	-5.3854	132.010301	0.000841	8.411421	2.849867	-0.000337
1141	1.1343e+02	-5.4175	131.715591	0.000740	7.397997	2.506509	-0.000296
1142	1.1353e+02	-5.4576	131.424917	0.000730	7.296654	2.472173	-0.000292
1143	1.1363e+02	-5.4961	131.101946	0.000811	8.107394	2.746859	-0.000325
1144	1.1373e+02	-5.5394	130.791087	0.000780	7.803366	2.643852	-0.000312
1145	1.1383e+02	-5.5811	130.492338	0.000750	7.499339	2.540845	-0.000300
1146	1.1393e+02	-5.6132	130.233962	0.000649	6.485915	2.197487	-0.000260
1147	1.1403e+02	-5.6645	129.874657	0.000902	9.019475	3.055881	-0.000361
1148	1.1413e+02	-5.6966	129.608206	0.000669	6.688600	2.266159	-0.000268
1149	1.1423e+02	-5.7399	129.285235	0.000811	8.107394	2.746859	-0.000325
1150	1.1433e+02	-5.7720	128.982450	0.000760	7.600681	2.575181	-0.000304
1151	1.1442e+02	-5.8137	128.663516	0.000801	8.006051	2.712524	-0.000321
1152	1.1452e+02	-5.8603	128.384954	0.000699	6.992627	2.369166	-0.000280
1153	1.1462e+02	-5.9020	128.009500	0.000942	9.424845	3.193224	-0.000377
1154	1.1472e+02	-5.9421	127.743049	0.000669	6.688600	2.266159	-0.000268
1155	1.1482e+02	-5.9790	127.464487	0.000699	6.992627	2.369166	-0.000280
1156	1.1492e+02	-6.0239	127.181887	0.000709	7.093969	2.403502	-0.000284
1157	1.1502e+02	-6.0624	126.858916	0.000811	8.107394	2.746859	-0.000325
1158	1.1512e+02	-6.0961	126.556131	0.000760	7.600681	2.575181	-0.000304
1159	1.1522e+02	-6.1394	126.249309	0.000770	7.702024	2.609516	-0.000308
1160	1.1532e+02	-6.1731	125.934412	0.000790	7.904709	2.678188	-0.000316
1161	1.1542e+02	-6.2228	125.684110	0.000628	6.283230	2.128816	-0.000252
1162	1.1552e+02	-6.2565	125.328842	0.000892	8.918133	3.021545	-0.000357
1163	1.1562e+02	-6.2998	125.042205	0.000720	7.195312	2.437838	-0.000288
1164	1.1572e+02	-6.3335	124.767680	0.000689	6.891285	2.334830	-0.000276
1165	1.1582e+02	-6.3832	124.481043	0.000720	7.195312	2.437838	-0.000288
1166	1.1592e+02	-6.4121	124.158072	0.000811	8.107394	2.746859	-0.000325
1167	1.1602e+02	-6.4506	123.895659	0.000659	6.587257	2.231823	-0.000264
1168	1.1612e+02	-6.4891	123.596911	0.000750	7.499339	2.540845	-0.000300
1169	1.1622e+02	-6.5356	123.306237	0.000730	7.296654	2.472173	-0.000292
1170	1.1632e+02	-6.5774	123.007489	0.000750	7.499339	2.540845	-0.000300
1171	1.1642e+02	-6.6110	122.732964	0.000689	6.891285	2.334830	-0.000276
1172	1.1651e+02	-6.6624	122.454401	0.000699	6.992627	2.369166	-0.000280
1173	1.1661e+02	-6.6993	122.147579	0.000770	7.702024	2.609516	-0.000308
1174	1.1671e+02	-6.7298	121.800385	0.000872	8.715448	2.952874	-0.000349
1175	1.1681e+02	-6.7827	121.493563	0.000770	7.702024	2.609516	-0.000308
1176	1.1691e+02	-6.8148	121.206926	0.000720	7.195312	2.437838	-0.000288
1177	1.1701e+02	-6.8533	120.908178	0.000750	7.499339	2.540845	-0.000300
1178	1.1711e+02	-6.9014	120.625579	0.000709	7.093969	2.403502	-0.000284
1179	1.1721e+02	-6.9223	120.318756	0.000770	7.702024	2.609516	-0.000308
1180	1.1731e+02	-6.9688	120.048268	0.000679	6.789942	2.300495	-0.000272
1181	1.1741e+02	-7.0185	119.725297	0.000811	8.107394	2.746859	-0.000325
1182	1.1751e+02	-7.0474	119.446735	0.000699	6.992627	2.369166	-0.000280
1183	1.1761e+02	-7.0875	119.139913	0.000770	7.702024	2.609516	-0.000308
1184	1.1771e+02	-7.1356	118.845202	0.000740	7.397997	2.506509	-0.000296
1185	1.1781e+02	-7.1789	118.562602	0.000709	7.093969	2.403502	-0.000284
1186	1.1791e+02	-7.2094	118.312300	0.000628	6.283230	2.128816	-0.000252
1187	1.1801e+02	-7.2592	117.957032	0.000892	8.918133	3.021545	-0.000357
1188	1.1811e+02	-7.2912	117.682507	0.000689	6.891285	2.334830	-0.000276
1189	1.1821e+02	-7.3362	117.391833	0.000730	7.296654	2.472173	-0.000292
1190	1.1831e+02	-7.3666	117.105196	0.000720	7.195312	2.437838	-0.000288
1191	1.1841e+02	-7.4083	116.818560	0.000720	7.195312	2.437838	-0.000288
1192	1.1850e+02	-7.4452	116.560183	0.000649	6.485915	2.197487	-0.000260
1193	1.1860e+02	-7.4902	116.253361	0.000770	7.702024	2.609516	-0.000308
1194	1.1870e+02	-7.5351	115.954613	0.000750	7.499339	2.540845	-0.000300
1195	1.1880e+02	-7.5656	115.684125	0.000679	6.789942	2.300495	-0.000272
1196	1.1890e+02	-7.6073	115.381339	0.000760	7.600681	2.575181	-0.000304
1197	1.1900e+02	-7.6490	115.118926	0.000659	6.587257	2.231823	-0.000264
1198	1.1910e+02	-7.6939	114.804029	0.000790	7.904709	2.678188	-0.000316
1199	1.1920e+02	-7.7260	114.509318	0.000740	7.397997	2.506509	-0.000296
1200	1.1930e+02	-7.7677	114.283238	0.000568	5.675175	1.922802	-0.000227
1201	1.1940e+02	-7.8110	113.944119	0.000851	8.512763	2.884202	-0.000341
1202	1.1950e+02	-7.8463	113.685742	0.000649	6.485915	2.197487	-0.000260
1203	1.1960e+02	-7.8880	113.399106	0.000720	7.195312	2.437838	-0.000288
1204	1.1970e+02	-7.9281	113.148803	0.000628	6.283230	2.128816	-0.000252
1205	1.1980e+02	-7.9714	112.866204	0.000709	7.093969	2.403502	-0.000284
1206	1.1990e+02	-8.0228	112.555344	0.000780	7.803366	2.643852	-0.000312
1207	1.2000e+02	-8.0404	112.276782	0.000699	6.992627	2.369166	-0.000280
1208	1.2010e+02	-8.0789	112.054740	0.000557	5.573833	1.888466	-0.000223
1209	1.2020e+02	-8.1319	111.735806	0.000801	8.006051	2.712524	-0.000321
1210	1.2030e+02	-8.1688	111.400724	0.000841	8.411421	2.849867	-0.000337
1211	1.2039e+02	-8.2105	111.150421	0.000628	6.283230	2.128816	-0.000252
1212	1.2049e+02	-8.2474	110.900119	0.000628	6.283230	2.128816	-0.000252
1213	1.2059e+02	-8.2810	110.593296	0.000770	7.702024	2.609516	-0.000308
1214	1.2069e+02	-8.3324	110.322808	0.000679	6.789942	2.300495	-0.000272
1215	1.2079e+02	-8.3564	110.056357	0.000669	6.688600	2.266159	-0.000268
1216	1.2089e+02	-8.4158	109.761646	0.000740	7.397997	2.506509	-0.000296
1217	1.2099e+02	-8.4495	109.483084	0.000699	6.992627	2.369166	-0.000280
1218	1.2109e+02	-8.4912	109.216633	0.000669	6.688600	2.266159	-0.000268
1219	1.2119e+02	-8.5249	108.950182	0.000669	6.688600	2.266159	-0.000268
1220	1.2129e+02	-8.5650	108.639323	0.000780	7.803366	2.643852	-0.000312
1221	1.2139e+02	-8.6067	108.380946	0.000649	6.485915	2.197487	-0.000260
1222	1.2149e+02	-8.6420	108.134681	0.000618	6.181888	2.094480	-0.000248
1223	1.2159e+02	-8.6789	107.839970	0.000740	7.397997	2.506509	-0.000296
1224	1.2169e+02	-8.7334	107.573519	0.000669	6.688600	2.266159	-0.000268
1225	1.2179e+02	-8.7591	107.290919	0.000709	7.093969	2.403502	-0.000284
1226	1.2189e+02	-8.8056	106.996208	0.000740	7.397997	2.506509	-0.000296
1227	1.2199e+02	-8.8425	106.745906	0.000628	6.283230	2.128816	-0.000252
1228	1.2209e+02	-8.8858	106.447158	0.000750	7.499339	2.540845	-0.000300
1229	1.2219e+02	-8.9195	106.253375	0.000486	4.864436	1.648116	-0.000195
1230	1.2229e+02	-8.9516	105.885996	0.000922	9.222160	3.124552	-0.000369
1231	1.2239e+02	-8.9997	105.643768	0.000608	6.080545	2.060144	-0.000243
1232	1.2248e+02	-9.0495	105.381354	0.000659	6.587257	2.231823	-0.000264
1233	1.2258e+02	-9.0880	105.114903	0.000669	6.688600	2.266159	-0.000268
1234	1.2268e+02	-9.1136	104.824229	0.000730	7.296654	2.472173	-0.000292
1235	1.2278e+02	-9.1682	104.577964	0.000618	6.181888	2.094480	-0.000248
1236	1.2288e+02	-9.2035	104.279216	0.000750	7.499339	2.540845	-0.000300
1237	1.2298e+02	-9.2580	104.004691	0.000689	6.891285	2.334830	-0.000276
1238	1.2308e+02	-9.2805	103.746314	0.000649	6.485915	2.197487	-0.000260
1239	1.2318e+02	-9.3222	103.487938	0.000649	6.485915	2.197487	-0.000260
1240	1.2328e+02	-9.3559	103.205338	0.000709	7.093969	2.403502	-0.000284
1241	1.2338e+02	-9.4072	102.938887	0.000669	6.688600	2.266159	-0.000268
1242	1.2348e+02	-9.4441	102.684547	0.000638	6.384572	2.163152	-0.000256
1243	1.2358e+02	-9.4778	102.385799	0.000750	7.499339	2.540845	-0.000300
1244	1.2368e+02	-9.5227	102.131460	0.000638	6.384572	2.163152	-0.000256
1245	1.2378e+02	-9.5612	101.885195	0.000618	6.181888	2.094480	-0.000248
1246	1.2388e+02	-9.5981	101.610669	0.000689	6.891285	2.334830	-0.000276
1247	1.2398e+02	-9.6446	101.315958	0.000740	7.397997	2.506509	-0.000296
1248	1.2408e+02	-9.6848	101.041433	0.000689	6.891285	2.334830	-0.000276
1249	1.2418e+02	-9.7217	100.766908	0.000689	6.891285	2.334830	-0.000276
1250	1.2428e+02	-9.7602	100.508531	0.000649	6.485915	2.197487	-0.000260
1251	1.2438e+02	-9.8051	100.197672	0.000780	7.803366	2.643852	-0.000312
1252	1.2447e+02	-9.8452	99.943332	0.000638	6.384572	2.163152	-0.000256
1253	1.2457e+02	-9.8773	99.672844	0.000679	6.789942	2.300495	-0.000272
1254	1.2467e+02	-9.9093	99.434653	0.000598	5.979203	2.025809	-0.000239
1255	1.2477e+02	-9.9591	99.095534	0.000851	8.512763	2.884202	-0.000341
1256	1.2487e+02	-10.0024	98.837157	0.000649	6.485915	2.197487	-0.000260
1257	1.2497e+02	-10.0489	98.538409	0.000750	7.499339	2.540845	-0.000300
1258	1.2507e+02	-10.0810	98.239661	0.000750	7.499339	2.540845	-0.000300
1259	1.2517e+02	-10.1211	97.940913	0.000750	7.499339	2.540845	-0.000300
1260	1.2527e+02	-10.1596	97.646202	0.000740	7.397997	2.506509	-0.000296
1261	1.2537e+02	-10.2013	97.351491	0.000740	7.397997	2.506509	-0.000296
1262	1.2547e+02	-10.2334	97.056780	0.000740	7.397997	2.506509	-0.000296
1263	1.2557e+02	-10.2703	96.794366	0.000659	6.587257	2.231823	-0.000264
1264	1.2567e+02	-10.3184	96.439099	0.000892	8.918133	3.021545	-0.000357
1265	1.2577e+02	-10.3666	96.168610	0.000679	6.789942	2.300495	-0.000272
1266	1.2587e+02	-10.4018	95.817380	0.000882	8.816790	2.987209	-0.000353
1267	1.2597e+02	-10.4420	95.514594	0.000760	7.600681	2.575181	-0.000304
1268	1.2607e+02	-10.4805	95.175475	0.000851	8.512763	2.884202	-0.000341
1269	1.2617e+02	-10.5254	94.876727	0.000750	7.499339	2.540845	-0.000300
1270	1.2627e+02	-10.5510	94.529533	0.000872	8.715448	2.952874	-0.000349
1271	1.2636e+02	-10.5944	94.202525	0.000821	8.208736	2.781195	-0.000329
1272	1.2646e+02	-10.6441	93.879554	0.000811	8.107394	2.746859	-0.000325
1273	1.2656e+02	-10.6826	93.552546	0.000821	8.208736	2.781195	-0.000329
1274	1.2666e+02	-10.7147	93.205353	0.000872	8.715448	2.952874	-0.000349
1275	1.2676e+02	-10.7580	92.854122	0.000882	8.816790	2.987209	-0.000353
1276	1.2686e+02	-10.7933	92.462520	0.000983	9.830215	3.330567	-0.000394
1277	1.2696e+02	-10.8462	92.115326	0.000872	8.715448	2.952874	-0.000349
1278	1.2706e+02	-10.8783	91.780244	0.000841	8.411421	2.849867	-0.000337
1279	1.2716e+02	-10.9168	91.433050	0.000872	8.715448	2.952874	-0.000349
1280	1.2726e+02	-10.9569	91.045485	0.000973	9.728872	3.296231	-0.000390
1281	1.2736e+02	-10.9954	90.670032	0.000942	9.424845	3.193224	-0.000377
1282	1.2746e+02	-11.0419	90.286504	0.000963	9.627530	3.261895	-0.000385
1283	1.2756e+02	-11.0852	89.915087	0.000932	9.323503	3.158888	-0.000373
1284	1.2766e+02	-11.1205	89.555782	0.000902	9.019475	3.055881	-0.000361
1285	1.2776e+02	-11.1606	89.156106	0.001003	10.032900	3.399238	-0.000402
1286	1.2786e+02	-11.1943	88.760466	0.000993	9.931557	3.364903	-0.000398
1287	1.2796e+02	-11.2393	88.372901	0.000973	9.728872	3.296231	-0.000390
1288	1.2806e+02	-11.2713	87.997448	0.000942	9.424845	3.193224	-0.000377
1289	1.2816e+02	-11.3195	87.589697	0.001024	10.235584	3.467910	-0.000410
1290	1.2826e+02	-11.3676	87.173872	0.001044	10.438269	3.536581	-0.000418
1291	1.2835e+02	-11.3949	86.778233	0.000993	9.931557	3.364903	-0.000398
1292	1.2845e+02	-11.4302	86.358371	0.001054	10.539612	3.570917	-0.000422
1293	1.2855e+02	-11.4767	85.918323	0.001105	11.046324	3.742596	-0.000442
1294	1.2865e+02	-11.5088	85.538832	0.000953	9.526187	3.227560	-0.000381
1295	1.2875e+02	-11.5585	85.066487	0.001186	11.857063	4.017282	-0.000475
1296	1.2885e+02	-11.5922	84.686996	0.000953	9.526187	3.227560	-0.000381
1297	1.2895e+02	-11.6307	84.267134	0.001054	10.539612	3.570917	-0.000422
1298	1.2905e+02	-11.6740	83.778641	0.001226	12.262433	4.154625	-0.000491
1299	1.2915e+02	-11.7221	83.378964	0.001003	10.032900	3.399238	-0.000402
1300	1.2925e+02	-11.7478	82.934879	0.001115	11.147666	3.776932	-0.000446
1301	1.2935e+02	-11.7927	82.539240	0.000993	9.931557	3.364903	-0.000398
1302	1.2945e+02	-11.8376	82.062858	0.001196	11.958405	4.051617	-0.000479
1303	1.2955e+02	-11.8793	81.630885	0.001084	10.843639	3.673924	-0.000434
1304	1.2965e+02	-11.9098	81.154503	0.001196	11.958405	4.051617	-0.000479
1305	1.2975e+02	-11.9515	80.742715	0.001034	10.336927	3.502246	-0.000414
1306	1.2985e+02	-11.9916	80.229999	0.001287	12.870487	4.360639	-0.000515
1307	1.2995e+02	-12.0414	79.822248	0.001024	10.235584	3.467910	-0.000410
1308	1.3005e+02	-12.0735	79.345866	0.001196	11.958405	4.051617	-0.000479
1309	1.3015e+02	-12.1264	78.841224	0.001267	12.667802	4.291968	-0.000507
1310	1.3025e+02	-12.1521	78.368879	0.001186	11.857063	4.017282	-0.000475
1311	1.3034e+02	-12.2002	77.904608	0.001165	11.654378	3.948610	-0.000467
1312	1.3044e+02	-12.2275	77.399966	0.001267	12.667802	4.291968	-0.000507
1313	1.3054e+02	-12.2804	76.935696	0.001165	11.654378	3.948610	-0.000467
1314	1.3064e+02	-12.3093	76.475462	0.001155	11.553036	3.914274	-0.000463
1315	1.3074e+02	-12.3526	75.918338	0.001399	13.985254	4.738332	-0.000560
1316	1.3084e+02	-12.3943	75.437918	0.001206	12.059748	4.085953	-0.000483
1317	1.3094e+02	-12.4312	74.921165	0.001297	12.971830	4.394975	-0.000519
1318	1.3104e+02	-12.4745	74.420560	0.001257	12.566460	4.257632	-0.000503
1319	1.3114e+02	-12.5130	73.932067	0.001226	12.262433	4.154625	-0.000491
1320	1.3124e+02	-12.5451	73.459722	0.001186	11.857063	4.017282	-0.000475
1321	1.3134e+02	-12.5996	72.947006	0.001287	12.870487	4.360639	-0.000515
1322	1.3144e+02	-12.6365	72.397955	0.001378	13.782569	4.669661	-0.000552
1323	1.3154e+02	-12.6606	71.865053	0.001338	13.377199	4.532318	-0.000536
1324	1.3164e+02	-12.7135	71.295817	0.001429	14.289281	4.841339	-0.000572
1325	1.3174e+02	-12.7585	70.779064	0.001297	12.971830	4.394975	-0.000519
1326	1.3184e+02	-12.7938	70.230013	0.001378	13.782569	4.669661	-0.000552
1327	1.3194e+02	-12.8226	69.693074	0.001348	13.478542	4.566654	-0.000540
1328	1.3204e+02	-12.8676	69.160172	0.001338	13.377199	4.532318	-0.000536
1329	1.3214e+02	-12.9125	68.594973	0.001419	14.187939	4.807004	-0.000568
1330	1.3224e+02	-12.9397	68.005552	0.001480	14.795993	5.013018	-0.000592
1331	1.3234e+02	-12.9879	67.444390	0.001409	14.086596	4.772668	-0.000564
1332	1.3243e+02	-13.0167	66.907451	0.001348	13.478542	4.566654	-0.000540
1333	1.3253e+02	-13.0665	66.313992	0.001490	14.897336	5.047354	-0.000596
1334	1.3263e+02	-13.1146	65.736681	0.001449	14.491966	4.910011	-0.000580
1335	1.3273e+02	-13.1483	65.147259	0.001480	14.795993	5.013018	-0.000592
1336	1.3283e+02	-13.1900	64.553800	0.001490	14.897336	5.047354	-0.000596
1337	1.3293e+02	-13.2365	63.988601	0.001419	14.187939	4.807004	-0.000568
1338	1.3303e+02	-13.2606	63.378994	0.001530	15.302705	5.184697	-0.000613
1339	1.3313e+02	-13.3135	62.769386	0.001530	15.302705	5.184697	-0.000613
1340	1.3323e+02	-13.3408	62.155742	0.001540	15.404048	5.219033	-0.000617
1341	1.3333e+02	-13.3857	61.513837	0.001611	16.113445	5.459383	-0.000645
1342	1.3343e+02	-13.4371	60.912304	0.001510	15.100020	5.116025	-0.000605
1343	1.3353e+02	-13.4659	60.270399	0.001611	16.113445	5.459383	-0.000645
1344	1.3363e+02	-13.5044	59.632532	0.001601	16.012102	5.425047	-0.000641
1345	1.3373e+02	-13.5413	58.966405	0.001672	16.721499	5.665397	-0.000669
1346	1.3383e+02	-13.5814	58.348723	0.001551	15.505390	5.253368	-0.000621
1347	1.3393e+02	-13.6280	57.670484	0.001703	17.025526	5.768405	-0.000682
1348	1.3403e+02	-13.6649	57.028579	0.001611	16.113445	5.459383	-0.000645
1349	1.3413e+02	-13.7018	56.358415	0.001682	16.822842	5.699733	-0.000674
1350	1.3423e+02	-13.7483	55.684213	0.001692	16.924184	5.734069	-0.000678
1351	1.3432e+02	-13.7900	54.957529	0.001824	18.241635	6.180433	-0.000730
1352	1.3442e+02	-13.8269	54.303513	0.001642	16.417472	5.562390	-0.000657
1353	1.3452e+02	-13.8606	53.645460	0.001652	16.518814	5.596726	-0.000661
1354	1.3462e+02	-13.9087	52.934924	0.001784	17.836266	6.043090	-0.000714
1355	1.3472e+02	-13.9456	52.248611	0.001723	17.228211	5.837076	-0.000690
1356	1.3482e+02	-13.9777	51.538075	0.001784	17.836266	6.043090	-0.000714
1357	1.3492e+02	-14.0322	50.807353	0.001834	18.342978	6.214769	-0.000734
1358	1.3502e+02	-14.0595	50.056446	0.001885	18.849690	6.386448	-0.000755
1359	1.3512e+02	-14.1124	49.325724	0.001834	18.342978	6.214769	-0.000734
1360	1.3522e+02	-14.1461	48.582891	0.001865	18.647005	6.317776	-0.000747
1361	1.3532e+02	-14.1862	47.795650	0.001976	19.761772	6.695470	-0.000791
1362	1.3542e+02	-14.2279	47.097226	0.001753	17.532239	5.940083	-0.000702
1363	1.3552e+02	-14.2536	46.354393	0.001865	18.647005	6.317776	-0.000747
1364	1.3562e+02	-14.3049	45.534854	0.002057	20.572511	6.970155	-0.000824
1365	1.3572e+02	-14.3418	44.759724	0.001946	19.457744	6.592462	-0.000779
1366	1.3582e+02	-14.3852	43.988631	0.001936	19.356402	6.558127	-0.000775
1367	1.3592e+02	-14.4221	43.205427	0.001966	19.660429	6.661134	-0.000787
1368	1.3602e+02	-14.4573	42.398000	0.002027	20.268484	6.867148	-0.000811
1369	1.3612e+02	-14.4958	41.574424	0.002067	20.673854	7.004491	-0.000828
1370	1.3622e+02	-14.5520	40.787182	0.001976	19.761772	6.695470	-0.000791
1371	1.3631e+02	-14.5809	39.915161	0.002189	21.889963	7.416520	-0.000876
1372	1.3641e+02	-14.6322	39.071400	0.002118	21.180566	7.176170	-0.000848
1373	1.3651e+02	-14.6643	38.276084	0.001996	19.964457	6.764141	-0.000799
1374	1.3661e+02	-14.7044	37.408100	0.002179	21.788620	7.382184	-0.000872
1375	1.3671e+02	-14.7429	36.532041	0.002199	21.991305	7.450856	-0.000880
1376	1.3681e+02	-14.7734	35.664057	0.002179	21.788620	7.382184	-0.000872
1377	1.3691e+02	-14.8215	34.800110	0.002169	21.687278	7.347849	-0.000868
1378	1.3701e+02	-14.8600	33.899829	0.002260	22.599359	7.656870	-0.000905
1379	1.3711e+02	-14.9017	33.104513	0.001996	19.964457	6.764141	-0.000799
1380	1.3721e+02	-14.9482	32.107341	0.002503	25.031578	8.480928	-0.001002
1381	1.3731e+02	-14.9739	31.219171	0.002230	22.295332	7.553863	-0.000893
1382	1.3741e+02	-15.0156	30.246221	0.002442	24.423523	8.274914	-0.000978
1383	1.3751e+02	-15.0637	29.349977	0.002250	22.498017	7.622535	-0.000901
1384	1.3761e+02	-15.1022	28.417398	0.002341	23.410099	7.931556	-0.000937
1385	1.3771e+02	-15.1424	27.464634	0.002392	23.916811	8.103235	-0.000958
1386	1.3781e+02	-15.1793	26.491685	0.002442	24.423523	8.274914	-0.000978
1387	1.3791e+02	-15.2258	25.510661	0.002463	24.626208	8.343585	-0.000986
1388	1.3801e+02	-15.2627	24.561934	0.002382	23.815469	8.068899	-0.000953
1389	1.3811e+02	-15.2932	23.548613	0.002544	25.436947	8.618271	-0.001018
1390	1.3821e+02	-15.3252	22.523180	0.002574	25.740974	8.721278	-0.001031
1391	1.3831e+02	-15.3750	21.542156	0.002463	24.626208	8.343585	-0.000986
1392	1.3840e+02	-15.4215	20.504612	0.002605	26.045002	8.824285	-0.001043
1393	1.3850e+02	-15.4568	19.430734	0.002696	26.957084	9.133307	-0.001079
1394	1.3860e+02	-15.4985	18.409339	0.002564	25.639632	8.686943	-0.001027
1395	1.3870e+02	-15.5354	17.355647	0.002645	26.450371	8.961628	-0.001059
1396	1.3880e+02	-15.5835	16.249471	0.002777	27.767823	9.407993	-0.001112
1397	1.3890e+02	-15.6172	15.187705	0.002665	26.653056	9.030300	-0.001067
1398	1.3900e+02	-15.6509	14.109789	0.002706	27.058426	9.167643	-0.001083
1399	1.3910e+02	-15.7103	12.963243	0.002878	28.781247	9.751350	-0.001152
1400	1.3920e+02	-15.7343	11.869179	0.002746	27.463796	9.304986	-0.001100
1401	1.3930e+02	-15.7808	10.730707	0.002858	28.578562	9.682679	-0.001144
1402	1.3940e+02	-15.8258	9.539752	0.002990	29.896014	10.129044	-0.001197
1403	1.3950e+02	-15.8578	8.401279	0.002858	28.578562	9.682679	-0.001144
1404	1.3960e+02	-15.8915	7.234547	0.002929	29.287959	9.923029	-0.001173
1405	1.3970e+02	-15.9332	6.055704	0.002959	29.591986	10.026036	-0.001185
1406	1.3980e+02	-15.9782	4.812266	0.003121	31.213465	10.575408	-0.001250
1407	1.3990e+02	-16.0151	3.665719	0.002878	28.781247	9.751350	-0.001152
1408	1.4000e+02	-16.0584	2.414207	0.003142	31.416150	10.644080	-0.001258
1409	1.4010e+02	-16.0953	1.138472	0.003202	32.024204	10.850094	-0.001282
1410	1.4020e+02	-16.1402	-0.096891	0.003101	31.010780	10.506737	-0.001242
1411	1.4029e+02	-16.1723	-1.372626	0.003202	32.024204	10.850094	-0.001282
1412	1.4039e+02	-16.2236	-2.616064	0.003121	31.213465	10.575408	-0.001250
1413	1.4049e+02	-16.2541	-3.924096	0.003283	32.834944	11.124780	-0.001315
1414	1.4059e+02	-16.2990	-5.272499	0.003385	33.848368	11.468138	-0.001355
1415	1.4069e+02	-16.3279	-6.528048	0.003152	31.517492	10.678415	-0.001262
1416	1.4079e+02	-16.3760	-7.928935	0.003517	35.165819	11.914502	-0.001408
1417	1.4089e+02	-16.4097	-9.309635	0.003466	34.659107	11.742823	-0.001388
1418	1.4099e+02	-16.4594	-10.678224	0.003436	34.355080	11.639816	-0.001375
1419	1.4109e+02	-16.4915	-12.034702	0.003405	34.051053	11.536809	-0.001363
1420	1.4119e+02	-16.5380	-13.435588	0.003517	35.165819	11.914502	-0.001408
1421	1.4129e+02	-16.5717	-14.828400	0.003496	34.963135	11.845831	-0.001400
1422	1.4139e+02	-16.6199	-16.297917	0.003689	36.888641	12.498210	-0.001477
1423	1.4149e+02	-16.6487	-17.723026	0.003577	35.773874	12.120517	-0.001432
1424	1.4159e+02	-16.6969	-19.192543	0.003689	36.888641	12.498210	-0.001477
1425	1.4169e+02	-16.7273	-20.674172	0.003719	37.192668	12.601217	-0.001489
1426	1.4179e+02	-16.7803	-22.151764	0.003709	37.091325	12.566881	-0.001485
1427	1.4189e+02	-16.8108	-23.706061	0.003902	39.016831	13.219260	-0.001562
1428	1.4199e+02	-16.8557	-25.195764	0.003740	37.395353	12.669888	-0.001497
1429	1.4209e+02	-16.8894	-26.770247	0.003952	39.523544	13.390939	-0.001582
1430	1.4219e+02	-16.9343	-28.292247	0.003821	38.206092	12.944574	-0.001530
1431	1.4228e+02	-16.9744	-29.915176	0.004074	40.739653	13.802968	-0.001631
1432	1.4238e+02	-17.0129	-31.465436	0.003892	38.915489	13.184925	-0.001558
1433	1.4248e+02	-17.0466	-33.120662	0.004155	41.550392	14.077654	-0.001664
1434	1.4258e+02	-17.0931	-34.735516	0.004054	40.536968	13.734296	-0.001623
1435	1.4268e+02	-17.1332	-36.398816	0.004175	41.753077	14.146325	-0.001672
1436	1.4278e+02	-17.1749	-38.062116	0.004175	41.753077	14.146325	-0.001672
1437	1.4288e+02	-17.2118	-39.713304	0.004145	41.449049	14.043318	-0.001659
1438	1.4298e+02	-17.2503	-41.489644	0.004459	44.590664	15.107726	-0.001785
1439	1.4308e+02	-17.2920	-43.169092	0.004216	42.158446	14.283668	-0.001688
1440	1.4318e+02	-17.3289	-44.953506	0.004479	44.793349	15.176398	-0.001793
1441	1.4328e+02	-17.3738	-46.729846	0.004459	44.590664	15.107726	-0.001785
1442	1.4338e+02	-17.4123	-48.514260	0.004479	44.793349	15.176398	-0.001793
1443	1.4348e+02	-17.4492	-50.314823	0.004520	45.198719	15.313741	-0.001810
1444	1.4358e+02	-17.4893	-52.159794	0.004631	46.313486	15.691434	-0.001854
1445	1.4368e+02	-17.5359	-54.008802	0.004641	46.414828	15.725769	-0.001858
1446	1.4378e+02	-17.5599	-55.861847	0.004652	46.516170	15.760105	-0.001862
1447	1.4388e+02	-17.6145	-57.759301	0.004763	47.630937	16.137798	-0.001907
1448	1.4398e+02	-17.6514	-59.701163	0.004875	48.745704	16.515491	-0.001952
1449	1.4408e+02	-17.6899	-61.622840	0.004824	48.238992	16.343813	-0.001931
1450	1.4418e+02	-17.7284	-63.552591	0.004844	48.441676	16.412484	-0.001939
1451	1.4428e+02	-17.7605	-65.587307	0.005108	51.076579	17.305214	-0.002045
1452	1.4437e+02	-17.8102	-67.577615	0.004996	49.961813	16.927520	-0.002000
1453	1.4447e+02	-17.8487	-69.632517	0.005158	51.583291	17.476892	-0.002065
1454	1.4457e+02	-17.8904	-71.683382	0.005148	51.481949	17.442556	-0.002061
1455	1.4467e+02	-17.9257	-73.762507	0.005219	52.191346	17.682907	-0.002090
1456	1.4477e+02	-17.9706	-75.837595	0.005209	52.090003	17.648571	-0.002086
1457	1.4487e+02	-18.0011	-78.005537	0.005442	54.420879	18.438293	-0.002179
1458	1.4497e+02	-18.0460	-80.137144	0.005351	53.508797	18.129271	-0.002142
1459	1.4507e+02	-18.0781	-82.305086	0.005442	54.420879	18.438293	-0.002179
1460	1.4517e+02	-18.1278	-84.497251	0.005503	55.028934	18.644307	-0.002203
1461	1.4527e+02	-18.1679	-86.665193	0.005442	54.420879	18.438293	-0.002179
1462	1.4537e+02	-18.2145	-88.978472	0.005807	58.069206	19.674380	-0.002325
1463	1.4547e+02	-18.2417	-91.291750	0.005807	58.069206	19.674380	-0.002325
1464	1.4557e+02	-18.2818	-93.520249	0.005594	55.941015	18.953329	-0.002240
1465	1.4567e+02	-18.3284	-95.817380	0.005766	57.663837	19.537037	-0.002309
1466	1.4577e+02	-18.3669	-98.207364	0.005999	59.994712	20.326759	-0.002402
1467	1.4587e+02	-18.4054	-100.581200	0.005959	59.589343	20.189416	-0.002386
1468	1.4597e+02	-18.4487	-103.035778	0.006162	61.616191	20.876131	-0.002467
1469	1.4607e+02	-18.4920	-105.429800	0.006010	60.096055	20.361094	-0.002406
1470	1.4617e+02	-18.5321	-107.896490	0.006192	61.920218	20.979138	-0.002479
1471	1.4626e+02	-18.5754	-110.407588	0.006303	63.034985	21.356831	-0.002524
1472	1.4636e+02	-18.5898	-112.886390	0.006222	62.224245	21.082145	-0.002491
1473	1.4646e+02	-18.6412	-115.474194	0.006496	64.960491	22.009210	-0.002601
1474	1.4656e+02	-18.6909	-118.061998	0.006496	64.960491	22.009210	-0.002601
1475	1.4666e+02	-18.7182	-120.625579	0.006435	64.352436	21.803196	-0.002576
1476	1.4676e+02	-18.7695	-123.253754	0.006597	65.973915	22.352567	-0.002641
1477	1.4686e+02	-18.8032	-125.978821	0.006841	68.406133	23.176625	-0.002739
1478	1.4696e+02	-18.8481	-128.671590	0.006760	67.595394	22.901939	-0.002706
1479	1.4706e+02	-18.8834	-131.368397	0.006770	67.696736	22.936275	-0.002710
1480	1.4716e+02	-18.9267	-134.141909	0.006962	69.622242	23.588654	-0.002787
1481	1.4726e+02	-18.9652	-136.975978	0.007114	71.142378	24.103690	-0.002848
1482	1.4736e+02	-19.0005	-139.781788	0.007043	70.432981	23.863340	-0.002820
1483	1.4746e+02	-19.0390	-142.627968	0.007145	71.446406	24.206697	-0.002860
1484	1.4756e+02	-19.0775	-145.526632	0.007276	72.763857	24.653062	-0.002913
1485	1.4766e+02	-19.1176	-148.461630	0.007368	73.675939	24.962084	-0.002950
1486	1.4776e+02	-19.1690	-151.396627	0.007368	73.675939	24.962084	-0.002950
1487	1.4786e+02	-19.1979	-154.396219	0.007530	75.297417	25.511456	-0.003015
1488	1.4796e+02	-19.2492	-157.420034	0.007591	75.905472	25.717470	-0.003039
1489	1.4806e+02	-19.2973	-160.496331	0.007722	77.222923	26.163835	-0.003092
1490	1.4816e+02	-19.3262	-163.641260	0.007895	78.945745	26.747542	-0.003161
1491	1.4825e+02	-19.3647	-166.725632	0.007743	77.425608	26.232506	-0.003100
1492	1.4835e+02	-19.3984	-169.979563	0.008168	81.681990	27.674607	-0.003270
1493	1.4845e+02	-19.4433	-173.136603	0.007925	79.249772	26.850550	-0.003173
1494	1.4855e+02	-19.4770	-176.398609	0.008188	81.884675	27.743279	-0.003278
1495	1.4865e+02	-19.5187	-179.721172	0.008340	83.404811	28.258315	-0.003339
1496	1.4875e+02	-19.5620	-182.987214	0.008199	81.986017	27.777615	-0.003282
1497	1.4885e+02	-19.6037	-186.447040	0.008685	86.850453	29.425730	-0.003477
1498	1.4895e+02	-19.6438	-189.789788	0.008391	83.911523	28.429994	-0.003360
1499	1.4905e+02	-19.6695	-193.310171	0.008837	88.370590	29.940766	-0.003538
1500	1.4915e+02	-19.7160	-196.729625	0.008584	85.837029	29.082373	-0.003437
1501	1.4925e+02	-19.7577	-200.258081	0.008857	88.573274	30.009438	-0.003546
1502	1.4935e+02	-19.8010	-203.834983	0.008979	89.789383	30.421467	-0.003595
1503	1.4945e+02	-19.8363	-207.476480	0.009141	91.410862	30.970838	-0.003660
1504	1.4955e+02	-19.8813	-211.126051	0.009161	91.613547	31.039510	-0.003668
1505	1.4965e+02	-19.9230	-214.807918	0.009242	92.424286	31.314196	-0.003700
1506	1.4975e+02	-19.9663	-218.546306	0.009384	93.843080	31.794896	-0.003757
1507	1.4985e+02	-20.0032	-222.333139	0.009506	95.059189	32.206925	-0.003806
1508	1.4995e+02	-19.9647	-225.583034	-0.008158	-81.580647	-27.640272	-0.003266
1509	1.5005e+02	-19.9214	-228.598774	-0.007570	-75.702787	-25.648799	-0.003031
1510	1.5015e+02	-19.8845	-231.521660	-0.007337	-73.371912	-24.859077	-0.002938
1511	1.5025e+02	-19.8363	-234.246727	-0.006841	-68.406133	-23.176625	-0.002739
1512	1.5034e+02	-19.7946	-236.810308	-0.006435	-64.352436	-21.803196	-0.002576
1513	1.5044e+02	-19.7658	-239.305258	-0.006263	-62.629615	-21.219488	-0.002507
1514	1.5054e+02	-19.7208	-241.711391	-0.006040	-60.400082	-20.464102	-0.002418
1515	1.5064e+02	-19.6904	-243.952001	-0.005625	-56.245043	-19.056336	-0.002252
1516	1.5074e+02	-19.6374	-246.063423	-0.005300	-53.002085	-17.957593	-0.002122
1517	1.5084e+02	-19.6021	-248.166771	-0.005280	-52.799400	-17.888921	-0.002114
1518	1.5094e+02	-19.5684	-250.185339	-0.005067	-50.671210	-17.167871	-0.002029
1519	1.5104e+02	-19.5187	-252.062607	-0.004712	-47.124225	-15.966120	-0.001887
1520	1.5114e+02	-19.4834	-253.814724	-0.004398	-43.982610	-14.901712	-0.001761
1521	1.5124e+02	-19.4513	-255.578952	-0.004429	-44.286637	-15.004719	-0.001773
1522	1.5134e+02	-19.4144	-257.262438	-0.004226	-42.259789	-14.318004	-0.001692
1523	1.5144e+02	-19.3743	-258.840958	-0.003962	-39.624886	-13.425275	-0.001586
1524	1.5154e+02	-19.3230	-260.350847	-0.003790	-37.902065	-12.841567	-0.001517
1525	1.5164e+02	-19.2797	-261.812290	-0.003669	-36.685956	-12.429538	-0.001469
1526	1.5174e+02	-19.2492	-263.225287	-0.003547	-35.469847	-12.017509	-0.001420
1527	1.5184e+02	-19.2027	-264.557542	-0.003344	-33.442998	-11.330795	-0.001339
1528	1.5194e+02	-19.1674	-265.841351	-0.003223	-32.226889	-10.918766	-0.001290
1529	1.5204e+02	-19.1176	-267.044418	-0.003020	-30.200041	-10.232051	-0.001209
1530	1.5214e+02	-19.0872	-268.227298	-0.002969	-29.693329	-10.060372	-0.001189
1531	1.5224e+02	-19.0519	-269.369808	-0.002868	-28.679905	-9.717015	-0.001148
1532	1.5233e+02	-19.0070	-270.371018	-0.002513	-25.132920	-8.515264	-0.001006
1533	1.5243e+02	-18.9524	-271.388376	-0.002554	-25.538290	-8.652607	-0.001022
1534	1.5253e+02	-18.9332	-272.333065	-0.002371	-23.714126	-8.034563	-0.000949
1535	1.5263e+02	-18.8866	-273.277755	-0.002371	-23.714126	-8.034563	-0.000949
1536	1.5273e+02	-18.8481	-274.141702	-0.002169	-21.687278	-7.347849	-0.000868
1537	1.5283e+02	-18.8096	-275.021798	-0.002209	-22.092647	-7.485192	-0.000885
1538	1.5293e+02	-18.7679	-275.813076	-0.001986	-19.863114	-6.729805	-0.000795
1539	1.5303e+02	-18.7214	-276.628578	-0.002047	-20.471169	-6.935820	-0.000820
1540	1.5313e+02	-18.6957	-277.379485	-0.001885	-18.849690	-6.386448	-0.000755
1541	1.5323e+02	-18.6492	-278.029464	-0.001632	-16.316129	-5.528054	-0.000653
1542	1.5333e+02	-18.6091	-278.687517	-0.001652	-16.518814	-5.596726	-0.000661
1543	1.5343e+02	-18.5722	-279.317310	-0.001581	-15.809417	-5.356376	-0.000633
1544	1.5353e+02	-18.5273	-279.926918	-0.001530	-15.302705	-5.184697	-0.000613
1545	1.5363e+02	-18.4904	-280.540562	-0.001540	-15.404048	-5.219033	-0.000617
1546	1.5373e+02	-18.4535	-281.049242	-0.001277	-12.769145	-4.326303	-0.000511
1547	1.5383e+02	-18.4070	-281.606366	-0.001399	-13.985254	-4.738332	-0.000560
1548	1.5393e+02	-18.3813	-282.106971	-0.001257	-12.566460	-4.257632	-0.000503
1549	1.5403e+02	-18.3396	-282.518759	-0.001034	-10.336927	-3.502246	-0.000414
1550	1.5413e+02	-18.2850	-282.995141	-0.001196	-11.958405	-4.051617	-0.000479
1551	1.5422e+02	-18.2514	-283.431152	-0.001094	-10.944981	-3.708260	-0.000438
1552	1.5432e+02	-18.2145	-283.818717	-0.000973	-9.728872	-3.296231	-0.000390
1553	1.5442e+02	-18.1679	-284.194170	-0.000942	-9.424845	-3.193224	-0.000377
1554	1.5452e+02	-18.1230	-284.557512	-0.000912	-9.120818	-3.090217	-0.000365
1555	1.5462e+02	-18.0925	-284.900669	-0.000861	-8.614106	-2.918538	-0.000345
1556	1.5472e+02	-18.0412	-285.235751	-0.000841	-8.411421	-2.849867	-0.000337
1557	1.5482e+02	-18.0107	-285.522388	-0.000720	-7.195312	-2.437838	-0.000288
1558	1.5492e+02	-17.9642	-285.833247	-0.000780	-7.803366	-2.643852	-0.000312
1559	1.5502e+02	-17.9241	-286.063364	-0.000578	-5.776518	-1.957137	-0.000231
1560	1.5512e+02	-17.8920	-286.313667	-0.000628	-6.283230	-2.128816	-0.000252
1561	1.5522e+02	-17.8503	-286.487263	-0.000436	-4.357724	-1.476437	-0.000174
1562	1.5532e+02	-17.8070	-286.729492	-0.000608	-6.080545	-2.060144	-0.000243
1563	1.5542e+02	-17.7733	-286.915200	-0.000466	-4.661751	-1.579444	-0.000187
1564	1.5552e+02	-17.7252	-287.129168	-0.000537	-5.371148	-1.819794	-0.000215
1565	1.5562e+02	-17.6915	-287.306802	-0.000446	-4.459066	-1.510773	-0.000179
1566	1.5572e+02	-17.6642	-287.415805	-0.000274	-2.736245	-0.927065	-0.000110
1567	1.5582e+02	-17.6145	-287.613624	-0.000497	-4.965779	-1.682451	-0.000199
1568	1.5592e+02	-17.5696	-287.690330	-0.000193	-1.925506	-0.652379	-0.000077
1569	1.5602e+02	-17.5327	-287.823555	-0.000334	-3.344300	-1.133079	-0.000134
1570	1.5612e+02	-17.4926	-287.948707	-0.000314	-3.141615	-1.064408	-0.000126
1571	1.5622e+02	-17.4524	-288.009264	-0.000152	-1.520136	-0.515036	-0.000061
1572	1.5631e+02	-17.4204	-288.102118	-0.000233	-2.330876	-0.789722	-0.000093
1573	1.5641e+02	-17.3722	-288.182860	-0.000203	-2.026848	-0.686715	-0.000081
1574	1.5651e+02	-17.3402	-288.215157	-0.000081	-0.810739	-0.274686	-0.000032
1575	1.5661e+02	-17.2936	-288.283789	-0.000172	-1.722821	-0.583708	-0.000069
1576	1.5671e+02	-17.2471	-288.352420	-0.000172	-1.722821	-0.583708	-0.000069
1577	1.5681e+02	-17.2070	-288.408940	-0.000142	-1.418794	-0.480700	-0.000057
1578	1.5691e+02	-17.1813	-288.449311	-0.000101	-1.013424	-0.343357	-0.000041
1579	1.5701e+02	-17.1364	-288.465460	-0.000041	-0.405370	-0.137343	-0.000016
1580	1.5711e+02	-17.0883	-288.461423	0.000010	0.101342	0.034336	0.000004
1581	1.5721e+02	-17.0578	-288.493720	-0.000081	-0.810739	-0.274686	-0.000032
1582	1.5731e+02	-17.0161	-288.473534	0.000051	0.506712	0.171679	0.000020
1583	1.5741e+02	-16.9776	-288.461423	0.000030	0.304027	0.103007	0.000012
1584	1.5751e+02	-16.9359	-288.469497	-0.000020	-0.202685	-0.068671	-0.000008
1585	1.5761e+02	-16.8894	-288.412977	0.000142	1.418794	0.480700	0.000057
1586	1.5771e+02	-16.8557	-288.396829	0.000041	0.405370	0.137343	0.000016
1587	1.5781e+02	-16.8124	-288.328197	0.000172	1.722821	0.583708	0.000069
1588	1.5791e+02	-16.7690	-288.356457	-0.000071	-0.709397	-0.240350	-0.000028
1589	1.5801e+02	-16.7354	-288.267640	0.000223	2.229533	0.755386	0.000089
1590	1.5811e+02	-16.6969	-288.271677	-0.000010	-0.101342	-0.034336	-0.000004
1591	1.5821e+02	-16.6551	-288.166712	0.000263	2.634903	0.892729	0.000105
1592	1.5830e+02	-16.6118	-288.154600	0.000030	0.304027	0.103007	0.000012
1593	1.5840e+02	-16.5669	-288.065783	0.000223	2.229533	0.755386	0.000089
1594	1.5850e+02	-16.5268	-287.972929	0.000233	2.330876	0.789722	0.000093
1595	1.5860e+02	-16.4995	-287.936595	0.000091	0.912082	0.309022	0.000037
1596	1.5870e+02	-16.4562	-287.863927	0.000182	1.824164	0.618043	0.000073
1597	1.5880e+02	-16.4081	-287.791258	0.000182	1.824164	0.618043	0.000073
1598	1.5890e+02	-16.3840	-287.690330	0.000253	2.533560	0.858394	0.000101
1599	1.5900e+02	-16.3311	-287.569216	0.000304	3.040273	1.030072	0.000122
1600	1.5910e+02	-16.2910	-287.500584	0.000172	1.722821	0.583708	0.000069
1601	1.5920e+02	-16.2525	-287.375433	0.000314	3.141615	1.064408	0.000126
1602	1.5930e+02	-16.2172	-287.347173	0.000071	0.709397	0.240350	0.000028
1603	1.5940e+02	-16.1723	-287.217985	0.000324	3.242957	1.098744	0.000130
1604	1.5950e+02	-16.1386	-287.088797	0.000324	3.242957	1.098744	0.000130
1605	1.5960e+02	-16.0953	-286.987868	0.000253	2.533560	0.858394	0.000101
1606	1.5970e+02	-16.0568	-286.907125	0.000203	2.026848	0.686715	0.000081
1607	1.5980e+02	-16.0215	-286.753714	0.000385	3.851012	1.304758	0.000154
1608	1.5990e+02	-15.9782	-286.668934	0.000213	2.128191	0.721051	0.000085
1609	1.6000e+02	-15.9445	-286.559932	0.000274	2.736245	0.927065	0.000110
1610	1.6010e+02	-15.8931	-286.459003	0.000253	2.533560	0.858394	0.000101
1611	1.6019e+02	-15.8578	-286.333852	0.000314	3.141615	1.064408	0.000126
1612	1.6029e+02	-15.8097	-286.212738	0.000304	3.040273	1.030072	0.000122
1613	1.6039e+02	-15.7792	-286.095661	0.000294	2.938930	0.995736	0.000118
1614	1.6049e+02	-15.7407	-285.950324	0.000365	3.648327	1.236087	0.000146
1615	1.6059e+02	-15.7022	-285.853433	0.000243	2.432218	0.824058	0.000097
1616	1.6069e+02	-15.6589	-285.679836	0.000436	4.357724	1.476437	0.000174
1617	1.6079e+02	-15.6140	-285.562759	0.000294	2.938930	0.995736	0.000118
1618	1.6089e+02	-15.5819	-285.498165	0.000162	1.621479	0.549372	0.000065
1619	1.6099e+02	-15.5370	-285.368977	0.000324	3.242957	1.098744	0.000130
1620	1.6109e+02	-15.5001	-285.207491	0.000405	4.053697	1.373430	0.000162
1621	1.6119e+02	-15.4552	-285.070229	0.000345	3.445642	1.167415	0.000138
1622	1.6129e+02	-15.4151	-284.920855	0.000375	3.749670	1.270422	0.000150
1623	1.6139e+02	-15.3878	-284.836075	0.000213	2.128191	0.721051	0.000085
1624	1.6149e+02	-15.3397	-284.674589	0.000405	4.053697	1.373430	0.000162
1625	1.6159e+02	-15.3028	-284.492918	0.000456	4.560409	1.545108	0.000183
1626	1.6169e+02	-15.2530	-284.391990	0.000253	2.533560	0.858394	0.000101
1627	1.6179e+02	-15.2226	-284.246653	0.000365	3.648327	1.236087	0.000146
1628	1.6189e+02	-15.1793	-284.121502	0.000314	3.141615	1.064408	0.000126
1629	1.6199e+02	-15.1375	-283.968091	0.000385	3.851012	1.304758	0.000154
1630	1.6209e+02	-15.1022	-283.863125	0.000263	2.634903	0.892729	0.000105
1631	1.6219e+02	-15.0589	-283.766234	0.000243	2.432218	0.824058	0.000097
1632	1.6228e+02	-15.0333	-283.528043	0.000598	5.979203	2.025809	0.000239
1633	1.6238e+02	-14.9771	-283.346372	0.000456	4.560409	1.545108	0.000183
1634	1.6248e+02	-14.9418	-283.249481	0.000243	2.432218	0.824058	0.000097
1635	1.6258e+02	-14.8953	-283.055698	0.000486	4.864436	1.648116	0.000195
1636	1.6268e+02	-14.8616	-282.950732	0.000263	2.634903	0.892729	0.000105
1637	1.6278e+02	-14.8231	-282.805396	0.000365	3.648327	1.236087	0.000146
1638	1.6288e+02	-14.7830	-282.647947	0.000395	3.952354	1.339094	0.000158
1639	1.6298e+02	-14.7381	-282.522796	0.000314	3.141615	1.064408	0.000126
1640	1.6308e+02	-14.7140	-282.393608	0.000324	3.242957	1.098744	0.000130
1641	1.6318e+02	-14.6659	-282.187714	0.000517	5.168463	1.751123	0.000207
1642	1.6328e+02	-14.6242	-282.074674	0.000284	2.837588	0.961401	0.000114
1643	1.6338e+02	-14.5777	-281.925300	0.000375	3.749670	1.270422	0.000150
1644	1.6348e+02	-14.5472	-281.779963	0.000365	3.648327	1.236087	0.000146
1645	1.6358e+02	-14.4991	-281.618478	0.000405	4.053697	1.373430	0.000162
1646	1.6368e+02	-14.4606	-281.461029	0.000395	3.952354	1.339094	0.000158
1647	1.6378e+02	-14.4253	-281.356064	0.000263	2.634903	0.892729	0.000105
1648	1.6388e+02	-14.3900	-281.170356	0.000466	4.661751	1.579444	0.000187
1649	1.6398e+02	-14.3402	-281.008870	0.000405	4.053697	1.373430	0.000162
1650	1.6408e+02	-14.3065	-280.883719	0.000314	3.141615	1.064408	0.000126
1651	1.6418e+02	-14.2664	-280.669751	0.000537	5.371148	1.819794	0.000215
1652	1.6427e+02	-14.2231	-280.524414	0.000365	3.648327	1.236087	0.000146
1653	1.6437e+02	-14.1798	-280.395226	0.000324	3.242957	1.098744	0.000130
1654	1.6447e+02	-14.1493	-280.262000	0.000334	3.344300	1.133079	0.000134
1655	1.6457e+02	-14.1012	-280.076292	0.000466	4.661751	1.579444	0.000187
1656	1.6467e+02	-14.0563	-279.930955	0.000365	3.648327	1.236087	0.000146
1657	1.6477e+02	-14.0258	-279.753321	0.000446	4.459066	1.510773	0.000179
1658	1.6487e+02	-13.9969	-279.559538	0.000486	4.864436	1.648116	0.000195
1659	1.6497e+02	-13.9376	-279.402090	0.000395	3.952354	1.339094	0.000158
1660	1.6507e+02	-13.9007	-279.297125	0.000263	2.634903	0.892729	0.000105
1661	1.6517e+02	-13.8654	-279.119491	0.000446	4.459066	1.510773	0.000179
1662	1.6527e+02	-13.8189	-278.974154	0.000365	3.648327	1.236087	0.000146
1663	1.6537e+02	-13.7884	-278.792483	0.000456	4.560409	1.545108	0.000183
1664	1.6547e+02	-13.7451	-278.647146	0.000365	3.648327	1.236087	0.000146
1665	1.6557e+02	-13.7001	-278.477586	0.000426	4.256382	1.442101	0.000170
1666	1.6567e+02	-13.6649	-278.303989	0.000436	4.357724	1.476437	0.000174
1667	1.6577e+02	-13.6167	-278.150578	0.000385	3.851012	1.304758	0.000154
1668	1.6587e+02	-13.5846	-277.964870	0.000466	4.661751	1.579444	0.000187
1669	1.6597e+02	-13.5542	-277.795310	0.000426	4.256382	1.442101	0.000170
1670	1.6607e+02	-13.5092	-277.670159	0.000314	3.141615	1.064408	0.000126
1671	1.6616e+02	-13.4740	-277.488488	0.000456	4.560409	1.545108	0.000183
1672	1.6626e+02	-13.4274	-277.335077	0.000385	3.851012	1.304758	0.000154
1673	1.6636e+02	-13.3809	-277.157443	0.000446	4.459066	1.510773	0.000179
1674	1.6646e+02	-13.3456	-276.995957	0.000405	4.053697	1.373430	0.000162
1675	1.6656e+02	-13.3103	-276.850620	0.000365	3.648327	1.236087	0.000146
1676	1.6666e+02	-13.2654	-276.632615	0.000547	5.472491	1.854130	0.000219
1677	1.6676e+02	-13.2349	-276.499390	0.000334	3.344300	1.133079	0.000134
1678	1.6686e+02	-13.1884	-276.321756	0.000446	4.459066	1.510773	0.000179
1679	1.6696e+02	-13.1451	-276.160270	0.000405	4.053697	1.373430	0.000162
1680	1.6706e+02	-13.1114	-276.006859	0.000385	3.851012	1.304758	0.000154
1681	1.6716e+02	-13.0745	-275.853448	0.000385	3.851012	1.304758	0.000154
1682	1.6726e+02	-13.0344	-275.724260	0.000324	3.242957	1.098744	0.000130
1683	1.6736e+02	-12.9959	-275.510291	0.000537	5.371148	1.819794	0.000215
1684	1.6746e+02	-12.9494	-275.312472	0.000497	4.965779	1.682451	0.000199
1685	1.6756e+02	-12.9125	-275.163098	0.000375	3.749670	1.270422	0.000150
1686	1.6766e+02	-12.8788	-274.969315	0.000486	4.864436	1.648116	0.000195
1687	1.6776e+02	-12.8274	-274.819941	0.000375	3.749670	1.270422	0.000150
1688	1.6786e+02	-12.7889	-274.630196	0.000476	4.763094	1.613780	0.000191
1689	1.6796e+02	-12.7537	-274.472747	0.000395	3.952354	1.339094	0.000158
1690	1.6806e+02	-12.7151	-274.335485	0.000345	3.445642	1.167415	0.000138
1691	1.6816e+02	-12.6718	-274.133628	0.000507	5.067121	1.716787	0.000203
1692	1.6825e+02	-12.6221	-273.960031	0.000436	4.357724	1.476437	0.000174
1693	1.6835e+02	-12.5916	-273.798546	0.000405	4.053697	1.373430	0.000162
1694	1.6845e+02	-12.5531	-273.584578	0.000537	5.371148	1.819794	0.000215
1695	1.6855e+02	-12.5130	-273.447315	0.000345	3.445642	1.167415	0.000138
1696	1.6865e+02	-12.4761	-273.261607	0.000466	4.661751	1.579444	0.000187
1697	1.6875e+02	-12.4392	-273.047639	0.000537	5.371148	1.819794	0.000215
1698	1.6885e+02	-12.4023	-272.902302	0.000365	3.648327	1.236087	0.000146
1699	1.6895e+02	-12.3462	-272.712556	0.000476	4.763094	1.613780	0.000191
1700	1.6905e+02	-12.3141	-272.571256	0.000355	3.546985	1.201751	0.000142
1701	1.6915e+02	-12.2660	-272.373437	0.000497	4.965779	1.682451	0.000199
1702	1.6925e+02	-12.2419	-272.211951	0.000405	4.053697	1.373430	0.000162
1703	1.6935e+02	-12.2002	-272.022206	0.000476	4.763094	1.613780	0.000191
1704	1.6945e+02	-12.1585	-271.832461	0.000476	4.763094	1.613780	0.000191
1705	1.6955e+02	-12.1120	-271.675012	0.000395	3.952354	1.339094	0.000158
1706	1.6965e+02	-12.0767	-271.517564	0.000395	3.952354	1.339094	0.000158
1707	1.6975e+02	-12.0205	-271.267262	0.000628	6.283230	2.128816	0.000252
1708	1.6985e+02	-11.9916	-271.065405	0.000507	5.067121	1.716787	0.000203
1709	1.6995e+02	-11.9451	-270.875659	0.000476	4.763094	1.613780	0.000191
1710	1.7005e+02	-11.9082	-270.714174	0.000405	4.053697	1.373430	0.000162
1711	1.7015e+02	-11.8729	-270.540577	0.000436	4.357724	1.476437	0.000174
1712	1.7024e+02	-11.8424	-270.350832	0.000476	4.763094	1.613780	0.000191
1713	1.7034e+02	-11.7959	-270.193384	0.000395	3.952354	1.339094	0.000158
1714	1.7044e+02	-11.7542	-270.007675	0.000466	4.661751	1.579444	0.000187
1715	1.7054e+02	-11.7221	-269.842153	0.000416	4.155039	1.407765	0.000166
1716	1.7064e+02	-11.6676	-269.603962	0.000598	5.979203	2.025809	0.000239
1717	1.7074e+02	-11.6307	-269.430365	0.000436	4.357724	1.476437	0.000174
1718	1.7084e+02	-11.5922	-269.208322	0.000557	5.573833	1.888466	0.000223
1719	1.7094e+02	-11.5617	-269.046837	0.000405	4.053697	1.373430	0.000162
1720	1.7104e+02	-11.5152	-268.873240	0.000436	4.357724	1.476437	0.000174
1721	1.7114e+02	-11.4863	-268.671383	0.000507	5.067121	1.716787	0.000203
1722	1.7124e+02	-11.4253	-268.497787	0.000436	4.357724	1.476437	0.000174
1723	1.7134e+02	-11.3965	-268.275744	0.000557	5.573833	1.888466	0.000223
1724	1.7144e+02	-11.3548	-268.081962	0.000486	4.864436	1.648116	0.000195
1725	1.7154e+02	-11.3147	-267.924513	0.000395	3.952354	1.339094	0.000158
1726	1.7164e+02	-11.2713	-267.734768	0.000476	4.763094	1.613780	0.000191
1727	1.7174e+02	-11.2360	-267.480428	0.000638	6.384572	2.163152	0.000256
1728	1.7184e+02	-11.1927	-267.322980	0.000395	3.952354	1.339094	0.000158
1729	1.7194e+02	-11.1542	-267.117086	0.000517	5.168463	1.751123	0.000207
1730	1.7204e+02	-11.1254	-266.907155	0.000527	5.269806	1.785459	0.000211
1731	1.7213e+02	-11.0788	-266.725484	0.000456	4.560409	1.545108	0.000183
1732	1.7223e+02	-11.0339	-266.559961	0.000416	4.155039	1.407765	0.000166
1733	1.7233e+02	-10.9986	-266.378290	0.000456	4.560409	1.545108	0.000183
1734	1.7243e+02	-10.9553	-266.164322	0.000537	5.371148	1.819794	0.000215
1735	1.7253e+02	-10.9120	-265.970540	0.000486	4.864436	1.648116	0.000195
1736	1.7263e+02	-10.8815	-265.784831	0.000466	4.661751	1.579444	0.000187
1737	1.7273e+02	-10.8398	-265.574900	0.000527	5.269806	1.785459	0.000211
1738	1.7283e+02	-10.7933	-265.401303	0.000436	4.357724	1.476437	0.000174
1739	1.7293e+02	-10.7516	-265.191372	0.000527	5.269806	1.785459	0.000211
1740	1.7303e+02	-10.7131	-264.993553	0.000497	4.965779	1.682451	0.000199
1741	1.7313e+02	-10.6794	-264.763436	0.000578	5.776518	1.957137	0.000231
1742	1.7323e+02	-10.6361	-264.585802	0.000446	4.459066	1.510773	0.000179
1743	1.7333e+02	-10.6088	-264.383945	0.000507	5.067121	1.716787	0.000203
1744	1.7343e+02	-10.5623	-264.218423	0.000416	4.155039	1.407765	0.000166
1745	1.7353e+02	-10.5141	-264.008492	0.000527	5.269806	1.785459	0.000211
1746	1.7363e+02	-10.4772	-263.826820	0.000456	4.560409	1.545108	0.000183
1747	1.7373e+02	-10.4339	-263.548258	0.000699	6.992627	2.369166	0.000280
1748	1.7383e+02	-10.4002	-263.358513	0.000476	4.763094	1.613780	0.000191
1749	1.7393e+02	-10.3633	-263.136470	0.000557	5.573833	1.888466	0.000223
1750	1.7403e+02	-10.3264	-262.970948	0.000416	4.155039	1.407765	0.000166
1751	1.7413e+02	-10.2751	-262.789277	0.000456	4.560409	1.545108	0.000183
1752	1.7422e+02	-10.2350	-262.543011	0.000618	6.181888	2.094480	0.000248
1753	1.7432e+02	-10.2142	-262.381526	0.000405	4.053697	1.373430	0.000162
1754	1.7442e+02	-10.1644	-262.143335	0.000598	5.979203	2.025809	0.000239
1755	1.7452e+02	-10.1227	-261.941478	0.000507	5.067121	1.716787	0.000203
1756	1.7462e+02	-10.0778	-261.816327	0.000314	3.141615	1.064408	0.000126
1757	1.7472e+02	-10.0441	-261.553913	0.000659	6.587257	2.231823	0.000264
1758	1.7482e+02	-9.9992	-261.311685	0.000608	6.080545	2.060144	0.000243
1759	1.7492e+02	-9.9591	-261.113865	0.000497	4.965779	1.682451	0.000199
1760	1.7502e+02	-9.9254	-260.928157	0.000466	4.661751	1.579444	0.000187
1761	1.7512e+02	-9.8853	-260.714189	0.000537	5.371148	1.819794	0.000215
1762	1.7522e+02	-9.8468	-260.520406	0.000486	4.864436	1.648116	0.000195
1763	1.7532e+02	-9.8003	-260.290290	0.000578	5.776518	1.957137	0.000231
1764	1.7542e+02	-9.7505	-260.064210	0.000568	5.675175	1.922802	0.000227
1765	1.7552e+02	-9.7120	-259.862353	0.000507	5.067121	1.716787	0.000203
1766	1.7562e+02	-9.6799	-259.672608	0.000476	4.763094	1.613780	0.000191
1767	1.7572e+02	-9.6446	-259.454602	0.000547	5.472491	1.854130	0.000219
1768	1.7582e+02	-9.5965	-259.204300	0.000628	6.283230	2.128816	0.000252
1769	1.7592e+02	-9.5612	-259.018592	0.000466	4.661751	1.579444	0.000187
1770	1.7602e+02	-9.5195	-258.816735	0.000507	5.067121	1.716787	0.000203
1771	1.7612e+02	-9.4874	-258.598730	0.000547	5.472491	1.854130	0.000219
1772	1.7621e+02	-9.4457	-258.376687	0.000557	5.573833	1.888466	0.000223
1773	1.7631e+02	-9.4072	-258.235387	0.000355	3.546985	1.201751	0.000142
1774	1.7641e+02	-9.3591	-257.952788	0.000709	7.093969	2.403502	0.000284
1775	1.7651e+02	-9.3222	-257.750931	0.000507	5.067121	1.716787	0.000203
1776	1.7661e+02	-9.2805	-257.553112	0.000497	4.965779	1.682451	0.000199
1777	1.7671e+02	-9.2388	-257.322995	0.000578	5.776518	1.957137	0.000231
1778	1.7681e+02	-9.2051	-257.104989	0.000547	5.472491	1.854130	0.000219
1779	1.7691e+02	-9.1634	-256.899096	0.000517	5.168463	1.751123	0.000207
1780	1.7701e+02	-9.1217	-256.693202	0.000517	5.168463	1.751123	0.000207
1781	1.7711e+02	-9.0848	-256.467122	0.000568	5.675175	1.922802	0.000227
1782	1.7721e+02	-9.0415	-256.277377	0.000476	4.763094	1.613780	0.000191
1783	1.7731e+02	-9.0030	-256.051297	0.000568	5.675175	1.922802	0.000227
1784	1.7741e+02	-8.9628	-255.792920	0.000649	6.485915	2.197487	0.000260
1785	1.7751e+02	-8.9308	-255.667769	0.000314	3.141615	1.064408	0.000126
1786	1.7761e+02	-8.8987	-255.397281	0.000679	6.789942	2.300495	0.000272
1787	1.7771e+02	-8.8522	-255.179276	0.000547	5.472491	1.854130	0.000219
1788	1.7781e+02	-8.8072	-255.009716	0.000426	4.256382	1.442101	0.000170
1789	1.7791e+02	-8.7687	-254.771525	0.000598	5.979203	2.025809	0.000239
1790	1.7801e+02	-8.7270	-254.517185	0.000638	6.384572	2.163152	0.000256
1791	1.7810e+02	-8.6805	-254.315329	0.000507	5.067121	1.716787	0.000203
1792	1.7820e+02	-8.6420	-254.105398	0.000527	5.269806	1.785459	0.000211
1793	1.7830e+02	-8.5987	-253.891429	0.000537	5.371148	1.819794	0.000215
1794	1.7840e+02	-8.5618	-253.697647	0.000486	4.864436	1.648116	0.000195
1795	1.7850e+02	-8.5297	-253.507902	0.000476	4.763094	1.613780	0.000191
1796	1.7860e+02	-8.4912	-253.261636	0.000618	6.181888	2.094480	0.000248
1797	1.7870e+02	-8.4463	-253.003260	0.000649	6.485915	2.197487	0.000260
1798	1.7880e+02	-8.4110	-252.793329	0.000527	5.269806	1.785459	0.000211
1799	1.7890e+02	-8.3789	-252.551100	0.000608	6.080545	2.060144	0.000243
1800	1.7900e+02	-8.3324	-252.333095	0.000547	5.472491	1.854130	0.000219
1801	1.7910e+02	-8.2955	-252.115090	0.000547	5.472491	1.854130	0.000219
1802	1.7920e+02	-8.2425	-251.909196	0.000517	5.168463	1.751123	0.000207
1803	1.7930e+02	-8.2185	-251.727525	0.000456	4.560409	1.545108	0.000183
1804	1.7940e+02	-8.1671	-251.481259	0.000618	6.181888	2.094480	0.000248
1805	1.7950e+02	-8.1351	-251.259217	0.000557	5.573833	1.888466	0.000223
1806	1.7960e+02	-8.0869	-251.033137	0.000568	5.675175	1.922802	0.000227
1807	1.7970e+02	-8.0468	-250.827243	0.000517	5.168463	1.751123	0.000207
1808	1.7980e+02	-8.0067	-250.617312	0.000527	5.269806	1.785459	0.000211
1809	1.7990e+02	-7.9698	-250.387196	0.000578	5.776518	1.957137	0.000231
1810	1.8000e+02	-7.9249	-250.124782	0.000659	6.587257	2.231823	0.000264
1811	1.8009e+02	-7.8944	-249.930999	0.000486	4.864436	1.648116	0.000195
1812	1.8019e+02	-7.8527	-249.688771	0.000608	6.080545	2.060144	0.000243
1813	1.8029e+02	-7.8030	-249.462692	0.000568	5.675175	1.922802	0.000227
1814	1.8039e+02	-7.7645	-249.244686	0.000547	5.472491	1.854130	0.000219
1815	1.8049e+02	-7.7372	-249.042829	0.000507	5.067121	1.716787	0.000203
1816	1.8059e+02	-7.6891	-248.796564	0.000618	6.181888	2.094480	0.000248
1817	1.8069e+02	-7.6570	-248.566447	0.000578	5.776518	1.957137	0.000231
1818	1.8079e+02	-7.6041	-248.344405	0.000557	5.573833	1.888466	0.000223
1819	1.8089e+02	-7.5672	-248.166771	0.000446	4.459066	1.510773	0.000179
1820	1.8099e+02	-7.5367	-247.940691	0.000568	5.675175	1.922802	0.000227
1821	1.8109e+02	-7.4918	-247.662129	0.000699	6.992627	2.369166	0.000280
1822	1.8119e+02	-7.4565	-247.456235	0.000517	5.168463	1.751123	0.000207
1823	1.8129e+02	-7.4164	-247.181710	0.000689	6.891285	2.334830	0.000276
1824	1.8139e+02	-7.3714	-247.000039	0.000456	4.560409	1.545108	0.000183
1825	1.8149e+02	-7.3265	-246.765885	0.000588	5.877860	1.991473	0.000235
1826	1.8159e+02	-7.2977	-246.535768	0.000578	5.776518	1.957137	0.000231
1827	1.8169e+02	-7.2495	-246.261243	0.000689	6.891285	2.334830	0.000276
1828	1.8179e+02	-7.2110	-246.099757	0.000405	4.053697	1.373430	0.000162
1829	1.8189e+02	-7.1741	-245.821195	0.000699	6.992627	2.369166	0.000280
1830	1.8199e+02	-7.1324	-245.631450	0.000476	4.763094	1.613780	0.000191
1831	1.8209e+02	-7.0939	-245.393259	0.000598	5.979203	2.025809	0.000239
1832	1.8218e+02	-7.0538	-245.114696	0.000699	6.992627	2.369166	0.000280
1833	1.8228e+02	-7.0057	-244.888617	0.000568	5.675175	1.922802	0.000227
1834	1.8238e+02	-6.9720	-244.670611	0.000547	5.472491	1.854130	0.000219
1835	1.8248e+02	-6.9367	-244.408198	0.000659	6.587257	2.231823	0.000264
1836	1.8258e+02	-6.8998	-244.230564	0.000446	4.459066	1.510773	0.000179
1837	1.8268e+02	-6.8517	-243.996410	0.000588	5.877860	1.991473	0.000235
1838	1.8278e+02	-6.8132	-243.721885	0.000689	6.891285	2.334830	0.000276
1839	1.8288e+02	-6.7602	-243.491768	0.000578	5.776518	1.957137	0.000231
1840	1.8298e+02	-6.7330	-243.281837	0.000527	5.269806	1.785459	0.000211
1841	1.8308e+02	-6.6929	-243.035571	0.000618	6.181888	2.094480	0.000248
1842	1.8318e+02	-6.6528	-242.833715	0.000507	5.067121	1.716787	0.000203
1843	1.8328e+02	-6.6062	-242.567264	0.000669	6.688600	2.266159	0.000268
1844	1.8338e+02	-6.5854	-242.312924	0.000638	6.384572	2.163152	0.000256
1845	1.8348e+02	-6.5308	-242.094919	0.000547	5.472491	1.854130	0.000219
1846	1.8358e+02	-6.4859	-241.876913	0.000547	5.472491	1.854130	0.000219
1847	1.8368e+02	-6.4554	-241.638722	0.000598	5.979203	2.025809	0.000239
1848	1.8378e+02	-6.4266	-241.424754	0.000537	5.371148	1.819794	0.000215
1849	1.8388e+02	-6.3736	-241.166378	0.000649	6.485915	2.197487	0.000260
1850	1.8398e+02	-6.3351	-240.944335	0.000557	5.573833	1.888466	0.000223
1851	1.8407e+02	-6.2998	-240.718256	0.000568	5.675175	1.922802	0.000227
1852	1.8417e+02	-6.2613	-240.476027	0.000608	6.080545	2.060144	0.000243
1853	1.8427e+02	-6.2132	-240.225725	0.000628	6.283230	2.128816	0.000252
1854	1.8437e+02	-6.1763	-239.979460	0.000618	6.181888	2.094480	0.000248
1855	1.8447e+02	-6.1394	-239.737232	0.000608	6.080545	2.060144	0.000243
1856	1.8457e+02	-6.0977	-239.470781	0.000669	6.688600	2.266159	0.000268
1857	1.8467e+02	-6.0624	-239.309295	0.000405	4.053697	1.373430	0.000162
1858	1.8477e+02	-6.0223	-239.002473	0.000770	7.702024	2.609516	0.000308
1859	1.8487e+02	-5.9742	-238.756208	0.000618	6.181888	2.094480	0.000248
1860	1.8497e+02	-5.9405	-238.558388	0.000497	4.965779	1.682451	0.000199
1861	1.8507e+02	-5.9068	-238.255603	0.000760	7.600681	2.575181	0.000304
1862	1.8517e+02	-5.8538	-238.029523	0.000568	5.675175	1.922802	0.000227
1863	1.8527e+02	-5.8250	-237.787295	0.000608	6.080545	2.060144	0.000243
1864	1.8537e+02	-5.7752	-237.561215	0.000568	5.675175	1.922802	0.000227
1865	1.8547e+02	-5.7351	-237.339173	0.000557	5.573833	1.888466	0.000223
1866	1.8557e+02	-5.6982	-237.076759	0.000659	6.587257	2.231823	0.000264
1867	1.8567e+02	-5.6613	-236.810308	0.000669	6.688600	2.266159	0.000268
1868	1.8577e+02	-5.6212	-236.580191	0.000578	5.776518	1.957137	0.000231
1869	1.8587e+02	-5.5843	-236.309703	0.000679	6.789942	2.300495	0.000272
1870	1.8597e+02	-5.5506	-236.006918	0.000760	7.600681	2.575181	0.000304
1871	1.8606e+02	-5.4961	-235.780839	0.000568	5.675175	1.922802	0.000227
1872	1.8616e+02	-5.4656	-235.498239	0.000709	7.093969	2.403502	0.000284
1873	1.8626e+02	-5.4287	-235.284271	0.000537	5.371148	1.819794	0.000215
1874	1.8636e+02	-5.3806	-235.046080	0.000598	5.979203	2.025809	0.000239
1875	1.8646e+02	-5.3357	-234.791740	0.000638	6.384572	2.163152	0.000256
1876	1.8656e+02	-5.3020	-234.513178	0.000699	6.992627	2.369166	0.000280
1877	1.8666e+02	-5.2571	-234.262875	0.000628	6.283230	2.128816	0.000252
1878	1.8676e+02	-5.2234	-234.032759	0.000578	5.776518	1.957137	0.000231
1879	1.8686e+02	-5.1897	-233.746122	0.000720	7.195312	2.437838	0.000288
1880	1.8696e+02	-5.1351	-233.467560	0.000699	6.992627	2.369166	0.000280
1881	1.8706e+02	-5.1031	-233.229369	0.000598	5.979203	2.025809	0.000239
1882	1.8716e+02	-5.0694	-232.999252	0.000578	5.776518	1.957137	0.000231
1883	1.8726e+02	-5.0245	-232.736838	0.000659	6.587257	2.231823	0.000264
1884	1.8736e+02	-4.9747	-232.442127	0.000740	7.397997	2.506509	0.000296
1885	1.8746e+02	-4.9410	-232.252382	0.000476	4.763094	1.613780	0.000191
1886	1.8756e+02	-4.9025	-231.969782	0.000709	7.093969	2.403502	0.000284
1887	1.8766e+02	-4.8592	-231.703331	0.000669	6.688600	2.266159	0.000268
1888	1.8776e+02	-4.8271	-231.436880	0.000669	6.688600	2.266159	0.000268
1889	1.8786e+02	-4.7918	-231.158318	0.000699	6.992627	2.369166	0.000280
1890	1.8796e+02	-4.7389	-230.908016	0.000628	6.283230	2.128816	0.000252
1891	1.8806e+02	-4.7052	-230.605230	0.000760	7.600681	2.575181	0.000304
1892	1.8815e+02	-4.6635	-230.354928	0.000628	6.283230	2.128816	0.000252
1893	1.8825e+02	-4.6170	-230.084440	0.000679	6.789942	2.300495	0.000272
1894	1.8835e+02	-4.5817	-229.850286	0.000588	5.877860	1.991473	0.000235
1895	1.8845e+02	-4.5448	-229.559612	0.000730	7.296654	2.472173	0.000292
1896	1.8855e+02	-4.4983	-229.289124	0.000679	6.789942	2.300495	0.000272
1897	1.8865e+02	-4.4646	-229.059008	0.000578	5.776518	1.957137	0.000231
1898	1.8875e+02	-4.4261	-228.776408	0.000709	7.093969	2.403502	0.000284
1899	1.8885e+02	-4.3844	-228.481697	0.000740	7.397997	2.506509	0.000296
1900	1.8895e+02	-4.3475	-228.247543	0.000588	5.877860	1.991473	0.000235
1901	1.8905e+02	-4.2977	-227.956869	0.000730	7.296654	2.472173	0.000292
1902	1.8915e+02	-4.2576	-227.730790	0.000568	5.675175	1.922802	0.000227
1903	1.8925e+02	-4.2239	-227.415893	0.000790	7.904709	2.678188	0.000316
1904	1.8935e+02	-4.1790	-227.141368	0.000689	6.891285	2.334830	0.000276
1905	1.8945e+02	-4.1469	-226.854731	0.000720	7.195312	2.437838	0.000288
1906	1.8955e+02	-4.1068	-226.612503	0.000608	6.080545	2.060144	0.000243
1907	1.8965e+02	-4.0571	-226.370275	0.000608	6.080545	2.060144	0.000243
1908	1.8975e+02	-4.0282	-226.083638	0.000720	7.195312	2.437838	0.000288
1909	1.8985e+02	-3.9849	-225.813150	0.000679	6.789942	2.300495	0.000272
1910	1.8995e+02	-3.9448	-225.538625	0.000689	6.891285	2.334830	0.000276
1911	1.9004e+02	-3.9127	-225.243914	0.000740	7.397997	2.506509	0.000296
1912	1.9014e+02	-3.8566	-224.973426	0.000679	6.789942	2.300495	0.000272
1913	1.9024e+02	-3.8197	-224.731198	0.000608	6.080545	2.060144	0.000243
1914	1.9034e+02	-3.7908	-224.384004	0.000872	8.715448	2.952874	0.000349
1915	1.9044e+02	-3.7539	-224.137739	0.000618	6.181888	2.094480	0.000248
1916	1.9054e+02	-3.7122	-223.818805	0.000801	8.006051	2.712524	0.000321
1917	1.9064e+02	-3.6705	-223.584651	0.000588	5.877860	1.991473	0.000235
1918	1.9074e+02	-3.6336	-223.298015	0.000720	7.195312	2.437838	0.000288
1919	1.9084e+02	-3.5887	-223.015415	0.000709	7.093969	2.403502	0.000284
1920	1.9094e+02	-3.5566	-222.704556	0.000780	7.803366	2.643852	0.000312
1921	1.9104e+02	-3.5165	-222.405808	0.000750	7.499339	2.540845	0.000300
1922	1.9114e+02	-3.4764	-222.143394	0.000659	6.587257	2.231823	0.000264
1923	1.9124e+02	-3.4315	-221.889054	0.000638	6.384572	2.163152	0.000256
1924	1.9134e+02	-3.3865	-221.610492	0.000699	6.992627	2.369166	0.000280
1925	1.9144e+02	-3.3448	-221.295595	0.000790	7.904709	2.678188	0.000316
1926	1.9154e+02	-3.3031	-221.017033	0.000699	6.992627	2.369166	0.000280
1927	1.9164e+02	-3.2694	-220.694062	0.000811	8.107394	2.746859	0.000325
1928	1.9174e+02	-3.2357	-220.411463	0.000709	7.093969	2.403502	0.000284
1929	1.9184e+02	-3.1876	-220.140975	0.000679	6.789942	2.300495	0.000272
1930	1.9194e+02	-3.1427	-219.886635	0.000638	6.384572	2.163152	0.000256
1931	1.9203e+02	-3.1122	-219.587887	0.000750	7.499339	2.540845	0.000300
1932	1.9213e+02	-3.0737	-219.272990	0.000790	7.904709	2.678188	0.000316
1933	1.9223e+02	-3.0304	-219.002502	0.000679	6.789942	2.300495	0.000272
1934	1.9233e+02	-2.9871	-218.655309	0.000872	8.715448	2.952874	0.000349
1935	1.9243e+02	-2.9534	-218.429229	0.000568	5.675175	1.922802	0.000227
1936	1.9253e+02	-2.9085	-218.142592	0.000720	7.195312	2.437838	0.000288
1937	1.9263e+02	-2.8716	-217.791362	0.000882	8.816790	2.987209	0.000353
1938	1.9273e+02	-2.8251	-217.464354	0.000821	8.208736	2.781195	0.000329
1939	1.9283e+02	-2.7914	-217.201940	0.000659	6.587257	2.231823	0.000264
1940	1.9293e+02	-2.7561	-216.923377	0.000699	6.992627	2.369166	0.000280
1941	1.9303e+02	-2.7192	-216.596369	0.000821	8.208736	2.781195	0.000329
1942	1.9313e+02	-2.6727	-216.309733	0.000720	7.195312	2.437838	0.000288
1943	1.9323e+02	-2.6325	-216.002911	0.000770	7.702024	2.609516	0.000308
1944	1.9333e+02	-2.5924	-215.720311	0.000709	7.093969	2.403502	0.000284
1945	1.9343e+02	-2.5427	-215.405414	0.000790	7.904709	2.678188	0.000316
1946	1.9353e+02	-2.5106	-215.110704	0.000740	7.397997	2.506509	0.000296
1947	1.9363e+02	-2.4737	-214.795807	0.000790	7.904709	2.678188	0.000316
1948	1.9373e+02	-2.4272	-214.513207	0.000709	7.093969	2.403502	0.000284
1949	1.9383e+02	-2.3855	-214.246756	0.000669	6.688600	2.266159	0.000268
1950	1.9393e+02	-2.3486	-213.935897	0.000780	7.803366	2.643852	0.000312
1951	1.9403e+02	-2.3149	-213.621000	0.000790	7.904709	2.678188	0.000316
1952	1.9412e+02	-2.2748	-213.330327	0.000730	7.296654	2.472173	0.000292
1953	1.9422e+02	-2.2251	-213.051764	0.000699	6.992627	2.369166	0.000280
1954	1.9432e+02	-2.1898	-212.744942	0.000770	7.702024	2.609516	0.000308
1955	1.9442e+02	-2.1593	-212.426008	0.000801	8.006051	2.712524	0.000321
1956	1.9452e+02	-2.1192	-212.099000	0.000821	8.208736	2.781195	0.000329
1957	1.9462e+02	-2.0711	-211.792178	0.000770	7.702024	2.609516	0.000308
1958	1.9472e+02	-2.0278	-211.501504	0.000730	7.296654	2.472173	0.000292
1959	1.9482e+02	-1.9989	-211.194682	0.000770	7.702024	2.609516	0.000308
1960	1.9492e+02	-1.9491	-210.932268	0.000659	6.587257	2.231823	0.000264
1961	1.9502e+02	-1.9171	-210.593149	0.000851	8.512763	2.884202	0.000341
1962	1.9512e+02	-1.8705	-210.237881	0.000892	8.918133	3.021545	0.000357
1963	1.9522e+02	-1.8240	-209.906836	0.000831	8.310078	2.815531	0.000333
1964	1.9532e+02	-1.7839	-209.636347	0.000679	6.789942	2.300495	0.000272
1965	1.9542e+02	-1.7470	-209.309339	0.000821	8.208736	2.781195	0.000329
1966	1.9552e+02	-1.7053	-209.010591	0.000750	7.499339	2.540845	0.000300
1967	1.9562e+02	-1.6812	-208.691658	0.000801	8.006051	2.712524	0.000321
1968	1.9572e+02	-1.6411	-208.396947	0.000740	7.397997	2.506509	0.000296
1969	1.9582e+02	-1.5898	-208.086087	0.000780	7.803366	2.643852	0.000312
1970	1.9592e+02	-1.5577	-207.791376	0.000740	7.397997	2.506509	0.000296
1971	1.9601e+02	-1.5208	-207.452257	0.000851	8.512763	2.884202	0.000341
1972	1.9611e+02	-1.4743	-207.101026	0.000882	8.816790	2.987209	0.000353
1973	1.9621e+02	-1.4310	-206.810352	0.000730	7.296654	2.472173	0.000292
1974	1.9631e+02	-1.3989	-206.475270	0.000841	8.411421	2.849867	0.000337
1975	1.9641e+02	-1.3556	-206.140188	0.000841	8.411421	2.849867	0.000337
1976	1.9651e+02	-1.3155	-205.849514	0.000730	7.296654	2.472173	0.000292
1977	1.9661e+02	-1.2770	-205.526543	0.000811	8.107394	2.746859	0.000325
1978	1.9671e+02	-1.2337	-205.219721	0.000770	7.702024	2.609516	0.000308
1979	1.9681e+02	-1.1871	-204.896750	0.000811	8.107394	2.746859	0.000325
1980	1.9691e+02	-1.1567	-204.598002	0.000750	7.499339	2.540845	0.000300
1981	1.9701e+02	-1.1230	-204.258883	0.000851	8.512763	2.884202	0.000341
1982	1.9711e+02	-1.0780	-203.911689	0.000872	8.715448	2.952874	0.000349
1983	1.9721e+02	-1.0476	-203.568532	0.000861	8.614106	2.918538	0.000345
1984	1.9731e+02	-0.9946	-203.245562	0.000811	8.107394	2.746859	0.000325
1985	1.9741e+02	-0.9561	-202.918554	0.000821	8.208736	2.781195	0.000329
1986	1.9751e+02	-0.9128	-202.607694	0.000780	7.803366	2.643852	0.000312
1987	1.9761e+02	-0.8823	-202.256463	0.000882	8.816790	2.987209	0.000353
1988	1.9771e+02	-0.8326	-201.905233	0.000882	8.816790	2.987209	0.000353
1989	1.9781e+02	-0.8005	-201.562076	0.000861	8.614106	2.918538	0.000345
1990	1.9791e+02	-0.7572	-201.291588	0.000679	6.789942	2.300495	0.000272
1991	1.9800e+02	-0.7251	-200.920171	0.000932	9.323503	3.158888	0.000373
1992	1.9810e+02	-0.6738	-200.572978	0.000872	8.715448	2.952874	0.000349
1993	1.9820e+02	-0.6321	-200.241933	0.000831	8.310078	2.815531	0.000333
1994	1.9830e+02	-0.5952	-199.943185	0.000750	7.499339	2.540845	0.000300
1995	1.9840e+02	-0.5535	-199.563694	0.000953	9.526187	3.227560	0.000381
1996	1.9850e+02	-0.5118	-199.285131	0.000699	6.992627	2.369166	0.000280
1997	1.9860e+02	-0.4765	-198.925826	0.000902	9.019475	3.055881	0.000361
1998	1.9870e+02	-0.4380	-198.558447	0.000922	9.222160	3.124552	0.000369
1999	1.9880e+02	-0.4059	-198.223365	0.000841	8.411421	2.849867	0.000337
2000	1.9890e+02	-0.3626	-197.904431	0.000801	8.006051	2.712524	0.000321
2001	1.9900e+02	-0.3225	-197.589534	0.000790	7.904709	2.678188	0.000316
2002	1.9910e+02	-0.2791	-197.181784	0.001024	10.235584	3.467910	0.000410
2003	1.9920e+02	-0.2390	-196.907258	0.000689	6.891285	2.334830	0.000276
2004	1.9930e+02	-0.2086	-196.527768	0.000953	9.526187	3.227560	0.000381
2005	1.9940e+02	-0.1588	-196.180574	0.000872	8.715448	2.952874	0.000349
2006	1.9950e+02	-0.1123	-195.893937	0.000720	7.195312	2.437838	0.000288
2007	1.9960e+02	-0.0786	-195.534632	0.000902	9.019475	3.055881	0.000361
2008	1.9970e+02	-0.0433	-195.175327	0.000902	9.019475	3.055881	0.000361
2009	1.9980e+02	-0.0048	-194.816022	0.000902	9.019475	3.055881	0.000361

Center data before PMax,+/-Pr and +/-Vc Calc.

PMax (uC/cm2):	2.88e+02
Pr (uC/cm2):	1.76e+02
-Pr (uC/cm2):	-1.95e+02
PLoss (uC/cm2):	-3.52e+02
-Vc:	-1.61e+01
C (Max-Eff) (nF):	1.44e+00
K (Eff):	4.89e+03
Vert. (+/-Pr) Shift (uC/cm2):	-9.36e+00
Offset (uC/cm2):	-1.57e+02

A (Loop Area - uC/cm2·Volts):	-1.97e+00



Hysteresis Version: 5.48.1 - Radiant Technologies, Inc., 1999 - 9/12/24

