»»»»»»»»»»»»»»»»»»»»»»»»»»»»»»»»»»»» Hysteresis ««««««««««««««««««««««««««««««««««««
»»»  Executed Version:	5.48.1
»»»  Vision Version:	5.48.4 (R)
»»»  Vision Compiled:	9/18/24
»»»  Driver Version:	5.47.0
»»»  Windows Version:	Windows 8 or 8.1
»»»  Processor Information:	x86 (AMD or Intel) - 32 Processors
»»»  Tester Name:	PMF21124-494 (100V)
»»»  Tester S/N:	PMF21124-494
»»»  Internal Amp Type:	100V RevK 270k
»»»  Internal Amp S/N:	iAB2-596/K     
»»»  Execution Count:	1
»»»»»»»»»»»»»»»»»»»»»»»»»»»»»»»»»»»»»»»»»»««««««««««««««««««««««««««««««««««««««««««

Stored:	6/5/2025 - 17:16:57
Configured:	06/05/25 02:51:50 PM
Executed:	06/05/25 05:16:16 PM

»»»»»»»»»»»»»»»»»»»»»»»»»»»»»»»»»»» Sample Info ««««««««««««««««««««««««««««««««««««
Sample Name:	
Lot Name:	
Wafer Name:	
Die Row/Column:	0/0
Capacitor Number:	0
Sample Area (cm2):	1.00e-04
Sample Thickness (microns):	3.00e-01

Amplifier:	Internal

»»»»»»»»»»»»»»»»»»»»»»»»»»»»»»»»»»» Tester Info «««««««««««««««««««««««««««««««««««
Tester Name:	PMF21124-494 (100V)
Tester Serial Number:	PMF21124-494
Return Signal Amp. Level:	0.19 [Index: 3]

»»»»»»»»»»»»»»»»»»»»»»»»»»»»»»»» Hysteresis Info ««««««««««««««««««««««««««««««««««
Task Name:	Hyst-353
Volts:	20.00
Field:	666.67 (kV/cm)
DCBias:	0.00
DCField:	0.00 (kV/cm)
Hysteresis Period (ms):	2.00e+02
Preset:	Enabled
Preset Delay (ms):	1.00e+03
Profile:	Standard Bipolar

»»»»»»»»»»»»»»»»»»»»»»»»»»»»»»»»»»»»»» Data «««««««««««««««««««««««««««««««««««««««
Points:	2009

Valid Data

Point	Time (ms)	Drive Voltage	Measured Polarization (uC/cm2)	Capacitance (uF)	Normalized Capacitance (uF/cm2)	Dielectric Constant	Instantaneous Current (mA)
   1	0.0000e+00	0.0016	127.864163	0.000395	3.953306	1.339416	0.000158
   2	9.9500e-02	0.0321	128.021611	0.000395	3.953306	1.339416	0.000158
   3	1.9900e-01	0.0706	128.231542	0.000527	5.271074	1.785888	0.000211
   4	2.9850e-01	0.1107	128.510105	0.000699	6.994310	2.369736	0.000280
   5	3.9800e-01	0.1540	128.776556	0.000669	6.690210	2.266704	0.000268
   6	4.9750e-01	0.1909	129.018784	0.000608	6.082009	2.060640	0.000243
   7	5.9700e-01	0.2374	129.317532	0.000750	7.501144	2.541456	0.000300
   8	6.9650e-01	0.2583	129.620317	0.000760	7.602511	2.575800	0.000304
   9	7.9600e-01	0.3096	129.854471	0.000588	5.879275	1.991952	0.000235
  10	8.9550e-01	0.3561	130.165330	0.000781	7.805245	2.644488	0.000312
  11	9.9500e-01	0.3914	130.431781	0.000669	6.690210	2.266704	0.000268
  12	1.0945e+00	0.4315	130.766864	0.000841	8.413446	2.850553	0.000337
  13	1.1940e+00	0.4765	131.025240	0.000649	6.487476	2.198016	0.000260
  14	1.2935e+00	0.5198	131.340137	0.000791	7.906612	2.678832	0.000316
  15	1.3930e+00	0.5374	131.618699	0.000699	6.994310	2.369736	0.000280
  16	1.4925e+00	0.5936	131.953782	0.000841	8.413446	2.850553	0.000337
  17	1.5920e+00	0.6337	132.232344	0.000699	6.994310	2.369736	0.000280
  18	1.6915e+00	0.6706	132.591649	0.000902	9.021646	3.056617	0.000361
  19	1.7910e+00	0.7091	132.882323	0.000730	7.298411	2.472768	0.000292
  20	1.8905e+00	0.7444	133.205294	0.000811	8.109345	2.747521	0.000325
  21	1.9900e+00	0.7813	133.455596	0.000628	6.284742	2.129328	0.000252
  22	2.0895e+00	0.8294	133.810864	0.000892	8.920280	3.022273	0.000357
  23	2.1890e+00	0.8615	134.125761	0.000791	7.906612	2.678832	0.000316
  24	2.2885e+00	0.9064	134.436620	0.000781	7.805245	2.644488	0.000312
  25	2.3880e+00	0.9497	134.739405	0.000760	7.602511	2.575800	0.000304
  26	2.4875e+00	0.9802	135.050265	0.000781	7.805245	2.644488	0.000312
  27	2.5870e+00	1.0219	135.409570	0.000902	9.021646	3.056617	0.000361
  28	2.6865e+00	1.0700	135.704281	0.000740	7.399777	2.507112	0.000296
  29	2.7860e+00	1.1133	136.035326	0.000831	8.312079	2.816209	0.000333
  30	2.8855e+00	1.1454	136.362334	0.000821	8.210712	2.781865	0.000329
  31	2.9850e+00	1.1903	136.689342	0.000821	8.210712	2.781865	0.000329
  32	3.0845e+00	1.2304	136.992127	0.000760	7.602511	2.575800	0.000304
  33	3.1840e+00	1.2754	137.343358	0.000882	8.818913	2.987929	0.000353
  34	3.2835e+00	1.3074	137.702663	0.000902	9.021646	3.056617	0.000361
  35	3.3830e+00	1.3540	137.997374	0.000740	7.399777	2.507112	0.000296
  36	3.4825e+00	1.3812	138.320345	0.000811	8.109345	2.747521	0.000325
  37	3.5820e+00	1.4342	138.671575	0.000882	8.818913	2.987929	0.000353
  38	3.6815e+00	1.4647	139.006658	0.000841	8.413446	2.850553	0.000337
  39	3.7810e+00	1.5096	139.378074	0.000933	9.325747	3.159649	0.000373
  40	3.8805e+00	1.5449	139.676822	0.000750	7.501144	2.541456	0.000300
  41	3.9800e+00	1.5850	140.007867	0.000831	8.312079	2.816209	0.000333
  42	4.0795e+00	1.6235	140.346987	0.000851	8.514812	2.884897	0.000341
  43	4.1790e+00	1.6684	140.698218	0.000882	8.818913	2.987929	0.000353
  44	4.2785e+00	1.6989	141.033300	0.000841	8.413446	2.850553	0.000337
  45	4.3780e+00	1.7454	141.384531	0.000882	8.818913	2.987929	0.000353
  46	4.4775e+00	1.7855	141.655019	0.000679	6.791577	2.301048	0.000272
  47	4.5770e+00	1.8288	142.030472	0.000943	9.427114	3.193993	0.000377
  48	4.6765e+00	1.8737	142.385740	0.000892	8.920280	3.022273	0.000357
  49	4.7760e+00	1.9042	142.692563	0.000770	7.703878	2.610144	0.000308
  50	4.8755e+00	1.9427	143.076091	0.000963	9.629847	3.262681	0.000385
  51	4.9750e+00	1.9909	143.395024	0.000801	8.007978	2.713177	0.000321
  52	5.0745e+00	2.0294	143.705884	0.000781	7.805245	2.644488	0.000312
  53	5.1740e+00	2.0534	144.045003	0.000851	8.514812	2.884897	0.000341
  54	5.2735e+00	2.1031	144.380085	0.000841	8.413446	2.850553	0.000337
  55	5.3730e+00	2.1352	144.735353	0.000892	8.920280	3.022273	0.000357
  56	5.4725e+00	2.1834	145.147141	0.001034	10.339415	3.503089	0.000414
  57	5.5720e+00	2.2219	145.458001	0.000781	7.805245	2.644488	0.000312
  58	5.6715e+00	2.2668	145.817306	0.000902	9.021646	3.056617	0.000361
  59	5.7710e+00	2.3069	146.099905	0.000710	7.095677	2.404080	0.000284
  60	5.8705e+00	2.3422	146.475359	0.000943	9.427114	3.193993	0.000377
  61	5.9700e+00	2.3759	146.850812	0.000943	9.427114	3.193993	0.000377
  62	6.0695e+00	2.4304	147.141486	0.000730	7.298411	2.472768	0.000292
  63	6.1690e+00	2.4529	147.468494	0.000821	8.210712	2.781865	0.000329
  64	6.2685e+00	2.5010	147.827799	0.000902	9.021646	3.056617	0.000361
  65	6.3680e+00	2.5459	148.235550	0.001024	10.238048	3.468745	0.000410
  66	6.4675e+00	2.5892	148.546409	0.000781	7.805245	2.644488	0.000312
  67	6.5670e+00	2.6277	148.889566	0.000862	8.616179	2.919241	0.000345
  68	6.6665e+00	2.6614	149.244834	0.000892	8.920280	3.022273	0.000357
  69	6.7660e+00	2.6999	149.547619	0.000760	7.602511	2.575800	0.000304
  70	6.8655e+00	2.7432	149.906924	0.000902	9.021646	3.056617	0.000361
  71	6.9650e+00	2.7817	150.250081	0.000862	8.616179	2.919241	0.000345
  72	7.0645e+00	2.8138	150.569014	0.000801	8.007978	2.713177	0.000321
  73	7.1640e+00	2.8571	150.924282	0.000892	8.920280	3.022273	0.000357
  74	7.2635e+00	2.9101	151.291662	0.000922	9.224380	3.125305	0.000369
  75	7.3630e+00	2.9438	151.630781	0.000851	8.514812	2.884897	0.000341
  76	7.4625e+00	2.9935	151.945678	0.000791	7.906612	2.678832	0.000316
  77	7.5620e+00	3.0208	152.341317	0.000993	9.933948	3.365713	0.000398
  78	7.6615e+00	3.0529	152.656214	0.000791	7.906612	2.678832	0.000316
  79	7.7610e+00	3.0994	152.983222	0.000821	8.210712	2.781865	0.000329
  80	7.8605e+00	3.1507	153.334452	0.000882	8.818913	2.987929	0.000353
  81	7.9600e+00	3.1748	153.697795	0.000912	9.123013	3.090961	0.000365
  82	8.0595e+00	3.2261	154.028840	0.000831	8.312079	2.816209	0.000333
  83	8.1590e+00	3.2678	154.355848	0.000821	8.210712	2.781865	0.000329
  84	8.2585e+00	3.2951	154.731301	0.000943	9.427114	3.193993	0.000377
  85	8.3580e+00	3.3352	155.042161	0.000781	7.805245	2.644488	0.000312
  86	8.4575e+00	3.3913	155.417615	0.000943	9.427114	3.193993	0.000377
  87	8.5570e+00	3.4186	155.756734	0.000851	8.514812	2.884897	0.000341
  88	8.6565e+00	3.4539	156.079705	0.000811	8.109345	2.747521	0.000325
  89	8.7560e+00	3.5085	156.414787	0.000841	8.413446	2.850553	0.000337
  90	8.8555e+00	3.5454	156.741795	0.000821	8.210712	2.781865	0.000329
  91	8.9550e+00	3.5758	157.105137	0.000912	9.123013	3.090961	0.000365
  92	9.0545e+00	3.6191	157.456368	0.000882	8.818913	2.987929	0.000353
  93	9.1540e+00	3.6528	157.807599	0.000882	8.818913	2.987929	0.000353
  94	9.2535e+00	3.7026	158.110384	0.000760	7.602511	2.575800	0.000304
  95	9.3530e+00	3.7363	158.469689	0.000902	9.021646	3.056617	0.000361
  96	9.4525e+00	3.7764	158.796697	0.000821	8.210712	2.781865	0.000329
  97	9.5520e+00	3.8229	159.192336	0.000993	9.933948	3.365713	0.000398
  98	9.6515e+00	3.8518	159.458787	0.000669	6.690210	2.266704	0.000268
  99	9.7510e+00	3.8999	159.814055	0.000892	8.920280	3.022273	0.000357
 100	9.8505e+00	3.9304	160.132989	0.000801	8.007978	2.713177	0.000321
 101	9.9500e+00	3.9769	160.484220	0.000882	8.818913	2.987929	0.000353
 102	1.0050e+01	4.0170	160.815265	0.000831	8.312079	2.816209	0.000333
 103	1.0149e+01	4.0571	161.194756	0.000953	9.528481	3.228337	0.000381
 104	1.0248e+01	4.0892	161.477355	0.000710	7.095677	2.404080	0.000284
 105	1.0348e+01	4.1405	161.808400	0.000831	8.312079	2.816209	0.000333
 106	1.0447e+01	4.1726	162.187891	0.000953	9.528481	3.228337	0.000381
 107	1.0547e+01	4.2127	162.490676	0.000760	7.602511	2.575800	0.000304
 108	1.0646e+01	4.2592	162.801536	0.000781	7.805245	2.644488	0.000312
 109	1.0746e+01	4.3026	163.116432	0.000791	7.906612	2.678832	0.000316
 110	1.0845e+01	4.3298	163.524183	0.001024	10.238048	3.468745	0.000410
 111	1.0945e+01	4.3683	163.843117	0.000801	8.007978	2.713177	0.000321
 112	1.1044e+01	4.4116	164.129753	0.000720	7.197044	2.438424	0.000288
 113	1.1144e+01	4.4646	164.509244	0.000953	9.528481	3.228337	0.000381
 114	1.1243e+01	4.5015	164.791844	0.000710	7.095677	2.404080	0.000284
 115	1.1343e+01	4.5336	165.159223	0.000922	9.224380	3.125305	0.000369
 116	1.1443e+01	4.5721	165.506417	0.000872	8.717546	2.953585	0.000349
 117	1.1542e+01	4.6186	165.797090	0.000730	7.298411	2.472768	0.000292
 118	1.1642e+01	4.6523	166.120061	0.000811	8.109345	2.747521	0.000325
 119	1.1741e+01	4.6956	166.479366	0.000902	9.021646	3.056617	0.000361
 120	1.1841e+01	4.7405	166.770040	0.000730	7.298411	2.472768	0.000292
 121	1.1940e+01	4.7838	167.113197	0.000862	8.616179	2.919241	0.000345
 122	1.2040e+01	4.8127	167.420019	0.000770	7.703878	2.610144	0.000308
 123	1.2139e+01	4.8560	167.787398	0.000922	9.224380	3.125305	0.000369
 124	1.2239e+01	4.8817	168.090184	0.000760	7.602511	2.575800	0.000304
 125	1.2338e+01	4.9378	168.392969	0.000760	7.602511	2.575800	0.000304
 126	1.2438e+01	4.9811	168.728051	0.000841	8.413446	2.850553	0.000337
 127	1.2537e+01	5.0132	169.095430	0.000922	9.224380	3.125305	0.000369
 128	1.2636e+01	5.0549	169.410327	0.000791	7.906612	2.678832	0.000316
 129	1.2736e+01	5.0934	169.688889	0.000699	6.994310	2.369736	0.000280
 130	1.2835e+01	5.1319	170.060306	0.000933	9.325747	3.159649	0.000373
 131	1.2935e+01	5.1801	170.363091	0.000760	7.602511	2.575800	0.000304
 132	1.3034e+01	5.2170	170.730470	0.000922	9.224380	3.125305	0.000369
 133	1.3134e+01	5.2507	171.041330	0.000781	7.805245	2.644488	0.000312
 134	1.3233e+01	5.2892	171.360264	0.000801	8.007978	2.713177	0.000321
 135	1.3333e+01	5.3261	171.695346	0.000841	8.413446	2.850553	0.000337
 136	1.3432e+01	5.3790	172.014280	0.000801	8.007978	2.713177	0.000321
 137	1.3532e+01	5.4191	172.280730	0.000669	6.690210	2.266704	0.000268
 138	1.3632e+01	5.4528	172.652147	0.000933	9.325747	3.159649	0.000373
 139	1.3731e+01	5.4817	172.938784	0.000720	7.197044	2.438424	0.000288
 140	1.3831e+01	5.5298	173.277903	0.000851	8.514812	2.884897	0.000341
 141	1.3930e+01	5.5651	173.625097	0.000872	8.717546	2.953585	0.000349
 142	1.4030e+01	5.6148	173.919808	0.000740	7.399777	2.507112	0.000296
 143	1.4129e+01	5.6485	174.238741	0.000801	8.007978	2.713177	0.000321
 144	1.4229e+01	5.6870	174.557675	0.000801	8.007978	2.713177	0.000321
 145	1.4328e+01	5.7319	174.896794	0.000851	8.514812	2.884897	0.000341
 146	1.4428e+01	5.7752	175.195542	0.000750	7.501144	2.541456	0.000300
 147	1.4527e+01	5.8073	175.506402	0.000781	7.805245	2.644488	0.000312
 148	1.4627e+01	5.8506	175.837447	0.000831	8.312079	2.816209	0.000333
 149	1.4726e+01	5.8843	176.160418	0.000811	8.109345	2.747521	0.000325
 150	1.4825e+01	5.9292	176.471277	0.000781	7.805245	2.644488	0.000312
 151	1.4925e+01	5.9661	176.765988	0.000740	7.399777	2.507112	0.000296
 152	1.5024e+01	6.0095	177.117219	0.000882	8.818913	2.987929	0.000353
 153	1.5124e+01	6.0447	177.432116	0.000791	7.906612	2.678832	0.000316
 154	1.5223e+01	6.0913	177.755087	0.000811	8.109345	2.747521	0.000325
 155	1.5323e+01	6.1346	178.069983	0.000791	7.906612	2.678832	0.000316
 156	1.5422e+01	6.1651	178.384880	0.000791	7.906612	2.678832	0.000316
 157	1.5522e+01	6.2100	178.691702	0.000770	7.703878	2.610144	0.000308
 158	1.5621e+01	6.2581	179.014673	0.000811	8.109345	2.747521	0.000325
 159	1.5721e+01	6.2886	179.337644	0.000811	8.109345	2.747521	0.000325
 160	1.5820e+01	6.3335	179.644466	0.000770	7.703878	2.610144	0.000308
 161	1.5920e+01	6.3624	179.943214	0.000750	7.501144	2.541456	0.000300
 162	1.6020e+01	6.4153	180.262148	0.000801	8.007978	2.713177	0.000321
 163	1.6119e+01	6.4538	180.577044	0.000791	7.906612	2.678832	0.000316
 164	1.6218e+01	6.4827	180.843495	0.000669	6.690210	2.266704	0.000268
 165	1.6318e+01	6.5292	181.174541	0.000831	8.312079	2.816209	0.000333
 166	1.6418e+01	6.5693	181.477326	0.000760	7.602511	2.575800	0.000304
 167	1.6517e+01	6.6094	181.788185	0.000781	7.805245	2.644488	0.000312
 168	1.6616e+01	6.6528	182.119230	0.000831	8.312079	2.816209	0.000333
 169	1.6716e+01	6.6864	182.413941	0.000740	7.399777	2.507112	0.000296
 170	1.6816e+01	6.7314	182.696541	0.000710	7.095677	2.404080	0.000284
 171	1.6915e+01	6.7650	182.999326	0.000760	7.602511	2.575800	0.000304
 172	1.7015e+01	6.8068	183.330371	0.000831	8.312079	2.816209	0.000333
 173	1.7114e+01	6.8469	183.612971	0.000710	7.095677	2.404080	0.000284
 174	1.7213e+01	6.8838	183.944016	0.000831	8.312079	2.816209	0.000333
 175	1.7313e+01	6.9239	184.234689	0.000730	7.298411	2.472768	0.000292
 176	1.7413e+01	6.9672	184.529400	0.000740	7.399777	2.507112	0.000296
 177	1.7512e+01	7.0089	184.828148	0.000750	7.501144	2.541456	0.000300
 178	1.7611e+01	7.0490	185.147082	0.000801	8.007978	2.713177	0.000321
 179	1.7711e+01	7.0843	185.461979	0.000791	7.906612	2.678832	0.000316
 180	1.7811e+01	7.1276	185.764764	0.000760	7.602511	2.575800	0.000304
 181	1.7910e+01	7.1661	186.091772	0.000821	8.210712	2.781865	0.000329
 182	1.8009e+01	7.2030	186.414743	0.000811	8.109345	2.747521	0.000325
 183	1.8109e+01	7.2415	186.697342	0.000710	7.095677	2.404080	0.000284
 184	1.8209e+01	7.2816	186.992053	0.000740	7.399777	2.507112	0.000296
 185	1.8308e+01	7.3233	187.319061	0.000821	8.210712	2.781865	0.000329
 186	1.8407e+01	7.3618	187.621846	0.000760	7.602511	2.575800	0.000304
 187	1.8507e+01	7.3971	187.965003	0.000862	8.616179	2.919241	0.000345
 188	1.8607e+01	7.4420	188.255677	0.000730	7.298411	2.472768	0.000292
 189	1.8706e+01	7.4789	188.538276	0.000710	7.095677	2.404080	0.000284
 190	1.8805e+01	7.5271	188.849136	0.000781	7.805245	2.644488	0.000312
 191	1.8905e+01	7.5624	189.135772	0.000720	7.197044	2.438424	0.000288
 192	1.9005e+01	7.6105	189.438557	0.000760	7.602511	2.575800	0.000304
 193	1.9104e+01	7.6378	189.773640	0.000841	8.413446	2.850553	0.000337
 194	1.9203e+01	7.6827	190.072388	0.000750	7.501144	2.541456	0.000300
 195	1.9303e+01	7.7164	190.363061	0.000730	7.298411	2.472768	0.000292
 196	1.9402e+01	7.7661	190.686032	0.000811	8.109345	2.747521	0.000325
 197	1.9502e+01	7.8078	190.992855	0.000770	7.703878	2.610144	0.000308
 198	1.9602e+01	7.8463	191.283528	0.000730	7.298411	2.472768	0.000292
 199	1.9701e+01	7.8864	191.610536	0.000821	8.210712	2.781865	0.000329
 200	1.9800e+01	7.9217	191.901210	0.000730	7.298411	2.472768	0.000292
 201	1.9900e+01	7.9554	192.208032	0.000770	7.703878	2.610144	0.000308
 202	2.0000e+01	7.9987	192.506781	0.000750	7.501144	2.541456	0.000300
 203	2.0099e+01	8.0452	192.813603	0.000770	7.703878	2.610144	0.000308
 204	2.0198e+01	8.0869	193.092165	0.000699	6.994310	2.369736	0.000280
 205	2.0298e+01	8.1222	193.419173	0.000821	8.210712	2.781865	0.000329
 206	2.0398e+01	8.1591	193.709847	0.000730	7.298411	2.472768	0.000292
 207	2.0497e+01	8.2040	194.040892	0.000831	8.312079	2.816209	0.000333
 208	2.0596e+01	8.2393	194.283120	0.000608	6.082009	2.060640	0.000243
 209	2.0696e+01	8.2875	194.610128	0.000821	8.210712	2.781865	0.000329
 210	2.0796e+01	8.3276	194.916951	0.000770	7.703878	2.610144	0.000308
 211	2.0895e+01	8.3581	195.235884	0.000801	8.007978	2.713177	0.000321
 212	2.0994e+01	8.4014	195.526558	0.000730	7.298411	2.472768	0.000292
 213	2.1094e+01	8.4447	195.825306	0.000750	7.501144	2.541456	0.000300
 214	2.1194e+01	8.4752	196.124054	0.000750	7.501144	2.541456	0.000300
 215	2.1293e+01	8.5201	196.410691	0.000720	7.197044	2.438424	0.000288
 216	2.1392e+01	8.5586	196.721550	0.000781	7.805245	2.644488	0.000312
 217	2.1492e+01	8.5987	197.024335	0.000760	7.602511	2.575800	0.000304
 218	2.1591e+01	8.6292	197.315009	0.000730	7.298411	2.472768	0.000292
 219	2.1691e+01	8.6901	197.589534	0.000689	6.892943	2.335392	0.000276
 220	2.1791e+01	8.7238	197.900394	0.000781	7.805245	2.644488	0.000312
 221	2.1890e+01	8.7479	198.207216	0.000770	7.703878	2.610144	0.000308
 222	2.1989e+01	8.7992	198.473667	0.000669	6.690210	2.266704	0.000268
 223	2.2089e+01	8.8377	198.760304	0.000720	7.197044	2.438424	0.000288
 224	2.2189e+01	8.8746	199.091349	0.000831	8.312079	2.816209	0.000333
 225	2.2288e+01	8.9276	199.418357	0.000821	8.210712	2.781865	0.000329
 226	2.2387e+01	8.9645	199.680771	0.000659	6.588843	2.232360	0.000264
 227	2.2487e+01	8.9901	199.967407	0.000720	7.197044	2.438424	0.000288
 228	2.2587e+01	9.0350	200.290378	0.000811	8.109345	2.747521	0.000325
 229	2.2686e+01	9.0816	200.544718	0.000639	6.386109	2.163672	0.000256
 230	2.2785e+01	9.1169	200.835392	0.000730	7.298411	2.472768	0.000292
 231	2.2885e+01	9.1505	201.142214	0.000770	7.703878	2.610144	0.000308
 232	2.2985e+01	9.1987	201.444999	0.000760	7.602511	2.575800	0.000304
 233	2.3084e+01	9.2452	201.731636	0.000720	7.197044	2.438424	0.000288
 234	2.3183e+01	9.2789	202.018272	0.000720	7.197044	2.438424	0.000288
 235	2.3283e+01	9.3158	202.337206	0.000801	8.007978	2.713177	0.000321
 236	2.3383e+01	9.3527	202.567323	0.000578	5.777908	1.957608	0.000231
 237	2.3482e+01	9.3976	202.898368	0.000831	8.312079	2.816209	0.000333
 238	2.3581e+01	9.4377	203.201153	0.000760	7.602511	2.575800	0.000304
 239	2.3681e+01	9.4842	203.516050	0.000791	7.906612	2.678832	0.000316
 240	2.3780e+01	9.5163	203.758278	0.000608	6.082009	2.060640	0.000243
 241	2.3880e+01	9.5548	204.052989	0.000740	7.399777	2.507112	0.000296
 242	2.3980e+01	9.5965	204.367885	0.000791	7.906612	2.678832	0.000316
 243	2.4079e+01	9.6430	204.630299	0.000659	6.588843	2.232360	0.000264
 244	2.4178e+01	9.6687	204.900787	0.000679	6.791577	2.301048	0.000272
 245	2.4278e+01	9.7217	205.195498	0.000740	7.399777	2.507112	0.000296
 246	2.4378e+01	9.7585	205.486172	0.000730	7.298411	2.472768	0.000292
 247	2.4477e+01	9.7922	205.776846	0.000730	7.298411	2.472768	0.000292
 248	2.4576e+01	9.8388	206.039260	0.000659	6.588843	2.232360	0.000264
 249	2.4676e+01	9.8676	206.346082	0.000770	7.703878	2.610144	0.000308
 250	2.4776e+01	9.9077	206.644830	0.000750	7.501144	2.541456	0.000300
 251	2.4875e+01	9.9575	206.927429	0.000710	7.095677	2.404080	0.000284
 252	2.4974e+01	9.9992	207.250400	0.000811	8.109345	2.747521	0.000325
 253	2.5074e+01	10.0313	207.533000	0.000710	7.095677	2.404080	0.000284
 254	2.5174e+01	10.0810	207.771191	0.000598	5.980642	2.026296	0.000239
 255	2.5273e+01	10.1195	208.073976	0.000760	7.602511	2.575800	0.000304
 256	2.5372e+01	10.1532	208.388873	0.000791	7.906612	2.678832	0.000316
 257	2.5472e+01	10.1965	208.639175	0.000628	6.284742	2.129328	0.000252
 258	2.5572e+01	10.2350	208.937923	0.000750	7.501144	2.541456	0.000300
 259	2.5671e+01	10.2735	209.216485	0.000699	6.994310	2.369736	0.000280
 260	2.5770e+01	10.3200	209.491011	0.000689	6.892943	2.335392	0.000276
 261	2.5870e+01	10.3505	209.809944	0.000801	8.007978	2.713177	0.000321
 262	2.5970e+01	10.3906	210.092544	0.000710	7.095677	2.404080	0.000284
 263	2.6069e+01	10.4307	210.326698	0.000588	5.879275	1.991952	0.000235
 264	2.6169e+01	10.4853	210.629483	0.000760	7.602511	2.575800	0.000304
 265	2.6268e+01	10.5206	210.916119	0.000720	7.197044	2.438424	0.000288
 266	2.6367e+01	10.5494	211.194682	0.000699	6.994310	2.369736	0.000280
 267	2.6467e+01	10.5767	211.432873	0.000598	5.980642	2.026296	0.000239
 268	2.6567e+01	10.6361	211.751807	0.000801	8.007978	2.713177	0.000321
 269	2.6666e+01	10.6746	212.002109	0.000628	6.284742	2.129328	0.000252
 270	2.6765e+01	10.7050	212.248374	0.000618	6.183376	2.094984	0.000248
 271	2.6865e+01	10.7516	212.583457	0.000841	8.413446	2.850553	0.000337
 272	2.6965e+01	10.7901	212.853945	0.000679	6.791577	2.301048	0.000272
 273	2.7064e+01	10.8270	213.132507	0.000699	6.994310	2.369736	0.000280
 274	2.7163e+01	10.8719	213.386847	0.000639	6.386109	2.163672	0.000256
 275	2.7263e+01	10.9136	213.649260	0.000659	6.588843	2.232360	0.000264
 276	2.7363e+01	10.9553	213.931860	0.000710	7.095677	2.404080	0.000284
 277	2.7462e+01	10.9986	214.174088	0.000608	6.082009	2.060640	0.000243
 278	2.7561e+01	11.0307	214.464762	0.000730	7.298411	2.472768	0.000292
 279	2.7661e+01	11.0660	214.723138	0.000649	6.487476	2.198016	0.000260
 280	2.7761e+01	11.1045	215.017849	0.000740	7.399777	2.507112	0.000296
 281	2.7860e+01	11.1542	215.288338	0.000679	6.791577	2.301048	0.000272
 282	2.7959e+01	11.2024	215.583048	0.000740	7.399777	2.507112	0.000296
 283	2.8059e+01	11.2232	215.833351	0.000628	6.284742	2.129328	0.000252
 284	2.8159e+01	11.2826	216.059430	0.000568	5.676542	1.923264	0.000227
 285	2.8258e+01	11.3147	216.386438	0.000821	8.210712	2.781865	0.000329
 286	2.8358e+01	11.3483	216.616555	0.000578	5.777908	1.957608	0.000231
 287	2.8457e+01	11.3868	216.887043	0.000679	6.791577	2.301048	0.000272
 288	2.8556e+01	11.4237	217.173680	0.000720	7.197044	2.438424	0.000288
 289	2.8656e+01	11.4687	217.440131	0.000669	6.690210	2.266704	0.000268
 290	2.8756e+01	11.5152	217.674285	0.000588	5.879275	1.991952	0.000235
 291	2.8855e+01	11.5457	217.936699	0.000659	6.588843	2.232360	0.000264
 292	2.8954e+01	11.5954	218.227372	0.000730	7.298411	2.472768	0.000292
 293	2.9054e+01	11.6307	218.477675	0.000628	6.284742	2.129328	0.000252
 294	2.9154e+01	11.6612	218.740089	0.000659	6.588843	2.232360	0.000264
 295	2.9253e+01	11.7045	219.014614	0.000689	6.892943	2.335392	0.000276
 296	2.9352e+01	11.7446	219.244731	0.000578	5.777908	1.957608	0.000231
 297	2.9452e+01	11.7879	219.531367	0.000720	7.197044	2.438424	0.000288
 298	2.9552e+01	11.8232	219.805892	0.000689	6.892943	2.335392	0.000276
 299	2.9651e+01	11.8665	220.068306	0.000659	6.588843	2.232360	0.000264
 300	2.9750e+01	11.9082	220.294386	0.000568	5.676542	1.923264	0.000227
 301	2.9850e+01	11.9419	220.552763	0.000649	6.487476	2.198016	0.000260
 302	2.9950e+01	11.9900	220.847473	0.000740	7.399777	2.507112	0.000296
 303	3.0049e+01	12.0189	221.069516	0.000558	5.575175	1.888920	0.000223
 304	3.0148e+01	12.0686	221.368264	0.000750	7.501144	2.541456	0.000300
 305	3.0248e+01	12.1152	221.614529	0.000618	6.183376	2.094984	0.000248
 306	3.0348e+01	12.1456	221.844646	0.000578	5.777908	1.957608	0.000231
 307	3.0447e+01	12.1841	222.119171	0.000689	6.892943	2.335392	0.000276
 308	3.0547e+01	12.2226	222.397734	0.000699	6.994310	2.369736	0.000280
 309	3.0646e+01	12.2724	222.672259	0.000689	6.892943	2.335392	0.000276
 310	3.0745e+01	12.2964	222.918524	0.000618	6.183376	2.094984	0.000248
 311	3.0845e+01	12.3317	223.156715	0.000598	5.980642	2.026296	0.000239
 312	3.0945e+01	12.3815	223.427203	0.000679	6.791577	2.301048	0.000272
 313	3.1044e+01	12.4280	223.685580	0.000649	6.487476	2.198016	0.000260
 314	3.1143e+01	12.4569	223.956068	0.000679	6.791577	2.301048	0.000272
 315	3.1243e+01	12.5114	224.186185	0.000578	5.777908	1.957608	0.000231
 316	3.1343e+01	12.5435	224.456673	0.000679	6.791577	2.301048	0.000272
 317	3.1442e+01	12.5788	224.694864	0.000598	5.980642	2.026296	0.000239
 318	3.1541e+01	12.6269	224.941129	0.000618	6.183376	2.094984	0.000248
 319	3.1641e+01	12.6638	225.191431	0.000628	6.284742	2.129328	0.000252
 320	3.1741e+01	12.7039	225.433660	0.000608	6.082009	2.060640	0.000243
 321	3.1840e+01	12.7424	225.720296	0.000720	7.197044	2.438424	0.000288
 322	3.1939e+01	12.7841	225.978673	0.000649	6.487476	2.198016	0.000260
 323	3.2039e+01	12.8274	226.204753	0.000568	5.676542	1.923264	0.000227
 324	3.2139e+01	12.8595	226.471203	0.000669	6.690210	2.266704	0.000268
 325	3.2238e+01	12.8980	226.721506	0.000628	6.284742	2.129328	0.000252
 326	3.2337e+01	12.9397	226.963734	0.000608	6.082009	2.060640	0.000243
 327	3.2437e+01	12.9750	227.189814	0.000568	5.676542	1.923264	0.000227
 328	3.2536e+01	13.0167	227.448190	0.000649	6.487476	2.198016	0.000260
 329	3.2636e+01	13.0681	227.710604	0.000659	6.588843	2.232360	0.000264
 330	3.2736e+01	13.0954	227.924572	0.000537	5.372441	1.820232	0.000215
 331	3.2835e+01	13.1339	228.195060	0.000679	6.791577	2.301048	0.000272
 332	3.2934e+01	13.1868	228.457474	0.000659	6.588843	2.232360	0.000264
 333	3.3034e+01	13.2125	228.671442	0.000537	5.372441	1.820232	0.000215
 334	3.3133e+01	13.2606	228.909633	0.000598	5.980642	2.026296	0.000239
 335	3.3233e+01	13.3007	229.159936	0.000628	6.284742	2.129328	0.000252
 336	3.3333e+01	13.3472	229.430424	0.000679	6.791577	2.301048	0.000272
 337	3.3432e+01	13.3729	229.668615	0.000598	5.980642	2.026296	0.000239
 338	3.3532e+01	13.4274	229.890657	0.000558	5.575175	1.888920	0.000223
 339	3.3631e+01	13.4547	230.153071	0.000659	6.588843	2.232360	0.000264
 340	3.3730e+01	13.5012	230.383188	0.000578	5.777908	1.957608	0.000231
 341	3.3830e+01	13.5381	230.621379	0.000598	5.980642	2.026296	0.000239
 342	3.3929e+01	13.5782	230.908016	0.000720	7.197044	2.438424	0.000288
 343	3.4029e+01	13.6135	231.138132	0.000578	5.777908	1.957608	0.000231
 344	3.4129e+01	13.6504	231.380361	0.000608	6.082009	2.060640	0.000243
 345	3.4228e+01	13.6985	231.622589	0.000608	6.082009	2.060640	0.000243
 346	3.4328e+01	13.7467	231.828483	0.000517	5.169708	1.751544	0.000207
 347	3.4427e+01	13.7804	232.115119	0.000720	7.197044	2.438424	0.000288
 348	3.4526e+01	13.8157	232.321013	0.000517	5.169708	1.751544	0.000207
 349	3.4626e+01	13.8574	232.579390	0.000649	6.487476	2.198016	0.000260
 350	3.4725e+01	13.9007	232.805469	0.000568	5.676542	1.923264	0.000227
 351	3.4825e+01	13.9360	233.067883	0.000659	6.588843	2.232360	0.000264
 352	3.4925e+01	13.9809	233.326260	0.000649	6.487476	2.198016	0.000260
 353	3.5024e+01	14.0226	233.540228	0.000537	5.372441	1.820232	0.000215
 354	3.5123e+01	14.0627	233.794568	0.000639	6.386109	2.163672	0.000256
 355	3.5223e+01	14.0964	234.073130	0.000699	6.994310	2.369736	0.000280
 356	3.5322e+01	14.1349	234.270950	0.000497	4.966974	1.682856	0.000199
 357	3.5422e+01	14.1718	234.480881	0.000527	5.271074	1.785888	0.000211
 358	3.5522e+01	14.2183	234.743295	0.000659	6.588843	2.232360	0.000264
 359	3.5621e+01	14.2552	234.977448	0.000588	5.879275	1.991952	0.000235
 360	3.5721e+01	14.2889	235.264085	0.000720	7.197044	2.438424	0.000288
 361	3.5820e+01	14.3386	235.494202	0.000578	5.777908	1.957608	0.000231
 362	3.5919e+01	14.3852	235.732393	0.000598	5.980642	2.026296	0.000239
 363	3.6019e+01	14.4172	235.978658	0.000618	6.183376	2.094984	0.000248
 364	3.6118e+01	14.4541	236.216849	0.000598	5.980642	2.026296	0.000239
 365	3.6218e+01	14.4958	236.499449	0.000710	7.095677	2.404080	0.000284
 366	3.6318e+01	14.5295	236.737640	0.000598	5.980642	2.026296	0.000239
 367	3.6417e+01	14.5745	236.915274	0.000446	4.460140	1.511136	0.000179
 368	3.6517e+01	14.6162	237.169613	0.000639	6.386109	2.163672	0.000256
 369	3.6616e+01	14.6579	237.460287	0.000730	7.298411	2.472768	0.000292
 370	3.6715e+01	14.6980	237.658107	0.000497	4.966974	1.682856	0.000199
 371	3.6815e+01	14.7301	237.940706	0.000710	7.095677	2.404080	0.000284
 372	3.6914e+01	14.7750	238.138526	0.000497	4.966974	1.682856	0.000199
 373	3.7014e+01	14.8183	238.384791	0.000618	6.183376	2.094984	0.000248
 374	3.7114e+01	14.8568	238.627019	0.000608	6.082009	2.060640	0.000243
 375	3.7213e+01	14.8969	238.849062	0.000558	5.575175	1.888920	0.000223
 376	3.7313e+01	14.9258	239.119550	0.000679	6.791577	2.301048	0.000272
 377	3.7412e+01	14.9675	239.349667	0.000578	5.777908	1.957608	0.000231
 378	3.7511e+01	15.0188	239.575746	0.000568	5.676542	1.923264	0.000227
 379	3.7611e+01	15.0541	239.826049	0.000628	6.284742	2.129328	0.000252
 380	3.7711e+01	15.0990	240.048091	0.000558	5.575175	1.888920	0.000223
 381	3.7810e+01	15.1263	240.294356	0.000618	6.183376	2.094984	0.000248
 382	3.7910e+01	15.1793	240.572919	0.000699	6.994310	2.369736	0.000280
 383	3.8009e+01	15.2129	240.786887	0.000537	5.372441	1.820232	0.000215
 384	3.8108e+01	15.2498	241.012966	0.000568	5.676542	1.923264	0.000227
 385	3.8208e+01	15.2899	241.239046	0.000568	5.676542	1.923264	0.000227
 386	3.8307e+01	15.3397	241.505497	0.000669	6.690210	2.266704	0.000268
 387	3.8407e+01	15.3814	241.743688	0.000598	5.980642	2.026296	0.000239
 388	3.8507e+01	15.4199	241.977842	0.000588	5.879275	1.991952	0.000235
 389	3.8606e+01	15.4568	242.203921	0.000568	5.676542	1.923264	0.000227
 390	3.8706e+01	15.4825	242.458261	0.000639	6.386109	2.163672	0.000256
 391	3.8805e+01	15.5322	242.684341	0.000568	5.676542	1.923264	0.000227
 392	3.8904e+01	15.5675	242.930606	0.000618	6.183376	2.094984	0.000248
 393	3.9004e+01	15.6060	243.148611	0.000547	5.473808	1.854576	0.000219
 394	3.9103e+01	15.6557	243.402951	0.000639	6.386109	2.163672	0.000256
 395	3.9203e+01	15.6878	243.612882	0.000527	5.271074	1.785888	0.000211
 396	3.9303e+01	15.7279	243.851073	0.000598	5.980642	2.026296	0.000239
 397	3.9402e+01	15.7760	244.117524	0.000669	6.690210	2.266704	0.000268
 398	3.9502e+01	15.8193	244.343603	0.000568	5.676542	1.923264	0.000227
 399	3.9601e+01	15.8450	244.573720	0.000578	5.777908	1.957608	0.000231
 400	3.9700e+01	15.8867	244.811911	0.000598	5.980642	2.026296	0.000239
 401	3.9800e+01	15.9364	245.054139	0.000608	6.082009	2.060640	0.000243
 402	3.9900e+01	15.9653	245.288293	0.000588	5.879275	1.991952	0.000235
 403	3.9999e+01	16.0102	245.518410	0.000578	5.777908	1.957608	0.000231
 404	4.0099e+01	16.0503	245.764675	0.000618	6.183376	2.094984	0.000248
 405	4.0198e+01	16.0889	245.958458	0.000487	4.865607	1.648512	0.000195
 406	4.0297e+01	16.1274	246.192612	0.000588	5.879275	1.991952	0.000235
 407	4.0397e+01	16.1626	246.434840	0.000608	6.082009	2.060640	0.000243
 408	4.0496e+01	16.2092	246.644771	0.000527	5.271074	1.785888	0.000211
 409	4.0596e+01	16.2509	246.907185	0.000659	6.588843	2.232360	0.000264
 410	4.0696e+01	16.2926	247.157487	0.000628	6.284742	2.129328	0.000252
 411	4.0795e+01	16.3311	247.367418	0.000527	5.271074	1.785888	0.000211
 412	4.0895e+01	16.3664	247.585423	0.000547	5.473808	1.854576	0.000219
 413	4.0994e+01	16.4081	247.851874	0.000669	6.690210	2.266704	0.000268
 414	4.1093e+01	16.4450	248.118325	0.000669	6.690210	2.266704	0.000268
 415	4.1193e+01	16.4883	248.316145	0.000497	4.966974	1.682856	0.000199
 416	4.1292e+01	16.5300	248.566447	0.000628	6.284742	2.129328	0.000252
 417	4.1392e+01	16.5701	248.792527	0.000568	5.676542	1.923264	0.000227
 418	4.1492e+01	16.6054	249.030718	0.000598	5.980642	2.026296	0.000239
 419	4.1591e+01	16.6471	249.244686	0.000537	5.372441	1.820232	0.000215
 420	4.1691e+01	16.6840	249.523249	0.000699	6.994310	2.369736	0.000280
 421	4.1790e+01	16.7209	249.741254	0.000547	5.473808	1.854576	0.000219
 422	4.1889e+01	16.7706	249.975408	0.000588	5.879275	1.991952	0.000235
 423	4.1989e+01	16.8059	250.197450	0.000558	5.575175	1.888920	0.000223
 424	4.2089e+01	16.8428	250.455827	0.000649	6.487476	2.198016	0.000260
 425	4.2188e+01	16.8829	250.677869	0.000558	5.575175	1.888920	0.000223
 426	4.2288e+01	16.9247	250.903949	0.000568	5.676542	1.923264	0.000227
 427	4.2387e+01	16.9664	251.117917	0.000537	5.372441	1.820232	0.000215
 428	4.2486e+01	17.0017	251.372257	0.000639	6.386109	2.163672	0.000256
 429	4.2586e+01	17.0434	251.594299	0.000558	5.575175	1.888920	0.000223
 430	4.2685e+01	17.0867	251.876899	0.000710	7.095677	2.404080	0.000284
 431	4.2785e+01	17.1236	252.123164	0.000618	6.183376	2.094984	0.000248
 432	4.2885e+01	17.1653	252.300798	0.000446	4.460140	1.511136	0.000179
 433	4.2984e+01	17.2086	252.526878	0.000568	5.676542	1.923264	0.000227
 434	4.3084e+01	17.2439	252.793329	0.000669	6.690210	2.266704	0.000268
 435	4.3183e+01	17.2808	252.991148	0.000497	4.966974	1.682856	0.000199
 436	4.3282e+01	17.3209	253.273748	0.000710	7.095677	2.404080	0.000284
 437	4.3382e+01	17.3626	253.487716	0.000537	5.372441	1.820232	0.000215
 438	4.3481e+01	17.4027	253.725907	0.000598	5.980642	2.026296	0.000239
 439	4.3581e+01	17.4396	253.935838	0.000527	5.271074	1.785888	0.000211
 440	4.3681e+01	17.4861	254.141732	0.000517	5.169708	1.751544	0.000207
 441	4.3780e+01	17.5150	254.392034	0.000628	6.284742	2.129328	0.000252
 442	4.3880e+01	17.5631	254.614077	0.000558	5.575175	1.888920	0.000223
 443	4.3979e+01	17.6049	254.876491	0.000659	6.588843	2.232360	0.000264
 444	4.4078e+01	17.6321	255.082384	0.000517	5.169708	1.751544	0.000207
 445	4.4178e+01	17.6899	255.332687	0.000628	6.284742	2.129328	0.000252
 446	4.4278e+01	17.7252	255.534544	0.000507	5.068341	1.717200	0.000203
 447	4.4377e+01	17.7669	255.756586	0.000558	5.575175	1.888920	0.000223
 448	4.4477e+01	17.8070	256.010926	0.000639	6.386109	2.163672	0.000256
 449	4.4576e+01	17.8343	256.228931	0.000547	5.473808	1.854576	0.000219
 450	4.4675e+01	17.8792	256.483271	0.000639	6.386109	2.163672	0.000256
 451	4.4775e+01	17.9193	256.697239	0.000537	5.372441	1.820232	0.000215
 452	4.4874e+01	17.9674	256.935430	0.000598	5.980642	2.026296	0.000239
 453	4.4974e+01	18.0059	257.169584	0.000588	5.879275	1.991952	0.000235
 454	4.5074e+01	18.0476	257.383552	0.000537	5.372441	1.820232	0.000215
 455	4.5173e+01	18.0733	257.613669	0.000578	5.777908	1.957608	0.000231
 456	4.5273e+01	18.1262	257.847822	0.000588	5.879275	1.991952	0.000235
 457	4.5372e+01	18.1583	258.073902	0.000568	5.676542	1.923264	0.000227
 458	4.5471e+01	18.1920	258.295945	0.000558	5.575175	1.888920	0.000223
 459	4.5571e+01	18.2369	258.542210	0.000618	6.183376	2.094984	0.000248
 460	4.5670e+01	18.2738	258.776364	0.000588	5.879275	1.991952	0.000235
 461	4.5770e+01	18.3171	258.990332	0.000537	5.372441	1.820232	0.000215
 462	4.5870e+01	18.3588	259.224486	0.000588	5.879275	1.991952	0.000235
 463	4.5969e+01	18.4006	259.458640	0.000588	5.879275	1.991952	0.000235
 464	4.6069e+01	18.4391	259.680682	0.000558	5.575175	1.888920	0.000223
 465	4.6168e+01	18.4808	259.906762	0.000568	5.676542	1.923264	0.000227
 466	4.6267e+01	18.5177	260.128804	0.000558	5.575175	1.888920	0.000223
 467	4.6367e+01	18.5546	260.371032	0.000608	6.082009	2.060640	0.000243
 468	4.6467e+01	18.6107	260.585000	0.000537	5.372441	1.820232	0.000215
 469	4.6566e+01	18.6364	260.786857	0.000507	5.068341	1.717200	0.000203
 470	4.6666e+01	18.6813	261.045234	0.000649	6.487476	2.198016	0.000260
 471	4.6765e+01	18.7262	261.271314	0.000568	5.676542	1.923264	0.000227
 472	4.6864e+01	18.7679	261.501430	0.000578	5.777908	1.957608	0.000231
 473	4.6964e+01	18.8096	261.719436	0.000547	5.473808	1.854576	0.000219
 474	4.7063e+01	18.8401	261.933404	0.000537	5.372441	1.820232	0.000215
 475	4.7163e+01	18.8786	262.151409	0.000547	5.473808	1.854576	0.000219
 476	4.7263e+01	18.9139	262.393637	0.000608	6.082009	2.060640	0.000243
 477	4.7362e+01	18.9556	262.587420	0.000487	4.865607	1.648512	0.000195
 478	4.7462e+01	19.0021	262.833685	0.000618	6.183376	2.094984	0.000248
 479	4.7561e+01	19.0438	263.055728	0.000558	5.575175	1.888920	0.000223
 480	4.7660e+01	19.0775	263.281807	0.000568	5.676542	1.923264	0.000227
 481	4.7760e+01	19.1144	263.524035	0.000608	6.082009	2.060640	0.000243
 482	4.7859e+01	19.1610	263.733966	0.000527	5.271074	1.785888	0.000211
 483	4.7959e+01	19.2059	263.947935	0.000537	5.372441	1.820232	0.000215
 484	4.8059e+01	19.2428	264.202274	0.000639	6.386109	2.163672	0.000256
 485	4.8158e+01	19.2781	264.412205	0.000527	5.271074	1.785888	0.000211
 486	4.8258e+01	19.3246	264.662508	0.000628	6.284742	2.129328	0.000252
 487	4.8357e+01	19.3599	264.852253	0.000476	4.764240	1.614168	0.000191
 488	4.8456e+01	19.3936	265.102555	0.000628	6.284742	2.129328	0.000252
 489	4.8556e+01	19.4337	265.373043	0.000679	6.791577	2.301048	0.000272
 490	4.8656e+01	19.4818	265.550677	0.000446	4.460140	1.511136	0.000179
 491	4.8755e+01	19.5171	265.752534	0.000507	5.068341	1.717200	0.000203
 492	4.8855e+01	19.5540	265.974577	0.000558	5.575175	1.888920	0.000223
 493	4.8954e+01	19.5989	266.172396	0.000497	4.966974	1.682856	0.000199
 494	4.9053e+01	19.6358	266.430773	0.000649	6.487476	2.198016	0.000260
 495	4.9153e+01	19.6695	266.664927	0.000588	5.879275	1.991952	0.000235
 496	4.9252e+01	19.7192	266.850635	0.000466	4.662873	1.579824	0.000187
 497	4.9352e+01	19.7658	267.092863	0.000608	6.082009	2.060640	0.000243
 498	4.9452e+01	19.7978	267.339129	0.000618	6.183376	2.094984	0.000248
 499	4.9551e+01	19.8315	267.553097	0.000537	5.372441	1.820232	0.000215
 500	4.9651e+01	19.8732	267.750916	0.000497	4.966974	1.682856	0.000199
 501	4.9750e+01	19.9053	267.960847	0.000527	5.271074	1.785888	0.000211
 502	4.9849e+01	19.9534	268.211150	0.000628	6.284742	2.129328	0.000252
 503	4.9949e+01	19.9919	268.425118	0.000537	5.372441	1.820232	0.000215
 504	5.0048e+01	19.9502	268.340338	0.000213	2.128703	0.721224	-0.000085
 505	5.0148e+01	19.9133	268.291893	0.000122	1.216402	0.412128	-0.000049
 506	5.0248e+01	19.8684	268.207113	0.000213	2.128703	0.721224	-0.000085
 507	5.0347e+01	19.8331	268.077924	0.000324	3.243738	1.099008	-0.000130
 508	5.0447e+01	19.7946	267.968922	0.000274	2.736904	0.927288	-0.000110
 509	5.0546e+01	19.7513	267.880105	0.000223	2.230070	0.755568	-0.000089
 510	5.0645e+01	19.7096	267.726694	0.000385	3.851939	1.305072	-0.000154
 511	5.0745e+01	19.6663	267.670174	0.000142	1.419135	0.480816	-0.000057
 512	5.0844e+01	19.6406	267.557134	0.000284	2.838271	0.961632	-0.000114
 513	5.0944e+01	19.5957	267.427946	0.000324	3.243738	1.099008	-0.000130
 514	5.1044e+01	19.5540	267.331054	0.000243	2.432804	0.824256	-0.000097
 515	5.1143e+01	19.5107	267.213977	0.000294	2.939638	0.995976	-0.000118
 516	5.1242e+01	19.4706	267.056529	0.000395	3.953306	1.339416	-0.000158
 517	5.1342e+01	19.4273	266.983861	0.000182	1.824603	0.618192	-0.000073
 518	5.1441e+01	19.3952	266.810264	0.000436	4.358773	1.476792	-0.000174
 519	5.1541e+01	19.3567	266.737595	0.000182	1.824603	0.618192	-0.000073
 520	5.1641e+01	19.3198	266.563999	0.000436	4.358773	1.476792	-0.000174
 521	5.1740e+01	19.2813	266.467107	0.000243	2.432804	0.824256	-0.000097
 522	5.1840e+01	19.2364	266.325808	0.000355	3.547838	1.202040	-0.000142
 523	5.1939e+01	19.1946	266.212768	0.000284	2.838271	0.961632	-0.000114
 524	5.2038e+01	19.1529	266.099728	0.000284	2.838271	0.961632	-0.000114
 525	5.2138e+01	19.1080	265.986688	0.000284	2.838271	0.961632	-0.000114
 526	5.2237e+01	19.0823	265.829240	0.000395	3.953306	1.339416	-0.000158
 527	5.2337e+01	19.0358	265.696014	0.000335	3.345105	1.133352	-0.000134
 528	5.2437e+01	19.0118	265.574900	0.000304	3.041004	1.030320	-0.000122
 529	5.2536e+01	18.9556	265.409378	0.000416	4.156039	1.408104	-0.000166
 530	5.2636e+01	18.9203	265.312486	0.000243	2.432804	0.824256	-0.000097
 531	5.2735e+01	18.8802	265.171187	0.000355	3.547838	1.202040	-0.000142
 532	5.2834e+01	18.8337	265.017776	0.000385	3.851939	1.305072	-0.000154
 533	5.2934e+01	18.8048	264.852253	0.000416	4.156039	1.408104	-0.000166
 534	5.3033e+01	18.7567	264.735176	0.000294	2.939638	0.995976	-0.000118
 535	5.3133e+01	18.7262	264.614062	0.000304	3.041004	1.030320	-0.000122
 536	5.3233e+01	18.6829	264.468725	0.000365	3.649205	1.236384	-0.000146
 537	5.3332e+01	18.6348	264.327425	0.000355	3.547838	1.202040	-0.000142
 538	5.3431e+01	18.5931	264.165940	0.000405	4.054673	1.373760	-0.000162
 539	5.3531e+01	18.5562	264.040789	0.000314	3.142371	1.064664	-0.000126
 540	5.3630e+01	18.5257	263.899489	0.000355	3.547838	1.202040	-0.000142
 541	5.3730e+01	18.4888	263.738003	0.000405	4.054673	1.373760	-0.000162
 542	5.3830e+01	18.4455	263.584592	0.000385	3.851939	1.305072	-0.000154
 543	5.3929e+01	18.3973	263.475590	0.000274	2.736904	0.927288	-0.000110
 544	5.4029e+01	18.3637	263.277770	0.000497	4.966974	1.682856	-0.000199
 545	5.4128e+01	18.3171	263.148582	0.000324	3.243738	1.099008	-0.000130
 546	5.4227e+01	18.2834	263.019393	0.000324	3.243738	1.099008	-0.000130
 547	5.4327e+01	18.2401	262.882131	0.000345	3.446472	1.167696	-0.000138
 548	5.4426e+01	18.2064	262.688348	0.000487	4.865607	1.648512	-0.000195
 549	5.4526e+01	18.1679	262.559160	0.000324	3.243738	1.099008	-0.000130
 550	5.4626e+01	18.1278	262.421897	0.000345	3.446472	1.167696	-0.000138
 551	5.4725e+01	18.0813	262.272523	0.000375	3.750572	1.270728	-0.000150
 552	5.4825e+01	18.0396	262.115075	0.000395	3.953306	1.339416	-0.000158
 553	5.4924e+01	17.9963	261.985887	0.000324	3.243738	1.099008	-0.000130
 554	5.5023e+01	17.9594	261.828438	0.000395	3.953306	1.339416	-0.000158
 555	5.5123e+01	17.9161	261.687139	0.000355	3.547838	1.202040	-0.000142
 556	5.5222e+01	17.8776	261.525653	0.000405	4.054673	1.373760	-0.000162
 557	5.5322e+01	17.8343	261.368205	0.000395	3.953306	1.339416	-0.000158
 558	5.5422e+01	17.8134	261.206719	0.000405	4.054673	1.373760	-0.000162
 559	5.5521e+01	17.7621	261.045234	0.000405	4.054673	1.373760	-0.000162
 560	5.5620e+01	17.7204	260.928157	0.000294	2.939638	0.995976	-0.000118
 561	5.5720e+01	17.6851	260.774746	0.000385	3.851939	1.305072	-0.000154
 562	5.5819e+01	17.6369	260.609223	0.000416	4.156039	1.408104	-0.000166
 563	5.5919e+01	17.6000	260.492146	0.000294	2.939638	0.995976	-0.000118
 564	5.6019e+01	17.5631	260.326624	0.000416	4.156039	1.408104	-0.000166
 565	5.6118e+01	17.5214	260.140916	0.000466	4.662873	1.579824	-0.000187
 566	5.6218e+01	17.4781	259.979430	0.000405	4.054673	1.373760	-0.000162
 567	5.6317e+01	17.4396	259.838130	0.000355	3.547838	1.202040	-0.000142
 568	5.6416e+01	17.4043	259.656459	0.000456	4.561507	1.545480	-0.000183
 569	5.6516e+01	17.3626	259.494974	0.000405	4.054673	1.373760	-0.000162
 570	5.6615e+01	17.3241	259.349637	0.000365	3.649205	1.236384	-0.000146
 571	5.6715e+01	17.2760	259.172003	0.000446	4.460140	1.511136	-0.000179
 572	5.6815e+01	17.2423	259.018592	0.000385	3.851939	1.305072	-0.000154
 573	5.6914e+01	17.2038	258.853069	0.000416	4.156039	1.408104	-0.000166
 574	5.7014e+01	17.1653	258.744067	0.000274	2.736904	0.927288	-0.000110
 575	5.7113e+01	17.1252	258.586618	0.000395	3.953306	1.339416	-0.000158
 576	5.7212e+01	17.0851	258.421096	0.000416	4.156039	1.408104	-0.000166
 577	5.7312e+01	17.0450	258.251536	0.000426	4.257406	1.442448	-0.000170
 578	5.7411e+01	16.9985	258.114273	0.000345	3.446472	1.167696	-0.000138
 579	5.7511e+01	16.9712	257.932602	0.000456	4.561507	1.545480	-0.000183
 580	5.7611e+01	16.9311	257.742857	0.000476	4.764240	1.614168	-0.000191
 581	5.7710e+01	16.8829	257.577334	0.000416	4.156039	1.408104	-0.000166
 582	5.7809e+01	16.8541	257.419886	0.000395	3.953306	1.339416	-0.000158
 583	5.7909e+01	16.8027	257.278586	0.000355	3.547838	1.202040	-0.000142
 584	5.8008e+01	16.7658	257.133249	0.000365	3.649205	1.236384	-0.000146
 585	5.8108e+01	16.7273	256.951578	0.000456	4.561507	1.545480	-0.000183
 586	5.8208e+01	16.6904	256.818353	0.000335	3.345105	1.133352	-0.000134
 587	5.8307e+01	16.6503	256.632645	0.000466	4.662873	1.579824	-0.000187
 588	5.8407e+01	16.6038	256.499419	0.000335	3.345105	1.133352	-0.000134
 589	5.8506e+01	16.5653	256.321785	0.000446	4.460140	1.511136	-0.000179
 590	5.8605e+01	16.5268	256.176448	0.000365	3.649205	1.236384	-0.000146
 591	5.8705e+01	16.4851	256.031111	0.000365	3.649205	1.236384	-0.000146
 592	5.8804e+01	16.4402	255.873663	0.000395	3.953306	1.339416	-0.000158
 593	5.8904e+01	16.4065	255.700066	0.000436	4.358773	1.476792	-0.000174
 594	5.9004e+01	16.3552	255.498209	0.000507	5.068341	1.717200	-0.000203
 595	5.9103e+01	16.3311	255.336724	0.000405	4.054673	1.373760	-0.000162
 596	5.9203e+01	16.2942	255.203499	0.000335	3.345105	1.133352	-0.000134
 597	5.9302e+01	16.2445	254.989530	0.000537	5.372441	1.820232	-0.000215
 598	5.9401e+01	16.2044	254.828045	0.000405	4.054673	1.373760	-0.000162
 599	5.9501e+01	16.1578	254.690782	0.000345	3.446472	1.167696	-0.000138
 600	5.9600e+01	16.1177	254.497000	0.000487	4.865607	1.648512	-0.000195
 601	5.9700e+01	16.0760	254.335514	0.000405	4.054673	1.373760	-0.000162
 602	5.9800e+01	16.0471	254.182103	0.000385	3.851939	1.305072	-0.000154
 603	5.9899e+01	16.0102	253.996395	0.000466	4.662873	1.579824	-0.000187
 604	5.9998e+01	15.9701	253.838947	0.000395	3.953306	1.339416	-0.000158
 605	6.0098e+01	15.9220	253.645164	0.000487	4.865607	1.648512	-0.000195
 606	6.0197e+01	15.8707	253.483679	0.000405	4.054673	1.373760	-0.000162
 607	6.0297e+01	15.8498	253.314119	0.000426	4.257406	1.442448	-0.000170
 608	6.0397e+01	15.8049	253.128411	0.000466	4.662873	1.579824	-0.000187
 609	6.0496e+01	15.7616	252.954814	0.000436	4.358773	1.476792	-0.000174
 610	6.0596e+01	15.7311	252.789291	0.000416	4.156039	1.408104	-0.000166
 611	6.0695e+01	15.6846	252.639917	0.000375	3.750572	1.270728	-0.000150
 612	6.0794e+01	15.6493	252.466321	0.000436	4.358773	1.476792	-0.000174
 613	6.0894e+01	15.6140	252.280612	0.000466	4.662873	1.579824	-0.000187
 614	6.0993e+01	15.5739	252.074718	0.000517	5.169708	1.751544	-0.000207
 615	6.1093e+01	15.5354	251.933419	0.000355	3.547838	1.202040	-0.000142
 616	6.1193e+01	15.4889	251.735599	0.000497	4.966974	1.682856	-0.000199
 617	6.1292e+01	15.4488	251.570076	0.000416	4.156039	1.408104	-0.000166
 618	6.1392e+01	15.4103	251.388405	0.000456	4.561507	1.545480	-0.000183
 619	6.1491e+01	15.3734	251.234994	0.000385	3.851939	1.305072	-0.000154
 620	6.1590e+01	15.3220	251.033137	0.000507	5.068341	1.717200	-0.000203
 621	6.1690e+01	15.2819	250.823206	0.000527	5.271074	1.785888	-0.000211
 622	6.1789e+01	15.2498	250.629424	0.000487	4.865607	1.648512	-0.000195
 623	6.1889e+01	15.2001	250.480050	0.000375	3.750572	1.270728	-0.000150
 624	6.1989e+01	15.1712	250.314527	0.000416	4.156039	1.408104	-0.000166
 625	6.2088e+01	15.1343	250.136893	0.000446	4.460140	1.511136	-0.000179
 626	6.2188e+01	15.0926	249.922925	0.000537	5.372441	1.820232	-0.000215
 627	6.2287e+01	15.0557	249.757402	0.000416	4.156039	1.408104	-0.000166
 628	6.2386e+01	15.0188	249.579768	0.000446	4.460140	1.511136	-0.000179
 629	6.2486e+01	14.9659	249.373875	0.000517	5.169708	1.751544	-0.000207
 630	6.2586e+01	14.9370	249.208352	0.000416	4.156039	1.408104	-0.000166
 631	6.2685e+01	14.8873	249.038792	0.000426	4.257406	1.442448	-0.000170
 632	6.2785e+01	14.8504	248.836935	0.000507	5.068341	1.717200	-0.000203
 633	6.2884e+01	14.8087	248.667376	0.000426	4.257406	1.442448	-0.000170
 634	6.2983e+01	14.7782	248.437259	0.000578	5.777908	1.957608	-0.000231
 635	6.3083e+01	14.7301	248.283848	0.000385	3.851939	1.305072	-0.000154
 636	6.3182e+01	14.6948	248.098140	0.000466	4.662873	1.579824	-0.000187
 637	6.3282e+01	14.6563	247.896283	0.000507	5.068341	1.717200	-0.000203
 638	6.3382e+01	14.6146	247.722686	0.000436	4.358773	1.476792	-0.000174
 639	6.3481e+01	14.5809	247.520829	0.000507	5.068341	1.717200	-0.000203
 640	6.3581e+01	14.5408	247.347232	0.000436	4.358773	1.476792	-0.000174
 641	6.3680e+01	14.4910	247.169598	0.000446	4.460140	1.511136	-0.000179
 642	6.3779e+01	14.4525	247.016187	0.000385	3.851939	1.305072	-0.000154
 643	6.3879e+01	14.4204	246.769922	0.000618	6.183376	2.094984	-0.000248
 644	6.3978e+01	14.3771	246.616511	0.000385	3.851939	1.305072	-0.000154
 645	6.4078e+01	14.3354	246.418691	0.000497	4.966974	1.682856	-0.000199
 646	6.4177e+01	14.2953	246.232983	0.000466	4.662873	1.579824	-0.000187
 647	6.4277e+01	14.2648	246.039200	0.000487	4.865607	1.648512	-0.000195
 648	6.4376e+01	14.2103	245.817158	0.000558	5.575175	1.888920	-0.000223
 649	6.4476e+01	14.1814	245.675858	0.000355	3.547838	1.202040	-0.000142
 650	6.4576e+01	14.1333	245.510336	0.000416	4.156039	1.408104	-0.000166
 651	6.4675e+01	14.0980	245.247922	0.000659	6.588843	2.232360	-0.000264
 652	6.4775e+01	14.0595	245.066251	0.000456	4.561507	1.545480	-0.000183
 653	6.4874e+01	14.0146	244.900728	0.000416	4.156039	1.408104	-0.000166
 654	6.4974e+01	13.9825	244.710983	0.000476	4.764240	1.614168	-0.000191
 655	6.5073e+01	13.9392	244.497015	0.000537	5.372441	1.820232	-0.000215
 656	6.5172e+01	13.9007	244.274972	0.000558	5.575175	1.888920	-0.000223
 657	6.5272e+01	13.8606	244.117524	0.000395	3.953306	1.339416	-0.000158
 658	6.5371e+01	13.8124	243.911630	0.000517	5.169708	1.751544	-0.000207
 659	6.5471e+01	13.7755	243.713810	0.000497	4.966974	1.682856	-0.000199
 660	6.5570e+01	13.7403	243.536176	0.000446	4.460140	1.511136	-0.000179
 661	6.5670e+01	13.6969	243.366617	0.000426	4.257406	1.442448	-0.000170
 662	6.5769e+01	13.6536	243.132463	0.000588	5.879275	1.991952	-0.000235
 663	6.5869e+01	13.6135	242.966940	0.000416	4.156039	1.408104	-0.000166
 664	6.5969e+01	13.5846	242.744898	0.000558	5.575175	1.888920	-0.000223
 665	6.6068e+01	13.5349	242.543041	0.000507	5.068341	1.717200	-0.000203
 666	6.6168e+01	13.5012	242.329073	0.000537	5.372441	1.820232	-0.000215
 667	6.6267e+01	13.4531	242.127216	0.000507	5.068341	1.717200	-0.000203
 668	6.6367e+01	13.4162	241.949582	0.000446	4.460140	1.511136	-0.000179
 669	6.6466e+01	13.3825	241.751762	0.000497	4.966974	1.682856	-0.000199
 670	6.6566e+01	13.3424	241.549905	0.000507	5.068341	1.717200	-0.000203
 671	6.6665e+01	13.3087	241.311714	0.000598	5.980642	2.026296	-0.000239
 672	6.6764e+01	13.2526	241.138118	0.000436	4.358773	1.476792	-0.000174
 673	6.6864e+01	13.2205	240.936261	0.000507	5.068341	1.717200	-0.000203
 674	6.6963e+01	13.1820	240.710181	0.000568	5.676542	1.923264	-0.000227
 675	6.7063e+01	13.1322	240.544659	0.000416	4.156039	1.408104	-0.000166
 676	6.7162e+01	13.1018	240.330690	0.000537	5.372441	1.820232	-0.000215
 677	6.7262e+01	13.0617	240.080388	0.000628	6.284742	2.129328	-0.000252
 678	6.7362e+01	13.0055	239.910828	0.000426	4.257406	1.442448	-0.000170
 679	6.7461e+01	12.9718	239.700897	0.000527	5.271074	1.785888	-0.000211
 680	6.7561e+01	12.9397	239.490966	0.000527	5.271074	1.785888	-0.000211
 681	6.7660e+01	12.9028	239.305258	0.000466	4.662873	1.579824	-0.000187
 682	6.7760e+01	12.8595	239.079178	0.000568	5.676542	1.923264	-0.000227
 683	6.7859e+01	12.8194	238.889433	0.000476	4.764240	1.614168	-0.000191
 684	6.7959e+01	12.7970	238.699688	0.000476	4.764240	1.614168	-0.000191
 685	6.8058e+01	12.7408	238.489757	0.000527	5.271074	1.785888	-0.000211
 686	6.8157e+01	12.7119	238.295974	0.000487	4.865607	1.648512	-0.000195
 687	6.8257e+01	12.6686	238.077969	0.000547	5.473808	1.854576	-0.000219
 688	6.8356e+01	12.6221	237.888223	0.000476	4.764240	1.614168	-0.000191
 689	6.8456e+01	12.5804	237.682329	0.000517	5.169708	1.751544	-0.000207
 690	6.8555e+01	12.5483	237.484510	0.000497	4.966974	1.682856	-0.000199
 691	6.8655e+01	12.5002	237.258430	0.000568	5.676542	1.923264	-0.000227
 692	6.8754e+01	12.4665	237.084833	0.000436	4.358773	1.476792	-0.000174
 693	6.8854e+01	12.4280	236.874902	0.000527	5.271074	1.785888	-0.000211
 694	6.8954e+01	12.3879	236.681120	0.000487	4.865607	1.648512	-0.000195
 695	6.9053e+01	12.3430	236.455040	0.000568	5.676542	1.923264	-0.000227
 696	6.9153e+01	12.3093	236.224923	0.000578	5.777908	1.957608	-0.000231
 697	6.9252e+01	12.2612	236.047289	0.000446	4.460140	1.511136	-0.000179
 698	6.9352e+01	12.2275	235.849470	0.000497	4.966974	1.682856	-0.000199
 699	6.9451e+01	12.1906	235.603205	0.000618	6.183376	2.094984	-0.000248
 700	6.9550e+01	12.1456	235.441719	0.000405	4.054673	1.373760	-0.000162
 701	6.9650e+01	12.1055	235.231788	0.000527	5.271074	1.785888	-0.000211
 702	6.9749e+01	12.0686	234.977448	0.000639	6.386109	2.163672	-0.000256
 703	6.9849e+01	12.0221	234.783666	0.000487	4.865607	1.648512	-0.000195
 704	6.9948e+01	11.9948	234.589883	0.000487	4.865607	1.648512	-0.000195
 705	7.0048e+01	11.9499	234.371878	0.000547	5.473808	1.854576	-0.000219
 706	7.0147e+01	11.9082	234.165984	0.000517	5.169708	1.751544	-0.000207
 707	7.0247e+01	11.8681	233.947979	0.000547	5.473808	1.854576	-0.000219
 708	7.0347e+01	11.8216	233.750159	0.000497	4.966974	1.682856	-0.000199
 709	7.0446e+01	11.7879	233.560414	0.000476	4.764240	1.614168	-0.000191
 710	7.0546e+01	11.7510	233.310111	0.000628	6.284742	2.129328	-0.000252
 711	7.0645e+01	11.7077	233.100180	0.000527	5.271074	1.785888	-0.000211
 712	7.0745e+01	11.6708	232.902361	0.000497	4.966974	1.682856	-0.000199
 713	7.0844e+01	11.6211	232.672244	0.000578	5.777908	1.957608	-0.000231
 714	7.0944e+01	11.5890	232.474424	0.000497	4.966974	1.682856	-0.000199
 715	7.1043e+01	11.5425	232.284679	0.000476	4.764240	1.614168	-0.000191
 716	7.1142e+01	11.5104	232.070711	0.000537	5.372441	1.820232	-0.000215
 717	7.1242e+01	11.4767	231.852705	0.000547	5.473808	1.854576	-0.000219
 718	7.1341e+01	11.4237	231.650849	0.000507	5.068341	1.717200	-0.000203
 719	7.1441e+01	11.3949	231.412658	0.000598	5.980642	2.026296	-0.000239
 720	7.1540e+01	11.3499	231.210801	0.000507	5.068341	1.717200	-0.000203
 721	7.1640e+01	11.3066	230.988758	0.000558	5.575175	1.888920	-0.000223
 722	7.1740e+01	11.2617	230.774790	0.000537	5.372441	1.820232	-0.000215
 723	7.1839e+01	11.2377	230.528525	0.000618	6.183376	2.094984	-0.000248
 724	7.1939e+01	11.1895	230.358965	0.000426	4.257406	1.442448	-0.000170
 725	7.2038e+01	11.1510	230.112700	0.000618	6.183376	2.094984	-0.000248
 726	7.2138e+01	11.1013	229.935066	0.000446	4.460140	1.511136	-0.000179
 727	7.2237e+01	11.0660	229.692838	0.000608	6.082009	2.060640	-0.000243
 728	7.2337e+01	11.0307	229.458684	0.000588	5.879275	1.991952	-0.000235
 729	7.2436e+01	10.9922	229.260864	0.000497	4.966974	1.682856	-0.000199
 730	7.2535e+01	10.9505	229.059008	0.000507	5.068341	1.717200	-0.000203
 731	7.2635e+01	10.9072	228.828891	0.000578	5.777908	1.957608	-0.000231
 732	7.2734e+01	10.8655	228.639145	0.000476	4.764240	1.614168	-0.000191
 733	7.2834e+01	10.8366	228.396917	0.000608	6.082009	2.060640	-0.000243
 734	7.2933e+01	10.7965	228.166801	0.000578	5.777908	1.957608	-0.000231
 735	7.3033e+01	10.7644	227.940721	0.000568	5.676542	1.923264	-0.000227
 736	7.3132e+01	10.7083	227.755013	0.000466	4.662873	1.579824	-0.000187
 737	7.3232e+01	10.6649	227.520859	0.000588	5.879275	1.991952	-0.000235
 738	7.3332e+01	10.6296	227.323039	0.000497	4.966974	1.682856	-0.000199
 739	7.3431e+01	10.5863	227.096960	0.000568	5.676542	1.923264	-0.000227
 740	7.3531e+01	10.5462	226.866843	0.000578	5.777908	1.957608	-0.000231
 741	7.3630e+01	10.5206	226.644800	0.000558	5.575175	1.888920	-0.000223
 742	7.3730e+01	10.4692	226.414684	0.000578	5.777908	1.957608	-0.000231
 743	7.3829e+01	10.4323	226.176493	0.000598	5.980642	2.026296	-0.000239
 744	7.3928e+01	10.3954	225.974636	0.000507	5.068341	1.717200	-0.000203
 745	7.4028e+01	10.3505	225.768742	0.000517	5.169708	1.751544	-0.000207
 746	7.4127e+01	10.3248	225.542662	0.000568	5.676542	1.923264	-0.000227
 747	7.4227e+01	10.2655	225.308508	0.000588	5.879275	1.991952	-0.000235
 748	7.4326e+01	10.2318	225.102614	0.000517	5.169708	1.751544	-0.000207
 749	7.4426e+01	10.1853	224.860386	0.000608	6.082009	2.060640	-0.000243
 750	7.4525e+01	10.1500	224.650455	0.000527	5.271074	1.785888	-0.000211
 751	7.4625e+01	10.1163	224.436487	0.000537	5.372441	1.820232	-0.000215
 752	7.4725e+01	10.0682	224.174073	0.000659	6.588843	2.232360	-0.000264
 753	7.4824e+01	10.0297	223.972216	0.000507	5.068341	1.717200	-0.000203
 754	7.4924e+01	10.0008	223.762285	0.000527	5.271074	1.785888	-0.000211
 755	7.5023e+01	9.9543	223.540243	0.000558	5.575175	1.888920	-0.000223
 756	7.5123e+01	9.9093	223.338386	0.000507	5.068341	1.717200	-0.000203
 757	7.5222e+01	9.8708	223.092121	0.000618	6.183376	2.094984	-0.000248
 758	7.5322e+01	9.8323	222.837781	0.000639	6.386109	2.163672	-0.000256
 759	7.5421e+01	9.8035	222.607665	0.000578	5.777908	1.957608	-0.000231
 760	7.5520e+01	9.7553	222.393696	0.000537	5.372441	1.820232	-0.000215
 761	7.5620e+01	9.7184	222.187802	0.000517	5.169708	1.751544	-0.000207
 762	7.5719e+01	9.6799	221.985946	0.000507	5.068341	1.717200	-0.000203
 763	7.5819e+01	9.6382	221.711420	0.000689	6.892943	2.335392	-0.000276
 764	7.5918e+01	9.6013	221.501489	0.000527	5.271074	1.785888	-0.000211
 765	7.6018e+01	9.5548	221.315781	0.000466	4.662873	1.579824	-0.000187
 766	7.6118e+01	9.5179	221.073553	0.000608	6.082009	2.060640	-0.000243
 767	7.6217e+01	9.4794	220.819213	0.000639	6.386109	2.163672	-0.000256
 768	7.6317e+01	9.4409	220.576985	0.000608	6.082009	2.060640	-0.000243
 769	7.6416e+01	9.3912	220.375129	0.000507	5.068341	1.717200	-0.000203
 770	7.6516e+01	9.3607	220.128863	0.000618	6.183376	2.094984	-0.000248
 771	7.6615e+01	9.3158	219.918932	0.000527	5.271074	1.785888	-0.000211
 772	7.6715e+01	9.2773	219.684778	0.000588	5.879275	1.991952	-0.000235
 773	7.6814e+01	9.2404	219.414290	0.000679	6.791577	2.301048	-0.000272
 774	7.6913e+01	9.1971	219.176099	0.000598	5.980642	2.026296	-0.000239
 775	7.7013e+01	9.1618	218.970205	0.000517	5.169708	1.751544	-0.000207
 776	7.7112e+01	9.1217	218.756237	0.000537	5.372441	1.820232	-0.000215
 777	7.7212e+01	9.0800	218.465563	0.000730	7.298411	2.472768	-0.000292
 778	7.7311e+01	9.0415	218.255632	0.000527	5.271074	1.785888	-0.000211
 779	7.7411e+01	8.9885	217.997256	0.000649	6.487476	2.198016	-0.000260
 780	7.7510e+01	8.9596	217.795399	0.000507	5.068341	1.717200	-0.000203
 781	7.7610e+01	8.9131	217.541059	0.000639	6.386109	2.163672	-0.000256
 782	7.7710e+01	8.8874	217.294794	0.000618	6.183376	2.094984	-0.000248
 783	7.7809e+01	8.8457	217.040454	0.000639	6.386109	2.163672	-0.000256
 784	7.7909e+01	8.8056	216.814375	0.000568	5.676542	1.923264	-0.000227
 785	7.8008e+01	8.7575	216.564072	0.000628	6.284742	2.129328	-0.000252
 786	7.8108e+01	8.7222	216.346067	0.000547	5.473808	1.854576	-0.000219
 787	7.8207e+01	8.6869	216.115950	0.000578	5.777908	1.957608	-0.000231
 788	7.8306e+01	8.6468	215.873722	0.000608	6.082009	2.060640	-0.000243
 789	7.8406e+01	8.5955	215.583048	0.000730	7.298411	2.472768	-0.000292
 790	7.8505e+01	8.5682	215.377154	0.000517	5.169708	1.751544	-0.000207
 791	7.8605e+01	8.5249	215.106666	0.000679	6.791577	2.301048	-0.000272
 792	7.8704e+01	8.4864	214.852327	0.000639	6.386109	2.163672	-0.000256
 793	7.8804e+01	8.4335	214.618173	0.000588	5.879275	1.991952	-0.000235
 794	7.8903e+01	8.3950	214.363833	0.000639	6.386109	2.163672	-0.000256
 795	7.9003e+01	8.3516	214.137754	0.000568	5.676542	1.923264	-0.000227
 796	7.9103e+01	8.3228	213.891489	0.000618	6.183376	2.094984	-0.000248
 797	7.9202e+01	8.2746	213.673483	0.000547	5.473808	1.854576	-0.000219
 798	7.9302e+01	8.2393	213.394921	0.000699	6.994310	2.369736	-0.000280
 799	7.9401e+01	8.1960	213.176916	0.000547	5.473808	1.854576	-0.000219
 800	7.9501e+01	8.1655	212.874130	0.000760	7.602511	2.575800	-0.000304
 801	7.9600e+01	8.1142	212.660162	0.000537	5.372441	1.820232	-0.000215
 802	7.9700e+01	8.0821	212.393711	0.000669	6.690210	2.266704	-0.000268
 803	7.9799e+01	8.0452	212.191854	0.000507	5.068341	1.717200	-0.000203
 804	7.9898e+01	8.0051	211.917329	0.000689	6.892943	2.335392	-0.000276
 805	7.9998e+01	7.9522	211.671064	0.000618	6.183376	2.094984	-0.000248
 806	8.0097e+01	7.9169	211.392502	0.000699	6.994310	2.369736	-0.000280
 807	8.0197e+01	7.8816	211.190645	0.000507	5.068341	1.717200	-0.000203
 808	8.0296e+01	7.8479	210.887860	0.000760	7.602511	2.575800	-0.000304
 809	8.0396e+01	7.8014	210.673891	0.000537	5.372441	1.820232	-0.000215
 810	8.0496e+01	7.7645	210.427626	0.000618	6.183376	2.094984	-0.000248
 811	8.0595e+01	7.7180	210.173287	0.000639	6.386109	2.163672	-0.000256
 812	8.0695e+01	7.6763	209.914910	0.000649	6.487476	2.198016	-0.000260
 813	8.0794e+01	7.6474	209.660570	0.000639	6.386109	2.163672	-0.000256
 814	8.0894e+01	7.6009	209.382008	0.000699	6.994310	2.369736	-0.000280
 815	8.0993e+01	7.5543	209.172077	0.000527	5.271074	1.785888	-0.000211
 816	8.1093e+01	7.5174	208.877366	0.000740	7.399777	2.507112	-0.000296
 817	8.1192e+01	7.4870	208.623026	0.000639	6.386109	2.163672	-0.000256
 818	8.1291e+01	7.4404	208.380798	0.000608	6.082009	2.060640	-0.000243
 819	8.1391e+01	7.4019	208.118384	0.000659	6.588843	2.232360	-0.000264
 820	8.1490e+01	7.3602	207.860008	0.000649	6.487476	2.198016	-0.000260
 821	8.1590e+01	7.3265	207.605668	0.000639	6.386109	2.163672	-0.000256
 822	8.1689e+01	7.2848	207.363440	0.000608	6.082009	2.060640	-0.000243
 823	8.1789e+01	7.2399	207.084878	0.000699	6.994310	2.369736	-0.000280
 824	8.1888e+01	7.1998	206.838612	0.000618	6.183376	2.094984	-0.000248
 825	8.1988e+01	7.1581	206.568124	0.000679	6.791577	2.301048	-0.000272
 826	8.2088e+01	7.1292	206.293599	0.000689	6.892943	2.335392	-0.000276
 827	8.2187e+01	7.0715	206.059445	0.000588	5.879275	1.991952	-0.000235
 828	8.2287e+01	7.0442	205.801069	0.000649	6.487476	2.198016	-0.000260
 829	8.2386e+01	6.9993	205.530580	0.000679	6.791577	2.301048	-0.000272
 830	8.2486e+01	6.9752	205.320649	0.000527	5.271074	1.785888	-0.000211
 831	8.2585e+01	6.9287	205.013827	0.000770	7.703878	2.610144	-0.000308
 832	8.2684e+01	6.8806	204.715079	0.000750	7.501144	2.541456	-0.000300
 833	8.2784e+01	6.8404	204.460739	0.000639	6.386109	2.163672	-0.000256
 834	8.2883e+01	6.8036	204.230623	0.000578	5.777908	1.957608	-0.000231
 835	8.2983e+01	6.7763	203.919763	0.000781	7.805245	2.644488	-0.000312
 836	8.3082e+01	6.7298	203.689647	0.000578	5.777908	1.957608	-0.000231
 837	8.3182e+01	6.6800	203.423196	0.000669	6.690210	2.266704	-0.000268
 838	8.3281e+01	6.6431	203.148670	0.000689	6.892943	2.335392	-0.000276
 839	8.3381e+01	6.6078	202.902405	0.000618	6.183376	2.094984	-0.000248
 840	8.3481e+01	6.5613	202.603657	0.000750	7.501144	2.541456	-0.000300
 841	8.3580e+01	6.5260	202.329132	0.000689	6.892943	2.335392	-0.000276
 842	8.3680e+01	6.4875	202.054607	0.000689	6.892943	2.335392	-0.000276
 843	8.3779e+01	6.4522	201.816416	0.000598	5.980642	2.026296	-0.000239
 844	8.3879e+01	6.4089	201.549965	0.000669	6.690210	2.266704	-0.000268
 845	8.3978e+01	6.3640	201.291588	0.000649	6.487476	2.198016	-0.000260
 846	8.4078e+01	6.3287	200.996877	0.000740	7.399777	2.507112	-0.000296
 847	8.4177e+01	6.2918	200.738500	0.000649	6.487476	2.198016	-0.000260
 848	8.4276e+01	6.2453	200.492235	0.000618	6.183376	2.094984	-0.000248
 849	8.4376e+01	6.2148	200.197524	0.000740	7.399777	2.507112	-0.000296
 850	8.4475e+01	6.1715	199.894739	0.000760	7.602511	2.575800	-0.000304
 851	8.4575e+01	6.1362	199.652511	0.000608	6.082009	2.060640	-0.000243
 852	8.4674e+01	6.0929	199.373948	0.000699	6.994310	2.369736	-0.000280
 853	8.4774e+01	6.0464	199.103460	0.000679	6.791577	2.301048	-0.000272
 854	8.4874e+01	6.0079	198.841047	0.000659	6.588843	2.232360	-0.000264
 855	8.4973e+01	5.9806	198.562484	0.000699	6.994310	2.369736	-0.000280
 856	8.5073e+01	5.9341	198.304107	0.000649	6.487476	2.198016	-0.000260
 857	8.5172e+01	5.8956	198.053805	0.000628	6.284742	2.129328	-0.000252
 858	8.5272e+01	5.8394	197.751020	0.000760	7.602511	2.575800	-0.000304
 859	8.5371e+01	5.8153	197.476495	0.000689	6.892943	2.335392	-0.000276
 860	8.5471e+01	5.7736	197.218118	0.000649	6.487476	2.198016	-0.000260
 861	8.5570e+01	5.7319	196.975890	0.000608	6.082009	2.060640	-0.000243
 862	8.5669e+01	5.6902	196.669067	0.000770	7.703878	2.610144	-0.000308
 863	8.5769e+01	5.6533	196.374357	0.000740	7.399777	2.507112	-0.000296
 864	8.5868e+01	5.6180	196.124054	0.000628	6.284742	2.129328	-0.000252
 865	8.5968e+01	5.5715	195.873752	0.000628	6.284742	2.129328	-0.000252
 866	8.6067e+01	5.5330	195.575004	0.000750	7.501144	2.541456	-0.000300
 867	8.6167e+01	5.4929	195.320664	0.000639	6.386109	2.163672	-0.000256
 868	8.6266e+01	5.4512	195.017879	0.000760	7.602511	2.575800	-0.000304
 869	8.6366e+01	5.4047	194.759502	0.000649	6.487476	2.198016	-0.000260
 870	8.6466e+01	5.3710	194.460754	0.000750	7.501144	2.541456	-0.000300
 871	8.6565e+01	5.3244	194.198340	0.000659	6.588843	2.232360	-0.000264
 872	8.6665e+01	5.3004	193.931889	0.000669	6.690210	2.266704	-0.000268
 873	8.6764e+01	5.2539	193.665438	0.000669	6.690210	2.266704	-0.000268
 874	8.6864e+01	5.2186	193.370728	0.000740	7.399777	2.507112	-0.000296
 875	8.6963e+01	5.1801	193.116388	0.000639	6.386109	2.163672	-0.000256
 876	8.7063e+01	5.1351	192.821677	0.000740	7.399777	2.507112	-0.000296
 877	8.7162e+01	5.0950	192.531003	0.000730	7.298411	2.472768	-0.000292
 878	8.7261e+01	5.0565	192.308961	0.000558	5.575175	1.888920	-0.000223
 879	8.7361e+01	5.0100	191.961767	0.000872	8.717546	2.953585	-0.000349
 880	8.7460e+01	4.9811	191.671093	0.000730	7.298411	2.472768	-0.000292
 881	8.7560e+01	4.9362	191.412717	0.000649	6.487476	2.198016	-0.000260
 882	8.7659e+01	4.8993	191.122043	0.000730	7.298411	2.472768	-0.000292
 883	8.7759e+01	4.8528	190.879815	0.000608	6.082009	2.060640	-0.000243
 884	8.7859e+01	4.8255	190.581067	0.000750	7.501144	2.541456	-0.000300
 885	8.7958e+01	4.7758	190.338839	0.000608	6.082009	2.060640	-0.000243
 886	8.8058e+01	4.7389	190.027979	0.000781	7.805245	2.644488	-0.000312
 887	8.8157e+01	4.6988	189.773640	0.000639	6.386109	2.163672	-0.000256
 888	8.8257e+01	4.6443	189.499114	0.000689	6.892943	2.335392	-0.000276
 889	8.8356e+01	4.6202	189.204403	0.000740	7.399777	2.507112	-0.000296
 890	8.8456e+01	4.5801	188.841061	0.000912	9.123013	3.090961	-0.000365
 891	8.8555e+01	4.5400	188.602870	0.000598	5.980642	2.026296	-0.000239
 892	8.8654e+01	4.4951	188.376791	0.000568	5.676542	1.923264	-0.000227
 893	8.8754e+01	4.4517	188.013448	0.000912	9.123013	3.090961	-0.000365
 894	8.8853e+01	4.4181	187.751035	0.000659	6.588843	2.232360	-0.000264
 895	8.8953e+01	4.3747	187.468435	0.000710	7.095677	2.404080	-0.000284
 896	8.9052e+01	4.3362	187.173724	0.000740	7.399777	2.507112	-0.000296
 897	8.9152e+01	4.2945	186.883050	0.000730	7.298411	2.472768	-0.000292
 898	8.9251e+01	4.2641	186.648897	0.000588	5.879275	1.991952	-0.000235
 899	8.9351e+01	4.2111	186.305740	0.000862	8.616179	2.919241	-0.000345
 900	8.9451e+01	4.1742	186.039289	0.000669	6.690210	2.266704	-0.000268
 901	8.9550e+01	4.1357	185.776875	0.000659	6.588843	2.232360	-0.000264
 902	8.9650e+01	4.0956	185.478127	0.000750	7.501144	2.541456	-0.000300
 903	8.9749e+01	4.0635	185.155156	0.000811	8.109345	2.747521	-0.000325
 904	8.9849e+01	4.0170	184.912928	0.000608	6.082009	2.060640	-0.000243
 905	8.9948e+01	3.9785	184.585920	0.000821	8.210712	2.781865	-0.000329
 906	9.0047e+01	3.9352	184.254875	0.000831	8.312079	2.816209	-0.000333
 907	9.0147e+01	3.9015	184.028795	0.000568	5.676542	1.923264	-0.000227
 908	9.0246e+01	3.8566	183.721973	0.000770	7.703878	2.610144	-0.000308
 909	9.0346e+01	3.8213	183.382854	0.000851	8.514812	2.884897	-0.000341
 910	9.0445e+01	3.7748	183.172923	0.000527	5.271074	1.785888	-0.000211
 911	9.0545e+01	3.7379	182.862063	0.000781	7.805245	2.644488	-0.000312
 912	9.0644e+01	3.7090	182.587538	0.000689	6.892943	2.335392	-0.000276
 913	9.0744e+01	3.6560	182.256493	0.000831	8.312079	2.816209	-0.000333
 914	9.0844e+01	3.6175	181.953708	0.000760	7.602511	2.575800	-0.000304
 915	9.0943e+01	3.5806	181.687257	0.000669	6.690210	2.266704	-0.000268
 916	9.1043e+01	3.5325	181.404657	0.000710	7.095677	2.404080	-0.000284
 917	9.1142e+01	3.5020	181.097835	0.000770	7.703878	2.610144	-0.000308
 918	9.1242e+01	3.4700	180.835421	0.000659	6.588843	2.232360	-0.000264
 919	9.1341e+01	3.4266	180.516487	0.000801	8.007978	2.713177	-0.000321
 920	9.1441e+01	3.3817	180.258111	0.000649	6.487476	2.198016	-0.000260
 921	9.1540e+01	3.3416	179.951288	0.000770	7.703878	2.610144	-0.000308
 922	9.1639e+01	3.3015	179.636392	0.000791	7.906612	2.678832	-0.000316
 923	9.1739e+01	3.2662	179.373978	0.000659	6.588843	2.232360	-0.000264
 924	9.1838e+01	3.2165	179.103490	0.000679	6.791577	2.301048	-0.000272
 925	9.1938e+01	3.1764	178.784556	0.000801	8.007978	2.713177	-0.000321
 926	9.2037e+01	3.1379	178.485808	0.000750	7.501144	2.541456	-0.000300
 927	9.2137e+01	3.1010	178.170912	0.000791	7.906612	2.678832	-0.000316
 928	9.2237e+01	3.0625	177.888312	0.000710	7.095677	2.404080	-0.000284
 929	9.2336e+01	3.0224	177.601675	0.000720	7.197044	2.438424	-0.000288
 930	9.2436e+01	2.9839	177.282742	0.000801	8.007978	2.713177	-0.000321
 931	9.2535e+01	2.9534	176.996105	0.000720	7.197044	2.438424	-0.000288
 932	9.2635e+01	2.8988	176.717543	0.000699	6.994310	2.369736	-0.000280
 933	9.2734e+01	2.8620	176.422832	0.000740	7.399777	2.507112	-0.000296
 934	9.2834e+01	2.8251	176.132158	0.000730	7.298411	2.472768	-0.000292
 935	9.2933e+01	2.7849	175.789001	0.000862	8.616179	2.919241	-0.000345
 936	9.3032e+01	2.7481	175.522550	0.000669	6.690210	2.266704	-0.000268
 937	9.3132e+01	2.7063	175.191505	0.000831	8.312079	2.816209	-0.000333
 938	9.3231e+01	2.6662	174.884683	0.000770	7.703878	2.610144	-0.000308
 939	9.3331e+01	2.6101	174.618232	0.000669	6.690210	2.266704	-0.000268
 940	9.3430e+01	2.5796	174.315447	0.000760	7.602511	2.575800	-0.000304
 941	9.3530e+01	2.5347	173.984402	0.000831	8.312079	2.816209	-0.000333
 942	9.3629e+01	2.5042	173.665468	0.000801	8.007978	2.713177	-0.000321
 943	9.3729e+01	2.4609	173.354609	0.000781	7.805245	2.644488	-0.000312
 944	9.3829e+01	2.4256	173.051823	0.000760	7.602511	2.575800	-0.000304
 945	9.3928e+01	2.3839	172.728853	0.000811	8.109345	2.747521	-0.000325
 946	9.4028e+01	2.3486	172.446253	0.000710	7.095677	2.404080	-0.000284
 947	9.4127e+01	2.3037	172.139431	0.000770	7.703878	2.610144	-0.000308
 948	9.4227e+01	2.2716	171.828571	0.000781	7.805245	2.644488	-0.000312
 949	9.4326e+01	2.2203	171.550009	0.000699	6.994310	2.369736	-0.000280
 950	9.4425e+01	2.1802	171.259335	0.000730	7.298411	2.472768	-0.000292
 951	9.4525e+01	2.1417	170.904067	0.000892	8.920280	3.022273	-0.000357
 952	9.4624e+01	2.1031	170.593208	0.000781	7.805245	2.644488	-0.000312
 953	9.4724e+01	2.0534	170.246014	0.000872	8.717546	2.953585	-0.000349
 954	9.4823e+01	2.0342	169.943229	0.000760	7.602511	2.575800	-0.000304
 955	9.4923e+01	1.9876	169.648518	0.000740	7.399777	2.507112	-0.000296
 956	9.5022e+01	1.9411	169.337659	0.000781	7.805245	2.644488	-0.000312
 957	9.5122e+01	1.9058	169.046985	0.000730	7.298411	2.472768	-0.000292
 958	9.5222e+01	1.8657	168.719977	0.000821	8.210712	2.781865	-0.000329
 959	9.5321e+01	1.8272	168.364709	0.000892	8.920280	3.022273	-0.000357
 960	9.5421e+01	1.7759	168.041738	0.000811	8.109345	2.747521	-0.000325
 961	9.5520e+01	1.7454	167.767213	0.000689	6.892943	2.335392	-0.000276
 962	9.5620e+01	1.7133	167.460390	0.000770	7.703878	2.610144	-0.000308
 963	9.5719e+01	1.6636	167.149531	0.000781	7.805245	2.644488	-0.000312
 964	9.5819e+01	1.6235	166.818486	0.000831	8.312079	2.816209	-0.000333
 965	9.5918e+01	1.5946	166.475329	0.000862	8.616179	2.919241	-0.000345
 966	9.6017e+01	1.5497	166.180618	0.000740	7.399777	2.507112	-0.000296
 967	9.6117e+01	1.5064	165.893982	0.000720	7.197044	2.438424	-0.000288
 968	9.6216e+01	1.4711	165.546788	0.000872	8.717546	2.953585	-0.000349
 969	9.6316e+01	1.4214	165.211706	0.000841	8.413446	2.850553	-0.000337
 970	9.6415e+01	1.3861	164.900846	0.000781	7.805245	2.644488	-0.000312
 971	9.6515e+01	1.3460	164.634395	0.000669	6.690210	2.266704	-0.000268
 972	9.6615e+01	1.3074	164.262979	0.000933	9.325747	3.159649	-0.000373
 973	9.6714e+01	1.2673	163.935971	0.000821	8.210712	2.781865	-0.000329
 974	9.6814e+01	1.2385	163.600889	0.000841	8.413446	2.850553	-0.000337
 975	9.6913e+01	1.1871	163.302141	0.000750	7.501144	2.541456	-0.000300
 976	9.7013e+01	1.1454	162.971095	0.000831	8.312079	2.816209	-0.000333
 977	9.7112e+01	1.1069	162.676385	0.000740	7.399777	2.507112	-0.000296
 978	9.7212e+01	1.0636	162.325154	0.000882	8.818913	2.987929	-0.000353
 979	9.7311e+01	1.0283	161.981997	0.000862	8.616179	2.919241	-0.000345
 980	9.7410e+01	0.9850	161.679212	0.000760	7.602511	2.575800	-0.000304
 981	9.7510e+01	0.9449	161.352204	0.000821	8.210712	2.781865	-0.000329
 982	9.7609e+01	0.8984	161.009048	0.000862	8.616179	2.919241	-0.000345
 983	9.7709e+01	0.8727	160.678002	0.000831	8.312079	2.816209	-0.000333
 984	9.7808e+01	0.8374	160.395403	0.000710	7.095677	2.404080	-0.000284
 985	9.7908e+01	0.7829	160.015912	0.000953	9.528481	3.228337	-0.000381
 986	9.8007e+01	0.7444	159.701016	0.000791	7.906612	2.678832	-0.000316
 987	9.8107e+01	0.7187	159.406305	0.000740	7.399777	2.507112	-0.000296
 988	9.8207e+01	0.6674	159.055074	0.000882	8.818913	2.987929	-0.000353
 989	9.8306e+01	0.6273	158.711917	0.000862	8.616179	2.919241	-0.000345
 990	9.8406e+01	0.5936	158.384909	0.000821	8.210712	2.781865	-0.000329
 991	9.8505e+01	0.5535	158.082124	0.000760	7.602511	2.575800	-0.000304
 992	9.8605e+01	0.5198	157.763190	0.000801	8.007978	2.713177	-0.000321
 993	9.8704e+01	0.4684	157.407922	0.000892	8.920280	3.022273	-0.000357
 994	9.8803e+01	0.4364	157.088989	0.000801	8.007978	2.713177	-0.000321
 995	9.8903e+01	0.3882	156.721609	0.000922	9.224380	3.125305	-0.000369
 996	9.9002e+01	0.3481	156.426898	0.000740	7.399777	2.507112	-0.000296
 997	9.9102e+01	0.3225	156.091816	0.000841	8.413446	2.850553	-0.000337
 998	9.9201e+01	0.2743	155.780957	0.000781	7.805245	2.644488	-0.000312
 999	9.9301e+01	0.2246	155.377243	0.001014	10.136681	3.434401	-0.000406
1000	9.9400e+01	0.1861	155.062347	0.000791	7.906612	2.678832	-0.000316
1001	9.9500e+01	0.1524	154.711116	0.000882	8.818913	2.987929	-0.000353
1002	9.9600e+01	0.1091	154.380071	0.000831	8.312079	2.816209	-0.000333
1003	9.9699e+01	0.0722	154.061137	0.000801	8.007978	2.713177	-0.000321
1004	9.9799e+01	0.0225	153.669535	0.000983	9.832581	3.331369	-0.000394
1005	9.9898e+01	-0.0016	153.451529	0.000547	5.473808	1.854576	-0.000219
1006	9.9998e+01	-0.0433	153.072039	0.000953	9.528481	3.228337	-0.000381
1007	1.0010e+02	-0.0818	152.753105	0.000801	8.007978	2.713177	-0.000321
1008	1.0020e+02	-0.1348	152.426097	0.000821	8.210712	2.781865	-0.000329
1009	1.0030e+02	-0.1604	152.050643	0.000943	9.427114	3.193993	-0.000377
1010	1.0040e+02	-0.2021	151.707487	0.000862	8.616179	2.919241	-0.000345
1011	1.0050e+02	-0.2358	151.396627	0.000781	7.805245	2.644488	-0.000312
1012	1.0059e+02	-0.2759	151.013099	0.000963	9.629847	3.262681	-0.000385
1013	1.0069e+02	-0.3144	150.657831	0.000892	8.920280	3.022273	-0.000357
1014	1.0079e+02	-0.3513	150.338898	0.000801	8.007978	2.713177	-0.000321
1015	1.0089e+02	-0.3978	149.979593	0.000902	9.021646	3.056617	-0.000361
1016	1.0099e+02	-0.4380	149.656622	0.000811	8.109345	2.747521	-0.000325
1017	1.0109e+02	-0.4749	149.305391	0.000882	8.818913	2.987929	-0.000353
1018	1.0119e+02	-0.5214	148.938012	0.000922	9.224380	3.125305	-0.000369
1019	1.0129e+02	-0.5551	148.606967	0.000831	8.312079	2.816209	-0.000333
1020	1.0139e+02	-0.5984	148.207290	0.001004	10.035315	3.400057	-0.000402
1021	1.0149e+02	-0.6273	147.908542	0.000750	7.501144	2.541456	-0.000300
1022	1.0159e+02	-0.6786	147.597683	0.000781	7.805245	2.644488	-0.000312
1023	1.0169e+02	-0.7155	147.189932	0.001024	10.238048	3.468745	-0.000410
1024	1.0179e+02	-0.7524	146.875035	0.000791	7.906612	2.678832	-0.000316
1025	1.0189e+02	-0.8037	146.523804	0.000882	8.818913	2.987929	-0.000353
1026	1.0199e+02	-0.8390	146.160462	0.000912	9.123013	3.090961	-0.000365
1027	1.0209e+02	-0.8807	145.809231	0.000882	8.818913	2.987929	-0.000353
1028	1.0219e+02	-0.9192	145.470112	0.000851	8.514812	2.884897	-0.000341
1029	1.0229e+02	-0.9609	145.114844	0.000892	8.920280	3.022273	-0.000357
1030	1.0239e+02	-0.9962	144.759576	0.000892	8.920280	3.022273	-0.000357
1031	1.0248e+02	-1.0411	144.412382	0.000872	8.717546	2.953585	-0.000349
1032	1.0258e+02	-1.0732	144.065189	0.000872	8.717546	2.953585	-0.000349
1033	1.0268e+02	-1.1214	143.709921	0.000892	8.920280	3.022273	-0.000357
1034	1.0278e+02	-1.1502	143.358690	0.000882	8.818913	2.987929	-0.000353
1035	1.0288e+02	-1.2048	143.003422	0.000892	8.920280	3.022273	-0.000357
1036	1.0298e+02	-1.2433	142.656228	0.000872	8.717546	2.953585	-0.000349
1037	1.0308e+02	-1.2818	142.296923	0.000902	9.021646	3.056617	-0.000361
1038	1.0318e+02	-1.3235	141.921470	0.000943	9.427114	3.193993	-0.000377
1039	1.0328e+02	-1.3524	141.598499	0.000811	8.109345	2.747521	-0.000325
1040	1.0338e+02	-1.3893	141.247268	0.000882	8.818913	2.987929	-0.000353
1041	1.0348e+02	-1.4470	140.904112	0.000862	8.616179	2.919241	-0.000345
1042	1.0358e+02	-1.4807	140.532695	0.000933	9.325747	3.159649	-0.000373
1043	1.0368e+02	-1.5096	140.169353	0.000912	9.123013	3.090961	-0.000365
1044	1.0378e+02	-1.5577	139.838308	0.000831	8.312079	2.816209	-0.000333
1045	1.0388e+02	-1.5850	139.438631	0.001004	10.035315	3.400057	-0.000402
1046	1.0398e+02	-1.6411	139.107586	0.000831	8.312079	2.816209	-0.000333
1047	1.0408e+02	-1.6796	138.720021	0.000973	9.731214	3.297025	-0.000390
1048	1.0418e+02	-1.7069	138.364753	0.000892	8.920280	3.022273	-0.000357
1049	1.0428e+02	-1.7550	138.009485	0.000892	8.920280	3.022273	-0.000357
1050	1.0438e+02	-1.7903	137.634032	0.000943	9.427114	3.193993	-0.000377
1051	1.0447e+02	-1.8352	137.290875	0.000862	8.616179	2.919241	-0.000345
1052	1.0457e+02	-1.8753	136.931570	0.000902	9.021646	3.056617	-0.000361
1053	1.0467e+02	-1.9122	136.519782	0.001034	10.339415	3.503089	-0.000414
1054	1.0477e+02	-1.9620	136.204886	0.000791	7.906612	2.678832	-0.000316
1055	1.0487e+02	-1.9941	135.853655	0.000882	8.818913	2.987929	-0.000353
1056	1.0497e+02	-2.0342	135.441867	0.001034	10.339415	3.503089	-0.000414
1057	1.0507e+02	-2.0711	135.126970	0.000791	7.906612	2.678832	-0.000316
1058	1.0517e+02	-2.1064	134.719220	0.001024	10.238048	3.468745	-0.000410
1059	1.0527e+02	-2.1561	134.380100	0.000851	8.514812	2.884897	-0.000341
1060	1.0537e+02	-2.1994	134.012721	0.000922	9.224380	3.125305	-0.000369
1061	1.0547e+02	-2.2283	133.625156	0.000973	9.731214	3.297025	-0.000390
1062	1.0557e+02	-2.2732	133.257776	0.000922	9.224380	3.125305	-0.000369
1063	1.0567e+02	-2.3149	132.886360	0.000933	9.325747	3.159649	-0.000373
1064	1.0577e+02	-2.3486	132.551278	0.000841	8.413446	2.850553	-0.000337
1065	1.0587e+02	-2.3791	132.175824	0.000943	9.427114	3.193993	-0.000377
1066	1.0597e+02	-2.4368	131.800370	0.000943	9.427114	3.193993	-0.000377
1067	1.0607e+02	-2.4721	131.465288	0.000841	8.413446	2.850553	-0.000337
1068	1.0617e+02	-2.5074	131.077723	0.000973	9.731214	3.297025	-0.000390
1069	1.0627e+02	-2.5427	130.722455	0.000892	8.920280	3.022273	-0.000357
1070	1.0637e+02	-2.5973	130.359113	0.000912	9.123013	3.090961	-0.000365
1071	1.0647e+02	-2.6277	129.987696	0.000933	9.325747	3.159649	-0.000373
1072	1.0656e+02	-2.6678	129.632429	0.000892	8.920280	3.022273	-0.000357
1073	1.0666e+02	-2.7128	129.228715	0.001014	10.136681	3.434401	-0.000406
1074	1.0676e+02	-2.7577	128.853261	0.000943	9.427114	3.193993	-0.000377
1075	1.0686e+02	-2.7994	128.518179	0.000841	8.413446	2.850553	-0.000337
1076	1.0696e+02	-2.8234	128.146763	0.000933	9.325747	3.159649	-0.000373
1077	1.0706e+02	-2.8684	127.763235	0.000963	9.629847	3.262681	-0.000385
1078	1.0716e+02	-2.9117	127.460450	0.000760	7.602511	2.575800	-0.000304
1079	1.0726e+02	-2.9582	127.052699	0.001024	10.238048	3.468745	-0.000410
1080	1.0736e+02	-2.9903	126.669171	0.000963	9.629847	3.262681	-0.000385
1081	1.0746e+02	-3.0304	126.326014	0.000862	8.616179	2.919241	-0.000345
1082	1.0756e+02	-3.0753	125.982858	0.000862	8.616179	2.919241	-0.000345
1083	1.0766e+02	-3.1042	125.643738	0.000851	8.514812	2.884897	-0.000341
1084	1.0776e+02	-3.1555	125.207728	0.001095	10.947616	3.709153	-0.000438
1085	1.0786e+02	-3.1892	124.880720	0.000821	8.210712	2.781865	-0.000329
1086	1.0796e+02	-3.2245	124.509303	0.000933	9.325747	3.159649	-0.000373
1087	1.0806e+02	-3.2742	124.170184	0.000851	8.514812	2.884897	-0.000341
1088	1.0816e+02	-3.3208	123.806842	0.000912	9.123013	3.090961	-0.000365
1089	1.0826e+02	-3.3496	123.479834	0.000821	8.210712	2.781865	-0.000329
1090	1.0836e+02	-3.3930	123.116491	0.000912	9.123013	3.090961	-0.000365
1091	1.0845e+02	-3.4282	122.728926	0.000973	9.731214	3.297025	-0.000390
1092	1.0855e+02	-3.4716	122.373658	0.000892	8.920280	3.022273	-0.000357
1093	1.0865e+02	-3.5101	122.006279	0.000922	9.224380	3.125305	-0.000369
1094	1.0875e+02	-3.5550	121.667160	0.000851	8.514812	2.884897	-0.000341
1095	1.0885e+02	-3.5855	121.291706	0.000943	9.427114	3.193993	-0.000377
1096	1.0895e+02	-3.6304	120.964698	0.000821	8.210712	2.781865	-0.000329
1097	1.0905e+02	-3.6721	120.597319	0.000922	9.224380	3.125305	-0.000369
1098	1.0915e+02	-3.7058	120.238014	0.000902	9.021646	3.056617	-0.000361
1099	1.0925e+02	-3.7491	119.890820	0.000872	8.717546	2.953585	-0.000349
1100	1.0935e+02	-3.7764	119.527478	0.000912	9.123013	3.090961	-0.000365
1101	1.0945e+02	-3.8277	119.180284	0.000872	8.717546	2.953585	-0.000349
1102	1.0955e+02	-3.8598	118.796756	0.000963	9.629847	3.262681	-0.000385
1103	1.0965e+02	-3.9031	118.473785	0.000811	8.109345	2.747521	-0.000325
1104	1.0975e+02	-3.9432	118.106406	0.000922	9.224380	3.125305	-0.000369
1105	1.0985e+02	-3.9833	117.795547	0.000781	7.805245	2.644488	-0.000312
1106	1.0995e+02	-4.0234	117.428167	0.000922	9.224380	3.125305	-0.000369
1107	1.1005e+02	-4.0635	117.024454	0.001014	10.136681	3.434401	-0.000406
1108	1.1015e+02	-4.1020	116.717631	0.000770	7.703878	2.610144	-0.000308
1109	1.1025e+02	-4.1389	116.334103	0.000963	9.629847	3.262681	-0.000385
1110	1.1035e+02	-4.1854	116.003058	0.000831	8.312079	2.816209	-0.000333
1111	1.1044e+02	-4.2239	115.627605	0.000943	9.427114	3.193993	-0.000377
1112	1.1054e+02	-4.2705	115.288485	0.000851	8.514812	2.884897	-0.000341
1113	1.1064e+02	-4.2961	114.937254	0.000882	8.818913	2.987929	-0.000353
1114	1.1074e+02	-4.3555	114.573912	0.000912	9.123013	3.090961	-0.000365
1115	1.1084e+02	-4.3796	114.246904	0.000821	8.210712	2.781865	-0.000329
1116	1.1094e+02	-4.4277	113.936045	0.000781	7.805245	2.644488	-0.000312
1117	1.1104e+02	-4.4630	113.556554	0.000953	9.528481	3.228337	-0.000381
1118	1.1114e+02	-4.5143	113.201286	0.000892	8.920280	3.022273	-0.000357
1119	1.1124e+02	-4.5384	112.870241	0.000831	8.312079	2.816209	-0.000333
1120	1.1134e+02	-4.5897	112.579567	0.000730	7.298411	2.472768	-0.000292
1121	1.1144e+02	-4.6218	112.196039	0.000963	9.629847	3.262681	-0.000385
1122	1.1154e+02	-4.6587	111.812511	0.000963	9.629847	3.262681	-0.000385
1123	1.1164e+02	-4.7020	111.449169	0.000912	9.123013	3.090961	-0.000365
1124	1.1174e+02	-4.7373	111.182718	0.000669	6.690210	2.266704	-0.000268
1125	1.1184e+02	-4.7822	110.807265	0.000943	9.427114	3.193993	-0.000377
1126	1.1194e+02	-4.8287	110.447960	0.000902	9.021646	3.056617	-0.000361
1127	1.1204e+02	-4.8608	110.137100	0.000781	7.805245	2.644488	-0.000312
1128	1.1214e+02	-4.9073	109.797981	0.000851	8.514812	2.884897	-0.000341
1129	1.1224e+02	-4.9378	109.454824	0.000862	8.616179	2.919241	-0.000345
1130	1.1234e+02	-4.9860	109.115705	0.000851	8.514812	2.884897	-0.000341
1131	1.1244e+02	-5.0180	108.679694	0.001095	10.947616	3.709153	-0.000438
1132	1.1253e+02	-5.0581	108.429392	0.000628	6.284742	2.129328	-0.000252
1133	1.1263e+02	-5.1063	108.150829	0.000699	6.994310	2.369736	-0.000280
1134	1.1273e+02	-5.1335	107.755190	0.000993	9.933948	3.365713	-0.000398
1135	1.1283e+02	-5.1753	107.420108	0.000841	8.413446	2.850553	-0.000337
1136	1.1293e+02	-5.2282	107.060803	0.000902	9.021646	3.056617	-0.000361
1137	1.1303e+02	-5.2587	106.786277	0.000689	6.892943	2.335392	-0.000276
1138	1.1313e+02	-5.3020	106.398712	0.000973	9.731214	3.297025	-0.000390
1139	1.1323e+02	-5.3485	106.051519	0.000872	8.717546	2.953585	-0.000349
1140	1.1333e+02	-5.3822	105.732585	0.000801	8.007978	2.713177	-0.000321
1141	1.1343e+02	-5.4255	105.425763	0.000770	7.703878	2.610144	-0.000308
1142	1.1353e+02	-5.4560	105.074532	0.000882	8.818913	2.987929	-0.000353
1143	1.1363e+02	-5.5009	104.735412	0.000851	8.514812	2.884897	-0.000341
1144	1.1373e+02	-5.5410	104.416479	0.000801	8.007978	2.713177	-0.000321
1145	1.1383e+02	-5.5843	104.089471	0.000821	8.210712	2.781865	-0.000329
1146	1.1393e+02	-5.6212	103.762463	0.000821	8.210712	2.781865	-0.000329
1147	1.1403e+02	-5.6662	103.411232	0.000882	8.818913	2.987929	-0.000353
1148	1.1413e+02	-5.7014	103.092298	0.000801	8.007978	2.713177	-0.000321
1149	1.1423e+02	-5.7464	102.749142	0.000862	8.616179	2.919241	-0.000345
1150	1.1433e+02	-5.7752	102.438282	0.000781	7.805245	2.644488	-0.000312
1151	1.1442e+02	-5.8202	102.123386	0.000791	7.906612	2.678832	-0.000316
1152	1.1452e+02	-5.8667	101.772155	0.000882	8.818913	2.987929	-0.000353
1153	1.1462e+02	-5.8907	101.465333	0.000770	7.703878	2.610144	-0.000308
1154	1.1472e+02	-5.9341	101.122176	0.000862	8.616179	2.919241	-0.000345
1155	1.1482e+02	-5.9710	100.774982	0.000872	8.717546	2.953585	-0.000349
1156	1.1492e+02	-6.0239	100.456049	0.000801	8.007978	2.713177	-0.000321
1157	1.1502e+02	-6.0672	100.165375	0.000730	7.298411	2.472768	-0.000292
1158	1.1512e+02	-6.0977	99.797995	0.000922	9.224380	3.125305	-0.000369
1159	1.1522e+02	-6.1378	99.499247	0.000750	7.501144	2.541456	-0.000300
1160	1.1532e+02	-6.1747	99.176277	0.000811	8.109345	2.747521	-0.000325
1161	1.1542e+02	-6.2212	98.869454	0.000770	7.703878	2.610144	-0.000308
1162	1.1552e+02	-6.2565	98.566669	0.000760	7.602511	2.575800	-0.000304
1163	1.1562e+02	-6.2918	98.207364	0.000902	9.021646	3.056617	-0.000361
1164	1.1572e+02	-6.3287	97.892467	0.000791	7.906612	2.678832	-0.000316
1165	1.1582e+02	-6.3720	97.581608	0.000781	7.805245	2.644488	-0.000312
1166	1.1592e+02	-6.4105	97.242489	0.000851	8.514812	2.884897	-0.000341
1167	1.1602e+02	-6.4554	96.943740	0.000750	7.501144	2.541456	-0.000300
1168	1.1612e+02	-6.4827	96.632881	0.000781	7.805245	2.644488	-0.000312
1169	1.1622e+02	-6.5356	96.285687	0.000872	8.717546	2.953585	-0.000349
1170	1.1632e+02	-6.5677	95.966754	0.000801	8.007978	2.713177	-0.000321
1171	1.1642e+02	-6.6030	95.635708	0.000831	8.312079	2.816209	-0.000333
1172	1.1651e+02	-6.6495	95.312738	0.000811	8.109345	2.747521	-0.000325
1173	1.1661e+02	-6.6929	94.981693	0.000831	8.312079	2.816209	-0.000333
1174	1.1671e+02	-6.7298	94.678907	0.000760	7.602511	2.575800	-0.000304
1175	1.1681e+02	-6.7715	94.368048	0.000781	7.805245	2.644488	-0.000312
1176	1.1691e+02	-6.8100	94.069300	0.000750	7.501144	2.541456	-0.000300
1177	1.1701e+02	-6.8533	93.714032	0.000892	8.920280	3.022273	-0.000357
1178	1.1711e+02	-6.8998	93.374912	0.000851	8.514812	2.884897	-0.000341
1179	1.1721e+02	-6.9255	93.072127	0.000760	7.602511	2.575800	-0.000304
1180	1.1731e+02	-6.9624	92.708785	0.000912	9.123013	3.090961	-0.000365
1181	1.1741e+02	-7.0217	92.446371	0.000659	6.588843	2.232360	-0.000264
1182	1.1751e+02	-7.0474	92.151660	0.000740	7.399777	2.507112	-0.000296
1183	1.1761e+02	-7.0859	91.764095	0.000973	9.731214	3.297025	-0.000390
1184	1.1771e+02	-7.1292	91.465347	0.000750	7.501144	2.541456	-0.000300
1185	1.1781e+02	-7.1757	91.142376	0.000811	8.109345	2.747521	-0.000325
1186	1.1791e+02	-7.2158	90.896111	0.000618	6.183376	2.094984	-0.000248
1187	1.1801e+02	-7.2463	90.524695	0.000933	9.325747	3.159649	-0.000373
1188	1.1811e+02	-7.2864	90.238058	0.000720	7.197044	2.438424	-0.000288
1189	1.1821e+02	-7.3249	89.923161	0.000791	7.906612	2.678832	-0.000316
1190	1.1831e+02	-7.3811	89.604228	0.000801	8.007978	2.713177	-0.000321
1191	1.1841e+02	-7.4132	89.317591	0.000720	7.197044	2.438424	-0.000288
1192	1.1850e+02	-7.4565	88.990583	0.000821	8.210712	2.781865	-0.000329
1193	1.1860e+02	-7.4966	88.651464	0.000851	8.514812	2.884897	-0.000341
1194	1.1870e+02	-7.5303	88.393087	0.000649	6.487476	2.198016	-0.000260
1195	1.1880e+02	-7.5656	88.041856	0.000882	8.818913	2.987929	-0.000353
1196	1.1890e+02	-7.6217	87.767331	0.000689	6.892943	2.335392	-0.000276
1197	1.1900e+02	-7.6490	87.440323	0.000821	8.210712	2.781865	-0.000329
1198	1.1910e+02	-7.6923	87.129463	0.000781	7.805245	2.644488	-0.000312
1199	1.1920e+02	-7.7388	86.858975	0.000679	6.791577	2.301048	-0.000272
1200	1.1930e+02	-7.7693	86.552153	0.000770	7.703878	2.610144	-0.000308
1201	1.1940e+02	-7.8158	86.200922	0.000882	8.818913	2.987929	-0.000353
1202	1.1950e+02	-7.8431	85.934471	0.000669	6.690210	2.266704	-0.000268
1203	1.1960e+02	-7.8912	85.599389	0.000841	8.413446	2.850553	-0.000337
1204	1.1970e+02	-7.9265	85.308715	0.000730	7.298411	2.472768	-0.000292
1205	1.1980e+02	-7.9666	85.005930	0.000760	7.602511	2.575800	-0.000304
1206	1.1990e+02	-8.0099	84.670848	0.000841	8.413446	2.850553	-0.000337
1207	1.2000e+02	-8.0581	84.408434	0.000659	6.588843	2.232360	-0.000264
1208	1.2010e+02	-8.0821	84.073352	0.000841	8.413446	2.850553	-0.000337
1209	1.2020e+02	-8.1335	83.778641	0.000740	7.399777	2.507112	-0.000296
1210	1.2030e+02	-8.1704	83.435484	0.000862	8.616179	2.919241	-0.000345
1211	1.2039e+02	-8.2089	83.205368	0.000578	5.777908	1.957608	-0.000231
1212	1.2049e+02	-8.2474	82.870285	0.000841	8.413446	2.850553	-0.000337
1213	1.2059e+02	-8.2843	82.587686	0.000710	7.095677	2.404080	-0.000284
1214	1.2069e+02	-8.3308	82.292975	0.000740	7.399777	2.507112	-0.000296
1215	1.2079e+02	-8.3661	81.953855	0.000851	8.514812	2.884897	-0.000341
1216	1.2089e+02	-8.4078	81.618773	0.000841	8.413446	2.850553	-0.000337
1217	1.2099e+02	-8.4447	81.380582	0.000598	5.980642	2.026296	-0.000239
1218	1.2109e+02	-8.4896	81.065686	0.000791	7.906612	2.678832	-0.000316
1219	1.2119e+02	-8.5265	80.754826	0.000781	7.805245	2.644488	-0.000312
1220	1.2129e+02	-8.5682	80.460115	0.000740	7.399777	2.507112	-0.000296
1221	1.2139e+02	-8.6051	80.173479	0.000720	7.197044	2.438424	-0.000288
1222	1.2149e+02	-8.6372	79.902991	0.000679	6.791577	2.301048	-0.000272
1223	1.2159e+02	-8.6885	79.612317	0.000730	7.298411	2.472768	-0.000292
1224	1.2169e+02	-8.7270	79.277234	0.000841	8.413446	2.850553	-0.000337
1225	1.2179e+02	-8.7671	78.998672	0.000699	6.994310	2.369736	-0.000280
1226	1.2189e+02	-8.8056	78.679738	0.000801	8.007978	2.713177	-0.000321
1227	1.2199e+02	-8.8425	78.433473	0.000618	6.183376	2.094984	-0.000248
1228	1.2209e+02	-8.8794	78.094354	0.000851	8.514812	2.884897	-0.000341
1229	1.2219e+02	-8.9227	77.819828	0.000689	6.892943	2.335392	-0.000276
1230	1.2229e+02	-8.9564	77.496858	0.000811	8.109345	2.747521	-0.000325
1231	1.2239e+02	-8.9997	77.254629	0.000608	6.082009	2.060640	-0.000243
1232	1.2248e+02	-9.0399	76.980104	0.000689	6.892943	2.335392	-0.000276
1233	1.2258e+02	-9.0864	76.608688	0.000933	9.325747	3.159649	-0.000373
1234	1.2268e+02	-9.1120	76.350311	0.000649	6.487476	2.198016	-0.000260
1235	1.2278e+02	-9.1666	76.023303	0.000821	8.210712	2.781865	-0.000329
1236	1.2288e+02	-9.2003	75.768964	0.000639	6.386109	2.163672	-0.000256
1237	1.2298e+02	-9.2420	75.474253	0.000740	7.399777	2.507112	-0.000296
1238	1.2308e+02	-9.2773	75.147245	0.000821	8.210712	2.781865	-0.000329
1239	1.2318e+02	-9.3190	74.876757	0.000679	6.791577	2.301048	-0.000272
1240	1.2328e+02	-9.3639	74.598194	0.000699	6.994310	2.369736	-0.000280
1241	1.2338e+02	-9.4008	74.307520	0.000730	7.298411	2.472768	-0.000292
1242	1.2348e+02	-9.4521	73.996661	0.000781	7.805245	2.644488	-0.000312
1243	1.2358e+02	-9.4842	73.742321	0.000639	6.386109	2.163672	-0.000256
1244	1.2368e+02	-9.5243	73.423388	0.000801	8.007978	2.713177	-0.000321
1245	1.2378e+02	-9.5612	73.132714	0.000730	7.298411	2.472768	-0.000292
1246	1.2388e+02	-9.6078	72.878374	0.000639	6.386109	2.163672	-0.000256
1247	1.2398e+02	-9.6446	72.571552	0.000770	7.703878	2.610144	-0.000308
1248	1.2408e+02	-9.6831	72.256655	0.000791	7.906612	2.678832	-0.000316
1249	1.2418e+02	-9.7329	71.990204	0.000669	6.690210	2.266704	-0.000268
1250	1.2428e+02	-9.7521	71.715679	0.000689	6.892943	2.335392	-0.000276
1251	1.2438e+02	-9.8067	71.396746	0.000801	8.007978	2.713177	-0.000321
1252	1.2447e+02	-9.8339	71.158555	0.000598	5.980642	2.026296	-0.000239
1253	1.2457e+02	-9.8853	70.851732	0.000770	7.703878	2.610144	-0.000308
1254	1.2467e+02	-9.9158	70.581244	0.000679	6.791577	2.301048	-0.000272
1255	1.2477e+02	-9.9591	70.314793	0.000669	6.690210	2.266704	-0.000268
1256	1.2487e+02	-9.9896	70.016045	0.000750	7.501144	2.541456	-0.000300
1257	1.2497e+02	-10.0361	69.705186	0.000781	7.805245	2.644488	-0.000312
1258	1.2507e+02	-10.0730	69.402400	0.000760	7.602511	2.575800	-0.000304
1259	1.2517e+02	-10.1163	69.103652	0.000750	7.501144	2.541456	-0.000300
1260	1.2527e+02	-10.1644	68.829127	0.000689	6.892943	2.335392	-0.000276
1261	1.2537e+02	-10.1933	68.578825	0.000628	6.284742	2.129328	-0.000252
1262	1.2547e+02	-10.2382	68.263928	0.000791	7.906612	2.678832	-0.000316
1263	1.2557e+02	-10.2847	67.981329	0.000710	7.095677	2.404080	-0.000284
1264	1.2567e+02	-10.3216	67.678544	0.000760	7.602511	2.575800	-0.000304
1265	1.2577e+02	-10.3505	67.387870	0.000730	7.298411	2.472768	-0.000292
1266	1.2587e+02	-10.3970	67.064899	0.000811	8.109345	2.747521	-0.000325
1267	1.2597e+02	-10.4420	66.774225	0.000730	7.298411	2.472768	-0.000292
1268	1.2607e+02	-10.4821	66.467403	0.000770	7.703878	2.610144	-0.000308
1269	1.2617e+02	-10.5141	66.148469	0.000801	8.007978	2.713177	-0.000321
1270	1.2627e+02	-10.5542	65.914315	0.000588	5.879275	1.991952	-0.000235
1271	1.2636e+02	-10.5911	65.591344	0.000811	8.109345	2.747521	-0.000325
1272	1.2646e+02	-10.6345	65.232039	0.000902	9.021646	3.056617	-0.000361
1273	1.2656e+02	-10.6842	64.957514	0.000689	6.892943	2.335392	-0.000276
1274	1.2666e+02	-10.7259	64.638580	0.000801	8.007978	2.713177	-0.000321
1275	1.2676e+02	-10.7564	64.275238	0.000912	9.123013	3.090961	-0.000365
1276	1.2686e+02	-10.7965	63.960341	0.000791	7.906612	2.678832	-0.000316
1277	1.2696e+02	-10.8366	63.665631	0.000740	7.399777	2.507112	-0.000296
1278	1.2706e+02	-10.8751	63.334585	0.000831	8.312079	2.816209	-0.000333
1279	1.2716e+02	-10.9168	63.035837	0.000750	7.501144	2.541456	-0.000300
1280	1.2726e+02	-10.9521	62.668458	0.000922	9.224380	3.125305	-0.000369
1281	1.2736e+02	-11.0002	62.341450	0.000821	8.210712	2.781865	-0.000329
1282	1.2746e+02	-11.0403	62.030591	0.000781	7.805245	2.644488	-0.000312
1283	1.2756e+02	-11.0740	61.679360	0.000882	8.818913	2.987929	-0.000353
1284	1.2766e+02	-11.1125	61.336203	0.000862	8.616179	2.919241	-0.000345
1285	1.2776e+02	-11.1558	60.960750	0.000943	9.427114	3.193993	-0.000377
1286	1.2786e+02	-11.1847	60.645853	0.000791	7.906612	2.678832	-0.000316
1287	1.2796e+02	-11.2328	60.282511	0.000912	9.123013	3.090961	-0.000365
1288	1.2806e+02	-11.2762	60.012023	0.000679	6.791577	2.301048	-0.000272
1289	1.2816e+02	-11.3211	59.567938	0.001115	11.150350	3.777841	-0.000446
1290	1.2826e+02	-11.3532	59.240930	0.000821	8.210712	2.781865	-0.000329
1291	1.2835e+02	-11.3868	58.881625	0.000902	9.021646	3.056617	-0.000361
1292	1.2845e+02	-11.4382	58.538468	0.000862	8.616179	2.919241	-0.000345
1293	1.2855e+02	-11.4719	58.167052	0.000933	9.325747	3.159649	-0.000373
1294	1.2865e+02	-11.5168	57.747190	0.001054	10.542149	3.571777	-0.000422
1295	1.2875e+02	-11.5505	57.412107	0.000841	8.413446	2.850553	-0.000337
1296	1.2885e+02	-11.5970	57.072988	0.000851	8.514812	2.884897	-0.000341
1297	1.2895e+02	-11.6371	56.681386	0.000983	9.832581	3.331369	-0.000394
1298	1.2905e+02	-11.6740	56.285746	0.000993	9.933948	3.365713	-0.000398
1299	1.2915e+02	-11.7173	55.914330	0.000933	9.325747	3.159649	-0.000373
1300	1.2925e+02	-11.7494	55.559062	0.000892	8.920280	3.022273	-0.000357
1301	1.2935e+02	-11.7895	55.143237	0.001044	10.440782	3.537433	-0.000418
1302	1.2945e+02	-11.8296	54.711264	0.001085	10.846249	3.674809	-0.000434
1303	1.2955e+02	-11.8729	54.327736	0.000963	9.629847	3.262681	-0.000385
1304	1.2965e+02	-11.9066	53.952282	0.000943	9.427114	3.193993	-0.000377
1305	1.2975e+02	-11.9531	53.520308	0.001085	10.846249	3.674809	-0.000434
1306	1.2985e+02	-11.9948	53.108521	0.001034	10.339415	3.503089	-0.000414
1307	1.2995e+02	-12.0334	52.700770	0.001024	10.238048	3.468745	-0.000410
1308	1.3005e+02	-12.0670	52.305131	0.000993	9.933948	3.365713	-0.000398
1309	1.3015e+02	-12.1087	51.861046	0.001115	11.150350	3.777841	-0.000446
1310	1.3025e+02	-12.1569	51.429072	0.001085	10.846249	3.674809	-0.000434
1311	1.3034e+02	-12.1954	51.069767	0.000902	9.021646	3.056617	-0.000361
1312	1.3044e+02	-12.2291	50.581274	0.001227	12.265385	4.155625	-0.000491
1313	1.3054e+02	-12.2756	50.189671	0.000983	9.832581	3.331369	-0.000394
1314	1.3064e+02	-12.3221	49.769809	0.001054	10.542149	3.571777	-0.000422
1315	1.3074e+02	-12.3510	49.265167	0.001267	12.670852	4.293001	-0.000507
1316	1.3084e+02	-12.4039	48.829157	0.001095	10.947616	3.709153	-0.000438
1317	1.3094e+02	-12.4360	48.417369	0.001034	10.339415	3.503089	-0.000414
1318	1.3104e+02	-12.4713	47.953098	0.001166	11.657184	3.949561	-0.000467
1319	1.3114e+02	-12.5034	47.452493	0.001257	12.569485	4.258657	-0.000503
1320	1.3124e+02	-12.5483	47.032631	0.001054	10.542149	3.571777	-0.000422
1321	1.3134e+02	-12.5900	46.548175	0.001216	12.164018	4.121281	-0.000487
1322	1.3144e+02	-12.6301	46.083904	0.001166	11.657184	3.949561	-0.000467
1323	1.3154e+02	-12.6654	45.619634	0.001166	11.657184	3.949561	-0.000467
1324	1.3164e+02	-12.7087	45.143252	0.001196	11.961284	4.052593	-0.000479
1325	1.3174e+02	-12.7520	44.658796	0.001216	12.164018	4.121281	-0.000487
1326	1.3184e+02	-12.7905	44.166265	0.001237	12.366751	4.189969	-0.000495
1327	1.3194e+02	-12.8290	43.693920	0.001186	11.859917	4.018249	-0.000475
1328	1.3204e+02	-12.8756	43.201390	0.001237	12.366751	4.189969	-0.000495
1329	1.3214e+02	-12.9061	42.704822	0.001247	12.468118	4.224313	-0.000499
1330	1.3224e+02	-12.9462	42.232477	0.001186	11.859917	4.018249	-0.000475
1331	1.3234e+02	-12.9798	41.671315	0.001409	14.089987	4.773817	-0.000564
1332	1.3243e+02	-13.0296	41.219156	0.001135	11.353083	3.846529	-0.000454
1333	1.3253e+02	-13.0649	40.653957	0.001419	14.191354	4.808161	-0.000568
1334	1.3263e+02	-13.1034	40.153352	0.001257	12.569485	4.258657	-0.000503
1335	1.3273e+02	-13.1403	39.628524	0.001318	13.177686	4.464721	-0.000527
1336	1.3283e+02	-13.1788	39.083511	0.001368	13.684520	4.636441	-0.000548
1337	1.3293e+02	-13.2269	38.534461	0.001379	13.785887	4.670785	-0.000552
1338	1.3303e+02	-13.2702	37.969262	0.001419	14.191354	4.808161	-0.000568
1339	1.3313e+02	-13.3055	37.412137	0.001399	13.988620	4.739473	-0.000560
1340	1.3323e+02	-13.3488	36.867124	0.001368	13.684520	4.636441	-0.000548
1341	1.3333e+02	-13.3921	36.334222	0.001338	13.380419	4.533409	-0.000536
1342	1.3343e+02	-13.4226	35.748837	0.001470	14.698188	4.979881	-0.000588
1343	1.3353e+02	-13.4691	35.191712	0.001399	13.988620	4.739473	-0.000560
1344	1.3363e+02	-13.5012	34.610365	0.001460	14.596821	4.945537	-0.000584
1345	1.3373e+02	-13.5461	33.996720	0.001541	15.407756	5.220289	-0.000617
1346	1.3383e+02	-13.5846	33.415373	0.001460	14.596821	4.945537	-0.000584
1347	1.3393e+02	-13.6296	32.809802	0.001521	15.205022	5.151601	-0.000609
1348	1.3403e+02	-13.6584	32.216343	0.001490	14.900922	5.048569	-0.000596
1349	1.3413e+02	-13.7114	31.606736	0.001531	15.306389	5.185945	-0.000613
1350	1.3423e+02	-13.7483	30.980980	0.001571	15.711856	5.323321	-0.000629
1351	1.3432e+02	-13.7852	30.383484	0.001500	15.002288	5.082913	-0.000600
1352	1.3442e+02	-13.8301	29.749653	0.001591	15.914590	5.392009	-0.000637
1353	1.3452e+02	-13.8750	29.111786	0.001602	16.015957	5.426353	-0.000641
1354	1.3462e+02	-13.9023	28.514290	0.001500	15.002288	5.082913	-0.000600
1355	1.3472e+02	-13.9472	27.836051	0.001703	17.029625	5.769793	-0.000682
1356	1.3482e+02	-13.9761	27.218369	0.001551	15.509123	5.254633	-0.000621
1357	1.3492e+02	-14.0274	26.515908	0.001764	17.637826	5.975857	-0.000706
1358	1.3502e+02	-14.0563	25.861892	0.001642	16.421424	5.563729	-0.000657
1359	1.3512e+02	-14.0948	25.240173	0.001561	15.610489	5.288977	-0.000625
1360	1.3522e+02	-14.1461	24.517525	0.001814	18.144660	6.147577	-0.000726
1361	1.3532e+02	-14.1926	23.827175	0.001733	17.333725	5.872825	-0.000694
1362	1.3542e+02	-14.2183	23.169122	0.001652	16.522791	5.598073	-0.000661
1363	1.3552e+02	-14.2680	22.450512	0.001804	18.043293	6.113233	-0.000722
1364	1.3562e+02	-14.3017	21.760162	0.001733	17.333725	5.872825	-0.000694
1365	1.3572e+02	-14.3402	21.065774	0.001744	17.435092	5.907169	-0.000698
1366	1.3582e+02	-14.3787	20.335053	0.001835	18.347393	6.216265	-0.000734
1367	1.3592e+02	-14.4221	19.588183	0.001875	18.752861	6.353641	-0.000751
1368	1.3602e+02	-14.4573	18.869572	0.001804	18.043293	6.113233	-0.000722
1369	1.3612e+02	-14.5071	18.110591	0.001906	19.056961	6.456673	-0.000763
1370	1.3622e+02	-14.5376	17.416204	0.001744	17.435092	5.907169	-0.000698
1371	1.3631e+02	-14.5729	16.612814	0.002017	20.171996	6.834457	-0.000807
1372	1.3641e+02	-14.6162	15.829609	0.001967	19.665162	6.662737	-0.000787
1373	1.3651e+02	-14.6579	15.082739	0.001875	18.752861	6.353641	-0.000751
1374	1.3661e+02	-14.6996	14.311646	0.001936	19.361061	6.559705	-0.000775
1375	1.3671e+02	-14.7365	13.532479	0.001956	19.563795	6.628393	-0.000783
1376	1.3681e+02	-14.7718	12.741200	0.001987	19.867896	6.731425	-0.000795
1377	1.3691e+02	-14.8231	11.945885	0.001997	19.969262	6.765769	-0.000799
1378	1.3701e+02	-14.8648	11.126346	0.002058	20.577463	6.971833	-0.000824
1379	1.3711e+02	-14.9033	10.286622	0.002108	21.084297	7.143553	-0.000844
1380	1.3721e+02	-14.9338	9.438823	0.002129	21.287031	7.212241	-0.000852
1381	1.3731e+02	-14.9739	8.611211	0.002078	20.780197	7.040521	-0.000832
1382	1.3741e+02	-15.0268	7.771486	0.002108	21.084297	7.143553	-0.000844
1383	1.3751e+02	-15.0621	6.903502	0.002179	21.793865	7.383961	-0.000872
1384	1.3761e+02	-15.0974	6.003221	0.002260	22.604800	7.658713	-0.000905
1385	1.3771e+02	-15.1488	5.175608	0.002078	20.780197	7.040521	-0.000832
1386	1.3781e+02	-15.1841	4.303587	0.002190	21.895232	7.418305	-0.000876
1387	1.3791e+02	-15.2226	3.403305	0.002260	22.604800	7.658713	-0.000905
1388	1.3801e+02	-15.2498	2.511098	0.002240	22.402066	7.590025	-0.000897
1389	1.3811e+02	-15.3028	1.570446	0.002362	23.618468	8.002153	-0.000945
1390	1.3821e+02	-15.3493	0.662090	0.002281	22.807533	7.727401	-0.000913
1391	1.3831e+02	-15.3814	-0.270488	0.002342	23.415734	7.933465	-0.000937
1392	1.3840e+02	-15.4183	-1.223252	0.002392	23.922568	8.105185	-0.000958
1393	1.3850e+02	-15.4616	-2.184090	0.002413	24.125302	8.173874	-0.000966
1394	1.3860e+02	-15.5129	-3.132817	0.002382	23.821201	8.070841	-0.000953
1395	1.3870e+02	-15.5338	-4.089619	0.002402	24.023935	8.139530	-0.000962
1396	1.3880e+02	-15.5803	-5.074680	0.002473	24.733503	8.379938	-0.000990
1397	1.3890e+02	-15.6172	-6.092038	0.002554	25.544437	8.654690	-0.001022
1398	1.3900e+02	-15.6621	-7.073062	0.002463	24.632136	8.345594	-0.000986
1399	1.3910e+02	-15.7038	-8.062160	0.002483	24.834869	8.414282	-0.000994
1400	1.3920e+02	-15.7311	-9.136038	0.002696	26.963573	9.135506	-0.001079
1401	1.3930e+02	-15.7824	-10.169545	0.002595	25.949904	8.792066	-0.001039
1402	1.3940e+02	-15.8225	-11.219200	0.002636	26.355372	8.929442	-0.001055
1403	1.3950e+02	-15.8643	-12.240596	0.002565	25.645804	8.689034	-0.001027
1404	1.3960e+02	-15.9076	-13.326585	0.002727	27.267673	9.238538	-0.001091
1405	1.3970e+02	-15.9461	-14.392389	0.002676	26.760839	9.066818	-0.001071
1406	1.3980e+02	-15.9766	-15.494527	0.002767	27.673140	9.375914	-0.001108
1407	1.3990e+02	-16.0102	-16.588591	0.002747	27.470407	9.307226	-0.001100
1408	1.4000e+02	-16.0536	-17.723026	0.002848	28.484075	9.650666	-0.001140
1409	1.4010e+02	-16.1017	-18.853424	0.002838	28.382708	9.616322	-0.001136
1410	1.4020e+02	-16.1386	-19.951525	0.002757	27.571773	9.341570	-0.001104
1411	1.4029e+02	-16.1771	-21.134406	0.002970	29.700477	10.062794	-0.001189
1412	1.4039e+02	-16.2172	-22.301138	0.002930	29.295009	9.925418	-0.001173
1413	1.4049e+02	-16.2493	-23.431536	0.002838	28.382708	9.616322	-0.001136
1414	1.4059e+02	-16.3038	-24.679011	0.003132	31.322346	10.612298	-0.001254
1415	1.4069e+02	-16.3343	-25.878040	0.003011	30.105944	10.200170	-0.001205
1416	1.4079e+02	-16.3808	-27.093218	0.003051	30.511411	10.337546	-0.001221
1417	1.4089e+02	-16.4193	-28.259950	0.002930	29.295009	9.925418	-0.001173
1418	1.4099e+02	-16.4514	-29.535685	0.003203	32.031913	10.852706	-0.001282
1419	1.4109e+02	-16.4915	-30.811420	0.003203	32.031913	10.852706	-0.001282
1420	1.4119e+02	-16.5332	-32.099266	0.003234	32.336014	10.955738	-0.001294
1421	1.4129e+02	-16.5733	-33.298296	0.003011	30.105944	10.200170	-0.001205
1422	1.4139e+02	-16.6215	-34.638625	0.003365	33.653782	11.402210	-0.001347
1423	1.4149e+02	-16.6600	-35.954731	0.003305	33.045581	11.196146	-0.001323
1424	1.4159e+02	-16.7033	-37.250651	0.003254	32.538747	11.024426	-0.001302
1425	1.4169e+02	-16.7321	-38.546572	0.003254	32.538747	11.024426	-0.001302
1426	1.4179e+02	-16.7706	-39.919198	0.003446	34.464717	11.676962	-0.001380
1427	1.4189e+02	-16.8172	-41.307973	0.003487	34.870184	11.814338	-0.001396
1428	1.4199e+02	-16.8525	-42.648302	0.003365	33.653782	11.402210	-0.001347
1429	1.4209e+02	-16.8974	-44.065337	0.003558	35.579752	12.054746	-0.001424
1430	1.4219e+02	-16.9343	-45.490445	0.003578	35.782485	12.123434	-0.001432
1431	1.4228e+02	-16.9616	-46.931703	0.003619	36.187953	12.260810	-0.001448
1432	1.4238e+02	-17.0129	-48.288181	0.003406	34.059250	11.539586	-0.001363
1433	1.4248e+02	-17.0578	-49.737512	0.003639	36.390686	12.329498	-0.001457
1434	1.4258e+02	-17.0867	-51.247401	0.003791	37.911188	12.844658	-0.001517
1435	1.4268e+02	-17.1380	-52.777476	0.003842	38.418023	13.016378	-0.001538
1436	1.4278e+02	-17.1669	-54.271216	0.003751	37.505721	12.707282	-0.001501
1437	1.4288e+02	-17.2182	-55.793216	0.003822	38.215289	12.947690	-0.001530
1438	1.4298e+02	-17.2455	-57.351550	0.003913	39.127590	13.256786	-0.001566
1439	1.4308e+02	-17.3017	-58.881625	0.003842	38.418023	13.016378	-0.001538
1440	1.4318e+02	-17.3225	-60.472256	0.003994	39.938525	13.531538	-0.001599
1441	1.4328e+02	-17.3738	-62.066925	0.004004	40.039892	13.565883	-0.001603
1442	1.4338e+02	-17.4075	-63.673705	0.004034	40.343992	13.668915	-0.001615
1443	1.4348e+02	-17.4492	-65.308745	0.004105	41.053560	13.909323	-0.001643
1444	1.4358e+02	-17.4893	-66.959933	0.004146	41.459027	14.046699	-0.001659
1445	1.4368e+02	-17.5278	-68.619196	0.004166	41.661761	14.115387	-0.001668
1446	1.4378e+02	-17.5760	-70.274422	0.004156	41.560394	14.081043	-0.001664
1447	1.4388e+02	-17.6145	-72.018464	0.004379	43.790464	14.836611	-0.001753
1448	1.4398e+02	-17.6482	-73.722136	0.004278	42.776796	14.493171	-0.001712
1449	1.4408e+02	-17.6947	-75.454067	0.004349	43.486363	14.733579	-0.001741
1450	1.4418e+02	-17.7380	-77.210221	0.004409	44.094564	14.939643	-0.001765
1451	1.4428e+02	-17.7685	-78.970412	0.004420	44.195931	14.973987	-0.001769
1452	1.4437e+02	-17.8198	-80.811346	0.004622	46.223267	15.660867	-0.001850
1453	1.4447e+02	-17.8535	-82.692651	0.004724	47.236935	16.004307	-0.001891
1454	1.4457e+02	-17.8920	-84.509362	0.004562	45.615066	15.454803	-0.001826
1455	1.4467e+02	-17.9337	-86.358371	0.004643	46.426001	15.729555	-0.001858
1456	1.4477e+02	-17.9706	-88.247750	0.004744	47.439669	16.072995	-0.001899
1457	1.4487e+02	-18.0155	-90.165390	0.004815	48.149237	16.313403	-0.001927
1458	1.4497e+02	-18.0508	-92.091103	0.004835	48.351970	16.382091	-0.001935
1459	1.4507e+02	-18.1006	-94.004706	0.004805	48.047870	16.279059	-0.001923
1460	1.4517e+02	-18.1262	-96.019236	0.005058	50.582040	17.137659	-0.002025
1461	1.4527e+02	-18.1663	-97.997433	0.004967	49.669739	16.828563	-0.001988
1462	1.4537e+02	-18.2145	-100.048298	0.005149	51.494342	17.446755	-0.002061
1463	1.4547e+02	-18.2481	-102.046680	0.005018	50.176573	17.000283	-0.002008
1464	1.4557e+02	-18.2899	-104.137916	0.005251	52.508010	17.790195	-0.002102
1465	1.4567e+02	-18.3268	-106.221078	0.005231	52.305276	17.721507	-0.002094
1466	1.4577e+02	-18.3669	-108.304240	0.005231	52.305276	17.721507	-0.002094
1467	1.4587e+02	-18.4086	-110.468145	0.005433	54.332612	18.408387	-0.002175
1468	1.4597e+02	-18.4503	-112.599753	0.005352	53.521678	18.133635	-0.002142
1469	1.4607e+02	-18.4840	-114.840363	0.005626	56.258582	19.060924	-0.002252
1470	1.4617e+02	-18.5257	-116.992157	0.005403	54.028512	18.305355	-0.002163
1471	1.4626e+02	-18.5722	-119.261027	0.005697	56.968150	19.301332	-0.002280
1472	1.4636e+02	-18.6107	-121.525860	0.005687	56.866783	19.266988	-0.002276
1473	1.4646e+02	-18.6524	-123.778582	0.005656	56.562682	19.163956	-0.002264
1474	1.4656e+02	-18.6925	-126.132232	0.005910	59.096853	20.022556	-0.002365
1475	1.4666e+02	-18.7198	-128.493956	0.005930	59.299586	20.091244	-0.002374
1476	1.4676e+02	-18.7679	-130.827421	0.005859	58.590019	19.850836	-0.002345
1477	1.4686e+02	-18.7984	-133.229516	0.006031	60.313254	20.434684	-0.002414
1478	1.4696e+02	-18.8417	-135.615464	0.005991	59.907787	20.297308	-0.002398
1479	1.4706e+02	-18.8930	-138.090228	0.006214	62.137857	21.052876	-0.002487
1480	1.4716e+02	-18.9267	-140.605363	0.006315	63.151525	21.396316	-0.002528
1481	1.4726e+02	-18.9684	-143.112425	0.006295	62.948792	21.327628	-0.002520
1482	1.4736e+02	-18.9941	-145.631597	0.006325	63.252892	21.430660	-0.002532
1483	1.4746e+02	-19.0519	-148.199216	0.006447	64.469294	21.842788	-0.002581
1484	1.4756e+02	-19.0840	-150.782983	0.006487	64.874761	21.980164	-0.002597
1485	1.4766e+02	-19.1209	-153.395010	0.006558	65.584329	22.220572	-0.002625
1486	1.4776e+02	-19.1658	-156.095853	0.006781	67.814399	22.976140	-0.002714
1487	1.4786e+02	-19.2155	-158.820920	0.006842	68.422600	23.182204	-0.002739
1488	1.4796e+02	-19.2540	-161.497541	0.006721	67.206198	22.770076	-0.002690
1489	1.4806e+02	-19.2813	-164.258942	0.006933	69.334901	23.491300	-0.002775
1490	1.4816e+02	-19.3230	-167.068788	0.007055	70.551303	23.903428	-0.002824
1491	1.4825e+02	-19.3583	-169.854412	0.006994	69.943102	23.697364	-0.002800
1492	1.4835e+02	-19.4128	-172.696555	0.007136	71.362237	24.178180	-0.002856
1493	1.4845e+02	-19.4465	-175.534662	0.007126	71.260870	24.143836	-0.002852
1494	1.4855e+02	-19.4834	-178.473697	0.007380	73.795041	25.002437	-0.002954
1495	1.4865e+02	-19.5235	-181.416769	0.007390	73.896407	25.036781	-0.002958
1496	1.4875e+02	-19.5588	-184.408286	0.007511	75.112809	25.448909	-0.003007
1497	1.4885e+02	-19.5941	-187.428064	0.007582	75.822377	25.689317	-0.003035
1498	1.4895e+02	-19.6454	-190.447841	0.007582	75.822377	25.689317	-0.003035
1499	1.4905e+02	-19.6791	-193.588733	0.007886	78.863381	26.719637	-0.003157
1500	1.4915e+02	-19.7256	-196.693290	0.007795	77.951080	26.410541	-0.003120
1501	1.4925e+02	-19.7529	-199.834182	0.007886	78.863381	26.719637	-0.003157
1502	1.4935e+02	-19.8059	-203.051779	0.008079	80.789351	27.372173	-0.003234
1503	1.4945e+02	-19.8492	-206.224968	0.007967	79.674316	26.994389	-0.003189
1504	1.4955e+02	-19.8813	-209.511196	0.008251	82.512587	27.956021	-0.003303
1505	1.4965e+02	-19.9198	-212.761091	0.008160	81.600285	27.646925	-0.003266
1506	1.4975e+02	-19.9567	-216.148247	0.008505	85.046757	28.814621	-0.003404
1507	1.4985e+02	-19.9952	-219.527330	0.008484	84.844023	28.745933	-0.003396
1508	1.4995e+02	-19.9631	-222.349288	-0.007086	-70.855403	-24.006460	-0.002836
1509	1.5005e+02	-19.9214	-225.033983	-0.006741	-67.408931	-22.838764	-0.002698
1510	1.5015e+02	-19.8877	-227.436079	-0.006031	-60.313254	-20.434684	-0.002414
1511	1.5025e+02	-19.8379	-229.797803	-0.005930	-59.299586	-20.091244	-0.002374
1512	1.5034e+02	-19.8026	-231.965745	-0.005443	-54.433979	-18.442731	-0.002179
1513	1.5044e+02	-19.7561	-234.044870	-0.005220	-52.203909	-17.687163	-0.002090
1514	1.5054e+02	-19.7192	-235.986732	-0.004876	-48.757438	-16.519467	-0.001952
1515	1.5064e+02	-19.6695	-237.839778	-0.004653	-46.527368	-15.763899	-0.001862
1516	1.5074e+02	-19.6422	-239.539412	-0.004268	-42.675429	-14.458827	-0.001708
1517	1.5084e+02	-19.6005	-241.251157	-0.004298	-42.979529	-14.561859	-0.001720
1518	1.5094e+02	-19.5620	-242.861975	-0.004045	-40.445359	-13.703259	-0.001619
1519	1.5104e+02	-19.5299	-244.355715	-0.003751	-37.505721	-12.707282	-0.001501
1520	1.5114e+02	-19.4754	-245.784861	-0.003588	-35.883852	-12.157778	-0.001436
1521	1.5124e+02	-19.4513	-247.109041	-0.003325	-33.248315	-11.264834	-0.001331
1522	1.5134e+02	-19.4000	-248.408999	-0.003264	-32.640114	-11.058770	-0.001306
1523	1.5144e+02	-19.3631	-249.640325	-0.003092	-30.916878	-10.474922	-0.001238
1524	1.5154e+02	-19.3214	-250.794946	-0.002899	-28.990909	-9.822386	-0.001160
1525	1.5164e+02	-19.2909	-251.889010	-0.002747	-27.470407	-9.307226	-0.001100
1526	1.5174e+02	-19.2492	-252.942703	-0.002646	-26.456738	-8.963786	-0.001059
1527	1.5184e+02	-19.2091	-253.964098	-0.002565	-25.645804	-8.689034	-0.001027
1528	1.5194e+02	-19.1690	-254.896676	-0.002342	-23.415734	-7.933465	-0.000937
1529	1.5204e+02	-19.1241	-255.736400	-0.002108	-21.084297	-7.143553	-0.000844
1530	1.5214e+02	-19.0888	-256.588236	-0.002139	-21.388398	-7.246585	-0.000856
1531	1.5224e+02	-19.0455	-257.383552	-0.001997	-19.969262	-6.765769	-0.000799
1532	1.5233e+02	-19.0070	-258.215202	-0.002088	-20.881564	-7.074865	-0.000836
1533	1.5243e+02	-18.9652	-258.885366	-0.001683	-16.826891	-5.701105	-0.000674
1534	1.5253e+02	-18.9267	-259.575717	-0.001733	-17.333725	-5.872825	-0.000694
1535	1.5263e+02	-18.8850	-260.237807	-0.001662	-16.624158	-5.632417	-0.000665
1536	1.5273e+02	-18.8481	-260.835303	-0.001500	-15.002288	-5.082913	-0.000600
1537	1.5283e+02	-18.8080	-261.372242	-0.001348	-13.481786	-4.567753	-0.000540
1538	1.5293e+02	-18.7647	-261.925330	-0.001389	-13.887254	-4.705129	-0.000556
1539	1.5303e+02	-18.7278	-262.466306	-0.001358	-13.583153	-4.602097	-0.000544
1540	1.5313e+02	-18.6909	-262.922502	-0.001145	-11.454450	-3.880873	-0.000458
1541	1.5323e+02	-18.6540	-263.439255	-0.001297	-12.974952	-4.396033	-0.000519
1542	1.5333e+02	-18.5995	-263.810672	-0.000933	-9.325747	-3.159649	-0.000373
1543	1.5343e+02	-18.5658	-264.182088	-0.000933	-9.325747	-3.159649	-0.000373
1544	1.5353e+02	-18.5257	-264.597913	-0.001044	-10.440782	-3.537433	-0.000418
1545	1.5363e+02	-18.4824	-264.949144	-0.000882	-8.818913	-2.987929	-0.000353
1546	1.5373e+02	-18.4503	-265.264041	-0.000791	-7.906612	-2.678832	-0.000316
1547	1.5383e+02	-18.4054	-265.615272	-0.000882	-8.818913	-2.987929	-0.000353
1548	1.5393e+02	-18.3669	-265.861537	-0.000618	-6.183376	-2.094984	-0.000248
1549	1.5403e+02	-18.3316	-266.152211	-0.000730	-7.298411	-2.472768	-0.000292
1550	1.5413e+02	-18.2963	-266.345993	-0.000487	-4.865607	-1.648512	-0.000195
1551	1.5422e+02	-18.2481	-266.624556	-0.000699	-6.994310	-2.369736	-0.000280
1552	1.5432e+02	-18.2145	-266.822375	-0.000497	-4.966974	-1.682856	-0.000199
1553	1.5442e+02	-18.1776	-267.020195	-0.000497	-4.966974	-1.682856	-0.000199
1554	1.5452e+02	-18.1375	-267.218015	-0.000497	-4.966974	-1.682856	-0.000199
1555	1.5462e+02	-18.0925	-267.363351	-0.000365	-3.649205	-1.236384	-0.000146
1556	1.5472e+02	-18.0508	-267.484465	-0.000304	-3.041004	-1.030320	-0.000122
1557	1.5482e+02	-18.0187	-267.666137	-0.000456	-4.561507	-1.545480	-0.000183
1558	1.5492e+02	-17.9610	-267.767065	-0.000253	-2.534170	-0.858600	-0.000101
1559	1.5502e+02	-17.9337	-267.884142	-0.000294	-2.939638	-0.995976	-0.000118
1560	1.5512e+02	-17.8920	-267.972959	-0.000223	-2.230070	-0.755568	-0.000089
1561	1.5522e+02	-17.8471	-268.098110	-0.000314	-3.142371	-1.064664	-0.000126
1562	1.5532e+02	-17.8118	-268.118296	-0.000051	-0.506834	-0.171720	-0.000020
1563	1.5542e+02	-17.7717	-268.211150	-0.000233	-2.331437	-0.789912	-0.000093
1564	1.5552e+02	-17.7204	-268.308041	-0.000243	-2.432804	-0.824256	-0.000097
1565	1.5562e+02	-17.6931	-268.340338	-0.000081	-0.810935	-0.274752	-0.000032
1566	1.5572e+02	-17.6514	-268.344375	-0.000010	-0.101367	-0.034344	-0.000004
1567	1.5582e+02	-17.6209	-268.400895	-0.000142	-1.419135	-0.480816	-0.000057
1568	1.5592e+02	-17.5696	-268.425118	-0.000061	-0.608201	-0.206064	-0.000024
1569	1.5602e+02	-17.5295	-268.400895	0.000061	0.608201	0.206064	0.000024
1570	1.5612e+02	-17.4893	-268.421081	-0.000051	-0.506834	-0.171720	-0.000020
1571	1.5622e+02	-17.4573	-268.384747	0.000091	0.912301	0.309096	0.000037
1572	1.5631e+02	-17.4172	-268.376672	0.000020	0.202734	0.068688	0.000008
1573	1.5641e+02	-17.3754	-268.384747	-0.000020	-0.202734	-0.068688	-0.000008
1574	1.5651e+02	-17.3321	-268.316115	0.000172	1.723236	0.583848	0.000069
1575	1.5661e+02	-17.2856	-268.352450	-0.000091	-0.912301	-0.309096	-0.000037
1576	1.5671e+02	-17.2567	-268.295930	0.000142	1.419135	0.480816	0.000057
1577	1.5681e+02	-17.2070	-268.227298	0.000172	1.723236	0.583848	0.000069
1578	1.5691e+02	-17.1733	-268.170779	0.000142	1.419135	0.480816	0.000057
1579	1.5701e+02	-17.1396	-268.077924	0.000233	2.331437	0.789912	0.000093
1580	1.5711e+02	-17.0899	-268.057739	0.000051	0.506834	0.171720	0.000020
1581	1.5721e+02	-17.0482	-267.964885	0.000233	2.331437	0.789912	0.000093
1582	1.5731e+02	-17.0097	-267.940662	0.000061	0.608201	0.206064	0.000024
1583	1.5741e+02	-16.9664	-267.827622	0.000284	2.838271	0.961632	0.000114
1584	1.5751e+02	-16.9327	-267.763028	0.000162	1.621869	0.549504	0.000065
1585	1.5761e+02	-16.8990	-267.682285	0.000203	2.027336	0.686880	0.000081
1586	1.5771e+02	-16.8589	-267.589431	0.000233	2.331437	0.789912	0.000093
1587	1.5781e+02	-16.8043	-267.540985	0.000122	1.216402	0.412128	0.000049
1588	1.5791e+02	-16.7642	-267.371426	0.000426	4.257406	1.442448	0.000170
1589	1.5801e+02	-16.7434	-267.327017	0.000112	1.115035	0.377784	0.000045
1590	1.5811e+02	-16.6904	-267.205903	0.000304	3.041004	1.030320	0.000122
1591	1.5821e+02	-16.6455	-267.096900	0.000274	2.736904	0.927288	0.000110
1592	1.5830e+02	-16.6086	-266.983861	0.000284	2.838271	0.961632	0.000114
1593	1.5840e+02	-16.5701	-266.907155	0.000193	1.925969	0.652536	0.000077
1594	1.5850e+02	-16.5396	-266.782004	0.000314	3.142371	1.064664	0.000126
1595	1.5860e+02	-16.4931	-266.620518	0.000405	4.054673	1.373760	0.000162
1596	1.5870e+02	-16.4498	-266.515553	0.000264	2.635537	0.892944	0.000105
1597	1.5880e+02	-16.4081	-266.442884	0.000182	1.824603	0.618192	0.000073
1598	1.5890e+02	-16.3728	-266.289473	0.000385	3.851939	1.305072	0.000154
1599	1.5900e+02	-16.3343	-266.192582	0.000243	2.432804	0.824256	0.000097
1600	1.5910e+02	-16.2910	-266.059357	0.000335	3.345105	1.133352	0.000134
1601	1.5920e+02	-16.2557	-265.938242	0.000304	3.041004	1.030320	0.000122
1602	1.5930e+02	-16.2284	-265.764646	0.000436	4.358773	1.476792	0.000174
1603	1.5940e+02	-16.1723	-265.611234	0.000385	3.851939	1.305072	0.000154
1604	1.5950e+02	-16.1370	-265.502232	0.000274	2.736904	0.927288	0.000110
1605	1.5960e+02	-16.1049	-265.356895	0.000365	3.649205	1.236384	0.000146
1606	1.5970e+02	-16.0520	-265.223669	0.000335	3.345105	1.133352	0.000134
1607	1.5980e+02	-16.0167	-265.102555	0.000304	3.041004	1.030320	0.000122
1608	1.5990e+02	-15.9830	-264.949144	0.000385	3.851939	1.305072	0.000154
1609	1.6000e+02	-15.9348	-264.840142	0.000274	2.736904	0.927288	0.000110
1610	1.6010e+02	-15.9028	-264.767473	0.000182	1.824603	0.618192	0.000073
1611	1.6019e+02	-15.8627	-264.565616	0.000507	5.068341	1.717200	0.000203
1612	1.6029e+02	-15.8097	-264.436428	0.000324	3.243738	1.099008	0.000130
1613	1.6039e+02	-15.7792	-264.319351	0.000294	2.939638	0.995976	0.000118
1614	1.6049e+02	-15.7423	-264.153828	0.000416	4.156039	1.408104	0.000166
1615	1.6059e+02	-15.7006	-264.012529	0.000355	3.547838	1.202040	0.000142
1616	1.6069e+02	-15.6541	-263.903526	0.000274	2.736904	0.927288	0.000110
1617	1.6079e+02	-15.6156	-263.697632	0.000517	5.169708	1.751544	0.000207
1618	1.6089e+02	-15.5755	-263.564407	0.000335	3.345105	1.133352	0.000134
1619	1.6099e+02	-15.5354	-263.419070	0.000365	3.649205	1.236384	0.000146
1620	1.6109e+02	-15.4969	-263.297956	0.000304	3.041004	1.030320	0.000122
1621	1.6119e+02	-15.4568	-263.132433	0.000416	4.156039	1.408104	0.000166
1622	1.6129e+02	-15.4327	-262.950762	0.000456	4.561507	1.545480	0.000183
1623	1.6139e+02	-15.3702	-262.825611	0.000314	3.142371	1.064664	0.000126
1624	1.6149e+02	-15.3413	-262.680274	0.000365	3.649205	1.236384	0.000146
1625	1.6159e+02	-15.3060	-262.551086	0.000324	3.243738	1.099008	0.000130
1626	1.6169e+02	-15.2546	-262.377489	0.000436	4.358773	1.476792	0.000174
1627	1.6179e+02	-15.2178	-262.211966	0.000416	4.156039	1.408104	0.000166
1628	1.6189e+02	-15.1825	-262.046444	0.000416	4.156039	1.408104	0.000166
1629	1.6199e+02	-15.1520	-261.945515	0.000253	2.534170	0.858600	0.000101
1630	1.6209e+02	-15.1006	-261.800178	0.000365	3.649205	1.236384	0.000146
1631	1.6219e+02	-15.0589	-261.602359	0.000497	4.966974	1.682856	0.000199
1632	1.6228e+02	-15.0220	-261.440873	0.000405	4.054673	1.373760	0.000162
1633	1.6238e+02	-14.9723	-261.251128	0.000476	4.764240	1.614168	0.000191
1634	1.6248e+02	-14.9466	-261.081568	0.000426	4.257406	1.442448	0.000170
1635	1.6258e+02	-14.8937	-260.936231	0.000365	3.649205	1.236384	0.000146
1636	1.6268e+02	-14.8696	-260.807043	0.000324	3.243738	1.099008	0.000130
1637	1.6278e+02	-14.8183	-260.613260	0.000487	4.865607	1.648512	0.000195
1638	1.6288e+02	-14.7798	-260.480035	0.000335	3.345105	1.133352	0.000134
1639	1.6298e+02	-14.7381	-260.358921	0.000304	3.041004	1.030320	0.000122
1640	1.6308e+02	-14.7076	-260.209547	0.000375	3.750572	1.270728	0.000150
1641	1.6318e+02	-14.6611	-259.999616	0.000527	5.271074	1.785888	0.000211
1642	1.6328e+02	-14.6210	-259.830056	0.000426	4.257406	1.442448	0.000170
1643	1.6338e+02	-14.5745	-259.664534	0.000416	4.156039	1.408104	0.000166
1644	1.6348e+02	-14.5504	-259.511122	0.000385	3.851939	1.305072	0.000154
1645	1.6358e+02	-14.5071	-259.345600	0.000416	4.156039	1.408104	0.000166
1646	1.6368e+02	-14.4670	-259.224486	0.000304	3.041004	1.030320	0.000122
1647	1.6378e+02	-14.4188	-259.042815	0.000456	4.561507	1.545480	0.000183
1648	1.6388e+02	-14.3803	-258.840958	0.000507	5.068341	1.717200	0.000203
1649	1.6398e+02	-14.3467	-258.695621	0.000365	3.649205	1.236384	0.000146
1650	1.6408e+02	-14.3146	-258.534136	0.000405	4.054673	1.373760	0.000162
1651	1.6418e+02	-14.2680	-258.332279	0.000507	5.068341	1.717200	0.000203
1652	1.6427e+02	-14.2183	-258.178868	0.000385	3.851939	1.305072	0.000154
1653	1.6437e+02	-14.1862	-258.021419	0.000395	3.953306	1.339416	0.000158
1654	1.6447e+02	-14.1381	-257.843785	0.000446	4.460140	1.511136	0.000179
1655	1.6457e+02	-14.1028	-257.662114	0.000456	4.561507	1.545480	0.000183
1656	1.6467e+02	-14.0611	-257.504666	0.000395	3.953306	1.339416	0.000158
1657	1.6477e+02	-14.0322	-257.314921	0.000476	4.764240	1.614168	0.000191
1658	1.6487e+02	-13.9857	-257.141324	0.000436	4.358773	1.476792	0.000174
1659	1.6497e+02	-13.9456	-256.991950	0.000375	3.750572	1.270728	0.000150
1660	1.6507e+02	-13.9055	-256.834501	0.000395	3.953306	1.339416	0.000158
1661	1.6517e+02	-13.8638	-256.673016	0.000405	4.054673	1.373760	0.000162
1662	1.6527e+02	-13.8253	-256.499419	0.000436	4.358773	1.476792	0.000174
1663	1.6537e+02	-13.7820	-256.346008	0.000385	3.851939	1.305072	0.000154
1664	1.6547e+02	-13.7451	-256.172411	0.000436	4.358773	1.476792	0.000174
1665	1.6557e+02	-13.7034	-255.998814	0.000436	4.358773	1.476792	0.000174
1666	1.6567e+02	-13.6713	-255.813106	0.000466	4.662873	1.579824	0.000187
1667	1.6577e+02	-13.6151	-255.595101	0.000547	5.473808	1.854576	0.000219
1668	1.6587e+02	-13.5814	-255.445727	0.000375	3.750572	1.270728	0.000150
1669	1.6597e+02	-13.5429	-255.292316	0.000385	3.851939	1.305072	0.000154
1670	1.6607e+02	-13.5060	-255.042013	0.000628	6.284742	2.129328	0.000252
1671	1.6616e+02	-13.4691	-254.973382	0.000172	1.723236	0.583848	0.000069
1672	1.6626e+02	-13.4338	-254.694819	0.000699	6.994310	2.369736	0.000280
1673	1.6636e+02	-13.3873	-254.614077	0.000203	2.027336	0.686880	0.000081
1674	1.6646e+02	-13.3456	-254.428368	0.000466	4.662873	1.579824	0.000187
1675	1.6656e+02	-13.3039	-254.266883	0.000405	4.054673	1.373760	0.000162
1676	1.6666e+02	-13.2654	-254.101360	0.000416	4.156039	1.408104	0.000166
1677	1.6676e+02	-13.2269	-253.851058	0.000628	6.284742	2.129328	0.000252
1678	1.6686e+02	-13.1788	-253.701684	0.000375	3.750572	1.270728	0.000150
1679	1.6696e+02	-13.1451	-253.536161	0.000416	4.156039	1.408104	0.000166
1680	1.6706e+02	-13.0970	-253.358528	0.000446	4.460140	1.511136	0.000179
1681	1.6716e+02	-13.0841	-253.156671	0.000507	5.068341	1.717200	0.000203
1682	1.6726e+02	-13.0248	-253.003260	0.000385	3.851939	1.305072	0.000154
1683	1.6736e+02	-12.9847	-252.833700	0.000426	4.257406	1.442448	0.000170
1684	1.6746e+02	-12.9510	-252.631843	0.000507	5.068341	1.717200	0.000203
1685	1.6756e+02	-12.9093	-252.434023	0.000497	4.966974	1.682856	0.000199
1686	1.6766e+02	-12.8676	-252.272538	0.000405	4.054673	1.373760	0.000162
1687	1.6776e+02	-12.8387	-252.127201	0.000365	3.649205	1.236384	0.000146
1688	1.6786e+02	-12.7809	-251.921307	0.000517	5.169708	1.751544	0.000207
1689	1.6796e+02	-12.7472	-251.755785	0.000416	4.156039	1.408104	0.000166
1690	1.6806e+02	-12.7071	-251.545854	0.000527	5.271074	1.785888	0.000211
1691	1.6816e+02	-12.6606	-251.360145	0.000466	4.662873	1.579824	0.000187
1692	1.6825e+02	-12.6349	-251.182511	0.000446	4.460140	1.511136	0.000179
1693	1.6835e+02	-12.5964	-250.988729	0.000487	4.865607	1.648512	0.000195
1694	1.6845e+02	-12.5595	-250.847429	0.000355	3.547838	1.202040	0.000142
1695	1.6855e+02	-12.5066	-250.641535	0.000517	5.169708	1.751544	0.000207
1696	1.6865e+02	-12.4697	-250.423530	0.000547	5.473808	1.854576	0.000219
1697	1.6875e+02	-12.4280	-250.245896	0.000446	4.460140	1.511136	0.000179
1698	1.6885e+02	-12.3863	-250.035965	0.000527	5.271074	1.785888	0.000211
1699	1.6895e+02	-12.3526	-249.834108	0.000507	5.068341	1.717200	0.000203
1700	1.6905e+02	-12.3109	-249.648400	0.000466	4.662873	1.579824	0.000187
1701	1.6915e+02	-12.2724	-249.458654	0.000476	4.764240	1.614168	0.000191
1702	1.6925e+02	-12.2291	-249.260835	0.000497	4.966974	1.682856	0.000199
1703	1.6935e+02	-12.2066	-249.119535	0.000355	3.547838	1.202040	0.000142
1704	1.6945e+02	-12.1473	-248.917678	0.000507	5.068341	1.717200	0.000203
1705	1.6955e+02	-12.1168	-248.707747	0.000527	5.271074	1.785888	0.000211
1706	1.6965e+02	-12.0735	-248.526076	0.000456	4.561507	1.545480	0.000183
1707	1.6975e+02	-12.0350	-248.352479	0.000436	4.358773	1.476792	0.000174
1708	1.6985e+02	-11.9900	-248.166771	0.000466	4.662873	1.579824	0.000187
1709	1.6995e+02	-11.9563	-247.968951	0.000497	4.966974	1.682856	0.000199
1710	1.7005e+02	-11.9178	-247.799392	0.000426	4.257406	1.442448	0.000170
1711	1.7015e+02	-11.8713	-247.536978	0.000659	6.588843	2.232360	0.000264
1712	1.7024e+02	-11.8424	-247.359344	0.000446	4.460140	1.511136	0.000179
1713	1.7034e+02	-11.7879	-247.181710	0.000446	4.460140	1.511136	0.000179
1714	1.7044e+02	-11.7478	-246.967742	0.000537	5.372441	1.820232	0.000215
1715	1.7054e+02	-11.7125	-246.773959	0.000487	4.865607	1.648512	0.000195
1716	1.7064e+02	-11.6772	-246.612474	0.000405	4.054673	1.373760	0.000162
1717	1.7074e+02	-11.6323	-246.358134	0.000639	6.386109	2.163672	0.000256
1718	1.7084e+02	-11.5954	-246.156277	0.000507	5.068341	1.717200	0.000203
1719	1.7094e+02	-11.5553	-245.938272	0.000547	5.473808	1.854576	0.000219
1720	1.7104e+02	-11.5200	-245.780824	0.000395	3.953306	1.339416	0.000158
1721	1.7114e+02	-11.4767	-245.542633	0.000598	5.980642	2.026296	0.000239
1722	1.7124e+02	-11.4398	-245.356924	0.000466	4.662873	1.579824	0.000187
1723	1.7134e+02	-11.3917	-245.151031	0.000517	5.169708	1.751544	0.000207
1724	1.7144e+02	-11.3532	-244.949174	0.000507	5.068341	1.717200	0.000203
1725	1.7154e+02	-11.3211	-244.783651	0.000416	4.156039	1.408104	0.000166
1726	1.7164e+02	-11.2810	-244.606017	0.000446	4.460140	1.511136	0.000179
1727	1.7174e+02	-11.2409	-244.335529	0.000679	6.791577	2.301048	0.000272
1728	1.7184e+02	-11.1911	-244.133672	0.000507	5.068341	1.717200	0.000203
1729	1.7194e+02	-11.1606	-243.931816	0.000507	5.068341	1.717200	0.000203
1730	1.7204e+02	-11.1093	-243.729959	0.000507	5.068341	1.717200	0.000203
1731	1.7213e+02	-11.0836	-243.536176	0.000487	4.865607	1.648512	0.000195
1732	1.7223e+02	-11.0419	-243.334319	0.000507	5.068341	1.717200	0.000203
1733	1.7233e+02	-10.9970	-243.152648	0.000456	4.561507	1.545480	0.000183
1734	1.7243e+02	-10.9521	-242.938680	0.000537	5.372441	1.820232	0.000215
1735	1.7253e+02	-10.9216	-242.716638	0.000558	5.575175	1.888920	0.000223
1736	1.7263e+02	-10.8751	-242.510744	0.000517	5.169708	1.751544	0.000207
1737	1.7273e+02	-10.8382	-242.333110	0.000446	4.460140	1.511136	0.000179
1738	1.7283e+02	-10.8077	-242.123179	0.000527	5.271074	1.785888	0.000211
1739	1.7293e+02	-10.7596	-241.917285	0.000517	5.169708	1.751544	0.000207
1740	1.7303e+02	-10.7243	-241.695242	0.000558	5.575175	1.888920	0.000223
1741	1.7313e+02	-10.6826	-241.481274	0.000537	5.372441	1.820232	0.000215
1742	1.7323e+02	-10.6377	-241.307677	0.000436	4.358773	1.476792	0.000174
1743	1.7333e+02	-10.5960	-241.053338	0.000639	6.386109	2.163672	0.000256
1744	1.7343e+02	-10.5639	-240.912038	0.000355	3.547838	1.202040	0.000142
1745	1.7353e+02	-10.5157	-240.629439	0.000710	7.095677	2.404080	0.000284
1746	1.7363e+02	-10.4821	-240.431619	0.000497	4.966974	1.682856	0.000199
1747	1.7373e+02	-10.4355	-240.245911	0.000466	4.662873	1.579824	0.000187
1748	1.7383e+02	-10.4018	-240.015794	0.000578	5.777908	1.957608	0.000231
1749	1.7393e+02	-10.3649	-239.769529	0.000618	6.183376	2.094984	0.000248
1750	1.7403e+02	-10.3329	-239.628229	0.000355	3.547838	1.202040	0.000142
1751	1.7413e+02	-10.2847	-239.365815	0.000659	6.588843	2.232360	0.000264
1752	1.7422e+02	-10.2382	-239.123587	0.000608	6.082009	2.060640	0.000243
1753	1.7432e+02	-10.2077	-238.949990	0.000436	4.358773	1.476792	0.000174
1754	1.7442e+02	-10.1564	-238.695651	0.000639	6.386109	2.163672	0.000256
1755	1.7452e+02	-10.1275	-238.481682	0.000537	5.372441	1.820232	0.000215
1756	1.7462e+02	-10.0762	-238.312123	0.000426	4.257406	1.442448	0.000170
1757	1.7472e+02	-10.0393	-238.073932	0.000598	5.980642	2.026296	0.000239
1758	1.7482e+02	-9.9992	-237.868038	0.000517	5.169708	1.751544	0.000207
1759	1.7492e+02	-9.9559	-237.629847	0.000598	5.980642	2.026296	0.000239
1760	1.7502e+02	-9.9110	-237.423953	0.000517	5.169708	1.751544	0.000207
1761	1.7512e+02	-9.8853	-237.173650	0.000628	6.284742	2.129328	0.000252
1762	1.7522e+02	-9.8307	-236.951608	0.000558	5.575175	1.888920	0.000223
1763	1.7532e+02	-9.8051	-236.741677	0.000527	5.271074	1.785888	0.000211
1764	1.7542e+02	-9.7650	-236.531746	0.000527	5.271074	1.785888	0.000211
1765	1.7552e+02	-9.7265	-236.329889	0.000507	5.068341	1.717200	0.000203
1766	1.7562e+02	-9.6767	-236.099772	0.000578	5.777908	1.957608	0.000231
1767	1.7572e+02	-9.6430	-235.901953	0.000497	4.966974	1.682856	0.000199
1768	1.7582e+02	-9.6110	-235.643576	0.000649	6.487476	2.198016	0.000260
1769	1.7592e+02	-9.5709	-235.425571	0.000547	5.473808	1.854576	0.000219
1770	1.7602e+02	-9.5211	-235.243899	0.000456	4.561507	1.545480	0.000183
1771	1.7612e+02	-9.4746	-235.009746	0.000588	5.879275	1.991952	0.000235
1772	1.7621e+02	-9.4409	-234.763480	0.000618	6.183376	2.094984	0.000248
1773	1.7631e+02	-9.4040	-234.549512	0.000537	5.372441	1.820232	0.000215
1774	1.7641e+02	-9.3735	-234.291135	0.000649	6.487476	2.198016	0.000260
1775	1.7651e+02	-9.3158	-234.089279	0.000507	5.068341	1.717200	0.000203
1776	1.7661e+02	-9.2869	-233.863199	0.000568	5.676542	1.923264	0.000227
1777	1.7671e+02	-9.2404	-233.649231	0.000537	5.372441	1.820232	0.000215
1778	1.7681e+02	-9.2067	-233.427188	0.000558	5.575175	1.888920	0.000223
1779	1.7691e+02	-9.1650	-233.193035	0.000588	5.879275	1.991952	0.000235
1780	1.7701e+02	-9.1201	-232.958881	0.000588	5.879275	1.991952	0.000235
1781	1.7711e+02	-9.0864	-232.761061	0.000497	4.966974	1.682856	0.000199
1782	1.7721e+02	-9.0366	-232.530944	0.000578	5.777908	1.957608	0.000231
1783	1.7731e+02	-8.9949	-232.316976	0.000537	5.372441	1.820232	0.000215
1784	1.7741e+02	-8.9612	-232.094934	0.000558	5.575175	1.888920	0.000223
1785	1.7751e+02	-8.9276	-231.860780	0.000588	5.879275	1.991952	0.000235
1786	1.7761e+02	-8.8907	-231.598366	0.000659	6.588843	2.232360	0.000264
1787	1.7771e+02	-8.8506	-231.388435	0.000527	5.271074	1.785888	0.000211
1788	1.7781e+02	-8.8072	-231.154281	0.000588	5.879275	1.991952	0.000235
1789	1.7791e+02	-8.7623	-230.940313	0.000537	5.372441	1.820232	0.000215
1790	1.7801e+02	-8.7206	-230.730382	0.000527	5.271074	1.785888	0.000211
1791	1.7810e+02	-8.6869	-230.512376	0.000547	5.473808	1.854576	0.000219
1792	1.7820e+02	-8.6516	-230.306482	0.000517	5.169708	1.751544	0.000207
1793	1.7830e+02	-8.6019	-230.048106	0.000649	6.487476	2.198016	0.000260
1794	1.7840e+02	-8.5618	-229.813952	0.000588	5.879275	1.991952	0.000235
1795	1.7850e+02	-8.5233	-229.599984	0.000537	5.372441	1.820232	0.000215
1796	1.7860e+02	-8.4752	-229.349681	0.000628	6.284742	2.129328	0.000252
1797	1.7870e+02	-8.4511	-229.147824	0.000507	5.068341	1.717200	0.000203
1798	1.7880e+02	-8.4030	-228.937893	0.000527	5.271074	1.785888	0.000211
1799	1.7890e+02	-8.3645	-228.675480	0.000659	6.588843	2.232360	0.000264
1800	1.7900e+02	-8.3244	-228.445363	0.000578	5.777908	1.957608	0.000231
1801	1.7910e+02	-8.2939	-228.227358	0.000547	5.473808	1.854576	0.000219
1802	1.7920e+02	-8.2442	-228.017426	0.000527	5.271074	1.785888	0.000211
1803	1.7930e+02	-8.2024	-227.722716	0.000740	7.399777	2.507112	0.000296
1804	1.7940e+02	-8.1671	-227.512785	0.000527	5.271074	1.785888	0.000211
1805	1.7950e+02	-8.1286	-227.306891	0.000517	5.169708	1.751544	0.000207
1806	1.7960e+02	-8.0934	-227.040440	0.000669	6.690210	2.266704	0.000268
1807	1.7970e+02	-8.0436	-226.826471	0.000537	5.372441	1.820232	0.000215
1808	1.7980e+02	-8.0164	-226.592318	0.000588	5.879275	1.991952	0.000235
1809	1.7990e+02	-7.9746	-226.342015	0.000628	6.284742	2.129328	0.000252
1810	1.8000e+02	-7.9313	-226.103824	0.000598	5.980642	2.026296	0.000239
1811	1.8009e+02	-7.8880	-225.918116	0.000466	4.662873	1.579824	0.000187
1812	1.8019e+02	-7.8383	-225.651665	0.000669	6.690210	2.266704	0.000268
1813	1.8029e+02	-7.8030	-225.461920	0.000476	4.764240	1.614168	0.000191
1814	1.8039e+02	-7.7661	-225.171246	0.000730	7.298411	2.472768	0.000292
1815	1.8049e+02	-7.7308	-224.969389	0.000507	5.068341	1.717200	0.000203
1816	1.8059e+02	-7.6939	-224.719087	0.000628	6.284742	2.129328	0.000252
1817	1.8069e+02	-7.6522	-224.472821	0.000618	6.183376	2.094984	0.000248
1818	1.8079e+02	-7.6057	-224.242705	0.000578	5.777908	1.957608	0.000231
1819	1.8089e+02	-7.5768	-224.036811	0.000517	5.169708	1.751544	0.000207
1820	1.8099e+02	-7.5335	-223.766323	0.000679	6.791577	2.301048	0.000272
1821	1.8109e+02	-7.4870	-223.520057	0.000618	6.183376	2.094984	0.000248
1822	1.8119e+02	-7.4468	-223.269755	0.000628	6.284742	2.129328	0.000252
1823	1.8129e+02	-7.4067	-223.075972	0.000487	4.865607	1.648512	0.000195
1824	1.8139e+02	-7.3634	-222.833744	0.000608	6.082009	2.060640	0.000243
1825	1.8149e+02	-7.3313	-222.555182	0.000699	6.994310	2.369736	0.000280
1826	1.8159e+02	-7.2912	-222.337177	0.000547	5.473808	1.854576	0.000219
1827	1.8169e+02	-7.2495	-222.115134	0.000558	5.575175	1.888920	0.000223
1828	1.8179e+02	-7.2142	-221.852720	0.000659	6.588843	2.232360	0.000264
1829	1.8189e+02	-7.1693	-221.618566	0.000588	5.879275	1.991952	0.000235
1830	1.8199e+02	-7.1340	-221.344041	0.000689	6.892943	2.335392	0.000276
1831	1.8209e+02	-7.0955	-221.105850	0.000598	5.980642	2.026296	0.000239
1832	1.8218e+02	-7.0474	-220.883808	0.000558	5.575175	1.888920	0.000223
1833	1.8228e+02	-7.0121	-220.617357	0.000669	6.690210	2.266704	0.000268
1834	1.8238e+02	-6.9720	-220.379166	0.000598	5.980642	2.026296	0.000239
1835	1.8248e+02	-6.9383	-220.169235	0.000527	5.271074	1.785888	0.000211
1836	1.8258e+02	-6.8886	-219.951229	0.000547	5.473808	1.854576	0.000219
1837	1.8268e+02	-6.8549	-219.688815	0.000659	6.588843	2.232360	0.000264
1838	1.8278e+02	-6.8164	-219.406216	0.000710	7.095677	2.404080	0.000284
1839	1.8288e+02	-6.7715	-219.143802	0.000659	6.588843	2.232360	0.000264
1840	1.8298e+02	-6.7346	-218.962131	0.000456	4.561507	1.545480	0.000183
1841	1.8308e+02	-6.6897	-218.683569	0.000699	6.994310	2.369736	0.000280
1842	1.8318e+02	-6.6640	-218.437303	0.000618	6.183376	2.094984	0.000248
1843	1.8328e+02	-6.6110	-218.199112	0.000598	5.980642	2.026296	0.000239
1844	1.8338e+02	-6.5709	-217.916513	0.000710	7.095677	2.404080	0.000284
1845	1.8348e+02	-6.5260	-217.718693	0.000497	4.966974	1.682856	0.000199
1846	1.8358e+02	-6.4939	-217.496651	0.000558	5.575175	1.888920	0.000223
1847	1.8368e+02	-6.4554	-217.218088	0.000699	6.994310	2.369736	0.000280
1848	1.8378e+02	-6.4298	-216.935489	0.000710	7.095677	2.404080	0.000284
1849	1.8388e+02	-6.3848	-216.745744	0.000476	4.764240	1.614168	0.000191
1850	1.8398e+02	-6.3287	-216.499478	0.000618	6.183376	2.094984	0.000248
1851	1.8407e+02	-6.2982	-216.261287	0.000598	5.980642	2.026296	0.000239
1852	1.8417e+02	-6.2581	-216.002911	0.000649	6.487476	2.198016	0.000260
1853	1.8427e+02	-6.2180	-215.748571	0.000639	6.386109	2.163672	0.000256
1854	1.8437e+02	-6.1811	-215.482120	0.000669	6.690210	2.266704	0.000268
1855	1.8447e+02	-6.1346	-215.211632	0.000679	6.791577	2.301048	0.000272
1856	1.8457e+02	-6.1041	-215.005738	0.000517	5.169708	1.751544	0.000207
1857	1.8467e+02	-6.0608	-214.727176	0.000699	6.994310	2.369736	0.000280
1858	1.8477e+02	-6.0207	-214.456688	0.000679	6.791577	2.301048	0.000272
1859	1.8487e+02	-5.9758	-214.206385	0.000628	6.284742	2.129328	0.000252
1860	1.8497e+02	-5.9373	-213.948008	0.000649	6.487476	2.198016	0.000260
1861	1.8507e+02	-5.9020	-213.725966	0.000558	5.575175	1.888920	0.000223
1862	1.8517e+02	-5.8554	-213.475664	0.000628	6.284742	2.129328	0.000252
1863	1.8527e+02	-5.8169	-213.197101	0.000699	6.994310	2.369736	0.000280
1864	1.8537e+02	-5.7849	-212.926613	0.000679	6.791577	2.301048	0.000272
1865	1.8547e+02	-5.7303	-212.656125	0.000679	6.791577	2.301048	0.000272
1866	1.8557e+02	-5.6950	-212.389674	0.000669	6.690210	2.266704	0.000268
1867	1.8567e+02	-5.6597	-212.163594	0.000568	5.676542	1.923264	0.000227
1868	1.8577e+02	-5.6180	-211.864846	0.000750	7.501144	2.541456	0.000300
1869	1.8587e+02	-5.5699	-211.598395	0.000669	6.690210	2.266704	0.000268
1870	1.8597e+02	-5.5394	-211.352130	0.000618	6.183376	2.094984	0.000248
1871	1.8606e+02	-5.4977	-211.073568	0.000699	6.994310	2.369736	0.000280
1872	1.8616e+02	-5.4640	-210.819228	0.000639	6.386109	2.163672	0.000256
1873	1.8626e+02	-5.4223	-210.560852	0.000649	6.487476	2.198016	0.000260
1874	1.8636e+02	-5.3742	-210.322661	0.000598	5.980642	2.026296	0.000239
1875	1.8646e+02	-5.3405	-210.056210	0.000669	6.690210	2.266704	0.000268
1876	1.8656e+02	-5.2988	-209.761499	0.000740	7.399777	2.507112	0.000296
1877	1.8666e+02	-5.2619	-209.470825	0.000730	7.298411	2.472768	0.000292
1878	1.8676e+02	-5.2314	-209.228597	0.000608	6.082009	2.060640	0.000243
1879	1.8686e+02	-5.1881	-208.941960	0.000720	7.197044	2.438424	0.000288
1880	1.8696e+02	-5.1416	-208.711843	0.000578	5.777908	1.957608	0.000231
1881	1.8706e+02	-5.0983	-208.400984	0.000781	7.805245	2.644488	0.000312
1882	1.8716e+02	-5.0630	-208.138570	0.000659	6.588843	2.232360	0.000264
1883	1.8726e+02	-5.0261	-207.896342	0.000608	6.082009	2.060640	0.000243
1884	1.8736e+02	-4.9844	-207.621817	0.000689	6.892943	2.335392	0.000276
1885	1.8746e+02	-4.9378	-207.323069	0.000750	7.501144	2.541456	0.000300
1886	1.8756e+02	-4.9009	-207.064692	0.000649	6.487476	2.198016	0.000260
1887	1.8766e+02	-4.8608	-206.761907	0.000760	7.602511	2.575800	0.000304
1888	1.8776e+02	-4.8255	-206.511604	0.000628	6.284742	2.129328	0.000252
1889	1.8786e+02	-4.7710	-206.224968	0.000720	7.197044	2.438424	0.000288
1890	1.8796e+02	-4.7389	-205.926220	0.000750	7.501144	2.541456	0.000300
1891	1.8806e+02	-4.7084	-205.659769	0.000669	6.690210	2.266704	0.000268
1892	1.8815e+02	-4.6699	-205.393318	0.000669	6.690210	2.266704	0.000268
1893	1.8825e+02	-4.6282	-205.090533	0.000760	7.602511	2.575800	0.000304
1894	1.8835e+02	-4.5929	-204.820045	0.000679	6.791577	2.301048	0.000272
1895	1.8845e+02	-4.5368	-204.569742	0.000628	6.284742	2.129328	0.000252
1896	1.8855e+02	-4.4999	-204.287143	0.000710	7.095677	2.404080	0.000284
1897	1.8865e+02	-4.4742	-204.024729	0.000659	6.588843	2.232360	0.000264
1898	1.8875e+02	-4.4293	-203.721944	0.000760	7.602511	2.575800	0.000304
1899	1.8885e+02	-4.3908	-203.443381	0.000699	6.994310	2.369736	0.000280
1900	1.8895e+02	-4.3411	-203.176930	0.000669	6.690210	2.266704	0.000268
1901	1.8905e+02	-4.3009	-202.870108	0.000770	7.703878	2.610144	0.000308
1902	1.8915e+02	-4.2592	-202.583471	0.000720	7.197044	2.438424	0.000288
1903	1.8925e+02	-4.2159	-202.312983	0.000679	6.791577	2.301048	0.000272
1904	1.8935e+02	-4.1983	-202.086904	0.000568	5.676542	1.923264	0.000227
1905	1.8945e+02	-4.1437	-201.772007	0.000791	7.906612	2.678832	0.000316
1906	1.8955e+02	-4.0940	-201.521705	0.000628	6.284742	2.129328	0.000252
1907	1.8965e+02	-4.0539	-201.198734	0.000811	8.109345	2.747521	0.000325
1908	1.8975e+02	-4.0330	-200.883837	0.000791	7.906612	2.678832	0.000316
1909	1.8985e+02	-3.9817	-200.613349	0.000679	6.791577	2.301048	0.000272
1910	1.8995e+02	-3.9592	-200.334787	0.000699	6.994310	2.369736	0.000280
1911	1.9004e+02	-3.9063	-200.084484	0.000628	6.284742	2.129328	0.000252
1912	1.9014e+02	-3.8646	-199.737291	0.000872	8.717546	2.953585	0.000349
1913	1.9024e+02	-3.8293	-199.442580	0.000740	7.399777	2.507112	0.000296
1914	1.9034e+02	-3.7828	-199.180166	0.000659	6.588843	2.232360	0.000264
1915	1.9044e+02	-3.7459	-198.869306	0.000781	7.805245	2.644488	0.000312
1916	1.9054e+02	-3.7106	-198.562484	0.000770	7.703878	2.610144	0.000308
1917	1.9064e+02	-3.6609	-198.291996	0.000679	6.791577	2.301048	0.000272
1918	1.9074e+02	-3.6272	-198.021508	0.000679	6.791577	2.301048	0.000272
1919	1.9084e+02	-3.5839	-197.706611	0.000791	7.906612	2.678832	0.000316
1920	1.9094e+02	-3.5470	-197.399789	0.000770	7.703878	2.610144	0.000308
1921	1.9104e+02	-3.5117	-197.092967	0.000770	7.703878	2.610144	0.000308
1922	1.9114e+02	-3.4603	-196.818442	0.000689	6.892943	2.335392	0.000276
1923	1.9124e+02	-3.4234	-196.515656	0.000760	7.602511	2.575800	0.000304
1924	1.9134e+02	-3.3849	-196.212871	0.000760	7.602511	2.575800	0.000304
1925	1.9144e+02	-3.3528	-195.897975	0.000791	7.906612	2.678832	0.000316
1926	1.9154e+02	-3.3111	-195.615375	0.000710	7.095677	2.404080	0.000284
1927	1.9164e+02	-3.2742	-195.296441	0.000801	8.007978	2.713177	0.000321
1928	1.9174e+02	-3.2261	-195.013842	0.000710	7.095677	2.404080	0.000284
1929	1.9184e+02	-3.1924	-194.678760	0.000841	8.413446	2.850553	0.000337
1930	1.9194e+02	-3.1363	-194.412309	0.000669	6.690210	2.266704	0.000268
1931	1.9203e+02	-3.1106	-194.121635	0.000730	7.298411	2.472768	0.000292
1932	1.9213e+02	-3.0753	-193.822887	0.000750	7.501144	2.541456	0.000300
1933	1.9223e+02	-3.0256	-193.516064	0.000770	7.703878	2.610144	0.000308
1934	1.9233e+02	-2.9887	-193.201168	0.000791	7.906612	2.678832	0.000316
1935	1.9243e+02	-2.9486	-192.845900	0.000892	8.920280	3.022273	0.000357
1936	1.9253e+02	-2.9165	-192.587523	0.000649	6.487476	2.198016	0.000260
1937	1.9263e+02	-2.8764	-192.276664	0.000781	7.805245	2.644488	0.000312
1938	1.9273e+02	-2.8234	-191.937544	0.000851	8.514812	2.884897	0.000341
1939	1.9283e+02	-2.7962	-191.671093	0.000669	6.690210	2.266704	0.000268
1940	1.9293e+02	-2.7368	-191.311788	0.000902	9.021646	3.056617	0.000361
1941	1.9303e+02	-2.7063	-191.013040	0.000750	7.501144	2.541456	0.000300
1942	1.9313e+02	-2.6710	-190.722367	0.000730	7.298411	2.472768	0.000292
1943	1.9323e+02	-2.6293	-190.411507	0.000781	7.805245	2.644488	0.000312
1944	1.9333e+02	-2.5892	-190.096610	0.000791	7.906612	2.678832	0.000316
1945	1.9343e+02	-2.5491	-189.826122	0.000679	6.791577	2.301048	0.000272
1946	1.9353e+02	-2.4994	-189.507189	0.000801	8.007978	2.713177	0.000321
1947	1.9363e+02	-2.4769	-189.139809	0.000922	9.224380	3.125305	0.000369
1948	1.9373e+02	-2.4400	-188.816838	0.000811	8.109345	2.747521	0.000325
1949	1.9383e+02	-2.3967	-188.518090	0.000750	7.501144	2.541456	0.000300
1950	1.9393e+02	-2.3486	-188.215305	0.000760	7.602511	2.575800	0.000304
1951	1.9403e+02	-2.3117	-187.912520	0.000760	7.602511	2.575800	0.000304
1952	1.9412e+02	-2.2732	-187.597623	0.000791	7.906612	2.678832	0.000316
1953	1.9422e+02	-2.2331	-187.218133	0.000953	9.528481	3.228337	0.000381
1954	1.9432e+02	-2.1914	-186.919385	0.000750	7.501144	2.541456	0.000300
1955	1.9442e+02	-2.1529	-186.632748	0.000720	7.197044	2.438424	0.000288
1956	1.9452e+02	-2.1128	-186.321889	0.000781	7.805245	2.644488	0.000312
1957	1.9462e+02	-2.0679	-186.027178	0.000740	7.399777	2.507112	0.000296
1958	1.9472e+02	-2.0406	-185.688058	0.000851	8.514812	2.884897	0.000341
1959	1.9482e+02	-1.9876	-185.377199	0.000781	7.805245	2.644488	0.000312
1960	1.9492e+02	-1.9572	-185.005782	0.000933	9.325747	3.159649	0.000373
1961	1.9502e+02	-1.9171	-184.711071	0.000740	7.399777	2.507112	0.000296
1962	1.9512e+02	-1.8818	-184.380026	0.000831	8.312079	2.816209	0.000333
1963	1.9522e+02	-1.8385	-184.089353	0.000730	7.298411	2.472768	0.000292
1964	1.9532e+02	-1.7871	-183.738122	0.000882	8.818913	2.987929	0.000353
1965	1.9542e+02	-1.7647	-183.382854	0.000892	8.920280	3.022273	0.000357
1966	1.9552e+02	-1.7101	-183.071994	0.000781	7.805245	2.644488	0.000312
1967	1.9562e+02	-1.6796	-182.769209	0.000760	7.602511	2.575800	0.000304
1968	1.9572e+02	-1.6347	-182.397793	0.000933	9.325747	3.159649	0.000373
1969	1.9582e+02	-1.5930	-182.014265	0.000963	9.629847	3.262681	0.000385
1970	1.9592e+02	-1.5545	-181.731665	0.000710	7.095677	2.404080	0.000284
1971	1.9601e+02	-1.5128	-181.424843	0.000770	7.703878	2.610144	0.000308
1972	1.9611e+02	-1.4695	-181.073612	0.000882	8.818913	2.987929	0.000353
1973	1.9621e+02	-1.4358	-180.762753	0.000781	7.805245	2.644488	0.000312
1974	1.9631e+02	-1.3989	-180.403448	0.000902	9.021646	3.056617	0.000361
1975	1.9641e+02	-1.3636	-180.112774	0.000730	7.298411	2.472768	0.000292
1976	1.9651e+02	-1.3171	-179.709060	0.001014	10.136681	3.434401	0.000406
1977	1.9661e+02	-1.2850	-179.430498	0.000699	6.994310	2.369736	0.000280
1978	1.9671e+02	-1.2417	-179.022747	0.001024	10.238048	3.468745	0.000410
1979	1.9681e+02	-1.2016	-178.719962	0.000760	7.602511	2.575800	0.000304
1980	1.9691e+02	-1.1486	-178.352583	0.000922	9.224380	3.125305	0.000369
1981	1.9701e+02	-1.1149	-178.065946	0.000720	7.197044	2.438424	0.000288
1982	1.9711e+02	-1.0796	-177.694530	0.000933	9.325747	3.159649	0.000373
1983	1.9721e+02	-1.0476	-177.367522	0.000821	8.210712	2.781865	0.000329
1984	1.9731e+02	-0.9914	-177.000142	0.000922	9.224380	3.125305	0.000369
1985	1.9741e+02	-0.9657	-176.673134	0.000821	8.210712	2.781865	0.000329
1986	1.9751e+02	-0.9272	-176.212901	0.001156	11.555817	3.915217	0.000463
1987	1.9761e+02	-0.8791	-175.962598	0.000628	6.284742	2.129328	0.000252
1988	1.9771e+02	-0.8374	-175.579070	0.000963	9.629847	3.262681	0.000385
1989	1.9781e+02	-0.8021	-175.256100	0.000811	8.109345	2.747521	0.000325
1990	1.9791e+02	-0.7604	-174.896794	0.000902	9.021646	3.056617	0.000361
1991	1.9800e+02	-0.7123	-174.549601	0.000872	8.717546	2.953585	0.000349
1992	1.9810e+02	-0.6802	-174.202407	0.000872	8.717546	2.953585	0.000349
1993	1.9820e+02	-0.6433	-173.818879	0.000963	9.629847	3.262681	0.000385
1994	1.9830e+02	-0.5984	-173.455537	0.000912	9.123013	3.090961	0.000365
1995	1.9840e+02	-0.5583	-173.080083	0.000943	9.427114	3.193993	0.000377
1996	1.9850e+02	-0.5214	-172.740964	0.000851	8.514812	2.884897	0.000341
1997	1.9860e+02	-0.4829	-172.357436	0.000963	9.629847	3.262681	0.000385
1998	1.9870e+02	-0.4380	-172.010242	0.000872	8.717546	2.953585	0.000349
1999	1.9880e+02	-0.3995	-171.659012	0.000882	8.818913	2.987929	0.000353
2000	1.9890e+02	-0.3674	-171.271447	0.000973	9.731214	3.297025	0.000390
2001	1.9900e+02	-0.3208	-170.916179	0.000892	8.920280	3.022273	0.000357
2002	1.9910e+02	-0.2775	-170.536688	0.000953	9.528481	3.228337	0.000381
2003	1.9920e+02	-0.2438	-170.189494	0.000872	8.717546	2.953585	0.000349
2004	1.9930e+02	-0.1941	-169.814041	0.000943	9.427114	3.193993	0.000377
2005	1.9940e+02	-0.1588	-169.470884	0.000862	8.616179	2.919241	0.000345
2006	1.9950e+02	-0.1203	-169.095430	0.000943	9.427114	3.193993	0.000377
2007	1.9960e+02	-0.0802	-168.679605	0.001044	10.440782	3.537433	0.000418
2008	1.9970e+02	-0.0401	-168.332412	0.000872	8.717546	2.953585	0.000349
2009	1.9980e+02	0.0000	-167.956958	0.000872	8.717546	2.953585	0.000377

Center data before PMax,+/-Pr and +/-Vc Calc.

PMax (uC/cm2):	2.68e+02
Pr (uC/cm2):	1.53e+02
-Pr (uC/cm2):	-1.68e+02
PLoss (uC/cm2):	-2.96e+02
-Vc:	-1.54e+01
C (Max-Eff) (nF):	1.34e+00
K (Eff):	4.55e+03
Vert. (+/-Pr) Shift (uC/cm2):	-7.25e+00
Offset (uC/cm2):	-1.28e+02

A (Loop Area - uC/cm2·Volts):	-1.63e+00



Hysteresis Version: 5.48.1 - Radiant Technologies, Inc., 1999 - 9/12/24

