»»»»»»»»»»»»»»»»»»»»»»»»»»»»»»»»»»»» Hysteresis ««««««««««««««««««««««««««««««««««««
»»»  Executed Version:	5.48.1
»»»  Vision Version:	5.48.4 (R)
»»»  Vision Compiled:	9/18/24
»»»  Driver Version:	5.47.0
»»»  Windows Version:	Windows 8 or 8.1
»»»  Processor Information:	x86 (AMD or Intel) - 32 Processors
»»»  Tester Name:	PMF21124-494 (100V)
»»»  Tester S/N:	PMF21124-494
»»»  Internal Amp Type:	100V RevK 270k
»»»  Internal Amp S/N:	iAB2-596/K     
»»»  Execution Count:	1
»»»»»»»»»»»»»»»»»»»»»»»»»»»»»»»»»»»»»»»»»»««««««««««««««««««««««««««««««««««««««««««

Stored:	6/5/2025 - 16:54:0
Configured:	06/05/25 02:51:50 PM
Executed:	06/05/25 04:53:17 PM

»»»»»»»»»»»»»»»»»»»»»»»»»»»»»»»»»»» Sample Info ««««««««««««««««««««««««««««««««««««
Sample Name:	
Lot Name:	
Wafer Name:	
Die Row/Column:	0/0
Capacitor Number:	0
Sample Area (cm2):	1.00e-04
Sample Thickness (microns):	3.00e-01

Amplifier:	Internal

»»»»»»»»»»»»»»»»»»»»»»»»»»»»»»»»»»» Tester Info «««««««««««««««««««««««««««««««««««
Tester Name:	PMF21124-494 (100V)
Tester Serial Number:	PMF21124-494
Return Signal Amp. Level:	0.19 [Index: 3]

»»»»»»»»»»»»»»»»»»»»»»»»»»»»»»»» Hysteresis Info ««««««««««««««««««««««««««««««««««
Task Name:	Hyst-353
Volts:	20.00
Field:	666.67 (kV/cm)
DCBias:	0.00
DCField:	0.00 (kV/cm)
Hysteresis Period (ms):	2.00e+02
Preset:	Enabled
Preset Delay (ms):	1.00e+03
Profile:	Standard Bipolar

»»»»»»»»»»»»»»»»»»»»»»»»»»»»»»»»»»»»»» Data «««««««««««««««««««««««««««««««««««««««
Points:	2009

Valid Data

Point	Time (ms)	Drive Voltage	Measured Polarization (uC/cm2)	Capacitance (uF)	Normalized Capacitance (uF/cm2)	Dielectric Constant	Instantaneous Current (mA)
   1	0.0000e+00	0.0032	59.913113	0.000284	2.838954	0.961864	0.000114
   2	9.9500e-02	0.0337	60.026153	0.000284	2.838954	0.961864	0.000114
   3	1.9900e-01	0.0754	60.207824	0.000456	4.562605	1.545852	0.000183
   4	2.9850e-01	0.1043	60.389495	0.000456	4.562605	1.545852	0.000183
   5	3.9800e-01	0.1428	60.591352	0.000507	5.069561	1.717614	0.000203
   6	4.9750e-01	0.1957	60.768986	0.000446	4.461214	1.511500	0.000179
   7	5.9700e-01	0.2326	60.902211	0.000335	3.345910	1.133625	0.000134
   8	6.9650e-01	0.2647	61.136365	0.000588	5.880691	1.992432	0.000235
   9	7.9600e-01	0.3080	61.334185	0.000497	4.968170	1.683262	0.000199
  10	8.9550e-01	0.3385	61.499707	0.000416	4.157040	1.408443	0.000166
  11	9.9500e-01	0.3946	61.685416	0.000466	4.663996	1.580205	0.000187
  12	1.0945e+00	0.4396	61.891309	0.000517	5.170952	1.751966	0.000207
  13	1.1940e+00	0.4732	62.060869	0.000426	4.258431	1.442796	0.000170
  14	1.2935e+00	0.5198	62.250615	0.000477	4.765387	1.614557	0.000191
  15	1.3930e+00	0.5454	62.456508	0.000517	5.170952	1.751966	0.000207
  16	1.4925e+00	0.5888	62.646254	0.000477	4.765387	1.614557	0.000191
  17	1.5920e+00	0.6289	62.827925	0.000456	4.562605	1.545852	0.000183
  18	1.6915e+00	0.6722	63.049967	0.000558	5.576517	1.889375	0.000223
  19	1.7910e+00	0.7139	63.223564	0.000436	4.359822	1.477148	0.000174
  20	1.8905e+00	0.7556	63.437532	0.000537	5.373735	1.820671	0.000215
  21	1.9900e+00	0.7957	63.611129	0.000436	4.359822	1.477148	0.000174
  22	2.0895e+00	0.8374	63.792800	0.000456	4.562605	1.545852	0.000183
  23	2.1890e+00	0.8727	63.990620	0.000497	4.968170	1.683262	0.000199
  24	2.2885e+00	0.9048	64.244960	0.000639	6.387647	2.164193	0.000256
  25	2.3880e+00	0.9481	64.374148	0.000324	3.244519	1.099273	0.000130
  26	2.4875e+00	0.9930	64.616376	0.000608	6.083473	2.061137	0.000243
  27	2.5870e+00	1.0251	64.765750	0.000375	3.751475	1.271034	0.000150
  28	2.6865e+00	1.0732	64.987793	0.000558	5.576517	1.889375	0.000223
  29	2.7860e+00	1.1021	65.217909	0.000578	5.779300	1.958080	0.000231
  30	2.8855e+00	1.1406	65.375358	0.000395	3.954258	1.339739	0.000158
  31	2.9850e+00	1.1952	65.601437	0.000568	5.677908	1.923727	0.000227
  32	3.0845e+00	1.2256	65.775034	0.000436	4.359822	1.477148	0.000174
  33	3.1840e+00	1.2689	65.976891	0.000507	5.069561	1.717614	0.000203
  34	3.2835e+00	1.3107	66.202970	0.000568	5.677908	1.923727	0.000227
  35	3.3830e+00	1.3476	66.380604	0.000446	4.461214	1.511500	0.000179
  36	3.4825e+00	1.3893	66.562275	0.000456	4.562605	1.545852	0.000183
  37	3.5820e+00	1.4230	66.800466	0.000598	5.982082	2.026784	0.000239
  38	3.6815e+00	1.4663	66.990212	0.000477	4.765387	1.614557	0.000191
  39	3.7810e+00	1.5064	67.200143	0.000527	5.272343	1.786318	0.000211
  40	3.8805e+00	1.5385	67.422185	0.000558	5.576517	1.889375	0.000223
  41	3.9800e+00	1.5834	67.603857	0.000456	4.562605	1.545852	0.000183
  42	4.0795e+00	1.6267	67.833973	0.000578	5.779300	1.958080	0.000231
  43	4.1790e+00	1.6732	67.991422	0.000395	3.954258	1.339739	0.000158
  44	4.2785e+00	1.7037	68.229613	0.000598	5.982082	2.026784	0.000239
  45	4.3780e+00	1.7470	68.403209	0.000436	4.359822	1.477148	0.000174
  46	4.4775e+00	1.7855	68.605066	0.000507	5.069561	1.717614	0.000203
  47	4.5770e+00	1.8288	68.831146	0.000568	5.677908	1.923727	0.000227
  48	4.6765e+00	1.8577	69.033003	0.000507	5.069561	1.717614	0.000203
  49	4.7760e+00	1.9090	69.198525	0.000416	4.157040	1.408443	0.000166
  50	4.8755e+00	1.9507	69.432679	0.000588	5.880691	1.992432	0.000235
  51	4.9750e+00	1.9780	69.666833	0.000588	5.880691	1.992432	0.000235
  52	5.0745e+00	2.0213	69.836393	0.000426	4.258431	1.442796	0.000170
  53	5.1740e+00	2.0663	70.026138	0.000477	4.765387	1.614557	0.000191
  54	5.2735e+00	2.1031	70.248180	0.000558	5.576517	1.889375	0.000223
  55	5.3730e+00	2.1545	70.429852	0.000456	4.562605	1.545852	0.000183
  56	5.4725e+00	2.1898	70.676117	0.000618	6.184864	2.095489	0.000248
  57	5.5720e+00	2.2203	70.861825	0.000466	4.663996	1.580205	0.000187
  58	5.6715e+00	2.2620	71.100016	0.000598	5.982082	2.026784	0.000239
  59	5.7710e+00	2.3053	71.277650	0.000446	4.461214	1.511500	0.000179
  60	5.8705e+00	2.3502	71.483544	0.000517	5.170952	1.751966	0.000207
  61	5.9700e+00	2.3855	71.693475	0.000527	5.272343	1.786318	0.000211
  62	6.0695e+00	2.4304	71.927629	0.000588	5.880691	1.992432	0.000235
  63	6.1690e+00	2.4513	72.097189	0.000426	4.258431	1.442796	0.000170
  64	6.2685e+00	2.5154	72.335380	0.000598	5.982082	2.026784	0.000239
  65	6.3680e+00	2.5395	72.537236	0.000507	5.069561	1.717614	0.000203
  66	6.4675e+00	2.5876	72.751205	0.000537	5.373735	1.820671	0.000215
  67	6.5670e+00	2.6261	72.936913	0.000466	4.663996	1.580205	0.000187
  68	6.6665e+00	2.6694	73.150881	0.000537	5.373735	1.820671	0.000215
  69	6.7660e+00	2.7063	73.368886	0.000548	5.475126	1.855023	0.000219
  70	6.8655e+00	2.7432	73.603040	0.000588	5.880691	1.992432	0.000235
  71	6.9650e+00	2.7817	73.760489	0.000395	3.954258	1.339739	0.000158
  72	7.0645e+00	2.8299	73.970420	0.000527	5.272343	1.786318	0.000211
  73	7.1640e+00	2.8507	74.224759	0.000639	6.387647	2.164193	0.000256
  74	7.2635e+00	2.9037	74.398356	0.000436	4.359822	1.477148	0.000174
  75	7.3630e+00	2.9438	74.616361	0.000548	5.475126	1.855023	0.000219
  76	7.4625e+00	2.9807	74.834367	0.000548	5.475126	1.855023	0.000219
  77	7.5620e+00	3.0144	74.987778	0.000385	3.852866	1.305386	0.000154
  78	7.6615e+00	3.0689	75.221932	0.000588	5.880691	1.992432	0.000235
  79	7.7610e+00	3.0962	75.443974	0.000558	5.576517	1.889375	0.000223
  80	7.8605e+00	3.1427	75.645831	0.000507	5.069561	1.717614	0.000203
  81	7.9600e+00	3.1764	75.859799	0.000537	5.373735	1.820671	0.000215
  82	8.0595e+00	3.2277	76.037433	0.000446	4.461214	1.511500	0.000179
  83	8.1590e+00	3.2630	76.247364	0.000527	5.272343	1.786318	0.000211
  84	8.2585e+00	3.2967	76.477481	0.000578	5.779300	1.958080	0.000231
  85	8.3580e+00	3.3432	76.703560	0.000568	5.677908	1.923727	0.000227
  86	8.4575e+00	3.3737	76.905417	0.000507	5.069561	1.717614	0.000203
  87	8.5570e+00	3.4170	77.083051	0.000446	4.461214	1.511500	0.000179
  88	8.6565e+00	3.4619	77.329316	0.000618	6.184864	2.095489	0.000248
  89	8.7560e+00	3.5020	77.539248	0.000527	5.272343	1.786318	0.000211
  90	8.8555e+00	3.5405	77.737067	0.000497	4.968170	1.683262	0.000199
  91	8.9550e+00	3.5871	77.959110	0.000558	5.576517	1.889375	0.000223
  92	9.0545e+00	3.6256	78.169041	0.000527	5.272343	1.786318	0.000211
  93	9.1540e+00	3.6560	78.338600	0.000426	4.258431	1.442796	0.000170
  94	9.2535e+00	3.6994	78.552569	0.000537	5.373735	1.820671	0.000215
  95	9.3530e+00	3.7330	78.790760	0.000598	5.982082	2.026784	0.000239
  96	9.4525e+00	3.7876	78.988579	0.000497	4.968170	1.683262	0.000199
  97	9.5520e+00	3.8213	79.190436	0.000507	5.069561	1.717614	0.000203
  98	9.6515e+00	3.8630	79.376144	0.000466	4.663996	1.580205	0.000187
  99	9.7510e+00	3.8999	79.626447	0.000629	6.286256	2.129841	0.000252
 100	9.8505e+00	3.9464	79.824266	0.000497	4.968170	1.683262	0.000199
 101	9.9500e+00	3.9865	80.042272	0.000548	5.475126	1.855023	0.000219
 102	1.0050e+01	4.0202	80.244128	0.000507	5.069561	1.717614	0.000203
 103	1.0149e+01	4.0587	80.466171	0.000558	5.576517	1.889375	0.000223
 104	1.0248e+01	4.0876	80.684176	0.000548	5.475126	1.855023	0.000219
 105	1.0348e+01	4.1373	80.942553	0.000649	6.489038	2.198546	0.000260
 106	1.0447e+01	4.1838	81.071741	0.000324	3.244519	1.099273	0.000130
 107	1.0547e+01	4.2175	81.346267	0.000689	6.894603	2.335955	0.000276
 108	1.0646e+01	4.2576	81.544086	0.000497	4.968170	1.683262	0.000199
 109	1.0746e+01	4.2913	81.766129	0.000558	5.576517	1.889375	0.000223
 110	1.0845e+01	4.3394	81.955874	0.000477	4.765387	1.614557	0.000191
 111	1.0945e+01	4.3780	82.153694	0.000497	4.968170	1.683262	0.000199
 112	1.1044e+01	4.4132	82.436293	0.000710	7.097385	2.404659	0.000284
 113	1.1144e+01	4.4566	82.573556	0.000345	3.447302	1.167977	0.000138
 114	1.1243e+01	4.4999	82.831933	0.000649	6.489038	2.198546	0.000260
 115	1.1343e+01	4.5400	83.021678	0.000477	4.765387	1.614557	0.000191
 116	1.1443e+01	4.5753	83.199312	0.000446	4.461214	1.511500	0.000179
 117	1.1542e+01	4.6186	83.437503	0.000598	5.982082	2.026784	0.000239
 118	1.1642e+01	4.6555	83.647434	0.000527	5.272343	1.786318	0.000211
 119	1.1741e+01	4.6956	83.873514	0.000568	5.677908	1.923727	0.000227
 120	1.1841e+01	4.7373	84.055185	0.000456	4.562605	1.545852	0.000183
 121	1.1940e+01	4.7678	84.313561	0.000649	6.489038	2.198546	0.000260
 122	1.2040e+01	4.8207	84.483121	0.000426	4.258431	1.442796	0.000170
 123	1.2139e+01	4.8528	84.713238	0.000578	5.779300	1.958080	0.000231
 124	1.2239e+01	4.8929	84.943354	0.000578	5.779300	1.958080	0.000231
 125	1.2338e+01	4.9442	85.104840	0.000406	4.055649	1.374091	0.000162
 126	1.2438e+01	4.9763	85.351105	0.000618	6.184864	2.095489	0.000248
 127	1.2537e+01	5.0245	85.532776	0.000456	4.562605	1.545852	0.000183
 128	1.2636e+01	5.0549	85.754819	0.000558	5.576517	1.889375	0.000223
 129	1.2736e+01	5.0902	85.964750	0.000527	5.272343	1.786318	0.000211
 130	1.2835e+01	5.1319	86.186792	0.000558	5.576517	1.889375	0.000223
 131	1.2935e+01	5.1704	86.416909	0.000578	5.779300	1.958080	0.000231
 132	1.3034e+01	5.2154	86.606654	0.000477	4.765387	1.614557	0.000191
 133	1.3134e+01	5.2587	86.824660	0.000548	5.475126	1.855023	0.000219
 134	1.3233e+01	5.2972	87.002294	0.000446	4.461214	1.511500	0.000179
 135	1.3333e+01	5.3325	87.240485	0.000598	5.982082	2.026784	0.000239
 136	1.3432e+01	5.3774	87.454453	0.000537	5.373735	1.820671	0.000215
 137	1.3532e+01	5.4127	87.668421	0.000537	5.373735	1.820671	0.000215
 138	1.3632e+01	5.4464	87.842018	0.000436	4.359822	1.477148	0.000174
 139	1.3731e+01	5.4961	88.076172	0.000588	5.880691	1.992432	0.000235
 140	1.3831e+01	5.5362	88.314363	0.000598	5.982082	2.026784	0.000239
 141	1.3930e+01	5.5715	88.500071	0.000466	4.663996	1.580205	0.000187
 142	1.4030e+01	5.6116	88.705965	0.000517	5.170952	1.751966	0.000207
 143	1.4129e+01	5.6565	88.940119	0.000588	5.880691	1.992432	0.000235
 144	1.4229e+01	5.6998	89.150050	0.000527	5.272343	1.786318	0.000211
 145	1.4328e+01	5.7335	89.347870	0.000497	4.968170	1.683262	0.000199
 146	1.4428e+01	5.7688	89.577986	0.000578	5.779300	1.958080	0.000231
 147	1.4527e+01	5.8121	89.787917	0.000527	5.272343	1.786318	0.000211
 148	1.4627e+01	5.8554	89.993811	0.000517	5.170952	1.751966	0.000207
 149	1.4726e+01	5.8891	90.236039	0.000608	6.083473	2.061137	0.000243
 150	1.4825e+01	5.9389	90.397525	0.000406	4.055649	1.374091	0.000162
 151	1.4925e+01	5.9710	90.615530	0.000548	5.475126	1.855023	0.000219
 152	1.5024e+01	6.0143	90.821424	0.000517	5.170952	1.751966	0.000207
 153	1.5124e+01	6.0544	91.039429	0.000548	5.475126	1.855023	0.000219
 154	1.5223e+01	6.0865	91.241286	0.000507	5.069561	1.717614	0.000203
 155	1.5323e+01	6.1378	91.479477	0.000598	5.982082	2.026784	0.000239
 156	1.5422e+01	6.1731	91.689408	0.000527	5.272343	1.786318	0.000211
 157	1.5522e+01	6.2052	91.911451	0.000558	5.576517	1.889375	0.000223
 158	1.5621e+01	6.2453	92.089085	0.000446	4.461214	1.511500	0.000179
 159	1.5721e+01	6.2902	92.351499	0.000659	6.590429	2.232898	0.000264
 160	1.5820e+01	6.3287	92.517021	0.000416	4.157040	1.408443	0.000166
 161	1.5920e+01	6.3720	92.739064	0.000558	5.576517	1.889375	0.000223
 162	1.6020e+01	6.4153	92.957069	0.000548	5.475126	1.855023	0.000219
 163	1.6119e+01	6.4474	93.199297	0.000608	6.083473	2.061137	0.000243
 164	1.6218e+01	6.4859	93.352708	0.000385	3.852866	1.305386	0.000154
 165	1.6318e+01	6.5324	93.574751	0.000558	5.576517	1.889375	0.000223
 166	1.6418e+01	6.5774	93.804867	0.000578	5.779300	1.958080	0.000231
 167	1.6517e+01	6.6110	94.051133	0.000618	6.184864	2.095489	0.000248
 168	1.6616e+01	6.6576	94.232804	0.000456	4.562605	1.545852	0.000183
 169	1.6716e+01	6.6897	94.406401	0.000436	4.359822	1.477148	0.000174
 170	1.6816e+01	6.7249	94.664777	0.000649	6.489038	2.198546	0.000260
 171	1.6915e+01	6.7618	94.822226	0.000395	3.954258	1.339739	0.000158
 172	1.7015e+01	6.8148	95.076565	0.000639	6.387647	2.164193	0.000256
 173	1.7114e+01	6.8437	95.290533	0.000537	5.373735	1.820671	0.000215
 174	1.7213e+01	6.8934	95.512576	0.000558	5.576517	1.889375	0.000223
 175	1.7313e+01	6.9335	95.690210	0.000446	4.461214	1.511500	0.000179
 176	1.7413e+01	6.9656	95.888029	0.000497	4.968170	1.683262	0.000199
 177	1.7512e+01	7.0089	96.142369	0.000639	6.387647	2.164193	0.000256
 178	1.7611e+01	7.0474	96.287706	0.000365	3.650084	1.236682	0.000146
 179	1.7711e+01	7.0811	96.505711	0.000548	5.475126	1.855023	0.000219
 180	1.7811e+01	7.1260	96.768125	0.000659	6.590429	2.232898	0.000264
 181	1.7910e+01	7.1613	96.982093	0.000537	5.373735	1.820671	0.000215
 182	1.8009e+01	7.2078	97.183950	0.000507	5.069561	1.717614	0.000203
 183	1.8109e+01	7.2463	97.337361	0.000385	3.852866	1.305386	0.000154
 184	1.8209e+01	7.2800	97.547292	0.000527	5.272343	1.786318	0.000211
 185	1.8308e+01	7.3297	97.785483	0.000598	5.982082	2.026784	0.000239
 186	1.8407e+01	7.3618	97.967154	0.000456	4.562605	1.545852	0.000183
 187	1.8507e+01	7.4019	98.164974	0.000497	4.968170	1.683262	0.000199
 188	1.8607e+01	7.4517	98.378942	0.000537	5.373735	1.820671	0.000215
 189	1.8706e+01	7.4789	98.596948	0.000548	5.475126	1.855023	0.000219
 190	1.8805e+01	7.5206	98.802841	0.000517	5.170952	1.751966	0.000207
 191	1.8905e+01	7.5720	99.008735	0.000517	5.170952	1.751966	0.000207
 192	1.9005e+01	7.6025	99.194444	0.000466	4.663996	1.580205	0.000187
 193	1.9104e+01	7.6490	99.388226	0.000487	4.866779	1.648909	0.000195
 194	1.9203e+01	7.6827	99.650640	0.000659	6.590429	2.232898	0.000264
 195	1.9303e+01	7.7196	99.836348	0.000466	4.663996	1.580205	0.000187
 196	1.9402e+01	7.7613	100.054354	0.000548	5.475126	1.855023	0.000219
 197	1.9502e+01	7.7998	100.268322	0.000537	5.373735	1.820671	0.000215
 198	1.9602e+01	7.8479	100.462104	0.000487	4.866779	1.648909	0.000195
 199	1.9701e+01	7.8832	100.655887	0.000487	4.866779	1.648909	0.000195
 200	1.9800e+01	7.9249	100.873892	0.000548	5.475126	1.855023	0.000219
 201	1.9900e+01	7.9714	101.095935	0.000558	5.576517	1.889375	0.000223
 202	2.0000e+01	8.0131	101.281643	0.000466	4.663996	1.580205	0.000187
 203	2.0099e+01	8.0404	101.447165	0.000416	4.157040	1.408443	0.000166
 204	2.0198e+01	8.0853	101.697468	0.000629	6.286256	2.129841	0.000252
 205	2.0298e+01	8.1158	101.907399	0.000527	5.272343	1.786318	0.000211
 206	2.0398e+01	8.1671	102.093107	0.000466	4.663996	1.580205	0.000187
 207	2.0497e+01	8.2008	102.294964	0.000507	5.069561	1.717614	0.000203
 208	2.0596e+01	8.2361	102.468561	0.000436	4.359822	1.477148	0.000174
 209	2.0696e+01	8.2778	102.690603	0.000558	5.576517	1.889375	0.000223
 210	2.0796e+01	8.3260	102.880349	0.000477	4.765387	1.614557	0.000191
 211	2.0895e+01	8.3629	103.094317	0.000537	5.373735	1.820671	0.000215
 212	2.0994e+01	8.3998	103.312322	0.000548	5.475126	1.855023	0.000219
 213	2.1094e+01	8.4383	103.530327	0.000548	5.475126	1.855023	0.000219
 214	2.1194e+01	8.4848	103.679701	0.000375	3.751475	1.271034	0.000150
 215	2.1293e+01	8.5233	103.917892	0.000598	5.982082	2.026784	0.000239
 216	2.1392e+01	8.5634	104.083415	0.000416	4.157040	1.408443	0.000166
 217	2.1492e+01	8.5923	104.273160	0.000477	4.765387	1.614557	0.000191
 218	2.1591e+01	8.6356	104.507314	0.000588	5.880691	1.992432	0.000235
 219	2.1691e+01	8.6837	104.693023	0.000466	4.663996	1.580205	0.000187
 220	2.1791e+01	8.7302	104.886805	0.000487	4.866779	1.648909	0.000195
 221	2.1890e+01	8.7543	105.116922	0.000578	5.779300	1.958080	0.000231
 222	2.1989e+01	8.8008	105.266296	0.000375	3.751475	1.271034	0.000150
 223	2.2089e+01	8.8377	105.488338	0.000558	5.576517	1.889375	0.000223
 224	2.2189e+01	8.8714	105.682121	0.000487	4.866779	1.648909	0.000195
 225	2.2288e+01	8.9067	105.883978	0.000507	5.069561	1.717614	0.000203
 226	2.2387e+01	8.9628	106.065649	0.000456	4.562605	1.545852	0.000183
 227	2.2487e+01	9.0014	106.275580	0.000527	5.272343	1.786318	0.000211
 228	2.2587e+01	9.0382	106.473399	0.000497	4.968170	1.683262	0.000199
 229	2.2686e+01	9.0751	106.655070	0.000456	4.562605	1.545852	0.000183
 230	2.2785e+01	9.1169	106.852890	0.000497	4.968170	1.683262	0.000199
 231	2.2885e+01	9.1473	107.038598	0.000466	4.663996	1.580205	0.000187
 232	2.2985e+01	9.2099	107.272752	0.000588	5.880691	1.992432	0.000235
 233	2.3084e+01	9.2372	107.426163	0.000385	3.852866	1.305386	0.000154
 234	2.3183e+01	9.2805	107.648206	0.000558	5.576517	1.889375	0.000223
 235	2.3283e+01	9.3222	107.850063	0.000507	5.069561	1.717614	0.000203
 236	2.3383e+01	9.3479	108.039808	0.000477	4.765387	1.614557	0.000191
 237	2.3482e+01	9.4008	108.253776	0.000537	5.373735	1.820671	0.000215
 238	2.3581e+01	9.4393	108.395076	0.000355	3.548693	1.202330	0.000142
 239	2.3681e+01	9.4826	108.576747	0.000456	4.562605	1.545852	0.000183
 240	2.3780e+01	9.5131	108.843198	0.000669	6.691821	2.267250	0.000268
 241	2.3880e+01	9.5500	109.020832	0.000446	4.461214	1.511500	0.000179
 242	2.3980e+01	9.5901	109.166169	0.000365	3.650084	1.236682	0.000146
 243	2.4079e+01	9.6366	109.359951	0.000487	4.866779	1.648909	0.000195
 244	2.4178e+01	9.6783	109.553734	0.000487	4.866779	1.648909	0.000195
 245	2.4278e+01	9.7120	109.723294	0.000426	4.258431	1.442796	0.000170
 246	2.4378e+01	9.7537	109.949373	0.000568	5.677908	1.923727	0.000227
 247	2.4477e+01	9.7890	110.131044	0.000456	4.562605	1.545852	0.000183
 248	2.4576e+01	9.8227	110.328864	0.000497	4.968170	1.683262	0.000199
 249	2.4676e+01	9.8708	110.482275	0.000385	3.852866	1.305386	0.000154
 250	2.4776e+01	9.9142	110.700281	0.000548	5.475126	1.855023	0.000219
 251	2.4875e+01	9.9527	110.885989	0.000466	4.663996	1.580205	0.000187
 252	2.4974e+01	9.9863	111.067660	0.000456	4.562605	1.545852	0.000183
 253	2.5074e+01	10.0281	111.281628	0.000537	5.373735	1.820671	0.000215
 254	2.5174e+01	10.0762	111.431002	0.000375	3.751475	1.271034	0.000150
 255	2.5273e+01	10.1163	111.640933	0.000527	5.272343	1.786318	0.000211
 256	2.5372e+01	10.1564	111.862976	0.000558	5.576517	1.889375	0.000223
 257	2.5472e+01	10.1965	112.044647	0.000456	4.562605	1.545852	0.000183
 258	2.5572e+01	10.2302	112.206132	0.000406	4.055649	1.374091	0.000162
 259	2.5671e+01	10.2719	112.391840	0.000466	4.663996	1.580205	0.000187
 260	2.5770e+01	10.3104	112.577549	0.000466	4.663996	1.580205	0.000187
 261	2.5870e+01	10.3489	112.743071	0.000416	4.157040	1.408443	0.000166
 262	2.5970e+01	10.3874	112.932817	0.000477	4.765387	1.614557	0.000191
 263	2.6069e+01	10.4355	113.134673	0.000507	5.069561	1.717614	0.000203
 264	2.6169e+01	10.4724	113.344604	0.000527	5.272343	1.786318	0.000211
 265	2.6268e+01	10.5157	113.546461	0.000507	5.069561	1.717614	0.000203
 266	2.6367e+01	10.5494	113.736207	0.000477	4.765387	1.614557	0.000191
 267	2.6467e+01	10.5895	113.889618	0.000385	3.852866	1.305386	0.000154
 268	2.6567e+01	10.6409	114.091475	0.000507	5.069561	1.717614	0.000203
 269	2.6666e+01	10.6746	114.281220	0.000477	4.765387	1.614557	0.000191
 270	2.6765e+01	10.7147	114.454817	0.000436	4.359822	1.477148	0.000174
 271	2.6865e+01	10.7612	114.628414	0.000436	4.359822	1.477148	0.000174
 272	2.6965e+01	10.7885	114.830270	0.000507	5.069561	1.717614	0.000203
 273	2.7064e+01	10.8318	115.036164	0.000517	5.170952	1.751966	0.000207
 274	2.7163e+01	10.8623	115.213798	0.000446	4.461214	1.511500	0.000179
 275	2.7263e+01	10.9088	115.415655	0.000507	5.069561	1.717614	0.000203
 276	2.7363e+01	10.9537	115.585215	0.000426	4.258431	1.442796	0.000170
 277	2.7462e+01	10.9842	115.766886	0.000456	4.562605	1.545852	0.000183
 278	2.7561e+01	11.0323	115.960668	0.000487	4.866779	1.648909	0.000195
 279	2.7661e+01	11.0740	116.110042	0.000375	3.751475	1.271034	0.000150
 280	2.7761e+01	11.1141	116.324011	0.000537	5.373735	1.820671	0.000215
 281	2.7860e+01	11.1430	116.525867	0.000507	5.069561	1.717614	0.000203
 282	2.7959e+01	11.1943	116.663130	0.000345	3.447302	1.167977	0.000138
 283	2.8059e+01	11.2328	116.824615	0.000406	4.055649	1.374091	0.000162
 284	2.8159e+01	11.2729	117.058769	0.000588	5.880691	1.992432	0.000235
 285	2.8258e+01	11.3147	117.248515	0.000477	4.765387	1.614557	0.000191
 286	2.8358e+01	11.3596	117.410000	0.000406	4.055649	1.374091	0.000162
 287	2.8457e+01	11.3884	117.619931	0.000527	5.272343	1.786318	0.000211
 288	2.8556e+01	11.4253	117.781417	0.000406	4.055649	1.374091	0.000162
 289	2.8656e+01	11.4590	117.946939	0.000416	4.157040	1.408443	0.000166
 290	2.8756e+01	11.5136	118.156870	0.000527	5.272343	1.786318	0.000211
 291	2.8855e+01	11.5521	118.354690	0.000497	4.968170	1.683262	0.000199
 292	2.8954e+01	11.5938	118.524250	0.000426	4.258431	1.442796	0.000170
 293	2.9054e+01	11.6307	118.693809	0.000426	4.258431	1.442796	0.000170
 294	2.9154e+01	11.6660	118.883555	0.000477	4.765387	1.614557	0.000191
 295	2.9253e+01	11.7109	119.053114	0.000426	4.258431	1.442796	0.000170
 296	2.9352e+01	11.7430	119.222674	0.000426	4.258431	1.442796	0.000170
 297	2.9452e+01	11.7895	119.404345	0.000456	4.562605	1.545852	0.000183
 298	2.9552e+01	11.8360	119.569868	0.000416	4.157040	1.408443	0.000166
 299	2.9651e+01	11.8617	119.799984	0.000578	5.779300	1.958080	0.000231
 300	2.9750e+01	11.9114	119.929173	0.000324	3.244519	1.099273	0.000130
 301	2.9850e+01	11.9419	120.126992	0.000497	4.968170	1.683262	0.000199
 302	2.9950e+01	11.9852	120.349035	0.000558	5.576517	1.889375	0.000223
 303	3.0049e+01	12.0301	120.514557	0.000416	4.157040	1.408443	0.000166
 304	3.0148e+01	12.0702	120.696229	0.000456	4.562605	1.545852	0.000183
 305	3.0248e+01	12.1087	120.845603	0.000375	3.751475	1.271034	0.000150
 306	3.0348e+01	12.1456	121.031311	0.000466	4.663996	1.580205	0.000187
 307	3.0447e+01	12.1858	121.229131	0.000497	4.968170	1.683262	0.000199
 308	3.0547e+01	12.2307	121.406764	0.000446	4.461214	1.511500	0.000179
 309	3.0646e+01	12.2595	121.588436	0.000456	4.562605	1.545852	0.000183
 310	3.0745e+01	12.3093	121.770107	0.000456	4.562605	1.545852	0.000183
 311	3.0845e+01	12.3398	121.971963	0.000507	5.069561	1.717614	0.000203
 312	3.0945e+01	12.3895	122.125375	0.000385	3.852866	1.305386	0.000154
 313	3.1044e+01	12.4344	122.335306	0.000527	5.272343	1.786318	0.000211
 314	3.1143e+01	12.4681	122.484680	0.000375	3.751475	1.271034	0.000150
 315	3.1243e+01	12.5082	122.678462	0.000487	4.866779	1.648909	0.000195
 316	3.1343e+01	12.5419	122.848022	0.000426	4.258431	1.442796	0.000170
 317	3.1442e+01	12.5836	123.037767	0.000477	4.765387	1.614557	0.000191
 318	3.1541e+01	12.6269	123.223476	0.000466	4.663996	1.580205	0.000187
 319	3.1641e+01	12.6606	123.376887	0.000385	3.852866	1.305386	0.000154
 320	3.1741e+01	12.6991	123.566632	0.000477	4.765387	1.614557	0.000191
 321	3.1840e+01	12.7456	123.760415	0.000487	4.866779	1.648909	0.000195
 322	3.1939e+01	12.7873	123.917863	0.000395	3.954258	1.339739	0.000158
 323	3.2039e+01	12.8339	124.119720	0.000507	5.069561	1.717614	0.000203
 324	3.2139e+01	12.8611	124.277168	0.000395	3.954258	1.339739	0.000158
 325	3.2238e+01	12.9077	124.454802	0.000446	4.461214	1.511500	0.000179
 326	3.2337e+01	12.9365	124.660696	0.000517	5.170952	1.751966	0.000207
 327	3.2437e+01	12.9798	124.838330	0.000446	4.461214	1.511500	0.000179
 328	3.2536e+01	13.0200	125.015964	0.000446	4.461214	1.511500	0.000179
 329	3.2636e+01	13.0617	125.193598	0.000446	4.461214	1.511500	0.000179
 330	3.2736e+01	13.1002	125.383343	0.000477	4.765387	1.614557	0.000191
 331	3.2835e+01	13.1435	125.565014	0.000456	4.562605	1.545852	0.000183
 332	3.2934e+01	13.1820	125.730537	0.000416	4.157040	1.408443	0.000166
 333	3.3034e+01	13.2125	125.892022	0.000406	4.055649	1.374091	0.000162
 334	3.3133e+01	13.2638	126.077731	0.000466	4.663996	1.580205	0.000187
 335	3.3233e+01	13.2959	126.247290	0.000426	4.258431	1.442796	0.000170
 336	3.3333e+01	13.3408	126.432998	0.000466	4.663996	1.580205	0.000187
 337	3.3432e+01	13.3841	126.626781	0.000487	4.866779	1.648909	0.000195
 338	3.3532e+01	13.4194	126.792304	0.000416	4.157040	1.408443	0.000166
 339	3.3631e+01	13.4595	126.957826	0.000416	4.157040	1.408443	0.000166
 340	3.3730e+01	13.5044	127.147572	0.000477	4.765387	1.614557	0.000191
 341	3.3830e+01	13.5397	127.349428	0.000507	5.069561	1.717614	0.000203
 342	3.3929e+01	13.5798	127.498802	0.000375	3.751475	1.271034	0.000150
 343	3.4029e+01	13.6119	127.664325	0.000416	4.157040	1.408443	0.000166
 344	3.4129e+01	13.6536	127.858107	0.000487	4.866779	1.648909	0.000195
 345	3.4228e+01	13.7001	128.035741	0.000446	4.461214	1.511500	0.000179
 346	3.4328e+01	13.7483	128.209338	0.000436	4.359822	1.477148	0.000174
 347	3.4427e+01	13.7804	128.399084	0.000477	4.765387	1.614557	0.000191
 348	3.4526e+01	13.8140	128.568643	0.000426	4.258431	1.442796	0.000170
 349	3.4626e+01	13.8526	128.758389	0.000477	4.765387	1.614557	0.000191
 350	3.4725e+01	13.9087	128.891614	0.000335	3.345910	1.133625	0.000134
 351	3.4825e+01	13.9376	129.109619	0.000548	5.475126	1.855023	0.000219
 352	3.4925e+01	13.9777	129.250919	0.000355	3.548693	1.202330	0.000142
 353	3.5024e+01	14.0082	129.408368	0.000395	3.954258	1.339739	0.000158
 354	3.5123e+01	14.0595	129.581964	0.000436	4.359822	1.477148	0.000174
 355	3.5223e+01	14.0996	129.791895	0.000527	5.272343	1.786318	0.000211
 356	3.5322e+01	14.1397	129.957418	0.000416	4.157040	1.408443	0.000166
 357	3.5422e+01	14.1846	130.126978	0.000426	4.258431	1.442796	0.000170
 358	3.5522e+01	14.2215	130.264240	0.000345	3.447302	1.167977	0.000138
 359	3.5621e+01	14.2552	130.494357	0.000578	5.779300	1.958080	0.000231
 360	3.5721e+01	14.2937	130.684102	0.000477	4.765387	1.614557	0.000191
 361	3.5820e+01	14.3338	130.845588	0.000406	4.055649	1.374091	0.000162
 362	3.5919e+01	14.3787	130.986888	0.000355	3.548693	1.202330	0.000142
 363	3.6019e+01	14.4156	131.152410	0.000416	4.157040	1.408443	0.000166
 364	3.6118e+01	14.4638	131.342156	0.000477	4.765387	1.614557	0.000191
 365	3.6218e+01	14.4958	131.495567	0.000385	3.852866	1.305386	0.000154
 366	3.6318e+01	14.5440	131.657052	0.000406	4.055649	1.374091	0.000162
 367	3.6417e+01	14.5761	131.862946	0.000517	5.170952	1.751966	0.000207
 368	3.6517e+01	14.6178	132.052691	0.000477	4.765387	1.614557	0.000191
 369	3.6616e+01	14.6531	132.193991	0.000355	3.548693	1.202330	0.000142
 370	3.6715e+01	14.6964	132.355477	0.000406	4.055649	1.374091	0.000162
 371	3.6815e+01	14.7333	132.525036	0.000426	4.258431	1.442796	0.000170
 372	3.6914e+01	14.7734	132.730930	0.000517	5.170952	1.751966	0.000207
 373	3.7014e+01	14.8103	132.904527	0.000436	4.359822	1.477148	0.000174
 374	3.7114e+01	14.8552	133.061975	0.000395	3.954258	1.339739	0.000158
 375	3.7213e+01	14.8873	133.255758	0.000487	4.866779	1.648909	0.000195
 376	3.7313e+01	14.9386	133.368798	0.000284	2.838954	0.961864	0.000114
 377	3.7412e+01	14.9739	133.566617	0.000497	4.968170	1.683262	0.000199
 378	3.7511e+01	15.0124	133.703880	0.000345	3.447302	1.167977	0.000138
 379	3.7611e+01	15.0557	133.901700	0.000497	4.968170	1.683262	0.000199
 380	3.7711e+01	15.0926	134.047036	0.000365	3.650084	1.236682	0.000146
 381	3.7810e+01	15.1407	134.236782	0.000477	4.765387	1.614557	0.000191
 382	3.7910e+01	15.1696	134.406342	0.000426	4.258431	1.442796	0.000170
 383	3.8009e+01	15.2145	134.563790	0.000395	3.954258	1.339739	0.000158
 384	3.8108e+01	15.2514	134.721238	0.000395	3.954258	1.339739	0.000158
 385	3.8208e+01	15.2915	134.882724	0.000406	4.055649	1.374091	0.000162
 386	3.8307e+01	15.3284	135.092655	0.000527	5.272343	1.786318	0.000211
 387	3.8407e+01	15.3766	135.229917	0.000345	3.447302	1.167977	0.000138
 388	3.8507e+01	15.4071	135.399477	0.000426	4.258431	1.442796	0.000170
 389	3.8606e+01	15.4488	135.593259	0.000487	4.866779	1.648909	0.000195
 390	3.8706e+01	15.4937	135.734559	0.000355	3.548693	1.202330	0.000142
 391	3.8805e+01	15.5242	135.900082	0.000416	4.157040	1.408443	0.000166
 392	3.8904e+01	15.5627	136.101939	0.000507	5.069561	1.717614	0.000203
 393	3.9004e+01	15.6076	136.239201	0.000345	3.447302	1.167977	0.000138
 394	3.9103e+01	15.6493	136.424909	0.000466	4.663996	1.580205	0.000187
 395	3.9203e+01	15.6942	136.578321	0.000385	3.852866	1.305386	0.000154
 396	3.9303e+01	15.7295	136.739806	0.000406	4.055649	1.374091	0.000162
 397	3.9402e+01	15.7744	136.885143	0.000365	3.650084	1.236682	0.000146
 398	3.9502e+01	15.8129	137.038554	0.000385	3.852866	1.305386	0.000154
 399	3.9601e+01	15.8530	137.224262	0.000466	4.663996	1.580205	0.000187
 400	3.9700e+01	15.8835	137.353451	0.000324	3.244519	1.099273	0.000130
 401	3.9800e+01	15.9332	137.523010	0.000426	4.258431	1.442796	0.000170
 402	3.9900e+01	15.9669	137.696607	0.000436	4.359822	1.477148	0.000174
 403	3.9999e+01	16.0086	137.894427	0.000497	4.968170	1.683262	0.000199
 404	4.0099e+01	16.0584	138.023615	0.000324	3.244519	1.099273	0.000130
 405	4.0198e+01	16.0856	138.197212	0.000436	4.359822	1.477148	0.000174
 406	4.0297e+01	16.1338	138.326400	0.000324	3.244519	1.099273	0.000130
 407	4.0397e+01	16.1691	138.524220	0.000497	4.968170	1.683262	0.000199
 408	4.0496e+01	16.2140	138.673594	0.000375	3.751475	1.271034	0.000150
 409	4.0596e+01	16.2541	138.818931	0.000365	3.650084	1.236682	0.000146
 410	4.0696e+01	16.2862	138.964268	0.000365	3.650084	1.236682	0.000146
 411	4.0795e+01	16.3263	139.129790	0.000416	4.157040	1.408443	0.000166
 412	4.0895e+01	16.3664	139.291276	0.000406	4.055649	1.374091	0.000162
 413	4.0994e+01	16.4081	139.452761	0.000406	4.055649	1.374091	0.000162
 414	4.1093e+01	16.4466	139.618284	0.000416	4.157040	1.408443	0.000166
 415	4.1193e+01	16.4899	139.783806	0.000416	4.157040	1.408443	0.000166
 416	4.1292e+01	16.5220	139.937218	0.000385	3.852866	1.305386	0.000154
 417	4.1392e+01	16.5589	140.086592	0.000375	3.751475	1.271034	0.000150
 418	4.1492e+01	16.6070	140.235966	0.000375	3.751475	1.271034	0.000150
 419	4.1591e+01	16.6423	140.413600	0.000446	4.461214	1.511500	0.000179
 420	4.1691e+01	16.6792	140.579122	0.000416	4.157040	1.408443	0.000166
 421	4.1790e+01	16.7386	140.716385	0.000345	3.447302	1.167977	0.000138
 422	4.1889e+01	16.7642	140.869796	0.000385	3.852866	1.305386	0.000154
 423	4.1989e+01	16.8124	141.023207	0.000385	3.852866	1.305386	0.000154
 424	4.2089e+01	16.8444	141.192767	0.000426	4.258431	1.442796	0.000170
 425	4.2188e+01	16.8926	141.346178	0.000385	3.852866	1.305386	0.000154
 426	4.2288e+01	16.9279	141.491515	0.000365	3.650084	1.236682	0.000146
 427	4.2387e+01	16.9648	141.681260	0.000477	4.765387	1.614557	0.000191
 428	4.2486e+01	17.0017	141.834671	0.000385	3.852866	1.305386	0.000154
 429	4.2586e+01	17.0482	141.980008	0.000365	3.650084	1.236682	0.000146
 430	4.2685e+01	17.0787	142.113234	0.000335	3.345910	1.133625	0.000134
 431	4.2785e+01	17.1236	142.286831	0.000436	4.359822	1.477148	0.000174
 432	4.2885e+01	17.1781	142.480613	0.000487	4.866779	1.648909	0.000195
 433	4.2984e+01	17.1974	142.577504	0.000243	2.433389	0.824455	0.000097
 434	4.3084e+01	17.2471	142.747064	0.000426	4.258431	1.442796	0.000170
 435	4.3183e+01	17.2808	142.892401	0.000365	3.650084	1.236682	0.000146
 436	4.3282e+01	17.3225	143.061961	0.000426	4.258431	1.442796	0.000170
 437	4.3382e+01	17.3610	143.231520	0.000426	4.258431	1.442796	0.000170
 438	4.3481e+01	17.4107	143.388969	0.000395	3.954258	1.339739	0.000158
 439	4.3581e+01	17.4380	143.489897	0.000253	2.534781	0.858807	0.000101
 440	4.3681e+01	17.4893	143.724051	0.000588	5.880691	1.992432	0.000235
 441	4.3780e+01	17.5311	143.845165	0.000304	3.041737	1.030568	0.000122
 442	4.3880e+01	17.5631	143.982428	0.000345	3.447302	1.167977	0.000138
 443	4.3979e+01	17.6032	144.147950	0.000416	4.157040	1.408443	0.000166
 444	4.4078e+01	17.6498	144.305398	0.000395	3.954258	1.339739	0.000158
 445	4.4178e+01	17.6899	144.483032	0.000446	4.461214	1.511500	0.000179
 446	4.4278e+01	17.7123	144.624332	0.000355	3.548693	1.202330	0.000142
 447	4.4377e+01	17.7669	144.797929	0.000436	4.359822	1.477148	0.000174
 448	4.4477e+01	17.8086	144.943266	0.000365	3.650084	1.236682	0.000146
 449	4.4576e+01	17.8359	145.088603	0.000365	3.650084	1.236682	0.000146
 450	4.4675e+01	17.8728	145.254125	0.000416	4.157040	1.408443	0.000166
 451	4.4775e+01	17.9161	145.371202	0.000294	2.940345	0.996216	0.000118
 452	4.4874e+01	17.9546	145.548836	0.000446	4.461214	1.511500	0.000179
 453	4.4974e+01	18.0075	145.710322	0.000406	4.055649	1.374091	0.000162
 454	4.5074e+01	18.0444	145.859696	0.000375	3.751475	1.271034	0.000150
 455	4.5173e+01	18.0845	146.005033	0.000365	3.650084	1.236682	0.000146
 456	4.5273e+01	18.1246	146.142295	0.000345	3.447302	1.167977	0.000138
 457	4.5372e+01	18.1663	146.303781	0.000406	4.055649	1.374091	0.000162
 458	4.5471e+01	18.2032	146.477377	0.000436	4.359822	1.477148	0.000174
 459	4.5571e+01	18.2417	146.630789	0.000385	3.852866	1.305386	0.000154
 460	4.5670e+01	18.2818	146.755940	0.000314	3.143128	1.064921	0.000126
 461	4.5770e+01	18.3203	146.941648	0.000466	4.663996	1.580205	0.000187
 462	4.5870e+01	18.3588	147.074874	0.000335	3.345910	1.133625	0.000134
 463	4.5969e+01	18.4006	147.195988	0.000304	3.041737	1.030568	0.000122
 464	4.6069e+01	18.4358	147.373622	0.000446	4.461214	1.511500	0.000179
 465	4.6168e+01	18.4759	147.510884	0.000345	3.447302	1.167977	0.000138
 466	4.6267e+01	18.5273	147.668332	0.000395	3.954258	1.339739	0.000158
 467	4.6367e+01	18.5626	147.874226	0.000517	5.170952	1.751966	0.000207
 468	4.6467e+01	18.6027	147.991303	0.000294	2.940345	0.996216	0.000118
 469	4.6566e+01	18.6460	148.148752	0.000395	3.954258	1.339739	0.000158
 470	4.6666e+01	18.6861	148.314274	0.000416	4.157040	1.408443	0.000166
 471	4.6765e+01	18.7214	148.471722	0.000395	3.954258	1.339739	0.000158
 472	4.6864e+01	18.7583	148.608985	0.000345	3.447302	1.167977	0.000138
 473	4.6964e+01	18.8080	148.798730	0.000477	4.765387	1.614557	0.000191
 474	4.7063e+01	18.8465	148.903696	0.000264	2.636172	0.893159	0.000105
 475	4.7163e+01	18.8754	149.089404	0.000466	4.663996	1.580205	0.000187
 476	4.7263e+01	18.9123	149.254927	0.000416	4.157040	1.408443	0.000166
 477	4.7362e+01	18.9588	149.388152	0.000335	3.345910	1.133625	0.000134
 478	4.7462e+01	18.9893	149.533489	0.000365	3.650084	1.236682	0.000146
 479	4.7561e+01	19.0342	149.686900	0.000385	3.852866	1.305386	0.000154
 480	4.7660e+01	19.0759	149.803977	0.000294	2.940345	0.996216	0.000118
 481	4.7760e+01	19.1160	149.945277	0.000355	3.548693	1.202330	0.000142
 482	4.7859e+01	19.1513	150.143097	0.000497	4.968170	1.683262	0.000199
 483	4.7959e+01	19.1946	150.292471	0.000375	3.751475	1.271034	0.000150
 484	4.8059e+01	19.2348	150.437808	0.000365	3.650084	1.236682	0.000146
 485	4.8158e+01	19.2797	150.607367	0.000426	4.258431	1.442796	0.000170
 486	4.8258e+01	19.3214	150.728481	0.000304	3.041737	1.030568	0.000122
 487	4.8357e+01	19.3551	150.922264	0.000487	4.866779	1.648909	0.000195
 488	4.8456e+01	19.4000	151.039341	0.000294	2.940345	0.996216	0.000118
 489	4.8556e+01	19.4353	151.172566	0.000335	3.345910	1.133625	0.000134
 490	4.8656e+01	19.4690	151.366349	0.000487	4.866779	1.648909	0.000195
 491	4.8755e+01	19.5187	151.507649	0.000355	3.548693	1.202330	0.000142
 492	4.8855e+01	19.5572	151.644911	0.000345	3.447302	1.167977	0.000138
 493	4.8954e+01	19.6005	151.802359	0.000395	3.954258	1.339739	0.000158
 494	4.9053e+01	19.6342	151.971919	0.000426	4.258431	1.442796	0.000170
 495	4.9153e+01	19.6727	152.097070	0.000314	3.143128	1.064921	0.000126
 496	4.9252e+01	19.7192	152.270667	0.000436	4.359822	1.477148	0.000174
 497	4.9352e+01	19.7449	152.456375	0.000466	4.663996	1.580205	0.000187
 498	4.9452e+01	19.7914	152.589601	0.000335	3.345910	1.133625	0.000134
 499	4.9551e+01	19.8331	152.734938	0.000365	3.650084	1.236682	0.000146
 500	4.9651e+01	19.8748	152.876238	0.000355	3.548693	1.202330	0.000142
 501	4.9750e+01	19.9230	153.037723	0.000406	4.055649	1.374091	0.000162
 502	4.9849e+01	19.9551	153.215357	0.000446	4.461214	1.511500	0.000179
 503	4.9949e+01	19.9839	153.312248	0.000243	2.433389	0.824455	0.000097
 504	5.0048e+01	19.9518	153.251691	0.000152	1.520868	0.515284	-0.000061
 505	5.0148e+01	19.9149	153.170948	0.000203	2.027824	0.687046	-0.000081
 506	5.0248e+01	19.8732	153.082131	0.000223	2.230607	0.755750	-0.000089
 507	5.0347e+01	19.8363	152.993314	0.000223	2.230607	0.755750	-0.000089
 508	5.0447e+01	19.7978	152.912572	0.000203	2.027824	0.687046	-0.000081
 509	5.0546e+01	19.7545	152.827792	0.000213	2.129216	0.721398	-0.000085
 510	5.0645e+01	19.7192	152.678418	0.000375	3.751475	1.271034	-0.000150
 511	5.0745e+01	19.6759	152.638047	0.000101	1.013912	0.343523	-0.000041
 512	5.0844e+01	19.6358	152.484635	0.000385	3.852866	1.305386	-0.000154
 513	5.0944e+01	19.5957	152.403893	0.000203	2.027824	0.687046	-0.000081
 514	5.1044e+01	19.5604	152.290853	0.000284	2.838954	0.961864	-0.000114
 515	5.1143e+01	19.5091	152.173776	0.000294	2.940345	0.996216	-0.000118
 516	5.1242e+01	19.4674	152.072848	0.000253	2.534781	0.858807	-0.000101
 517	5.1342e+01	19.4337	151.971919	0.000253	2.534781	0.858807	-0.000101
 518	5.1441e+01	19.4048	151.838694	0.000335	3.345910	1.133625	-0.000134
 519	5.1541e+01	19.3567	151.778137	0.000152	1.520868	0.515284	-0.000061
 520	5.1641e+01	19.3230	151.681245	0.000243	2.433389	0.824455	-0.000097
 521	5.1740e+01	19.2829	151.535908	0.000365	3.650084	1.236682	-0.000146
 522	5.1840e+01	19.2412	151.426906	0.000274	2.737563	0.927511	-0.000110
 523	5.1939e+01	19.1914	151.297717	0.000324	3.244519	1.099273	-0.000130
 524	5.2038e+01	19.1545	151.192752	0.000264	2.636172	0.893159	-0.000105
 525	5.2138e+01	19.1225	151.063564	0.000324	3.244519	1.099273	-0.000130
 526	5.2237e+01	19.0759	150.978784	0.000213	2.129216	0.721398	-0.000085
 527	5.2337e+01	19.0455	150.841521	0.000345	3.447302	1.167977	-0.000138
 528	5.2437e+01	19.0021	150.716370	0.000314	3.143128	1.064921	-0.000126
 529	5.2536e+01	18.9540	150.627553	0.000223	2.230607	0.755750	-0.000089
 530	5.2636e+01	18.9203	150.526625	0.000253	2.534781	0.858807	-0.000101
 531	5.2735e+01	18.8754	150.357065	0.000426	4.258431	1.442796	-0.000170
 532	5.2834e+01	18.8369	150.276322	0.000203	2.027824	0.687046	-0.000081
 533	5.2934e+01	18.8048	150.163282	0.000284	2.838954	0.961864	-0.000114
 534	5.3033e+01	18.7631	150.090614	0.000183	1.825042	0.618341	-0.000073
 535	5.3133e+01	18.7198	149.933166	0.000395	3.954258	1.339739	-0.000158
 536	5.3233e+01	18.6797	149.848386	0.000213	2.129216	0.721398	-0.000085
 537	5.3332e+01	18.6284	149.686900	0.000406	4.055649	1.374091	-0.000162
 538	5.3431e+01	18.5979	149.614232	0.000183	1.825042	0.618341	-0.000073
 539	5.3531e+01	18.5658	149.460821	0.000385	3.852866	1.305386	-0.000154
 540	5.3630e+01	18.5209	149.351818	0.000274	2.737563	0.927511	-0.000110
 541	5.3730e+01	18.4824	149.250890	0.000253	2.534781	0.858807	-0.000101
 542	5.3830e+01	18.4423	149.125738	0.000314	3.143128	1.064921	-0.000126
 543	5.3929e+01	18.3973	149.012699	0.000284	2.838954	0.961864	-0.000114
 544	5.4029e+01	18.3540	148.863325	0.000375	3.751475	1.271034	-0.000150
 545	5.4128e+01	18.3155	148.786619	0.000193	1.926433	0.652693	-0.000077
 546	5.4227e+01	18.2802	148.625134	0.000406	4.055649	1.374091	-0.000162
 547	5.4327e+01	18.2417	148.524205	0.000253	2.534781	0.858807	-0.000101
 548	5.4426e+01	18.2016	148.443463	0.000203	2.027824	0.687046	-0.000081
 549	5.4526e+01	18.1663	148.269866	0.000436	4.359822	1.477148	-0.000174
 550	5.4626e+01	18.1278	148.144714	0.000314	3.143128	1.064921	-0.000126
 551	5.4725e+01	18.0861	147.995340	0.000375	3.751475	1.271034	-0.000150
 552	5.4825e+01	18.0380	147.910561	0.000213	2.129216	0.721398	-0.000085
 553	5.4924e+01	17.9995	147.773298	0.000345	3.447302	1.167977	-0.000138
 554	5.5023e+01	17.9610	147.660258	0.000284	2.838954	0.961864	-0.000114
 555	5.5123e+01	17.9145	147.539144	0.000304	3.041737	1.030568	-0.000122
 556	5.5222e+01	17.8792	147.381696	0.000395	3.954258	1.339739	-0.000158
 557	5.5322e+01	17.8519	147.296916	0.000213	2.129216	0.721398	-0.000085
 558	5.5422e+01	17.8070	147.143505	0.000385	3.852866	1.305386	-0.000154
 559	5.5521e+01	17.7621	147.006242	0.000345	3.447302	1.167977	-0.000138
 560	5.5620e+01	17.7220	146.873017	0.000335	3.345910	1.133625	-0.000134
 561	5.5720e+01	17.6835	146.784200	0.000223	2.230607	0.755750	-0.000089
 562	5.5819e+01	17.6417	146.655011	0.000324	3.244519	1.099273	-0.000130
 563	5.5919e+01	17.6016	146.525823	0.000324	3.244519	1.099273	-0.000130
 564	5.6019e+01	17.5599	146.380486	0.000365	3.650084	1.236682	-0.000146
 565	5.6118e+01	17.5246	146.267446	0.000284	2.838954	0.961864	-0.000114
 566	5.6218e+01	17.4829	146.134221	0.000335	3.345910	1.133625	-0.000134
 567	5.6317e+01	17.4476	146.025218	0.000274	2.737563	0.927511	-0.000110
 568	5.6416e+01	17.3995	145.867770	0.000395	3.954258	1.339739	-0.000158
 569	5.6516e+01	17.3690	145.730507	0.000345	3.447302	1.167977	-0.000138
 570	5.6615e+01	17.3289	145.641690	0.000223	2.230607	0.755750	-0.000089
 571	5.6715e+01	17.2824	145.464056	0.000446	4.461214	1.511500	-0.000179
 572	5.6815e+01	17.2423	145.342942	0.000304	3.041737	1.030568	-0.000122
 573	5.6914e+01	17.2070	145.197605	0.000365	3.650084	1.236682	-0.000146
 574	5.7014e+01	17.1621	145.116863	0.000203	2.027824	0.687046	-0.000081
 575	5.7113e+01	17.1252	144.967489	0.000375	3.751475	1.271034	-0.000150
 576	5.7212e+01	17.0899	144.785818	0.000456	4.562605	1.545852	-0.000183
 577	5.7312e+01	17.0370	144.692963	0.000233	2.331998	0.790102	-0.000093
 578	5.7411e+01	17.0049	144.523404	0.000426	4.258431	1.442796	-0.000170
 579	5.7511e+01	16.9680	144.406327	0.000294	2.940345	0.996216	-0.000118
 580	5.7611e+01	16.9231	144.301361	0.000264	2.636172	0.893159	-0.000105
 581	5.7710e+01	16.8862	144.115653	0.000466	4.663996	1.580205	-0.000187
 582	5.7809e+01	16.8460	144.022799	0.000233	2.331998	0.790102	-0.000093
 583	5.7909e+01	16.8124	143.873425	0.000375	3.751475	1.271034	-0.000150
 584	5.8008e+01	16.7642	143.720014	0.000385	3.852866	1.305386	-0.000154
 585	5.8108e+01	16.7241	143.574677	0.000365	3.650084	1.236682	-0.000146
 586	5.8208e+01	16.6872	143.457600	0.000294	2.940345	0.996216	-0.000118
 587	5.8307e+01	16.6535	143.348597	0.000274	2.737563	0.927511	-0.000110
 588	5.8407e+01	16.6038	143.203260	0.000365	3.650084	1.236682	-0.000146
 589	5.8506e+01	16.5605	143.065998	0.000345	3.447302	1.167977	-0.000138
 590	5.8605e+01	16.5220	142.924698	0.000355	3.548693	1.202330	-0.000142
 591	5.8705e+01	16.4819	142.755138	0.000426	4.258431	1.442796	-0.000170
 592	5.8804e+01	16.4514	142.638061	0.000294	2.940345	0.996216	-0.000118
 593	5.8904e+01	16.4049	142.488687	0.000375	3.751475	1.271034	-0.000150
 594	5.9004e+01	16.3632	142.363536	0.000314	3.143128	1.064921	-0.000126
 595	5.9103e+01	16.3311	142.242422	0.000304	3.041737	1.030568	-0.000122
 596	5.9203e+01	16.2958	142.089011	0.000385	3.852866	1.305386	-0.000154
 597	5.9302e+01	16.2541	141.959823	0.000324	3.244519	1.099273	-0.000130
 598	5.9401e+01	16.2140	141.814486	0.000365	3.650084	1.236682	-0.000146
 599	5.9501e+01	16.1739	141.673186	0.000355	3.548693	1.202330	-0.000142
 600	5.9600e+01	16.1274	141.576295	0.000243	2.433389	0.824455	-0.000097
 601	5.9700e+01	16.0889	141.394624	0.000456	4.562605	1.545852	-0.000183
 602	5.9800e+01	16.0471	141.273509	0.000304	3.041737	1.030568	-0.000122
 603	5.9899e+01	16.0118	141.152395	0.000304	3.041737	1.030568	-0.000122
 604	5.9998e+01	15.9717	141.027244	0.000314	3.143128	1.064921	-0.000126
 605	6.0098e+01	15.9268	140.906130	0.000304	3.041737	1.030568	-0.000122
 606	6.0197e+01	15.8915	140.728496	0.000446	4.461214	1.511500	-0.000179
 607	6.0297e+01	15.8514	140.518565	0.000527	5.272343	1.786318	-0.000211
 608	6.0397e+01	15.8145	140.470119	0.000122	1.216695	0.412227	-0.000049
 609	6.0496e+01	15.7712	140.312671	0.000395	3.954258	1.339739	-0.000158
 610	6.0596e+01	15.7279	140.147149	0.000416	4.157040	1.408443	-0.000166
 611	6.0695e+01	15.6846	140.017960	0.000324	3.244519	1.099273	-0.000130
 612	6.0794e+01	15.6493	139.912995	0.000264	2.636172	0.893159	-0.000105
 613	6.0894e+01	15.6076	139.763621	0.000375	3.751475	1.271034	-0.000150
 614	6.0993e+01	15.5659	139.622321	0.000355	3.548693	1.202330	-0.000142
 615	6.1093e+01	15.5370	139.440650	0.000456	4.562605	1.545852	-0.000183
 616	6.1193e+01	15.4921	139.307424	0.000335	3.345910	1.133625	-0.000134
 617	6.1292e+01	15.4600	139.194385	0.000284	2.838954	0.961864	-0.000114
 618	6.1392e+01	15.4151	139.061159	0.000335	3.345910	1.133625	-0.000134
 619	6.1491e+01	15.3750	138.883525	0.000446	4.461214	1.511500	-0.000179
 620	6.1590e+01	15.3268	138.738188	0.000365	3.650084	1.236682	-0.000146
 621	6.1690e+01	15.2932	138.572666	0.000416	4.157040	1.408443	-0.000166
 622	6.1789e+01	15.2450	138.467700	0.000264	2.636172	0.893159	-0.000105
 623	6.1889e+01	15.2097	138.334475	0.000335	3.345910	1.133625	-0.000134
 624	6.1989e+01	15.1793	138.201249	0.000335	3.345910	1.133625	-0.000134
 625	6.2088e+01	15.1327	138.043801	0.000395	3.954258	1.339739	-0.000158
 626	6.2188e+01	15.0894	137.882315	0.000406	4.055649	1.374091	-0.000162
 627	6.2287e+01	15.0477	137.732941	0.000375	3.751475	1.271034	-0.000150
 628	6.2386e+01	15.0172	137.611827	0.000304	3.041737	1.030568	-0.000122
 629	6.2486e+01	14.9675	137.446305	0.000416	4.157040	1.408443	-0.000166
 630	6.2586e+01	14.9226	137.292894	0.000385	3.852866	1.305386	-0.000154
 631	6.2685e+01	14.8889	137.175817	0.000294	2.940345	0.996216	-0.000118
 632	6.2785e+01	14.8632	137.030480	0.000365	3.650084	1.236682	-0.000146
 633	6.2884e+01	14.8151	136.856883	0.000436	4.359822	1.477148	-0.000174
 634	6.2983e+01	14.7766	136.731732	0.000314	3.143128	1.064921	-0.000126
 635	6.3083e+01	14.7397	136.590432	0.000355	3.548693	1.202330	-0.000142
 636	6.3182e+01	14.6996	136.489504	0.000253	2.534781	0.858807	-0.000101
 637	6.3282e+01	14.6499	136.303795	0.000466	4.663996	1.580205	-0.000187
 638	6.3382e+01	14.6178	136.178644	0.000314	3.143128	1.064921	-0.000126
 639	6.3481e+01	14.5696	136.049456	0.000324	3.244519	1.099273	-0.000130
 640	6.3581e+01	14.5392	135.879896	0.000426	4.258431	1.442796	-0.000170
 641	6.3680e+01	14.5023	135.726485	0.000385	3.852866	1.305386	-0.000154
 642	6.3779e+01	14.4557	135.569037	0.000395	3.954258	1.339739	-0.000158
 643	6.3879e+01	14.4221	135.451960	0.000294	2.940345	0.996216	-0.000118
 644	6.3978e+01	14.3723	135.290474	0.000406	4.055649	1.374091	-0.000162
 645	6.4078e+01	14.3322	135.149175	0.000355	3.548693	1.202330	-0.000142
 646	6.4177e+01	14.2937	134.987689	0.000406	4.055649	1.374091	-0.000162
 647	6.4277e+01	14.2552	134.834278	0.000385	3.852866	1.305386	-0.000154
 648	6.4376e+01	14.2199	134.684904	0.000375	3.751475	1.271034	-0.000150
 649	6.4476e+01	14.1766	134.563790	0.000304	3.041737	1.030568	-0.000122
 650	6.4576e+01	14.1317	134.434602	0.000324	3.244519	1.099273	-0.000130
 651	6.4675e+01	14.1012	134.285227	0.000375	3.751475	1.271034	-0.000150
 652	6.4775e+01	14.0611	134.091445	0.000487	4.866779	1.648909	-0.000195
 653	6.4874e+01	14.0146	133.970331	0.000304	3.041737	1.030568	-0.000122
 654	6.4974e+01	13.9745	133.824994	0.000365	3.650084	1.236682	-0.000146
 655	6.5073e+01	13.9376	133.679657	0.000365	3.650084	1.236682	-0.000146
 656	6.5172e+01	13.8975	133.518172	0.000406	4.055649	1.374091	-0.000162
 657	6.5272e+01	13.8654	133.393020	0.000314	3.143128	1.064921	-0.000126
 658	6.5371e+01	13.8173	133.231535	0.000406	4.055649	1.374091	-0.000162
 659	6.5471e+01	13.7836	133.106384	0.000314	3.143128	1.064921	-0.000126
 660	6.5570e+01	13.7306	132.944898	0.000406	4.055649	1.374091	-0.000162
 661	6.5670e+01	13.6937	132.811673	0.000335	3.345910	1.133625	-0.000134
 662	6.5769e+01	13.6584	132.617890	0.000487	4.866779	1.648909	-0.000195
 663	6.5869e+01	13.6151	132.504851	0.000284	2.838954	0.961864	-0.000114
 664	6.5969e+01	13.5814	132.363551	0.000355	3.548693	1.202330	-0.000142
 665	6.6068e+01	13.5365	132.222251	0.000355	3.548693	1.202330	-0.000142
 666	6.6168e+01	13.4980	132.072877	0.000375	3.751475	1.271034	-0.000150
 667	6.6267e+01	13.4675	131.919466	0.000385	3.852866	1.305386	-0.000154
 668	6.6367e+01	13.4226	131.790278	0.000324	3.244519	1.099273	-0.000130
 669	6.6466e+01	13.3713	131.653015	0.000345	3.447302	1.167977	-0.000138
 670	6.6566e+01	13.3360	131.475381	0.000446	4.461214	1.511500	-0.000179
 671	6.6665e+01	13.2943	131.313896	0.000406	4.055649	1.374091	-0.000162
 672	6.6764e+01	13.2622	131.164522	0.000375	3.751475	1.271034	-0.000150
 673	6.6864e+01	13.2253	131.059556	0.000264	2.636172	0.893159	-0.000105
 674	6.6963e+01	13.1788	130.902108	0.000395	3.954258	1.339739	-0.000158
 675	6.7063e+01	13.1499	130.716399	0.000466	4.663996	1.580205	-0.000187
 676	6.7162e+01	13.1018	130.587211	0.000324	3.244519	1.099273	-0.000130
 677	6.7262e+01	13.0601	130.425726	0.000406	4.055649	1.374091	-0.000162
 678	6.7362e+01	13.0216	130.300575	0.000314	3.143128	1.064921	-0.000126
 679	6.7461e+01	12.9654	130.126978	0.000436	4.359822	1.477148	-0.000174
 680	6.7561e+01	12.9430	130.009901	0.000294	2.940345	0.996216	-0.000118
 681	6.7660e+01	12.8948	129.840341	0.000426	4.258431	1.442796	-0.000170
 682	6.7760e+01	12.8659	129.682893	0.000395	3.954258	1.339739	-0.000158
 683	6.7859e+01	12.8307	129.529482	0.000385	3.852866	1.305386	-0.000154
 684	6.7959e+01	12.7777	129.376070	0.000385	3.852866	1.305386	-0.000154
 685	6.8058e+01	12.7456	129.250919	0.000314	3.143128	1.064921	-0.000126
 686	6.8157e+01	12.6991	129.069248	0.000456	4.562605	1.545852	-0.000183
 687	6.8257e+01	12.6558	128.927948	0.000355	3.548693	1.202330	-0.000142
 688	6.8356e+01	12.6317	128.806834	0.000304	3.041737	1.030568	-0.000122
 689	6.8456e+01	12.5852	128.604978	0.000507	5.069561	1.717614	-0.000203
 690	6.8555e+01	12.5483	128.443492	0.000406	4.055649	1.374091	-0.000162
 691	6.8655e+01	12.5050	128.330452	0.000284	2.838954	0.961864	-0.000114
 692	6.8754e+01	12.4697	128.132633	0.000497	4.968170	1.683262	-0.000199
 693	6.8854e+01	12.4264	128.011519	0.000304	3.041737	1.030568	-0.000122
 694	6.8954e+01	12.3911	127.841959	0.000426	4.258431	1.442796	-0.000170
 695	6.9053e+01	12.3398	127.672399	0.000426	4.258431	1.442796	-0.000170
 696	6.9153e+01	12.3045	127.518988	0.000385	3.852866	1.305386	-0.000154
 697	6.9252e+01	12.2740	127.365577	0.000385	3.852866	1.305386	-0.000154
 698	6.9352e+01	12.2243	127.220240	0.000365	3.650084	1.236682	-0.000146
 699	6.9451e+01	12.1938	127.038569	0.000456	4.562605	1.545852	-0.000183
 700	6.9550e+01	12.1473	126.949752	0.000223	2.230607	0.755750	-0.000089
 701	6.9650e+01	12.1184	126.731747	0.000548	5.475126	1.855023	-0.000219
 702	6.9749e+01	12.0686	126.590447	0.000355	3.548693	1.202330	-0.000142
 703	6.9849e+01	12.0237	126.445110	0.000365	3.650084	1.236682	-0.000146
 704	6.9948e+01	11.9836	126.267476	0.000446	4.461214	1.511500	-0.000179
 705	7.0048e+01	11.9451	126.110028	0.000395	3.954258	1.339739	-0.000158
 706	7.0147e+01	11.9130	125.988914	0.000304	3.041737	1.030568	-0.000122
 707	7.0247e+01	11.8601	125.787057	0.000507	5.069561	1.717614	-0.000203
 708	7.0347e+01	11.8248	125.653831	0.000335	3.345910	1.133625	-0.000134
 709	7.0446e+01	11.7879	125.524643	0.000324	3.244519	1.099273	-0.000130
 710	7.0546e+01	11.7558	125.338935	0.000466	4.663996	1.580205	-0.000187
 711	7.0645e+01	11.7029	125.181486	0.000395	3.954258	1.339739	-0.000158
 712	7.0745e+01	11.6676	125.032112	0.000375	3.751475	1.271034	-0.000150
 713	7.0844e+01	11.6307	124.882738	0.000375	3.751475	1.271034	-0.000150
 714	7.0944e+01	11.5874	124.697030	0.000466	4.663996	1.580205	-0.000187
 715	7.1043e+01	11.5441	124.575916	0.000304	3.041737	1.030568	-0.000122
 716	7.1142e+01	11.5088	124.390208	0.000466	4.663996	1.580205	-0.000187
 717	7.1242e+01	11.4735	124.224685	0.000416	4.157040	1.408443	-0.000166
 718	7.1341e+01	11.4350	124.010717	0.000537	5.373735	1.820671	-0.000215
 719	7.1441e+01	11.3868	123.901714	0.000274	2.737563	0.927511	-0.000110
 720	7.1540e+01	11.3548	123.716006	0.000466	4.663996	1.580205	-0.000187
 721	7.1640e+01	11.3066	123.562595	0.000385	3.852866	1.305386	-0.000154
 722	7.1740e+01	11.2681	123.425332	0.000345	3.447302	1.167977	-0.000138
 723	7.1839e+01	11.2264	123.239624	0.000466	4.663996	1.580205	-0.000187
 724	7.1939e+01	11.1927	123.061990	0.000446	4.461214	1.511500	-0.000179
 725	7.2038e+01	11.1526	122.900505	0.000406	4.055649	1.374091	-0.000162
 726	7.2138e+01	11.1109	122.734982	0.000416	4.157040	1.408443	-0.000166
 727	7.2237e+01	11.0644	122.585608	0.000375	3.751475	1.271034	-0.000150
 728	7.2337e+01	11.0339	122.448346	0.000345	3.447302	1.167977	-0.000138
 729	7.2436e+01	10.9874	122.242452	0.000517	5.170952	1.751966	-0.000207
 730	7.2535e+01	10.9489	122.072892	0.000426	4.258431	1.442796	-0.000170
 731	7.2635e+01	10.9152	121.919481	0.000385	3.852866	1.305386	-0.000154
 732	7.2734e+01	10.8719	121.749921	0.000426	4.258431	1.442796	-0.000170
 733	7.2834e+01	10.8238	121.560176	0.000477	4.765387	1.614557	-0.000191
 734	7.2933e+01	10.7997	121.430987	0.000324	3.244519	1.099273	-0.000130
 735	7.3033e+01	10.7564	121.217019	0.000537	5.373735	1.820671	-0.000215
 736	7.3132e+01	10.7099	121.035348	0.000456	4.562605	1.545852	-0.000183
 737	7.3232e+01	10.6746	120.914234	0.000304	3.041737	1.030568	-0.000122
 738	7.3332e+01	10.6377	120.744674	0.000426	4.258431	1.442796	-0.000170
 739	7.3431e+01	10.5879	120.558966	0.000466	4.663996	1.580205	-0.000187
 740	7.3531e+01	10.5542	120.381332	0.000446	4.461214	1.511500	-0.000179
 741	7.3630e+01	10.5093	120.231958	0.000375	3.751475	1.271034	-0.000150
 742	7.3730e+01	10.4788	120.074510	0.000395	3.954258	1.339739	-0.000158
 743	7.3829e+01	10.4291	119.872653	0.000507	5.069561	1.717614	-0.000203
 744	7.3928e+01	10.3954	119.719242	0.000385	3.852866	1.305386	-0.000154
 745	7.4028e+01	10.3553	119.577942	0.000355	3.548693	1.202330	-0.000142
 746	7.4127e+01	10.3152	119.396271	0.000456	4.562605	1.545852	-0.000183
 747	7.4227e+01	10.2751	119.186340	0.000527	5.272343	1.786318	-0.000211
 748	7.4326e+01	10.2366	119.041003	0.000365	3.650084	1.236682	-0.000146
 749	7.4426e+01	10.1901	118.859332	0.000456	4.562605	1.545852	-0.000183
 750	7.4525e+01	10.1484	118.697846	0.000406	4.055649	1.374091	-0.000162
 751	7.4625e+01	10.1147	118.467730	0.000578	5.779300	1.958080	-0.000231
 752	7.4725e+01	10.0746	118.330467	0.000345	3.447302	1.167977	-0.000138
 753	7.4824e+01	10.0393	118.124573	0.000517	5.170952	1.751966	-0.000207
 754	7.4924e+01	9.9944	117.971162	0.000385	3.852866	1.305386	-0.000154
 755	7.5023e+01	9.9543	117.809677	0.000406	4.055649	1.374091	-0.000162
 756	7.5123e+01	9.9158	117.619931	0.000477	4.765387	1.614557	-0.000191
 757	7.5222e+01	9.8724	117.466520	0.000385	3.852866	1.305386	-0.000154
 758	7.5322e+01	9.8323	117.292923	0.000436	4.359822	1.477148	-0.000174
 759	7.5421e+01	9.7858	117.167772	0.000314	3.143128	1.064921	-0.000126
 760	7.5520e+01	9.7489	116.929581	0.000598	5.982082	2.026784	-0.000239
 761	7.5620e+01	9.7152	116.772133	0.000395	3.954258	1.339739	-0.000158
 762	7.5719e+01	9.6815	116.602573	0.000426	4.258431	1.442796	-0.000170
 763	7.5819e+01	9.6302	116.424939	0.000446	4.461214	1.511500	-0.000179
 764	7.5918e+01	9.5917	116.251342	0.000436	4.359822	1.477148	-0.000174
 765	7.6018e+01	9.5532	116.065634	0.000466	4.663996	1.580205	-0.000187
 766	7.6118e+01	9.5227	115.867814	0.000497	4.968170	1.683262	-0.000199
 767	7.6217e+01	9.4794	115.710366	0.000395	3.954258	1.339739	-0.000158
 768	7.6317e+01	9.4409	115.508509	0.000507	5.069561	1.717614	-0.000203
 769	7.6416e+01	9.3928	115.371247	0.000345	3.447302	1.167977	-0.000138
 770	7.6516e+01	9.3575	115.165353	0.000517	5.170952	1.751966	-0.000207
 771	7.6615e+01	9.3126	115.003867	0.000406	4.055649	1.374091	-0.000162
 772	7.6715e+01	9.2757	114.834308	0.000426	4.258431	1.442796	-0.000170
 773	7.6814e+01	9.2452	114.672822	0.000406	4.055649	1.374091	-0.000162
 774	7.6913e+01	9.2051	114.462891	0.000527	5.272343	1.786318	-0.000211
 775	7.7013e+01	9.1521	114.309480	0.000385	3.852866	1.305386	-0.000154
 776	7.7112e+01	9.1104	114.115697	0.000487	4.866779	1.648909	-0.000195
 777	7.7212e+01	9.0687	113.929989	0.000466	4.663996	1.580205	-0.000187
 778	7.7311e+01	9.0431	113.776578	0.000385	3.852866	1.305386	-0.000154
 779	7.7411e+01	8.9965	113.570684	0.000517	5.170952	1.751966	-0.000207
 780	7.7510e+01	8.9516	113.393050	0.000446	4.461214	1.511500	-0.000179
 781	7.7610e+01	8.9195	113.251750	0.000355	3.548693	1.202330	-0.000142
 782	7.7710e+01	8.8762	113.029708	0.000558	5.576517	1.889375	-0.000223
 783	7.7809e+01	8.8377	112.864185	0.000416	4.157040	1.408443	-0.000166
 784	7.7909e+01	8.7928	112.690588	0.000436	4.359822	1.477148	-0.000174
 785	7.8008e+01	8.7559	112.476620	0.000537	5.373735	1.820671	-0.000215
 786	7.8108e+01	8.7158	112.298986	0.000446	4.461214	1.511500	-0.000179
 787	7.8207e+01	8.6805	112.133464	0.000416	4.157040	1.408443	-0.000166
 788	7.8306e+01	8.6308	111.959867	0.000436	4.359822	1.477148	-0.000174
 789	7.8406e+01	8.5923	111.762047	0.000497	4.968170	1.683262	-0.000199
 790	7.8505e+01	8.5618	111.616710	0.000365	3.650084	1.236682	-0.000146
 791	7.8605e+01	8.5185	111.406779	0.000527	5.272343	1.786318	-0.000211
 792	7.8704e+01	8.4816	111.237220	0.000426	4.258431	1.442796	-0.000170
 793	7.8804e+01	8.4367	111.079771	0.000395	3.954258	1.339739	-0.000158
 794	7.8903e+01	8.3982	110.865803	0.000537	5.373735	1.820671	-0.000215
 795	7.9003e+01	8.3581	110.672021	0.000487	4.866779	1.648909	-0.000195
 796	7.9103e+01	8.3163	110.514572	0.000395	3.954258	1.339739	-0.000158
 797	7.9202e+01	8.2843	110.296567	0.000548	5.475126	1.855023	-0.000219
 798	7.9302e+01	8.2345	110.102784	0.000487	4.866779	1.648909	-0.000195
 799	7.9401e+01	8.1944	109.945336	0.000395	3.954258	1.339739	-0.000158
 800	7.9501e+01	8.1607	109.735405	0.000527	5.272343	1.786318	-0.000211
 801	7.9600e+01	8.1238	109.569882	0.000416	4.157040	1.408443	-0.000166
 802	7.9700e+01	8.0821	109.400323	0.000426	4.258431	1.442796	-0.000170
 803	7.9799e+01	8.0452	109.202503	0.000497	4.968170	1.683262	-0.000199
 804	7.9898e+01	7.9987	109.036981	0.000416	4.157040	1.408443	-0.000166
 805	7.9998e+01	7.9634	108.867421	0.000426	4.258431	1.442796	-0.000170
 806	8.0097e+01	7.9153	108.653453	0.000537	5.373735	1.820671	-0.000215
 807	8.0197e+01	7.8928	108.487930	0.000416	4.157040	1.408443	-0.000166
 808	8.0296e+01	7.8399	108.318370	0.000426	4.258431	1.442796	-0.000170
 809	8.0396e+01	7.8078	108.096328	0.000558	5.576517	1.889375	-0.000223
 810	8.0496e+01	7.7661	107.906583	0.000477	4.765387	1.614557	-0.000191
 811	8.0595e+01	7.7244	107.708763	0.000497	4.968170	1.683262	-0.000199
 812	8.0695e+01	7.6795	107.523055	0.000466	4.663996	1.580205	-0.000187
 813	8.0794e+01	7.6490	107.357532	0.000416	4.157040	1.408443	-0.000166
 814	8.0894e+01	7.6089	107.183935	0.000436	4.359822	1.477148	-0.000174
 815	8.0993e+01	7.5720	106.990153	0.000487	4.866779	1.648909	-0.000195
 816	8.1093e+01	7.5319	106.804445	0.000466	4.663996	1.580205	-0.000187
 817	8.1192e+01	7.4870	106.646996	0.000395	3.954258	1.339739	-0.000158
 818	8.1291e+01	7.4404	106.433028	0.000537	5.373735	1.820671	-0.000215
 819	8.1391e+01	7.4083	106.267505	0.000416	4.157040	1.408443	-0.000166
 820	8.1490e+01	7.3650	106.061612	0.000517	5.170952	1.751966	-0.000207
 821	8.1590e+01	7.3233	105.888015	0.000436	4.359822	1.477148	-0.000174
 822	8.1689e+01	7.2848	105.670009	0.000548	5.475126	1.855023	-0.000219
 823	8.1789e+01	7.2511	105.508524	0.000406	4.055649	1.374091	-0.000162
 824	8.1888e+01	7.2126	105.318779	0.000477	4.765387	1.614557	-0.000191
 825	8.1988e+01	7.1597	105.120959	0.000497	4.968170	1.683262	-0.000199
 826	8.2088e+01	7.1308	104.923139	0.000497	4.968170	1.683262	-0.000199
 827	8.2187e+01	7.0843	104.757617	0.000416	4.157040	1.408443	-0.000166
 828	8.2287e+01	7.0410	104.604206	0.000385	3.852866	1.305386	-0.000154
 829	8.2386e+01	7.0073	104.402349	0.000507	5.069561	1.717614	-0.000203
 830	8.2486e+01	6.9720	104.176269	0.000568	5.677908	1.923727	-0.000227
 831	8.2585e+01	6.9271	104.018821	0.000395	3.954258	1.339739	-0.000158
 832	8.2684e+01	6.8902	103.825038	0.000487	4.866779	1.648909	-0.000195
 833	8.2784e+01	6.8453	103.619144	0.000517	5.170952	1.751966	-0.000207
 834	8.2883e+01	6.8036	103.425362	0.000487	4.866779	1.648909	-0.000195
 835	8.2983e+01	6.7586	103.275988	0.000375	3.751475	1.271034	-0.000150
 836	8.3082e+01	6.7314	103.057983	0.000548	5.475126	1.855023	-0.000219
 837	8.3182e+01	6.6848	102.900534	0.000395	3.954258	1.339739	-0.000158
 838	8.3281e+01	6.6479	102.735012	0.000416	4.157040	1.408443	-0.000166
 839	8.3381e+01	6.6030	102.508932	0.000568	5.677908	1.923727	-0.000227
 840	8.3481e+01	6.5629	102.351484	0.000395	3.954258	1.339739	-0.000158
 841	8.3580e+01	6.5276	102.113293	0.000598	5.982082	2.026784	-0.000239
 842	8.3680e+01	6.4907	101.919510	0.000487	4.866779	1.648909	-0.000195
 843	8.3779e+01	6.4458	101.766099	0.000385	3.852866	1.305386	-0.000154
 844	8.3879e+01	6.4105	101.552131	0.000537	5.373735	1.820671	-0.000215
 845	8.3978e+01	6.3688	101.338163	0.000537	5.373735	1.820671	-0.000215
 846	8.4078e+01	6.3287	101.196863	0.000355	3.548693	1.202330	-0.000142
 847	8.4177e+01	6.2854	101.007118	0.000477	4.765387	1.614557	-0.000191
 848	8.4276e+01	6.2565	100.809298	0.000497	4.968170	1.683262	-0.000199
 849	8.4376e+01	6.2084	100.611478	0.000497	4.968170	1.683262	-0.000199
 850	8.4475e+01	6.1747	100.393473	0.000548	5.475126	1.855023	-0.000219
 851	8.4575e+01	6.1346	100.219876	0.000436	4.359822	1.477148	-0.000174
 852	8.4674e+01	6.0929	100.022056	0.000497	4.968170	1.683262	-0.000199
 853	8.4774e+01	6.0512	99.848460	0.000436	4.359822	1.477148	-0.000174
 854	8.4874e+01	6.0191	99.626417	0.000558	5.576517	1.889375	-0.000223
 855	8.4973e+01	5.9758	99.460895	0.000416	4.157040	1.408443	-0.000166
 856	8.5073e+01	5.9212	99.234815	0.000568	5.677908	1.923727	-0.000227
 857	8.5172e+01	5.8875	99.053144	0.000456	4.562605	1.545852	-0.000183
 858	8.5272e+01	5.8474	98.859361	0.000487	4.866779	1.648909	-0.000195
 859	8.5371e+01	5.8169	98.637319	0.000558	5.576517	1.889375	-0.000223
 860	8.5471e+01	5.7688	98.427388	0.000527	5.272343	1.786318	-0.000211
 861	8.5570e+01	5.7319	98.269940	0.000395	3.954258	1.339739	-0.000158
 862	8.5669e+01	5.6886	98.072120	0.000497	4.968170	1.683262	-0.000199
 863	8.5769e+01	5.6565	97.862189	0.000527	5.272343	1.786318	-0.000211
 864	8.5868e+01	5.6052	97.676481	0.000466	4.663996	1.580205	-0.000187
 865	8.5968e+01	5.5683	97.462512	0.000537	5.373735	1.820671	-0.000215
 866	8.6067e+01	5.5234	97.280841	0.000456	4.562605	1.545852	-0.000183
 867	8.6167e+01	5.4881	97.083022	0.000497	4.968170	1.683262	-0.000199
 868	8.6266e+01	5.4576	96.917499	0.000416	4.157040	1.408443	-0.000166
 869	8.6366e+01	5.4095	96.723717	0.000487	4.866779	1.648909	-0.000195
 870	8.6466e+01	5.3758	96.501674	0.000558	5.576517	1.889375	-0.000223
 871	8.6565e+01	5.3325	96.340189	0.000406	4.055649	1.374091	-0.000162
 872	8.6665e+01	5.2940	96.106035	0.000588	5.880691	1.992432	-0.000235
 873	8.6764e+01	5.2442	95.932438	0.000436	4.359822	1.477148	-0.000174
 874	8.6864e+01	5.2089	95.657913	0.000689	6.894603	2.335955	-0.000276
 875	8.6963e+01	5.1737	95.476242	0.000456	4.562605	1.545852	-0.000183
 876	8.7063e+01	5.1271	95.286496	0.000477	4.765387	1.614557	-0.000191
 877	8.7162e+01	5.0886	95.108862	0.000446	4.461214	1.511500	-0.000179
 878	8.7261e+01	5.0501	94.898931	0.000527	5.272343	1.786318	-0.000211
 879	8.7361e+01	5.0132	94.680926	0.000548	5.475126	1.855023	-0.000219
 880	8.7460e+01	4.9779	94.479069	0.000507	5.069561	1.717614	-0.000203
 881	8.7560e+01	4.9346	94.301435	0.000446	4.461214	1.511500	-0.000179
 882	8.7659e+01	4.8929	94.107653	0.000487	4.866779	1.648909	-0.000195
 883	8.7759e+01	4.8512	93.897722	0.000527	5.272343	1.786318	-0.000211
 884	8.7859e+01	4.8159	93.687791	0.000527	5.272343	1.786318	-0.000211
 885	8.7958e+01	4.7806	93.465748	0.000558	5.576517	1.889375	-0.000223
 886	8.8058e+01	4.7277	93.267928	0.000497	4.968170	1.683262	-0.000199
 887	8.8157e+01	4.6924	93.057997	0.000527	5.272343	1.786318	-0.000211
 888	8.8257e+01	4.6619	92.852103	0.000517	5.170952	1.751966	-0.000207
 889	8.8356e+01	4.6234	92.662358	0.000477	4.765387	1.614557	-0.000191
 890	8.8456e+01	4.5753	92.448390	0.000537	5.373735	1.820671	-0.000215
 891	8.8555e+01	4.5336	92.262682	0.000466	4.663996	1.580205	-0.000187
 892	8.8654e+01	4.4870	92.044676	0.000548	5.475126	1.855023	-0.000219
 893	8.8754e+01	4.4534	91.871079	0.000436	4.359822	1.477148	-0.000174
 894	8.8853e+01	4.4181	91.649037	0.000558	5.576517	1.889375	-0.000223
 895	8.8953e+01	4.3731	91.443143	0.000517	5.170952	1.751966	-0.000207
 896	8.9052e+01	4.3507	91.221101	0.000558	5.576517	1.889375	-0.000223
 897	8.9152e+01	4.2993	90.999058	0.000558	5.576517	1.889375	-0.000223
 898	8.9251e+01	4.2624	90.789127	0.000527	5.272343	1.786318	-0.000211
 899	8.9351e+01	4.2159	90.603419	0.000466	4.663996	1.580205	-0.000187
 900	8.9451e+01	4.1854	90.373302	0.000578	5.779300	1.958080	-0.000231
 901	8.9550e+01	4.1405	90.155297	0.000548	5.475126	1.855023	-0.000219
 902	8.9650e+01	4.0908	89.989774	0.000416	4.157040	1.408443	-0.000166
 903	8.9749e+01	4.0571	89.771769	0.000548	5.475126	1.855023	-0.000219
 904	8.9849e+01	4.0122	89.573949	0.000497	4.968170	1.683262	-0.000199
 905	8.9948e+01	3.9769	89.380167	0.000487	4.866779	1.648909	-0.000195
 906	9.0047e+01	3.9320	89.117753	0.000659	6.590429	2.232898	-0.000264
 907	9.0147e+01	3.8999	88.903785	0.000537	5.373735	1.820671	-0.000215
 908	9.0246e+01	3.8518	88.726151	0.000446	4.461214	1.511500	-0.000179
 909	9.0346e+01	3.8149	88.504108	0.000558	5.576517	1.889375	-0.000223
 910	9.0445e+01	3.7764	88.306289	0.000497	4.968170	1.683262	-0.000199
 911	9.0545e+01	3.7363	88.055986	0.000629	6.286256	2.129841	-0.000252
 912	9.0644e+01	3.6945	87.850092	0.000517	5.170952	1.751966	-0.000207
 913	9.0744e+01	3.6512	87.660347	0.000477	4.765387	1.614557	-0.000191
 914	9.0844e+01	3.6159	87.466564	0.000487	4.866779	1.648909	-0.000195
 915	9.0943e+01	3.5774	87.224336	0.000608	6.083473	2.061137	-0.000243
 916	9.1043e+01	3.5518	87.018442	0.000517	5.170952	1.751966	-0.000207
 917	9.1142e+01	3.5085	86.816585	0.000507	5.069561	1.717614	-0.000203
 918	9.1242e+01	3.4603	86.566283	0.000629	6.286256	2.129841	-0.000252
 919	9.1341e+01	3.4202	86.396723	0.000426	4.258431	1.442796	-0.000170
 920	9.1441e+01	3.3817	86.158532	0.000598	5.982082	2.026784	-0.000239
 921	9.1540e+01	3.3416	85.928416	0.000578	5.779300	1.958080	-0.000231
 922	9.1639e+01	3.2967	85.726559	0.000507	5.069561	1.717614	-0.000203
 923	9.1739e+01	3.2614	85.528739	0.000497	4.968170	1.683262	-0.000199
 924	9.1838e+01	3.2245	85.286511	0.000608	6.083473	2.061137	-0.000243
 925	9.1938e+01	3.1828	85.072543	0.000537	5.373735	1.820671	-0.000215
 926	9.2037e+01	3.1395	84.858575	0.000537	5.373735	1.820671	-0.000215
 927	9.2137e+01	3.0994	84.612309	0.000618	6.184864	2.095489	-0.000248
 928	9.2237e+01	3.0593	84.382193	0.000578	5.779300	1.958080	-0.000231
 929	9.2336e+01	3.0224	84.224744	0.000395	3.954258	1.339739	-0.000158
 930	9.2436e+01	2.9823	84.018850	0.000517	5.170952	1.751966	-0.000207
 931	9.2535e+01	2.9422	83.776622	0.000608	6.083473	2.061137	-0.000243
 932	9.2635e+01	2.9005	83.562654	0.000537	5.373735	1.820671	-0.000215
 933	9.2734e+01	2.8587	83.316389	0.000618	6.184864	2.095489	-0.000248
 934	9.2834e+01	2.8331	83.118569	0.000497	4.968170	1.683262	-0.000199
 935	9.2933e+01	2.7801	82.969195	0.000375	3.751475	1.271034	-0.000150
 936	9.3032e+01	2.7497	82.735041	0.000588	5.880691	1.992432	-0.000235
 937	9.3132e+01	2.7047	82.480702	0.000639	6.387647	2.164193	-0.000256
 938	9.3231e+01	2.6678	82.274808	0.000517	5.170952	1.751966	-0.000207
 939	9.3331e+01	2.6197	82.072951	0.000507	5.069561	1.717614	-0.000203
 940	9.3430e+01	2.5828	81.786314	0.000720	7.198777	2.439012	-0.000288
 941	9.3530e+01	2.5395	81.592532	0.000487	4.866779	1.648909	-0.000195
 942	9.3629e+01	2.5026	81.410861	0.000456	4.562605	1.545852	-0.000183
 943	9.3729e+01	2.4689	81.217078	0.000487	4.866779	1.648909	-0.000195
 944	9.3829e+01	2.4240	81.003110	0.000537	5.373735	1.820671	-0.000215
 945	9.3928e+01	2.3823	80.772993	0.000578	5.779300	1.958080	-0.000231
 946	9.4028e+01	2.3358	80.546914	0.000568	5.677908	1.923727	-0.000227
 947	9.4127e+01	2.2973	80.332945	0.000537	5.373735	1.820671	-0.000215
 948	9.4227e+01	2.2716	80.078606	0.000639	6.387647	2.164193	-0.000256
 949	9.4326e+01	2.2315	79.876749	0.000507	5.069561	1.717614	-0.000203
 950	9.4425e+01	2.1882	79.650670	0.000568	5.677908	1.923727	-0.000227
 951	9.4525e+01	2.1352	79.404404	0.000618	6.184864	2.095489	-0.000248
 952	9.4624e+01	2.0967	79.182362	0.000558	5.576517	1.889375	-0.000223
 953	9.4724e+01	2.0727	78.968394	0.000537	5.373735	1.820671	-0.000215
 954	9.4823e+01	2.0245	78.754425	0.000537	5.373735	1.820671	-0.000215
 955	9.4923e+01	1.9844	78.568717	0.000466	4.663996	1.580205	-0.000187
 956	9.5022e+01	1.9395	78.314378	0.000639	6.387647	2.164193	-0.000256
 957	9.5122e+01	1.9074	78.108484	0.000517	5.170952	1.751966	-0.000207
 958	9.5222e+01	1.8673	77.858181	0.000629	6.286256	2.129841	-0.000252
 959	9.5321e+01	1.8240	77.696696	0.000406	4.055649	1.374091	-0.000162
 960	9.5421e+01	1.7807	77.422171	0.000689	6.894603	2.335955	-0.000276
 961	9.5520e+01	1.7438	77.248574	0.000436	4.359822	1.477148	-0.000174
 962	9.5620e+01	1.7037	76.978086	0.000679	6.793212	2.301602	-0.000272
 963	9.5719e+01	1.6748	76.739895	0.000598	5.982082	2.026784	-0.000239
 964	9.5819e+01	1.6203	76.550149	0.000477	4.765387	1.614557	-0.000191
 965	9.5918e+01	1.5946	76.336181	0.000537	5.373735	1.820671	-0.000215
 966	9.6017e+01	1.5433	76.122213	0.000537	5.373735	1.820671	-0.000215
 967	9.6117e+01	1.5128	75.908245	0.000537	5.373735	1.820671	-0.000215
 968	9.6216e+01	1.4743	75.645831	0.000659	6.590429	2.232898	-0.000264
 969	9.6316e+01	1.4278	75.443974	0.000507	5.069561	1.717614	-0.000203
 970	9.6415e+01	1.3845	75.230006	0.000537	5.373735	1.820671	-0.000215
 971	9.6515e+01	1.3476	75.016038	0.000537	5.373735	1.820671	-0.000215
 972	9.6615e+01	1.2946	74.806107	0.000527	5.272343	1.786318	-0.000211
 973	9.6714e+01	1.2689	74.575990	0.000578	5.779300	1.958080	-0.000231
 974	9.6814e+01	1.2321	74.353947	0.000558	5.576517	1.889375	-0.000223
 975	9.6913e+01	1.1871	74.135942	0.000548	5.475126	1.855023	-0.000219
 976	9.7013e+01	1.1502	73.861417	0.000689	6.894603	2.335955	-0.000276
 977	9.7112e+01	1.1085	73.659560	0.000507	5.069561	1.717614	-0.000203
 978	9.7212e+01	1.0620	73.441555	0.000548	5.475126	1.855023	-0.000219
 979	9.7311e+01	1.0299	73.223549	0.000548	5.475126	1.855023	-0.000219
 980	9.7410e+01	0.9834	72.997470	0.000568	5.677908	1.923727	-0.000227
 981	9.7510e+01	0.9465	72.751205	0.000618	6.184864	2.095489	-0.000248
 982	9.7609e+01	0.9032	72.565496	0.000466	4.663996	1.580205	-0.000187
 983	9.7709e+01	0.8631	72.339417	0.000568	5.677908	1.923727	-0.000227
 984	9.7808e+01	0.8262	72.117374	0.000558	5.576517	1.889375	-0.000223
 985	9.7908e+01	0.7957	71.915517	0.000507	5.069561	1.717614	-0.000203
 986	9.8007e+01	0.7540	71.673289	0.000608	6.083473	2.061137	-0.000243
 987	9.8107e+01	0.7107	71.451247	0.000558	5.576517	1.889375	-0.000223
 988	9.8207e+01	0.6658	71.249390	0.000507	5.069561	1.717614	-0.000203
 989	9.8306e+01	0.6224	71.015236	0.000588	5.880691	1.992432	-0.000235
 990	9.8406e+01	0.5823	70.809342	0.000517	5.170952	1.751966	-0.000207
 991	9.8505e+01	0.5583	70.563077	0.000618	6.184864	2.095489	-0.000248
 992	9.8605e+01	0.5053	70.324886	0.000598	5.982082	2.026784	-0.000239
 993	9.8704e+01	0.4668	70.135141	0.000477	4.765387	1.614557	-0.000191
 994	9.8803e+01	0.4380	69.876764	0.000649	6.489038	2.198546	-0.000260
 995	9.8903e+01	0.3882	69.662796	0.000537	5.373735	1.820671	-0.000215
 996	9.9002e+01	0.3529	69.444790	0.000548	5.475126	1.855023	-0.000219
 997	9.9102e+01	0.3032	69.238896	0.000517	5.170952	1.751966	-0.000207
 998	9.9201e+01	0.2743	69.024928	0.000537	5.373735	1.820671	-0.000215
 999	9.9301e+01	0.2214	68.766552	0.000649	6.489038	2.198546	-0.000260
1000	9.9400e+01	0.1909	68.568732	0.000497	4.968170	1.683262	-0.000199
1001	9.9500e+01	0.1380	68.334578	0.000588	5.880691	1.992432	-0.000235
1002	9.9600e+01	0.1123	68.144833	0.000477	4.765387	1.614557	-0.000191
1003	9.9699e+01	0.0706	67.910679	0.000588	5.880691	1.992432	-0.000235
1004	9.9799e+01	0.0257	67.660376	0.000629	6.286256	2.129841	-0.000252
1005	9.9898e+01	0.0000	67.531188	0.000324	3.244519	1.099273	-0.000130
1006	9.9998e+01	-0.0369	67.292997	0.000598	5.982082	2.026784	-0.000239
1007	1.0010e+02	-0.0866	67.074992	0.000548	5.475126	1.855023	-0.000219
1008	1.0020e+02	-0.1171	66.820652	0.000639	6.387647	2.164193	-0.000256
1009	1.0030e+02	-0.1556	66.610721	0.000527	5.272343	1.786318	-0.000211
1010	1.0040e+02	-0.2005	66.388679	0.000558	5.576517	1.889375	-0.000223
1011	1.0050e+02	-0.2438	66.178748	0.000527	5.272343	1.786318	-0.000211
1012	1.0059e+02	-0.2839	65.948631	0.000578	5.779300	1.958080	-0.000231
1013	1.0069e+02	-0.3241	65.738700	0.000527	5.272343	1.786318	-0.000211
1014	1.0079e+02	-0.3593	65.484360	0.000639	6.387647	2.164193	-0.000256
1015	1.0089e+02	-0.3898	65.294615	0.000477	4.765387	1.614557	-0.000191
1016	1.0099e+02	-0.4396	65.044312	0.000629	6.286256	2.129841	-0.000252
1017	1.0109e+02	-0.4845	64.858604	0.000466	4.663996	1.580205	-0.000187
1018	1.0119e+02	-0.5182	64.596190	0.000659	6.590429	2.232898	-0.000264
1019	1.0129e+02	-0.5486	64.374148	0.000558	5.576517	1.889375	-0.000223
1020	1.0139e+02	-0.5936	64.176328	0.000497	4.968170	1.683262	-0.000199
1021	1.0149e+02	-0.6417	63.897766	0.000700	6.995994	2.370307	-0.000280
1022	1.0159e+02	-0.6722	63.720132	0.000446	4.461214	1.511500	-0.000179
1023	1.0169e+02	-0.7235	63.473867	0.000618	6.184864	2.095489	-0.000248
1024	1.0179e+02	-0.7604	63.267973	0.000517	5.170952	1.751966	-0.000207
1025	1.0189e+02	-0.8005	63.070153	0.000497	4.968170	1.683262	-0.000199
1026	1.0199e+02	-0.8326	62.831962	0.000598	5.982082	2.026784	-0.000239
1027	1.0209e+02	-0.8743	62.593771	0.000598	5.982082	2.026784	-0.000239
1028	1.0219e+02	-0.9144	62.379803	0.000537	5.373735	1.820671	-0.000215
1029	1.0229e+02	-0.9545	62.141612	0.000598	5.982082	2.026784	-0.000239
1030	1.0239e+02	-0.9994	61.911495	0.000578	5.779300	1.958080	-0.000231
1031	1.0248e+02	-1.0363	61.685416	0.000568	5.677908	1.923727	-0.000227
1032	1.0258e+02	-1.0716	61.423002	0.000659	6.590429	2.232898	-0.000264
1033	1.0268e+02	-1.1198	61.241331	0.000456	4.562605	1.545852	-0.000183
1034	1.0278e+02	-1.1583	60.974880	0.000669	6.691821	2.267250	-0.000268
1035	1.0288e+02	-1.1919	60.777060	0.000497	4.968170	1.683262	-0.000199
1036	1.0298e+02	-1.2385	60.530795	0.000618	6.184864	2.095489	-0.000248
1037	1.0308e+02	-1.2770	60.365272	0.000416	4.157040	1.408443	-0.000166
1038	1.0318e+02	-1.3139	60.074598	0.000730	7.300168	2.473364	-0.000292
1039	1.0328e+02	-1.3540	59.868704	0.000517	5.170952	1.751966	-0.000207
1040	1.0338e+02	-1.3845	59.642625	0.000568	5.677908	1.923727	-0.000227
1041	1.0348e+02	-1.4390	59.404434	0.000598	5.982082	2.026784	-0.000239
1042	1.0358e+02	-1.4743	59.222763	0.000456	4.562605	1.545852	-0.000183
1043	1.0368e+02	-1.5112	58.984572	0.000598	5.982082	2.026784	-0.000239
1044	1.0378e+02	-1.5497	58.774641	0.000527	5.272343	1.786318	-0.000211
1045	1.0388e+02	-1.5882	58.508190	0.000669	6.691821	2.267250	-0.000268
1046	1.0398e+02	-1.6363	58.298259	0.000527	5.272343	1.786318	-0.000211
1047	1.0408e+02	-1.6668	58.047956	0.000629	6.286256	2.129841	-0.000252
1048	1.0418e+02	-1.7069	57.866285	0.000456	4.562605	1.545852	-0.000183
1049	1.0428e+02	-1.7518	57.624057	0.000608	6.083473	2.061137	-0.000243
1050	1.0438e+02	-1.7935	57.373755	0.000629	6.286256	2.129841	-0.000252
1051	1.0447e+02	-1.8352	57.175935	0.000497	4.968170	1.683262	-0.000199
1052	1.0457e+02	-1.8818	56.917558	0.000649	6.489038	2.198546	-0.000260
1053	1.0467e+02	-1.9219	56.687441	0.000578	5.779300	1.958080	-0.000231
1054	1.0477e+02	-1.9507	56.489622	0.000497	4.968170	1.683262	-0.000199
1055	1.0487e+02	-1.9941	56.255468	0.000588	5.880691	1.992432	-0.000235
1056	1.0497e+02	-2.0261	56.009203	0.000618	6.184864	2.095489	-0.000248
1057	1.0507e+02	-2.0759	55.815420	0.000487	4.866779	1.648909	-0.000195
1058	1.0517e+02	-2.1096	55.565118	0.000629	6.286256	2.129841	-0.000252
1059	1.0527e+02	-2.1465	55.383447	0.000456	4.562605	1.545852	-0.000183
1060	1.0537e+02	-2.2010	55.112959	0.000679	6.793212	2.301602	-0.000272
1061	1.0547e+02	-2.2315	54.886879	0.000568	5.677908	1.923727	-0.000227
1062	1.0557e+02	-2.2780	54.632539	0.000639	6.387647	2.164193	-0.000256
1063	1.0567e+02	-2.3069	54.442794	0.000477	4.765387	1.614557	-0.000191
1064	1.0577e+02	-2.3566	54.196529	0.000618	6.184864	2.095489	-0.000248
1065	1.0587e+02	-2.3887	53.998709	0.000497	4.968170	1.683262	-0.000199
1066	1.0597e+02	-2.4336	53.716110	0.000710	7.097385	2.404659	-0.000284
1067	1.0607e+02	-2.4673	53.514253	0.000507	5.069561	1.717614	-0.000203
1068	1.0617e+02	-2.5106	53.296247	0.000548	5.475126	1.855023	-0.000219
1069	1.0627e+02	-2.5588	53.074205	0.000558	5.576517	1.889375	-0.000223
1070	1.0637e+02	-2.5908	52.844088	0.000578	5.779300	1.958080	-0.000231
1071	1.0647e+02	-2.6261	52.654343	0.000477	4.765387	1.614557	-0.000191
1072	1.0656e+02	-2.6630	52.404040	0.000629	6.286256	2.129841	-0.000252
1073	1.0666e+02	-2.7047	52.161812	0.000608	6.083473	2.061137	-0.000243
1074	1.0676e+02	-2.7416	51.955918	0.000517	5.170952	1.751966	-0.000207
1075	1.0686e+02	-2.7946	51.689467	0.000669	6.691821	2.267250	-0.000268
1076	1.0696e+02	-2.8283	51.455314	0.000588	5.880691	1.992432	-0.000235
1077	1.0706e+02	-2.8652	51.261531	0.000487	4.866779	1.648909	-0.000195
1078	1.0716e+02	-2.9181	51.039489	0.000558	5.576517	1.889375	-0.000223
1079	1.0726e+02	-2.9470	50.793223	0.000618	6.184864	2.095489	-0.000248
1080	1.0736e+02	-2.9903	50.563107	0.000578	5.779300	1.958080	-0.000231
1081	1.0746e+02	-3.0224	50.320878	0.000608	6.083473	2.061137	-0.000243
1082	1.0756e+02	-3.0689	50.119022	0.000507	5.069561	1.717614	-0.000203
1083	1.0766e+02	-3.1026	49.864682	0.000639	6.387647	2.164193	-0.000256
1084	1.0776e+02	-3.1459	49.646677	0.000548	5.475126	1.855023	-0.000219
1085	1.0786e+02	-3.1924	49.408486	0.000598	5.982082	2.026784	-0.000239
1086	1.0796e+02	-3.2181	49.186443	0.000558	5.576517	1.889375	-0.000223
1087	1.0806e+02	-3.2758	48.952289	0.000588	5.880691	1.992432	-0.000235
1088	1.0816e+02	-3.3192	48.726210	0.000568	5.677908	1.923727	-0.000227
1089	1.0826e+02	-3.3528	48.520316	0.000517	5.170952	1.751966	-0.000207
1090	1.0836e+02	-3.3897	48.274051	0.000618	6.184864	2.095489	-0.000248
1091	1.0845e+02	-3.4298	48.064120	0.000527	5.272343	1.786318	-0.000211
1092	1.0855e+02	-3.4651	47.834003	0.000578	5.779300	1.958080	-0.000231
1093	1.0865e+02	-3.5004	47.607923	0.000568	5.677908	1.923727	-0.000227
1094	1.0875e+02	-3.5438	47.406066	0.000507	5.069561	1.717614	-0.000203
1095	1.0885e+02	-3.5839	47.171913	0.000588	5.880691	1.992432	-0.000235
1096	1.0895e+02	-3.6240	46.905462	0.000669	6.691821	2.267250	-0.000268
1097	1.0905e+02	-3.6689	46.671308	0.000588	5.880691	1.992432	-0.000235
1098	1.0915e+02	-3.7058	46.477525	0.000487	4.866779	1.648909	-0.000195
1099	1.0925e+02	-3.7443	46.251446	0.000568	5.677908	1.923727	-0.000227
1100	1.0935e+02	-3.7892	46.033440	0.000548	5.475126	1.855023	-0.000219
1101	1.0945e+02	-3.8261	45.799286	0.000588	5.880691	1.992432	-0.000235
1102	1.0955e+02	-3.8614	45.577244	0.000558	5.576517	1.889375	-0.000223
1103	1.0965e+02	-3.9031	45.355201	0.000558	5.576517	1.889375	-0.000223
1104	1.0975e+02	-3.9432	45.129122	0.000568	5.677908	1.923727	-0.000227
1105	1.0985e+02	-3.9897	44.907079	0.000558	5.576517	1.889375	-0.000223
1106	1.0995e+02	-4.0234	44.672926	0.000588	5.880691	1.992432	-0.000235
1107	1.1005e+02	-4.0619	44.479143	0.000487	4.866779	1.648909	-0.000195
1108	1.1015e+02	-4.1052	44.208655	0.000679	6.793212	2.301602	-0.000272
1109	1.1025e+02	-4.1485	44.035058	0.000436	4.359822	1.477148	-0.000174
1110	1.1035e+02	-4.1870	43.780719	0.000639	6.387647	2.164193	-0.000256
1111	1.1044e+02	-4.2320	43.534453	0.000618	6.184864	2.095489	-0.000248
1112	1.1054e+02	-4.2624	43.360856	0.000436	4.359822	1.477148	-0.000174
1113	1.1064e+02	-4.2945	43.167074	0.000487	4.866779	1.648909	-0.000195
1114	1.1074e+02	-4.3411	42.896586	0.000679	6.793212	2.301602	-0.000272
1115	1.1084e+02	-4.3908	42.714915	0.000456	4.562605	1.545852	-0.000183
1116	1.1094e+02	-4.4213	42.416167	0.000750	7.502950	2.542068	-0.000300
1117	1.1104e+02	-4.4662	42.282941	0.000335	3.345910	1.133625	-0.000134
1118	1.1114e+02	-4.4999	42.016490	0.000669	6.691821	2.267250	-0.000268
1119	1.1124e+02	-4.5432	41.774262	0.000608	6.083473	2.061137	-0.000243
1120	1.1134e+02	-4.5865	41.568368	0.000517	5.170952	1.751966	-0.000207
1121	1.1144e+02	-4.6282	41.358437	0.000527	5.272343	1.786318	-0.000211
1122	1.1154e+02	-4.6667	41.132357	0.000568	5.677908	1.923727	-0.000227
1123	1.1164e+02	-4.7068	40.898204	0.000588	5.880691	1.992432	-0.000235
1124	1.1174e+02	-4.7405	40.704421	0.000487	4.866779	1.648909	-0.000195
1125	1.1184e+02	-4.7806	40.486416	0.000548	5.475126	1.855023	-0.000219
1126	1.1194e+02	-4.8175	40.252262	0.000588	5.880691	1.992432	-0.000235
1127	1.1204e+02	-4.8672	40.042331	0.000527	5.272343	1.786318	-0.000211
1128	1.1214e+02	-4.9009	39.824325	0.000548	5.475126	1.855023	-0.000219
1129	1.1224e+02	-4.9394	39.634580	0.000477	4.765387	1.614557	-0.000191
1130	1.1234e+02	-4.9876	39.396389	0.000598	5.982082	2.026784	-0.000239
1131	1.1244e+02	-5.0196	39.178384	0.000548	5.475126	1.855023	-0.000219
1132	1.1253e+02	-5.0614	38.899821	0.000700	6.995994	2.370307	-0.000280
1133	1.1263e+02	-5.0950	38.681816	0.000548	5.475126	1.855023	-0.000219
1134	1.1273e+02	-5.1335	38.463811	0.000548	5.475126	1.855023	-0.000219
1135	1.1283e+02	-5.1817	38.306362	0.000395	3.954258	1.339739	-0.000158
1136	1.1293e+02	-5.2266	38.088357	0.000548	5.475126	1.855023	-0.000219
1137	1.1303e+02	-5.2667	37.850166	0.000598	5.982082	2.026784	-0.000239
1138	1.1313e+02	-5.2892	37.668495	0.000456	4.562605	1.545852	-0.000183
1139	1.1323e+02	-5.3421	37.438378	0.000578	5.779300	1.958080	-0.000231
1140	1.1333e+02	-5.3822	37.204224	0.000588	5.880691	1.992432	-0.000235
1141	1.1343e+02	-5.4287	36.998330	0.000517	5.170952	1.751966	-0.000207
1142	1.1353e+02	-5.4624	36.816659	0.000456	4.562605	1.545852	-0.000183
1143	1.1363e+02	-5.5041	36.574431	0.000608	6.083473	2.061137	-0.000243
1144	1.1373e+02	-5.5346	36.356426	0.000548	5.475126	1.855023	-0.000219
1145	1.1383e+02	-5.5827	36.142458	0.000537	5.373735	1.820671	-0.000215
1146	1.1393e+02	-5.6212	35.985009	0.000395	3.954258	1.339739	-0.000158
1147	1.1403e+02	-5.6581	35.710484	0.000689	6.894603	2.335955	-0.000276
1148	1.1413e+02	-5.6966	35.492479	0.000548	5.475126	1.855023	-0.000219
1149	1.1423e+02	-5.7432	35.294659	0.000497	4.968170	1.683262	-0.000199
1150	1.1433e+02	-5.7720	35.100877	0.000487	4.866779	1.648909	-0.000195
1151	1.1442e+02	-5.8218	34.846537	0.000639	6.387647	2.164193	-0.000256
1152	1.1452e+02	-5.8554	34.705237	0.000355	3.548693	1.202330	-0.000142
1153	1.1462e+02	-5.8956	34.483195	0.000558	5.576517	1.889375	-0.000223
1154	1.1472e+02	-5.9357	34.253078	0.000578	5.779300	1.958080	-0.000231
1155	1.1482e+02	-5.9758	34.035073	0.000548	5.475126	1.855023	-0.000219
1156	1.1492e+02	-6.0239	33.808993	0.000568	5.677908	1.923727	-0.000227
1157	1.1502e+02	-6.0688	33.639434	0.000426	4.258431	1.442796	-0.000170
1158	1.1512e+02	-6.1009	33.417391	0.000558	5.576517	1.889375	-0.000223
1159	1.1522e+02	-6.1346	33.235720	0.000456	4.562605	1.545852	-0.000183
1160	1.1532e+02	-6.1779	32.989455	0.000618	6.184864	2.095489	-0.000248
1161	1.1542e+02	-6.2164	32.771449	0.000548	5.475126	1.855023	-0.000219
1162	1.1552e+02	-6.2597	32.589778	0.000456	4.562605	1.545852	-0.000183
1163	1.1562e+02	-6.2982	32.379847	0.000527	5.272343	1.786318	-0.000211
1164	1.1572e+02	-6.3415	32.190102	0.000477	4.765387	1.614557	-0.000191
1165	1.1582e+02	-6.3736	31.976134	0.000537	5.373735	1.820671	-0.000215
1166	1.1592e+02	-6.4201	31.762165	0.000537	5.373735	1.820671	-0.000215
1167	1.1602e+02	-6.4522	31.588569	0.000436	4.359822	1.477148	-0.000174
1168	1.1612e+02	-6.5036	31.346340	0.000608	6.083473	2.061137	-0.000243
1169	1.1622e+02	-6.5340	31.140447	0.000517	5.170952	1.751966	-0.000207
1170	1.1632e+02	-6.5725	30.962813	0.000446	4.461214	1.511500	-0.000179
1171	1.1642e+02	-6.6159	30.764993	0.000497	4.968170	1.683262	-0.000199
1172	1.1651e+02	-6.6511	30.587359	0.000446	4.461214	1.511500	-0.000179
1173	1.1661e+02	-6.6864	30.320908	0.000669	6.691821	2.267250	-0.000268
1174	1.1671e+02	-6.7314	30.155385	0.000416	4.157040	1.408443	-0.000166
1175	1.1681e+02	-6.7763	29.977751	0.000446	4.461214	1.511500	-0.000179
1176	1.1691e+02	-6.8068	29.759746	0.000548	5.475126	1.855023	-0.000219
1177	1.1701e+02	-6.8565	29.533666	0.000568	5.677908	1.923727	-0.000227
1178	1.1711e+02	-6.8838	29.368144	0.000416	4.157040	1.408443	-0.000166
1179	1.1721e+02	-6.9271	29.138027	0.000578	5.779300	1.958080	-0.000231
1180	1.1731e+02	-6.9736	28.948282	0.000477	4.765387	1.614557	-0.000191
1181	1.1741e+02	-7.0137	28.718165	0.000578	5.779300	1.958080	-0.000231
1182	1.1751e+02	-7.0586	28.564754	0.000385	3.852866	1.305386	-0.000154
1183	1.1761e+02	-7.0891	28.322526	0.000608	6.083473	2.061137	-0.000243
1184	1.1771e+02	-7.1340	28.161040	0.000406	4.055649	1.374091	-0.000162
1185	1.1781e+02	-7.1661	27.906701	0.000639	6.387647	2.164193	-0.000256
1186	1.1791e+02	-7.2094	27.716955	0.000477	4.765387	1.614557	-0.000191
1187	1.1801e+02	-7.2575	27.527210	0.000477	4.765387	1.614557	-0.000191
1188	1.1811e+02	-7.2928	27.337465	0.000477	4.765387	1.614557	-0.000191
1189	1.1821e+02	-7.3329	27.119459	0.000548	5.475126	1.855023	-0.000219
1190	1.1831e+02	-7.3666	26.941825	0.000446	4.461214	1.511500	-0.000179
1191	1.1841e+02	-7.4148	26.715746	0.000568	5.677908	1.923727	-0.000227
1192	1.1850e+02	-7.4436	26.485629	0.000578	5.779300	1.958080	-0.000231
1193	1.1860e+02	-7.4934	26.312032	0.000436	4.359822	1.477148	-0.000174
1194	1.1870e+02	-7.5174	26.122287	0.000477	4.765387	1.614557	-0.000191
1195	1.1880e+02	-7.5672	25.928504	0.000487	4.866779	1.648909	-0.000195
1196	1.1890e+02	-7.6121	25.726647	0.000507	5.069561	1.717614	-0.000203
1197	1.1900e+02	-7.6506	25.520754	0.000517	5.170952	1.751966	-0.000207
1198	1.1910e+02	-7.6923	25.306785	0.000537	5.373735	1.820671	-0.000215
1199	1.1920e+02	-7.7308	25.141263	0.000416	4.157040	1.408443	-0.000166
1200	1.1930e+02	-7.7613	24.947480	0.000487	4.866779	1.648909	-0.000195
1201	1.1940e+02	-7.8190	24.689104	0.000649	6.489038	2.198546	-0.000260
1202	1.1950e+02	-7.8511	24.539730	0.000375	3.751475	1.271034	-0.000150
1203	1.1960e+02	-7.8784	24.362096	0.000446	4.461214	1.511500	-0.000179
1204	1.1970e+02	-7.9201	24.119867	0.000608	6.083473	2.061137	-0.000243
1205	1.1980e+02	-7.9762	23.881676	0.000598	5.982082	2.026784	-0.000239
1206	1.1990e+02	-8.0067	23.691931	0.000477	4.765387	1.614557	-0.000191
1207	1.2000e+02	-8.0452	23.538520	0.000385	3.852866	1.305386	-0.000154
1208	1.2010e+02	-8.0901	23.324552	0.000537	5.373735	1.820671	-0.000215
1209	1.2020e+02	-8.1238	23.138843	0.000466	4.663996	1.580205	-0.000187
1210	1.2030e+02	-8.1688	22.928912	0.000527	5.272343	1.786318	-0.000211
1211	1.2039e+02	-8.2121	22.735130	0.000487	4.866779	1.648909	-0.000195
1212	1.2049e+02	-8.2474	22.569607	0.000416	4.157040	1.408443	-0.000166
1213	1.2059e+02	-8.2810	22.379862	0.000477	4.765387	1.614557	-0.000191
1214	1.2069e+02	-8.3147	22.137634	0.000608	6.083473	2.061137	-0.000243
1215	1.2079e+02	-8.3693	21.980186	0.000395	3.954258	1.339739	-0.000158
1216	1.2089e+02	-8.4014	21.806589	0.000436	4.359822	1.477148	-0.000174
1217	1.2099e+02	-8.4479	21.616843	0.000477	4.765387	1.614557	-0.000191
1218	1.2109e+02	-8.4944	21.374615	0.000608	6.083473	2.061137	-0.000243
1219	1.2119e+02	-8.5249	21.152573	0.000558	5.576517	1.889375	-0.000223
1220	1.2129e+02	-8.5650	21.015310	0.000345	3.447302	1.167977	-0.000138
1221	1.2139e+02	-8.6035	20.797305	0.000548	5.475126	1.855023	-0.000219
1222	1.2149e+02	-8.6500	20.599485	0.000497	4.968170	1.683262	-0.000199
1223	1.2159e+02	-8.6821	20.417814	0.000456	4.562605	1.545852	-0.000183
1224	1.2169e+02	-8.7222	20.240180	0.000446	4.461214	1.511500	-0.000179
1225	1.2179e+02	-8.7719	19.989878	0.000629	6.286256	2.129841	-0.000252
1226	1.2189e+02	-8.8024	19.832429	0.000395	3.954258	1.339739	-0.000158
1227	1.2199e+02	-8.8409	19.646721	0.000466	4.663996	1.580205	-0.000187
1228	1.2209e+02	-8.8842	19.432753	0.000537	5.373735	1.820671	-0.000215
1229	1.2219e+02	-8.9276	19.230896	0.000507	5.069561	1.717614	-0.000203
1230	1.2229e+02	-8.9661	19.033076	0.000497	4.968170	1.683262	-0.000199
1231	1.2239e+02	-8.9981	18.899851	0.000335	3.345910	1.133625	-0.000134
1232	1.2248e+02	-9.0399	18.653586	0.000618	6.184864	2.095489	-0.000248
1233	1.2258e+02	-9.0864	18.443655	0.000527	5.272343	1.786318	-0.000211
1234	1.2268e+02	-9.1281	18.282169	0.000406	4.055649	1.374091	-0.000162
1235	1.2278e+02	-9.1634	18.088387	0.000487	4.866779	1.648909	-0.000195
1236	1.2288e+02	-9.2003	17.874418	0.000537	5.373735	1.820671	-0.000215
1237	1.2298e+02	-9.2404	17.700822	0.000436	4.359822	1.477148	-0.000174
1238	1.2308e+02	-9.2853	17.511076	0.000477	4.765387	1.614557	-0.000191
1239	1.2318e+02	-9.3254	17.325368	0.000466	4.663996	1.580205	-0.000187
1240	1.2328e+02	-9.3623	17.083140	0.000608	6.083473	2.061137	-0.000243
1241	1.2338e+02	-9.3992	16.941840	0.000355	3.548693	1.202330	-0.000142
1242	1.2348e+02	-9.4393	16.711723	0.000578	5.779300	1.958080	-0.000231
1243	1.2358e+02	-9.4762	16.526015	0.000466	4.663996	1.580205	-0.000187
1244	1.2368e+02	-9.5147	16.308010	0.000548	5.475126	1.855023	-0.000219
1245	1.2378e+02	-9.5660	16.114227	0.000487	4.866779	1.648909	-0.000195
1246	1.2388e+02	-9.5997	15.968890	0.000365	3.650084	1.236682	-0.000146
1247	1.2398e+02	-9.6430	15.726662	0.000608	6.083473	2.061137	-0.000243
1248	1.2408e+02	-9.6831	15.585363	0.000355	3.548693	1.202330	-0.000142
1249	1.2418e+02	-9.7184	15.331023	0.000639	6.387647	2.164193	-0.000256
1250	1.2428e+02	-9.7521	15.169538	0.000406	4.055649	1.374091	-0.000162
1251	1.2438e+02	-9.7922	14.971718	0.000497	4.968170	1.683262	-0.000199
1252	1.2447e+02	-9.8452	14.790047	0.000456	4.562605	1.545852	-0.000183
1253	1.2457e+02	-9.8805	14.612413	0.000446	4.461214	1.511500	-0.000179
1254	1.2467e+02	-9.9190	14.406519	0.000517	5.170952	1.751966	-0.000207
1255	1.2477e+02	-9.9559	14.204662	0.000507	5.069561	1.717614	-0.000203
1256	1.2487e+02	-9.9976	14.035102	0.000426	4.258431	1.442796	-0.000170
1257	1.2497e+02	-10.0425	13.800949	0.000588	5.880691	1.992432	-0.000235
1258	1.2507e+02	-10.0890	13.643500	0.000395	3.954258	1.339739	-0.000158
1259	1.2517e+02	-10.1147	13.441643	0.000507	5.069561	1.717614	-0.000203
1260	1.2527e+02	-10.1660	13.239787	0.000507	5.069561	1.717614	-0.000203
1261	1.2537e+02	-10.1933	13.037930	0.000507	5.069561	1.717614	-0.000203
1262	1.2547e+02	-10.2462	12.840110	0.000497	4.968170	1.683262	-0.000199
1263	1.2557e+02	-10.2735	12.670551	0.000426	4.258431	1.442796	-0.000170
1264	1.2567e+02	-10.3200	12.448508	0.000558	5.576517	1.889375	-0.000223
1265	1.2577e+02	-10.3569	12.242614	0.000517	5.170952	1.751966	-0.000207
1266	1.2587e+02	-10.4002	12.056906	0.000466	4.663996	1.580205	-0.000187
1267	1.2597e+02	-10.4355	11.883309	0.000436	4.359822	1.477148	-0.000174
1268	1.2607e+02	-10.4756	11.653192	0.000578	5.779300	1.958080	-0.000231
1269	1.2617e+02	-10.5238	11.475558	0.000446	4.461214	1.511500	-0.000179
1270	1.2627e+02	-10.5542	11.241404	0.000588	5.880691	1.992432	-0.000235
1271	1.2636e+02	-10.5944	11.051659	0.000477	4.765387	1.614557	-0.000191
1272	1.2646e+02	-10.6393	10.833654	0.000548	5.475126	1.855023	-0.000219
1273	1.2656e+02	-10.6794	10.587388	0.000618	6.184864	2.095489	-0.000248
1274	1.2666e+02	-10.7131	10.433977	0.000385	3.852866	1.305386	-0.000154
1275	1.2676e+02	-10.7564	10.228083	0.000517	5.170952	1.751966	-0.000207
1276	1.2686e+02	-10.7933	10.038338	0.000477	4.765387	1.614557	-0.000191
1277	1.2696e+02	-10.8350	9.820333	0.000548	5.475126	1.855023	-0.000219
1278	1.2706e+02	-10.8751	9.622513	0.000497	4.968170	1.683262	-0.000199
1279	1.2716e+02	-10.9200	9.400471	0.000558	5.576517	1.889375	-0.000223
1280	1.2726e+02	-10.9553	9.158242	0.000608	6.083473	2.061137	-0.000243
1281	1.2736e+02	-11.0018	8.952348	0.000517	5.170952	1.751966	-0.000207
1282	1.2746e+02	-11.0339	8.714157	0.000598	5.982082	2.026784	-0.000239
1283	1.2756e+02	-11.0804	8.455781	0.000649	6.489038	2.198546	-0.000260
1284	1.2766e+02	-11.1093	8.278147	0.000446	4.461214	1.511500	-0.000179
1285	1.2776e+02	-11.1558	8.011696	0.000669	6.691821	2.267250	-0.000268
1286	1.2786e+02	-11.2008	7.821950	0.000477	4.765387	1.614557	-0.000191
1287	1.2796e+02	-11.2328	7.591834	0.000578	5.779300	1.958080	-0.000231
1288	1.2806e+02	-11.2665	7.357680	0.000588	5.880691	1.992432	-0.000235
1289	1.2816e+02	-11.3147	7.111415	0.000618	6.184864	2.095489	-0.000248
1290	1.2826e+02	-11.3628	6.869186	0.000608	6.083473	2.061137	-0.000243
1291	1.2835e+02	-11.3997	6.675404	0.000487	4.866779	1.648909	-0.000195
1292	1.2845e+02	-11.4318	6.412990	0.000659	6.590429	2.232898	-0.000264
1293	1.2855e+02	-11.4783	6.178836	0.000588	5.880691	1.992432	-0.000235
1294	1.2865e+02	-11.5152	5.924497	0.000639	6.387647	2.164193	-0.000256
1295	1.2875e+02	-11.5617	5.682269	0.000608	6.083473	2.061137	-0.000243
1296	1.2885e+02	-11.5906	5.423892	0.000649	6.489038	2.198546	-0.000260
1297	1.2895e+02	-11.6355	5.185701	0.000598	5.982082	2.026784	-0.000239
1298	1.2905e+02	-11.6740	4.935398	0.000629	6.286256	2.129841	-0.000252
1299	1.2915e+02	-11.7205	4.677022	0.000649	6.489038	2.198546	-0.000260
1300	1.2925e+02	-11.7526	4.430756	0.000618	6.184864	2.095489	-0.000248
1301	1.2935e+02	-11.7943	4.212751	0.000548	5.475126	1.855023	-0.000219
1302	1.2945e+02	-11.8312	3.930152	0.000710	7.097385	2.404659	-0.000284
1303	1.2955e+02	-11.8761	3.695998	0.000588	5.880691	1.992432	-0.000235
1304	1.2965e+02	-11.9162	3.413398	0.000710	7.097385	2.404659	-0.000284
1305	1.2975e+02	-11.9499	3.179244	0.000588	5.880691	1.992432	-0.000235
1306	1.2985e+02	-11.9852	2.904719	0.000689	6.894603	2.335955	-0.000276
1307	1.2995e+02	-12.0398	2.618083	0.000720	7.198777	2.439012	-0.000288
1308	1.3005e+02	-12.0702	2.396040	0.000558	5.576517	1.889375	-0.000223
1309	1.3015e+02	-12.1087	2.097292	0.000750	7.502950	2.542068	-0.000300
1310	1.3025e+02	-12.1473	1.806618	0.000730	7.300168	2.473364	-0.000292
1311	1.3034e+02	-12.1890	1.612836	0.000487	4.866779	1.648909	-0.000195
1312	1.3044e+02	-12.2387	1.281791	0.000831	8.314080	2.816887	-0.000333
1313	1.3054e+02	-12.2628	1.047637	0.000588	5.880691	1.992432	-0.000235
1314	1.3064e+02	-12.3029	0.773111	0.000689	6.894603	2.335955	-0.000276
1315	1.3074e+02	-12.3606	0.518772	0.000639	6.387647	2.164193	-0.000256
1316	1.3084e+02	-12.3927	0.175615	0.000862	8.618254	2.919943	-0.000345
1317	1.3094e+02	-12.4264	-0.062576	0.000598	5.982082	2.026784	-0.000239
1318	1.3104e+02	-12.4697	-0.300767	0.000598	5.982082	2.026784	-0.000239
1319	1.3114e+02	-12.5066	-0.619700	0.000801	8.009906	2.713830	-0.000321
1320	1.3124e+02	-12.5483	-0.934597	0.000791	7.908515	2.679477	-0.000316
1321	1.3134e+02	-12.5836	-1.140491	0.000517	5.170952	1.751966	-0.000207
1322	1.3144e+02	-12.6285	-1.451350	0.000781	7.807124	2.645125	-0.000312
1323	1.3154e+02	-12.6718	-1.737987	0.000720	7.198777	2.439012	-0.000288
1324	1.3164e+02	-12.7119	-2.000401	0.000659	6.590429	2.232898	-0.000264
1325	1.3174e+02	-12.7456	-2.287037	0.000720	7.198777	2.439012	-0.000288
1326	1.3184e+02	-12.7905	-2.593860	0.000771	7.705733	2.610773	-0.000308
1327	1.3194e+02	-12.8307	-2.904719	0.000781	7.807124	2.645125	-0.000312
1328	1.3204e+02	-12.8676	-3.199430	0.000740	7.401559	2.507716	-0.000296
1329	1.3214e+02	-12.8996	-3.473955	0.000689	6.894603	2.335955	-0.000276
1330	1.3224e+02	-12.9462	-3.764629	0.000730	7.300168	2.473364	-0.000292
1331	1.3234e+02	-12.9895	-4.071451	0.000771	7.705733	2.610773	-0.000308
1332	1.3243e+02	-13.0344	-4.370199	0.000750	7.502950	2.542068	-0.000300
1333	1.3253e+02	-13.0665	-4.664910	0.000740	7.401559	2.507716	-0.000296
1334	1.3263e+02	-13.1066	-4.975770	0.000781	7.807124	2.645125	-0.000312
1335	1.3273e+02	-13.1435	-5.266444	0.000730	7.300168	2.473364	-0.000292
1336	1.3283e+02	-13.1932	-5.577303	0.000781	7.807124	2.645125	-0.000312
1337	1.3293e+02	-13.2269	-5.916422	0.000852	8.516863	2.885591	-0.000341
1338	1.3303e+02	-13.2638	-6.174799	0.000649	6.489038	2.198546	-0.000260
1339	1.3313e+02	-13.3087	-6.538141	0.000913	9.125210	3.091705	-0.000365
1340	1.3323e+02	-13.3472	-6.800555	0.000659	6.590429	2.232898	-0.000264
1341	1.3333e+02	-13.3761	-7.103340	0.000760	7.604342	2.576421	-0.000304
1342	1.3343e+02	-13.4210	-7.446497	0.000862	8.618254	2.919943	-0.000345
1343	1.3353e+02	-13.4659	-7.785616	0.000852	8.516863	2.885591	-0.000341
1344	1.3363e+02	-13.5012	-8.060142	0.000689	6.894603	2.335955	-0.000276
1345	1.3373e+02	-13.5477	-8.415409	0.000892	8.922427	3.023000	-0.000357
1346	1.3383e+02	-13.5798	-8.718195	0.000760	7.604342	2.576421	-0.000304
1347	1.3393e+02	-13.6215	-9.073463	0.000892	8.922427	3.023000	-0.000357
1348	1.3403e+02	-13.6568	-9.412582	0.000852	8.516863	2.885591	-0.000341
1349	1.3413e+02	-13.7018	-9.715367	0.000760	7.604342	2.576421	-0.000304
1350	1.3423e+02	-13.7435	-10.111006	0.000994	9.936340	3.366523	-0.000398
1351	1.3432e+02	-13.7852	-10.373420	0.000659	6.590429	2.232898	-0.000264
1352	1.3442e+02	-13.8205	-10.752911	0.000953	9.530775	3.229114	-0.000381
1353	1.3452e+02	-13.8702	-11.067808	0.000791	7.908515	2.679477	-0.000316
1354	1.3462e+02	-13.8959	-11.451336	0.000963	9.632166	3.263466	-0.000385
1355	1.3472e+02	-13.9472	-11.774306	0.000811	8.111298	2.748182	-0.000325
1356	1.3482e+02	-13.9857	-12.093240	0.000801	8.009906	2.713830	-0.000321
1357	1.3492e+02	-14.0290	-12.472731	0.000953	9.530775	3.229114	-0.000381
1358	1.3502e+02	-14.0627	-12.827999	0.000892	8.922427	3.023000	-0.000357
1359	1.3512e+02	-14.1028	-13.167118	0.000852	8.516863	2.885591	-0.000341
1360	1.3522e+02	-14.1413	-13.550646	0.000963	9.632166	3.263466	-0.000385
1361	1.3532e+02	-14.1750	-13.893803	0.000862	8.618254	2.919943	-0.000345
1362	1.3542e+02	-14.2215	-14.273293	0.000953	9.530775	3.229114	-0.000381
1363	1.3552e+02	-14.2600	-14.624524	0.000882	8.821036	2.988648	-0.000353
1364	1.3562e+02	-14.3049	-14.979792	0.000892	8.922427	3.023000	-0.000357
1365	1.3572e+02	-14.3418	-15.371394	0.000983	9.834948	3.332171	-0.000394
1366	1.3582e+02	-14.3819	-15.726662	0.000892	8.922427	3.023000	-0.000357
1367	1.3592e+02	-14.4172	-16.134413	0.001024	10.240513	3.469580	-0.000410
1368	1.3602e+02	-14.4557	-16.505829	0.000933	9.327992	3.160409	-0.000373
1369	1.3612e+02	-14.5103	-16.885320	0.000953	9.530775	3.229114	-0.000381
1370	1.3622e+02	-14.5472	-17.280960	0.000994	9.936340	3.366523	-0.000398
1371	1.3631e+02	-14.5793	-17.664487	0.000963	9.632166	3.263466	-0.000385
1372	1.3641e+02	-14.6226	-18.043978	0.000953	9.530775	3.229114	-0.000381
1373	1.3651e+02	-14.6643	-18.459803	0.001044	10.443296	3.538284	-0.000418
1374	1.3661e+02	-14.6964	-18.811034	0.000882	8.821036	2.988648	-0.000353
1375	1.3671e+02	-14.7333	-19.218785	0.001024	10.240513	3.469580	-0.000410
1376	1.3681e+02	-14.7830	-19.658832	0.001105	11.051643	3.744398	-0.000442
1377	1.3691e+02	-14.8279	-20.054472	0.000994	9.936340	3.366523	-0.000398
1378	1.3701e+02	-14.8568	-20.450111	0.000994	9.936340	3.366523	-0.000398
1379	1.3711e+02	-14.9001	-20.886122	0.001095	10.950252	3.710046	-0.000438
1380	1.3721e+02	-14.9434	-21.261575	0.000943	9.429384	3.194762	-0.000377
1381	1.3731e+02	-14.9787	-21.681437	0.001054	10.544687	3.572637	-0.000422
1382	1.3741e+02	-15.0156	-22.117448	0.001095	10.950252	3.710046	-0.000438
1383	1.3751e+02	-15.0557	-22.561533	0.001115	11.153034	3.778750	-0.000446
1384	1.3761e+02	-15.1055	-22.973321	0.001034	10.341905	3.503932	-0.000414
1385	1.3771e+02	-15.1456	-23.433554	0.001156	11.558599	3.916159	-0.000463
1386	1.3781e+02	-15.1776	-23.845342	0.001034	10.341905	3.503932	-0.000414
1387	1.3791e+02	-15.2242	-24.261167	0.001044	10.443296	3.538284	-0.000418
1388	1.3801e+02	-15.2627	-24.672955	0.001034	10.341905	3.503932	-0.000414
1389	1.3811e+02	-15.2980	-25.137226	0.001166	11.659990	3.950512	-0.000467
1390	1.3821e+02	-15.3268	-25.593422	0.001146	11.457208	3.881807	-0.000458
1391	1.3831e+02	-15.3830	-26.077878	0.001217	12.166946	4.122273	-0.000487
1392	1.3840e+02	-15.4279	-26.546186	0.001176	11.761382	3.984864	-0.000471
1393	1.3850e+02	-15.4600	-26.962011	0.001044	10.443296	3.538284	-0.000418
1394	1.3860e+02	-15.5017	-27.418207	0.001146	11.457208	3.881807	-0.000458
1395	1.3870e+02	-15.5450	-27.926886	0.001278	12.775294	4.328387	-0.000511
1396	1.3880e+02	-15.5771	-28.435566	0.001278	12.775294	4.328387	-0.000511
1397	1.3890e+02	-15.6124	-28.847353	0.001034	10.341905	3.503932	-0.000414
1398	1.3900e+02	-15.6605	-29.384292	0.001349	13.485032	4.568853	-0.000540
1399	1.3910e+02	-15.6958	-29.820303	0.001095	10.950252	3.710046	-0.000438
1400	1.3920e+02	-15.7375	-30.304759	0.001217	12.166946	4.122273	-0.000487
1401	1.3930e+02	-15.7744	-30.841698	0.001349	13.485032	4.568853	-0.000540
1402	1.3940e+02	-15.8049	-31.338266	0.001247	12.471120	4.225330	-0.000499
1403	1.3950e+02	-15.8530	-31.798500	0.001156	11.558599	3.916159	-0.000463
1404	1.3960e+02	-15.8947	-32.343513	0.001369	13.687815	4.637557	-0.000548
1405	1.3970e+02	-15.9381	-32.860266	0.001298	12.978076	4.397091	-0.000519
1406	1.3980e+02	-15.9814	-33.381057	0.001308	13.079467	4.431444	-0.000523
1407	1.3990e+02	-16.0118	-33.857439	0.001196	11.964164	4.053569	-0.000479
1408	1.4000e+02	-16.0552	-34.402452	0.001369	13.687815	4.637557	-0.000548
1409	1.4010e+02	-16.1017	-34.923243	0.001308	13.079467	4.431444	-0.000523
1410	1.4020e+02	-16.1354	-35.435959	0.001288	12.876685	4.362739	-0.000515
1411	1.4029e+02	-16.1787	-35.989047	0.001389	13.890597	4.706262	-0.000556
1412	1.4039e+02	-16.2172	-36.538097	0.001379	13.789206	4.671909	-0.000552
1413	1.4049e+02	-16.2557	-37.119445	0.001460	14.600336	4.946728	-0.000584
1414	1.4059e+02	-16.2926	-37.640235	0.001308	13.079467	4.431444	-0.000523
1415	1.4069e+02	-16.3311	-38.213508	0.001440	14.397553	4.878023	-0.000576
1416	1.4079e+02	-16.3776	-38.754485	0.001359	13.586424	4.603205	-0.000544
1417	1.4089e+02	-16.4145	-39.339869	0.001470	14.701727	4.981080	-0.000588
1418	1.4099e+02	-16.4594	-39.929291	0.001480	14.803118	5.015432	-0.000592
1419	1.4109e+02	-16.4947	-40.510639	0.001460	14.600336	4.946728	-0.000584
1420	1.4119e+02	-16.5252	-41.108135	0.001501	15.005901	5.084137	-0.000600
1421	1.4129e+02	-16.5781	-41.721779	0.001541	15.411466	5.221546	-0.000617
1422	1.4139e+02	-16.6166	-42.331387	0.001531	15.310074	5.187194	-0.000613
1423	1.4149e+02	-16.6584	-42.848140	0.001298	12.978076	4.397091	-0.000519
1424	1.4159e+02	-16.6969	-43.518305	0.001683	16.830943	5.702478	-0.000674
1425	1.4169e+02	-16.7354	-44.144061	0.001572	15.715639	5.324603	-0.000629
1426	1.4179e+02	-16.7803	-44.733483	0.001480	14.803118	5.015432	-0.000592
1427	1.4189e+02	-16.8092	-45.351164	0.001551	15.512857	5.255898	-0.000621
1428	1.4199e+02	-16.8589	-46.001143	0.001632	16.323987	5.530716	-0.000653
1429	1.4209e+02	-16.8829	-46.671308	0.001683	16.830943	5.702478	-0.000674
1430	1.4219e+02	-16.9343	-47.305138	0.001592	15.918422	5.393307	-0.000637
1431	1.4228e+02	-16.9664	-47.995488	0.001734	17.337899	5.874239	-0.000694
1432	1.4238e+02	-17.0113	-48.621244	0.001572	15.715639	5.324603	-0.000629
1433	1.4248e+02	-17.0466	-49.279297	0.001653	16.526769	5.599421	-0.000661
1434	1.4258e+02	-17.0835	-49.965610	0.001724	17.236508	5.839887	-0.000690
1435	1.4268e+02	-17.1268	-50.655961	0.001734	17.337899	5.874239	-0.000694
1436	1.4278e+02	-17.1717	-51.322088	0.001673	16.729551	5.668125	-0.000669
1437	1.4288e+02	-17.2118	-52.016475	0.001744	17.439290	5.908591	-0.000698
1438	1.4298e+02	-17.2567	-52.727011	0.001784	17.844855	6.046000	-0.000714
1439	1.4308e+02	-17.2888	-53.433510	0.001774	17.743464	6.011648	-0.000710
1440	1.4318e+02	-17.3353	-54.172306	0.001855	18.554593	6.286466	-0.000743
1441	1.4328e+02	-17.3770	-54.850545	0.001703	17.033725	5.771182	-0.000682
1442	1.4338e+02	-17.4139	-55.633749	0.001967	19.669897	6.664341	-0.000787
1443	1.4348e+02	-17.4573	-56.388693	0.001896	18.960158	6.423876	-0.000759
1444	1.4358e+02	-17.4990	-57.095192	0.001774	17.743464	6.011648	-0.000710
1445	1.4368e+02	-17.5327	-57.846099	0.001886	18.858767	6.389523	-0.000755
1446	1.4378e+02	-17.5808	-58.625267	0.001957	19.568506	6.629989	-0.000783
1447	1.4388e+02	-17.6113	-59.424619	0.002008	20.075462	6.801751	-0.000803
1448	1.4398e+02	-17.6514	-60.143230	0.001805	18.047637	6.114705	-0.000722
1449	1.4408e+02	-17.6835	-60.934508	0.001987	19.872679	6.733046	-0.000795
1450	1.4418e+02	-17.7252	-61.745973	0.002038	20.379635	6.904807	-0.000816
1451	1.4428e+02	-17.7717	-62.513028	0.001926	19.264332	6.526932	-0.000771
1452	1.4437e+02	-17.8054	-63.332567	0.002058	20.582418	6.973512	-0.000824
1453	1.4447e+02	-17.8487	-64.176328	0.002119	21.190765	7.179626	-0.000848
1454	1.4457e+02	-17.8856	-64.999904	0.002068	20.683809	7.007864	-0.000828
1455	1.4467e+02	-17.9337	-65.807331	0.002028	20.278244	6.870455	-0.000811
1456	1.4477e+02	-17.9706	-66.667241	0.002160	21.596330	7.317035	-0.000864
1457	1.4487e+02	-18.0059	-67.575597	0.002281	22.813025	7.729262	-0.000913
1458	1.4497e+02	-18.0508	-68.427432	0.002139	21.393548	7.248330	-0.000856
1459	1.4507e+02	-18.0877	-69.315602	0.002231	22.306069	7.557501	-0.000893
1460	1.4517e+02	-18.1262	-70.240106	0.002322	23.218590	7.866671	-0.000929
1461	1.4527e+02	-18.1824	-71.071756	0.002089	20.886591	7.076569	-0.000836
1462	1.4537e+02	-18.2048	-72.028557	0.002403	24.029719	8.141489	-0.000962
1463	1.4547e+02	-18.2562	-72.924801	0.002251	22.508851	7.626205	-0.000901
1464	1.4557e+02	-18.2883	-73.837194	0.002291	22.914416	7.763614	-0.000917
1465	1.4567e+02	-18.3252	-74.806107	0.002433	24.333893	8.244546	-0.000974
1466	1.4577e+02	-18.3717	-75.762908	0.002403	24.029719	8.141489	-0.000962
1467	1.4587e+02	-18.4086	-76.683375	0.002312	23.117198	7.832319	-0.000925
1468	1.4597e+02	-18.4519	-77.692659	0.002535	25.347805	8.588069	-0.001014
1469	1.4607e+02	-18.4840	-78.653497	0.002413	24.131111	8.175842	-0.000966
1470	1.4617e+02	-18.5289	-79.674892	0.002565	25.651979	8.691126	-0.001027
1471	1.4626e+02	-18.5722	-80.692251	0.002555	25.550588	8.656773	-0.001022
1472	1.4636e+02	-18.6011	-81.685386	0.002494	24.942240	8.450660	-0.000998
1473	1.4646e+02	-18.6444	-82.714856	0.002585	25.854761	8.759830	-0.001035
1474	1.4656e+02	-18.6861	-83.784697	0.002687	26.868673	9.103353	-0.001075
1475	1.4666e+02	-18.7214	-84.874723	0.002738	27.375630	9.275114	-0.001096
1476	1.4676e+02	-18.7583	-85.932453	0.002656	26.564500	9.000296	-0.001063
1477	1.4686e+02	-18.8064	-87.002294	0.002687	26.868673	9.103353	-0.001075
1478	1.4696e+02	-18.8401	-88.088283	0.002727	27.274238	9.240762	-0.001091
1479	1.4706e+02	-18.8850	-89.214644	0.002829	28.288151	9.584285	-0.001132
1480	1.4716e+02	-18.9283	-90.349079	0.002849	28.490933	9.652989	-0.001140
1481	1.4726e+02	-18.9668	-91.495626	0.002880	28.795107	9.756046	-0.001152
1482	1.4736e+02	-19.0118	-92.601801	0.002778	27.781194	9.412523	-0.001112
1483	1.4746e+02	-19.0471	-93.825053	0.003072	30.721540	10.408739	-0.001229
1484	1.4756e+02	-19.0888	-94.955451	0.002839	28.389542	9.618637	-0.001136
1485	1.4766e+02	-19.1209	-96.166592	0.003042	30.417366	10.305683	-0.001217
1486	1.4776e+02	-19.1610	-97.401955	0.003103	31.025714	10.511796	-0.001242
1487	1.4786e+02	-19.2091	-98.613096	0.003042	30.417366	10.305683	-0.001217
1488	1.4796e+02	-19.2380	-99.852497	0.003113	31.127105	10.546149	-0.001246
1489	1.4806e+02	-19.2845	-101.116120	0.003174	31.735452	10.752262	-0.001270
1490	1.4816e+02	-19.3278	-102.371669	0.003153	31.532670	10.683558	-0.001262
1491	1.4825e+02	-19.3679	-103.683739	0.003295	32.952147	11.164490	-0.001319
1492	1.4835e+02	-19.3984	-104.947362	0.003174	31.735452	10.752262	-0.001270
1493	1.4845e+02	-19.4385	-106.267505	0.003315	33.154929	11.233194	-0.001327
1494	1.4855e+02	-19.4850	-107.595723	0.003336	33.357712	11.301899	-0.001335
1495	1.4865e+02	-19.5235	-108.956238	0.003417	34.168841	11.576717	-0.001367
1496	1.4875e+02	-19.5604	-110.316753	0.003417	34.168841	11.576717	-0.001367
1497	1.4885e+02	-19.6037	-111.741862	0.003579	35.791101	12.126353	-0.001432
1498	1.4895e+02	-19.6390	-113.154859	0.003549	35.486927	12.023296	-0.001420
1499	1.4905e+02	-19.6807	-114.543634	0.003488	34.878580	11.817183	-0.001396
1500	1.4915e+02	-19.7176	-116.005077	0.003670	36.703622	12.435524	-0.001469
1501	1.4925e+02	-19.7674	-117.486706	0.003721	37.210578	12.607285	-0.001489
1502	1.4935e+02	-19.8010	-118.936037	0.003640	36.399448	12.332467	-0.001457
1503	1.4945e+02	-19.8428	-120.458038	0.003822	38.224490	12.950808	-0.001530
1504	1.4955e+02	-19.8925	-121.984075	0.003833	38.325881	12.985160	-0.001534
1505	1.4965e+02	-19.9214	-123.502038	0.003812	38.123099	12.916456	-0.001526
1506	1.4975e+02	-19.9599	-125.092669	0.003995	39.948141	13.534797	-0.001599
1507	1.4985e+02	-19.9952	-126.626781	0.003853	38.528664	13.053865	-0.001542
1508	1.4995e+02	-19.9631	-127.914627	-0.003234	-32.343799	-10.958376	-0.001294
1509	1.5005e+02	-19.9149	-129.093471	-0.002961	-29.606236	-10.030864	-0.001185
1510	1.5015e+02	-19.8700	-130.171386	-0.002707	-27.071456	-9.172058	-0.001083
1511	1.5025e+02	-19.8428	-131.265450	-0.002748	-27.477021	-9.309467	-0.001100
1512	1.5034e+02	-19.8010	-132.347402	-0.002717	-27.172847	-9.206410	-0.001087
1513	1.5044e+02	-19.7658	-133.296129	-0.002383	-23.826937	-8.072785	-0.000953
1514	1.5054e+02	-19.7128	-134.216596	-0.002312	-23.117198	-7.832319	-0.000925
1515	1.5064e+02	-19.6727	-135.149175	-0.002342	-23.421372	-7.935376	-0.000937
1516	1.5074e+02	-19.6406	-135.960639	-0.002038	-20.379635	-6.904807	-0.000816
1517	1.5084e+02	-19.6069	-136.808437	-0.002129	-21.292156	-7.213978	-0.000852
1518	1.5094e+02	-19.5636	-137.563382	-0.001896	-18.960158	-6.423876	-0.000759
1519	1.5104e+02	-19.5251	-138.298140	-0.001845	-18.453202	-6.252114	-0.000738
1520	1.5114e+02	-19.4866	-139.008676	-0.001784	-17.844855	-6.046000	-0.000714
1521	1.5124e+02	-19.4433	-139.727286	-0.001805	-18.047637	-6.114705	-0.000722
1522	1.5134e+02	-19.3984	-140.389377	-0.001663	-16.628160	-5.633773	-0.000665
1523	1.5144e+02	-19.3567	-140.998984	-0.001531	-15.310074	-5.187194	-0.000613
1524	1.5154e+02	-19.3182	-141.604555	-0.001521	-15.208683	-5.152841	-0.000609
1525	1.5164e+02	-19.2781	-142.234348	-0.001582	-15.817030	-5.358955	-0.000633
1526	1.5174e+02	-19.2492	-142.791472	-0.001399	-13.991988	-4.740614	-0.000560
1527	1.5184e+02	-19.2139	-143.324374	-0.001338	-13.383641	-4.534500	-0.000536
1528	1.5194e+02	-19.1674	-143.889573	-0.001419	-14.194771	-4.809319	-0.000568
1529	1.5204e+02	-19.1241	-144.394215	-0.001267	-12.673903	-4.294034	-0.000507
1530	1.5214e+02	-19.0840	-144.826189	-0.001085	-10.848861	-3.675693	-0.000434
1531	1.5224e+02	-19.0551	-145.294497	-0.001176	-11.761382	-3.984864	-0.000471
1532	1.5233e+02	-19.0198	-145.734544	-0.001105	-11.051643	-3.744398	-0.000442
1533	1.5243e+02	-18.9636	-146.166518	-0.001085	-10.848861	-3.675693	-0.000434
1534	1.5253e+02	-18.9299	-146.546009	-0.000953	-9.530775	-3.229114	-0.000381
1535	1.5263e+02	-18.8914	-146.949722	-0.001014	-10.139122	-3.435228	-0.000406
1536	1.5273e+02	-18.8481	-147.329213	-0.000953	-9.530775	-3.229114	-0.000381
1537	1.5283e+02	-18.8096	-147.664295	-0.000842	-8.415471	-2.851239	-0.000337
1538	1.5293e+02	-18.7599	-148.011489	-0.000872	-8.719645	-2.954296	-0.000349
1539	1.5303e+02	-18.7230	-148.338497	-0.000821	-8.212689	-2.782534	-0.000329
1540	1.5313e+02	-18.6877	-148.649356	-0.000781	-7.807124	-2.645125	-0.000312
1541	1.5323e+02	-18.6428	-148.976364	-0.000821	-8.212689	-2.782534	-0.000329
1542	1.5333e+02	-18.6043	-149.263001	-0.000720	-7.198777	-2.439012	-0.000288
1543	1.5343e+02	-18.5642	-149.481006	-0.000548	-5.475126	-1.855023	-0.000219
1544	1.5353e+02	-18.5241	-149.759569	-0.000700	-6.995994	-2.370307	-0.000280
1545	1.5363e+02	-18.4888	-150.005834	-0.000618	-6.184864	-2.095489	-0.000248
1546	1.5373e+02	-18.4439	-150.268248	-0.000659	-6.590429	-2.232898	-0.000264
1547	1.5383e+02	-18.4086	-150.429733	-0.000406	-4.055649	-1.374091	-0.000162
1548	1.5393e+02	-18.3653	-150.688110	-0.000649	-6.489038	-2.198546	-0.000260
1549	1.5403e+02	-18.3300	-150.869781	-0.000456	-4.562605	-1.545852	-0.000183
1550	1.5413e+02	-18.2818	-151.047415	-0.000446	-4.461214	-1.511500	-0.000179
1551	1.5422e+02	-18.2530	-151.208901	-0.000406	-4.055649	-1.374091	-0.000162
1552	1.5432e+02	-18.2064	-151.414794	-0.000517	-5.170952	-1.751966	-0.000207
1553	1.5442e+02	-18.1679	-151.539946	-0.000314	-3.143128	-1.064921	-0.000126
1554	1.5452e+02	-18.1262	-151.665097	-0.000314	-3.143128	-1.064921	-0.000126
1555	1.5462e+02	-18.0877	-151.794285	-0.000324	-3.244519	-1.099273	-0.000130
1556	1.5472e+02	-18.0540	-151.959808	-0.000416	-4.157040	-1.408443	-0.000166
1557	1.5482e+02	-18.0107	-152.052662	-0.000233	-2.331998	-0.790102	-0.000093
1558	1.5492e+02	-17.9738	-152.206073	-0.000385	-3.852866	-1.305386	-0.000154
1559	1.5502e+02	-17.9257	-152.323150	-0.000294	-2.940345	-0.996216	-0.000118
1560	1.5512e+02	-17.8888	-152.436190	-0.000284	-2.838954	-0.961864	-0.000114
1561	1.5522e+02	-17.8615	-152.512895	-0.000193	-1.926433	-0.652693	-0.000077
1562	1.5532e+02	-17.7958	-152.609787	-0.000243	-2.433389	-0.824455	-0.000097
1563	1.5542e+02	-17.7621	-152.690529	-0.000203	-2.027824	-0.687046	-0.000081
1564	1.5552e+02	-17.7284	-152.775309	-0.000213	-2.129216	-0.721398	-0.000085
1565	1.5562e+02	-17.6947	-152.843940	-0.000172	-1.723651	-0.583989	-0.000069
1566	1.5572e+02	-17.6562	-152.904498	-0.000152	-1.520868	-0.515284	-0.000061
1567	1.5582e+02	-17.6000	-152.916609	-0.000030	-0.304174	-0.103057	-0.000012
1568	1.5592e+02	-17.5696	-153.025612	-0.000274	-2.737563	-0.927511	-0.000110
1569	1.5602e+02	-17.5278	-153.053872	-0.000071	-0.709739	-0.240466	-0.000028
1570	1.5612e+02	-17.4910	-153.114429	-0.000152	-1.520868	-0.515284	-0.000061
1571	1.5622e+02	-17.4524	-153.118466	-0.000010	-0.101391	-0.034352	-0.000004
1572	1.5631e+02	-17.4027	-153.154800	-0.000091	-0.912521	-0.309170	-0.000037
1573	1.5641e+02	-17.3770	-153.243617	-0.000223	-2.230607	-0.755750	-0.000089
1574	1.5651e+02	-17.3273	-153.166911	0.000193	1.926433	0.652693	0.000077
1575	1.5661e+02	-17.2952	-153.231506	-0.000162	-1.622260	-0.549636	-0.000065
1576	1.5671e+02	-17.2503	-153.219394	0.000030	0.304174	0.103057	0.000012
1577	1.5681e+02	-17.2102	-153.235543	-0.000041	-0.405565	-0.137409	-0.000016
1578	1.5691e+02	-17.1701	-153.292063	-0.000142	-1.419477	-0.480932	-0.000057
1579	1.5701e+02	-17.1284	-153.312248	-0.000051	-0.506956	-0.171761	-0.000020
1580	1.5711e+02	-17.0867	-153.271877	0.000101	1.013912	0.343523	0.000041
1581	1.5721e+02	-17.0578	-153.239580	0.000081	0.811130	0.274818	0.000032
1582	1.5731e+02	-17.0113	-153.207283	0.000081	0.811130	0.274818	0.000032
1583	1.5741e+02	-16.9712	-153.235543	-0.000071	-0.709739	-0.240466	-0.000028
1584	1.5751e+02	-16.9407	-153.179023	0.000142	1.419477	0.480932	0.000057
1585	1.5761e+02	-16.8958	-153.211320	-0.000081	-0.811130	-0.274818	-0.000032
1586	1.5771e+02	-16.8396	-153.154800	0.000142	1.419477	0.480932	0.000057
1587	1.5781e+02	-16.8043	-153.154800	0.000000	0.000000	0.000000	0.000000
1588	1.5791e+02	-16.7739	-153.090206	0.000162	1.622260	0.549636	0.000065
1589	1.5801e+02	-16.7418	-153.041760	0.000122	1.216695	0.412227	0.000049
1590	1.5811e+02	-16.6969	-153.029649	0.000030	0.304174	0.103057	0.000012
1591	1.5821e+02	-16.6471	-152.948906	0.000203	2.027824	0.687046	0.000081
1592	1.5830e+02	-16.6038	-152.932757	0.000041	0.405565	0.137409	0.000016
1593	1.5840e+02	-16.5765	-152.888349	0.000112	1.115303	0.377875	0.000045
1594	1.5850e+02	-16.5188	-152.876238	0.000030	0.304174	0.103057	0.000012
1595	1.5860e+02	-16.4963	-152.827792	0.000122	1.216695	0.412227	0.000049
1596	1.5870e+02	-16.4498	-152.747049	0.000203	2.027824	0.687046	0.000081
1597	1.5880e+02	-16.4209	-152.710715	0.000091	0.912521	0.309170	0.000037
1598	1.5890e+02	-16.3840	-152.629972	0.000203	2.027824	0.687046	0.000081
1599	1.5900e+02	-16.3359	-152.601712	0.000071	0.709739	0.240466	0.000028
1600	1.5910e+02	-16.2958	-152.472524	0.000324	3.244519	1.099273	0.000130
1601	1.5920e+02	-16.2493	-152.444264	0.000071	0.709739	0.240466	0.000028
1602	1.5930e+02	-16.2092	-152.411967	0.000081	0.811130	0.274818	0.000032
1603	1.5940e+02	-16.1723	-152.339299	0.000183	1.825042	0.618341	0.000073
1604	1.5950e+02	-16.1322	-152.246444	0.000233	2.331998	0.790102	0.000093
1605	1.5960e+02	-16.0969	-152.202036	0.000112	1.115303	0.377875	0.000045
1606	1.5970e+02	-16.0471	-152.137442	0.000162	1.622260	0.549636	0.000065
1607	1.5980e+02	-16.0199	-152.064773	0.000183	1.825042	0.618341	0.000073
1608	1.5990e+02	-15.9750	-151.903288	0.000406	4.055649	1.374091	0.000162
1609	1.6000e+02	-15.9413	-151.891176	0.000030	0.304174	0.103057	0.000012
1610	1.6010e+02	-15.8947	-151.798322	0.000233	2.331998	0.790102	0.000093
1611	1.6019e+02	-15.8498	-151.721617	0.000193	1.926433	0.652693	0.000077
1612	1.6029e+02	-15.8209	-151.612614	0.000274	2.737563	0.927511	0.000110
1613	1.6039e+02	-15.7680	-151.560131	0.000132	1.318086	0.446580	0.000053
1614	1.6049e+02	-15.7423	-151.439017	0.000304	3.041737	1.030568	0.000122
1615	1.6059e+02	-15.6990	-151.362312	0.000193	1.926433	0.652693	0.000077
1616	1.6069e+02	-15.6589	-151.257346	0.000264	2.636172	0.893159	0.000105
1617	1.6079e+02	-15.6220	-151.221012	0.000091	0.912521	0.309170	0.000037
1618	1.6089e+02	-15.5675	-151.079712	0.000355	3.548693	1.202330	0.000142
1619	1.6099e+02	-15.5306	-150.970709	0.000274	2.737563	0.927511	0.000110
1620	1.6109e+02	-15.4857	-150.902078	0.000172	1.723651	0.583989	0.000069
1621	1.6119e+02	-15.4536	-150.817298	0.000213	2.129216	0.721398	0.000085
1622	1.6129e+02	-15.4247	-150.712333	0.000264	2.636172	0.893159	0.000105
1623	1.6139e+02	-15.3718	-150.643701	0.000172	1.723651	0.583989	0.000069
1624	1.6149e+02	-15.3365	-150.534699	0.000274	2.737563	0.927511	0.000110
1625	1.6159e+02	-15.3076	-150.441845	0.000233	2.331998	0.790102	0.000093
1626	1.6169e+02	-15.2691	-150.348991	0.000233	2.331998	0.790102	0.000093
1627	1.6179e+02	-15.2210	-150.264211	0.000213	2.129216	0.721398	0.000085
1628	1.6189e+02	-15.1809	-150.143097	0.000304	3.041737	1.030568	0.000122
1629	1.6199e+02	-15.1391	-150.034094	0.000274	2.737563	0.927511	0.000110
1630	1.6209e+02	-15.1087	-149.917017	0.000294	2.940345	0.996216	0.000118
1631	1.6219e+02	-15.0637	-149.840311	0.000193	1.926433	0.652693	0.000077
1632	1.6228e+02	-15.0172	-149.759569	0.000203	2.027824	0.687046	0.000081
1633	1.6238e+02	-14.9723	-149.638455	0.000304	3.041737	1.030568	0.000122
1634	1.6248e+02	-14.9450	-149.537526	0.000253	2.534781	0.858807	0.000101
1635	1.6258e+02	-14.9017	-149.444672	0.000233	2.331998	0.790102	0.000093
1636	1.6268e+02	-14.8600	-149.315484	0.000324	3.244519	1.099273	0.000130
1637	1.6278e+02	-14.8087	-149.194370	0.000304	3.041737	1.030568	0.000122
1638	1.6288e+02	-14.7782	-149.085367	0.000274	2.737563	0.927511	0.000110
1639	1.6298e+02	-14.7317	-148.964253	0.000304	3.041737	1.030568	0.000122
1640	1.6308e+02	-14.6948	-148.863325	0.000253	2.534781	0.858807	0.000101
1641	1.6318e+02	-14.6611	-148.746248	0.000294	2.940345	0.996216	0.000118
1642	1.6328e+02	-14.6130	-148.661468	0.000213	2.129216	0.721398	0.000085
1643	1.6338e+02	-14.5921	-148.548428	0.000284	2.838954	0.961864	0.000114
1644	1.6348e+02	-14.5536	-148.427314	0.000304	3.041737	1.030568	0.000122
1645	1.6358e+02	-14.4910	-148.281977	0.000365	3.650084	1.236682	0.000146
1646	1.6368e+02	-14.4686	-148.225457	0.000142	1.419477	0.480932	0.000057
1647	1.6378e+02	-14.4301	-148.076083	0.000375	3.751475	1.271034	0.000150
1648	1.6388e+02	-14.3868	-147.954969	0.000304	3.041737	1.030568	0.000122
1649	1.6398e+02	-14.3434	-147.858078	0.000243	2.433389	0.824455	0.000097
1650	1.6408e+02	-14.3082	-147.724852	0.000335	3.345910	1.133625	0.000134
1651	1.6418e+02	-14.2616	-147.623924	0.000253	2.534781	0.858807	0.000101
1652	1.6427e+02	-14.2231	-147.514921	0.000274	2.737563	0.927511	0.000110
1653	1.6437e+02	-14.1862	-147.369584	0.000365	3.650084	1.236682	0.000146
1654	1.6447e+02	-14.1493	-147.260582	0.000274	2.737563	0.927511	0.000110
1655	1.6457e+02	-14.1044	-147.111208	0.000375	3.751475	1.271034	0.000150
1656	1.6467e+02	-14.0579	-146.998168	0.000284	2.838954	0.961864	0.000114
1657	1.6477e+02	-14.0178	-146.905314	0.000233	2.331998	0.790102	0.000093
1658	1.6487e+02	-13.9953	-146.759977	0.000365	3.650084	1.236682	0.000146
1659	1.6497e+02	-13.9504	-146.630789	0.000324	3.244519	1.099273	0.000130
1660	1.6507e+02	-13.8991	-146.501600	0.000324	3.244519	1.099273	0.000130
1661	1.6517e+02	-13.8654	-146.384523	0.000294	2.940345	0.996216	0.000118
1662	1.6527e+02	-13.8317	-146.267446	0.000294	2.940345	0.996216	0.000118
1663	1.6537e+02	-13.7836	-146.146332	0.000304	3.041737	1.030568	0.000122
1664	1.6547e+02	-13.7451	-146.029255	0.000294	2.940345	0.996216	0.000118
1665	1.6557e+02	-13.7066	-145.948513	0.000203	2.027824	0.687046	0.000081
1666	1.6567e+02	-13.6681	-145.791064	0.000395	3.954258	1.339739	0.000158
1667	1.6577e+02	-13.6247	-145.625542	0.000416	4.157040	1.408443	0.000166
1668	1.6587e+02	-13.5846	-145.504428	0.000304	3.041737	1.030568	0.000122
1669	1.6597e+02	-13.5494	-145.367165	0.000345	3.447302	1.167977	0.000138
1670	1.6607e+02	-13.5012	-145.262200	0.000264	2.636172	0.893159	0.000105
1671	1.6616e+02	-13.4643	-145.104751	0.000395	3.954258	1.339739	0.000158
1672	1.6626e+02	-13.4210	-144.987674	0.000294	2.940345	0.996216	0.000118
1673	1.6636e+02	-13.3873	-144.850412	0.000345	3.447302	1.167977	0.000138
1674	1.6646e+02	-13.3488	-144.729298	0.000304	3.041737	1.030568	0.000122
1675	1.6656e+02	-13.3119	-144.604146	0.000314	3.143128	1.064921	0.000126
1676	1.6666e+02	-13.2686	-144.446698	0.000395	3.954258	1.339739	0.000158
1677	1.6676e+02	-13.2317	-144.333658	0.000284	2.838954	0.961864	0.000114
1678	1.6686e+02	-13.1868	-144.228693	0.000264	2.636172	0.893159	0.000105
1679	1.6696e+02	-13.1483	-144.079319	0.000375	3.751475	1.271034	0.000150
1680	1.6706e+02	-13.1050	-143.946093	0.000335	3.345910	1.133625	0.000134
1681	1.6716e+02	-13.0601	-143.748274	0.000497	4.968170	1.683262	0.000199
1682	1.6726e+02	-13.0248	-143.675605	0.000183	1.825042	0.618341	0.000073
1683	1.6736e+02	-12.9895	-143.558528	0.000294	2.940345	0.996216	0.000118
1684	1.6746e+02	-12.9510	-143.433377	0.000314	3.143128	1.064921	0.000126
1685	1.6756e+02	-12.9077	-143.255743	0.000446	4.461214	1.511500	0.000179
1686	1.6766e+02	-12.8676	-143.114443	0.000355	3.548693	1.202330	0.000142
1687	1.6776e+02	-12.8242	-143.013515	0.000253	2.534781	0.858807	0.000101
1688	1.6786e+02	-12.7922	-142.896438	0.000294	2.940345	0.996216	0.000118
1689	1.6796e+02	-12.7456	-142.747064	0.000375	3.751475	1.271034	0.000150
1690	1.6806e+02	-12.7168	-142.617876	0.000324	3.244519	1.099273	0.000130
1691	1.6816e+02	-12.6638	-142.452353	0.000416	4.157040	1.408443	0.000166
1692	1.6825e+02	-12.6381	-142.335276	0.000294	2.940345	0.996216	0.000118
1693	1.6835e+02	-12.5884	-142.165716	0.000426	4.258431	1.442796	0.000170
1694	1.6845e+02	-12.5547	-142.056714	0.000274	2.737563	0.927511	0.000110
1695	1.6855e+02	-12.5130	-141.911377	0.000365	3.650084	1.236682	0.000146
1696	1.6865e+02	-12.4697	-141.757966	0.000385	3.852866	1.305386	0.000154
1697	1.6875e+02	-12.4376	-141.661074	0.000243	2.433389	0.824455	0.000097
1698	1.6885e+02	-12.3975	-141.523812	0.000345	3.447302	1.167977	0.000138
1699	1.6895e+02	-12.3574	-141.418846	0.000264	2.636172	0.893159	0.000105
1700	1.6905e+02	-12.3141	-141.241212	0.000446	4.461214	1.511500	0.000179
1701	1.6915e+02	-12.2612	-141.112024	0.000324	3.244519	1.099273	0.000130
1702	1.6925e+02	-12.2387	-140.942464	0.000426	4.258431	1.442796	0.000170
1703	1.6935e+02	-12.2002	-140.813276	0.000324	3.244519	1.099273	0.000130
1704	1.6945e+02	-12.1553	-140.692162	0.000304	3.041737	1.030568	0.000122
1705	1.6955e+02	-12.1152	-140.550862	0.000355	3.548693	1.202330	0.000142
1706	1.6965e+02	-12.0751	-140.417637	0.000335	3.345910	1.133625	0.000134
1707	1.6975e+02	-12.0317	-140.235966	0.000456	4.562605	1.545852	0.000183
1708	1.6985e+02	-11.9900	-140.110814	0.000314	3.143128	1.064921	0.000126
1709	1.6995e+02	-11.9515	-139.969515	0.000355	3.548693	1.202330	0.000142
1710	1.7005e+02	-11.9178	-139.771695	0.000497	4.968170	1.683262	0.000199
1711	1.7015e+02	-11.8649	-139.694989	0.000193	1.926433	0.652693	0.000077
1712	1.7024e+02	-11.8360	-139.541578	0.000385	3.852866	1.305386	0.000154
1713	1.7034e+02	-11.8007	-139.404316	0.000345	3.447302	1.167977	0.000138
1714	1.7044e+02	-11.7558	-139.250904	0.000385	3.852866	1.305386	0.000154
1715	1.7054e+02	-11.7141	-139.097493	0.000385	3.852866	1.305386	0.000154
1716	1.7064e+02	-11.6788	-138.927934	0.000426	4.258431	1.442796	0.000170
1717	1.7074e+02	-11.6307	-138.774522	0.000385	3.852866	1.305386	0.000154
1718	1.7084e+02	-11.6002	-138.673594	0.000253	2.534781	0.858807	0.000101
1719	1.7094e+02	-11.5569	-138.548443	0.000314	3.143128	1.064921	0.000126
1720	1.7104e+02	-11.5152	-138.415217	0.000335	3.345910	1.133625	0.000134
1721	1.7114e+02	-11.4799	-138.237583	0.000446	4.461214	1.511500	0.000179
1722	1.7124e+02	-11.4189	-138.112432	0.000314	3.143128	1.064921	0.000126
1723	1.7134e+02	-11.3901	-137.999392	0.000284	2.838954	0.961864	0.000114
1724	1.7144e+02	-11.3628	-137.789461	0.000527	5.272343	1.786318	0.000211
1725	1.7154e+02	-11.3211	-137.692570	0.000243	2.433389	0.824455	0.000097
1726	1.7164e+02	-11.2729	-137.535122	0.000395	3.954258	1.339739	0.000158
1727	1.7174e+02	-11.2328	-137.373636	0.000406	4.055649	1.374091	0.000162
1728	1.7184e+02	-11.1911	-137.252522	0.000304	3.041737	1.030568	0.000122
1729	1.7194e+02	-11.1623	-137.074888	0.000446	4.461214	1.511500	0.000179
1730	1.7204e+02	-11.1141	-136.905329	0.000426	4.258431	1.442796	0.000170
1731	1.7213e+02	-11.0772	-136.800363	0.000264	2.636172	0.893159	0.000105
1732	1.7223e+02	-11.0403	-136.663100	0.000345	3.447302	1.167977	0.000138
1733	1.7233e+02	-10.9970	-136.525838	0.000345	3.447302	1.167977	0.000138
1734	1.7243e+02	-10.9505	-136.352241	0.000436	4.359822	1.477148	0.000174
1735	1.7253e+02	-10.9088	-136.178644	0.000436	4.359822	1.477148	0.000174
1736	1.7263e+02	-10.8831	-136.101939	0.000193	1.926433	0.652693	0.000077
1737	1.7273e+02	-10.8334	-135.908156	0.000487	4.866779	1.648909	0.000195
1738	1.7283e+02	-10.7917	-135.778968	0.000324	3.244519	1.099273	0.000130
1739	1.7293e+02	-10.7532	-135.613445	0.000416	4.157040	1.408443	0.000166
1740	1.7303e+02	-10.7147	-135.516554	0.000243	2.433389	0.824455	0.000097
1741	1.7313e+02	-10.6698	-135.290474	0.000568	5.677908	1.923727	0.000227
1742	1.7323e+02	-10.6345	-135.169360	0.000304	3.041737	1.030568	0.000122
1743	1.7333e+02	-10.6024	-135.036135	0.000335	3.345910	1.133625	0.000134
1744	1.7343e+02	-10.5526	-134.870612	0.000416	4.157040	1.408443	0.000166
1745	1.7353e+02	-10.5254	-134.705090	0.000416	4.157040	1.408443	0.000166
1746	1.7363e+02	-10.4724	-134.600124	0.000264	2.636172	0.893159	0.000105
1747	1.7373e+02	-10.4387	-134.422490	0.000446	4.461214	1.511500	0.000179
1748	1.7383e+02	-10.4002	-134.285227	0.000345	3.447302	1.167977	0.000138
1749	1.7393e+02	-10.3585	-134.131816	0.000385	3.852866	1.305386	0.000154
1750	1.7403e+02	-10.3168	-133.958219	0.000436	4.359822	1.477148	0.000174
1751	1.7413e+02	-10.2799	-133.833068	0.000314	3.143128	1.064921	0.000126
1752	1.7422e+02	-10.2430	-133.691769	0.000355	3.548693	1.202330	0.000142
1753	1.7432e+02	-10.1997	-133.554506	0.000345	3.447302	1.167977	0.000138
1754	1.7442e+02	-10.1644	-133.397058	0.000395	3.954258	1.339739	0.000158
1755	1.7452e+02	-10.1227	-133.215387	0.000456	4.562605	1.545852	0.000183
1756	1.7462e+02	-10.0746	-133.074087	0.000355	3.548693	1.202330	0.000142
1757	1.7472e+02	-10.0377	-132.892416	0.000456	4.562605	1.545852	0.000183
1758	1.7482e+02	-9.9960	-132.755153	0.000345	3.447302	1.167977	0.000138
1759	1.7492e+02	-9.9591	-132.642113	0.000284	2.838954	0.961864	0.000114
1760	1.7502e+02	-9.9238	-132.460442	0.000456	4.562605	1.545852	0.000183
1761	1.7512e+02	-9.8821	-132.319142	0.000355	3.548693	1.202330	0.000142
1762	1.7522e+02	-9.8436	-132.153620	0.000416	4.157040	1.408443	0.000166
1763	1.7532e+02	-9.7922	-132.036543	0.000294	2.940345	0.996216	0.000118
1764	1.7542e+02	-9.7602	-131.846798	0.000477	4.765387	1.614557	0.000191
1765	1.7552e+02	-9.7200	-131.721646	0.000314	3.143128	1.064921	0.000126
1766	1.7562e+02	-9.6751	-131.535938	0.000466	4.663996	1.580205	0.000187
1767	1.7572e+02	-9.6414	-131.398675	0.000345	3.447302	1.167977	0.000138
1768	1.7582e+02	-9.5965	-131.245264	0.000385	3.852866	1.305386	0.000154
1769	1.7592e+02	-9.5612	-131.079742	0.000416	4.157040	1.408443	0.000166
1770	1.7602e+02	-9.5227	-130.958628	0.000304	3.041737	1.030568	0.000122
1771	1.7612e+02	-9.4842	-130.837514	0.000304	3.041737	1.030568	0.000122
1772	1.7621e+02	-9.4361	-130.635657	0.000507	5.069561	1.717614	0.000203
1773	1.7631e+02	-9.4008	-130.502431	0.000335	3.345910	1.133625	0.000134
1774	1.7641e+02	-9.3607	-130.316723	0.000466	4.663996	1.580205	0.000187
1775	1.7651e+02	-9.3302	-130.167349	0.000375	3.751475	1.271034	0.000150
1776	1.7661e+02	-9.2821	-130.001826	0.000416	4.157040	1.408443	0.000166
1777	1.7671e+02	-9.2516	-129.868601	0.000335	3.345910	1.133625	0.000134
1778	1.7681e+02	-9.1955	-129.662707	0.000517	5.170952	1.751966	0.000207
1779	1.7691e+02	-9.1650	-129.497185	0.000416	4.157040	1.408443	0.000166
1780	1.7701e+02	-9.1217	-129.384145	0.000284	2.838954	0.961864	0.000114
1781	1.7711e+02	-9.0880	-129.238808	0.000365	3.650084	1.236682	0.000146
1782	1.7721e+02	-9.0479	-129.040988	0.000497	4.968170	1.683262	0.000199
1783	1.7731e+02	-9.0014	-128.891614	0.000375	3.751475	1.271034	0.000150
1784	1.7741e+02	-8.9548	-128.746277	0.000365	3.650084	1.236682	0.000146
1785	1.7751e+02	-8.9243	-128.572680	0.000436	4.359822	1.477148	0.000174
1786	1.7761e+02	-8.8874	-128.415232	0.000395	3.954258	1.339739	0.000158
1787	1.7771e+02	-8.8441	-128.253747	0.000406	4.055649	1.374091	0.000162
1788	1.7781e+02	-8.8040	-128.080150	0.000436	4.359822	1.477148	0.000174
1789	1.7791e+02	-8.7607	-127.890404	0.000477	4.765387	1.614557	0.000191
1790	1.7801e+02	-8.7142	-127.769290	0.000304	3.041737	1.030568	0.000122
1791	1.7810e+02	-8.6853	-127.615879	0.000385	3.852866	1.305386	0.000154
1792	1.7820e+02	-8.6388	-127.458431	0.000395	3.954258	1.339739	0.000158
1793	1.7830e+02	-8.6003	-127.276760	0.000456	4.562605	1.545852	0.000183
1794	1.7840e+02	-8.5746	-127.127386	0.000375	3.751475	1.271034	0.000150
1795	1.7850e+02	-8.5249	-126.929566	0.000497	4.968170	1.683262	0.000199
1796	1.7860e+02	-8.4928	-126.816526	0.000284	2.838954	0.961864	0.000114
1797	1.7870e+02	-8.4383	-126.622744	0.000487	4.866779	1.648909	0.000195
1798	1.7880e+02	-8.4126	-126.481444	0.000355	3.548693	1.202330	0.000142
1799	1.7890e+02	-8.3645	-126.311884	0.000426	4.258431	1.442796	0.000170
1800	1.7900e+02	-8.3260	-126.170585	0.000355	3.548693	1.202330	0.000142
1801	1.7910e+02	-8.2891	-125.976802	0.000487	4.866779	1.648909	0.000195
1802	1.7920e+02	-8.2425	-125.783020	0.000487	4.866779	1.648909	0.000195
1803	1.7930e+02	-8.2008	-125.653831	0.000324	3.244519	1.099273	0.000130
1804	1.7940e+02	-8.1607	-125.476197	0.000446	4.461214	1.511500	0.000179
1805	1.7950e+02	-8.1367	-125.338935	0.000345	3.447302	1.167977	0.000138
1806	1.7960e+02	-8.0982	-125.124966	0.000537	5.373735	1.820671	0.000215
1807	1.7970e+02	-8.0388	-124.971555	0.000385	3.852866	1.305386	0.000154
1808	1.7980e+02	-8.0019	-124.781810	0.000477	4.765387	1.614557	0.000191
1809	1.7990e+02	-7.9714	-124.668770	0.000284	2.838954	0.961864	0.000114
1810	1.8000e+02	-7.9265	-124.474988	0.000487	4.866779	1.648909	0.000195
1811	1.8009e+02	-7.8864	-124.333688	0.000355	3.548693	1.202330	0.000142
1812	1.8019e+02	-7.8415	-124.147980	0.000466	4.663996	1.580205	0.000187
1813	1.8029e+02	-7.8078	-123.954197	0.000487	4.866779	1.648909	0.000195
1814	1.8039e+02	-7.7709	-123.792712	0.000406	4.055649	1.374091	0.000162
1815	1.8049e+02	-7.7292	-123.586818	0.000517	5.170952	1.751966	0.000207
1816	1.8059e+02	-7.6891	-123.445518	0.000355	3.548693	1.202330	0.000142
1817	1.8069e+02	-7.6442	-123.292107	0.000385	3.852866	1.305386	0.000154
1818	1.8079e+02	-7.6121	-123.106399	0.000466	4.663996	1.580205	0.000187
1819	1.8089e+02	-7.5720	-122.916653	0.000477	4.765387	1.614557	0.000191
1820	1.8099e+02	-7.5287	-122.803613	0.000284	2.838954	0.961864	0.000114
1821	1.8109e+02	-7.4886	-122.613868	0.000477	4.765387	1.614557	0.000191
1822	1.8119e+02	-7.4533	-122.460457	0.000385	3.852866	1.305386	0.000154
1823	1.8129e+02	-7.4019	-122.254563	0.000517	5.170952	1.751966	0.000207
1824	1.8139e+02	-7.3698	-122.089040	0.000416	4.157040	1.408443	0.000166
1825	1.8149e+02	-7.3265	-121.939666	0.000375	3.751475	1.271034	0.000150
1826	1.8159e+02	-7.2880	-121.729735	0.000527	5.272343	1.786318	0.000211
1827	1.8169e+02	-7.2479	-121.564213	0.000416	4.157040	1.408443	0.000166
1828	1.8179e+02	-7.2030	-121.338133	0.000568	5.677908	1.923727	0.000227
1829	1.8189e+02	-7.1789	-121.184722	0.000385	3.852866	1.305386	0.000154
1830	1.8199e+02	-7.1340	-121.047459	0.000345	3.447302	1.167977	0.000138
1831	1.8209e+02	-7.0971	-120.829454	0.000548	5.475126	1.855023	0.000219
1832	1.8218e+02	-7.0506	-120.712377	0.000294	2.940345	0.996216	0.000118
1833	1.8228e+02	-7.0201	-120.478223	0.000588	5.880691	1.992432	0.000235
1834	1.8238e+02	-6.9688	-120.340961	0.000345	3.447302	1.167977	0.000138
1835	1.8248e+02	-6.9271	-120.139104	0.000507	5.069561	1.717614	0.000203
1836	1.8258e+02	-6.8870	-119.965507	0.000436	4.359822	1.477148	0.000174
1837	1.8268e+02	-6.8565	-119.771725	0.000487	4.866779	1.648909	0.000195
1838	1.8278e+02	-6.8164	-119.598128	0.000436	4.359822	1.477148	0.000174
1839	1.8288e+02	-6.7731	-119.456828	0.000355	3.548693	1.202330	0.000142
1840	1.8298e+02	-6.7330	-119.230748	0.000568	5.677908	1.923727	0.000227
1841	1.8308e+02	-6.6848	-119.061189	0.000426	4.258431	1.442796	0.000170
1842	1.8318e+02	-6.6576	-118.867406	0.000487	4.866779	1.648909	0.000195
1843	1.8328e+02	-6.6143	-118.701884	0.000416	4.157040	1.408443	0.000166
1844	1.8338e+02	-6.5661	-118.504064	0.000497	4.968170	1.683262	0.000199
1845	1.8348e+02	-6.5292	-118.370838	0.000335	3.345910	1.133625	0.000134
1846	1.8358e+02	-6.4923	-118.160907	0.000527	5.272343	1.786318	0.000211
1847	1.8368e+02	-6.4586	-117.999422	0.000406	4.055649	1.374091	0.000162
1848	1.8378e+02	-6.4137	-117.821788	0.000446	4.461214	1.511500	0.000179
1849	1.8388e+02	-6.3688	-117.628005	0.000487	4.866779	1.648909	0.000195
1850	1.8398e+02	-6.3399	-117.470557	0.000395	3.954258	1.339739	0.000158
1851	1.8407e+02	-6.2966	-117.280812	0.000477	4.765387	1.614557	0.000191
1852	1.8417e+02	-6.2533	-117.026472	0.000639	6.387647	2.164193	0.000256
1853	1.8427e+02	-6.2148	-116.869024	0.000395	3.954258	1.339739	0.000158
1854	1.8437e+02	-6.1779	-116.703501	0.000416	4.157040	1.408443	0.000166
1855	1.8447e+02	-6.1346	-116.497607	0.000517	5.170952	1.751966	0.000207
1856	1.8457e+02	-6.0961	-116.315936	0.000456	4.562605	1.545852	0.000183
1857	1.8467e+02	-6.0560	-116.134265	0.000456	4.562605	1.545852	0.000183
1858	1.8477e+02	-6.0239	-115.997003	0.000345	3.447302	1.167977	0.000138
1859	1.8487e+02	-5.9710	-115.791109	0.000517	5.170952	1.751966	0.000207
1860	1.8497e+02	-5.9341	-115.581178	0.000527	5.272343	1.786318	0.000211
1861	1.8507e+02	-5.8923	-115.427766	0.000385	3.852866	1.305386	0.000154
1862	1.8517e+02	-5.8571	-115.238021	0.000477	4.765387	1.614557	0.000191
1863	1.8527e+02	-5.8137	-115.052313	0.000466	4.663996	1.580205	0.000187
1864	1.8537e+02	-5.7817	-114.866605	0.000466	4.663996	1.580205	0.000187
1865	1.8547e+02	-5.7383	-114.652636	0.000537	5.373735	1.820671	0.000215
1866	1.8557e+02	-5.6966	-114.503262	0.000375	3.751475	1.271034	0.000150
1867	1.8567e+02	-5.6613	-114.297368	0.000517	5.170952	1.751966	0.000207
1868	1.8577e+02	-5.6148	-114.075326	0.000558	5.576517	1.889375	0.000223
1869	1.8587e+02	-5.5731	-113.921915	0.000385	3.852866	1.305386	0.000154
1870	1.8597e+02	-5.5426	-113.732169	0.000477	4.765387	1.614557	0.000191
1871	1.8606e+02	-5.5089	-113.582795	0.000375	3.751475	1.271034	0.000150
1872	1.8616e+02	-5.4592	-113.360753	0.000558	5.576517	1.889375	0.000223
1873	1.8626e+02	-5.4175	-113.211379	0.000375	3.751475	1.271034	0.000150
1874	1.8636e+02	-5.3822	-112.997411	0.000537	5.373735	1.820671	0.000215
1875	1.8646e+02	-5.3421	-112.823814	0.000436	4.359822	1.477148	0.000174
1876	1.8656e+02	-5.3036	-112.601771	0.000558	5.576517	1.889375	0.000223
1877	1.8666e+02	-5.2635	-112.432212	0.000426	4.258431	1.442796	0.000170
1878	1.8676e+02	-5.2202	-112.234392	0.000497	4.968170	1.683262	0.000199
1879	1.8686e+02	-5.1817	-112.076944	0.000395	3.954258	1.339739	0.000158
1880	1.8696e+02	-5.1448	-111.846827	0.000578	5.779300	1.958080	0.000231
1881	1.8706e+02	-5.0999	-111.665156	0.000456	4.562605	1.545852	0.000183
1882	1.8716e+02	-5.0646	-111.467336	0.000497	4.968170	1.683262	0.000199
1883	1.8726e+02	-5.0180	-111.289702	0.000446	4.461214	1.511500	0.000179
1884	1.8736e+02	-4.9844	-111.087846	0.000507	5.069561	1.717614	0.000203
1885	1.8746e+02	-4.9426	-110.881952	0.000517	5.170952	1.751966	0.000207
1886	1.8756e+02	-4.9009	-110.704318	0.000446	4.461214	1.511500	0.000179
1887	1.8766e+02	-4.8624	-110.518609	0.000466	4.663996	1.580205	0.000187
1888	1.8776e+02	-4.8223	-110.300604	0.000548	5.475126	1.855023	0.000219
1889	1.8786e+02	-4.7758	-110.098747	0.000507	5.069561	1.717614	0.000203
1890	1.8796e+02	-4.7389	-109.917076	0.000456	4.562605	1.545852	0.000183
1891	1.8806e+02	-4.6972	-109.743479	0.000436	4.359822	1.477148	0.000174
1892	1.8815e+02	-4.6651	-109.573920	0.000426	4.258431	1.442796	0.000170
1893	1.8825e+02	-4.6186	-109.339766	0.000588	5.880691	1.992432	0.000235
1894	1.8835e+02	-4.5785	-109.158095	0.000456	4.562605	1.545852	0.000183
1895	1.8845e+02	-4.5400	-108.976424	0.000456	4.562605	1.545852	0.000183
1896	1.8855e+02	-4.5047	-108.770530	0.000517	5.170952	1.751966	0.000207
1897	1.8865e+02	-4.4582	-108.564636	0.000517	5.170952	1.751966	0.000207
1898	1.8875e+02	-4.4341	-108.395076	0.000426	4.258431	1.442796	0.000170
1899	1.8885e+02	-4.3747	-108.205331	0.000477	4.765387	1.614557	0.000191
1900	1.8895e+02	-4.3394	-108.039808	0.000416	4.157040	1.408443	0.000166
1901	1.8905e+02	-4.3042	-107.793543	0.000618	6.184864	2.095489	0.000248
1902	1.8915e+02	-4.2608	-107.656280	0.000345	3.447302	1.167977	0.000138
1903	1.8925e+02	-4.2143	-107.430201	0.000568	5.677908	1.923727	0.000227
1904	1.8935e+02	-4.1887	-107.240455	0.000477	4.765387	1.614557	0.000191
1905	1.8945e+02	-4.1389	-107.046673	0.000487	4.866779	1.648909	0.000195
1906	1.8955e+02	-4.1100	-106.840779	0.000517	5.170952	1.751966	0.000207
1907	1.8965e+02	-4.0667	-106.683330	0.000395	3.954258	1.339739	0.000158
1908	1.8975e+02	-4.0282	-106.465325	0.000548	5.475126	1.855023	0.000219
1909	1.8985e+02	-3.9849	-106.283654	0.000456	4.562605	1.545852	0.000183
1910	1.8995e+02	-3.9480	-106.037389	0.000618	6.184864	2.095489	0.000248
1911	1.9004e+02	-3.9111	-105.879940	0.000395	3.954258	1.339739	0.000158
1912	1.9014e+02	-3.8678	-105.686158	0.000487	4.866779	1.648909	0.000195
1913	1.9024e+02	-3.8261	-105.460078	0.000568	5.677908	1.923727	0.000227
1914	1.9034e+02	-3.7860	-105.246110	0.000537	5.373735	1.820671	0.000215
1915	1.9044e+02	-3.7491	-105.060402	0.000466	4.663996	1.580205	0.000187
1916	1.9054e+02	-3.7058	-104.870656	0.000477	4.765387	1.614557	0.000191
1917	1.9064e+02	-3.6673	-104.680911	0.000477	4.765387	1.614557	0.000191
1918	1.9074e+02	-3.6272	-104.519426	0.000406	4.055649	1.374091	0.000162
1919	1.9084e+02	-3.5871	-104.297383	0.000558	5.576517	1.889375	0.000223
1920	1.9094e+02	-3.5438	-104.127824	0.000426	4.258431	1.442796	0.000170
1921	1.9104e+02	-3.5117	-103.921930	0.000517	5.170952	1.751966	0.000207
1922	1.9114e+02	-3.4619	-103.728147	0.000487	4.866779	1.648909	0.000195
1923	1.9124e+02	-3.4218	-103.526290	0.000507	5.069561	1.717614	0.000203
1924	1.9134e+02	-3.3913	-103.336545	0.000477	4.765387	1.614557	0.000191
1925	1.9144e+02	-3.3448	-103.114502	0.000558	5.576517	1.889375	0.000223
1926	1.9154e+02	-3.3095	-102.908609	0.000517	5.170952	1.751966	0.000207
1927	1.9164e+02	-3.2646	-102.694640	0.000537	5.373735	1.820671	0.000215
1928	1.9174e+02	-3.2213	-102.492784	0.000507	5.069561	1.717614	0.000203
1929	1.9184e+02	-3.1844	-102.307075	0.000466	4.663996	1.580205	0.000187
1930	1.9194e+02	-3.1443	-102.125404	0.000456	4.562605	1.545852	0.000183
1931	1.9203e+02	-3.1058	-101.899325	0.000568	5.677908	1.923727	0.000227
1932	1.9213e+02	-3.0689	-101.729765	0.000426	4.258431	1.442796	0.000170
1933	1.9223e+02	-3.0256	-101.556168	0.000436	4.359822	1.477148	0.000174
1934	1.9233e+02	-2.9871	-101.338163	0.000548	5.475126	1.855023	0.000219
1935	1.9243e+02	-2.9454	-101.160529	0.000446	4.461214	1.511500	0.000179
1936	1.9253e+02	-2.9053	-100.865818	0.000740	7.401559	2.507716	0.000296
1937	1.9263e+02	-2.8748	-100.696258	0.000426	4.258431	1.442796	0.000170
1938	1.9273e+02	-2.8331	-100.514587	0.000456	4.562605	1.545852	0.000183
1939	1.9283e+02	-2.7962	-100.328879	0.000466	4.663996	1.580205	0.000187
1940	1.9293e+02	-2.7593	-100.090688	0.000598	5.982082	2.026784	0.000239
1941	1.9303e+02	-2.7063	-99.896905	0.000487	4.866779	1.648909	0.000195
1942	1.9313e+02	-2.6694	-99.678900	0.000548	5.475126	1.855023	0.000219
1943	1.9323e+02	-2.6293	-99.485117	0.000487	4.866779	1.648909	0.000195
1944	1.9333e+02	-2.5924	-99.291335	0.000487	4.866779	1.648909	0.000195
1945	1.9343e+02	-2.5475	-99.065255	0.000568	5.677908	1.923727	0.000227
1946	1.9353e+02	-2.5138	-98.887621	0.000446	4.461214	1.511500	0.000179
1947	1.9363e+02	-2.4737	-98.726136	0.000406	4.055649	1.374091	0.000162
1948	1.9373e+02	-2.4400	-98.427388	0.000750	7.502950	2.542068	0.000300
1949	1.9383e+02	-2.3839	-98.253791	0.000436	4.359822	1.477148	0.000174
1950	1.9393e+02	-2.3486	-98.055971	0.000497	4.968170	1.683262	0.000199
1951	1.9403e+02	-2.3149	-97.837966	0.000548	5.475126	1.855023	0.000219
1952	1.9412e+02	-2.2652	-97.611886	0.000568	5.677908	1.923727	0.000227
1953	1.9422e+02	-2.2299	-97.418104	0.000487	4.866779	1.648909	0.000195
1954	1.9432e+02	-2.1946	-97.179913	0.000598	5.982082	2.026784	0.000239
1955	1.9442e+02	-2.1513	-96.986130	0.000487	4.866779	1.648909	0.000195
1956	1.9452e+02	-2.1128	-96.796385	0.000477	4.765387	1.614557	0.000191
1957	1.9462e+02	-2.0663	-96.574343	0.000558	5.576517	1.889375	0.000223
1958	1.9472e+02	-2.0326	-96.416894	0.000395	3.954258	1.339739	0.000158
1959	1.9482e+02	-1.9909	-96.162555	0.000639	6.387647	2.164193	0.000256
1960	1.9492e+02	-1.9507	-95.997032	0.000416	4.157040	1.408443	0.000166
1961	1.9502e+02	-1.9219	-95.766915	0.000578	5.779300	1.958080	0.000231
1962	1.9512e+02	-1.8673	-95.552947	0.000537	5.373735	1.820671	0.000215
1963	1.9522e+02	-1.8272	-95.334942	0.000548	5.475126	1.855023	0.000219
1964	1.9532e+02	-1.7951	-95.116937	0.000548	5.475126	1.855023	0.000219
1965	1.9542e+02	-1.7647	-94.911043	0.000517	5.170952	1.751966	0.000207
1966	1.9552e+02	-1.7149	-94.721297	0.000477	4.765387	1.614557	0.000191
1967	1.9562e+02	-1.6764	-94.483106	0.000598	5.982082	2.026784	0.000239
1968	1.9572e+02	-1.6299	-94.244915	0.000598	5.982082	2.026784	0.000239
1969	1.9582e+02	-1.5946	-94.075356	0.000426	4.258431	1.442796	0.000170
1970	1.9592e+02	-1.5609	-93.869462	0.000517	5.170952	1.751966	0.000207
1971	1.9601e+02	-1.5160	-93.627233	0.000608	6.083473	2.061137	0.000243
1972	1.9611e+02	-1.4711	-93.409228	0.000548	5.475126	1.855023	0.000219
1973	1.9621e+02	-1.4342	-93.243706	0.000416	4.157040	1.408443	0.000166
1974	1.9631e+02	-1.3893	-93.037812	0.000517	5.170952	1.751966	0.000207
1975	1.9641e+02	-1.3556	-92.787509	0.000629	6.286256	2.129841	0.000252
1976	1.9651e+02	-1.3107	-92.577578	0.000527	5.272343	1.786318	0.000211
1977	1.9661e+02	-1.2786	-92.327276	0.000629	6.286256	2.129841	0.000252
1978	1.9671e+02	-1.2288	-92.141568	0.000466	4.663996	1.580205	0.000187
1979	1.9681e+02	-1.2000	-91.919525	0.000558	5.576517	1.889375	0.000223
1980	1.9691e+02	-1.1550	-91.721705	0.000497	4.968170	1.683262	0.000199
1981	1.9701e+02	-1.1101	-91.459292	0.000659	6.590429	2.232898	0.000264
1982	1.9711e+02	-1.0764	-91.293769	0.000416	4.157040	1.408443	0.000166
1983	1.9721e+02	-1.0363	-91.043467	0.000629	6.286256	2.129841	0.000252
1984	1.9731e+02	-0.9994	-90.829498	0.000537	5.373735	1.820671	0.000215
1985	1.9741e+02	-0.9561	-90.623604	0.000517	5.170952	1.751966	0.000207
1986	1.9751e+02	-0.9096	-90.413673	0.000527	5.272343	1.786318	0.000211
1987	1.9761e+02	-0.8695	-90.179520	0.000588	5.880691	1.992432	0.000235
1988	1.9771e+02	-0.8406	-89.981700	0.000497	4.968170	1.683262	0.000199
1989	1.9781e+02	-0.7925	-89.723323	0.000649	6.489038	2.198546	0.000260
1990	1.9791e+02	-0.7620	-89.557801	0.000416	4.157040	1.408443	0.000166
1991	1.9800e+02	-0.7187	-89.279238	0.000700	6.995994	2.370307	0.000280
1992	1.9810e+02	-0.6818	-89.093530	0.000466	4.663996	1.580205	0.000187
1993	1.9820e+02	-0.6465	-88.871488	0.000558	5.576517	1.889375	0.000223
1994	1.9830e+02	-0.5968	-88.637334	0.000588	5.880691	1.992432	0.000235
1995	1.9840e+02	-0.5551	-88.411254	0.000568	5.677908	1.923727	0.000227
1996	1.9850e+02	-0.5214	-88.269954	0.000355	3.548693	1.202330	0.000142
1997	1.9860e+02	-0.4765	-87.955058	0.000791	7.908515	2.679477	0.000316
1998	1.9870e+02	-0.4428	-87.765312	0.000477	4.765387	1.614557	0.000191
1999	1.9880e+02	-0.4027	-87.539233	0.000568	5.677908	1.923727	0.000227
2000	1.9890e+02	-0.3642	-87.317190	0.000558	5.576517	1.889375	0.000223
2001	1.9900e+02	-0.3192	-87.091111	0.000568	5.677908	1.923727	0.000227
2002	1.9910e+02	-0.2807	-86.917514	0.000436	4.359822	1.477148	0.000174
2003	1.9920e+02	-0.2422	-86.667211	0.000629	6.286256	2.129841	0.000252
2004	1.9930e+02	-0.2021	-86.461318	0.000517	5.170952	1.751966	0.000207
2005	1.9940e+02	-0.1524	-86.186792	0.000689	6.894603	2.335955	0.000276
2006	1.9950e+02	-0.1219	-86.005121	0.000456	4.562605	1.545852	0.000183
2007	1.9960e+02	-0.0866	-85.779042	0.000568	5.677908	1.923727	0.000227
2008	1.9970e+02	-0.0369	-85.536813	0.000608	6.083473	2.061137	0.000243
2009	1.9980e+02	-0.0016	-85.318808	0.000608	6.083473	2.061137	0.000219

Center data before PMax,+/-Pr and +/-Vc Calc.

PMax (uC/cm2):	1.53e+02
Pr (uC/cm2):	6.75e+01
-Pr (uC/cm2):	-8.53e+01
PLoss (uC/cm2):	-1.45e+02
-Vc:	-1.24e+01
C (Max-Eff) (nF):	7.67e-01
K (Eff):	2.60e+03
Vert. (+/-Pr) Shift (uC/cm2):	-8.89e+00
Offset (uC/cm2):	-5.99e+01

A (Loop Area - uC/cm2·Volts):	-1.48e+00



Hysteresis Version: 5.48.1 - Radiant Technologies, Inc., 1999 - 9/12/24

