»»»»»»»»»»»»»»»»»»»»»»»»»»»»»»»»»»»» Hysteresis ««««««««««««««««««««««««««««««««««««
»»»  Executed Version:	5.48.1
»»»  Vision Version:	5.48.4 (R)
»»»  Vision Compiled:	9/18/24
»»»  Driver Version:	5.47.0
»»»  Windows Version:	Windows 8 or 8.1
»»»  Processor Information:	x86 (AMD or Intel) - 32 Processors
»»»  Tester Name:	PMF21124-494 (100V)
»»»  Tester S/N:	PMF21124-494
»»»  Internal Amp Type:	100V RevK 270k
»»»  Internal Amp S/N:	iAB2-596/K     
»»»  Execution Count:	1
»»»»»»»»»»»»»»»»»»»»»»»»»»»»»»»»»»»»»»»»»»««««««««««««««««««««««««««««««««««««««««««

Stored:	6/5/2025 - 17:1:33
Configured:	06/05/25 02:51:50 PM
Executed:	06/05/25 05:00:56 PM

»»»»»»»»»»»»»»»»»»»»»»»»»»»»»»»»»»» Sample Info ««««««««««««««««««««««««««««««««««««
Sample Name:	
Lot Name:	
Wafer Name:	
Die Row/Column:	0/0
Capacitor Number:	0
Sample Area (cm2):	1.00e-04
Sample Thickness (microns):	3.00e-01

Amplifier:	Internal

»»»»»»»»»»»»»»»»»»»»»»»»»»»»»»»»»»» Tester Info «««««««««««««««««««««««««««««««««««
Tester Name:	PMF21124-494 (100V)
Tester Serial Number:	PMF21124-494
Return Signal Amp. Level:	0.19 [Index: 3]

»»»»»»»»»»»»»»»»»»»»»»»»»»»»»»»» Hysteresis Info ««««««««««««««««««««««««««««««««««
Task Name:	Hyst-353
Volts:	20.00
Field:	666.67 (kV/cm)
DCBias:	0.00
DCField:	0.00 (kV/cm)
Hysteresis Period (ms):	2.00e+02
Preset:	Enabled
Preset Delay (ms):	1.00e+03
Profile:	Standard Bipolar

»»»»»»»»»»»»»»»»»»»»»»»»»»»»»»»»»»»»»» Data «««««««««««««««««««««««««««««««««««««««
Points:	2009

Valid Data

Point	Time (ms)	Drive Voltage	Measured Polarization (uC/cm2)	Capacitance (uF)	Normalized Capacitance (uF/cm2)	Dielectric Constant	Instantaneous Current (mA)
   1	0.0000e+00	-0.0048	153.711925	0.000426	4.256467	1.442130	0.000170
   2	9.9500e-02	0.0289	153.881484	0.000426	4.256467	1.442130	0.000170
   3	1.9900e-01	0.0722	154.099490	0.000547	5.472600	1.854167	0.000219
   4	2.9850e-01	0.1027	154.345755	0.000618	6.182012	2.094522	0.000248
   5	3.9800e-01	0.1460	154.596057	0.000628	6.283356	2.128859	0.000252
   6	4.9750e-01	0.1989	154.822137	0.000568	5.675289	1.922840	0.000227
   7	5.9700e-01	0.2342	155.068402	0.000618	6.182012	2.094522	0.000248
   8	6.9650e-01	0.2647	155.318705	0.000628	6.283356	2.128859	0.000252
   9	7.9600e-01	0.3112	155.524599	0.000517	5.168567	1.751158	0.000207
  10	8.9550e-01	0.3481	155.778938	0.000638	6.384700	2.163195	0.000256
  11	9.9500e-01	0.3930	156.017129	0.000598	5.979323	2.025849	0.000239
  12	1.0945e+00	0.4331	156.287617	0.000679	6.790078	2.300541	0.000272
  13	1.1940e+00	0.4652	156.481400	0.000486	4.864534	1.648149	0.000195
  14	1.2935e+00	0.5005	156.772074	0.000730	7.296801	2.472223	0.000292
  15	1.3930e+00	0.5470	157.014302	0.000608	6.080667	2.060186	0.000243
  16	1.4925e+00	0.5888	157.232307	0.000547	5.472600	1.854167	0.000219
  17	1.5920e+00	0.6224	157.482609	0.000628	6.283356	2.128859	0.000252
  18	1.6915e+00	0.6722	157.732912	0.000628	6.283356	2.128859	0.000252
  19	1.7910e+00	0.7059	157.995326	0.000659	6.587389	2.231868	0.000264
  20	1.8905e+00	0.7412	158.205257	0.000527	5.269911	1.785494	0.000211
  21	1.9900e+00	0.7829	158.451522	0.000618	6.182012	2.094522	0.000248
  22	2.0895e+00	0.8246	158.746233	0.000740	7.398145	2.506559	0.000296
  23	2.1890e+00	0.8599	159.036907	0.000730	7.296801	2.472223	0.000292
  24	2.2885e+00	0.9128	159.254912	0.000547	5.472600	1.854167	0.000219
  25	2.3880e+00	0.9513	159.489066	0.000588	5.877978	1.991513	0.000235
  26	2.4875e+00	0.9866	159.703034	0.000537	5.371256	1.819831	0.000215
  27	2.5870e+00	1.0283	159.989671	0.000720	7.195456	2.437887	0.000288
  28	2.6865e+00	1.0668	160.276307	0.000720	7.195456	2.437887	0.000288
  29	2.7860e+00	1.1117	160.494313	0.000547	5.472600	1.854167	0.000219
  30	2.8855e+00	1.1518	160.744615	0.000628	6.283356	2.128859	0.000252
  31	2.9850e+00	1.1903	160.990880	0.000618	6.182012	2.094522	0.000248
  32	3.0845e+00	1.2288	161.233109	0.000608	6.080667	2.060186	0.000243
  33	3.1840e+00	1.2657	161.495522	0.000659	6.587389	2.231868	0.000264
  34	3.2835e+00	1.3042	161.753899	0.000649	6.486045	2.197532	0.000260
  35	3.3830e+00	1.3427	162.024387	0.000679	6.790078	2.300541	0.000272
  36	3.4825e+00	1.3764	162.254504	0.000578	5.776634	1.957176	0.000231
  37	3.5820e+00	1.4230	162.557289	0.000760	7.600834	2.575232	0.000304
  38	3.6815e+00	1.4663	162.815666	0.000649	6.486045	2.197532	0.000260
  39	3.7810e+00	1.5080	163.025597	0.000527	5.269911	1.785494	0.000211
  40	3.8805e+00	1.5433	163.328382	0.000760	7.600834	2.575232	0.000304
  41	3.9800e+00	1.5754	163.546387	0.000547	5.472600	1.854167	0.000219
  42	4.0795e+00	1.6235	163.837061	0.000730	7.296801	2.472223	0.000292
  43	4.1790e+00	1.6572	164.107549	0.000679	6.790078	2.300541	0.000272
  44	4.2785e+00	1.7085	164.317480	0.000527	5.269911	1.785494	0.000211
  45	4.3780e+00	1.7326	164.616228	0.000750	7.499489	2.540896	0.000300
  46	4.4775e+00	1.7791	164.874605	0.000649	6.486045	2.197532	0.000260
  47	4.5770e+00	1.8272	165.112796	0.000598	5.979323	2.025849	0.000239
  48	4.6765e+00	1.8641	165.383284	0.000679	6.790078	2.300541	0.000272
  49	4.7760e+00	1.9090	165.710292	0.000821	8.208901	2.781251	0.000329
  50	4.8755e+00	1.9395	165.908112	0.000497	4.965878	1.682485	0.000199
  51	4.9750e+00	1.9860	166.142266	0.000588	5.877978	1.991513	0.000235
  52	5.0745e+00	2.0133	166.428902	0.000720	7.195456	2.437887	0.000288
  53	5.1740e+00	2.0663	166.691316	0.000659	6.587389	2.231868	0.000264
  54	5.2735e+00	2.1015	166.990064	0.000750	7.499489	2.540896	0.000300
  55	5.3730e+00	2.1465	167.232292	0.000608	6.080667	2.060186	0.000243
  56	5.4725e+00	2.1866	167.498743	0.000669	6.688734	2.266204	0.000268
  57	5.5720e+00	2.2347	167.801528	0.000760	7.600834	2.575232	0.000304
  58	5.6715e+00	2.2588	168.076054	0.000689	6.891423	2.334877	0.000276
  59	5.7710e+00	2.2989	168.314245	0.000598	5.979323	2.025849	0.000239
  60	5.8705e+00	2.3374	168.592807	0.000699	6.992767	2.369214	0.000280
  61	5.9700e+00	2.3807	168.855221	0.000659	6.587389	2.231868	0.000264
  62	6.0695e+00	2.4224	169.137820	0.000709	7.094112	2.403550	0.000284
  63	6.1690e+00	2.4593	169.400234	0.000659	6.587389	2.231868	0.000264
  64	6.2685e+00	2.4962	169.686871	0.000720	7.195456	2.437887	0.000288
  65	6.3680e+00	2.5395	169.916988	0.000578	5.776634	1.957176	0.000231
  66	6.4675e+00	2.5764	170.187476	0.000679	6.790078	2.300541	0.000272
  67	6.5670e+00	2.6245	170.478149	0.000730	7.296801	2.472223	0.000292
  68	6.6665e+00	2.6614	170.744600	0.000669	6.688734	2.266204	0.000268
  69	6.7660e+00	2.7112	171.027200	0.000709	7.094112	2.403550	0.000284
  70	6.8655e+00	2.7448	171.329985	0.000760	7.600834	2.575232	0.000304
  71	6.9650e+00	2.7769	171.576250	0.000618	6.182012	2.094522	0.000248
  72	7.0645e+00	2.8186	171.866924	0.000730	7.296801	2.472223	0.000292
  73	7.1640e+00	2.8636	172.105115	0.000598	5.979323	2.025849	0.000239
  74	7.2635e+00	2.9069	172.395789	0.000730	7.296801	2.472223	0.000292
  75	7.3630e+00	2.9357	172.650128	0.000638	6.384700	2.163195	0.000256
  76	7.4625e+00	2.9823	172.916579	0.000669	6.688734	2.266204	0.000268
  77	7.5620e+00	3.0192	173.243587	0.000821	8.208901	2.781251	0.000329
  78	7.6615e+00	3.0561	173.526187	0.000709	7.094112	2.403550	0.000284
  79	7.7610e+00	3.1026	173.780526	0.000638	6.384700	2.163195	0.000256
  80	7.8605e+00	3.1427	174.018717	0.000598	5.979323	2.025849	0.000239
  81	7.9600e+00	3.1764	174.309391	0.000730	7.296801	2.472223	0.000292
  82	8.0595e+00	3.2165	174.571805	0.000659	6.587389	2.231868	0.000264
  83	8.1590e+00	3.2614	174.862479	0.000730	7.296801	2.472223	0.000292
  84	8.2585e+00	3.3047	175.100670	0.000598	5.979323	2.025849	0.000239
  85	8.3580e+00	3.3368	175.411529	0.000780	7.803523	2.643905	0.000312
  86	8.4575e+00	3.3737	175.669906	0.000649	6.486045	2.197532	0.000260
  87	8.5570e+00	3.4154	175.940394	0.000679	6.790078	2.300541	0.000272
  88	8.6565e+00	3.4587	176.251253	0.000780	7.803523	2.643905	0.000312
  89	8.7560e+00	3.5036	176.537890	0.000720	7.195456	2.437887	0.000288
  90	8.8555e+00	3.5373	176.792230	0.000638	6.384700	2.163195	0.000256
  91	8.9550e+00	3.5823	177.058681	0.000669	6.688734	2.266204	0.000268
  92	9.0545e+00	3.6224	177.317057	0.000649	6.486045	2.197532	0.000260
  93	9.1540e+00	3.6609	177.579471	0.000659	6.587389	2.231868	0.000264
  94	9.2535e+00	3.7058	177.882256	0.000760	7.600834	2.575232	0.000304
  95	9.3530e+00	3.7427	178.132559	0.000628	6.283356	2.128859	0.000252
  96	9.4525e+00	3.7764	178.411121	0.000699	6.992767	2.369214	0.000280
  97	9.5520e+00	3.8213	178.726018	0.000790	7.904867	2.678242	0.000316
  98	9.6515e+00	3.8502	178.984394	0.000649	6.486045	2.197532	0.000260
  99	9.7510e+00	3.8903	179.234697	0.000628	6.283356	2.128859	0.000252
 100	9.8505e+00	3.9336	179.537482	0.000760	7.600834	2.575232	0.000304
 101	9.9500e+00	3.9817	179.803933	0.000669	6.688734	2.266204	0.000268
 102	1.0050e+01	4.0154	180.062310	0.000649	6.486045	2.197532	0.000260
 103	1.0149e+01	4.0587	180.324723	0.000659	6.587389	2.231868	0.000264
 104	1.0248e+01	4.0956	180.627509	0.000760	7.600834	2.575232	0.000304
 105	1.0348e+01	4.1389	180.954517	0.000821	8.208901	2.781251	0.000329
 106	1.0447e+01	4.1838	181.152336	0.000497	4.965878	1.682485	0.000199
 107	1.0547e+01	4.2095	181.463196	0.000780	7.803523	2.643905	0.000312
 108	1.0646e+01	4.2512	181.749832	0.000720	7.195456	2.437887	0.000288
 109	1.0746e+01	4.2993	182.036469	0.000720	7.195456	2.437887	0.000288
 110	1.0845e+01	4.3314	182.319068	0.000709	7.094112	2.403550	0.000284
 111	1.0945e+01	4.3812	182.549185	0.000578	5.776634	1.957176	0.000231
 112	1.1044e+01	4.4181	182.823710	0.000689	6.891423	2.334877	0.000276
 113	1.1144e+01	4.4534	183.162830	0.000851	8.512934	2.884260	0.000341
 114	1.1243e+01	4.5047	183.405058	0.000608	6.080667	2.060186	0.000243
 115	1.1343e+01	4.5432	183.687658	0.000709	7.094112	2.403550	0.000284
 116	1.1443e+01	4.5721	183.937960	0.000628	6.283356	2.128859	0.000252
 117	1.1542e+01	4.6170	184.204411	0.000669	6.688734	2.266204	0.000268
 118	1.1642e+01	4.6507	184.515270	0.000780	7.803523	2.643905	0.000312
 119	1.1741e+01	4.6924	184.781721	0.000669	6.688734	2.266204	0.000268
 120	1.1841e+01	4.7309	185.068358	0.000720	7.195456	2.437887	0.000288
 121	1.1940e+01	4.7678	185.363069	0.000740	7.398145	2.506559	0.000296
 122	1.2040e+01	4.8223	185.657780	0.000740	7.398145	2.506559	0.000296
 123	1.2139e+01	4.8576	185.920194	0.000659	6.587389	2.231868	0.000264
 124	1.2239e+01	4.8849	186.206830	0.000720	7.195456	2.437887	0.000288
 125	1.2338e+01	4.9282	186.445021	0.000598	5.979323	2.025849	0.000239
 126	1.2438e+01	4.9747	186.727621	0.000709	7.094112	2.403550	0.000284
 127	1.2537e+01	5.0132	186.994072	0.000669	6.688734	2.266204	0.000268
 128	1.2636e+01	5.0549	187.313005	0.000801	8.006212	2.712578	0.000321
 129	1.2736e+01	5.0822	187.555234	0.000608	6.080667	2.060186	0.000243
 130	1.2835e+01	5.1239	187.862056	0.000770	7.702178	2.609569	0.000308
 131	1.2935e+01	5.1704	188.076024	0.000537	5.371256	1.819831	0.000215
 132	1.3034e+01	5.2170	188.431292	0.000892	8.918312	3.021606	0.000357
 133	1.3134e+01	5.2442	188.689669	0.000649	6.486045	2.197532	0.000260
 134	1.3233e+01	5.2940	188.931897	0.000608	6.080667	2.060186	0.000243
 135	1.3333e+01	5.3325	189.230645	0.000750	7.499489	2.540896	0.000300
 136	1.3432e+01	5.3758	189.493059	0.000659	6.587389	2.231868	0.000264
 137	1.3532e+01	5.4111	189.803918	0.000780	7.803523	2.643905	0.000312
 138	1.3632e+01	5.4512	190.021923	0.000547	5.472600	1.854167	0.000219
 139	1.3731e+01	5.4849	190.288374	0.000669	6.688734	2.266204	0.000268
 140	1.3831e+01	5.5314	190.599234	0.000780	7.803523	2.643905	0.000312
 141	1.3930e+01	5.5699	190.853573	0.000638	6.384700	2.163195	0.000256
 142	1.4030e+01	5.6148	191.136173	0.000709	7.094112	2.403550	0.000284
 143	1.4129e+01	5.6565	191.430884	0.000740	7.398145	2.506559	0.000296
 144	1.4229e+01	5.6870	191.685223	0.000638	6.384700	2.163195	0.000256
 145	1.4328e+01	5.7287	191.979934	0.000740	7.398145	2.506559	0.000296
 146	1.4428e+01	5.7704	192.234274	0.000638	6.384700	2.163195	0.000256
 147	1.4527e+01	5.8073	192.480539	0.000618	6.182012	2.094522	0.000248
 148	1.4627e+01	5.8571	192.823696	0.000861	8.614278	2.918597	0.000345
 149	1.4726e+01	5.8827	193.045738	0.000557	5.573945	1.888504	0.000223
 150	1.4825e+01	5.9260	193.300078	0.000638	6.384700	2.163195	0.000256
 151	1.4925e+01	5.9597	193.606900	0.000770	7.702178	2.609569	0.000308
 152	1.5024e+01	6.0127	193.889500	0.000709	7.094112	2.403550	0.000284
 153	1.5124e+01	6.0512	194.143839	0.000638	6.384700	2.163195	0.000256
 154	1.5223e+01	6.0865	194.402216	0.000649	6.486045	2.197532	0.000260
 155	1.5323e+01	6.1346	194.656555	0.000638	6.384700	2.163195	0.000256
 156	1.5422e+01	6.1603	194.995675	0.000851	8.512934	2.884260	0.000341
 157	1.5522e+01	6.2068	195.213680	0.000547	5.472600	1.854167	0.000219
 158	1.5621e+01	6.2501	195.504354	0.000730	7.296801	2.472223	0.000292
 159	1.5721e+01	6.2902	195.782916	0.000699	6.992767	2.369214	0.000280
 160	1.5820e+01	6.3335	196.029181	0.000618	6.182012	2.094522	0.000248
 161	1.5920e+01	6.3672	196.336004	0.000770	7.702178	2.609569	0.000308
 162	1.6020e+01	6.4057	196.570158	0.000588	5.877978	1.991513	0.000235
 163	1.6119e+01	6.4426	196.824497	0.000638	6.384700	2.163195	0.000256
 164	1.6218e+01	6.4859	197.135357	0.000780	7.803523	2.643905	0.000312
 165	1.6318e+01	6.5276	197.369511	0.000588	5.877978	1.991513	0.000235
 166	1.6418e+01	6.5629	197.639999	0.000679	6.790078	2.300541	0.000272
 167	1.6517e+01	6.6046	197.890301	0.000628	6.283356	2.128859	0.000252
 168	1.6616e+01	6.6367	198.168863	0.000699	6.992767	2.369214	0.000280
 169	1.6716e+01	6.6800	198.443389	0.000689	6.891423	2.334877	0.000276
 170	1.6816e+01	6.7330	198.677543	0.000588	5.877978	1.991513	0.000235
 171	1.6915e+01	6.7683	198.952068	0.000689	6.891423	2.334877	0.000276
 172	1.7015e+01	6.8084	199.214482	0.000659	6.587389	2.231868	0.000264
 173	1.7114e+01	6.8437	199.501118	0.000720	7.195456	2.437887	0.000288
 174	1.7213e+01	6.8806	199.779681	0.000699	6.992767	2.369214	0.000280
 175	1.7313e+01	6.9223	200.058243	0.000699	6.992767	2.369214	0.000280
 176	1.7413e+01	6.9656	200.316620	0.000649	6.486045	2.197532	0.000260
 177	1.7512e+01	7.0073	200.583071	0.000669	6.688734	2.266204	0.000268
 178	1.7611e+01	7.0394	200.825299	0.000608	6.080667	2.060186	0.000243
 179	1.7711e+01	7.0843	201.099824	0.000689	6.891423	2.334877	0.000276
 180	1.7811e+01	7.1196	201.402609	0.000760	7.600834	2.575232	0.000304
 181	1.7910e+01	7.1533	201.632726	0.000578	5.776634	1.957176	0.000231
 182	1.8009e+01	7.1982	201.899177	0.000669	6.688734	2.266204	0.000268
 183	1.8109e+01	7.2447	202.161591	0.000659	6.587389	2.231868	0.000264
 184	1.8209e+01	7.2768	202.444190	0.000709	7.094112	2.403550	0.000284
 185	1.8308e+01	7.3217	202.710641	0.000669	6.688734	2.266204	0.000268
 186	1.8407e+01	7.3522	202.985166	0.000689	6.891423	2.334877	0.000276
 187	1.8507e+01	7.3987	203.259692	0.000689	6.891423	2.334877	0.000276
 188	1.8607e+01	7.4372	203.505957	0.000618	6.182012	2.094522	0.000248
 189	1.8706e+01	7.4854	203.764334	0.000649	6.486045	2.197532	0.000260
 190	1.8805e+01	7.5190	204.026747	0.000659	6.587389	2.231868	0.000264
 191	1.8905e+01	7.5559	204.297235	0.000679	6.790078	2.300541	0.000272
 192	1.9005e+01	7.6105	204.555612	0.000649	6.486045	2.197532	0.000260
 193	1.9104e+01	7.6410	204.842249	0.000720	7.195456	2.437887	0.000288
 194	1.9203e+01	7.6875	205.068328	0.000568	5.675289	1.922840	0.000227
 195	1.9303e+01	7.7228	205.330742	0.000659	6.587389	2.231868	0.000264
 196	1.9402e+01	7.7677	205.577007	0.000618	6.182012	2.094522	0.000248
 197	1.9502e+01	7.7982	205.879793	0.000760	7.600834	2.575232	0.000304
 198	1.9602e+01	7.8447	206.101835	0.000557	5.573945	1.888504	0.000223
 199	1.9701e+01	7.8800	206.311766	0.000527	5.269911	1.785494	0.000211
 200	1.9800e+01	7.9249	206.590329	0.000699	6.992767	2.369214	0.000280
 201	1.9900e+01	7.9586	206.864854	0.000689	6.891423	2.334877	0.000276
 202	2.0000e+01	7.9955	207.143416	0.000699	6.992767	2.369214	0.000280
 203	2.0099e+01	8.0340	207.361421	0.000547	5.472600	1.854167	0.000219
 204	2.0198e+01	8.0789	207.631910	0.000679	6.790078	2.300541	0.000272
 205	2.0298e+01	8.1110	207.894323	0.000659	6.587389	2.231868	0.000264
 206	2.0398e+01	8.1591	208.160774	0.000669	6.688734	2.266204	0.000268
 207	2.0497e+01	8.1944	208.366668	0.000517	5.168567	1.751158	0.000207
 208	2.0596e+01	8.2409	208.629082	0.000659	6.587389	2.231868	0.000264
 209	2.0696e+01	8.2843	208.907644	0.000699	6.992767	2.369214	0.000280
 210	2.0796e+01	8.3196	209.141798	0.000588	5.877978	1.991513	0.000235
 211	2.0895e+01	8.3500	209.392101	0.000628	6.283356	2.128859	0.000252
 212	2.0994e+01	8.3998	209.662589	0.000679	6.790078	2.300541	0.000272
 213	2.1094e+01	8.4399	209.892706	0.000578	5.776634	1.957176	0.000231
 214	2.1194e+01	8.4832	210.195491	0.000760	7.600834	2.575232	0.000304
 215	2.1293e+01	8.5313	210.381199	0.000466	4.661845	1.579476	0.000187
 216	2.1392e+01	8.5522	210.651687	0.000679	6.790078	2.300541	0.000272
 217	2.1492e+01	8.5891	210.897952	0.000618	6.182012	2.094522	0.000248
 218	2.1591e+01	8.6436	211.160366	0.000659	6.587389	2.231868	0.000264
 219	2.1691e+01	8.6709	211.418743	0.000649	6.486045	2.197532	0.000260
 220	2.1791e+01	8.7142	211.648860	0.000578	5.776634	1.957176	0.000231
 221	2.1890e+01	8.7575	211.919348	0.000679	6.790078	2.300541	0.000272
 222	2.1989e+01	8.8040	212.181762	0.000659	6.587389	2.231868	0.000264
 223	2.2089e+01	8.8393	212.436101	0.000638	6.384700	2.163195	0.000256
 224	2.2189e+01	8.8714	212.702552	0.000669	6.688734	2.266204	0.000268
 225	2.2288e+01	8.9211	212.928632	0.000568	5.675289	1.922840	0.000227
 226	2.2387e+01	8.9564	213.166823	0.000598	5.979323	2.025849	0.000239
 227	2.2487e+01	8.9949	213.449422	0.000709	7.094112	2.403550	0.000284
 228	2.2587e+01	9.0399	213.643205	0.000486	4.864534	1.648149	0.000195
 229	2.2686e+01	9.0767	213.941953	0.000750	7.499489	2.540896	0.000300
 230	2.2785e+01	9.1217	214.192255	0.000628	6.283356	2.128859	0.000252
 231	2.2885e+01	9.1554	214.434483	0.000608	6.080667	2.060186	0.000243
 232	2.2985e+01	9.1890	214.692860	0.000649	6.486045	2.197532	0.000260
 233	2.3084e+01	9.2340	214.902791	0.000527	5.269911	1.785494	0.000211
 234	2.3183e+01	9.2789	215.165205	0.000659	6.587389	2.231868	0.000264
 235	2.3283e+01	9.3206	215.407433	0.000608	6.080667	2.060186	0.000243
 236	2.3383e+01	9.3495	215.673884	0.000669	6.688734	2.266204	0.000268
 237	2.3482e+01	9.3944	215.932261	0.000649	6.486045	2.197532	0.000260
 238	2.3581e+01	9.4425	216.178526	0.000618	6.182012	2.094522	0.000248
 239	2.3681e+01	9.4714	216.412680	0.000588	5.877978	1.991513	0.000235
 240	2.3780e+01	9.5147	216.667019	0.000638	6.384700	2.163195	0.000256
 241	2.3880e+01	9.5500	216.897136	0.000578	5.776634	1.957176	0.000231
 242	2.3980e+01	9.6013	217.171661	0.000689	6.891423	2.334877	0.000276
 243	2.4079e+01	9.6479	217.417927	0.000618	6.182012	2.094522	0.000248
 244	2.4178e+01	9.6783	217.631895	0.000537	5.371256	1.819831	0.000215
 245	2.4278e+01	9.7072	217.906420	0.000689	6.891423	2.334877	0.000276
 246	2.4378e+01	9.7425	218.136537	0.000578	5.776634	1.957176	0.000231
 247	2.4477e+01	9.7987	218.411062	0.000689	6.891423	2.334877	0.000276
 248	2.4576e+01	9.8356	218.637142	0.000568	5.675289	1.922840	0.000227
 249	2.4676e+01	9.8757	218.891481	0.000638	6.384700	2.163195	0.000256
 250	2.4776e+01	9.9158	219.093338	0.000507	5.067223	1.716821	0.000203
 251	2.4875e+01	9.9559	219.400160	0.000770	7.702178	2.609569	0.000308
 252	2.4974e+01	9.9960	219.597980	0.000497	4.965878	1.682485	0.000199
 253	2.5074e+01	10.0249	219.880579	0.000709	7.094112	2.403550	0.000284
 254	2.5174e+01	10.0698	220.098585	0.000547	5.472600	1.854167	0.000219
 255	2.5273e+01	10.1147	220.320627	0.000557	5.573945	1.888504	0.000223
 256	2.5372e+01	10.1436	220.579004	0.000649	6.486045	2.197532	0.000260
 257	2.5472e+01	10.1965	220.825269	0.000618	6.182012	2.094522	0.000248
 258	2.5572e+01	10.2350	221.079609	0.000638	6.384700	2.163195	0.000256
 259	2.5671e+01	10.2799	221.325874	0.000618	6.182012	2.094522	0.000248
 260	2.5770e+01	10.3104	221.576176	0.000628	6.283356	2.128859	0.000252
 261	2.5870e+01	10.3489	221.778033	0.000507	5.067223	1.716821	0.000203
 262	2.5970e+01	10.4051	222.068707	0.000730	7.296801	2.472223	0.000292
 263	2.6069e+01	10.4211	222.266527	0.000497	4.965878	1.682485	0.000199
 264	2.6169e+01	10.4708	222.528940	0.000659	6.587389	2.231868	0.000264
 265	2.6268e+01	10.4997	222.779243	0.000628	6.283356	2.128859	0.000252
 266	2.6367e+01	10.5623	223.001285	0.000557	5.573945	1.888504	0.000223
 267	2.6467e+01	10.5879	223.215254	0.000537	5.371256	1.819831	0.000215
 268	2.6567e+01	10.6280	223.493816	0.000699	6.992767	2.369214	0.000280
 269	2.6666e+01	10.6746	223.703747	0.000527	5.269911	1.785494	0.000211
 270	2.6765e+01	10.7066	223.954049	0.000628	6.283356	2.128859	0.000252
 271	2.6865e+01	10.7435	224.200315	0.000618	6.182012	2.094522	0.000248
 272	2.6965e+01	10.7869	224.394097	0.000486	4.864534	1.648149	0.000195
 273	2.7064e+01	10.8254	224.692845	0.000750	7.499489	2.540896	0.000300
 274	2.7163e+01	10.8687	224.931036	0.000598	5.979323	2.025849	0.000239
 275	2.7263e+01	10.9088	225.132893	0.000507	5.067223	1.716821	0.000203
 276	2.7363e+01	10.9521	225.411455	0.000699	6.992767	2.369214	0.000280
 277	2.7462e+01	10.9906	225.576978	0.000416	4.155123	1.407794	0.000166
 278	2.7561e+01	11.0291	225.867652	0.000730	7.296801	2.472223	0.000292
 279	2.7661e+01	11.0708	226.081620	0.000537	5.371256	1.819831	0.000215
 280	2.7761e+01	11.1061	226.311737	0.000578	5.776634	1.957176	0.000231
 281	2.7860e+01	11.1526	226.545891	0.000588	5.877978	1.991513	0.000235
 282	2.7959e+01	11.1847	226.792156	0.000618	6.182012	2.094522	0.000248
 283	2.8059e+01	11.2264	227.022273	0.000578	5.776634	1.957176	0.000231
 284	2.8159e+01	11.2729	227.288723	0.000669	6.688734	2.266204	0.000268
 285	2.8258e+01	11.3098	227.559212	0.000679	6.790078	2.300541	0.000272
 286	2.8358e+01	11.3467	227.785291	0.000568	5.675289	1.922840	0.000227
 287	2.8457e+01	11.3901	228.031556	0.000618	6.182012	2.094522	0.000248
 288	2.8556e+01	11.4302	228.253599	0.000557	5.573945	1.888504	0.000223
 289	2.8656e+01	11.4719	228.487753	0.000588	5.877978	1.991513	0.000235
 290	2.8756e+01	11.5120	228.742092	0.000638	6.384700	2.163195	0.000256
 291	2.8855e+01	11.5505	228.972209	0.000578	5.776634	1.957176	0.000231
 292	2.8954e+01	11.5858	229.190214	0.000547	5.472600	1.854167	0.000219
 293	2.9054e+01	11.6243	229.448591	0.000649	6.486045	2.197532	0.000260
 294	2.9154e+01	11.6660	229.674671	0.000568	5.675289	1.922840	0.000227
 295	2.9253e+01	11.7109	229.924973	0.000628	6.283356	2.128859	0.000252
 296	2.9352e+01	11.7398	230.151053	0.000568	5.675289	1.922840	0.000227
 297	2.9452e+01	11.7895	230.393281	0.000608	6.080667	2.060186	0.000243
 298	2.9552e+01	11.8264	230.635509	0.000608	6.080667	2.060186	0.000243
 299	2.9651e+01	11.8617	230.865626	0.000578	5.776634	1.957176	0.000231
 300	2.9750e+01	11.8954	231.067483	0.000507	5.067223	1.716821	0.000203
 301	2.9850e+01	11.9451	231.313748	0.000618	6.182012	2.094522	0.000248
 302	2.9950e+01	11.9852	231.531753	0.000547	5.472600	1.854167	0.000219
 303	3.0049e+01	12.0317	231.798204	0.000669	6.688734	2.266204	0.000268
 304	3.0148e+01	12.0638	232.048507	0.000628	6.283356	2.128859	0.000252
 305	3.0248e+01	12.1023	232.222103	0.000436	4.357811	1.476466	0.000174
 306	3.0348e+01	12.1537	232.484517	0.000659	6.587389	2.231868	0.000264
 307	3.0447e+01	12.1761	232.738857	0.000638	6.384700	2.163195	0.000256
 308	3.0547e+01	12.2210	232.964936	0.000568	5.675289	1.922840	0.000227
 309	3.0646e+01	12.2660	233.199090	0.000588	5.877978	1.991513	0.000235
 310	3.0745e+01	12.2964	233.380761	0.000456	4.560500	1.545139	0.000183
 311	3.0845e+01	12.3462	233.647212	0.000669	6.688734	2.266204	0.000268
 312	3.0945e+01	12.3863	233.877329	0.000578	5.776634	1.957176	0.000231
 313	3.1044e+01	12.4232	234.139743	0.000659	6.587389	2.231868	0.000264
 314	3.1143e+01	12.4633	234.369860	0.000578	5.776634	1.957176	0.000231
 315	3.1243e+01	12.4970	234.583828	0.000537	5.371256	1.819831	0.000215
 316	3.1343e+01	12.5547	234.801833	0.000547	5.472600	1.854167	0.000219
 317	3.1442e+01	12.5772	235.027913	0.000568	5.675289	1.922840	0.000227
 318	3.1541e+01	12.6141	235.266104	0.000598	5.979323	2.025849	0.000239
 319	3.1641e+01	12.6622	235.484109	0.000547	5.472600	1.854167	0.000219
 320	3.1741e+01	12.7071	235.718263	0.000588	5.877978	1.991513	0.000235
 321	3.1840e+01	12.7472	235.952417	0.000588	5.877978	1.991513	0.000235
 322	3.1939e+01	12.7873	236.142162	0.000476	4.763189	1.613812	0.000191
 323	3.2039e+01	12.8274	236.408613	0.000669	6.688734	2.266204	0.000268
 324	3.2139e+01	12.8627	236.638730	0.000578	5.776634	1.957176	0.000231
 325	3.2238e+01	12.9061	236.844624	0.000517	5.168567	1.751158	0.000207
 326	3.2337e+01	12.9446	237.078778	0.000588	5.877978	1.991513	0.000235
 327	3.2437e+01	12.9815	237.292746	0.000537	5.371256	1.819831	0.000215
 328	3.2536e+01	13.0183	237.530937	0.000598	5.979323	2.025849	0.000239
 329	3.2636e+01	13.0569	237.789314	0.000649	6.486045	2.197532	0.000260
 330	3.2736e+01	13.1002	237.983096	0.000486	4.864534	1.648149	0.000195
 331	3.2835e+01	13.1306	238.213213	0.000578	5.776634	1.957176	0.000231
 332	3.2934e+01	13.1804	238.451404	0.000598	5.979323	2.025849	0.000239
 333	3.3034e+01	13.2173	238.661335	0.000527	5.269911	1.785494	0.000211
 334	3.3133e+01	13.2670	238.899526	0.000598	5.979323	2.025849	0.000239
 335	3.3233e+01	13.2991	239.097346	0.000497	4.965878	1.682485	0.000199
 336	3.3333e+01	13.3456	239.363796	0.000669	6.688734	2.266204	0.000268
 337	3.3432e+01	13.3745	239.573728	0.000527	5.269911	1.785494	0.000211
 338	3.3532e+01	13.4082	239.795770	0.000557	5.573945	1.888504	0.000223
 339	3.3631e+01	13.4547	240.037998	0.000608	6.080667	2.060186	0.000243
 340	3.3730e+01	13.5060	240.235818	0.000497	4.965878	1.682485	0.000199
 341	3.3830e+01	13.5285	240.486120	0.000628	6.283356	2.128859	0.000252
 342	3.3929e+01	13.5766	240.692014	0.000517	5.168567	1.751158	0.000207
 343	3.4029e+01	13.6167	240.926168	0.000588	5.877978	1.991513	0.000235
 344	3.4129e+01	13.6488	241.160322	0.000588	5.877978	1.991513	0.000235
 345	3.4228e+01	13.6969	241.341993	0.000456	4.560500	1.545139	0.000183
 346	3.4328e+01	13.7354	241.600370	0.000649	6.486045	2.197532	0.000260
 347	3.4427e+01	13.7739	241.826449	0.000568	5.675289	1.922840	0.000227
 348	3.4526e+01	13.8140	242.044455	0.000547	5.472600	1.854167	0.000219
 349	3.4626e+01	13.8622	242.230163	0.000466	4.661845	1.579476	0.000187
 350	3.4725e+01	13.8991	242.480465	0.000628	6.283356	2.128859	0.000252
 351	3.4825e+01	13.9376	242.690396	0.000527	5.269911	1.785494	0.000211
 352	3.4925e+01	13.9665	242.904365	0.000537	5.371256	1.819831	0.000215
 353	3.5024e+01	14.0178	243.166778	0.000659	6.587389	2.231868	0.000264
 354	3.5123e+01	14.0515	243.348449	0.000456	4.560500	1.545139	0.000183
 355	3.5223e+01	14.0996	243.594715	0.000618	6.182012	2.094522	0.000248
 356	3.5322e+01	14.1461	243.824831	0.000578	5.776634	1.957176	0.000231
 357	3.5422e+01	14.1686	244.030725	0.000517	5.168567	1.751158	0.000207
 358	3.5522e+01	14.2135	244.281028	0.000628	6.283356	2.128859	0.000252
 359	3.5621e+01	14.2552	244.466736	0.000466	4.661845	1.579476	0.000187
 360	3.5721e+01	14.2889	244.700890	0.000588	5.877978	1.991513	0.000235
 361	3.5820e+01	14.3354	244.943118	0.000608	6.080667	2.060186	0.000243
 362	3.5919e+01	14.3739	245.128826	0.000466	4.661845	1.579476	0.000187
 363	3.6019e+01	14.4124	245.350869	0.000557	5.573945	1.888504	0.000223
 364	3.6118e+01	14.4590	245.548688	0.000497	4.965878	1.682485	0.000199
 365	3.6218e+01	14.4958	245.803028	0.000638	6.384700	2.163195	0.000256
 366	3.6318e+01	14.5392	246.000848	0.000497	4.965878	1.682485	0.000199
 367	3.6417e+01	14.5712	246.239039	0.000598	5.979323	2.025849	0.000239
 368	3.6517e+01	14.6162	246.448970	0.000527	5.269911	1.785494	0.000211
 369	3.6616e+01	14.6499	246.671012	0.000557	5.573945	1.888504	0.000223
 370	3.6715e+01	14.6948	246.844609	0.000436	4.357811	1.476466	0.000174
 371	3.6815e+01	14.7317	247.058577	0.000537	5.371256	1.819831	0.000215
 372	3.6914e+01	14.7718	247.296768	0.000598	5.979323	2.025849	0.000239
 373	3.7014e+01	14.8071	247.490551	0.000486	4.864534	1.648149	0.000195
 374	3.7114e+01	14.8536	247.708556	0.000547	5.472600	1.854167	0.000219
 375	3.7213e+01	14.8873	247.938673	0.000578	5.776634	1.957176	0.000231
 376	3.7313e+01	14.9290	248.140530	0.000507	5.067223	1.716821	0.000203
 377	3.7412e+01	14.9707	248.374683	0.000588	5.877978	1.991513	0.000235
 378	3.7511e+01	15.0092	248.592689	0.000547	5.472600	1.854167	0.000219
 379	3.7611e+01	15.0493	248.810694	0.000547	5.472600	1.854167	0.000219
 380	3.7711e+01	15.0862	248.960068	0.000375	3.749745	1.270448	0.000150
 381	3.7810e+01	15.1327	249.222482	0.000659	6.587389	2.231868	0.000264
 382	3.7910e+01	15.1664	249.388005	0.000416	4.155123	1.407794	0.000166
 383	3.8009e+01	15.2113	249.630233	0.000608	6.080667	2.060186	0.000243
 384	3.8108e+01	15.2434	249.840164	0.000527	5.269911	1.785494	0.000211
 385	3.8208e+01	15.2980	250.062206	0.000557	5.573945	1.888504	0.000223
 386	3.8307e+01	15.3365	250.280212	0.000547	5.472600	1.854167	0.000219
 387	3.8407e+01	15.3750	250.473994	0.000486	4.864534	1.648149	0.000195
 388	3.8507e+01	15.4151	250.691999	0.000547	5.472600	1.854167	0.000219
 389	3.8606e+01	15.4552	250.922116	0.000578	5.776634	1.957176	0.000231
 390	3.8706e+01	15.4969	251.136084	0.000537	5.371256	1.819831	0.000215
 391	3.8805e+01	15.5322	251.341978	0.000517	5.168567	1.751158	0.000207
 392	3.8904e+01	15.5755	251.559984	0.000547	5.472600	1.854167	0.000219
 393	3.9004e+01	15.6188	251.745692	0.000466	4.661845	1.579476	0.000187
 394	3.9103e+01	15.6509	251.971771	0.000568	5.675289	1.922840	0.000227
 395	3.9203e+01	15.6910	252.177665	0.000517	5.168567	1.751158	0.000207
 396	3.9303e+01	15.7247	252.419893	0.000608	6.080667	2.060186	0.000243
 397	3.9402e+01	15.7728	252.609639	0.000476	4.763189	1.613812	0.000191
 398	3.9502e+01	15.8177	252.803421	0.000486	4.864534	1.648149	0.000195
 399	3.9601e+01	15.8498	253.033538	0.000578	5.776634	1.957176	0.000231
 400	3.9700e+01	15.8996	253.259618	0.000568	5.675289	1.922840	0.000227
 401	3.9800e+01	15.9332	253.425140	0.000416	4.155123	1.407794	0.000166
 402	3.9900e+01	15.9701	253.626997	0.000507	5.067223	1.716821	0.000203
 403	3.9999e+01	16.0070	253.865188	0.000598	5.979323	2.025849	0.000239
 404	4.0099e+01	16.0536	254.071082	0.000517	5.168567	1.751158	0.000207
 405	4.0198e+01	16.0905	254.297162	0.000568	5.675289	1.922840	0.000227
 406	4.0297e+01	16.1338	254.482870	0.000466	4.661845	1.579476	0.000187
 407	4.0397e+01	16.1675	254.704912	0.000557	5.573945	1.888504	0.000223
 408	4.0496e+01	16.2028	254.926955	0.000557	5.573945	1.888504	0.000223
 409	4.0596e+01	16.2461	255.148997	0.000557	5.573945	1.888504	0.000223
 410	4.0696e+01	16.2878	255.322594	0.000436	4.357811	1.476466	0.000174
 411	4.0795e+01	16.3295	255.520414	0.000497	4.965878	1.682485	0.000199
 412	4.0895e+01	16.3632	255.718233	0.000497	4.965878	1.682485	0.000199
 413	4.0994e+01	16.4017	255.968536	0.000628	6.283356	2.128859	0.000252
 414	4.1093e+01	16.4514	256.182504	0.000537	5.371256	1.819831	0.000215
 415	4.1193e+01	16.4835	256.392435	0.000527	5.269911	1.785494	0.000211
 416	4.1292e+01	16.5252	256.578143	0.000466	4.661845	1.579476	0.000187
 417	4.1392e+01	16.5605	256.800186	0.000557	5.573945	1.888504	0.000223
 418	4.1492e+01	16.6006	257.014154	0.000537	5.371256	1.819831	0.000215
 419	4.1591e+01	16.6455	257.244271	0.000578	5.776634	1.957176	0.000231
 420	4.1691e+01	16.6872	257.405756	0.000405	4.053778	1.373457	0.000162
 421	4.1790e+01	16.7305	257.652021	0.000618	6.182012	2.094522	0.000248
 422	4.1889e+01	16.7642	257.841767	0.000476	4.763189	1.613812	0.000191
 423	4.1989e+01	16.8108	258.067846	0.000568	5.675289	1.922840	0.000227
 424	4.2089e+01	16.8460	258.269703	0.000507	5.067223	1.716821	0.000203
 425	4.2188e+01	16.8829	258.463486	0.000486	4.864534	1.648149	0.000195
 426	4.2288e+01	16.9247	258.665342	0.000507	5.067223	1.716821	0.000203
 427	4.2387e+01	16.9728	258.871236	0.000517	5.168567	1.751158	0.000207
 428	4.2486e+01	17.0017	259.056945	0.000466	4.661845	1.579476	0.000187
 429	4.2586e+01	17.0386	259.283024	0.000568	5.675289	1.922840	0.000227
 430	4.2685e+01	17.0851	259.468732	0.000466	4.661845	1.579476	0.000187
 431	4.2785e+01	17.1300	259.698849	0.000578	5.776634	1.957176	0.000231
 432	4.2885e+01	17.1637	259.916855	0.000547	5.472600	1.854167	0.000219
 433	4.2984e+01	17.1974	260.082377	0.000416	4.155123	1.407794	0.000166
 434	4.3084e+01	17.2439	260.312494	0.000578	5.776634	1.957176	0.000231
 435	4.3183e+01	17.2680	260.498202	0.000466	4.661845	1.579476	0.000187
 436	4.3282e+01	17.3225	260.716207	0.000547	5.472600	1.854167	0.000219
 437	4.3382e+01	17.3562	260.881730	0.000416	4.155123	1.407794	0.000166
 438	4.3481e+01	17.3915	261.119921	0.000598	5.979323	2.025849	0.000239
 439	4.3581e+01	17.4444	261.321778	0.000507	5.067223	1.716821	0.000203
 440	4.3681e+01	17.4797	261.551894	0.000578	5.776634	1.957176	0.000231
 441	4.3780e+01	17.5198	261.757788	0.000517	5.168567	1.751158	0.000207
 442	4.3880e+01	17.5631	261.951571	0.000486	4.864534	1.648149	0.000195
 443	4.3979e+01	17.5968	262.153428	0.000507	5.067223	1.716821	0.000203
 444	4.4078e+01	17.6546	262.331062	0.000446	4.459156	1.510803	0.000179
 445	4.4178e+01	17.6931	262.545030	0.000537	5.371256	1.819831	0.000215
 446	4.4278e+01	17.7188	262.811481	0.000669	6.688734	2.266204	0.000268
 447	4.4377e+01	17.7669	262.972966	0.000405	4.053778	1.373457	0.000162
 448	4.4477e+01	17.8022	263.199046	0.000568	5.675289	1.922840	0.000227
 449	4.4576e+01	17.8391	263.380717	0.000456	4.560500	1.545139	0.000183
 450	4.4675e+01	17.8824	263.618908	0.000598	5.979323	2.025849	0.000239
 451	4.4775e+01	17.9161	263.788468	0.000426	4.256467	1.442130	0.000170
 452	4.4874e+01	17.9658	264.006473	0.000547	5.472600	1.854167	0.000219
 453	4.4974e+01	18.0043	264.220441	0.000537	5.371256	1.819831	0.000215
 454	4.5074e+01	18.0332	264.406149	0.000466	4.661845	1.579476	0.000187
 455	4.5173e+01	18.0701	264.640303	0.000588	5.877978	1.991513	0.000235
 456	4.5273e+01	18.1182	264.838123	0.000497	4.965878	1.682485	0.000199
 457	4.5372e+01	18.1567	265.011720	0.000436	4.357811	1.476466	0.000174
 458	4.5471e+01	18.1984	265.233762	0.000557	5.573945	1.888504	0.000223
 459	4.5571e+01	18.2385	265.447730	0.000537	5.371256	1.819831	0.000215
 460	4.5670e+01	18.2818	265.681884	0.000588	5.877978	1.991513	0.000235
 461	4.5770e+01	18.3235	265.823184	0.000355	3.547056	1.201775	0.000142
 462	4.5870e+01	18.3460	266.049264	0.000568	5.675289	1.922840	0.000227
 463	4.5969e+01	18.3973	266.255158	0.000517	5.168567	1.751158	0.000207
 464	4.6069e+01	18.4471	266.461052	0.000517	5.168567	1.751158	0.000207
 465	4.6168e+01	18.4840	266.683094	0.000557	5.573945	1.888504	0.000223
 466	4.6267e+01	18.5305	266.905136	0.000557	5.573945	1.888504	0.000223
 467	4.6367e+01	18.5578	267.115068	0.000527	5.269911	1.785494	0.000211
 468	4.6467e+01	18.6011	267.280590	0.000416	4.155123	1.407794	0.000166
 469	4.6566e+01	18.6428	267.514744	0.000588	5.877978	1.991513	0.000235
 470	4.6666e+01	18.6797	267.704489	0.000476	4.763189	1.613812	0.000191
 471	4.6765e+01	18.7230	267.906346	0.000507	5.067223	1.716821	0.000203
 472	4.6864e+01	18.7599	268.120314	0.000537	5.371256	1.819831	0.000215
 473	4.6964e+01	18.7936	268.301985	0.000456	4.560500	1.545139	0.000183
 474	4.7063e+01	18.8529	268.544214	0.000608	6.080667	2.060186	0.000243
 475	4.7163e+01	18.8722	268.758182	0.000537	5.371256	1.819831	0.000215
 476	4.7263e+01	18.9203	268.923704	0.000416	4.155123	1.407794	0.000166
 477	4.7362e+01	18.9620	269.141710	0.000547	5.472600	1.854167	0.000219
 478	4.7462e+01	19.0005	269.319344	0.000446	4.459156	1.510803	0.000179
 479	4.7561e+01	19.0342	269.537349	0.000547	5.472600	1.854167	0.000219
 480	4.7660e+01	19.0759	269.767466	0.000578	5.776634	1.957176	0.000231
 481	4.7760e+01	19.1160	269.953174	0.000466	4.661845	1.579476	0.000187
 482	4.7859e+01	19.1594	270.150994	0.000497	4.965878	1.682485	0.000199
 483	4.7959e+01	19.1962	270.348813	0.000497	4.965878	1.682485	0.000199
 484	4.8059e+01	19.2364	270.558744	0.000527	5.269911	1.785494	0.000211
 485	4.8158e+01	19.2845	270.776750	0.000547	5.472600	1.854167	0.000219
 486	4.8258e+01	19.3310	270.966495	0.000476	4.763189	1.613812	0.000191
 487	4.8357e+01	19.3567	271.144129	0.000446	4.459156	1.510803	0.000179
 488	4.8456e+01	19.3904	271.358097	0.000537	5.371256	1.819831	0.000215
 489	4.8556e+01	19.4353	271.568028	0.000527	5.269911	1.785494	0.000211
 490	4.8656e+01	19.4770	271.729514	0.000405	4.053778	1.373457	0.000162
 491	4.8755e+01	19.5123	271.979816	0.000628	6.283356	2.128859	0.000252
 492	4.8855e+01	19.5556	272.173599	0.000486	4.864534	1.648149	0.000195
 493	4.8954e+01	19.5925	272.371418	0.000497	4.965878	1.682485	0.000199
 494	4.9053e+01	19.6342	272.565201	0.000486	4.864534	1.648149	0.000195
 495	4.9153e+01	19.6663	272.807429	0.000608	6.080667	2.060186	0.000243
 496	4.9252e+01	19.7080	273.017360	0.000527	5.269911	1.785494	0.000211
 497	4.9352e+01	19.7593	273.203068	0.000466	4.661845	1.579476	0.000187
 498	4.9452e+01	19.7962	273.368591	0.000416	4.155123	1.407794	0.000166
 499	4.9551e+01	19.8395	273.574485	0.000517	5.168567	1.751158	0.000207
 500	4.9651e+01	19.8764	273.784416	0.000527	5.269911	1.785494	0.000211
 501	4.9750e+01	19.9214	273.998384	0.000537	5.371256	1.819831	0.000215
 502	4.9849e+01	19.9583	274.196204	0.000497	4.965878	1.682485	0.000199
 503	4.9949e+01	19.9936	274.369800	0.000436	4.357811	1.476466	0.000174
 504	5.0048e+01	19.9551	274.272909	0.000243	2.432267	0.824074	-0.000097
 505	5.0148e+01	19.9069	274.240612	0.000081	0.810756	0.274691	-0.000032
 506	5.0248e+01	19.8732	274.131609	0.000274	2.736300	0.927084	-0.000110
 507	5.0347e+01	19.8363	274.046830	0.000213	2.128233	0.721065	-0.000085
 508	5.0447e+01	19.7914	273.933790	0.000284	2.837645	0.961420	-0.000114
 509	5.0546e+01	19.7545	273.824787	0.000274	2.736300	0.927084	-0.000110
 510	5.0645e+01	19.7128	273.727896	0.000243	2.432267	0.824074	-0.000097
 511	5.0745e+01	19.6679	273.635042	0.000233	2.330922	0.789738	-0.000093
 512	5.0844e+01	19.6278	273.509891	0.000314	3.141678	1.064429	-0.000126
 513	5.0944e+01	19.6021	273.412999	0.000243	2.432267	0.824074	-0.000097
 514	5.1044e+01	19.5572	273.271700	0.000355	3.547056	1.201775	-0.000142
 515	5.1143e+01	19.5187	273.215180	0.000142	1.418822	0.480710	-0.000057
 516	5.1242e+01	19.4738	273.077917	0.000345	3.445711	1.167439	-0.000138
 517	5.1342e+01	19.4289	272.952766	0.000314	3.141678	1.064429	-0.000126
 518	5.1441e+01	19.3888	272.863949	0.000223	2.229578	0.755401	-0.000089
 519	5.1541e+01	19.3519	272.722649	0.000355	3.547056	1.201775	-0.000142
 520	5.1641e+01	19.3182	272.597498	0.000314	3.141678	1.064429	-0.000126
 521	5.1740e+01	19.2813	272.504644	0.000233	2.330922	0.789738	-0.000093
 522	5.1840e+01	19.2524	272.367381	0.000345	3.445711	1.167439	-0.000138
 523	5.1939e+01	19.1995	272.230119	0.000345	3.445711	1.167439	-0.000138
 524	5.2038e+01	19.1561	272.145339	0.000213	2.128233	0.721065	-0.000085
 525	5.2138e+01	19.1225	272.020187	0.000314	3.141678	1.064429	-0.000126
 526	5.2237e+01	19.0775	271.919259	0.000253	2.533611	0.858411	-0.000101
 527	5.2337e+01	19.0310	271.733551	0.000466	4.661845	1.579476	-0.000187
 528	5.2437e+01	18.9941	271.632622	0.000253	2.533611	0.858411	-0.000101
 529	5.2536e+01	18.9556	271.487286	0.000365	3.648400	1.236111	-0.000146
 530	5.2636e+01	18.9139	271.374246	0.000284	2.837645	0.961420	-0.000114
 531	5.2735e+01	18.8786	271.249095	0.000314	3.141678	1.064429	-0.000126
 532	5.2834e+01	18.8401	271.132018	0.000294	2.938989	0.995756	-0.000118
 533	5.2934e+01	18.7968	270.986681	0.000365	3.648400	1.236111	-0.000146
 534	5.3033e+01	18.7599	270.857492	0.000324	3.243022	1.098766	-0.000130
 535	5.3133e+01	18.7166	270.740415	0.000294	2.938989	0.995756	-0.000118
 536	5.3233e+01	18.6669	270.599116	0.000355	3.547056	1.201775	-0.000142
 537	5.3332e+01	18.6235	270.453779	0.000365	3.648400	1.236111	-0.000146
 538	5.3431e+01	18.5931	270.336702	0.000294	2.938989	0.995756	-0.000118
 539	5.3531e+01	18.5626	270.203476	0.000334	3.344367	1.133102	-0.000134
 540	5.3630e+01	18.5193	270.066214	0.000345	3.445711	1.167439	-0.000138
 541	5.3730e+01	18.4808	269.920877	0.000365	3.648400	1.236111	-0.000146
 542	5.3830e+01	18.4407	269.783614	0.000345	3.445711	1.167439	-0.000138
 543	5.3929e+01	18.4070	269.646352	0.000345	3.445711	1.167439	-0.000138
 544	5.4029e+01	18.3637	269.521200	0.000314	3.141678	1.064429	-0.000126
 545	5.4128e+01	18.3203	269.355678	0.000416	4.155123	1.407794	-0.000166
 546	5.4227e+01	18.2818	269.210341	0.000365	3.648400	1.236111	-0.000146
 547	5.4327e+01	18.2385	269.089227	0.000304	3.040334	1.030093	-0.000122
 548	5.4426e+01	18.1968	268.923704	0.000416	4.155123	1.407794	-0.000166
 549	5.4526e+01	18.1599	268.786442	0.000345	3.445711	1.167439	-0.000138
 550	5.4626e+01	18.1070	268.657253	0.000324	3.243022	1.098766	-0.000130
 551	5.4725e+01	18.0813	268.519991	0.000345	3.445711	1.167439	-0.000138
 552	5.4825e+01	18.0364	268.374654	0.000365	3.648400	1.236111	-0.000146
 553	5.4924e+01	17.9947	268.241428	0.000334	3.344367	1.133102	-0.000134
 554	5.5023e+01	17.9674	268.067832	0.000436	4.357811	1.476466	-0.000174
 555	5.5123e+01	17.9209	267.942680	0.000314	3.141678	1.064429	-0.000126
 556	5.5222e+01	17.8744	267.793306	0.000375	3.749745	1.270448	-0.000150
 557	5.5322e+01	17.8294	267.635858	0.000395	3.952434	1.339121	-0.000158
 558	5.5422e+01	17.7909	267.498595	0.000345	3.445711	1.167439	-0.000138
 559	5.5521e+01	17.7621	267.377481	0.000304	3.040334	1.030093	-0.000122
 560	5.5620e+01	17.7268	267.228107	0.000375	3.749745	1.270448	-0.000150
 561	5.5720e+01	17.6835	267.086808	0.000355	3.547056	1.201775	-0.000142
 562	5.5819e+01	17.6417	266.929359	0.000395	3.952434	1.339121	-0.000158
 563	5.5919e+01	17.6032	266.832468	0.000243	2.432267	0.824074	-0.000097
 564	5.6019e+01	17.5631	266.618500	0.000537	5.371256	1.819831	-0.000215
 565	5.6118e+01	17.5246	266.469126	0.000375	3.749745	1.270448	-0.000150
 566	5.6218e+01	17.4797	266.384346	0.000213	2.128233	0.721065	-0.000085
 567	5.6317e+01	17.4332	266.178452	0.000517	5.168567	1.751158	-0.000207
 568	5.6416e+01	17.4011	266.081561	0.000243	2.432267	0.824074	-0.000097
 569	5.6516e+01	17.3626	265.899890	0.000456	4.560500	1.545139	-0.000183
 570	5.6615e+01	17.3209	265.758590	0.000355	3.547056	1.201775	-0.000142
 571	5.6715e+01	17.2792	265.613253	0.000365	3.648400	1.236111	-0.000146
 572	5.6815e+01	17.2407	265.467916	0.000365	3.648400	1.236111	-0.000146
 573	5.6914e+01	17.2038	265.310468	0.000395	3.952434	1.339121	-0.000158
 574	5.7014e+01	17.1669	265.165131	0.000365	3.648400	1.236111	-0.000146
 575	5.7113e+01	17.1252	265.007683	0.000395	3.952434	1.339121	-0.000158
 576	5.7212e+01	17.0883	264.866383	0.000355	3.547056	1.201775	-0.000142
 577	5.7312e+01	17.0514	264.684712	0.000456	4.560500	1.545139	-0.000183
 578	5.7411e+01	16.9920	264.551486	0.000334	3.344367	1.133102	-0.000134
 579	5.7511e+01	16.9696	264.406149	0.000365	3.648400	1.236111	-0.000146
 580	5.7611e+01	16.9263	264.228515	0.000446	4.459156	1.510803	-0.000179
 581	5.7710e+01	16.8829	264.103364	0.000314	3.141678	1.064429	-0.000126
 582	5.7809e+01	16.8460	263.962065	0.000355	3.547056	1.201775	-0.000142
 583	5.7909e+01	16.8027	263.788468	0.000436	4.357811	1.476466	-0.000174
 584	5.8008e+01	16.7626	263.647168	0.000355	3.547056	1.201775	-0.000142
 585	5.8108e+01	16.7225	263.493757	0.000385	3.851089	1.304784	-0.000154
 586	5.8208e+01	16.6792	263.328234	0.000416	4.155123	1.407794	-0.000166
 587	5.8307e+01	16.6519	263.182897	0.000365	3.648400	1.236111	-0.000146
 588	5.8407e+01	16.5990	263.053709	0.000324	3.243022	1.098766	-0.000130
 589	5.8506e+01	16.5605	262.843778	0.000527	5.269911	1.785494	-0.000211
 590	5.8605e+01	16.5252	262.714590	0.000324	3.243022	1.098766	-0.000130
 591	5.8705e+01	16.4771	262.520807	0.000486	4.864534	1.648149	-0.000195
 592	5.8804e+01	16.4450	262.423916	0.000243	2.432267	0.824074	-0.000097
 593	5.8904e+01	16.4033	262.238208	0.000466	4.661845	1.579476	-0.000187
 594	5.9004e+01	16.3680	262.060574	0.000446	4.459156	1.510803	-0.000179
 595	5.9103e+01	16.3279	261.911200	0.000375	3.749745	1.270448	-0.000150
 596	5.9203e+01	16.2846	261.745677	0.000416	4.155123	1.407794	-0.000166
 597	5.9302e+01	16.2509	261.612452	0.000334	3.344367	1.133102	-0.000134
 598	5.9401e+01	16.2124	261.406558	0.000517	5.168567	1.751158	-0.000207
 599	5.9501e+01	16.1659	261.265258	0.000355	3.547056	1.201775	-0.000142
 600	5.9600e+01	16.1225	261.091661	0.000436	4.357811	1.476466	-0.000174
 601	5.9700e+01	16.0808	260.950361	0.000355	3.547056	1.201775	-0.000142
 602	5.9800e+01	16.0503	260.796950	0.000385	3.851089	1.304784	-0.000154
 603	5.9899e+01	16.0167	260.639502	0.000395	3.952434	1.339121	-0.000158
 604	5.9998e+01	15.9669	260.473979	0.000416	4.155123	1.407794	-0.000166
 605	6.0098e+01	15.9332	260.320568	0.000385	3.851089	1.304784	-0.000154
 606	6.0197e+01	15.8931	260.142934	0.000446	4.459156	1.510803	-0.000179
 607	6.0297e+01	15.8498	259.993560	0.000375	3.749745	1.270448	-0.000150
 608	6.0397e+01	15.8049	259.815926	0.000446	4.459156	1.510803	-0.000179
 609	6.0496e+01	15.7744	259.666552	0.000375	3.749745	1.270448	-0.000150
 610	6.0596e+01	15.7359	259.517178	0.000375	3.749745	1.270448	-0.000150
 611	6.0695e+01	15.6878	259.351656	0.000416	4.155123	1.407794	-0.000166
 612	6.0794e+01	15.6557	259.174022	0.000446	4.459156	1.510803	-0.000179
 613	6.0894e+01	15.6124	259.000425	0.000436	4.357811	1.476466	-0.000174
 614	6.0993e+01	15.5723	258.842976	0.000395	3.952434	1.339121	-0.000158
 615	6.1093e+01	15.5370	258.693602	0.000375	3.749745	1.270448	-0.000150
 616	6.1193e+01	15.4905	258.491746	0.000507	5.067223	1.716821	-0.000203
 617	6.1292e+01	15.4472	258.362557	0.000324	3.243022	1.098766	-0.000130
 618	6.1392e+01	15.4119	258.172812	0.000476	4.763189	1.613812	-0.000191
 619	6.1491e+01	15.3734	258.059772	0.000284	2.837645	0.961420	-0.000114
 620	6.1590e+01	15.3365	257.841767	0.000547	5.472600	1.854167	-0.000219
 621	6.1690e+01	15.2899	257.668170	0.000436	4.357811	1.476466	-0.000174
 622	6.1789e+01	15.2482	257.494573	0.000436	4.357811	1.476466	-0.000174
 623	6.1889e+01	15.2049	257.361348	0.000334	3.344367	1.133102	-0.000134
 624	6.1989e+01	15.1760	257.216011	0.000365	3.648400	1.236111	-0.000146
 625	6.2088e+01	15.1263	257.010117	0.000517	5.168567	1.751158	-0.000207
 626	6.2188e+01	15.0942	256.893040	0.000294	2.938989	0.995756	-0.000118
 627	6.2287e+01	15.0461	256.679072	0.000537	5.371256	1.819831	-0.000215
 628	6.2386e+01	15.0188	256.537772	0.000355	3.547056	1.201775	-0.000142
 629	6.2486e+01	14.9739	256.356101	0.000456	4.560500	1.545139	-0.000183
 630	6.2586e+01	14.9306	256.158281	0.000497	4.965878	1.682485	-0.000199
 631	6.2685e+01	14.8937	256.057353	0.000253	2.533611	0.858411	-0.000101
 632	6.2785e+01	14.8584	255.883756	0.000436	4.357811	1.476466	-0.000174
 633	6.2884e+01	14.8119	255.702085	0.000456	4.560500	1.545139	-0.000183
 634	6.2983e+01	14.7734	255.516377	0.000466	4.661845	1.579476	-0.000187
 635	6.3083e+01	14.7397	255.371040	0.000365	3.648400	1.236111	-0.000146
 636	6.3182e+01	14.6948	255.165146	0.000517	5.168567	1.751158	-0.000207
 637	6.3282e+01	14.6627	255.027883	0.000345	3.445711	1.167439	-0.000138
 638	6.3382e+01	14.6081	254.858323	0.000426	4.256467	1.442130	-0.000170
 639	6.3481e+01	14.5745	254.652430	0.000517	5.168567	1.751158	-0.000207
 640	6.3581e+01	14.5360	254.523241	0.000324	3.243022	1.098766	-0.000130
 641	6.3680e+01	14.4926	254.341570	0.000456	4.560500	1.545139	-0.000183
 642	6.3779e+01	14.4493	254.192196	0.000375	3.749745	1.270448	-0.000150
 643	6.3879e+01	14.4172	253.974191	0.000547	5.472600	1.854167	-0.000219
 644	6.3978e+01	14.3868	253.840965	0.000334	3.344367	1.133102	-0.000134
 645	6.4078e+01	14.3354	253.635071	0.000517	5.168567	1.751158	-0.000207
 646	6.4177e+01	14.2953	253.473586	0.000405	4.053778	1.373457	-0.000162
 647	6.4277e+01	14.2536	253.267692	0.000517	5.168567	1.751158	-0.000207
 648	6.4376e+01	14.2231	253.102169	0.000416	4.155123	1.407794	-0.000166
 649	6.4476e+01	14.1734	252.972981	0.000324	3.243022	1.098766	-0.000130
 650	6.4576e+01	14.1349	252.742864	0.000578	5.776634	1.957176	-0.000231
 651	6.4675e+01	14.1044	252.597527	0.000365	3.648400	1.236111	-0.000146
 652	6.4775e+01	14.0547	252.379522	0.000547	5.472600	1.854167	-0.000219
 653	6.4874e+01	14.0146	252.226111	0.000385	3.851089	1.304784	-0.000154
 654	6.4974e+01	13.9777	252.060588	0.000416	4.155123	1.407794	-0.000166
 655	6.5073e+01	13.9344	251.919289	0.000355	3.547056	1.201775	-0.000142
 656	6.5172e+01	13.8943	251.705320	0.000537	5.371256	1.819831	-0.000215
 657	6.5272e+01	13.8542	251.547872	0.000395	3.952434	1.339121	-0.000158
 658	6.5371e+01	13.8140	251.366201	0.000456	4.560500	1.545139	-0.000183
 659	6.5471e+01	13.7723	251.200678	0.000416	4.155123	1.407794	-0.000166
 660	6.5570e+01	13.7322	251.002859	0.000497	4.965878	1.682485	-0.000199
 661	6.5670e+01	13.7001	250.801002	0.000507	5.067223	1.716821	-0.000203
 662	6.5769e+01	13.6600	250.623368	0.000446	4.459156	1.510803	-0.000179
 663	6.5869e+01	13.6183	250.478031	0.000365	3.648400	1.236111	-0.000146
 664	6.5969e+01	13.5734	250.276174	0.000507	5.067223	1.716821	-0.000203
 665	6.6068e+01	13.5397	250.106615	0.000426	4.256467	1.442130	-0.000170
 666	6.6168e+01	13.4980	249.888609	0.000547	5.472600	1.854167	-0.000219
 667	6.6267e+01	13.4611	249.743272	0.000365	3.648400	1.236111	-0.000146
 668	6.6367e+01	13.4210	249.565638	0.000446	4.459156	1.510803	-0.000179
 669	6.6466e+01	13.3777	249.347633	0.000547	5.472600	1.854167	-0.000219
 670	6.6566e+01	13.3360	249.165962	0.000456	4.560500	1.545139	-0.000183
 671	6.6665e+01	13.2959	248.992365	0.000436	4.357811	1.476466	-0.000174
 672	6.6764e+01	13.2622	248.814731	0.000446	4.459156	1.510803	-0.000179
 673	6.6864e+01	13.2189	248.608837	0.000517	5.168567	1.751158	-0.000207
 674	6.6963e+01	13.1804	248.447352	0.000405	4.053778	1.373457	-0.000162
 675	6.7063e+01	13.1419	248.269718	0.000446	4.459156	1.510803	-0.000179
 676	6.7162e+01	13.1034	248.075935	0.000486	4.864534	1.648149	-0.000195
 677	6.7262e+01	13.0569	247.866004	0.000527	5.269911	1.785494	-0.000211
 678	6.7362e+01	13.0183	247.716630	0.000375	3.749745	1.270448	-0.000150
 679	6.7461e+01	12.9798	247.534959	0.000456	4.560500	1.545139	-0.000183
 680	6.7561e+01	12.9349	247.365400	0.000426	4.256467	1.442130	-0.000170
 681	6.7660e+01	12.9077	247.167580	0.000497	4.965878	1.682485	-0.000199
 682	6.7760e+01	12.8724	246.998020	0.000426	4.256467	1.442130	-0.000170
 683	6.7859e+01	12.8194	246.796163	0.000507	5.067223	1.716821	-0.000203
 684	6.7959e+01	12.7857	246.622567	0.000436	4.357811	1.476466	-0.000174
 685	6.8058e+01	12.7504	246.436858	0.000466	4.661845	1.579476	-0.000187
 686	6.8157e+01	12.6943	246.259224	0.000446	4.459156	1.510803	-0.000179
 687	6.8257e+01	12.6574	246.008922	0.000628	6.283356	2.128859	-0.000252
 688	6.8356e+01	12.6141	245.863585	0.000365	3.648400	1.236111	-0.000146
 689	6.8456e+01	12.5772	245.661728	0.000507	5.067223	1.716821	-0.000203
 690	6.8555e+01	12.5467	245.480057	0.000456	4.560500	1.545139	-0.000183
 691	6.8655e+01	12.5034	245.314535	0.000416	4.155123	1.407794	-0.000166
 692	6.8754e+01	12.4633	245.140938	0.000436	4.357811	1.476466	-0.000174
 693	6.8854e+01	12.4328	244.922932	0.000547	5.472600	1.854167	-0.000219
 694	6.8954e+01	12.3879	244.765484	0.000395	3.952434	1.339121	-0.000158
 695	6.9053e+01	12.3349	244.563627	0.000507	5.067223	1.716821	-0.000203
 696	6.9153e+01	12.2980	244.361771	0.000507	5.067223	1.716821	-0.000203
 697	6.9252e+01	12.2660	244.180099	0.000456	4.560500	1.545139	-0.000183
 698	6.9352e+01	12.2259	243.949983	0.000578	5.776634	1.957176	-0.000231
 699	6.9451e+01	12.1922	243.756200	0.000486	4.864534	1.648149	-0.000195
 700	6.9550e+01	12.1456	243.598752	0.000395	3.952434	1.339121	-0.000158
 701	6.9650e+01	12.1087	243.372672	0.000568	5.675289	1.922840	-0.000227
 702	6.9749e+01	12.0654	243.191001	0.000456	4.560500	1.545139	-0.000183
 703	6.9849e+01	12.0221	242.997219	0.000486	4.864534	1.648149	-0.000195
 704	6.9948e+01	11.9916	242.779213	0.000547	5.472600	1.854167	-0.000219
 705	7.0048e+01	11.9515	242.601579	0.000446	4.459156	1.510803	-0.000179
 706	7.0147e+01	11.9018	242.403760	0.000497	4.965878	1.682485	-0.000199
 707	7.0247e+01	11.8697	242.214014	0.000476	4.763189	1.613812	-0.000191
 708	7.0347e+01	11.8152	242.028306	0.000466	4.661845	1.579476	-0.000187
 709	7.0446e+01	11.7975	241.826449	0.000507	5.067223	1.716821	-0.000203
 710	7.0546e+01	11.7526	241.612481	0.000537	5.371256	1.819831	-0.000215
 711	7.0645e+01	11.7125	241.418699	0.000486	4.864534	1.648149	-0.000195
 712	7.0745e+01	11.6676	241.188582	0.000578	5.776634	1.957176	-0.000231
 713	7.0844e+01	11.6323	240.994799	0.000486	4.864534	1.648149	-0.000195
 714	7.0944e+01	11.5858	240.788905	0.000517	5.168567	1.751158	-0.000207
 715	7.1043e+01	11.5425	240.607234	0.000456	4.560500	1.545139	-0.000183
 716	7.1142e+01	11.5088	240.405377	0.000507	5.067223	1.716821	-0.000203
 717	7.1242e+01	11.4671	240.219669	0.000466	4.661845	1.579476	-0.000187
 718	7.1341e+01	11.4237	240.025887	0.000486	4.864534	1.648149	-0.000195
 719	7.1441e+01	11.3868	239.791733	0.000588	5.877978	1.991513	-0.000235
 720	7.1540e+01	11.3516	239.606025	0.000466	4.661845	1.579476	-0.000187
 721	7.1640e+01	11.3050	239.408205	0.000497	4.965878	1.682485	-0.000199
 722	7.1740e+01	11.2681	239.165977	0.000608	6.080667	2.060186	-0.000243
 723	7.1839e+01	11.2296	238.976231	0.000476	4.763189	1.613812	-0.000191
 724	7.1939e+01	11.1687	238.834932	0.000355	3.547056	1.201775	-0.000142
 725	7.2038e+01	11.1462	238.580592	0.000638	6.384700	2.163195	-0.000256
 726	7.2138e+01	11.1061	238.402958	0.000446	4.459156	1.510803	-0.000179
 727	7.2237e+01	11.0724	238.180916	0.000557	5.573945	1.888504	-0.000223
 728	7.2337e+01	11.0243	237.983096	0.000497	4.965878	1.682485	-0.000199
 729	7.2436e+01	10.9922	237.761054	0.000557	5.573945	1.888504	-0.000223
 730	7.2535e+01	10.9377	237.571308	0.000476	4.763189	1.613812	-0.000191
 731	7.2635e+01	10.9152	237.361377	0.000527	5.269911	1.785494	-0.000211
 732	7.2734e+01	10.8703	237.195855	0.000416	4.155123	1.407794	-0.000166
 733	7.2834e+01	10.8382	236.957664	0.000598	5.979323	2.025849	-0.000239
 734	7.2933e+01	10.7949	236.788104	0.000426	4.256467	1.442130	-0.000170
 735	7.3033e+01	10.7452	236.566061	0.000557	5.573945	1.888504	-0.000223
 736	7.3132e+01	10.7147	236.331908	0.000588	5.877978	1.991513	-0.000235
 737	7.3232e+01	10.6810	236.130051	0.000507	5.067223	1.716821	-0.000203
 738	7.3332e+01	10.6152	235.944343	0.000466	4.661845	1.579476	-0.000187
 739	7.3431e+01	10.5911	235.774783	0.000426	4.256467	1.442130	-0.000170
 740	7.3531e+01	10.5462	235.528518	0.000618	6.182012	2.094522	-0.000248
 741	7.3630e+01	10.5141	235.306475	0.000557	5.573945	1.888504	-0.000223
 742	7.3730e+01	10.4788	235.104618	0.000507	5.067223	1.716821	-0.000203
 743	7.3829e+01	10.4468	234.906799	0.000497	4.965878	1.682485	-0.000199
 744	7.3928e+01	10.3938	234.696868	0.000527	5.269911	1.785494	-0.000211
 745	7.4028e+01	10.3505	234.490974	0.000517	5.168567	1.751158	-0.000207
 746	7.4127e+01	10.3104	234.297191	0.000486	4.864534	1.648149	-0.000195
 747	7.4227e+01	10.2751	234.054963	0.000608	6.080667	2.060186	-0.000243
 748	7.4326e+01	10.2366	233.853106	0.000507	5.067223	1.716821	-0.000203
 749	7.4426e+01	10.1917	233.675472	0.000446	4.459156	1.510803	-0.000179
 750	7.4525e+01	10.1596	233.449393	0.000568	5.675289	1.922840	-0.000227
 751	7.4625e+01	10.1051	233.227350	0.000557	5.573945	1.888504	-0.000223
 752	7.4725e+01	10.0730	233.037605	0.000476	4.763189	1.613812	-0.000191
 753	7.4824e+01	10.0361	232.819599	0.000547	5.472600	1.854167	-0.000219
 754	7.4924e+01	9.9944	232.593520	0.000568	5.675289	1.922840	-0.000227
 755	7.5023e+01	9.9511	232.387626	0.000517	5.168567	1.751158	-0.000207
 756	7.5123e+01	9.9142	232.189806	0.000497	4.965878	1.682485	-0.000199
 757	7.5222e+01	9.8708	231.951615	0.000598	5.979323	2.025849	-0.000239
 758	7.5322e+01	9.8227	231.729573	0.000557	5.573945	1.888504	-0.000223
 759	7.5421e+01	9.7922	231.523679	0.000517	5.168567	1.751158	-0.000207
 760	7.5520e+01	9.7537	231.317785	0.000517	5.168567	1.751158	-0.000207
 761	7.5620e+01	9.7217	231.124002	0.000486	4.864534	1.648149	-0.000195
 762	7.5719e+01	9.6751	230.897923	0.000568	5.675289	1.922840	-0.000227
 763	7.5819e+01	9.6382	230.687992	0.000527	5.269911	1.785494	-0.000211
 764	7.5918e+01	9.5933	230.453838	0.000588	5.877978	1.991513	-0.000235
 765	7.6018e+01	9.5516	230.251981	0.000507	5.067223	1.716821	-0.000203
 766	7.6118e+01	9.5099	230.017827	0.000588	5.877978	1.991513	-0.000235
 767	7.6217e+01	9.4714	229.820008	0.000497	4.965878	1.682485	-0.000199
 768	7.6317e+01	9.4329	229.610077	0.000527	5.269911	1.785494	-0.000211
 769	7.6416e+01	9.3976	229.371886	0.000598	5.979323	2.025849	-0.000239
 770	7.6516e+01	9.3575	229.153880	0.000547	5.472600	1.854167	-0.000219
 771	7.6615e+01	9.3062	228.988358	0.000416	4.155123	1.407794	-0.000166
 772	7.6715e+01	9.2789	228.705758	0.000709	7.094112	2.403550	-0.000284
 773	7.6814e+01	9.2340	228.499864	0.000517	5.168567	1.751158	-0.000207
 774	7.6913e+01	9.1987	228.310119	0.000476	4.763189	1.613812	-0.000191
 775	7.7013e+01	9.1538	228.080002	0.000578	5.776634	1.957176	-0.000231
 776	7.7112e+01	9.1136	227.861997	0.000547	5.472600	1.854167	-0.000219
 777	7.7212e+01	9.0767	227.648029	0.000537	5.371256	1.819831	-0.000215
 778	7.7311e+01	9.0350	227.438098	0.000527	5.269911	1.785494	-0.000211
 779	7.7411e+01	9.0014	227.183758	0.000638	6.384700	2.163195	-0.000256
 780	7.7510e+01	8.9532	226.973827	0.000527	5.269911	1.785494	-0.000211
 781	7.7610e+01	8.9115	226.755822	0.000547	5.472600	1.854167	-0.000219
 782	7.7710e+01	8.8746	226.517631	0.000598	5.979323	2.025849	-0.000239
 783	7.7809e+01	8.8361	226.315774	0.000507	5.067223	1.716821	-0.000203
 784	7.7909e+01	8.7928	226.134103	0.000456	4.560500	1.545139	-0.000183
 785	7.8008e+01	8.7511	225.895912	0.000598	5.979323	2.025849	-0.000239
 786	7.8108e+01	8.7158	225.653684	0.000608	6.080667	2.060186	-0.000243
 787	7.8207e+01	8.6805	225.443752	0.000527	5.269911	1.785494	-0.000211
 788	7.8306e+01	8.6388	225.245933	0.000497	4.965878	1.682485	-0.000199
 789	7.8406e+01	8.5923	225.015816	0.000578	5.776634	1.957176	-0.000231
 790	7.8505e+01	8.5586	224.745328	0.000679	6.790078	2.300541	-0.000272
 791	7.8605e+01	8.5217	224.543471	0.000507	5.067223	1.716821	-0.000203
 792	7.8704e+01	8.4864	224.357763	0.000466	4.661845	1.579476	-0.000187
 793	7.8804e+01	8.4367	224.115535	0.000608	6.080667	2.060186	-0.000243
 794	7.8903e+01	8.3966	223.917715	0.000497	4.965878	1.682485	-0.000199
 795	7.9003e+01	8.3564	223.691636	0.000568	5.675289	1.922840	-0.000227
 796	7.9103e+01	8.3196	223.457482	0.000588	5.877978	1.991513	-0.000235
 797	7.9202e+01	8.2778	223.263699	0.000486	4.864534	1.648149	-0.000195
 798	7.9302e+01	8.2458	222.997248	0.000669	6.688734	2.266204	-0.000268
 799	7.9401e+01	8.2057	222.763094	0.000588	5.877978	1.991513	-0.000235
 800	7.9501e+01	8.1591	222.557200	0.000517	5.168567	1.751158	-0.000207
 801	7.9600e+01	8.1222	222.351306	0.000517	5.168567	1.751158	-0.000207
 802	7.9700e+01	8.0837	222.109078	0.000608	6.080667	2.060186	-0.000243
 803	7.9799e+01	8.0388	221.903184	0.000517	5.168567	1.751158	-0.000207
 804	7.9898e+01	8.0067	221.640771	0.000659	6.587389	2.231868	-0.000264
 805	7.9998e+01	7.9682	221.442951	0.000497	4.965878	1.682485	-0.000199
 806	8.0097e+01	7.9233	221.196686	0.000618	6.182012	2.094522	-0.000248
 807	8.0197e+01	7.8736	221.010977	0.000466	4.661845	1.579476	-0.000187
 808	8.0296e+01	7.8399	220.724341	0.000720	7.195456	2.437887	-0.000288
 809	8.0396e+01	7.8078	220.538633	0.000466	4.661845	1.579476	-0.000187
 810	8.0496e+01	7.7565	220.316590	0.000557	5.573945	1.888504	-0.000223
 811	8.0595e+01	7.7196	220.070325	0.000618	6.182012	2.094522	-0.000248
 812	8.0695e+01	7.6875	219.791762	0.000699	6.992767	2.369214	-0.000280
 813	8.0794e+01	7.6442	219.581831	0.000527	5.269911	1.785494	-0.000211
 814	8.0894e+01	7.5944	219.384012	0.000497	4.965878	1.682485	-0.000199
 815	8.0993e+01	7.5624	219.166006	0.000547	5.472600	1.854167	-0.000219
 816	8.1093e+01	7.5206	218.915704	0.000628	6.283356	2.128859	-0.000252
 817	8.1192e+01	7.4805	218.685587	0.000578	5.776634	1.957176	-0.000231
 818	8.1291e+01	7.4436	218.463545	0.000557	5.573945	1.888504	-0.000223
 819	8.1391e+01	7.3971	218.233428	0.000578	5.776634	1.957176	-0.000231
 820	8.1490e+01	7.3682	217.979088	0.000638	6.384700	2.163195	-0.000256
 821	8.1590e+01	7.3233	217.797417	0.000456	4.560500	1.545139	-0.000183
 822	8.1689e+01	7.2880	217.514818	0.000709	7.094112	2.403550	-0.000284
 823	8.1789e+01	7.2527	217.288738	0.000568	5.675289	1.922840	-0.000227
 824	8.1888e+01	7.2078	217.042473	0.000618	6.182012	2.094522	-0.000248
 825	8.1988e+01	7.1597	216.812356	0.000578	5.776634	1.957176	-0.000231
 826	8.2088e+01	7.1260	216.610499	0.000507	5.067223	1.716821	-0.000203
 827	8.2187e+01	7.0827	216.368271	0.000608	6.080667	2.060186	-0.000243
 828	8.2287e+01	7.0426	216.117969	0.000628	6.283356	2.128859	-0.000252
 829	8.2386e+01	7.0009	215.883815	0.000588	5.877978	1.991513	-0.000235
 830	8.2486e+01	6.9672	215.665810	0.000547	5.472600	1.854167	-0.000219
 831	8.2585e+01	6.9207	215.443767	0.000557	5.573945	1.888504	-0.000223
 832	8.2684e+01	6.8838	215.169242	0.000689	6.891423	2.334877	-0.000276
 833	8.2784e+01	6.8372	214.918940	0.000628	6.283356	2.128859	-0.000252
 834	8.2883e+01	6.8036	214.676711	0.000608	6.080667	2.060186	-0.000243
 835	8.2983e+01	6.7634	214.450632	0.000568	5.675289	1.922840	-0.000227
 836	8.3082e+01	6.7169	214.208404	0.000608	6.080667	2.060186	-0.000243
 837	8.3182e+01	6.6880	214.002510	0.000517	5.168567	1.751158	-0.000207
 838	8.3281e+01	6.6495	213.760282	0.000608	6.080667	2.060186	-0.000243
 839	8.3381e+01	6.6014	213.509979	0.000628	6.283356	2.128859	-0.000252
 840	8.3481e+01	6.5661	213.251603	0.000649	6.486045	2.197532	-0.000260
 841	8.3580e+01	6.5180	213.037634	0.000537	5.371256	1.819831	-0.000215
 842	8.3680e+01	6.4939	212.827703	0.000527	5.269911	1.785494	-0.000211
 843	8.3779e+01	6.4442	212.541067	0.000720	7.195456	2.437887	-0.000288
 844	8.3879e+01	6.4041	212.359396	0.000456	4.560500	1.545139	-0.000183
 845	8.3978e+01	6.3624	212.068722	0.000730	7.296801	2.472223	-0.000292
 846	8.4078e+01	6.3239	211.846679	0.000557	5.573945	1.888504	-0.000223
 847	8.4177e+01	6.2934	211.620600	0.000568	5.675289	1.922840	-0.000227
 848	8.4276e+01	6.2405	211.378372	0.000608	6.080667	2.060186	-0.000243
 849	8.4376e+01	6.2084	211.132106	0.000618	6.182012	2.094522	-0.000248
 850	8.4475e+01	6.1715	210.897952	0.000588	5.877978	1.991513	-0.000235
 851	8.4575e+01	6.1201	210.651687	0.000618	6.182012	2.094522	-0.000248
 852	8.4674e+01	6.0945	210.409459	0.000608	6.080667	2.060186	-0.000243
 853	8.4774e+01	6.0512	210.167231	0.000608	6.080667	2.060186	-0.000243
 854	8.4874e+01	6.0127	209.888668	0.000699	6.992767	2.369214	-0.000280
 855	8.4973e+01	5.9629	209.634329	0.000638	6.384700	2.163195	-0.000256
 856	8.5073e+01	5.9292	209.440546	0.000486	4.864534	1.648149	-0.000195
 857	8.5172e+01	5.8875	209.170058	0.000679	6.790078	2.300541	-0.000272
 858	8.5272e+01	5.8490	208.927830	0.000608	6.080667	2.060186	-0.000243
 859	8.5371e+01	5.8041	208.681565	0.000618	6.182012	2.094522	-0.000248
 860	8.5471e+01	5.7688	208.431262	0.000628	6.283356	2.128859	-0.000252
 861	8.5570e+01	5.7255	208.184997	0.000618	6.182012	2.094522	-0.000248
 862	8.5669e+01	5.6934	207.958918	0.000568	5.675289	1.922840	-0.000227
 863	8.5769e+01	5.6565	207.688429	0.000679	6.790078	2.300541	-0.000272
 864	8.5868e+01	5.6148	207.434090	0.000638	6.384700	2.163195	-0.000256
 865	8.5968e+01	5.5699	207.203973	0.000578	5.776634	1.957176	-0.000231
 866	8.6067e+01	5.5282	206.945596	0.000649	6.486045	2.197532	-0.000260
 867	8.6167e+01	5.4929	206.731628	0.000537	5.371256	1.819831	-0.000215
 868	8.6266e+01	5.4560	206.436917	0.000740	7.398145	2.506559	-0.000296
 869	8.6366e+01	5.4015	206.239098	0.000497	4.965878	1.682485	-0.000199
 870	8.6466e+01	5.3662	205.916127	0.000811	8.107556	2.746914	-0.000325
 871	8.6565e+01	5.3325	205.694084	0.000557	5.573945	1.888504	-0.000223
 872	8.6665e+01	5.2924	205.411485	0.000709	7.094112	2.403550	-0.000284
 873	8.6764e+01	5.2555	205.181368	0.000578	5.776634	1.957176	-0.000231
 874	8.6864e+01	5.2170	204.931066	0.000628	6.283356	2.128859	-0.000252
 875	8.6963e+01	5.1688	204.692875	0.000598	5.979323	2.025849	-0.000239
 876	8.7063e+01	5.1319	204.382015	0.000780	7.803523	2.643905	-0.000312
 877	8.7162e+01	5.0966	204.111527	0.000679	6.790078	2.300541	-0.000272
 878	8.7261e+01	5.0485	203.925819	0.000466	4.661845	1.579476	-0.000187
 879	8.7361e+01	5.0116	203.651294	0.000689	6.891423	2.334877	-0.000276
 880	8.7460e+01	4.9667	203.360620	0.000730	7.296801	2.472223	-0.000292
 881	8.7560e+01	4.9202	203.138577	0.000557	5.573945	1.888504	-0.000223
 882	8.7659e+01	4.9090	202.892312	0.000618	6.182012	2.094522	-0.000248
 883	8.7759e+01	4.8448	202.642010	0.000628	6.283356	2.128859	-0.000252
 884	8.7859e+01	4.8127	202.319039	0.000811	8.107556	2.746914	-0.000325
 885	8.7958e+01	4.7694	202.068737	0.000628	6.283356	2.128859	-0.000252
 886	8.8058e+01	4.7277	201.842657	0.000568	5.675289	1.922840	-0.000227
 887	8.8157e+01	4.6908	201.580243	0.000659	6.587389	2.231868	-0.000264
 888	8.8257e+01	4.6571	201.346089	0.000588	5.877978	1.991513	-0.000235
 889	8.8356e+01	4.6122	201.043304	0.000760	7.600834	2.575232	-0.000304
 890	8.8456e+01	4.5721	200.788964	0.000638	6.384700	2.163195	-0.000256
 891	8.8555e+01	4.5368	200.579033	0.000527	5.269911	1.785494	-0.000211
 892	8.8654e+01	4.4983	200.280285	0.000750	7.499489	2.540896	-0.000300
 893	8.8754e+01	4.4534	200.050169	0.000578	5.776634	1.957176	-0.000231
 894	8.8853e+01	4.4261	199.771606	0.000699	6.992767	2.369214	-0.000280
 895	8.8953e+01	4.3731	199.505155	0.000669	6.688734	2.266204	-0.000268
 896	8.9052e+01	4.3394	199.266964	0.000598	5.979323	2.025849	-0.000239
 897	8.9152e+01	4.2961	198.931882	0.000841	8.411589	2.849924	-0.000337
 898	8.9251e+01	4.2576	198.725988	0.000517	5.168567	1.751158	-0.000207
 899	8.9351e+01	4.2031	198.467611	0.000649	6.486045	2.197532	-0.000260
 900	8.9451e+01	4.1758	198.176938	0.000730	7.296801	2.472223	-0.000292
 901	8.9550e+01	4.1389	197.942784	0.000588	5.877978	1.991513	-0.000235
 902	8.9650e+01	4.0956	197.627887	0.000790	7.904867	2.678242	-0.000316
 903	8.9749e+01	4.0507	197.409882	0.000547	5.472600	1.854167	-0.000219
 904	8.9849e+01	4.0202	197.159579	0.000628	6.283356	2.128859	-0.000252
 905	8.9948e+01	3.9737	196.881017	0.000699	6.992767	2.369214	-0.000280
 906	9.0047e+01	3.9336	196.622640	0.000649	6.486045	2.197532	-0.000260
 907	9.0147e+01	3.9047	196.364264	0.000649	6.486045	2.197532	-0.000260
 908	9.0246e+01	3.8502	196.109924	0.000638	6.384700	2.163195	-0.000256
 909	9.0346e+01	3.8149	195.815213	0.000740	7.398145	2.506559	-0.000296
 910	9.0445e+01	3.7732	195.577022	0.000598	5.979323	2.025849	-0.000239
 911	9.0545e+01	3.7347	195.294423	0.000709	7.094112	2.403550	-0.000284
 912	9.0644e+01	3.6945	195.040083	0.000638	6.384700	2.163195	-0.000256
 913	9.0744e+01	3.6641	194.721149	0.000801	8.006212	2.712578	-0.000321
 914	9.0844e+01	3.6288	194.478921	0.000608	6.080667	2.060186	-0.000243
 915	9.0943e+01	3.5839	194.248805	0.000578	5.776634	1.957176	-0.000231
 916	9.1043e+01	3.5373	193.982354	0.000669	6.688734	2.266204	-0.000268
 917	9.1142e+01	3.5036	193.719940	0.000659	6.587389	2.231868	-0.000264
 918	9.1242e+01	3.4587	193.425229	0.000740	7.398145	2.506559	-0.000296
 919	9.1341e+01	3.4186	193.187038	0.000598	5.979323	2.025849	-0.000239
 920	9.1441e+01	3.3785	192.892327	0.000740	7.398145	2.506559	-0.000296
 921	9.1540e+01	3.3304	192.650099	0.000608	6.080667	2.060186	-0.000243
 922	9.1639e+01	3.2999	192.371536	0.000699	6.992767	2.369214	-0.000280
 923	9.1739e+01	3.2566	192.113160	0.000649	6.486045	2.197532	-0.000260
 924	9.1838e+01	3.2165	191.834597	0.000699	6.992767	2.369214	-0.000280
 925	9.1938e+01	3.1860	191.543924	0.000730	7.296801	2.472223	-0.000292
 926	9.2037e+01	3.1379	191.285547	0.000649	6.486045	2.197532	-0.000260
 927	9.2137e+01	3.1026	191.019096	0.000669	6.688734	2.266204	-0.000268
 928	9.2237e+01	3.0721	190.772831	0.000618	6.182012	2.094522	-0.000248
 929	9.2336e+01	3.0160	190.445823	0.000821	8.208901	2.781251	-0.000329
 930	9.2436e+01	2.9807	190.203595	0.000608	6.080667	2.060186	-0.000243
 931	9.2535e+01	2.9406	189.941181	0.000659	6.587389	2.231868	-0.000264
 932	9.2635e+01	2.9053	189.650507	0.000730	7.296801	2.472223	-0.000292
 933	9.2734e+01	2.8587	189.400205	0.000628	6.283356	2.128859	-0.000252
 934	9.2834e+01	2.8154	189.097419	0.000760	7.600834	2.575232	-0.000304
 935	9.2933e+01	2.7898	188.847117	0.000628	6.283356	2.128859	-0.000252
 936	9.3032e+01	2.7416	188.564517	0.000709	7.094112	2.403550	-0.000284
 937	9.3132e+01	2.6983	188.253658	0.000780	7.803523	2.643905	-0.000312
 938	9.3231e+01	2.6630	187.962984	0.000730	7.296801	2.472223	-0.000292
 939	9.3331e+01	2.6197	187.773239	0.000476	4.763189	1.613812	-0.000191
 940	9.3430e+01	2.5844	187.478528	0.000740	7.398145	2.506559	-0.000296
 941	9.3530e+01	2.5475	187.187854	0.000730	7.296801	2.472223	-0.000292
 942	9.3629e+01	2.5026	186.889106	0.000750	7.499489	2.540896	-0.000300
 943	9.3729e+01	2.4657	186.638804	0.000628	6.283356	2.128859	-0.000252
 944	9.3829e+01	2.4240	186.340056	0.000750	7.499489	2.540896	-0.000300
 945	9.3928e+01	2.3855	186.101865	0.000598	5.979323	2.025849	-0.000239
 946	9.4028e+01	2.3486	185.795042	0.000770	7.702178	2.609569	-0.000308
 947	9.4127e+01	2.2924	185.520517	0.000689	6.891423	2.334877	-0.000276
 948	9.4227e+01	2.2620	185.282326	0.000598	5.979323	2.025849	-0.000239
 949	9.4326e+01	2.2203	185.003764	0.000699	6.992767	2.369214	-0.000280
 950	9.4425e+01	2.1882	184.717127	0.000720	7.195456	2.437887	-0.000288
 951	9.4525e+01	2.1336	184.418379	0.000750	7.499489	2.540896	-0.000300
 952	9.4624e+01	2.1080	184.180188	0.000598	5.979323	2.025849	-0.000239
 953	9.4724e+01	2.0614	183.889514	0.000730	7.296801	2.472223	-0.000292
 954	9.4823e+01	2.0278	183.619026	0.000679	6.790078	2.300541	-0.000272
 955	9.4923e+01	1.9860	183.344501	0.000689	6.891423	2.334877	-0.000276
 956	9.5022e+01	1.9427	183.069976	0.000689	6.891423	2.334877	-0.000276
 957	9.5122e+01	1.9026	182.791413	0.000699	6.992767	2.369214	-0.000280
 958	9.5222e+01	1.8641	182.472480	0.000801	8.006212	2.712578	-0.000321
 959	9.5321e+01	1.8224	182.210066	0.000659	6.587389	2.231868	-0.000264
 960	9.5421e+01	1.7855	181.943615	0.000669	6.688734	2.266204	-0.000268
 961	9.5520e+01	1.7390	181.689275	0.000638	6.384700	2.163195	-0.000256
 962	9.5620e+01	1.6957	181.418787	0.000679	6.790078	2.300541	-0.000272
 963	9.5719e+01	1.6684	181.111965	0.000770	7.702178	2.609569	-0.000308
 964	9.5819e+01	1.6299	180.829365	0.000709	7.094112	2.403550	-0.000284
 965	9.5918e+01	1.5770	180.570989	0.000649	6.486045	2.197532	-0.000260
 966	9.6017e+01	1.5449	180.308575	0.000659	6.587389	2.231868	-0.000264
 967	9.6117e+01	1.5080	180.009827	0.000750	7.499489	2.540896	-0.000300
 968	9.6216e+01	1.4647	179.723190	0.000720	7.195456	2.437887	-0.000288
 969	9.6316e+01	1.4374	179.460776	0.000659	6.587389	2.231868	-0.000264
 970	9.6415e+01	1.3893	179.186251	0.000689	6.891423	2.334877	-0.000276
 971	9.6515e+01	1.3476	178.895577	0.000730	7.296801	2.472223	-0.000292
 972	9.6615e+01	1.3042	178.621052	0.000689	6.891423	2.334877	-0.000276
 973	9.6714e+01	1.2689	178.346527	0.000689	6.891423	2.334877	-0.000276
 974	9.6814e+01	1.2272	178.027593	0.000801	8.006212	2.712578	-0.000321
 975	9.6913e+01	1.1871	177.744994	0.000709	7.094112	2.403550	-0.000284
 976	9.7013e+01	1.1470	177.466431	0.000699	6.992767	2.369214	-0.000280
 977	9.7112e+01	1.1053	177.204018	0.000659	6.587389	2.231868	-0.000264
 978	9.7212e+01	1.0700	176.885084	0.000801	8.006212	2.712578	-0.000321
 979	9.7311e+01	1.0299	176.626707	0.000649	6.486045	2.197532	-0.000260
 980	9.7410e+01	0.9946	176.368330	0.000649	6.486045	2.197532	-0.000260
 981	9.7510e+01	0.9497	176.093805	0.000689	6.891423	2.334877	-0.000276
 982	9.7609e+01	0.9016	175.803131	0.000730	7.296801	2.472223	-0.000292
 983	9.7709e+01	0.8599	175.459975	0.000861	8.614278	2.918597	-0.000345
 984	9.7808e+01	0.8246	175.237932	0.000557	5.573945	1.888504	-0.000223
 985	9.7908e+01	0.7909	174.931110	0.000770	7.702178	2.609569	-0.000308
 986	9.8007e+01	0.7508	174.640436	0.000730	7.296801	2.472223	-0.000292
 987	9.8107e+01	0.7043	174.361874	0.000699	6.992767	2.369214	-0.000280
 988	9.8207e+01	0.6738	174.115609	0.000618	6.182012	2.094522	-0.000248
 989	9.8306e+01	0.6224	173.812823	0.000760	7.600834	2.575232	-0.000304
 990	9.8406e+01	0.5823	173.449481	0.000912	9.121001	3.090279	-0.000365
 991	9.8505e+01	0.5519	173.183030	0.000669	6.688734	2.266204	-0.000268
 992	9.8605e+01	0.5118	172.912542	0.000679	6.790078	2.300541	-0.000272
 993	9.8704e+01	0.4732	172.650128	0.000659	6.587389	2.231868	-0.000264
 994	9.8803e+01	0.4235	172.359455	0.000730	7.296801	2.472223	-0.000292
 995	9.8903e+01	0.3914	172.093004	0.000669	6.688734	2.266204	-0.000268
 996	9.9002e+01	0.3577	171.741773	0.000882	8.816967	2.987269	-0.000353
 997	9.9102e+01	0.3016	171.475322	0.000669	6.688734	2.266204	-0.000268
 998	9.9201e+01	0.2679	171.204834	0.000679	6.790078	2.300541	-0.000272
 999	9.9301e+01	0.2326	170.930309	0.000689	6.891423	2.334877	-0.000276
1000	9.9400e+01	0.1893	170.627523	0.000760	7.600834	2.575232	-0.000304
1001	9.9500e+01	0.1540	170.336850	0.000730	7.296801	2.472223	-0.000292
1002	9.9600e+01	0.1091	170.025990	0.000780	7.803523	2.643905	-0.000312
1003	9.9699e+01	0.0658	169.783762	0.000608	6.080667	2.060186	-0.000243
1004	9.9799e+01	0.0321	169.472903	0.000780	7.803523	2.643905	-0.000312
1005	9.9898e+01	0.0016	169.198377	0.000689	6.891423	2.334877	-0.000276
1006	9.9998e+01	-0.0433	168.964223	0.000588	5.877978	1.991513	-0.000235
1007	1.0010e+02	-0.0786	168.661438	0.000760	7.600834	2.575232	-0.000304
1008	1.0020e+02	-0.1251	168.362690	0.000750	7.499489	2.540896	-0.000300
1009	1.0030e+02	-0.1636	168.084128	0.000699	6.992767	2.369214	-0.000280
1010	1.0040e+02	-0.1989	167.777306	0.000770	7.702178	2.609569	-0.000308
1011	1.0050e+02	-0.2519	167.502780	0.000689	6.891423	2.334877	-0.000276
1012	1.0059e+02	-0.2743	167.208069	0.000740	7.398145	2.506559	-0.000296
1013	1.0069e+02	-0.3225	166.925470	0.000709	7.094112	2.403550	-0.000284
1014	1.0079e+02	-0.3593	166.654982	0.000679	6.790078	2.300541	-0.000272
1015	1.0089e+02	-0.4059	166.323937	0.000831	8.310245	2.815587	-0.000333
1016	1.0099e+02	-0.4347	166.033263	0.000730	7.296801	2.472223	-0.000292
1017	1.0109e+02	-0.4797	165.778923	0.000638	6.384700	2.163195	-0.000256
1018	1.0119e+02	-0.5214	165.447878	0.000831	8.310245	2.815587	-0.000333
1019	1.0129e+02	-0.5567	165.173353	0.000689	6.891423	2.334877	-0.000276
1020	1.0139e+02	-0.5968	164.890754	0.000709	7.094112	2.403550	-0.000284
1021	1.0149e+02	-0.6289	164.600080	0.000730	7.296801	2.472223	-0.000292
1022	1.0159e+02	-0.6818	164.309406	0.000730	7.296801	2.472223	-0.000292
1023	1.0169e+02	-0.7171	164.014695	0.000740	7.398145	2.506559	-0.000296
1024	1.0179e+02	-0.7508	163.744207	0.000679	6.790078	2.300541	-0.000272
1025	1.0189e+02	-0.7957	163.457570	0.000720	7.195456	2.437887	-0.000288
1026	1.0199e+02	-0.8358	163.134599	0.000811	8.107556	2.746914	-0.000325
1027	1.0209e+02	-0.8759	162.856037	0.000699	6.992767	2.369214	-0.000280
1028	1.0219e+02	-0.9192	162.529029	0.000821	8.208901	2.781251	-0.000329
1029	1.0229e+02	-0.9674	162.246430	0.000709	7.094112	2.403550	-0.000284
1030	1.0239e+02	-0.9978	161.951719	0.000740	7.398145	2.506559	-0.000296
1031	1.0248e+02	-1.0411	161.665082	0.000720	7.195456	2.437887	-0.000288
1032	1.0258e+02	-1.0732	161.354223	0.000780	7.803523	2.643905	-0.000312
1033	1.0268e+02	-1.1182	161.067586	0.000720	7.195456	2.437887	-0.000288
1034	1.0278e+02	-1.1518	160.744615	0.000811	8.107556	2.746914	-0.000325
1035	1.0288e+02	-1.2016	160.462016	0.000709	7.094112	2.403550	-0.000284
1036	1.0298e+02	-1.2385	160.163268	0.000750	7.499489	2.540896	-0.000300
1037	1.0308e+02	-1.2770	159.912965	0.000628	6.283356	2.128859	-0.000252
1038	1.0318e+02	-1.3219	159.614217	0.000750	7.499489	2.540896	-0.000300
1039	1.0328e+02	-1.3556	159.279135	0.000841	8.411589	2.849924	-0.000337
1040	1.0338e+02	-1.3925	158.964238	0.000790	7.904867	2.678242	-0.000316
1041	1.0348e+02	-1.4294	158.693750	0.000679	6.790078	2.300541	-0.000272
1042	1.0358e+02	-1.4807	158.374816	0.000801	8.006212	2.712578	-0.000321
1043	1.0368e+02	-1.5272	158.067994	0.000770	7.702178	2.609569	-0.000308
1044	1.0378e+02	-1.5561	157.777320	0.000730	7.296801	2.472223	-0.000292
1045	1.0388e+02	-1.5914	157.514907	0.000659	6.587389	2.231868	-0.000264
1046	1.0398e+02	-1.6347	157.244418	0.000679	6.790078	2.300541	-0.000272
1047	1.0408e+02	-1.6716	156.893188	0.000882	8.816967	2.987269	-0.000353
1048	1.0418e+02	-1.7246	156.590402	0.000760	7.600834	2.575232	-0.000304
1049	1.0428e+02	-1.7566	156.283580	0.000770	7.702178	2.609569	-0.000308
1050	1.0438e+02	-1.7903	155.960609	0.000811	8.107556	2.746914	-0.000325
1051	1.0447e+02	-1.8417	155.678010	0.000709	7.094112	2.403550	-0.000284
1052	1.0457e+02	-1.8786	155.431744	0.000618	6.182012	2.094522	-0.000248
1053	1.0467e+02	-1.9203	155.100699	0.000831	8.310245	2.815587	-0.000333
1054	1.0477e+02	-1.9524	154.810026	0.000730	7.296801	2.472223	-0.000292
1055	1.0487e+02	-1.9941	154.483018	0.000821	8.208901	2.781251	-0.000329
1056	1.0497e+02	-2.0358	154.164084	0.000801	8.006212	2.712578	-0.000321
1057	1.0507e+02	-2.0598	153.889559	0.000689	6.891423	2.334877	-0.000276
1058	1.0517e+02	-2.1128	153.631182	0.000649	6.486045	2.197532	-0.000260
1059	1.0527e+02	-2.1545	153.304174	0.000821	8.208901	2.781251	-0.000329
1060	1.0537e+02	-2.1962	152.985240	0.000801	8.006212	2.712578	-0.000321
1061	1.0547e+02	-2.2299	152.686492	0.000750	7.499489	2.540896	-0.000300
1062	1.0557e+02	-2.2748	152.416004	0.000679	6.790078	2.300541	-0.000272
1063	1.0567e+02	-2.3213	152.109182	0.000770	7.702178	2.609569	-0.000308
1064	1.0577e+02	-2.3550	151.786211	0.000811	8.107556	2.746914	-0.000325
1065	1.0587e+02	-2.3935	151.519760	0.000669	6.688734	2.266204	-0.000268
1066	1.0597e+02	-2.4336	151.204863	0.000790	7.904867	2.678242	-0.000316
1067	1.0607e+02	-2.4801	150.942450	0.000659	6.587389	2.231868	-0.000264
1068	1.0617e+02	-2.5090	150.635627	0.000770	7.702178	2.609569	-0.000308
1069	1.0627e+02	-2.5523	150.344953	0.000730	7.296801	2.472223	-0.000292
1070	1.0637e+02	-2.5940	150.034094	0.000780	7.803523	2.643905	-0.000312
1071	1.0647e+02	-2.6181	149.763606	0.000679	6.790078	2.300541	-0.000272
1072	1.0656e+02	-2.6759	149.440635	0.000811	8.107556	2.746914	-0.000325
1073	1.0666e+02	-2.7176	149.158036	0.000709	7.094112	2.403550	-0.000284
1074	1.0676e+02	-2.7481	148.810842	0.000872	8.715623	2.952933	-0.000349
1075	1.0686e+02	-2.7866	148.536317	0.000689	6.891423	2.334877	-0.000276
1076	1.0696e+02	-2.8283	148.249680	0.000720	7.195456	2.437887	-0.000288
1077	1.0706e+02	-2.8668	147.954969	0.000740	7.398145	2.506559	-0.000296
1078	1.0716e+02	-2.9101	147.672370	0.000709	7.094112	2.403550	-0.000284
1079	1.0726e+02	-2.9534	147.357473	0.000790	7.904867	2.678242	-0.000316
1080	1.0736e+02	-2.9919	147.070836	0.000720	7.195456	2.437887	-0.000288
1081	1.0746e+02	-3.0272	146.768051	0.000760	7.600834	2.575232	-0.000304
1082	1.0756e+02	-3.0769	146.477377	0.000730	7.296801	2.472223	-0.000292
1083	1.0766e+02	-3.1122	146.194778	0.000709	7.094112	2.403550	-0.000284
1084	1.0776e+02	-3.1523	145.879881	0.000790	7.904867	2.678242	-0.000316
1085	1.0786e+02	-3.1940	145.597282	0.000709	7.094112	2.403550	-0.000284
1086	1.0796e+02	-3.2277	145.322757	0.000689	6.891423	2.334877	-0.000276
1087	1.0806e+02	-3.2791	144.975563	0.000872	8.715623	2.952933	-0.000349
1088	1.0816e+02	-3.3111	144.672778	0.000760	7.600834	2.575232	-0.000304
1089	1.0826e+02	-3.3528	144.406327	0.000669	6.688734	2.266204	-0.000268
1090	1.0836e+02	-3.3801	144.107579	0.000750	7.499489	2.540896	-0.000300
1091	1.0845e+02	-3.4250	143.833054	0.000689	6.891423	2.334877	-0.000276
1092	1.0855e+02	-3.4635	143.522194	0.000780	7.803523	2.643905	-0.000312
1093	1.0865e+02	-3.5117	143.239595	0.000709	7.094112	2.403550	-0.000284
1094	1.0875e+02	-3.5470	142.948921	0.000730	7.296801	2.472223	-0.000292
1095	1.0885e+02	-3.5839	142.654210	0.000740	7.398145	2.506559	-0.000296
1096	1.0895e+02	-3.6256	142.347388	0.000770	7.702178	2.609569	-0.000308
1097	1.0905e+02	-3.6689	142.084974	0.000659	6.587389	2.231868	-0.000264
1098	1.0915e+02	-3.6978	141.753929	0.000831	8.310245	2.815587	-0.000333
1099	1.0925e+02	-3.7443	141.467292	0.000720	7.195456	2.437887	-0.000288
1100	1.0935e+02	-3.7828	141.212952	0.000638	6.384700	2.163195	-0.000256
1101	1.0945e+02	-3.8325	140.906130	0.000770	7.702178	2.609569	-0.000308
1102	1.0955e+02	-3.8646	140.603345	0.000760	7.600834	2.575232	-0.000304
1103	1.0965e+02	-3.9095	140.288448	0.000790	7.904867	2.678242	-0.000316
1104	1.0975e+02	-3.9528	140.017960	0.000679	6.790078	2.300541	-0.000272
1105	1.0985e+02	-3.9897	139.707101	0.000780	7.803523	2.643905	-0.000312
1106	1.0995e+02	-4.0362	139.428538	0.000699	6.992767	2.369214	-0.000280
1107	1.1005e+02	-4.0715	139.145939	0.000709	7.094112	2.403550	-0.000284
1108	1.1015e+02	-4.1165	138.887562	0.000649	6.486045	2.197532	-0.000260
1109	1.1025e+02	-4.1518	138.564591	0.000811	8.107556	2.746914	-0.000325
1110	1.1035e+02	-4.1951	138.269880	0.000740	7.398145	2.506559	-0.000296
1111	1.1044e+02	-4.2304	138.003430	0.000669	6.688734	2.266204	-0.000268
1112	1.1054e+02	-4.2657	137.688533	0.000790	7.904867	2.678242	-0.000316
1113	1.1064e+02	-4.2993	137.434193	0.000638	6.384700	2.163195	-0.000256
1114	1.1074e+02	-4.3411	137.127371	0.000770	7.702178	2.609569	-0.000308
1115	1.1084e+02	-4.3860	136.877069	0.000628	6.283356	2.128859	-0.000252
1116	1.1094e+02	-4.4325	136.562172	0.000790	7.904867	2.678242	-0.000316
1117	1.1104e+02	-4.4598	136.263424	0.000750	7.499489	2.540896	-0.000300
1118	1.1114e+02	-4.5079	135.964676	0.000750	7.499489	2.540896	-0.000300
1119	1.1124e+02	-4.5496	135.746671	0.000547	5.472600	1.854167	-0.000219
1120	1.1134e+02	-4.5785	135.427737	0.000801	8.006212	2.712578	-0.000321
1121	1.1144e+02	-4.6298	135.173397	0.000638	6.384700	2.163195	-0.000256
1122	1.1154e+02	-4.6603	134.874649	0.000750	7.499489	2.540896	-0.000300
1123	1.1164e+02	-4.6956	134.539567	0.000841	8.411589	2.849924	-0.000337
1124	1.1174e+02	-4.7485	134.349822	0.000476	4.763189	1.613812	-0.000191
1125	1.1184e+02	-4.7870	134.059148	0.000730	7.296801	2.472223	-0.000292
1126	1.1194e+02	-4.8255	133.748288	0.000780	7.803523	2.643905	-0.000312
1127	1.1204e+02	-4.8656	133.445503	0.000760	7.600834	2.575232	-0.000304
1128	1.1214e+02	-4.9106	133.187127	0.000649	6.486045	2.197532	-0.000260
1129	1.1224e+02	-4.9378	132.932787	0.000638	6.384700	2.163195	-0.000256
1130	1.1234e+02	-4.9747	132.650188	0.000709	7.094112	2.403550	-0.000284
1131	1.1244e+02	-5.0261	132.359514	0.000730	7.296801	2.472223	-0.000292
1132	1.1253e+02	-5.0646	132.076914	0.000709	7.094112	2.403550	-0.000284
1133	1.1263e+02	-5.0983	131.810463	0.000669	6.688734	2.266204	-0.000268
1134	1.1273e+02	-5.1384	131.539975	0.000679	6.790078	2.300541	-0.000272
1135	1.1283e+02	-5.1865	131.261413	0.000699	6.992767	2.369214	-0.000280
1136	1.1293e+02	-5.2186	130.974776	0.000720	7.195456	2.437887	-0.000288
1137	1.1303e+02	-5.2523	130.704288	0.000679	6.790078	2.300541	-0.000272
1138	1.1313e+02	-5.3020	130.429763	0.000689	6.891423	2.334877	-0.000276
1139	1.1323e+02	-5.3437	130.131015	0.000750	7.499489	2.540896	-0.000300
1140	1.1333e+02	-5.3950	129.876675	0.000638	6.384700	2.163195	-0.000256
1141	1.1343e+02	-5.4159	129.569853	0.000770	7.702178	2.609569	-0.000308
1142	1.1353e+02	-5.4608	129.339736	0.000578	5.776634	1.957176	-0.000231
1143	1.1363e+02	-5.4961	129.045025	0.000740	7.398145	2.506559	-0.000296
1144	1.1373e+02	-5.5474	128.806834	0.000598	5.979323	2.025849	-0.000239
1145	1.1383e+02	-5.5763	128.491938	0.000790	7.904867	2.678242	-0.000316
1146	1.1393e+02	-5.6148	128.253747	0.000598	5.979323	2.025849	-0.000239
1147	1.1403e+02	-5.6613	127.942887	0.000780	7.803523	2.643905	-0.000312
1148	1.1413e+02	-5.7047	127.700659	0.000608	6.080667	2.060186	-0.000243
1149	1.1423e+02	-5.7399	127.426134	0.000689	6.891423	2.334877	-0.000276
1150	1.1433e+02	-5.7720	127.135460	0.000730	7.296801	2.472223	-0.000292
1151	1.1442e+02	-5.8218	126.869009	0.000669	6.688734	2.266204	-0.000268
1152	1.1452e+02	-5.8522	126.618707	0.000628	6.283356	2.128859	-0.000252
1153	1.1462e+02	-5.9068	126.340144	0.000699	6.992767	2.369214	-0.000280
1154	1.1472e+02	-5.9389	126.061582	0.000699	6.992767	2.369214	-0.000280
1155	1.1482e+02	-5.9822	125.799168	0.000659	6.587389	2.231868	-0.000264
1156	1.1492e+02	-6.0191	125.520606	0.000699	6.992767	2.369214	-0.000280
1157	1.1502e+02	-6.0560	125.246081	0.000689	6.891423	2.334877	-0.000276
1158	1.1512e+02	-6.1105	124.975592	0.000679	6.790078	2.300541	-0.000272
1159	1.1522e+02	-6.1362	124.701067	0.000689	6.891423	2.334877	-0.000276
1160	1.1532e+02	-6.1731	124.438653	0.000659	6.587389	2.231868	-0.000264
1161	1.1542e+02	-6.2228	124.188351	0.000628	6.283356	2.128859	-0.000252
1162	1.1552e+02	-6.2501	123.893640	0.000740	7.398145	2.506559	-0.000296
1163	1.1562e+02	-6.2998	123.647375	0.000618	6.182012	2.094522	-0.000248
1164	1.1572e+02	-6.3287	123.364775	0.000709	7.094112	2.403550	-0.000284
1165	1.1582e+02	-6.3848	123.090250	0.000689	6.891423	2.334877	-0.000276
1166	1.1592e+02	-6.4185	122.831873	0.000649	6.486045	2.197532	-0.000260
1167	1.1602e+02	-6.4602	122.605794	0.000568	5.675289	1.922840	-0.000227
1168	1.1612e+02	-6.4971	122.331269	0.000689	6.891423	2.334877	-0.000276
1169	1.1622e+02	-6.5292	122.056743	0.000689	6.891423	2.334877	-0.000276
1170	1.1632e+02	-6.5838	121.782218	0.000689	6.891423	2.334877	-0.000276
1171	1.1642e+02	-6.6207	121.560176	0.000557	5.573945	1.888504	-0.000223
1172	1.1651e+02	-6.6511	121.249316	0.000780	7.803523	2.643905	-0.000312
1173	1.1661e+02	-6.6945	120.974791	0.000689	6.891423	2.334877	-0.000276
1174	1.1671e+02	-6.7362	120.736600	0.000598	5.979323	2.025849	-0.000239
1175	1.1681e+02	-6.7699	120.437852	0.000750	7.499489	2.540896	-0.000300
1176	1.1691e+02	-6.8084	120.199661	0.000598	5.979323	2.025849	-0.000239
1177	1.1701e+02	-6.8549	119.957433	0.000608	6.080667	2.060186	-0.000243
1178	1.1711e+02	-6.8902	119.707130	0.000628	6.283356	2.128859	-0.000252
1179	1.1721e+02	-6.9239	119.412419	0.000740	7.398145	2.506559	-0.000296
1180	1.1731e+02	-6.9768	119.178266	0.000588	5.877978	1.991513	-0.000235
1181	1.1741e+02	-7.0201	118.895666	0.000709	7.094112	2.403550	-0.000284
1182	1.1751e+02	-7.0490	118.633252	0.000659	6.587389	2.231868	-0.000264
1183	1.1761e+02	-7.0955	118.391024	0.000608	6.080667	2.060186	-0.000243
1184	1.1771e+02	-7.1340	118.144759	0.000618	6.182012	2.094522	-0.000248
1185	1.1781e+02	-7.1757	117.886382	0.000649	6.486045	2.197532	-0.000260
1186	1.1791e+02	-7.2062	117.640117	0.000618	6.182012	2.094522	-0.000248
1187	1.1801e+02	-7.2559	117.353480	0.000720	7.195456	2.437887	-0.000288
1188	1.1811e+02	-7.2912	117.066844	0.000720	7.195456	2.437887	-0.000288
1189	1.1821e+02	-7.3281	116.856913	0.000527	5.269911	1.785494	-0.000211
1190	1.1831e+02	-7.3731	116.586424	0.000679	6.790078	2.300541	-0.000272
1191	1.1841e+02	-7.4180	116.340159	0.000618	6.182012	2.094522	-0.000248
1192	1.1850e+02	-7.4485	116.049485	0.000730	7.296801	2.472223	-0.000292
1193	1.1860e+02	-7.4950	115.819369	0.000578	5.776634	1.957176	-0.000231
1194	1.1870e+02	-7.5351	115.593289	0.000568	5.675289	1.922840	-0.000227
1195	1.1880e+02	-7.5688	115.282430	0.000780	7.803523	2.643905	-0.000312
1196	1.1890e+02	-7.6153	115.015979	0.000669	6.688734	2.266204	-0.000268
1197	1.1900e+02	-7.6586	114.761639	0.000638	6.384700	2.163195	-0.000256
1198	1.1910e+02	-7.6907	114.523448	0.000598	5.979323	2.025849	-0.000239
1199	1.1920e+02	-7.7260	114.285257	0.000598	5.979323	2.025849	-0.000239
1200	1.1930e+02	-7.7645	114.002658	0.000709	7.094112	2.403550	-0.000284
1201	1.1940e+02	-7.8110	113.756392	0.000618	6.182012	2.094522	-0.000248
1202	1.1950e+02	-7.8591	113.473793	0.000709	7.094112	2.403550	-0.000284
1203	1.1960e+02	-7.8928	113.239639	0.000588	5.877978	1.991513	-0.000235
1204	1.1970e+02	-7.9393	112.977225	0.000659	6.587389	2.231868	-0.000264
1205	1.1980e+02	-7.9730	112.702700	0.000689	6.891423	2.334877	-0.000276
1206	1.1990e+02	-8.0003	112.464509	0.000598	5.979323	2.025849	-0.000239
1207	1.2000e+02	-8.0436	112.185946	0.000699	6.992767	2.369214	-0.000280
1208	1.2010e+02	-8.0998	111.935644	0.000628	6.283356	2.128859	-0.000252
1209	1.2020e+02	-8.1238	111.697453	0.000598	5.979323	2.025849	-0.000239
1210	1.2030e+02	-8.1591	111.439076	0.000649	6.486045	2.197532	-0.000260
1211	1.2039e+02	-8.2249	111.172625	0.000669	6.688734	2.266204	-0.000268
1212	1.2049e+02	-8.2538	110.938472	0.000588	5.877978	1.991513	-0.000235
1213	1.2059e+02	-8.2859	110.672021	0.000669	6.688734	2.266204	-0.000268
1214	1.2069e+02	-8.3340	110.417681	0.000638	6.384700	2.163195	-0.000256
1215	1.2079e+02	-8.3629	110.179490	0.000598	5.979323	2.025849	-0.000239
1216	1.2089e+02	-8.4126	109.876705	0.000760	7.600834	2.575232	-0.000304
1217	1.2099e+02	-8.4511	109.650625	0.000568	5.675289	1.922840	-0.000227
1218	1.2109e+02	-8.4944	109.396286	0.000638	6.384700	2.163195	-0.000256
1219	1.2119e+02	-8.5233	109.141946	0.000638	6.384700	2.163195	-0.000256
1220	1.2129e+02	-8.5666	108.863384	0.000699	6.992767	2.369214	-0.000280
1221	1.2139e+02	-8.6019	108.617118	0.000618	6.182012	2.094522	-0.000248
1222	1.2149e+02	-8.6452	108.330482	0.000720	7.195456	2.437887	-0.000288
1223	1.2159e+02	-8.6949	108.144774	0.000466	4.661845	1.579476	-0.000187
1224	1.2169e+02	-8.7270	107.882360	0.000659	6.587389	2.231868	-0.000264
1225	1.2179e+02	-8.7655	107.660317	0.000557	5.573945	1.888504	-0.000223
1226	1.2189e+02	-8.8040	107.389829	0.000679	6.790078	2.300541	-0.000272
1227	1.2199e+02	-8.8538	107.099155	0.000730	7.296801	2.472223	-0.000292
1228	1.2209e+02	-8.8891	106.873076	0.000568	5.675289	1.922840	-0.000227
1229	1.2219e+02	-8.9260	106.651033	0.000557	5.573945	1.888504	-0.000223
1230	1.2229e+02	-8.9677	106.404768	0.000618	6.182012	2.094522	-0.000248
1231	1.2239e+02	-9.0030	106.146391	0.000649	6.486045	2.197532	-0.000260
1232	1.2248e+02	-9.0382	105.863792	0.000709	7.094112	2.403550	-0.000284
1233	1.2258e+02	-9.0784	105.605415	0.000649	6.486045	2.197532	-0.000260
1234	1.2268e+02	-9.1249	105.383373	0.000557	5.573945	1.888504	-0.000223
1235	1.2278e+02	-9.1538	105.145182	0.000598	5.979323	2.025849	-0.000239
1236	1.2288e+02	-9.2035	104.919102	0.000568	5.675289	1.922840	-0.000227
1237	1.2298e+02	-9.2500	104.656688	0.000659	6.587389	2.231868	-0.000264
1238	1.2308e+02	-9.2789	104.410423	0.000618	6.182012	2.094522	-0.000248
1239	1.2318e+02	-9.3238	104.139935	0.000679	6.790078	2.300541	-0.000272
1240	1.2328e+02	-9.3591	103.897707	0.000608	6.080667	2.060186	-0.000243
1241	1.2338e+02	-9.4088	103.635293	0.000659	6.587389	2.231868	-0.000264
1242	1.2348e+02	-9.4377	103.380953	0.000638	6.384700	2.163195	-0.000256
1243	1.2358e+02	-9.4826	103.146800	0.000588	5.877978	1.991513	-0.000235
1244	1.2368e+02	-9.5179	102.872274	0.000689	6.891423	2.334877	-0.000276
1245	1.2378e+02	-9.5516	102.609860	0.000659	6.587389	2.231868	-0.000264
1246	1.2388e+02	-9.6078	102.371669	0.000598	5.979323	2.025849	-0.000239
1247	1.2398e+02	-9.6430	102.113293	0.000649	6.486045	2.197532	-0.000260
1248	1.2408e+02	-9.6783	101.822619	0.000730	7.296801	2.472223	-0.000292
1249	1.2418e+02	-9.7184	101.564242	0.000649	6.486045	2.197532	-0.000260
1250	1.2428e+02	-9.7634	101.285680	0.000699	6.992767	2.369214	-0.000280
1251	1.2438e+02	-9.7922	100.995006	0.000730	7.296801	2.472223	-0.000292
1252	1.2447e+02	-9.8356	100.768927	0.000568	5.675289	1.922840	-0.000227
1253	1.2457e+02	-9.8805	100.526698	0.000608	6.080667	2.060186	-0.000243
1254	1.2467e+02	-9.9142	100.244099	0.000709	7.094112	2.403550	-0.000284
1255	1.2477e+02	-9.9655	99.961499	0.000709	7.094112	2.403550	-0.000284
1256	1.2487e+02	-10.0040	99.650640	0.000780	7.803523	2.643905	-0.000312
1257	1.2497e+02	-10.0361	99.388226	0.000659	6.587389	2.231868	-0.000264
1258	1.2507e+02	-10.0826	99.057181	0.000831	8.310245	2.815587	-0.000333
1259	1.2517e+02	-10.1259	98.814953	0.000608	6.080667	2.060186	-0.000243
1260	1.2527e+02	-10.1564	98.500056	0.000790	7.904867	2.678242	-0.000316
1261	1.2537e+02	-10.1917	98.213420	0.000720	7.195456	2.437887	-0.000288
1262	1.2547e+02	-10.2398	97.874300	0.000851	8.512934	2.884260	-0.000341
1263	1.2557e+02	-10.2863	97.543255	0.000831	8.310245	2.815587	-0.000333
1264	1.2567e+02	-10.3184	97.244507	0.000750	7.499489	2.540896	-0.000300
1265	1.2577e+02	-10.3569	96.929611	0.000790	7.904867	2.678242	-0.000316
1266	1.2587e+02	-10.4051	96.598565	0.000831	8.310245	2.815587	-0.000333
1267	1.2597e+02	-10.4436	96.311929	0.000720	7.195456	2.437887	-0.000288
1268	1.2607e+02	-10.4805	95.980884	0.000831	8.310245	2.815587	-0.000333
1269	1.2617e+02	-10.5125	95.670024	0.000780	7.803523	2.643905	-0.000312
1270	1.2627e+02	-10.5575	95.318793	0.000882	8.816967	2.987269	-0.000353
1271	1.2636e+02	-10.6024	94.979674	0.000851	8.512934	2.884260	-0.000341
1272	1.2646e+02	-10.6361	94.612295	0.000922	9.222345	3.124615	-0.000369
1273	1.2656e+02	-10.6906	94.337769	0.000689	6.891423	2.334877	-0.000276
1274	1.2666e+02	-10.7131	93.966353	0.000932	9.323690	3.158952	-0.000373
1275	1.2676e+02	-10.7644	93.611085	0.000892	8.918312	3.021606	-0.000357
1276	1.2686e+02	-10.8013	93.263891	0.000872	8.715623	2.952933	-0.000349
1277	1.2696e+02	-10.8382	92.896512	0.000922	9.222345	3.124615	-0.000369
1278	1.2706e+02	-10.8863	92.549318	0.000872	8.715623	2.952933	-0.000349
1279	1.2716e+02	-10.9264	92.238459	0.000780	7.803523	2.643905	-0.000312
1280	1.2726e+02	-10.9537	91.858968	0.000953	9.526378	3.227624	-0.000381
1281	1.2736e+02	-10.9938	91.507737	0.000882	8.816967	2.987269	-0.000353
1282	1.2746e+02	-11.0371	91.108061	0.001003	10.033101	3.399307	-0.000402
1283	1.2756e+02	-11.0820	90.752793	0.000892	8.918312	3.021606	-0.000357
1284	1.2766e+02	-11.1221	90.369265	0.000963	9.627723	3.261961	-0.000385
1285	1.2776e+02	-11.1623	90.042257	0.000821	8.208901	2.781251	-0.000329
1286	1.2786e+02	-11.1959	89.634506	0.001024	10.235790	3.467979	-0.000410
1287	1.2796e+02	-11.2393	89.271164	0.000912	9.121001	3.090279	-0.000365
1288	1.2806e+02	-11.2826	88.911859	0.000902	9.019656	3.055942	-0.000361
1289	1.2816e+02	-11.3163	88.520257	0.000983	9.830412	3.330634	-0.000394
1290	1.2826e+02	-11.3596	88.144803	0.000943	9.425034	3.193288	-0.000377
1291	1.2835e+02	-11.3884	87.761275	0.000963	9.627723	3.261961	-0.000385
1292	1.2845e+02	-11.4350	87.341413	0.001054	10.539823	3.570989	-0.000422
1293	1.2855e+02	-11.4767	87.014405	0.000821	8.208901	2.781251	-0.000329
1294	1.2865e+02	-11.5184	86.618766	0.000993	9.931756	3.364970	-0.000398
1295	1.2875e+02	-11.5585	86.186792	0.001084	10.843856	3.673998	-0.000434
1296	1.2885e+02	-11.6018	85.770967	0.001044	10.438479	3.536652	-0.000418
1297	1.2895e+02	-11.6291	85.395514	0.000943	9.425034	3.193288	-0.000377
1298	1.2905e+02	-11.6804	84.983726	0.001034	10.337134	3.502316	-0.000414
1299	1.2915e+02	-11.7189	84.563864	0.001054	10.539823	3.570989	-0.000422
1300	1.2925e+02	-11.7542	84.164187	0.001003	10.033101	3.399307	-0.000402
1301	1.2935e+02	-11.7895	83.780659	0.000963	9.627723	3.261961	-0.000385
1302	1.2945e+02	-11.8392	83.360797	0.001054	10.539823	3.570989	-0.000422
1303	1.2955e+02	-11.8697	82.920749	0.001105	11.046545	3.742671	-0.000442
1304	1.2965e+02	-11.9146	82.512999	0.001024	10.235790	3.467979	-0.000410
1305	1.2975e+02	-11.9419	82.008357	0.001267	12.668056	4.292054	-0.000507
1306	1.2985e+02	-11.9916	81.584458	0.001064	10.641167	3.605325	-0.000426
1307	1.2995e+02	-12.0301	81.184781	0.001003	10.033101	3.399307	-0.000402
1308	1.3005e+02	-12.0767	80.736659	0.001125	11.249234	3.811344	-0.000450
1309	1.3015e+02	-12.1039	80.308723	0.001074	10.742512	3.639662	-0.000430
1310	1.3025e+02	-12.1649	79.896935	0.001034	10.337134	3.502316	-0.000414
1311	1.3034e+02	-12.1938	79.464961	0.001084	10.843856	3.673998	-0.000434
1312	1.3044e+02	-12.2323	78.956282	0.001277	12.769401	4.326390	-0.000511
1313	1.3054e+02	-12.2708	78.524309	0.001084	10.843856	3.673998	-0.000434
1314	1.3064e+02	-12.3109	78.080224	0.001115	11.147890	3.777007	-0.000446
1315	1.3074e+02	-12.3606	77.567508	0.001287	12.870745	4.360727	-0.000515
1316	1.3084e+02	-12.3911	77.163794	0.001013	10.134445	3.433643	-0.000406
1317	1.3094e+02	-12.4376	76.663189	0.001257	12.566712	4.257717	-0.000503
1318	1.3104e+02	-12.4601	76.170659	0.001236	12.364023	4.189044	-0.000495
1319	1.3114e+02	-12.5130	75.762908	0.001024	10.235790	3.467979	-0.000410
1320	1.3124e+02	-12.5579	75.262303	0.001257	12.566712	4.257717	-0.000503
1321	1.3134e+02	-12.5964	74.773810	0.001226	12.262679	4.154708	-0.000491
1322	1.3144e+02	-12.6285	74.277242	0.001247	12.465368	4.223381	-0.000499
1323	1.3154e+02	-12.6686	73.812971	0.001165	11.654612	3.948689	-0.000467
1324	1.3164e+02	-12.7071	73.284106	0.001328	13.276123	4.498072	-0.000532
1325	1.3174e+02	-12.7520	72.799650	0.001216	12.161334	4.120372	-0.000487
1326	1.3184e+02	-12.7905	72.290971	0.001277	12.769401	4.326390	-0.000511
1327	1.3194e+02	-12.8178	71.806515	0.001216	12.161334	4.120372	-0.000487
1328	1.3204e+02	-12.8740	71.313984	0.001236	12.364023	4.189044	-0.000495
1329	1.3214e+02	-12.9109	70.821454	0.001236	12.364023	4.189044	-0.000495
1330	1.3224e+02	-12.9413	70.256255	0.001419	14.188223	4.807100	-0.000568
1331	1.3234e+02	-12.9959	69.791984	0.001165	11.654612	3.948689	-0.000467
1332	1.3243e+02	-13.0344	69.263119	0.001328	13.276123	4.498072	-0.000532
1333	1.3253e+02	-13.0713	68.710032	0.001388	13.884190	4.704091	-0.000556
1334	1.3263e+02	-13.1018	68.156944	0.001388	13.884190	4.704091	-0.000556
1335	1.3273e+02	-13.1403	67.660376	0.001247	12.465368	4.223381	-0.000499
1336	1.3283e+02	-13.1916	67.095177	0.001419	14.188223	4.807100	-0.000568
1337	1.3293e+02	-13.2253	66.542090	0.001388	13.884190	4.704091	-0.000556
1338	1.3303e+02	-13.2670	66.001114	0.001358	13.580157	4.601082	-0.000544
1339	1.3313e+02	-13.3087	65.492435	0.001277	12.769401	4.326390	-0.000511
1340	1.3323e+02	-13.3520	64.919161	0.001439	14.390912	4.875773	-0.000576
1341	1.3333e+02	-13.3841	64.345888	0.001439	14.390912	4.875773	-0.000576
1342	1.3343e+02	-13.4290	63.760503	0.001469	14.694945	4.978782	-0.000588
1343	1.3353e+02	-13.4723	63.219527	0.001358	13.580157	4.601082	-0.000544
1344	1.3363e+02	-13.5125	62.630105	0.001480	14.796290	5.013119	-0.000592
1345	1.3373e+02	-13.5429	62.036646	0.001490	14.897634	5.047455	-0.000596
1346	1.3383e+02	-13.5943	61.479522	0.001399	13.985534	4.738427	-0.000560
1347	1.3393e+02	-13.6247	60.857803	0.001561	15.607046	5.287810	-0.000625
1348	1.3403e+02	-13.6729	60.276455	0.001459	14.593601	4.944446	-0.000584
1349	1.3413e+02	-13.7001	59.650699	0.001571	15.708390	5.322147	-0.000629
1350	1.3423e+02	-13.7499	59.053203	0.001500	14.998979	5.081792	-0.000600
1351	1.3432e+02	-13.7868	58.435521	0.001551	15.505701	5.253474	-0.000621
1352	1.3442e+02	-13.8285	57.850137	0.001469	14.694945	4.978782	-0.000588
1353	1.3452e+02	-13.8702	57.228418	0.001561	15.607046	5.287810	-0.000625
1354	1.3462e+02	-13.8991	56.586513	0.001611	16.113768	5.459492	-0.000645
1355	1.3472e+02	-13.9360	55.968831	0.001551	15.505701	5.253474	-0.000621
1356	1.3482e+02	-13.9937	55.330964	0.001601	16.012423	5.425156	-0.000641
1357	1.3492e+02	-14.0242	54.676948	0.001642	16.417801	5.562502	-0.000657
1358	1.3502e+02	-14.0659	54.018895	0.001652	16.519146	5.596838	-0.000661
1359	1.3512e+02	-14.1124	53.360842	0.001652	16.519146	5.596838	-0.000661
1360	1.3522e+02	-14.1477	52.690677	0.001682	16.823179	5.699847	-0.000674
1361	1.3532e+02	-14.1862	52.040698	0.001632	16.316457	5.528165	-0.000653
1362	1.3542e+02	-14.2215	51.386682	0.001642	16.417801	5.562502	-0.000657
1363	1.3552e+02	-14.2568	50.651924	0.001844	18.444690	6.249230	-0.000738
1364	1.3562e+02	-14.3049	49.969648	0.001713	17.127212	5.802857	-0.000686
1365	1.3572e+02	-14.3467	49.299483	0.001682	16.823179	5.699847	-0.000674
1366	1.3582e+02	-14.3819	48.560687	0.001855	18.546035	6.283567	-0.000743
1367	1.3592e+02	-14.4253	47.894560	0.001672	16.721835	5.665511	-0.000669
1368	1.3602e+02	-14.4590	47.151727	0.001865	18.647379	6.317903	-0.000747
1369	1.3612e+02	-14.5071	46.421005	0.001834	18.343346	6.214894	-0.000734
1370	1.3622e+02	-14.5440	45.694321	0.001824	18.242001	6.180557	-0.000730
1371	1.3631e+02	-14.5841	44.983785	0.001784	17.836623	6.043212	-0.000714
1372	1.3641e+02	-14.6162	44.176358	0.002027	20.268890	6.867286	-0.000811
1373	1.3651e+02	-14.6707	43.461785	0.001794	17.937968	6.077548	-0.000718
1374	1.3661e+02	-14.7044	42.694729	0.001926	19.255446	6.523922	-0.000771
1375	1.3671e+02	-14.7349	41.935747	0.001905	19.052757	6.455249	-0.000763
1376	1.3681e+02	-14.7814	41.180803	0.001895	18.951412	6.420912	-0.000759
1377	1.3691e+02	-14.8295	40.377413	0.002017	20.167546	6.832950	-0.000807
1378	1.3701e+02	-14.8568	39.590172	0.001976	19.762168	6.695604	-0.000791
1379	1.3711e+02	-14.9065	38.815042	0.001946	19.458135	6.592595	-0.000779
1380	1.3721e+02	-14.9354	37.951095	0.002169	21.687713	7.347996	-0.000868
1381	1.3731e+02	-14.9819	37.175964	0.001946	19.458135	6.592595	-0.000779
1382	1.3741e+02	-15.0172	36.360463	0.002047	20.471579	6.935959	-0.000820
1383	1.3751e+02	-15.0734	35.520739	0.002108	21.079646	7.141977	-0.000844
1384	1.3761e+02	-15.1022	34.676977	0.002118	21.180990	7.176314	-0.000848
1385	1.3771e+02	-15.1456	33.845327	0.002088	20.876957	7.073305	-0.000836
1386	1.3781e+02	-15.1793	33.029826	0.002047	20.471579	6.935959	-0.000820
1387	1.3791e+02	-15.2145	32.129545	0.002260	22.599813	7.657024	-0.000905
1388	1.3801e+02	-15.2611	31.257523	0.002189	21.890402	7.416669	-0.000876
1389	1.3811e+02	-15.2964	30.393576	0.002169	21.687713	7.347996	-0.000868
1390	1.3821e+02	-15.3413	29.509444	0.002219	22.194435	7.519678	-0.000889
1391	1.3831e+02	-15.3782	28.576865	0.002341	23.410568	7.931715	-0.000937
1392	1.3840e+02	-15.4215	27.664473	0.002290	22.903846	7.760033	-0.000917
1393	1.3850e+02	-15.4648	26.739969	0.002321	23.207879	7.863042	-0.000929
1394	1.3860e+02	-15.5081	25.823539	0.002301	23.005191	7.794370	-0.000921
1395	1.3870e+02	-15.5450	24.943443	0.002209	22.093090	7.485342	-0.000885
1396	1.3880e+02	-15.5867	23.962419	0.002463	24.626702	8.343752	-0.000986
1397	1.3890e+02	-15.6204	23.005618	0.002402	24.018635	8.137734	-0.000962
1398	1.3900e+02	-15.6429	22.040743	0.002422	24.221324	8.206407	-0.000970
1399	1.3910e+02	-15.6990	21.039533	0.002513	25.133424	8.515435	-0.001006
1400	1.3920e+02	-15.7471	20.086769	0.002392	23.917291	8.103397	-0.000958
1401	1.3930e+02	-15.7808	19.069411	0.002554	25.538802	8.652780	-0.001022
1402	1.3940e+02	-15.8177	18.052052	0.002554	25.538802	8.652780	-0.001022
1403	1.3950e+02	-15.8659	17.026620	0.002574	25.741491	8.721453	-0.001031
1404	1.3960e+02	-15.9028	16.049633	0.002453	24.525357	8.309416	-0.000982
1405	1.3970e+02	-15.9364	14.995941	0.002645	26.450902	8.961808	-0.001059
1406	1.3980e+02	-15.9717	13.901877	0.002746	27.464346	9.305172	-0.001100
1407	1.3990e+02	-16.0183	12.848184	0.002645	26.450902	8.961808	-0.001059
1408	1.4000e+02	-16.0536	11.814678	0.002594	25.944180	8.790126	-0.001039
1409	1.4010e+02	-16.0953	10.712540	0.002767	27.667035	9.373845	-0.001108
1410	1.4020e+02	-16.1386	9.614439	0.002757	27.565691	9.339509	-0.001104
1411	1.4029e+02	-16.1707	8.467892	0.002878	28.781824	9.751546	-0.001152
1412	1.4039e+02	-16.2140	7.345568	0.002817	28.173758	9.545527	-0.001128
1413	1.4049e+02	-16.2669	6.255542	0.002736	27.363002	9.270836	-0.001096
1414	1.4059e+02	-16.2958	5.088810	0.002929	29.288547	9.923228	-0.001173
1415	1.4069e+02	-16.3407	3.938226	0.002888	28.883169	9.785882	-0.001156
1416	1.4079e+02	-16.3712	2.787642	0.002888	28.883169	9.785882	-0.001156
1417	1.4089e+02	-16.4161	1.596687	0.002990	29.896613	10.129247	-0.001197
1418	1.4099e+02	-16.4610	0.381509	0.003050	30.504680	10.335265	-0.001221
1419	1.4109e+02	-16.4931	-0.825594	0.003030	30.301991	10.266592	-0.001213
1420	1.4119e+02	-16.5380	-2.077106	0.003142	31.416780	10.644293	-0.001258
1421	1.4129e+02	-16.5781	-3.360916	0.003223	32.227536	10.918985	-0.001290
1422	1.4139e+02	-16.6054	-4.596279	0.003101	31.011402	10.506948	-0.001242
1423	1.4149e+02	-16.6584	-5.831643	0.003101	31.011402	10.506948	-0.001242
1424	1.4159e+02	-16.6904	-7.127563	0.003253	32.531569	11.021994	-0.001302
1425	1.4169e+02	-16.7402	-8.419447	0.003243	32.430225	10.987658	-0.001298
1426	1.4179e+02	-16.7723	-9.731516	0.003294	32.936947	11.159340	-0.001319
1427	1.4189e+02	-16.8108	-11.092030	0.003415	34.153080	11.571377	-0.001367
1428	1.4199e+02	-16.8509	-12.440434	0.003385	33.849047	11.468368	-0.001355
1429	1.4209e+02	-16.9038	-13.784800	0.003375	33.747702	11.434031	-0.001351
1430	1.4219e+02	-16.9311	-15.173575	0.003486	34.862491	11.811732	-0.001396
1431	1.4228e+02	-16.9744	-16.546201	0.003446	34.457114	11.674386	-0.001380
1432	1.4238e+02	-17.0097	-18.003607	0.003659	36.585347	12.395451	-0.001465
1433	1.4248e+02	-17.0482	-19.408530	0.003527	35.267869	11.949078	-0.001412
1434	1.4258e+02	-17.0899	-20.821528	0.003547	35.470558	12.017750	-0.001420
1435	1.4268e+02	-17.1428	-22.319305	0.003760	37.598792	12.738815	-0.001505
1436	1.4278e+02	-17.1733	-23.800934	0.003719	37.193414	12.601470	-0.001489
1437	1.4288e+02	-17.2118	-25.282563	0.003719	37.193414	12.601470	-0.001489
1438	1.4298e+02	-17.2439	-26.857045	0.003952	39.524336	13.391208	-0.001582
1439	1.4308e+02	-17.2936	-28.370971	0.003800	38.004169	12.876161	-0.001522
1440	1.4318e+02	-17.3289	-29.909120	0.003861	38.612236	13.082180	-0.001546
1441	1.4328e+02	-17.3642	-31.491677	0.003973	39.727025	13.459880	-0.001591
1442	1.4338e+02	-17.4123	-33.102494	0.004044	40.436436	13.700235	-0.001619
1443	1.4348e+02	-17.4508	-34.717349	0.004054	40.537781	13.734572	-0.001623
1444	1.4358e+02	-17.5022	-36.344314	0.004084	40.841814	13.837581	-0.001635
1445	1.4368e+02	-17.5359	-38.007614	0.004175	41.753914	14.146609	-0.001672
1446	1.4378e+02	-17.5631	-39.658803	0.004145	41.449881	14.043600	-0.001659
1447	1.4388e+02	-17.6145	-41.362474	0.004277	42.767359	14.489973	-0.001712
1448	1.4398e+02	-17.6498	-43.066145	0.004277	42.767359	14.489973	-0.001712
1449	1.4408e+02	-17.6883	-44.806151	0.004368	43.679459	14.799001	-0.001749
1450	1.4418e+02	-17.7300	-46.517897	0.004297	42.970048	14.558646	-0.001720
1451	1.4428e+02	-17.7733	-48.350756	0.004601	46.010381	15.588739	-0.001842
1452	1.4437e+02	-17.8086	-50.123059	0.004449	44.490214	15.073693	-0.001781
1453	1.4447e+02	-17.8519	-51.996290	0.004702	47.023826	15.932103	-0.001883
1454	1.4457e+02	-17.8952	-53.796852	0.004520	45.199625	15.314048	-0.001810
1455	1.4467e+02	-17.9305	-55.690269	0.004753	47.530548	16.103786	-0.001903
1456	1.4477e+02	-17.9706	-57.555426	0.004682	46.821137	15.863431	-0.001875
1457	1.4487e+02	-18.0043	-59.481139	0.004834	48.341303	16.378477	-0.001935
1458	1.4497e+02	-18.0460	-61.394742	0.004804	48.037270	16.275468	-0.001923
1459	1.4507e+02	-18.0957	-63.348715	0.004905	49.050715	16.618832	-0.001964
1460	1.4517e+02	-18.1278	-65.363246	0.005057	50.570881	17.133878	-0.002025
1461	1.4527e+02	-18.1663	-67.337406	0.004956	49.557437	16.790514	-0.001984
1462	1.4537e+02	-18.2080	-69.408456	0.005199	51.989704	17.614588	-0.002081
1463	1.4547e+02	-18.2530	-71.439135	0.005098	50.976259	17.271224	-0.002041
1464	1.4557e+02	-18.2883	-73.582855	0.005381	53.813904	18.232644	-0.002154
1465	1.4567e+02	-18.3252	-75.629682	0.005138	51.381637	17.408570	-0.002057
1466	1.4577e+02	-18.3717	-77.846070	0.005564	55.638104	18.850700	-0.002228
1467	1.4587e+02	-18.4054	-79.985752	0.005371	53.712559	18.198308	-0.002150
1468	1.4597e+02	-18.4567	-82.206176	0.005574	55.739448	18.885036	-0.002232
1469	1.4607e+02	-18.4840	-84.394304	0.005493	54.928693	18.610345	-0.002199
1470	1.4617e+02	-18.5273	-86.655100	0.005675	56.752893	19.228401	-0.002272
1471	1.4626e+02	-18.5690	-88.968379	0.005807	58.070371	19.674774	-0.002325
1472	1.4636e+02	-18.6091	-91.301843	0.005858	58.577093	19.846456	-0.002345
1473	1.4646e+02	-18.6492	-93.631271	0.005848	58.475749	19.812120	-0.002341
1474	1.4656e+02	-18.6877	-96.041441	0.006050	60.502638	20.498849	-0.002422
1475	1.4666e+02	-18.7294	-98.415276	0.005959	59.590538	20.189821	-0.002386
1476	1.4676e+02	-18.7727	-100.894078	0.006223	62.225493	21.082568	-0.002491
1477	1.4686e+02	-18.8112	-103.356731	0.006182	61.820116	20.945222	-0.002475
1478	1.4696e+02	-18.8497	-105.859755	0.006283	62.833560	21.288586	-0.002516
1479	1.4706e+02	-18.8995	-108.366816	0.006293	62.934905	21.322923	-0.002520
1480	1.4716e+02	-18.9219	-111.007103	0.006628	66.279271	22.456025	-0.002654
1481	1.4726e+02	-18.9652	-113.594907	0.006496	64.961794	22.009651	-0.002601
1482	1.4736e+02	-19.0134	-116.259416	0.006689	66.887338	22.662044	-0.002678
1483	1.4746e+02	-19.0455	-118.907777	0.006648	66.481960	22.524698	-0.002662
1484	1.4756e+02	-19.0807	-121.657067	0.006902	69.015572	23.383109	-0.002763
1485	1.4766e+02	-19.1225	-124.398282	0.006881	68.812883	23.314436	-0.002755
1486	1.4776e+02	-19.1690	-127.187943	0.007003	70.029016	23.726473	-0.002804
1487	1.4786e+02	-19.2123	-129.997789	0.007054	70.535738	23.898155	-0.002824
1488	1.4796e+02	-19.2444	-132.896453	0.007277	72.765316	24.653557	-0.002913
1489	1.4806e+02	-19.2957	-135.774931	0.007226	72.258594	24.481874	-0.002893
1490	1.4816e+02	-19.3230	-138.718003	0.007388	73.880105	25.031257	-0.002958
1491	1.4825e+02	-19.3615	-141.681260	0.007439	74.386828	25.202939	-0.002978
1492	1.4835e+02	-19.3984	-144.725261	0.007641	76.413717	25.889668	-0.003059
1493	1.4845e+02	-19.4417	-147.833855	0.007804	78.035228	26.439051	-0.003124
1494	1.4855e+02	-19.4866	-150.857670	0.007591	75.906994	25.717986	-0.003039
1495	1.4865e+02	-19.5219	-153.982413	0.007844	78.440606	26.576397	-0.003140
1496	1.4875e+02	-19.5716	-157.167713	0.007996	79.960772	27.091443	-0.003201
1497	1.4885e+02	-19.5989	-160.409533	0.008138	81.379595	27.572153	-0.003258
1498	1.4895e+02	-19.6422	-163.711910	0.008290	82.899761	28.087200	-0.003319
1499	1.4905e+02	-19.6727	-167.058695	0.008401	84.014550	28.464900	-0.003364
1500	1.4915e+02	-19.7176	-170.352998	0.008270	82.697073	28.018527	-0.003311
1501	1.4925e+02	-19.7577	-173.796675	0.008645	86.446817	29.288975	-0.003461
1502	1.4935e+02	-19.8075	-177.212092	0.008574	85.737406	29.048620	-0.003433
1503	1.4945e+02	-19.8412	-180.696140	0.008746	87.460262	29.632339	-0.003502
1504	1.4955e+02	-19.8877	-184.277079	0.008989	89.892529	30.456413	-0.003599
1505	1.4965e+02	-19.9182	-187.862056	0.008999	89.993873	30.490750	-0.003603
1506	1.4975e+02	-19.9743	-191.515664	0.009172	91.716729	31.074469	-0.003672
1507	1.4985e+02	-20.0016	-195.245977	0.009364	93.642273	31.726861	-0.003749
1508	1.4995e+02	-19.9599	-198.415129	-0.007956	-79.555395	-26.954097	-0.003185
1509	1.5005e+02	-19.9214	-201.487389	-0.007712	-77.123128	-26.130023	-0.003088
1510	1.5015e+02	-19.8845	-204.386052	-0.007277	-72.765316	-24.653557	-0.002913
1511	1.5025e+02	-19.8363	-207.163602	-0.006972	-69.724983	-23.623464	-0.002792
1512	1.5034e+02	-19.8010	-209.828111	-0.006689	-66.887338	-22.662044	-0.002678
1513	1.5044e+02	-19.7609	-212.403804	-0.006466	-64.657760	-21.906642	-0.002589
1514	1.5054e+02	-19.7273	-214.854345	-0.006152	-61.516082	-20.842213	-0.002463
1515	1.5064e+02	-19.6855	-217.264515	-0.006050	-60.502638	-20.498849	-0.002422
1516	1.5074e+02	-19.6310	-219.533386	-0.005696	-56.955582	-19.297074	-0.002280
1517	1.5084e+02	-19.6085	-221.761885	-0.005594	-55.942137	-18.953709	-0.002240
1518	1.5094e+02	-19.5620	-223.824861	-0.005179	-51.787015	-17.545916	-0.002073
1519	1.5104e+02	-19.5380	-225.879763	-0.005158	-51.584326	-17.477243	-0.002065
1520	1.5114e+02	-19.4818	-227.866034	-0.004986	-49.861470	-16.893523	-0.001996
1521	1.5124e+02	-19.4449	-229.799822	-0.004854	-48.543992	-16.447150	-0.001944
1522	1.5134e+02	-19.4112	-231.612496	-0.004550	-45.503659	-15.417057	-0.001822
1523	1.5144e+02	-19.3583	-233.380761	-0.004439	-44.388870	-15.039356	-0.001777
1524	1.5154e+02	-19.3214	-235.088470	-0.004287	-42.868703	-14.524310	-0.001716
1525	1.5164e+02	-19.2893	-236.715435	-0.004084	-40.841814	-13.837581	-0.001635
1526	1.5174e+02	-19.2556	-238.338364	-0.004074	-40.740470	-13.803245	-0.001631
1527	1.5184e+02	-19.2171	-239.868438	-0.003841	-38.409547	-13.013507	-0.001538
1528	1.5194e+02	-19.1642	-241.293547	-0.003577	-35.774591	-12.120760	-0.001432
1529	1.5204e+02	-19.1160	-242.734805	-0.003618	-36.179969	-12.258105	-0.001448
1530	1.5214e+02	-19.0872	-244.107431	-0.003446	-34.457114	-11.674386	-0.001380
1531	1.5224e+02	-19.0471	-245.431611	-0.003324	-33.240980	-11.262349	-0.001331
1532	1.5233e+02	-19.0118	-246.727532	-0.003253	-32.531569	-11.021994	-0.001302
1533	1.5243e+02	-18.9701	-247.950784	-0.003071	-30.707369	-10.403938	-0.001229
1534	1.5253e+02	-18.9203	-249.149814	-0.003010	-30.099302	-10.197920	-0.001205
1535	1.5263e+02	-18.8866	-250.280212	-0.002838	-28.376446	-9.614200	-0.001136
1536	1.5273e+02	-18.8449	-251.354090	-0.002696	-26.957624	-9.133490	-0.001079
1537	1.5283e+02	-18.8080	-252.440079	-0.002726	-27.261658	-9.236500	-0.001091
1538	1.5293e+02	-18.7567	-253.449363	-0.002534	-25.336113	-8.584107	-0.001014
1539	1.5303e+02	-18.7230	-254.438461	-0.002483	-24.829391	-8.412425	-0.000994
1540	1.5313e+02	-18.6845	-255.395262	-0.002402	-24.018635	-8.137734	-0.000962
1541	1.5323e+02	-18.6476	-256.331878	-0.002351	-23.511913	-7.966052	-0.000941
1542	1.5333e+02	-18.6043	-257.167565	-0.002098	-20.978302	-7.107641	-0.000840
1543	1.5343e+02	-18.5674	-257.970955	-0.002017	-20.167546	-6.832950	-0.000807
1544	1.5353e+02	-18.5225	-258.851051	-0.002209	-22.093090	-7.485342	-0.000885
1545	1.5363e+02	-18.4856	-259.642329	-0.001986	-19.863513	-6.729940	-0.000795
1546	1.5373e+02	-18.4503	-260.393237	-0.001885	-18.850068	-6.386576	-0.000755
1547	1.5383e+02	-18.4102	-261.148181	-0.001895	-18.951412	-6.420912	-0.000759
1548	1.5393e+02	-18.3781	-261.794123	-0.001622	-16.215112	-5.493829	-0.000649
1549	1.5403e+02	-18.3284	-262.440064	-0.001622	-16.215112	-5.493829	-0.000649
1550	1.5413e+02	-18.2850	-263.094080	-0.001642	-16.417801	-5.562502	-0.000657
1551	1.5422e+02	-18.2578	-263.695614	-0.001510	-15.100323	-5.116128	-0.000605
1552	1.5432e+02	-18.2161	-264.329444	-0.001591	-15.911079	-5.390819	-0.000637
1553	1.5442e+02	-18.1760	-264.898680	-0.001429	-14.289568	-4.841437	-0.000572
1554	1.5452e+02	-18.1214	-265.375062	-0.001196	-11.958645	-4.051699	-0.000479
1555	1.5462e+02	-18.0974	-265.924112	-0.001378	-13.782845	-4.669754	-0.000552
1556	1.5472e+02	-18.0508	-266.436829	-0.001287	-12.870745	-4.360727	-0.000515
1557	1.5482e+02	-18.0123	-266.945508	-0.001277	-12.769401	-4.326390	-0.000511
1558	1.5492e+02	-17.9674	-267.393630	-0.001125	-11.249234	-3.811344	-0.000450
1559	1.5502e+02	-17.9289	-267.837715	-0.001115	-11.147890	-3.777007	-0.000446
1560	1.5512e+02	-17.8872	-268.233354	-0.000993	-9.931756	-3.364970	-0.000398
1561	1.5522e+02	-17.8567	-268.669365	-0.001095	-10.945201	-3.708334	-0.000438
1562	1.5532e+02	-17.8150	-268.992336	-0.000811	-8.107556	-2.746914	-0.000325
1563	1.5542e+02	-17.7621	-269.416235	-0.001064	-10.641167	-3.605325	-0.000426
1564	1.5552e+02	-17.7364	-269.743243	-0.000821	-8.208901	-2.781251	-0.000329
1565	1.5562e+02	-17.6931	-270.041991	-0.000750	-7.499489	-2.540896	-0.000300
1566	1.5572e+02	-17.6482	-270.373036	-0.000831	-8.310245	-2.815587	-0.000333
1567	1.5582e+02	-17.6129	-270.683896	-0.000780	-7.803523	-2.643905	-0.000312
1568	1.5592e+02	-17.5647	-270.922087	-0.000598	-5.979323	-2.025849	-0.000239
1569	1.5602e+02	-17.5295	-271.200649	-0.000699	-6.992767	-2.369214	-0.000280
1570	1.5612e+02	-17.4990	-271.487286	-0.000720	-7.195456	-2.437887	-0.000288
1571	1.5622e+02	-17.4573	-271.757774	-0.000679	-6.790078	-2.300541	-0.000272
1572	1.5631e+02	-17.4059	-271.951556	-0.000486	-4.864534	-1.648149	-0.000195
1573	1.5641e+02	-17.3754	-272.197821	-0.000618	-6.182012	-2.094522	-0.000248
1574	1.5651e+02	-17.3305	-272.427938	-0.000578	-5.776634	-1.957176	-0.000231
1575	1.5661e+02	-17.2952	-272.601535	-0.000436	-4.357811	-1.476466	-0.000174
1576	1.5671e+02	-17.2583	-272.694389	-0.000233	-2.330922	-0.789738	-0.000093
1577	1.5681e+02	-17.2118	-272.892209	-0.000497	-4.965878	-1.682485	-0.000199
1578	1.5691e+02	-17.1685	-273.090028	-0.000497	-4.965878	-1.682485	-0.000199
1579	1.5701e+02	-17.1348	-273.219217	-0.000324	-3.243022	-1.098766	-0.000130
1580	1.5711e+02	-17.0915	-273.312071	-0.000233	-2.330922	-0.789738	-0.000093
1581	1.5721e+02	-17.0482	-273.473556	-0.000405	-4.053778	-1.373457	-0.000162
1582	1.5731e+02	-17.0113	-273.558336	-0.000213	-2.128233	-0.721065	-0.000085
1583	1.5741e+02	-16.9744	-273.667339	-0.000274	-2.736300	-0.927084	-0.000110
1584	1.5751e+02	-16.9343	-273.764230	-0.000243	-2.432267	-0.824074	-0.000097
1585	1.5761e+02	-16.8974	-273.849010	-0.000213	-2.128233	-0.721065	-0.000085
1586	1.5771e+02	-16.8589	-273.994347	-0.000365	-3.648400	-1.236111	-0.000146
1587	1.5781e+02	-16.8188	-274.026644	-0.000081	-0.810756	-0.274691	-0.000032
1588	1.5791e+02	-16.7803	-274.038755	-0.000030	-0.304033	-0.103009	-0.000012
1589	1.5801e+02	-16.7386	-274.151795	-0.000284	-2.837645	-0.961420	-0.000114
1590	1.5811e+02	-16.6985	-274.192166	-0.000101	-1.013445	-0.343364	-0.000041
1591	1.5821e+02	-16.6487	-274.220426	-0.000071	-0.709411	-0.240355	-0.000028
1592	1.5830e+02	-16.6182	-274.268872	-0.000122	-1.216133	-0.412037	-0.000049
1593	1.5840e+02	-16.5830	-274.305206	-0.000091	-0.912100	-0.309028	-0.000037
1594	1.5850e+02	-16.5268	-274.297132	0.000020	0.202689	0.068673	0.000008
1595	1.5860e+02	-16.4995	-274.329429	-0.000081	-0.810756	-0.274691	-0.000032
1596	1.5870e+02	-16.4530	-274.361726	-0.000081	-0.810756	-0.274691	-0.000032
1597	1.5880e+02	-16.4257	-274.369800	-0.000020	-0.202689	-0.068673	-0.000008
1598	1.5890e+02	-16.3776	-274.361726	0.000020	0.202689	0.068673	0.000008
1599	1.5900e+02	-16.3375	-274.349615	0.000030	0.304033	0.103009	0.000012
1600	1.5910e+02	-16.3022	-274.345578	0.000010	0.101344	0.034336	0.000004
1601	1.5920e+02	-16.2605	-274.341541	0.000010	0.101344	0.034336	0.000004
1602	1.5930e+02	-16.2236	-274.321355	0.000051	0.506722	0.171682	0.000020
1603	1.5940e+02	-16.1803	-274.240612	0.000203	2.026889	0.686729	0.000081
1604	1.5950e+02	-16.1386	-274.240612	0.000000	0.000000	0.000000	0.000000
1605	1.5960e+02	-16.0985	-274.256761	-0.000041	-0.405378	-0.137346	-0.000016
1606	1.5970e+02	-16.0487	-274.163907	0.000233	2.330922	0.789738	0.000093
1607	1.5980e+02	-16.0231	-274.135647	0.000071	0.709411	0.240355	0.000028
1608	1.5990e+02	-15.9766	-274.079127	0.000142	1.418822	0.480710	0.000057
1609	1.6000e+02	-15.9493	-274.050867	0.000071	0.709411	0.240355	0.000028
1610	1.6010e+02	-15.8963	-273.962050	0.000223	2.229578	0.755401	0.000089
1611	1.6019e+02	-15.8562	-273.937827	0.000061	0.608067	0.206019	0.000024
1612	1.6029e+02	-15.8129	-273.873233	0.000162	1.621511	0.549383	0.000065
1613	1.6039e+02	-15.7728	-273.816713	0.000142	1.418822	0.480710	0.000057
1614	1.6049e+02	-15.7391	-273.780379	0.000091	0.912100	0.309028	0.000037
1615	1.6059e+02	-15.6990	-273.683487	0.000243	2.432267	0.824074	0.000097
1616	1.6069e+02	-15.6685	-273.582559	0.000253	2.533611	0.858411	0.000101
1617	1.6079e+02	-15.6204	-273.505853	0.000193	1.925545	0.652392	0.000077
1618	1.6089e+02	-15.5835	-273.417036	0.000223	2.229578	0.755401	0.000089
1619	1.6099e+02	-15.5418	-273.352442	0.000162	1.621511	0.549383	0.000065
1620	1.6109e+02	-15.5049	-273.243440	0.000274	2.736300	0.927084	0.000110
1621	1.6119e+02	-15.4616	-273.130400	0.000284	2.837645	0.961420	0.000114
1622	1.6129e+02	-15.4183	-273.065806	0.000162	1.621511	0.549383	0.000065
1623	1.6139e+02	-15.3766	-272.985063	0.000203	2.026889	0.686729	0.000081
1624	1.6149e+02	-15.3429	-272.900283	0.000213	2.128233	0.721065	0.000085
1625	1.6159e+02	-15.3028	-272.750909	0.000375	3.749745	1.270448	0.000150
1626	1.6169e+02	-15.2643	-272.666129	0.000213	2.128233	0.721065	0.000085
1627	1.6179e+02	-15.2194	-272.561164	0.000263	2.634956	0.892747	0.000105
1628	1.6189e+02	-15.1776	-272.431975	0.000324	3.243022	1.098766	0.000130
1629	1.6199e+02	-15.1359	-272.298750	0.000334	3.344367	1.133102	0.000134
1630	1.6209e+02	-15.0974	-272.218007	0.000203	2.026889	0.686729	0.000081
1631	1.6219e+02	-15.0621	-272.125153	0.000233	2.330922	0.789738	0.000093
1632	1.6228e+02	-15.0268	-272.004039	0.000304	3.040334	1.030093	0.000122
1633	1.6238e+02	-14.9819	-271.862739	0.000355	3.547056	1.201775	0.000142
1634	1.6248e+02	-14.9450	-271.753737	0.000274	2.736300	0.927084	0.000110
1635	1.6258e+02	-14.9001	-271.636660	0.000294	2.938989	0.995756	0.000118
1636	1.6268e+02	-14.8648	-271.503434	0.000334	3.344367	1.133102	0.000134
1637	1.6278e+02	-14.8167	-271.394431	0.000274	2.736300	0.927084	0.000110
1638	1.6288e+02	-14.7798	-271.220835	0.000436	4.357811	1.476466	0.000174
1639	1.6298e+02	-14.7413	-271.184500	0.000091	0.912100	0.309028	0.000037
1640	1.6308e+02	-14.7012	-271.018978	0.000416	4.155123	1.407794	0.000166
1641	1.6318e+02	-14.6691	-270.909975	0.000274	2.736300	0.927084	0.000110
1642	1.6328e+02	-14.6258	-270.776750	0.000334	3.344367	1.133102	0.000134
1643	1.6338e+02	-14.5777	-270.667747	0.000274	2.736300	0.927084	0.000110
1644	1.6348e+02	-14.5424	-270.546633	0.000304	3.040334	1.030093	0.000122
1645	1.6358e+02	-14.5007	-270.381110	0.000416	4.155123	1.407794	0.000166
1646	1.6368e+02	-14.4606	-270.239811	0.000355	3.547056	1.201775	0.000142
1647	1.6378e+02	-14.4269	-270.138882	0.000253	2.533611	0.858411	0.000101
1648	1.6388e+02	-14.3819	-269.949137	0.000476	4.763189	1.613812	0.000191
1649	1.6398e+02	-14.3515	-269.823986	0.000314	3.141678	1.064429	0.000126
1650	1.6408e+02	-14.3033	-269.706909	0.000294	2.938989	0.995756	0.000118
1651	1.6418e+02	-14.2664	-269.561572	0.000365	3.648400	1.236111	0.000146
1652	1.6427e+02	-14.2263	-269.444495	0.000294	2.938989	0.995756	0.000118
1653	1.6437e+02	-14.1798	-269.307232	0.000345	3.445711	1.167439	0.000138
1654	1.6447e+02	-14.1493	-269.149784	0.000395	3.952434	1.339121	0.000158
1655	1.6457e+02	-14.0964	-269.012521	0.000345	3.445711	1.167439	0.000138
1656	1.6467e+02	-14.0611	-268.895444	0.000294	2.938989	0.995756	0.000118
1657	1.6477e+02	-14.0258	-268.713773	0.000456	4.560500	1.545139	0.000183
1658	1.6487e+02	-13.9841	-268.584585	0.000324	3.243022	1.098766	0.000130
1659	1.6497e+02	-13.9472	-268.463471	0.000304	3.040334	1.030093	0.000122
1660	1.6507e+02	-13.9071	-268.265651	0.000497	4.965878	1.682485	0.000199
1661	1.6517e+02	-13.8590	-268.172797	0.000233	2.330922	0.789738	0.000093
1662	1.6527e+02	-13.8349	-268.019386	0.000385	3.851089	1.304784	0.000154
1663	1.6537e+02	-13.7916	-267.829641	0.000476	4.763189	1.613812	0.000191
1664	1.6547e+02	-13.7451	-267.676229	0.000385	3.851089	1.304784	0.000154
1665	1.6557e+02	-13.7098	-267.502633	0.000436	4.357811	1.476466	0.000174
1666	1.6567e+02	-13.6665	-267.401704	0.000253	2.533611	0.858411	0.000101
1667	1.6577e+02	-13.6247	-267.240219	0.000405	4.053778	1.373457	0.000162
1668	1.6587e+02	-13.5879	-267.082770	0.000395	3.952434	1.339121	0.000158
1669	1.6597e+02	-13.5413	-266.977805	0.000263	2.634956	0.892747	0.000105
1670	1.6607e+02	-13.5092	-266.808245	0.000426	4.256467	1.442130	0.000170
1671	1.6616e+02	-13.4723	-266.646760	0.000405	4.053778	1.373457	0.000162
1672	1.6626e+02	-13.4194	-266.521609	0.000314	3.141678	1.064429	0.000126
1673	1.6636e+02	-13.3825	-266.400495	0.000304	3.040334	1.030093	0.000122
1674	1.6646e+02	-13.3408	-266.198638	0.000507	5.067223	1.716821	0.000203
1675	1.6656e+02	-13.3103	-266.049264	0.000375	3.749745	1.270448	0.000150
1676	1.6666e+02	-13.2670	-265.907964	0.000355	3.547056	1.201775	0.000142
1677	1.6676e+02	-13.2253	-265.730330	0.000446	4.459156	1.510803	0.000179
1678	1.6686e+02	-13.1916	-265.580956	0.000375	3.749745	1.270448	0.000150
1679	1.6696e+02	-13.1563	-265.423508	0.000395	3.952434	1.339121	0.000158
1680	1.6706e+02	-13.1066	-265.282208	0.000355	3.547056	1.201775	0.000142
1681	1.6716e+02	-13.0665	-265.084388	0.000497	4.965878	1.682485	0.000199
1682	1.6726e+02	-13.0312	-264.930977	0.000385	3.851089	1.304784	0.000154
1683	1.6736e+02	-12.9831	-264.817937	0.000284	2.837645	0.961420	0.000114
1684	1.6746e+02	-12.9526	-264.644340	0.000436	4.357811	1.476466	0.000174
1685	1.6756e+02	-12.9173	-264.438447	0.000517	5.168567	1.751158	0.000207
1686	1.6766e+02	-12.8772	-264.272924	0.000416	4.155123	1.407794	0.000166
1687	1.6776e+02	-12.8226	-264.083179	0.000476	4.763189	1.613812	0.000191
1688	1.6786e+02	-12.7873	-263.970139	0.000284	2.837645	0.961420	0.000114
1689	1.6796e+02	-12.7520	-263.844988	0.000314	3.141678	1.064429	0.000126
1690	1.6806e+02	-12.7103	-263.631019	0.000537	5.371256	1.819831	0.000215
1691	1.6816e+02	-12.6750	-263.449348	0.000456	4.560500	1.545139	0.000183
1692	1.6825e+02	-12.6253	-263.299974	0.000375	3.749745	1.270448	0.000150
1693	1.6835e+02	-12.5964	-263.138489	0.000405	4.053778	1.373457	0.000162
1694	1.6845e+02	-12.5563	-262.972966	0.000416	4.155123	1.407794	0.000166
1695	1.6855e+02	-12.5130	-262.823592	0.000375	3.749745	1.270448	0.000150
1696	1.6865e+02	-12.4649	-262.678255	0.000365	3.648400	1.236111	0.000146
1697	1.6875e+02	-12.4296	-262.468324	0.000527	5.269911	1.785494	0.000211
1698	1.6885e+02	-12.3959	-262.322987	0.000365	3.648400	1.236111	0.000146
1699	1.6895e+02	-12.3558	-262.153428	0.000426	4.256467	1.442130	0.000170
1700	1.6905e+02	-12.3221	-261.971757	0.000456	4.560500	1.545139	0.000183
1701	1.6915e+02	-12.2740	-261.794123	0.000446	4.459156	1.510803	0.000179
1702	1.6925e+02	-12.2323	-261.656860	0.000345	3.445711	1.167439	0.000138
1703	1.6935e+02	-12.1922	-261.487300	0.000426	4.256467	1.442130	0.000170
1704	1.6945e+02	-12.1553	-261.305629	0.000456	4.560500	1.545139	0.000183
1705	1.6955e+02	-12.1136	-261.164329	0.000355	3.547056	1.201775	0.000142
1706	1.6965e+02	-12.0686	-261.023030	0.000355	3.547056	1.201775	0.000142
1707	1.6975e+02	-12.0301	-260.809062	0.000537	5.371256	1.819831	0.000215
1708	1.6985e+02	-11.9900	-260.651613	0.000395	3.952434	1.339121	0.000158
1709	1.6995e+02	-11.9547	-260.490128	0.000405	4.053778	1.373457	0.000162
1710	1.7005e+02	-11.9227	-260.288271	0.000507	5.067223	1.716821	0.000203
1711	1.7015e+02	-11.8745	-260.203491	0.000213	2.128233	0.721065	0.000085
1712	1.7024e+02	-11.8344	-259.969337	0.000588	5.877978	1.991513	0.000235
1713	1.7034e+02	-11.7991	-259.824000	0.000365	3.648400	1.236111	0.000146
1714	1.7044e+02	-11.7414	-259.622144	0.000507	5.067223	1.716821	0.000203
1715	1.7054e+02	-11.7189	-259.476807	0.000365	3.648400	1.236111	0.000146
1716	1.7064e+02	-11.6788	-259.274950	0.000507	5.067223	1.716821	0.000203
1717	1.7074e+02	-11.6387	-259.125576	0.000375	3.749745	1.270448	0.000150
1718	1.7084e+02	-11.5938	-258.951979	0.000436	4.357811	1.476466	0.000174
1719	1.7094e+02	-11.5585	-258.790494	0.000405	4.053778	1.373457	0.000162
1720	1.7104e+02	-11.5152	-258.600748	0.000476	4.763189	1.613812	0.000191
1721	1.7114e+02	-11.4831	-258.435226	0.000416	4.155123	1.407794	0.000166
1722	1.7124e+02	-11.4366	-258.233369	0.000507	5.067223	1.716821	0.000203
1723	1.7134e+02	-11.4029	-258.120329	0.000284	2.837645	0.961420	0.000114
1724	1.7144e+02	-11.3548	-257.962881	0.000395	3.952434	1.339121	0.000158
1725	1.7154e+02	-11.3163	-257.740838	0.000557	5.573945	1.888504	0.000223
1726	1.7164e+02	-11.2729	-257.547056	0.000486	4.864534	1.648149	0.000195
1727	1.7174e+02	-11.2377	-257.353273	0.000486	4.864534	1.648149	0.000195
1728	1.7184e+02	-11.1991	-257.207936	0.000365	3.648400	1.236111	0.000146
1729	1.7194e+02	-11.1590	-257.010117	0.000497	4.965878	1.682485	0.000199
1730	1.7204e+02	-11.1173	-256.884966	0.000314	3.141678	1.064429	0.000126
1731	1.7213e+02	-11.0804	-256.683109	0.000507	5.067223	1.716821	0.000203
1732	1.7223e+02	-11.0291	-256.485289	0.000497	4.965878	1.682485	0.000199
1733	1.7233e+02	-11.0034	-256.323804	0.000405	4.053778	1.373457	0.000162
1734	1.7243e+02	-10.9633	-256.121947	0.000507	5.067223	1.716821	0.000203
1735	1.7253e+02	-10.9377	-255.956424	0.000416	4.155123	1.407794	0.000166
1736	1.7263e+02	-10.8847	-255.778790	0.000446	4.459156	1.510803	0.000179
1737	1.7273e+02	-10.8334	-255.564822	0.000537	5.371256	1.819831	0.000215
1738	1.7283e+02	-10.8109	-255.399300	0.000416	4.155123	1.407794	0.000166
1739	1.7293e+02	-10.7612	-255.189369	0.000527	5.269911	1.785494	0.000211
1740	1.7303e+02	-10.7083	-255.044032	0.000365	3.648400	1.236111	0.000146
1741	1.7313e+02	-10.6746	-254.862361	0.000456	4.560500	1.545139	0.000183
1742	1.7323e+02	-10.6409	-254.680689	0.000456	4.560500	1.545139	0.000183
1743	1.7333e+02	-10.6040	-254.523241	0.000395	3.952434	1.339121	0.000158
1744	1.7343e+02	-10.5559	-254.325422	0.000497	4.965878	1.682485	0.000199
1745	1.7353e+02	-10.5141	-254.075119	0.000628	6.283356	2.128859	0.000252
1746	1.7363e+02	-10.4837	-253.905559	0.000426	4.256467	1.442130	0.000170
1747	1.7373e+02	-10.4403	-253.687554	0.000547	5.472600	1.854167	0.000219
1748	1.7383e+02	-10.4083	-253.509920	0.000446	4.459156	1.510803	0.000179
1749	1.7393e+02	-10.3585	-253.356509	0.000385	3.851089	1.304784	0.000154
1750	1.7403e+02	-10.3184	-253.182912	0.000436	4.357811	1.476466	0.000174
1751	1.7413e+02	-10.2815	-253.037575	0.000365	3.648400	1.236111	0.000146
1752	1.7422e+02	-10.2414	-252.847830	0.000476	4.763189	1.613812	0.000191
1753	1.7432e+02	-10.1949	-252.617713	0.000578	5.776634	1.957176	0.000231
1754	1.7442e+02	-10.1724	-252.448153	0.000426	4.256467	1.442130	0.000170
1755	1.7452e+02	-10.1179	-252.262445	0.000466	4.661845	1.579476	0.000187
1756	1.7462e+02	-10.0858	-252.040403	0.000557	5.573945	1.888504	0.000223
1757	1.7472e+02	-10.0409	-251.874880	0.000416	4.155123	1.407794	0.000166
1758	1.7482e+02	-9.9960	-251.652838	0.000557	5.573945	1.888504	0.000223
1759	1.7492e+02	-9.9591	-251.455018	0.000497	4.965878	1.682485	0.000199
1760	1.7502e+02	-9.9174	-251.257198	0.000497	4.965878	1.682485	0.000199
1761	1.7512e+02	-9.8741	-251.107824	0.000375	3.749745	1.270448	0.000150
1762	1.7522e+02	-9.8307	-250.905968	0.000507	5.067223	1.716821	0.000203
1763	1.7532e+02	-9.8131	-250.716222	0.000476	4.763189	1.613812	0.000191
1764	1.7542e+02	-9.7569	-250.510328	0.000517	5.168567	1.751158	0.000207
1765	1.7552e+02	-9.7184	-250.340769	0.000426	4.256467	1.442130	0.000170
1766	1.7562e+02	-9.6831	-250.171209	0.000426	4.256467	1.442130	0.000170
1767	1.7572e+02	-9.6495	-249.953204	0.000547	5.472600	1.854167	0.000219
1768	1.7582e+02	-9.6061	-249.739235	0.000537	5.371256	1.819831	0.000215
1769	1.7592e+02	-9.5500	-249.585824	0.000385	3.851089	1.304784	0.000154
1770	1.7602e+02	-9.5211	-249.363782	0.000557	5.573945	1.888504	0.000223
1771	1.7612e+02	-9.4778	-249.182111	0.000456	4.560500	1.545139	0.000183
1772	1.7621e+02	-9.4441	-249.004477	0.000446	4.459156	1.510803	0.000179
1773	1.7631e+02	-9.4104	-248.782434	0.000557	5.573945	1.888504	0.000223
1774	1.7641e+02	-9.3655	-248.548280	0.000588	5.877978	1.991513	0.000235
1775	1.7651e+02	-9.3334	-248.366609	0.000456	4.560500	1.545139	0.000183
1776	1.7661e+02	-9.2901	-248.205124	0.000405	4.053778	1.373457	0.000162
1777	1.7671e+02	-9.2468	-248.023453	0.000456	4.560500	1.545139	0.000183
1778	1.7681e+02	-9.1987	-247.769113	0.000638	6.384700	2.163195	0.000256
1779	1.7691e+02	-9.1634	-247.623776	0.000365	3.648400	1.236111	0.000146
1780	1.7701e+02	-9.1265	-247.389622	0.000588	5.877978	1.991513	0.000235
1781	1.7711e+02	-9.0784	-247.256397	0.000334	3.344367	1.133102	0.000134
1782	1.7721e+02	-9.0543	-247.030317	0.000568	5.675289	1.922840	0.000227
1783	1.7731e+02	-9.0014	-246.832498	0.000497	4.965878	1.682485	0.000199
1784	1.7741e+02	-8.9789	-246.606418	0.000568	5.675289	1.922840	0.000227
1785	1.7751e+02	-8.9243	-246.428784	0.000446	4.459156	1.510803	0.000179
1786	1.7761e+02	-8.8923	-246.287484	0.000355	3.547056	1.201775	0.000142
1787	1.7771e+02	-8.8441	-245.996810	0.000730	7.296801	2.472223	0.000292
1788	1.7781e+02	-8.8040	-245.827251	0.000426	4.256467	1.442130	0.000170
1789	1.7791e+02	-8.7591	-245.637505	0.000476	4.763189	1.613812	0.000191
1790	1.7801e+02	-8.7286	-245.403352	0.000588	5.877978	1.991513	0.000235
1791	1.7810e+02	-8.6885	-245.205532	0.000497	4.965878	1.682485	0.000199
1792	1.7820e+02	-8.6516	-244.967341	0.000598	5.979323	2.025849	0.000239
1793	1.7830e+02	-8.6179	-244.801818	0.000416	4.155123	1.407794	0.000166
1794	1.7840e+02	-8.5650	-244.551516	0.000628	6.283356	2.128859	0.000252
1795	1.7850e+02	-8.5345	-244.353696	0.000497	4.965878	1.682485	0.000199
1796	1.7860e+02	-8.4864	-244.139728	0.000537	5.371256	1.819831	0.000215
1797	1.7870e+02	-8.4479	-243.929797	0.000527	5.269911	1.785494	0.000211
1798	1.7880e+02	-8.4094	-243.731977	0.000497	4.965878	1.682485	0.000199
1799	1.7890e+02	-8.3629	-243.518009	0.000537	5.371256	1.819831	0.000215
1800	1.7900e+02	-8.3372	-243.348449	0.000426	4.256467	1.442130	0.000170
1801	1.7910e+02	-8.2875	-243.122370	0.000568	5.675289	1.922840	0.000227
1802	1.7920e+02	-8.2618	-242.912439	0.000527	5.269911	1.785494	0.000211
1803	1.7930e+02	-8.2073	-242.710582	0.000507	5.067223	1.716821	0.000203
1804	1.7940e+02	-8.1639	-242.536985	0.000436	4.357811	1.476466	0.000174
1805	1.7950e+02	-8.1238	-242.262460	0.000689	6.891423	2.334877	0.000276
1806	1.7960e+02	-8.0821	-242.064640	0.000497	4.965878	1.682485	0.000199
1807	1.7970e+02	-8.0532	-241.862783	0.000507	5.067223	1.716821	0.000203
1808	1.7980e+02	-8.0131	-241.648815	0.000537	5.371256	1.819831	0.000215
1809	1.7990e+02	-7.9730	-241.434847	0.000537	5.371256	1.819831	0.000215
1810	1.8000e+02	-7.9313	-241.200693	0.000588	5.877978	1.991513	0.000235
1811	1.8009e+02	-7.8992	-240.986725	0.000537	5.371256	1.819831	0.000215
1812	1.8019e+02	-7.8415	-240.788905	0.000497	4.965878	1.682485	0.000199
1813	1.8029e+02	-7.8094	-240.631457	0.000395	3.952434	1.339121	0.000158
1814	1.8039e+02	-7.7597	-240.389229	0.000608	6.080667	2.060186	0.000243
1815	1.8049e+02	-7.7276	-240.110667	0.000699	6.992767	2.369214	0.000280
1816	1.8059e+02	-7.6923	-239.945144	0.000416	4.155123	1.407794	0.000166
1817	1.8069e+02	-7.6570	-239.710990	0.000588	5.877978	1.991513	0.000235
1818	1.8079e+02	-7.6073	-239.513170	0.000497	4.965878	1.682485	0.000199
1819	1.8089e+02	-7.5720	-239.295165	0.000547	5.472600	1.854167	0.000219
1820	1.8099e+02	-7.5367	-239.077160	0.000547	5.472600	1.854167	0.000219
1821	1.8109e+02	-7.4886	-238.879340	0.000497	4.965878	1.682485	0.000199
1822	1.8119e+02	-7.4565	-238.641149	0.000598	5.979323	2.025849	0.000239
1823	1.8129e+02	-7.4164	-238.451404	0.000476	4.763189	1.613812	0.000191
1824	1.8139e+02	-7.3698	-238.241473	0.000527	5.269911	1.785494	0.000211
1825	1.8149e+02	-7.3346	-238.015393	0.000568	5.675289	1.922840	0.000227
1826	1.8159e+02	-7.2864	-237.752979	0.000659	6.587389	2.231868	0.000264
1827	1.8169e+02	-7.2431	-237.539011	0.000537	5.371256	1.819831	0.000215
1828	1.8179e+02	-7.2094	-237.308894	0.000578	5.776634	1.957176	0.000231
1829	1.8189e+02	-7.1661	-237.159520	0.000375	3.749745	1.270448	0.000150
1830	1.8199e+02	-7.1404	-236.901144	0.000649	6.486045	2.197532	0.000260
1831	1.8209e+02	-7.0987	-236.727547	0.000436	4.357811	1.476466	0.000174
1832	1.8218e+02	-7.0538	-236.461096	0.000669	6.688734	2.266204	0.000268
1833	1.8228e+02	-7.0185	-236.243091	0.000547	5.472600	1.854167	0.000219
1834	1.8238e+02	-6.9768	-236.025085	0.000547	5.472600	1.854167	0.000219
1835	1.8248e+02	-6.9431	-235.839377	0.000466	4.661845	1.579476	0.000187
1836	1.8258e+02	-6.8854	-235.564852	0.000689	6.891423	2.334877	0.000276
1837	1.8268e+02	-6.8533	-235.338772	0.000568	5.675289	1.922840	0.000227
1838	1.8278e+02	-6.8068	-235.096544	0.000608	6.080667	2.060186	0.000243
1839	1.8288e+02	-6.7667	-234.878539	0.000547	5.472600	1.854167	0.000219
1840	1.8298e+02	-6.7330	-234.684756	0.000486	4.864534	1.648149	0.000195
1841	1.8308e+02	-6.6880	-234.503085	0.000456	4.560500	1.545139	0.000183
1842	1.8318e+02	-6.6560	-234.281043	0.000557	5.573945	1.888504	0.000223
1843	1.8328e+02	-6.6110	-234.030740	0.000628	6.283356	2.128859	0.000252
1844	1.8338e+02	-6.5790	-233.804661	0.000568	5.675289	1.922840	0.000227
1845	1.8348e+02	-6.5453	-233.586655	0.000547	5.472600	1.854167	0.000219
1846	1.8358e+02	-6.4971	-233.364613	0.000557	5.573945	1.888504	0.000223
1847	1.8368e+02	-6.4554	-233.086050	0.000699	6.992767	2.369214	0.000280
1848	1.8378e+02	-6.4201	-232.904379	0.000456	4.560500	1.545139	0.000183
1849	1.8388e+02	-6.3768	-232.694448	0.000527	5.269911	1.785494	0.000211
1850	1.8398e+02	-6.3512	-232.480480	0.000537	5.371256	1.819831	0.000215
1851	1.8407e+02	-6.2998	-232.242289	0.000598	5.979323	2.025849	0.000239
1852	1.8417e+02	-6.2613	-232.044469	0.000497	4.965878	1.682485	0.000199
1853	1.8427e+02	-6.2276	-231.769944	0.000689	6.891423	2.334877	0.000276
1854	1.8437e+02	-6.1795	-231.560013	0.000527	5.269911	1.785494	0.000211
1855	1.8447e+02	-6.1314	-231.333933	0.000568	5.675289	1.922840	0.000227
1856	1.8457e+02	-6.1009	-231.103817	0.000578	5.776634	1.957176	0.000231
1857	1.8467e+02	-6.0480	-230.845440	0.000649	6.486045	2.197532	0.000260
1858	1.8477e+02	-6.0239	-230.675880	0.000426	4.256467	1.442130	0.000170
1859	1.8487e+02	-5.9870	-230.449801	0.000568	5.675289	1.922840	0.000227
1860	1.8497e+02	-5.9373	-230.167201	0.000709	7.094112	2.403550	0.000284
1861	1.8507e+02	-5.8972	-229.941122	0.000568	5.675289	1.922840	0.000227
1862	1.8517e+02	-5.8490	-229.698894	0.000608	6.080667	2.060186	0.000243
1863	1.8527e+02	-5.8137	-229.501074	0.000497	4.965878	1.682485	0.000199
1864	1.8537e+02	-5.7849	-229.270957	0.000578	5.776634	1.957176	0.000231
1865	1.8547e+02	-5.7432	-229.020655	0.000628	6.283356	2.128859	0.000252
1866	1.8557e+02	-5.6934	-228.717870	0.000760	7.600834	2.575232	0.000304
1867	1.8567e+02	-5.6678	-228.552347	0.000416	4.155123	1.407794	0.000166
1868	1.8577e+02	-5.6116	-228.338379	0.000537	5.371256	1.819831	0.000215
1869	1.8587e+02	-5.5859	-228.112299	0.000568	5.675289	1.922840	0.000227
1870	1.8597e+02	-5.5442	-227.805477	0.000770	7.702178	2.609569	0.000308
1871	1.8606e+02	-5.5137	-227.607657	0.000497	4.965878	1.682485	0.000199
1872	1.8616e+02	-5.4672	-227.389652	0.000547	5.472600	1.854167	0.000219
1873	1.8626e+02	-5.4143	-227.119164	0.000679	6.790078	2.300541	0.000272
1874	1.8636e+02	-5.3790	-226.901158	0.000547	5.472600	1.854167	0.000219
1875	1.8646e+02	-5.3453	-226.658930	0.000608	6.080667	2.060186	0.000243
1876	1.8656e+02	-5.3036	-226.461111	0.000497	4.965878	1.682485	0.000199
1877	1.8666e+02	-5.2587	-226.206771	0.000638	6.384700	2.163195	0.000256
1878	1.8676e+02	-5.2314	-225.952432	0.000638	6.384700	2.163195	0.000256
1879	1.8686e+02	-5.1865	-225.694055	0.000649	6.486045	2.197532	0.000260
1880	1.8696e+02	-5.1432	-225.520458	0.000436	4.357811	1.476466	0.000174
1881	1.8706e+02	-5.1095	-225.237859	0.000709	7.094112	2.403550	0.000284
1882	1.8716e+02	-5.0662	-225.027927	0.000527	5.269911	1.785494	0.000211
1883	1.8726e+02	-5.0212	-224.785699	0.000608	6.080667	2.060186	0.000243
1884	1.8736e+02	-4.9811	-224.583843	0.000507	5.067223	1.716821	0.000203
1885	1.8746e+02	-4.9442	-224.329503	0.000638	6.384700	2.163195	0.000256
1886	1.8756e+02	-4.9154	-224.087275	0.000608	6.080667	2.060186	0.000243
1887	1.8766e+02	-4.8608	-223.853121	0.000588	5.877978	1.991513	0.000235
1888	1.8776e+02	-4.8271	-223.602819	0.000628	6.283356	2.128859	0.000252
1889	1.8786e+02	-4.7870	-223.384813	0.000547	5.472600	1.854167	0.000219
1890	1.8796e+02	-4.7437	-223.142585	0.000608	6.080667	2.060186	0.000243
1891	1.8806e+02	-4.7020	-222.855948	0.000720	7.195456	2.437887	0.000288
1892	1.8815e+02	-4.6587	-222.666203	0.000476	4.763189	1.613812	0.000191
1893	1.8825e+02	-4.6250	-222.387641	0.000699	6.992767	2.369214	0.000280
1894	1.8835e+02	-4.5817	-222.137338	0.000628	6.283356	2.128859	0.000252
1895	1.8845e+02	-4.5480	-221.939519	0.000497	4.965878	1.682485	0.000199
1896	1.8855e+02	-4.5079	-221.713439	0.000568	5.675289	1.922840	0.000227
1897	1.8865e+02	-4.4678	-221.463137	0.000628	6.283356	2.128859	0.000252
1898	1.8875e+02	-4.4261	-221.208797	0.000638	6.384700	2.163195	0.000256
1899	1.8885e+02	-4.3892	-220.930235	0.000699	6.992767	2.369214	0.000280
1900	1.8895e+02	-4.3603	-220.748564	0.000456	4.560500	1.545139	0.000183
1901	1.8905e+02	-4.3090	-220.449816	0.000750	7.499489	2.540896	0.000300
1902	1.8915e+02	-4.2689	-220.183365	0.000669	6.688734	2.266204	0.000268
1903	1.8925e+02	-4.2239	-219.965359	0.000547	5.472600	1.854167	0.000219
1904	1.8935e+02	-4.1822	-219.682760	0.000709	7.094112	2.403550	0.000284
1905	1.8945e+02	-4.1502	-219.420346	0.000659	6.587389	2.231868	0.000264
1906	1.8955e+02	-4.1036	-219.190229	0.000578	5.776634	1.957176	0.000231
1907	1.8965e+02	-4.0667	-218.935890	0.000638	6.384700	2.163195	0.000256
1908	1.8975e+02	-4.0186	-218.725959	0.000527	5.269911	1.785494	0.000211
1909	1.8985e+02	-3.9913	-218.479693	0.000618	6.182012	2.094522	0.000248
1910	1.8995e+02	-3.9464	-218.205168	0.000689	6.891423	2.334877	0.000276
1911	1.9004e+02	-3.9111	-217.910457	0.000740	7.398145	2.506559	0.000296
1912	1.9014e+02	-3.8678	-217.672266	0.000598	5.979323	2.025849	0.000239
1913	1.9024e+02	-3.8245	-217.490595	0.000456	4.560500	1.545139	0.000183
1914	1.9034e+02	-3.7892	-217.212033	0.000699	6.992767	2.369214	0.000280
1915	1.9044e+02	-3.7459	-216.949619	0.000659	6.587389	2.231868	0.000264
1916	1.9054e+02	-3.7026	-216.691242	0.000649	6.486045	2.197532	0.000260
1917	1.9064e+02	-3.6689	-216.444977	0.000618	6.182012	2.094522	0.000248
1918	1.9074e+02	-3.6191	-216.202749	0.000608	6.080667	2.060186	0.000243
1919	1.9084e+02	-3.5871	-215.960521	0.000608	6.080667	2.060186	0.000243
1920	1.9094e+02	-3.5518	-215.649661	0.000780	7.803523	2.643905	0.000312
1921	1.9104e+02	-3.5085	-215.459916	0.000476	4.763189	1.613812	0.000191
1922	1.9114e+02	-3.4651	-215.140982	0.000801	8.006212	2.712578	0.000321
1923	1.9124e+02	-3.4315	-214.906828	0.000588	5.877978	1.991513	0.000235
1924	1.9134e+02	-3.3865	-214.680749	0.000568	5.675289	1.922840	0.000227
1925	1.9144e+02	-3.3496	-214.406223	0.000689	6.891423	2.334877	0.000276
1926	1.9154e+02	-3.3111	-214.155921	0.000628	6.283356	2.128859	0.000252
1927	1.9164e+02	-3.2646	-213.917730	0.000598	5.979323	2.025849	0.000239
1928	1.9174e+02	-3.2261	-213.618982	0.000750	7.499489	2.540896	0.000300
1929	1.9184e+02	-3.1876	-213.384828	0.000588	5.877978	1.991513	0.000235
1930	1.9194e+02	-3.1539	-213.106266	0.000699	6.992767	2.369214	0.000280
1931	1.9203e+02	-3.1026	-212.851926	0.000638	6.384700	2.163195	0.000256
1932	1.9213e+02	-3.0689	-212.589512	0.000659	6.587389	2.231868	0.000264
1933	1.9223e+02	-3.0256	-212.323061	0.000669	6.688734	2.266204	0.000268
1934	1.9233e+02	-2.9839	-212.056610	0.000669	6.688734	2.266204	0.000268
1935	1.9243e+02	-2.9614	-211.814382	0.000608	6.080667	2.060186	0.000243
1936	1.9253e+02	-2.9085	-211.564080	0.000628	6.283356	2.128859	0.000252
1937	1.9263e+02	-2.8700	-211.257257	0.000770	7.702178	2.609569	0.000308
1938	1.9273e+02	-2.8331	-210.994844	0.000659	6.587389	2.231868	0.000264
1939	1.9283e+02	-2.7962	-210.744541	0.000628	6.283356	2.128859	0.000252
1940	1.9293e+02	-2.7497	-210.453867	0.000730	7.296801	2.472223	0.000292
1941	1.9303e+02	-2.7176	-210.215676	0.000598	5.979323	2.025849	0.000239
1942	1.9313e+02	-2.6678	-209.965374	0.000628	6.283356	2.128859	0.000252
1943	1.9323e+02	-2.6406	-209.674700	0.000730	7.296801	2.472223	0.000292
1944	1.9333e+02	-2.5940	-209.424398	0.000628	6.283356	2.128859	0.000252
1945	1.9343e+02	-2.5507	-209.145835	0.000699	6.992767	2.369214	0.000280
1946	1.9353e+02	-2.5106	-208.911682	0.000588	5.877978	1.991513	0.000235
1947	1.9363e+02	-2.4769	-208.645231	0.000669	6.688734	2.266204	0.000268
1948	1.9373e+02	-2.4352	-208.350520	0.000740	7.398145	2.506559	0.000296
1949	1.9383e+02	-2.3999	-208.092143	0.000649	6.486045	2.197532	0.000260
1950	1.9393e+02	-2.3534	-207.862026	0.000578	5.776634	1.957176	0.000231
1951	1.9403e+02	-2.3197	-207.539055	0.000811	8.107556	2.746914	0.000325
1952	1.9412e+02	-2.2748	-207.284716	0.000638	6.384700	2.163195	0.000256
1953	1.9422e+02	-2.2331	-207.002116	0.000709	7.094112	2.403550	0.000284
1954	1.9432e+02	-2.1882	-206.739703	0.000659	6.587389	2.231868	0.000264
1955	1.9442e+02	-2.1593	-206.444992	0.000740	7.398145	2.506559	0.000296
1956	1.9452e+02	-2.1144	-206.190652	0.000638	6.384700	2.163195	0.000256
1957	1.9462e+02	-2.0582	-205.920164	0.000679	6.790078	2.300541	0.000272
1958	1.9472e+02	-2.0326	-205.621416	0.000750	7.499489	2.540896	0.000300
1959	1.9482e+02	-1.9957	-205.371114	0.000628	6.283356	2.128859	0.000252
1960	1.9492e+02	-1.9572	-205.072366	0.000750	7.499489	2.540896	0.000300
1961	1.9502e+02	-1.9138	-204.781692	0.000730	7.296801	2.472223	0.000292
1962	1.9512e+02	-1.8705	-204.523315	0.000649	6.486045	2.197532	0.000260
1963	1.9522e+02	-1.8336	-204.240716	0.000709	7.094112	2.403550	0.000284
1964	1.9532e+02	-1.7935	-203.974265	0.000669	6.688734	2.266204	0.000268
1965	1.9542e+02	-1.7582	-203.667442	0.000770	7.702178	2.609569	0.000308
1966	1.9552e+02	-1.7213	-203.376769	0.000730	7.296801	2.472223	0.000292
1967	1.9562e+02	-1.6796	-203.118392	0.000649	6.486045	2.197532	0.000260
1968	1.9572e+02	-1.6347	-202.819644	0.000750	7.499489	2.540896	0.000300
1969	1.9582e+02	-1.6074	-202.650084	0.000426	4.256467	1.442130	0.000170
1970	1.9592e+02	-1.5513	-202.294816	0.000892	8.918312	3.021606	0.000357
1971	1.9601e+02	-1.5144	-202.016254	0.000699	6.992767	2.369214	0.000280
1972	1.9611e+02	-1.4807	-201.652912	0.000912	9.121001	3.090279	0.000365
1973	1.9621e+02	-1.4358	-201.378386	0.000689	6.891423	2.334877	0.000276
1974	1.9631e+02	-1.3957	-201.140195	0.000598	5.979323	2.025849	0.000239
1975	1.9641e+02	-1.3604	-200.829336	0.000780	7.803523	2.643905	0.000312
1976	1.9651e+02	-1.3107	-200.546736	0.000709	7.094112	2.403550	0.000284
1977	1.9661e+02	-1.2770	-200.288360	0.000649	6.486045	2.197532	0.000260
1978	1.9671e+02	-1.2256	-199.977500	0.000780	7.803523	2.643905	0.000312
1979	1.9681e+02	-1.1952	-199.694901	0.000709	7.094112	2.403550	0.000284
1980	1.9691e+02	-1.1583	-199.440561	0.000638	6.384700	2.163195	0.000256
1981	1.9701e+02	-1.1198	-199.121627	0.000801	8.006212	2.712578	0.000321
1982	1.9711e+02	-1.0796	-198.843065	0.000699	6.992767	2.369214	0.000280
1983	1.9721e+02	-1.0379	-198.596800	0.000618	6.182012	2.094522	0.000248
1984	1.9731e+02	-0.9962	-198.294015	0.000760	7.600834	2.575232	0.000304
1985	1.9741e+02	-0.9561	-197.983155	0.000780	7.803523	2.643905	0.000312
1986	1.9751e+02	-0.9112	-197.724778	0.000649	6.486045	2.197532	0.000260
1987	1.9761e+02	-0.8727	-197.361436	0.000912	9.121001	3.090279	0.000365
1988	1.9771e+02	-0.8406	-197.107097	0.000638	6.384700	2.163195	0.000256
1989	1.9781e+02	-0.7925	-196.804312	0.000760	7.600834	2.575232	0.000304
1990	1.9791e+02	-0.7652	-196.485378	0.000801	8.006212	2.712578	0.000321
1991	1.9800e+02	-0.7187	-196.202778	0.000709	7.094112	2.403550	0.000284
1992	1.9810e+02	-0.6834	-195.976699	0.000568	5.675289	1.922840	0.000227
1993	1.9820e+02	-0.6433	-195.661802	0.000790	7.904867	2.678242	0.000316
1994	1.9830e+02	-0.5936	-195.395351	0.000669	6.688734	2.266204	0.000268
1995	1.9840e+02	-0.5583	-195.132937	0.000659	6.587389	2.231868	0.000264
1996	1.9850e+02	-0.5246	-194.805929	0.000821	8.208901	2.781251	0.000329
1997	1.9860e+02	-0.4749	-194.511218	0.000740	7.398145	2.506559	0.000296
1998	1.9870e+02	-0.4299	-194.212470	0.000750	7.499489	2.540896	0.000300
1999	1.9880e+02	-0.3930	-193.950057	0.000659	6.587389	2.231868	0.000264
2000	1.9890e+02	-0.3593	-193.602863	0.000872	8.715623	2.952933	0.000349
2001	1.9900e+02	-0.3273	-193.384858	0.000547	5.472600	1.854167	0.000219
2002	1.9910e+02	-0.2759	-193.029590	0.000892	8.918312	3.021606	0.000357
2003	1.9920e+02	-0.2422	-192.751027	0.000699	6.992767	2.369214	0.000280
2004	1.9930e+02	-0.2069	-192.432094	0.000801	8.006212	2.712578	0.000321
2005	1.9940e+02	-0.1572	-192.197940	0.000588	5.877978	1.991513	0.000235
2006	1.9950e+02	-0.1155	-191.850746	0.000872	8.715623	2.952933	0.000349
2007	1.9960e+02	-0.0802	-191.584295	0.000669	6.688734	2.266204	0.000268
2008	1.9970e+02	-0.0417	-191.309770	0.000689	6.891423	2.334877	0.000276
2009	1.9980e+02	-0.0048	-191.051393	0.000689	6.891423	2.334877	0.000260

Center data before PMax,+/-Pr and +/-Vc Calc.

PMax (uC/cm2):	2.74e+02
Pr (uC/cm2):	1.69e+02
-Pr (uC/cm2):	-1.91e+02
PLoss (uC/cm2):	-3.45e+02
-Vc:	-1.65e+01
C (Max-Eff) (nF):	1.37e+00
K (Eff):	4.65e+03
Vert. (+/-Pr) Shift (uC/cm2):	-1.09e+01
Offset (uC/cm2):	-1.54e+02

A (Loop Area - uC/cm2·Volts):	-4.21e+00



Hysteresis Version: 5.48.1 - Radiant Technologies, Inc., 1999 - 9/12/24

