»»»»»»»»»»»»»»»»»»»»»»»»»»»»»»»»»»»» Hysteresis ««««««««««««««««««««««««««««««««««««
»»»  Executed Version:	5.48.1
»»»  Vision Version:	5.48.4 (R)
»»»  Vision Compiled:	9/18/24
»»»  Driver Version:	5.47.0
»»»  Windows Version:	Windows 8 or 8.1
»»»  Processor Information:	x86 (AMD or Intel) - 32 Processors
»»»  Tester Name:	PMF21124-494 (100V)
»»»  Tester S/N:	PMF21124-494
»»»  Internal Amp Type:	100V RevK 270k
»»»  Internal Amp S/N:	iAB2-596/K     
»»»  Execution Count:	1
»»»»»»»»»»»»»»»»»»»»»»»»»»»»»»»»»»»»»»»»»»««««««««««««««««««««««««««««««««««««««««««

Stored:	6/5/2025 - 17:6:39
Configured:	06/05/25 02:51:50 PM
Executed:	06/05/25 05:05:47 PM

»»»»»»»»»»»»»»»»»»»»»»»»»»»»»»»»»»» Sample Info ««««««««««««««««««««««««««««««««««««
Sample Name:	
Lot Name:	
Wafer Name:	
Die Row/Column:	0/0
Capacitor Number:	0
Sample Area (cm2):	1.00e-04
Sample Thickness (microns):	3.00e-01

Amplifier:	Internal

»»»»»»»»»»»»»»»»»»»»»»»»»»»»»»»»»»» Tester Info «««««««««««««««««««««««««««««««««««
Tester Name:	PMF21124-494 (100V)
Tester Serial Number:	PMF21124-494
Return Signal Amp. Level:	0.19 [Index: 3]

»»»»»»»»»»»»»»»»»»»»»»»»»»»»»»»» Hysteresis Info ««««««««««««««««««««««««««««««««««
Task Name:	Hyst-353
Volts:	20.00
Field:	666.67 (kV/cm)
DCBias:	0.00
DCField:	0.00 (kV/cm)
Hysteresis Period (ms):	2.00e+02
Preset:	Enabled
Preset Delay (ms):	1.00e+03
Profile:	Standard Bipolar

»»»»»»»»»»»»»»»»»»»»»»»»»»»»»»»»»»»»»» Data «««««««««««««««««««««««««««««««««««««««
Points:	2009

Valid Data

Point	Time (ms)	Drive Voltage	Measured Polarization (uC/cm2)	Capacitance (uF)	Normalized Capacitance (uF/cm2)	Dielectric Constant	Instantaneous Current (mA)
   1	0.0000e+00	0.0016	71.808533	0.000456	4.560958	1.545294	0.000183
   2	9.9500e-02	0.0449	71.990204	0.000456	4.560958	1.545294	0.000183
   3	1.9900e-01	0.0706	72.216284	0.000568	5.675858	1.923033	0.000227
   4	2.9850e-01	0.1139	72.466586	0.000628	6.283986	2.129072	0.000252
   5	3.9800e-01	0.1460	72.733037	0.000669	6.689405	2.266432	0.000268
   6	4.9750e-01	0.1893	72.971228	0.000598	5.979922	2.026053	0.000239
   7	5.9700e-01	0.2342	73.209419	0.000598	5.979922	2.026053	0.000239
   8	6.9650e-01	0.2759	73.492019	0.000709	7.094823	2.403791	0.000284
   9	7.9600e-01	0.3032	73.778656	0.000720	7.196178	2.438131	0.000288
  10	8.9550e-01	0.3433	74.004735	0.000568	5.675858	1.923033	0.000227
  11	9.9500e-01	0.4011	74.271186	0.000669	6.689405	2.266432	0.000268
  12	1.0945e+00	0.4203	74.501303	0.000578	5.777213	1.957373	0.000231
  13	1.1940e+00	0.4700	74.783902	0.000709	7.094823	2.403791	0.000284
  14	1.2935e+00	0.5053	75.054391	0.000679	6.790759	2.300772	0.000272
  15	1.3930e+00	0.5454	75.320841	0.000669	6.689405	2.266432	0.000268
  16	1.4925e+00	0.5920	75.583255	0.000659	6.588050	2.232092	0.000264
  17	1.5920e+00	0.6369	75.829521	0.000618	6.182632	2.094732	0.000248
  18	1.6915e+00	0.6625	76.144417	0.000791	7.905660	2.678510	0.000316
  19	1.7910e+00	0.7059	76.346274	0.000507	5.067731	1.716994	0.000203
  20	1.8905e+00	0.7572	76.653096	0.000770	7.702951	2.609830	0.000308
  21	1.9900e+00	0.7909	76.883213	0.000578	5.777213	1.957373	0.000231
  22	2.0895e+00	0.8198	77.226370	0.000862	8.615142	2.918889	0.000345
  23	2.1890e+00	0.8679	77.472635	0.000618	6.182632	2.094732	0.000248
  24	2.2885e+00	0.9160	77.799643	0.000821	8.209724	2.781530	0.000329
  25	2.3880e+00	0.9401	77.981314	0.000456	4.560958	1.545294	0.000183
  26	2.4875e+00	0.9850	78.284099	0.000760	7.601596	2.575490	0.000304
  27	2.5870e+00	1.0331	78.566699	0.000709	7.094823	2.403791	0.000284
  28	2.6865e+00	1.0572	78.817001	0.000628	6.283986	2.129072	0.000252
  29	2.7860e+00	1.1069	79.111712	0.000740	7.398887	2.506811	0.000296
  30	2.8855e+00	1.1470	79.402386	0.000730	7.297532	2.472471	0.000292
  31	2.9850e+00	1.1775	79.644614	0.000608	6.081277	2.060392	0.000243
  32	3.0845e+00	1.2224	79.902991	0.000649	6.486695	2.197752	0.000260
  33	3.1840e+00	1.2689	80.234036	0.000831	8.311078	2.815870	0.000333
  34	3.2835e+00	1.3026	80.468190	0.000588	5.878568	1.991713	0.000235
  35	3.3830e+00	1.3476	80.770975	0.000760	7.601596	2.575490	0.000304
  36	3.4825e+00	1.3796	81.069723	0.000750	7.500242	2.541151	0.000300
  37	3.5820e+00	1.4310	81.344248	0.000689	6.892114	2.335111	0.000276
  38	3.6815e+00	1.4695	81.610699	0.000669	6.689405	2.266432	0.000268
  39	3.7810e+00	1.5144	81.925596	0.000791	7.905660	2.678510	0.000316
  40	3.8805e+00	1.5497	82.196084	0.000679	6.790759	2.300772	0.000272
  41	3.9800e+00	1.5946	82.446386	0.000628	6.283986	2.129072	0.000252
  42	4.0795e+00	1.6251	82.745134	0.000750	7.500242	2.541151	0.000300
  43	4.1790e+00	1.6668	83.051956	0.000770	7.702951	2.609830	0.000308
  44	4.2785e+00	1.7005	83.306296	0.000639	6.385341	2.163412	0.000256
  45	4.3780e+00	1.7454	83.592933	0.000720	7.196178	2.438131	0.000288
  46	4.4775e+00	1.7791	83.871495	0.000699	6.993468	2.369451	0.000280
  47	4.5770e+00	1.8272	84.174280	0.000760	7.601596	2.575490	0.000304
  48	4.6765e+00	1.8673	84.436694	0.000659	6.588050	2.232092	0.000264
  49	4.7760e+00	1.9058	84.775813	0.000851	8.513788	2.884549	0.000341
  50	4.8755e+00	1.9411	84.997856	0.000557	5.574504	1.888693	0.000223
  51	4.9750e+00	1.9828	85.353124	0.000892	8.919206	3.021909	0.000357
  52	5.0745e+00	2.0229	85.615538	0.000659	6.588050	2.232092	0.000264
  53	5.1740e+00	2.0679	85.886026	0.000679	6.790759	2.300772	0.000272
  54	5.2735e+00	2.1080	86.172662	0.000720	7.196178	2.438131	0.000288
  55	5.3730e+00	2.1400	86.455262	0.000709	7.094823	2.403791	0.000284
  56	5.4725e+00	2.1866	86.806493	0.000882	8.817852	2.987569	0.000353
  57	5.5720e+00	2.2251	87.036609	0.000578	5.777213	1.957373	0.000231
  58	5.6715e+00	2.2636	87.355543	0.000801	8.007015	2.712850	0.000321
  59	5.7710e+00	2.3021	87.613920	0.000649	6.486695	2.197752	0.000260
  60	5.8705e+00	2.3422	87.924779	0.000780	7.804305	2.644170	0.000312
  61	5.9700e+00	2.3791	88.239676	0.000791	7.905660	2.678510	0.000316
  62	6.0695e+00	2.4288	88.530350	0.000730	7.297532	2.472471	0.000292
  63	6.1690e+00	2.4561	88.792763	0.000659	6.588050	2.232092	0.000264
  64	6.2685e+00	2.5074	89.131883	0.000851	8.513788	2.884549	0.000341
  65	6.3680e+00	2.5427	89.382185	0.000628	6.283986	2.129072	0.000252
  66	6.4675e+00	2.5876	89.725342	0.000862	8.615142	2.918889	0.000345
  67	6.5670e+00	2.6277	90.007941	0.000709	7.094823	2.403791	0.000284
  68	6.6665e+00	2.6518	90.278429	0.000679	6.790759	2.300772	0.000272
  69	6.7660e+00	2.7015	90.569103	0.000730	7.297532	2.472471	0.000292
  70	6.8655e+00	2.7464	90.871888	0.000760	7.601596	2.575490	0.000304
  71	6.9650e+00	2.7769	91.190822	0.000801	8.007015	2.712850	0.000321
  72	7.0645e+00	2.8234	91.501682	0.000780	7.804305	2.644170	0.000312
  73	7.1640e+00	2.8555	91.747947	0.000618	6.182632	2.094732	0.000248
  74	7.2635e+00	2.9101	92.087066	0.000851	8.513788	2.884549	0.000341
  75	7.3630e+00	2.9470	92.377740	0.000730	7.297532	2.472471	0.000292
  76	7.4625e+00	2.9855	92.660339	0.000709	7.094823	2.403791	0.000284
  77	7.5620e+00	3.0176	92.930828	0.000679	6.790759	2.300772	0.000272
  78	7.6615e+00	3.0657	93.290133	0.000902	9.020561	3.056249	0.000361
  79	7.7610e+00	3.0978	93.560621	0.000679	6.790759	2.300772	0.000272
  80	7.8605e+00	3.1395	93.887629	0.000821	8.209724	2.781530	0.000329
  81	7.9600e+00	3.1844	94.162154	0.000689	6.892114	2.335111	0.000276
  82	8.0595e+00	3.2197	94.464939	0.000760	7.601596	2.575490	0.000304
  83	8.1590e+00	3.2582	94.755613	0.000730	7.297532	2.472471	0.000292
  84	8.2585e+00	3.2919	95.038212	0.000709	7.094823	2.403791	0.000284
  85	8.3580e+00	3.3384	95.357146	0.000801	8.007015	2.712850	0.000321
  86	8.4575e+00	3.3705	95.663968	0.000770	7.702951	2.609830	0.000308
  87	8.5570e+00	3.4202	95.942531	0.000699	6.993468	2.369451	0.000280
  88	8.6565e+00	3.4587	96.233205	0.000730	7.297532	2.472471	0.000292
  89	8.7560e+00	3.5052	96.527915	0.000740	7.398887	2.506811	0.000296
  90	8.8555e+00	3.5357	96.842812	0.000791	7.905660	2.678510	0.000316
  91	8.9550e+00	3.5742	97.125412	0.000709	7.094823	2.403791	0.000284
  92	9.0545e+00	3.6256	97.416085	0.000730	7.297532	2.472471	0.000292
  93	9.1540e+00	3.6609	97.702722	0.000720	7.196178	2.438131	0.000288
  94	9.2535e+00	3.6945	98.009544	0.000770	7.702951	2.609830	0.000308
  95	9.3530e+00	3.7443	98.308292	0.000750	7.500242	2.541151	0.000300
  96	9.4525e+00	3.7683	98.594929	0.000720	7.196178	2.438131	0.000288
  97	9.5520e+00	3.8213	98.901751	0.000770	7.702951	2.609830	0.000308
  98	9.6515e+00	3.8502	99.184351	0.000709	7.094823	2.403791	0.000284
  99	9.7510e+00	3.8903	99.495210	0.000780	7.804305	2.644170	0.000312
 100	9.8505e+00	3.9352	99.777810	0.000709	7.094823	2.403791	0.000284
 101	9.9500e+00	3.9785	100.080595	0.000760	7.601596	2.575490	0.000304
 102	1.0050e+01	4.0138	100.367232	0.000720	7.196178	2.438131	0.000288
 103	1.0149e+01	4.0587	100.682128	0.000791	7.905660	2.678510	0.000316
 104	1.0248e+01	4.0956	100.984913	0.000760	7.601596	2.575490	0.000304
 105	1.0348e+01	4.1421	101.259439	0.000689	6.892114	2.335111	0.000276
 106	1.0447e+01	4.1806	101.558187	0.000750	7.500242	2.541151	0.000300
 107	1.0547e+01	4.2175	101.848860	0.000730	7.297532	2.472471	0.000292
 108	1.0646e+01	4.2560	102.147608	0.000750	7.500242	2.541151	0.000300
 109	1.0746e+01	4.2977	102.458468	0.000780	7.804305	2.644170	0.000312
 110	1.0845e+01	4.3411	102.753179	0.000740	7.398887	2.506811	0.000296
 111	1.0945e+01	4.3747	103.047890	0.000740	7.398887	2.506811	0.000296
 112	1.1044e+01	4.4148	103.350675	0.000760	7.601596	2.575490	0.000304
 113	1.1144e+01	4.4534	103.613089	0.000659	6.588050	2.232092	0.000264
 114	1.1243e+01	4.4983	103.972394	0.000902	9.020561	3.056249	0.000361
 115	1.1343e+01	4.5304	104.238845	0.000669	6.689405	2.266432	0.000268
 116	1.1443e+01	4.5737	104.537593	0.000750	7.500242	2.541151	0.000300
 117	1.1542e+01	4.6090	104.856527	0.000801	8.007015	2.712850	0.000321
 118	1.1642e+01	4.6555	105.114903	0.000649	6.486695	2.197752	0.000260
 119	1.1741e+01	4.6860	105.449985	0.000841	8.412433	2.850209	0.000337
 120	1.1841e+01	4.7373	105.728548	0.000699	6.993468	2.369451	0.000280
 121	1.1940e+01	4.7710	106.023259	0.000740	7.398887	2.506811	0.000296
 122	1.2040e+01	4.8063	106.277598	0.000639	6.385341	2.163412	0.000256
 123	1.2139e+01	4.8512	106.608643	0.000831	8.311078	2.815870	0.000333
 124	1.2239e+01	4.8913	106.911429	0.000760	7.601596	2.575490	0.000304
 125	1.2338e+01	4.9346	107.198065	0.000720	7.196178	2.438131	0.000288
 126	1.2438e+01	4.9699	107.488739	0.000730	7.297532	2.472471	0.000292
 127	1.2537e+01	5.0116	107.811710	0.000811	8.108369	2.747190	0.000325
 128	1.2636e+01	5.0533	108.090272	0.000699	6.993468	2.369451	0.000280
 129	1.2736e+01	5.0918	108.364797	0.000689	6.892114	2.335111	0.000276
 130	1.2835e+01	5.1351	108.647397	0.000709	7.094823	2.403791	0.000284
 131	1.2935e+01	5.1576	108.966331	0.000801	8.007015	2.712850	0.000321
 132	1.3034e+01	5.2186	109.289302	0.000811	8.108369	2.747190	0.000325
 133	1.3134e+01	5.2507	109.567864	0.000699	6.993468	2.369451	0.000280
 134	1.3233e+01	5.2843	109.838352	0.000679	6.790759	2.300772	0.000272
 135	1.3333e+01	5.3277	110.149211	0.000780	7.804305	2.644170	0.000312
 136	1.3432e+01	5.3774	110.431811	0.000709	7.094823	2.403791	0.000284
 137	1.3532e+01	5.4079	110.750745	0.000801	8.007015	2.712850	0.000321
 138	1.3632e+01	5.4544	111.017196	0.000669	6.689405	2.266432	0.000268
 139	1.3731e+01	5.4897	111.283647	0.000669	6.689405	2.266432	0.000268
 140	1.3831e+01	5.5330	111.618729	0.000841	8.412433	2.850209	0.000337
 141	1.3930e+01	5.5827	111.897291	0.000699	6.993468	2.369451	0.000280
 142	1.4030e+01	5.6100	112.192002	0.000740	7.398887	2.506811	0.000296
 143	1.4129e+01	5.6453	112.470565	0.000699	6.993468	2.369451	0.000280
 144	1.4229e+01	5.6886	112.737015	0.000669	6.689405	2.266432	0.000268
 145	1.4328e+01	5.7335	113.072098	0.000841	8.412433	2.850209	0.000337
 146	1.4428e+01	5.7688	113.346623	0.000689	6.892114	2.335111	0.000276
 147	1.4527e+01	5.8089	113.617111	0.000679	6.790759	2.300772	0.000272
 148	1.4627e+01	5.8490	113.887599	0.000679	6.790759	2.300772	0.000272
 149	1.4726e+01	5.8972	114.234793	0.000872	8.716497	2.953229	0.000349
 150	1.4825e+01	5.9341	114.464910	0.000578	5.777213	1.957373	0.000231
 151	1.4925e+01	5.9742	114.791918	0.000821	8.209724	2.781530	0.000329
 152	1.5024e+01	6.0095	115.046257	0.000639	6.385341	2.163412	0.000256
 153	1.5124e+01	6.0496	115.345005	0.000750	7.500242	2.541151	0.000300
 154	1.5223e+01	6.0993	115.615493	0.000679	6.790759	2.300772	0.000272
 155	1.5323e+01	6.1234	115.942501	0.000821	8.209724	2.781530	0.000329
 156	1.5422e+01	6.1683	116.172618	0.000578	5.777213	1.957373	0.000231
 157	1.5522e+01	6.2068	116.479440	0.000770	7.702951	2.609830	0.000308
 158	1.5621e+01	6.2421	116.762040	0.000709	7.094823	2.403791	0.000284
 159	1.5721e+01	6.2934	117.060788	0.000750	7.500242	2.541151	0.000300
 160	1.5820e+01	6.3239	117.359536	0.000750	7.500242	2.541151	0.000300
 161	1.5920e+01	6.3816	117.601764	0.000608	6.081277	2.060392	0.000243
 162	1.6020e+01	6.4089	117.900512	0.000750	7.500242	2.541151	0.000300
 163	1.6119e+01	6.4586	118.171000	0.000679	6.790759	2.300772	0.000272
 164	1.6218e+01	6.4875	118.477823	0.000770	7.702951	2.609830	0.000308
 165	1.6318e+01	6.5276	118.744273	0.000669	6.689405	2.266432	0.000268
 166	1.6418e+01	6.5645	119.022836	0.000699	6.993468	2.369451	0.000280
 167	1.6517e+01	6.6062	119.289287	0.000669	6.689405	2.266432	0.000268
 168	1.6616e+01	6.6511	119.583998	0.000740	7.398887	2.506811	0.000296
 169	1.6716e+01	6.6848	119.882746	0.000750	7.500242	2.541151	0.000300
 170	1.6816e+01	6.7282	120.173420	0.000730	7.297532	2.472471	0.000292
 171	1.6915e+01	6.7683	120.419685	0.000618	6.182632	2.094732	0.000248
 172	1.7015e+01	6.8068	120.734581	0.000791	7.905660	2.678510	0.000316
 173	1.7114e+01	6.8469	120.980847	0.000618	6.182632	2.094732	0.000248
 174	1.7213e+01	6.8870	121.279595	0.000750	7.500242	2.541151	0.000300
 175	1.7313e+01	6.9142	121.566231	0.000720	7.196178	2.438131	0.000288
 176	1.7413e+01	6.9608	121.877091	0.000780	7.804305	2.644170	0.000312
 177	1.7512e+01	6.9993	122.091059	0.000537	5.371795	1.820013	0.000215
 178	1.7611e+01	7.0330	122.409993	0.000801	8.007015	2.712850	0.000321
 179	1.7711e+01	7.0891	122.668369	0.000649	6.486695	2.197752	0.000260
 180	1.7811e+01	7.1164	122.991340	0.000811	8.108369	2.747190	0.000325
 181	1.7910e+01	7.1613	123.265865	0.000689	6.892114	2.335111	0.000276
 182	1.8009e+01	7.2062	123.491945	0.000568	5.675858	1.923033	0.000227
 183	1.8109e+01	7.2367	123.831064	0.000851	8.513788	2.884549	0.000341
 184	1.8209e+01	7.2896	124.065218	0.000588	5.878568	1.991713	0.000235
 185	1.8308e+01	7.3265	124.359929	0.000740	7.398887	2.506811	0.000296
 186	1.8407e+01	7.3666	124.606195	0.000618	6.182632	2.094732	0.000248
 187	1.8507e+01	7.4003	124.900905	0.000740	7.398887	2.506811	0.000296
 188	1.8607e+01	7.4549	125.131022	0.000578	5.777213	1.957373	0.000231
 189	1.8706e+01	7.4886	125.449956	0.000801	8.007015	2.712850	0.000321
 190	1.8805e+01	7.5206	125.724481	0.000689	6.892114	2.335111	0.000276
 191	1.8905e+01	7.5527	125.954598	0.000578	5.777213	1.957373	0.000231
 192	1.9005e+01	7.5960	126.277569	0.000811	8.108369	2.747190	0.000325
 193	1.9104e+01	7.6394	126.552094	0.000689	6.892114	2.335111	0.000276
 194	1.9203e+01	7.6907	126.798359	0.000618	6.182632	2.094732	0.000248
 195	1.9303e+01	7.7164	127.084996	0.000720	7.196178	2.438131	0.000288
 196	1.9402e+01	7.7581	127.339335	0.000639	6.385341	2.163412	0.000256
 197	1.9502e+01	7.7982	127.634046	0.000740	7.398887	2.506811	0.000296
 198	1.9602e+01	7.8383	127.880312	0.000618	6.182632	2.094732	0.000248
 199	1.9701e+01	7.8768	128.170985	0.000730	7.297532	2.472471	0.000292
 200	1.9800e+01	7.9217	128.388991	0.000547	5.473149	1.854353	0.000219
 201	1.9900e+01	7.9586	128.695813	0.000770	7.702951	2.609830	0.000308
 202	2.0000e+01	8.0003	128.962264	0.000669	6.689405	2.266432	0.000268
 203	2.0099e+01	8.0340	129.248901	0.000720	7.196178	2.438131	0.000288
 204	2.0198e+01	8.0741	129.491129	0.000608	6.081277	2.060392	0.000243
 205	2.0298e+01	8.1158	129.729320	0.000598	5.979922	2.026053	0.000239
 206	2.0398e+01	8.1591	130.024031	0.000740	7.398887	2.506811	0.000296
 207	2.0497e+01	8.1944	130.294519	0.000679	6.790759	2.300772	0.000272
 208	2.0596e+01	8.2377	130.516561	0.000557	5.574504	1.888693	0.000223
 209	2.0696e+01	8.2843	130.827421	0.000780	7.804305	2.644170	0.000312
 210	2.0796e+01	8.3212	131.069649	0.000608	6.081277	2.060392	0.000243
 211	2.0895e+01	8.3468	131.352248	0.000709	7.094823	2.403791	0.000284
 212	2.0994e+01	8.3966	131.602551	0.000628	6.283986	2.129072	0.000252
 213	2.1094e+01	8.4351	131.913410	0.000780	7.804305	2.644170	0.000312
 214	2.1194e+01	8.4832	132.131416	0.000547	5.473149	1.854353	0.000219
 215	2.1293e+01	8.5153	132.389792	0.000649	6.486695	2.197752	0.000260
 216	2.1392e+01	8.5522	132.652206	0.000659	6.588050	2.232092	0.000264
 217	2.1492e+01	8.5939	132.914620	0.000659	6.588050	2.232092	0.000264
 218	2.1591e+01	8.6404	133.205294	0.000730	7.297532	2.472471	0.000292
 219	2.1691e+01	8.6805	133.431373	0.000568	5.675858	1.923033	0.000227
 220	2.1791e+01	8.7206	133.701861	0.000679	6.790759	2.300772	0.000272
 221	2.1890e+01	8.7527	133.996572	0.000740	7.398887	2.506811	0.000296
 222	2.1989e+01	8.7992	134.234763	0.000598	5.979922	2.026053	0.000239
 223	2.2089e+01	8.8329	134.497177	0.000659	6.588050	2.232092	0.000264
 224	2.2189e+01	8.8794	134.759591	0.000659	6.588050	2.232092	0.000264
 225	2.2288e+01	8.9163	135.046228	0.000720	7.196178	2.438131	0.000288
 226	2.2387e+01	8.9532	135.288456	0.000608	6.081277	2.060392	0.000243
 227	2.2487e+01	8.9901	135.526647	0.000598	5.979922	2.026053	0.000239
 228	2.2587e+01	9.0302	135.813283	0.000720	7.196178	2.438131	0.000288
 229	2.2686e+01	9.0719	136.071660	0.000649	6.486695	2.197752	0.000260
 230	2.2785e+01	9.1169	136.334074	0.000659	6.588050	2.232092	0.000264
 231	2.2885e+01	9.1538	136.592451	0.000649	6.486695	2.197752	0.000260
 232	2.2985e+01	9.1955	136.850827	0.000649	6.486695	2.197752	0.000260
 233	2.3084e+01	9.2436	137.093055	0.000608	6.081277	2.060392	0.000243
 234	2.3183e+01	9.2757	137.371618	0.000699	6.993468	2.369451	0.000280
 235	2.3283e+01	9.3158	137.613846	0.000608	6.081277	2.060392	0.000243
 236	2.3383e+01	9.3511	137.868185	0.000639	6.385341	2.163412	0.000256
 237	2.3482e+01	9.4008	138.114451	0.000618	6.182632	2.094732	0.000248
 238	2.3581e+01	9.4425	138.393013	0.000699	6.993468	2.369451	0.000280
 239	2.3681e+01	9.4762	138.639278	0.000618	6.182632	2.094732	0.000248
 240	2.3780e+01	9.5067	138.901692	0.000659	6.588050	2.232092	0.000264
 241	2.3880e+01	9.5580	139.139883	0.000598	5.979922	2.026053	0.000239
 242	2.3980e+01	9.5917	139.438631	0.000750	7.500242	2.541151	0.000300
 243	2.4079e+01	9.6382	139.684897	0.000618	6.182632	2.094732	0.000248
 244	2.4178e+01	9.6751	139.923088	0.000598	5.979922	2.026053	0.000239
 245	2.4278e+01	9.7056	140.185501	0.000659	6.588050	2.232092	0.000264
 246	2.4378e+01	9.7602	140.407544	0.000557	5.574504	1.888693	0.000223
 247	2.4477e+01	9.8035	140.698218	0.000730	7.297532	2.472471	0.000292
 248	2.4576e+01	9.8211	140.928334	0.000578	5.777213	1.957373	0.000231
 249	2.4676e+01	9.8724	141.138265	0.000527	5.270440	1.785673	0.000211
 250	2.4776e+01	9.9142	141.485459	0.000872	8.716497	2.953229	0.000349
 251	2.4875e+01	9.9575	141.723650	0.000598	5.979922	2.026053	0.000239
 252	2.4974e+01	9.9863	141.925507	0.000507	5.067731	1.716994	0.000203
 253	2.5074e+01	10.0377	142.212144	0.000720	7.196178	2.438131	0.000288
 254	2.5174e+01	10.0778	142.462446	0.000628	6.283986	2.129072	0.000252
 255	2.5273e+01	10.1115	142.700637	0.000598	5.979922	2.026053	0.000239
 256	2.5372e+01	10.1484	142.934791	0.000588	5.878568	1.991713	0.000235
 257	2.5472e+01	10.1885	143.217390	0.000709	7.094823	2.403791	0.000284
 258	2.5572e+01	10.2334	143.471730	0.000639	6.385341	2.163412	0.000256
 259	2.5671e+01	10.2719	143.701847	0.000578	5.777213	1.957373	0.000231
 260	2.5770e+01	10.3120	143.996558	0.000740	7.398887	2.506811	0.000296
 261	2.5870e+01	10.3537	144.162080	0.000416	4.155539	1.407935	0.000166
 262	2.5970e+01	10.3906	144.444680	0.000709	7.094823	2.403791	0.000284
 263	2.6069e+01	10.4291	144.674796	0.000578	5.777213	1.957373	0.000231
 264	2.6169e+01	10.4708	144.965470	0.000730	7.297532	2.472471	0.000292
 265	2.6268e+01	10.5238	145.252107	0.000720	7.196178	2.438131	0.000288
 266	2.6367e+01	10.5526	145.486261	0.000588	5.878568	1.991713	0.000235
 267	2.6467e+01	10.5927	145.700229	0.000537	5.371795	1.820013	0.000215
 268	2.6567e+01	10.6393	145.946494	0.000618	6.182632	2.094732	0.000248
 269	2.6666e+01	10.6714	146.188722	0.000608	6.081277	2.060392	0.000243
 270	2.6765e+01	10.7099	146.439025	0.000628	6.283986	2.129072	0.000252
 271	2.6865e+01	10.7403	146.673178	0.000588	5.878568	1.991713	0.000235
 272	2.6965e+01	10.7933	146.939629	0.000669	6.689405	2.266432	0.000268
 273	2.7064e+01	10.8254	147.145523	0.000517	5.169085	1.751334	0.000207
 274	2.7163e+01	10.8671	147.428123	0.000709	7.094823	2.403791	0.000284
 275	2.7263e+01	10.9008	147.686500	0.000649	6.486695	2.197752	0.000260
 276	2.7363e+01	10.9537	147.920653	0.000588	5.878568	1.991713	0.000235
 277	2.7462e+01	10.9970	148.150770	0.000578	5.777213	1.957373	0.000231
 278	2.7561e+01	11.0403	148.425295	0.000689	6.892114	2.335111	0.000276
 279	2.7661e+01	11.0708	148.651375	0.000568	5.675858	1.923033	0.000227
 280	2.7761e+01	11.1045	148.950123	0.000750	7.500242	2.541151	0.000300
 281	2.7860e+01	11.1494	149.168128	0.000547	5.473149	1.854353	0.000219
 282	2.7959e+01	11.1975	149.398245	0.000578	5.777213	1.957373	0.000231
 283	2.8059e+01	11.2328	149.660659	0.000659	6.588050	2.232092	0.000264
 284	2.8159e+01	11.2617	149.914998	0.000639	6.385341	2.163412	0.000256
 285	2.8258e+01	11.3163	150.133004	0.000547	5.473149	1.854353	0.000219
 286	2.8358e+01	11.3516	150.391381	0.000649	6.486695	2.197752	0.000260
 287	2.8457e+01	11.3917	150.661869	0.000679	6.790759	2.300772	0.000272
 288	2.8556e+01	11.4286	150.847577	0.000466	4.662312	1.579634	0.000187
 289	2.8656e+01	11.4638	151.130176	0.000709	7.094823	2.403791	0.000284
 290	2.8756e+01	11.5088	151.364330	0.000588	5.878568	1.991713	0.000235
 291	2.8855e+01	11.5505	151.610596	0.000618	6.182632	2.094732	0.000248
 292	2.8954e+01	11.5922	151.852824	0.000608	6.081277	2.060392	0.000243
 293	2.9054e+01	11.6243	152.086978	0.000588	5.878568	1.991713	0.000235
 294	2.9154e+01	11.6724	152.325169	0.000598	5.979922	2.026053	0.000239
 295	2.9253e+01	11.7093	152.551248	0.000568	5.675858	1.923033	0.000227
 296	2.9352e+01	11.7494	152.793476	0.000608	6.081277	2.060392	0.000243
 297	2.9452e+01	11.7831	153.084150	0.000730	7.297532	2.472471	0.000292
 298	2.9552e+01	11.8184	153.314267	0.000578	5.777213	1.957373	0.000231
 299	2.9651e+01	11.8649	153.584755	0.000679	6.790759	2.300772	0.000272
 300	2.9750e+01	11.9050	153.758352	0.000436	4.358248	1.476615	0.000174
 301	2.9850e+01	11.9451	154.036914	0.000699	6.993468	2.369451	0.000280
 302	2.9950e+01	11.9868	154.246845	0.000527	5.270440	1.785673	0.000211
 303	3.0049e+01	12.0285	154.485036	0.000598	5.979922	2.026053	0.000239
 304	3.0148e+01	12.0638	154.751487	0.000669	6.689405	2.266432	0.000268
 305	3.0248e+01	12.1136	154.973530	0.000557	5.574504	1.888693	0.000223
 306	3.0348e+01	12.1537	155.179423	0.000517	5.169085	1.751334	0.000207
 307	3.0447e+01	12.1841	155.474134	0.000740	7.398887	2.506811	0.000296
 308	3.0547e+01	12.2323	155.688103	0.000537	5.371795	1.820013	0.000215
 309	3.0646e+01	12.2612	155.906108	0.000547	5.473149	1.854353	0.000219
 310	3.0745e+01	12.3077	156.160447	0.000639	6.385341	2.163412	0.000256
 311	3.0845e+01	12.3462	156.398638	0.000598	5.979922	2.026053	0.000239
 312	3.0945e+01	12.3911	156.640867	0.000608	6.081277	2.060392	0.000243
 313	3.1044e+01	12.4280	156.866946	0.000568	5.675858	1.923033	0.000227
 314	3.1143e+01	12.4777	157.093026	0.000568	5.675858	1.923033	0.000227
 315	3.1243e+01	12.5098	157.367551	0.000689	6.892114	2.335111	0.000276
 316	3.1343e+01	12.5467	157.541148	0.000436	4.358248	1.476615	0.000174
 317	3.1442e+01	12.5836	157.807599	0.000669	6.689405	2.266432	0.000268
 318	3.1541e+01	12.6157	158.045790	0.000598	5.979922	2.026053	0.000239
 319	3.1641e+01	12.6686	158.267832	0.000557	5.574504	1.888693	0.000223
 320	3.1741e+01	12.7055	158.506023	0.000598	5.979922	2.026053	0.000239
 321	3.1840e+01	12.7376	158.732103	0.000568	5.675858	1.923033	0.000227
 322	3.1939e+01	12.7809	158.978368	0.000618	6.182632	2.094732	0.000248
 323	3.2039e+01	12.8258	159.200411	0.000557	5.574504	1.888693	0.000223
 324	3.2139e+01	12.8627	159.394193	0.000487	4.865022	1.648314	0.000195
 325	3.2238e+01	12.8980	159.664681	0.000679	6.790759	2.300772	0.000272
 326	3.2337e+01	12.9446	159.894798	0.000578	5.777213	1.957373	0.000231
 327	3.2437e+01	12.9782	160.084543	0.000476	4.763667	1.613974	0.000191
 328	3.2536e+01	13.0183	160.302549	0.000547	5.473149	1.854353	0.000219
 329	3.2636e+01	13.0520	160.560925	0.000649	6.486695	2.197752	0.000260
 330	3.2736e+01	13.0954	160.782968	0.000557	5.574504	1.888693	0.000223
 331	3.2835e+01	13.1387	161.017122	0.000588	5.878568	1.991713	0.000235
 332	3.2934e+01	13.1691	161.223016	0.000517	5.169085	1.751334	0.000207
 333	3.3034e+01	13.2189	161.469281	0.000618	6.182632	2.094732	0.000248
 334	3.3133e+01	13.2670	161.711509	0.000608	6.081277	2.060392	0.000243
 335	3.3233e+01	13.2911	161.921440	0.000527	5.270440	1.785673	0.000211
 336	3.3333e+01	13.3360	162.163668	0.000608	6.081277	2.060392	0.000243
 337	3.3432e+01	13.3761	162.393785	0.000578	5.777213	1.957373	0.000231
 338	3.3532e+01	13.4274	162.579493	0.000466	4.662312	1.579634	0.000187
 339	3.3631e+01	13.4627	162.874204	0.000740	7.398887	2.506811	0.000296
 340	3.3730e+01	13.5012	163.039727	0.000416	4.155539	1.407935	0.000166
 341	3.3830e+01	13.5317	163.298103	0.000649	6.486695	2.197752	0.000260
 342	3.3929e+01	13.5718	163.544369	0.000618	6.182632	2.094732	0.000248
 343	3.4029e+01	13.6264	163.782560	0.000598	5.979922	2.026053	0.000239
 344	3.4129e+01	13.6504	164.000565	0.000547	5.473149	1.854353	0.000219
 345	3.4228e+01	13.6873	164.194348	0.000487	4.865022	1.648314	0.000195
 346	3.4328e+01	13.7354	164.436576	0.000608	6.081277	2.060392	0.000243
 347	3.4427e+01	13.7772	164.662655	0.000568	5.675858	1.923033	0.000227
 348	3.4526e+01	13.8140	164.916995	0.000639	6.385341	2.163412	0.000256
 349	3.4626e+01	13.8526	165.118852	0.000507	5.067731	1.716994	0.000203
 350	3.4725e+01	13.8943	165.340894	0.000557	5.574504	1.888693	0.000223
 351	3.4825e+01	13.9392	165.550825	0.000527	5.270440	1.785673	0.000211
 352	3.4925e+01	13.9761	165.780942	0.000578	5.777213	1.957373	0.000231
 353	3.5024e+01	14.0178	166.031244	0.000628	6.283986	2.129072	0.000252
 354	3.5123e+01	14.0563	166.273473	0.000608	6.081277	2.060392	0.000243
 355	3.5223e+01	14.1044	166.471292	0.000497	4.966376	1.682654	0.000199
 356	3.5322e+01	14.1413	166.673149	0.000507	5.067731	1.716994	0.000203
 357	3.5422e+01	14.1750	166.923451	0.000628	6.283986	2.129072	0.000252
 358	3.5522e+01	14.2135	167.153568	0.000578	5.777213	1.957373	0.000231
 359	3.5621e+01	14.2632	167.383685	0.000578	5.777213	1.957373	0.000231
 360	3.5721e+01	14.2985	167.593616	0.000527	5.270440	1.785673	0.000211
 361	3.5820e+01	14.3258	167.807584	0.000537	5.371795	1.820013	0.000215
 362	3.5919e+01	14.3691	168.065961	0.000649	6.486695	2.197752	0.000260
 363	3.6019e+01	14.4188	168.227446	0.000405	4.054185	1.373595	0.000162
 364	3.6118e+01	14.4461	168.461600	0.000588	5.878568	1.991713	0.000235
 365	3.6218e+01	14.4926	168.691717	0.000578	5.777213	1.957373	0.000231
 366	3.6318e+01	14.5376	168.958168	0.000669	6.689405	2.266432	0.000268
 367	3.6417e+01	14.5729	169.147913	0.000476	4.763667	1.613974	0.000191
 368	3.6517e+01	14.6178	169.406290	0.000649	6.486695	2.197752	0.000260
 369	3.6616e+01	14.6595	169.583924	0.000446	4.459603	1.510954	0.000179
 370	3.6715e+01	14.6996	169.781743	0.000497	4.966376	1.682654	0.000199
 371	3.6815e+01	14.7317	170.015897	0.000588	5.878568	1.991713	0.000235
 372	3.6914e+01	14.7782	170.246014	0.000578	5.777213	1.957373	0.000231
 373	3.7014e+01	14.8151	170.459982	0.000537	5.371795	1.820013	0.000215
 374	3.7114e+01	14.8536	170.686062	0.000568	5.675858	1.923033	0.000227
 375	3.7213e+01	14.8905	170.883882	0.000497	4.966376	1.682654	0.000199
 376	3.7313e+01	14.9402	171.126110	0.000608	6.081277	2.060392	0.000243
 377	3.7412e+01	14.9803	171.360264	0.000588	5.878568	1.991713	0.000235
 378	3.7511e+01	15.0220	171.570195	0.000527	5.270440	1.785673	0.000211
 379	3.7611e+01	15.0477	171.776089	0.000517	5.169085	1.751334	0.000207
 380	3.7711e+01	15.0878	171.969871	0.000487	4.865022	1.648314	0.000195
 381	3.7810e+01	15.1279	172.244396	0.000689	6.892114	2.335111	0.000276
 382	3.7910e+01	15.1760	172.446253	0.000507	5.067731	1.716994	0.000203
 383	3.8009e+01	15.2033	172.644073	0.000497	4.966376	1.682654	0.000199
 384	3.8108e+01	15.2466	172.886301	0.000608	6.081277	2.060392	0.000243
 385	3.8208e+01	15.2915	173.112380	0.000568	5.675858	1.923033	0.000227
 386	3.8307e+01	15.3284	173.358646	0.000618	6.182632	2.094732	0.000248
 387	3.8407e+01	15.3669	173.564540	0.000517	5.169085	1.751334	0.000207
 388	3.8507e+01	15.4151	173.835028	0.000679	6.790759	2.300772	0.000272
 389	3.8606e+01	15.4504	174.020736	0.000466	4.662312	1.579634	0.000187
 390	3.8706e+01	15.4841	174.230667	0.000527	5.270440	1.785673	0.000211
 391	3.8805e+01	15.5274	174.456747	0.000568	5.675858	1.923033	0.000227
 392	3.8904e+01	15.5611	174.686863	0.000578	5.777213	1.957373	0.000231
 393	3.9004e+01	15.6060	174.876609	0.000476	4.763667	1.613974	0.000191
 394	3.9103e+01	15.6525	175.102688	0.000568	5.675858	1.923033	0.000227
 395	3.9203e+01	15.6878	175.348954	0.000618	6.182632	2.094732	0.000248
 396	3.9303e+01	15.7343	175.570996	0.000557	5.574504	1.888693	0.000223
 397	3.9402e+01	15.7664	175.813224	0.000608	6.081277	2.060392	0.000243
 398	3.9502e+01	15.8049	176.027192	0.000537	5.371795	1.820013	0.000215
 399	3.9601e+01	15.8482	176.245198	0.000547	5.473149	1.854353	0.000219
 400	3.9700e+01	15.8819	176.467240	0.000557	5.574504	1.888693	0.000223
 401	3.9800e+01	15.9300	176.677171	0.000527	5.270440	1.785673	0.000211
 402	3.9900e+01	15.9653	176.927474	0.000628	6.283986	2.129072	0.000252
 403	3.9999e+01	16.0118	177.133368	0.000517	5.169085	1.751334	0.000207
 404	4.0099e+01	16.0439	177.391744	0.000649	6.486695	2.197752	0.000260
 405	4.0198e+01	16.0840	177.581490	0.000476	4.763667	1.613974	0.000191
 406	4.0297e+01	16.1241	177.815644	0.000588	5.878568	1.991713	0.000235
 407	4.0397e+01	16.1626	178.037686	0.000557	5.574504	1.888693	0.000223
 408	4.0496e+01	16.2124	178.300100	0.000659	6.588050	2.232092	0.000264
 409	4.0596e+01	16.2541	178.534254	0.000588	5.878568	1.991713	0.000235
 410	4.0696e+01	16.2894	178.711888	0.000446	4.459603	1.510954	0.000179
 411	4.0795e+01	16.3231	178.990450	0.000699	6.993468	2.369451	0.000280
 412	4.0895e+01	16.3632	179.184233	0.000487	4.865022	1.648314	0.000195
 413	4.0994e+01	16.4097	179.422424	0.000598	5.979922	2.026053	0.000239
 414	4.1093e+01	16.4466	179.688875	0.000669	6.689405	2.266432	0.000268
 415	4.1193e+01	16.4851	179.874583	0.000466	4.662312	1.579634	0.000187
 416	4.1292e+01	16.5252	180.132959	0.000649	6.486695	2.197752	0.000260
 417	4.1392e+01	16.5653	180.350965	0.000547	5.473149	1.854353	0.000219
 418	4.1492e+01	16.6086	180.593193	0.000608	6.081277	2.060392	0.000243
 419	4.1591e+01	16.6359	180.823310	0.000578	5.777213	1.957373	0.000231
 420	4.1691e+01	16.6808	181.041315	0.000547	5.473149	1.854353	0.000219
 421	4.1790e+01	16.7257	181.239135	0.000497	4.966376	1.682654	0.000199
 422	4.1889e+01	16.7674	181.513660	0.000689	6.892114	2.335111	0.000276
 423	4.1989e+01	16.8027	181.747814	0.000588	5.878568	1.991713	0.000235
 424	4.2089e+01	16.8460	181.921411	0.000436	4.358248	1.476615	0.000174
 425	4.2188e+01	16.8813	182.208047	0.000720	7.196178	2.438131	0.000288
 426	4.2288e+01	16.9327	182.454313	0.000618	6.182632	2.094732	0.000248
 427	4.2387e+01	16.9712	182.692504	0.000598	5.979922	2.026053	0.000239
 428	4.2486e+01	17.0065	182.910509	0.000547	5.473149	1.854353	0.000219
 429	4.2586e+01	17.0434	183.120440	0.000527	5.270440	1.785673	0.000211
 430	4.2685e+01	17.0915	183.358631	0.000598	5.979922	2.026053	0.000239
 431	4.2785e+01	17.1268	183.596822	0.000598	5.979922	2.026053	0.000239
 432	4.2885e+01	17.1621	183.847124	0.000628	6.283986	2.129072	0.000252
 433	4.2984e+01	17.2070	184.073204	0.000568	5.675858	1.923033	0.000227
 434	4.3084e+01	17.2343	184.266986	0.000487	4.865022	1.648314	0.000195
 435	4.3183e+01	17.2840	184.549586	0.000709	7.094823	2.403791	0.000284
 436	4.3282e+01	17.3289	184.787777	0.000598	5.979922	2.026053	0.000239
 437	4.3382e+01	17.3642	185.017894	0.000578	5.777213	1.957373	0.000231
 438	4.3481e+01	17.4059	185.243973	0.000568	5.675858	1.923033	0.000227
 439	4.3581e+01	17.4364	185.474090	0.000578	5.777213	1.957373	0.000231
 440	4.3681e+01	17.4877	185.708244	0.000588	5.878568	1.991713	0.000235
 441	4.3780e+01	17.5246	185.970658	0.000659	6.588050	2.232092	0.000264
 442	4.3880e+01	17.5712	186.237109	0.000669	6.689405	2.266432	0.000268
 443	4.3979e+01	17.6016	186.447040	0.000527	5.270440	1.785673	0.000211
 444	4.4078e+01	17.6434	186.685231	0.000598	5.979922	2.026053	0.000239
 445	4.4178e+01	17.6867	186.955719	0.000679	6.790759	2.300772	0.000272
 446	4.4278e+01	17.7252	187.165650	0.000527	5.270440	1.785673	0.000211
 447	4.4377e+01	17.7556	187.452287	0.000720	7.196178	2.438131	0.000288
 448	4.4477e+01	17.8070	187.670292	0.000547	5.473149	1.854353	0.000219
 449	4.4576e+01	17.8471	187.965003	0.000740	7.398887	2.506811	0.000296
 450	4.4675e+01	17.8824	188.178971	0.000537	5.371795	1.820013	0.000215
 451	4.4775e+01	17.9257	188.413125	0.000588	5.878568	1.991713	0.000235
 452	4.4874e+01	17.9578	188.663427	0.000628	6.283986	2.129072	0.000252
 453	4.4974e+01	18.0011	188.925841	0.000659	6.588050	2.232092	0.000264
 454	4.5074e+01	18.0428	189.188255	0.000659	6.588050	2.232092	0.000264
 455	4.5173e+01	18.0765	189.398186	0.000527	5.270440	1.785673	0.000211
 456	4.5273e+01	18.1182	189.672711	0.000689	6.892114	2.335111	0.000276
 457	4.5372e+01	18.1631	189.943199	0.000679	6.790759	2.300772	0.000272
 458	4.5471e+01	18.2096	190.209650	0.000669	6.689405	2.266432	0.000268
 459	4.5571e+01	18.2433	190.443804	0.000588	5.878568	1.991713	0.000235
 460	4.5670e+01	18.2786	190.677958	0.000588	5.878568	1.991713	0.000235
 461	4.5770e+01	18.3300	190.968632	0.000730	7.297532	2.472471	0.000292
 462	4.5870e+01	18.3572	191.198749	0.000578	5.777213	1.957373	0.000231
 463	4.5969e+01	18.4038	191.469237	0.000679	6.790759	2.300772	0.000272
 464	4.6069e+01	18.4423	191.735688	0.000669	6.689405	2.266432	0.000268
 465	4.6168e+01	18.4776	192.006176	0.000679	6.790759	2.300772	0.000272
 466	4.6267e+01	18.5321	192.224181	0.000547	5.473149	1.854353	0.000219
 467	4.6367e+01	18.5706	192.526966	0.000760	7.601596	2.575490	0.000304
 468	4.6467e+01	18.5963	192.736897	0.000527	5.270440	1.785673	0.000211
 469	4.6566e+01	18.6348	193.039682	0.000760	7.601596	2.575490	0.000304
 470	4.6666e+01	18.6717	193.265762	0.000568	5.675858	1.923033	0.000227
 471	4.6765e+01	18.7198	193.528176	0.000659	6.588050	2.232092	0.000264
 472	4.6864e+01	18.7583	193.786553	0.000649	6.486695	2.197752	0.000260
 473	4.6964e+01	18.7952	194.044929	0.000649	6.486695	2.197752	0.000260
 474	4.7063e+01	18.8417	194.335603	0.000730	7.297532	2.472471	0.000292
 475	4.7163e+01	18.8786	194.573794	0.000598	5.979922	2.026053	0.000239
 476	4.7263e+01	18.9107	194.840245	0.000669	6.689405	2.266432	0.000268
 477	4.7362e+01	18.9588	195.122844	0.000709	7.094823	2.403791	0.000284
 478	4.7462e+01	18.9989	195.385258	0.000659	6.588050	2.232092	0.000264
 479	4.7561e+01	19.0422	195.615375	0.000578	5.777213	1.957373	0.000231
 480	4.7660e+01	19.0775	195.938346	0.000811	8.108369	2.747190	0.000325
 481	4.7760e+01	19.1209	196.140203	0.000507	5.067731	1.716994	0.000203
 482	4.7859e+01	19.1626	196.495471	0.000892	8.919206	3.021909	0.000357
 483	4.7959e+01	19.1979	196.737699	0.000608	6.081277	2.060392	0.000243
 484	4.8059e+01	19.2380	197.004150	0.000669	6.689405	2.266432	0.000268
 485	4.8158e+01	19.2797	197.302898	0.000750	7.500242	2.541151	0.000300
 486	4.8258e+01	19.3198	197.569349	0.000669	6.689405	2.266432	0.000268
 487	4.8357e+01	19.3535	197.827725	0.000649	6.486695	2.197752	0.000260
 488	4.8456e+01	19.3920	198.130511	0.000760	7.601596	2.575490	0.000304
 489	4.8556e+01	19.4353	198.360627	0.000578	5.777213	1.957373	0.000231
 490	4.8656e+01	19.4754	198.655338	0.000740	7.398887	2.506811	0.000296
 491	4.8755e+01	19.5139	198.937938	0.000709	7.094823	2.403791	0.000284
 492	4.8855e+01	19.5524	199.220537	0.000709	7.094823	2.403791	0.000284
 493	4.8954e+01	19.5973	199.507174	0.000720	7.196178	2.438131	0.000288
 494	4.9053e+01	19.6358	199.805922	0.000750	7.500242	2.541151	0.000300
 495	4.9153e+01	19.6727	200.088521	0.000709	7.094823	2.403791	0.000284
 496	4.9252e+01	19.7160	200.419567	0.000831	8.311078	2.815870	0.000333
 497	4.9352e+01	19.7481	200.665832	0.000618	6.182632	2.094732	0.000248
 498	4.9452e+01	19.7930	201.004951	0.000851	8.513788	2.884549	0.000341
 499	4.9551e+01	19.8283	201.283514	0.000699	6.993468	2.369451	0.000280
 500	4.9651e+01	19.8604	201.574187	0.000730	7.297532	2.472471	0.000292
 501	4.9750e+01	19.9085	201.885047	0.000780	7.804305	2.644170	0.000312
 502	4.9849e+01	19.9647	202.191869	0.000770	7.702951	2.609830	0.000308
 503	4.9949e+01	19.9839	202.486580	0.000740	7.398887	2.506811	0.000296
 504	5.0048e+01	19.9534	202.530989	-0.000111	-1.114901	-0.377739	0.000045
 505	5.0148e+01	19.9085	202.583471	-0.000132	-1.317610	-0.446418	0.000053
 506	5.0248e+01	19.8700	202.571360	0.000030	0.304064	0.103020	-0.000012
 507	5.0347e+01	19.8315	202.583471	-0.000030	-0.304064	-0.103020	0.000012
 508	5.0447e+01	19.7962	202.611731	-0.000071	-0.709482	-0.240379	0.000028
 509	5.0546e+01	19.7529	202.615768	-0.000010	-0.101355	-0.034340	0.000004
 510	5.0645e+01	19.7192	202.583471	0.000081	0.810837	0.274719	-0.000032
 511	5.0745e+01	19.6711	202.611731	-0.000071	-0.709482	-0.240379	0.000028
 512	5.0844e+01	19.6310	202.635954	-0.000061	-0.608128	-0.206039	0.000024
 513	5.0944e+01	19.5941	202.607694	0.000071	0.709482	0.240379	-0.000028
 514	5.1044e+01	19.5572	202.607694	-0.000000	-0.000000	-0.000000	0.000000
 515	5.1143e+01	19.5155	202.652103	-0.000111	-1.114901	-0.377739	0.000045
 516	5.1242e+01	19.4850	202.627880	0.000061	0.608128	0.206039	-0.000024
 517	5.1342e+01	19.4257	202.635954	-0.000020	-0.202709	-0.068680	0.000008
 518	5.1441e+01	19.4000	202.627880	0.000020	0.202709	0.068680	-0.000008
 519	5.1541e+01	19.3519	202.631917	-0.000010	-0.101355	-0.034340	0.000004
 520	5.1641e+01	19.3214	202.631917	-0.000000	-0.000000	-0.000000	0.000000
 521	5.1740e+01	19.2700	202.607694	0.000061	0.608128	0.206039	-0.000024
 522	5.1840e+01	19.2380	202.623843	-0.000041	-0.405418	-0.137359	0.000016
 523	5.1939e+01	19.1930	202.603657	0.000051	0.506773	0.171699	-0.000020
 524	5.2038e+01	19.1642	202.599620	0.000010	0.101355	0.034340	-0.000004
 525	5.2138e+01	19.1144	202.627880	-0.000071	-0.709482	-0.240379	0.000028
 526	5.2237e+01	19.0823	202.595583	0.000081	0.810837	0.274719	-0.000032
 527	5.2337e+01	19.0326	202.611731	-0.000041	-0.405418	-0.137359	0.000016
 528	5.2437e+01	18.9925	202.587508	0.000061	0.608128	0.206039	-0.000024
 529	5.2536e+01	18.9588	202.579434	0.000020	0.202709	0.068680	-0.000008
 530	5.2636e+01	18.9187	202.571360	0.000020	0.202709	0.068680	-0.000008
 531	5.2735e+01	18.8802	202.547137	0.000061	0.608128	0.206039	-0.000024
 532	5.2834e+01	18.8369	202.567323	-0.000051	-0.506773	-0.171699	0.000020
 533	5.2934e+01	18.8032	202.539063	0.000071	0.709482	0.240379	-0.000028
 534	5.3033e+01	18.7647	202.522914	0.000041	0.405418	0.137359	-0.000016
 535	5.3133e+01	18.7214	202.514840	0.000020	0.202709	0.068680	-0.000008
 536	5.3233e+01	18.6733	202.458320	0.000142	1.418965	0.480758	-0.000057
 537	5.3332e+01	18.6364	202.446209	0.000030	0.304064	0.103020	-0.000012
 538	5.3431e+01	18.5947	202.417949	0.000071	0.709482	0.240379	-0.000028
 539	5.3531e+01	18.5578	202.450246	-0.000081	-0.810837	-0.274719	0.000032
 540	5.3630e+01	18.5225	202.409874	0.000101	1.013546	0.343399	-0.000041
 541	5.3730e+01	18.4776	202.397763	0.000030	0.304064	0.103020	-0.000012
 542	5.3830e+01	18.4407	202.357392	0.000101	1.013546	0.343399	-0.000041
 543	5.3929e+01	18.4038	202.349317	0.000020	0.202709	0.068680	-0.000008
 544	5.4029e+01	18.3572	202.353355	-0.000010	-0.101355	-0.034340	0.000004
 545	5.4128e+01	18.3235	202.333169	0.000051	0.506773	0.171699	-0.000020
 546	5.4227e+01	18.2786	202.317020	0.000041	0.405418	0.137359	-0.000016
 547	5.4327e+01	18.2321	202.268575	0.000122	1.216255	0.412078	-0.000049
 548	5.4426e+01	18.2000	202.268575	-0.000000	-0.000000	-0.000000	0.000000
 549	5.4526e+01	18.1711	202.248389	0.000051	0.506773	0.171699	-0.000020
 550	5.4626e+01	18.1150	202.236278	0.000030	0.304064	0.103020	-0.000012
 551	5.4725e+01	18.0781	202.187832	0.000122	1.216255	0.412078	-0.000049
 552	5.4825e+01	18.0444	202.171683	0.000041	0.405418	0.137359	-0.000016
 553	5.4924e+01	18.0091	202.139386	0.000081	0.810837	0.274719	-0.000032
 554	5.5023e+01	17.9674	202.147461	-0.000020	-0.202709	-0.068680	0.000008
 555	5.5123e+01	17.9273	202.094978	0.000132	1.317610	0.446418	-0.000053
 556	5.5222e+01	17.8824	202.078829	0.000041	0.405418	0.137359	-0.000016
 557	5.5322e+01	17.8375	202.074792	0.000010	0.101355	0.034340	-0.000004
 558	5.5422e+01	17.7990	202.062681	0.000030	0.304064	0.103020	-0.000012
 559	5.5521e+01	17.7637	202.030384	0.000081	0.810837	0.274719	-0.000032
 560	5.5620e+01	17.7171	202.038458	-0.000020	-0.202709	-0.068680	0.000008
 561	5.5720e+01	17.6819	202.026347	0.000030	0.304064	0.103020	-0.000012
 562	5.5819e+01	17.6385	202.018272	0.000020	0.202709	0.068680	-0.000008
 563	5.5919e+01	17.6016	201.973864	0.000111	1.114901	0.377739	-0.000045
 564	5.6019e+01	17.5663	201.973864	-0.000000	-0.000000	-0.000000	0.000000
 565	5.6118e+01	17.5214	201.945604	0.000071	0.709482	0.240379	-0.000028
 566	5.6218e+01	17.4765	201.909270	0.000091	0.912192	0.309059	-0.000037
 567	5.6317e+01	17.4380	201.945604	-0.000091	-0.912192	-0.309059	0.000037
 568	5.6416e+01	17.3963	201.868898	0.000193	1.925738	0.652458	-0.000077
 569	5.6516e+01	17.3578	201.876973	-0.000020	-0.202709	-0.068680	0.000008
 570	5.6615e+01	17.3241	201.852750	0.000061	0.608128	0.206039	-0.000024
 571	5.6715e+01	17.2872	201.796230	0.000142	1.418965	0.480758	-0.000057
 572	5.6815e+01	17.2423	201.780081	0.000041	0.405418	0.137359	-0.000016
 573	5.6914e+01	17.2070	201.780081	-0.000000	-0.000000	-0.000000	0.000000
 574	5.7014e+01	17.1557	201.767970	0.000030	0.304064	0.103020	-0.000012
 575	5.7113e+01	17.1332	201.731636	0.000091	0.912192	0.309059	-0.000037
 576	5.7212e+01	17.0867	201.743747	-0.000030	-0.304064	-0.103020	0.000012
 577	5.7312e+01	17.0466	201.719524	0.000061	0.608128	0.206039	-0.000024
 578	5.7411e+01	17.0081	201.699339	0.000051	0.506773	0.171699	-0.000020
 579	5.7511e+01	16.9744	201.707413	-0.000020	-0.202709	-0.068680	0.000008
 580	5.7611e+01	16.9182	201.707413	-0.000000	-0.000000	-0.000000	0.000000
 581	5.7710e+01	16.8894	201.671079	0.000091	0.912192	0.309059	-0.000037
 582	5.7809e+01	16.8460	201.642819	0.000071	0.709482	0.240379	-0.000028
 583	5.7909e+01	16.8124	201.610522	0.000081	0.810837	0.274719	-0.000032
 584	5.8008e+01	16.7626	201.598410	0.000030	0.304064	0.103020	-0.000012
 585	5.8108e+01	16.7289	201.537853	0.000152	1.520319	0.515098	-0.000061
 586	5.8208e+01	16.6872	201.574187	-0.000091	-0.912192	-0.309059	0.000037
 587	5.8307e+01	16.6535	201.537853	0.000091	0.912192	0.309059	-0.000037
 588	5.8407e+01	16.6134	201.489408	0.000122	1.216255	0.412078	-0.000049
 589	5.8506e+01	16.5669	201.461148	0.000071	0.709482	0.240379	-0.000028
 590	5.8605e+01	16.5284	201.465185	-0.000010	-0.101355	-0.034340	0.000004
 591	5.8705e+01	16.4755	201.428851	0.000091	0.912192	0.309059	-0.000037
 592	5.8804e+01	16.4530	201.396553	0.000081	0.810837	0.274719	-0.000032
 593	5.8904e+01	16.3969	201.364256	0.000081	0.810837	0.274719	-0.000032
 594	5.9004e+01	16.3680	201.340034	0.000061	0.608128	0.206039	-0.000024
 595	5.9103e+01	16.3327	201.327922	0.000030	0.304064	0.103020	-0.000012
 596	5.9203e+01	16.2830	201.295625	0.000081	0.810837	0.274719	-0.000032
 597	5.9302e+01	16.2445	201.263328	0.000081	0.810837	0.274719	-0.000032
 598	5.9401e+01	16.2092	201.239105	0.000061	0.608128	0.206039	-0.000024
 599	5.9501e+01	16.1610	201.226994	0.000030	0.304064	0.103020	-0.000012
 600	5.9600e+01	16.1322	201.198734	0.000071	0.709482	0.240379	-0.000028
 601	5.9700e+01	16.0872	201.186622	0.000030	0.304064	0.103020	-0.000012
 602	5.9800e+01	16.0487	201.130102	0.000142	1.418965	0.480758	-0.000057
 603	5.9899e+01	16.0118	201.122028	0.000020	0.202709	0.068680	-0.000008
 604	5.9998e+01	15.9541	201.105880	0.000041	0.405418	0.137359	-0.000016
 605	6.0098e+01	15.9284	201.089731	0.000041	0.405418	0.137359	-0.000016
 606	6.0197e+01	15.8915	201.045323	0.000111	1.114901	0.377739	-0.000045
 607	6.0297e+01	15.8482	200.980728	0.000162	1.621674	0.549438	-0.000065
 608	6.0397e+01	15.8017	200.996877	-0.000041	-0.405418	-0.137359	0.000016
 609	6.0496e+01	15.7664	200.924209	0.000182	1.824383	0.618118	-0.000073
 610	6.0596e+01	15.7327	200.916134	0.000020	0.202709	0.068680	-0.000008
 611	6.0695e+01	15.6910	200.904023	0.000030	0.304064	0.103020	-0.000012
 612	6.0794e+01	15.6557	200.859614	0.000111	1.114901	0.377739	-0.000045
 613	6.0894e+01	15.6092	200.843466	0.000041	0.405418	0.137359	-0.000016
 614	6.0993e+01	15.5771	200.827317	0.000041	0.405418	0.137359	-0.000016
 615	6.1093e+01	15.5322	200.811169	0.000041	0.405418	0.137359	-0.000016
 616	6.1193e+01	15.4889	200.758686	0.000132	1.317610	0.446418	-0.000053
 617	6.1292e+01	15.4423	200.750612	0.000020	0.202709	0.068680	-0.000008
 618	6.1392e+01	15.4119	200.718315	0.000081	0.810837	0.274719	-0.000032
 619	6.1491e+01	15.3734	200.686018	0.000081	0.810837	0.274719	-0.000032
 620	6.1590e+01	15.3252	200.677943	0.000020	0.202709	0.068680	-0.000008
 621	6.1690e+01	15.2899	200.613349	0.000162	1.621674	0.549438	-0.000065
 622	6.1789e+01	15.2514	200.589126	0.000061	0.608128	0.206039	-0.000024
 623	6.1889e+01	15.2081	200.581052	0.000020	0.202709	0.068680	-0.000008
 624	6.1989e+01	15.1600	200.512421	0.000172	1.723028	0.583778	-0.000069
 625	6.2088e+01	15.1247	200.504346	0.000020	0.202709	0.068680	-0.000008
 626	6.2188e+01	15.0862	200.496272	0.000020	0.202709	0.068680	-0.000008
 627	6.2287e+01	15.0605	200.439752	0.000142	1.418965	0.480758	-0.000057
 628	6.2386e+01	15.0124	200.399381	0.000101	1.013546	0.343399	-0.000041
 629	6.2486e+01	14.9707	200.391307	0.000020	0.202709	0.068680	-0.000008
 630	6.2586e+01	14.9386	200.334787	0.000142	1.418965	0.480758	-0.000057
 631	6.2685e+01	14.8825	200.334787	-0.000000	-0.000000	-0.000000	0.000000
 632	6.2785e+01	14.8488	200.282304	0.000132	1.317610	0.446418	-0.000053
 633	6.2884e+01	14.8215	200.209636	0.000182	1.824383	0.618118	-0.000073
 634	6.2983e+01	14.7686	200.169264	0.000101	1.013546	0.343399	-0.000041
 635	6.3083e+01	14.7253	200.136967	0.000081	0.810837	0.274719	-0.000032
 636	6.3182e+01	14.6996	200.064299	0.000182	1.824383	0.618118	-0.000073
 637	6.3282e+01	14.6531	200.056224	0.000020	0.202709	0.068680	-0.000008
 638	6.3382e+01	14.6097	200.015853	0.000101	1.013546	0.343399	-0.000041
 639	6.3481e+01	14.5729	199.947222	0.000172	1.723028	0.583778	-0.000069
 640	6.3581e+01	14.5327	199.922999	0.000061	0.608128	0.206039	-0.000024
 641	6.3680e+01	14.4878	199.906850	0.000041	0.405418	0.137359	-0.000016
 642	6.3779e+01	14.4638	199.801885	0.000264	2.635220	0.892837	-0.000105
 643	6.3879e+01	14.4076	199.805922	-0.000010	-0.101355	-0.034340	0.000004
 644	6.3978e+01	14.3723	199.765551	0.000101	1.013546	0.343399	-0.000041
 645	6.4078e+01	14.3370	199.688845	0.000193	1.925738	0.652458	-0.000077
 646	6.4177e+01	14.3017	199.632325	0.000142	1.418965	0.480758	-0.000057
 647	6.4277e+01	14.2504	199.595991	0.000091	0.912192	0.309059	-0.000037
 648	6.4376e+01	14.2087	199.551582	0.000111	1.114901	0.377739	-0.000045
 649	6.4476e+01	14.1734	199.535434	0.000041	0.405418	0.137359	-0.000016
 650	6.4576e+01	14.1365	199.466803	0.000172	1.723028	0.583778	-0.000069
 651	6.4675e+01	14.0948	199.382023	0.000213	2.128447	0.721137	-0.000085
 652	6.4775e+01	14.0515	199.402208	-0.000051	-0.506773	-0.171699	0.000020
 653	6.4874e+01	14.0114	199.321466	0.000203	2.027092	0.686797	-0.000081
 654	6.4974e+01	13.9857	199.264946	0.000142	1.418965	0.480758	-0.000057
 655	6.5073e+01	13.9440	199.224574	0.000101	1.013546	0.343399	-0.000041
 656	6.5172e+01	13.8943	199.155943	0.000172	1.723028	0.583778	-0.000069
 657	6.5272e+01	13.8477	199.135757	0.000051	0.506773	0.171699	-0.000020
 658	6.5371e+01	13.8221	199.059052	0.000193	1.925738	0.652458	-0.000077
 659	6.5471e+01	13.7691	199.010606	0.000122	1.216255	0.412078	-0.000049
 660	6.5570e+01	13.7322	198.941975	0.000172	1.723028	0.583778	-0.000069
 661	6.5670e+01	13.6905	198.897566	0.000111	1.114901	0.377739	-0.000045
 662	6.5769e+01	13.6584	198.837009	0.000152	1.520319	0.515098	-0.000061
 663	6.5869e+01	13.6183	198.760304	0.000193	1.925738	0.652458	-0.000077
 664	6.5969e+01	13.5718	198.683598	0.000193	1.925738	0.652458	-0.000077
 665	6.6068e+01	13.5381	198.651301	0.000081	0.810837	0.274719	-0.000032
 666	6.6168e+01	13.4932	198.614967	0.000091	0.912192	0.309059	-0.000037
 667	6.6267e+01	13.4483	198.554410	0.000152	1.520319	0.515098	-0.000061
 668	6.6367e+01	13.4114	198.489816	0.000162	1.621674	0.549438	-0.000065
 669	6.6466e+01	13.3825	198.400999	0.000223	2.229802	0.755477	-0.000089
 670	6.6566e+01	13.3376	198.376776	0.000061	0.608128	0.206039	-0.000024
 671	6.6665e+01	13.2959	198.316219	0.000152	1.520319	0.515098	-0.000061
 672	6.6764e+01	13.2574	198.235476	0.000203	2.027092	0.686797	-0.000081
 673	6.6864e+01	13.2157	198.199142	0.000091	0.912192	0.309059	-0.000037
 674	6.6963e+01	13.1691	198.118399	0.000203	2.027092	0.686797	-0.000081
 675	6.7063e+01	13.1419	198.057842	0.000152	1.520319	0.515098	-0.000061
 676	6.7162e+01	13.1002	198.001322	0.000142	1.418965	0.480758	-0.000057
 677	6.7262e+01	13.0536	197.944802	0.000142	1.418965	0.480758	-0.000057
 678	6.7362e+01	13.0200	197.839837	0.000264	2.635220	0.892837	-0.000105
 679	6.7461e+01	12.9847	197.791391	0.000122	1.216255	0.412078	-0.000049
 680	6.7561e+01	12.9397	197.714686	0.000193	1.925738	0.652458	-0.000077
 681	6.7660e+01	12.8980	197.698537	0.000041	0.405418	0.137359	-0.000016
 682	6.7760e+01	12.8676	197.621832	0.000193	1.925738	0.652458	-0.000077
 683	6.7859e+01	12.8178	197.553200	0.000172	1.723028	0.583778	-0.000069
 684	6.7959e+01	12.7857	197.496680	0.000142	1.418965	0.480758	-0.000057
 685	6.8058e+01	12.7424	197.440160	0.000142	1.418965	0.480758	-0.000057
 686	6.8157e+01	12.7055	197.371529	0.000172	1.723028	0.583778	-0.000069
 687	6.8257e+01	12.6654	197.278675	0.000233	2.331156	0.789817	-0.000093
 688	6.8356e+01	12.6205	197.197932	0.000203	2.027092	0.686797	-0.000081
 689	6.8456e+01	12.5820	197.161598	0.000091	0.912192	0.309059	-0.000037
 690	6.8555e+01	12.5451	197.036447	0.000314	3.141993	1.064536	-0.000126
 691	6.8655e+01	12.5082	197.000113	0.000091	0.912192	0.309059	-0.000037
 692	6.8754e+01	12.4649	196.895147	0.000264	2.635220	0.892837	-0.000105
 693	6.8854e+01	12.4168	196.794219	0.000253	2.533865	0.858497	-0.000101
 694	6.8954e+01	12.3879	196.725587	0.000172	1.723028	0.583778	-0.000069
 695	6.9053e+01	12.3510	196.636770	0.000223	2.229802	0.755477	-0.000089
 696	6.9153e+01	12.2980	196.564102	0.000182	1.824383	0.618118	-0.000073
 697	6.9252e+01	12.2628	196.475285	0.000223	2.229802	0.755477	-0.000089
 698	6.9352e+01	12.2291	196.414728	0.000152	1.520319	0.515098	-0.000061
 699	6.9451e+01	12.1809	196.313800	0.000253	2.533865	0.858497	-0.000101
 700	6.9550e+01	12.1473	196.229020	0.000213	2.128447	0.721137	-0.000085
 701	6.9650e+01	12.1023	196.148277	0.000203	2.027092	0.686797	-0.000081
 702	6.9749e+01	12.0622	196.071571	0.000193	1.925738	0.652458	-0.000077
 703	6.9849e+01	12.0221	195.958532	0.000284	2.837929	0.961516	-0.000114
 704	6.9948e+01	11.9868	195.865677	0.000233	2.331156	0.789817	-0.000093
 705	7.0048e+01	11.9467	195.805120	0.000152	1.520319	0.515098	-0.000061
 706	7.0147e+01	11.9098	195.684006	0.000304	3.040638	1.030196	-0.000122
 707	7.0247e+01	11.8681	195.570967	0.000284	2.837929	0.961516	-0.000114
 708	7.0347e+01	11.8200	195.478112	0.000233	2.331156	0.789817	-0.000093
 709	7.0446e+01	11.7767	195.377184	0.000253	2.533865	0.858497	-0.000101
 710	7.0546e+01	11.7494	195.304516	0.000182	1.824383	0.618118	-0.000073
 711	7.0645e+01	11.7061	195.207624	0.000243	2.432511	0.824157	-0.000097
 712	7.0745e+01	11.6692	195.110733	0.000243	2.432511	0.824157	-0.000097
 713	7.0844e+01	11.6307	194.997693	0.000284	2.837929	0.961516	-0.000114
 714	7.0944e+01	11.5874	194.925025	0.000182	1.824383	0.618118	-0.000073
 715	7.1043e+01	11.5505	194.787762	0.000345	3.446057	1.167556	-0.000138
 716	7.1142e+01	11.5023	194.719131	0.000172	1.723028	0.583778	-0.000069
 717	7.1242e+01	11.4671	194.626277	0.000233	2.331156	0.789817	-0.000093
 718	7.1341e+01	11.4270	194.521311	0.000264	2.635220	0.892837	-0.000105
 719	7.1441e+01	11.3917	194.452680	0.000172	1.723028	0.583778	-0.000069
 720	7.1540e+01	11.3467	194.335603	0.000294	2.939284	0.995856	-0.000118
 721	7.1640e+01	11.3147	194.250823	0.000213	2.128447	0.721137	-0.000085
 722	7.1740e+01	11.2665	194.145858	0.000264	2.635220	0.892837	-0.000105
 723	7.1839e+01	11.2264	194.008595	0.000345	3.446057	1.167556	-0.000138
 724	7.1939e+01	11.1879	193.927852	0.000203	2.027092	0.686797	-0.000081
 725	7.2038e+01	11.1430	193.830961	0.000243	2.432511	0.824157	-0.000097
 726	7.2138e+01	11.1061	193.709847	0.000304	3.040638	1.030196	-0.000122
 727	7.2237e+01	11.0692	193.629104	0.000203	2.027092	0.686797	-0.000081
 728	7.2337e+01	11.0259	193.520102	0.000274	2.736575	0.927177	-0.000110
 729	7.2436e+01	10.9922	193.390913	0.000324	3.243348	1.098876	-0.000130
 730	7.2535e+01	10.9505	193.314208	0.000193	1.925738	0.652458	-0.000077
 731	7.2635e+01	10.9072	193.180982	0.000334	3.344702	1.133216	-0.000134
 732	7.2734e+01	10.8703	193.092165	0.000223	2.229802	0.755477	-0.000089
 733	7.2834e+01	10.8270	192.950865	0.000355	3.547412	1.201896	-0.000142
 734	7.2933e+01	10.8013	192.853974	0.000243	2.432511	0.824157	-0.000097
 735	7.3033e+01	10.7500	192.753046	0.000253	2.533865	0.858497	-0.000101
 736	7.3132e+01	10.7115	192.615783	0.000345	3.446057	1.167556	-0.000138
 737	7.3232e+01	10.6698	192.543115	0.000182	1.824383	0.618118	-0.000073
 738	7.3332e+01	10.6361	192.438149	0.000264	2.635220	0.892837	-0.000105
 739	7.3431e+01	10.5847	192.296849	0.000355	3.547412	1.201896	-0.000142
 740	7.3531e+01	10.5510	192.135364	0.000405	4.054185	1.373595	-0.000162
 741	7.3630e+01	10.5190	192.070770	0.000162	1.621674	0.549438	-0.000065
 742	7.3730e+01	10.4660	191.957730	0.000284	2.837929	0.961516	-0.000114
 743	7.3829e+01	10.4339	191.824505	0.000334	3.344702	1.133216	-0.000134
 744	7.3928e+01	10.3906	191.671093	0.000385	3.851475	1.304915	-0.000154
 745	7.4028e+01	10.3457	191.509608	0.000405	4.054185	1.373595	-0.000162
 746	7.4127e+01	10.3152	191.424828	0.000213	2.128447	0.721137	-0.000085
 747	7.4227e+01	10.2703	191.287566	0.000345	3.446057	1.167556	-0.000138
 748	7.4326e+01	10.2398	191.194711	0.000233	2.331156	0.789817	-0.000093
 749	7.4426e+01	10.1869	191.029189	0.000416	4.155539	1.407935	-0.000166
 750	7.4525e+01	10.1452	190.920186	0.000274	2.736575	0.927177	-0.000110
 751	7.4625e+01	10.1227	190.766775	0.000385	3.851475	1.304915	-0.000154
 752	7.4725e+01	10.0810	190.649698	0.000294	2.939284	0.995856	-0.000118
 753	7.4824e+01	10.0313	190.492250	0.000395	3.952830	1.339255	-0.000158
 754	7.4924e+01	9.9896	190.346913	0.000365	3.648766	1.236235	-0.000146
 755	7.5023e+01	9.9430	190.245985	0.000253	2.533865	0.858497	-0.000101
 756	7.5123e+01	9.9110	190.060276	0.000466	4.662312	1.579634	-0.000187
 757	7.5222e+01	9.8724	189.959348	0.000253	2.533865	0.858497	-0.000101
 758	7.5322e+01	9.8356	189.809974	0.000375	3.750121	1.270575	-0.000150
 759	7.5421e+01	9.7938	189.628303	0.000456	4.560958	1.545294	-0.000183
 760	7.5520e+01	9.7489	189.519300	0.000274	2.736575	0.927177	-0.000110
 761	7.5620e+01	9.7088	189.378000	0.000355	3.547412	1.201896	-0.000142
 762	7.5719e+01	9.6671	189.236701	0.000355	3.547412	1.201896	-0.000142
 763	7.5819e+01	9.6430	189.079252	0.000395	3.952830	1.339255	-0.000158
 764	7.5918e+01	9.5981	188.950064	0.000324	3.243348	1.098876	-0.000130
 765	7.6018e+01	9.5532	188.800690	0.000375	3.750121	1.270575	-0.000150
 766	7.6118e+01	9.5163	188.647279	0.000385	3.851475	1.304915	-0.000154
 767	7.6217e+01	9.4778	188.493868	0.000385	3.851475	1.304915	-0.000154
 768	7.6317e+01	9.4329	188.348531	0.000365	3.648766	1.236235	-0.000146
 769	7.6416e+01	9.4008	188.223380	0.000314	3.141993	1.064536	-0.000126
 770	7.6516e+01	9.3543	188.029597	0.000487	4.865022	1.648314	-0.000195
 771	7.6615e+01	9.3206	187.908483	0.000304	3.040638	1.030196	-0.000122
 772	7.6715e+01	9.2853	187.746997	0.000405	4.054185	1.373595	-0.000162
 773	7.6814e+01	9.2388	187.577438	0.000426	4.256894	1.442275	-0.000170
 774	7.6913e+01	9.1939	187.428064	0.000375	3.750121	1.270575	-0.000150
 775	7.7013e+01	9.1538	187.242356	0.000466	4.662312	1.579634	-0.000187
 776	7.7112e+01	9.1217	187.141427	0.000253	2.533865	0.858497	-0.000101
 777	7.7212e+01	9.0880	186.947645	0.000487	4.865022	1.648314	-0.000195
 778	7.7311e+01	9.0415	186.786159	0.000405	4.054185	1.373595	-0.000162
 779	7.7411e+01	8.9965	186.616599	0.000426	4.256894	1.442275	-0.000170
 780	7.7510e+01	8.9564	186.483374	0.000334	3.344702	1.133216	-0.000134
 781	7.7610e+01	8.9195	186.317851	0.000416	4.155539	1.407935	-0.000166
 782	7.7710e+01	8.8858	186.160403	0.000395	3.952830	1.339255	-0.000158
 783	7.7809e+01	8.8361	185.998918	0.000405	4.054185	1.373595	-0.000162
 784	7.7909e+01	8.7928	185.829358	0.000426	4.256894	1.442275	-0.000170
 785	7.8008e+01	8.7559	185.663835	0.000416	4.155539	1.407935	-0.000166
 786	7.8108e+01	8.7238	185.518499	0.000365	3.648766	1.236235	-0.000146
 787	7.8207e+01	8.6741	185.352976	0.000416	4.155539	1.407935	-0.000166
 788	7.8306e+01	8.6420	185.199565	0.000385	3.851475	1.304915	-0.000154
 789	7.8406e+01	8.6019	185.038079	0.000405	4.054185	1.373595	-0.000162
 790	7.8505e+01	8.5618	184.832185	0.000517	5.169085	1.751334	-0.000207
 791	7.8605e+01	8.5217	184.666663	0.000416	4.155539	1.407935	-0.000166
 792	7.8704e+01	8.4816	184.513252	0.000385	3.851475	1.304915	-0.000154
 793	7.8804e+01	8.4415	184.323506	0.000476	4.763667	1.613974	-0.000191
 794	7.8903e+01	8.3933	184.157984	0.000416	4.155539	1.407935	-0.000166
 795	7.9003e+01	8.3629	183.976313	0.000456	4.560958	1.545294	-0.000183
 796	7.9103e+01	8.3260	183.835013	0.000355	3.547412	1.201896	-0.000142
 797	7.9202e+01	8.2859	183.596822	0.000598	5.979922	2.026053	-0.000239
 798	7.9302e+01	8.2377	183.431299	0.000416	4.155539	1.407935	-0.000166
 799	7.9401e+01	8.1960	183.265777	0.000416	4.155539	1.407935	-0.000166
 800	7.9501e+01	8.1639	183.112366	0.000385	3.851475	1.304915	-0.000154
 801	7.9600e+01	8.1238	182.942806	0.000426	4.256894	1.442275	-0.000170
 802	7.9700e+01	8.0709	182.732875	0.000527	5.270440	1.785673	-0.000211
 803	7.9799e+01	8.0436	182.522944	0.000527	5.270440	1.785673	-0.000211
 804	7.9898e+01	7.9987	182.373570	0.000375	3.750121	1.270575	-0.000150
 805	7.9998e+01	7.9666	182.191899	0.000456	4.560958	1.545294	-0.000183
 806	8.0097e+01	7.9233	181.981968	0.000527	5.270440	1.785673	-0.000211
 807	8.0197e+01	7.8880	181.812408	0.000426	4.256894	1.442275	-0.000170
 808	8.0296e+01	7.8367	181.638811	0.000436	4.358248	1.476615	-0.000174
 809	8.0396e+01	7.8046	181.412732	0.000568	5.675858	1.923033	-0.000227
 810	8.0496e+01	7.7613	181.214912	0.000497	4.966376	1.682654	-0.000199
 811	8.0595e+01	7.7212	181.041315	0.000436	4.358248	1.476615	-0.000174
 812	8.0695e+01	7.6811	180.883867	0.000395	3.952830	1.339255	-0.000158
 813	8.0794e+01	7.6410	180.665861	0.000547	5.473149	1.854353	-0.000219
 814	8.0894e+01	7.5960	180.476116	0.000476	4.763667	1.613974	-0.000191
 815	8.0993e+01	7.5624	180.270222	0.000517	5.169085	1.751334	-0.000207
 816	8.1093e+01	7.5222	180.072402	0.000497	4.966376	1.682654	-0.000199
 817	8.1192e+01	7.4918	179.874583	0.000497	4.966376	1.682654	-0.000199
 818	8.1291e+01	7.4452	179.684837	0.000476	4.763667	1.613974	-0.000191
 819	8.1391e+01	7.3955	179.503166	0.000456	4.560958	1.545294	-0.000183
 820	8.1490e+01	7.3714	179.252864	0.000628	6.283986	2.129072	-0.000252
 821	8.1590e+01	7.3281	179.107527	0.000365	3.648766	1.236235	-0.000146
 822	8.1689e+01	7.2816	178.901633	0.000517	5.169085	1.751334	-0.000207
 823	8.1789e+01	7.2399	178.675553	0.000568	5.675858	1.923033	-0.000227
 824	8.1888e+01	7.1966	178.481771	0.000487	4.865022	1.648314	-0.000195
 825	8.1988e+01	7.1693	178.271840	0.000527	5.270440	1.785673	-0.000211
 826	8.2088e+01	7.1260	178.041723	0.000578	5.777213	1.957373	-0.000231
 827	8.2187e+01	7.0875	177.835829	0.000517	5.169085	1.751334	-0.000207
 828	8.2287e+01	7.0538	177.633972	0.000507	5.067731	1.716994	-0.000203
 829	8.2386e+01	7.0025	177.415967	0.000547	5.473149	1.854353	-0.000219
 830	8.2486e+01	6.9576	177.189888	0.000568	5.675858	1.923033	-0.000227
 831	8.2585e+01	6.9207	177.000142	0.000476	4.763667	1.613974	-0.000191
 832	8.2684e+01	6.8838	176.810397	0.000476	4.763667	1.613974	-0.000191
 833	8.2784e+01	6.8421	176.576243	0.000588	5.878568	1.991713	-0.000235
 834	8.2883e+01	6.8036	176.350163	0.000568	5.675858	1.923033	-0.000227
 835	8.2983e+01	6.7602	176.152344	0.000497	4.966376	1.682654	-0.000199
 836	8.3082e+01	6.7249	175.926264	0.000568	5.675858	1.923033	-0.000227
 837	8.3182e+01	6.6832	175.712296	0.000537	5.371795	1.820013	-0.000215
 838	8.3281e+01	6.6495	175.457956	0.000639	6.385341	2.163412	-0.000256
 839	8.3381e+01	6.6014	175.308582	0.000375	3.750121	1.270575	-0.000150
 840	8.3481e+01	6.5693	175.066354	0.000608	6.081277	2.060392	-0.000243
 841	8.3580e+01	6.5276	174.848349	0.000547	5.473149	1.854353	-0.000219
 842	8.3680e+01	6.4827	174.642455	0.000517	5.169085	1.751334	-0.000207
 843	8.3779e+01	6.4442	174.424450	0.000547	5.473149	1.854353	-0.000219
 844	8.3879e+01	6.4073	174.226630	0.000497	4.966376	1.682654	-0.000199
 845	8.3978e+01	6.3688	173.968253	0.000649	6.486695	2.197752	-0.000260
 846	8.4078e+01	6.3351	173.746211	0.000557	5.574504	1.888693	-0.000223
 847	8.4177e+01	6.2886	173.540317	0.000517	5.169085	1.751334	-0.000207
 848	8.4276e+01	6.2565	173.306163	0.000588	5.878568	1.991713	-0.000235
 849	8.4376e+01	6.2020	173.080083	0.000568	5.675858	1.923033	-0.000227
 850	8.4475e+01	6.1619	172.882264	0.000497	4.966376	1.682654	-0.000199
 851	8.4575e+01	6.1362	172.627924	0.000639	6.385341	2.163412	-0.000256
 852	8.4674e+01	6.0913	172.385696	0.000608	6.081277	2.060392	-0.000243
 853	8.4774e+01	6.0367	172.195951	0.000476	4.763667	1.613974	-0.000191
 854	8.4874e+01	6.0079	171.941611	0.000639	6.385341	2.163412	-0.000256
 855	8.4973e+01	5.9677	171.731680	0.000527	5.270440	1.785673	-0.000211
 856	8.5073e+01	5.9292	171.461192	0.000679	6.790759	2.300772	-0.000272
 857	8.5172e+01	5.8940	171.218964	0.000608	6.081277	2.060392	-0.000243
 858	8.5272e+01	5.8442	171.009033	0.000527	5.270440	1.785673	-0.000211
 859	8.5371e+01	5.8041	170.750656	0.000649	6.486695	2.197752	-0.000260
 860	8.5471e+01	5.7736	170.544762	0.000517	5.169085	1.751334	-0.000207
 861	8.5570e+01	5.7287	170.298497	0.000618	6.182632	2.094732	-0.000248
 862	8.5669e+01	5.6982	170.068380	0.000578	5.777213	1.957373	-0.000231
 863	8.5769e+01	5.6501	169.826152	0.000608	6.081277	2.060392	-0.000243
 864	8.5868e+01	5.6100	169.571812	0.000639	6.385341	2.163412	-0.000256
 865	8.5968e+01	5.5731	169.333621	0.000598	5.979922	2.026053	-0.000239
 866	8.6067e+01	5.5266	169.099468	0.000588	5.878568	1.991713	-0.000235
 867	8.6167e+01	5.4961	168.857239	0.000608	6.081277	2.060392	-0.000243
 868	8.6266e+01	5.4496	168.610974	0.000618	6.182632	2.094732	-0.000248
 869	8.6366e+01	5.4031	168.324337	0.000720	7.196178	2.438131	-0.000288
 870	8.6466e+01	5.3694	168.142666	0.000456	4.560958	1.545294	-0.000183
 871	8.6565e+01	5.3341	167.864104	0.000699	6.993468	2.369451	-0.000280
 872	8.6665e+01	5.2956	167.605727	0.000649	6.486695	2.197752	-0.000260
 873	8.6764e+01	5.2474	167.383685	0.000557	5.574504	1.888693	-0.000223
 874	8.6864e+01	5.1993	167.125308	0.000649	6.486695	2.197752	-0.000260
 875	8.6963e+01	5.1672	166.834634	0.000730	7.297532	2.472471	-0.000292
 876	8.7063e+01	5.1335	166.620666	0.000537	5.371795	1.820013	-0.000215
 877	8.7162e+01	5.0870	166.382475	0.000598	5.979922	2.026053	-0.000239
 878	8.7261e+01	5.0630	166.132173	0.000628	6.283986	2.129072	-0.000252
 879	8.7361e+01	5.0020	165.853610	0.000699	6.993468	2.369451	-0.000280
 880	8.7460e+01	4.9699	165.591197	0.000659	6.588050	2.232092	-0.000264
 881	8.7560e+01	4.9138	165.320708	0.000679	6.790759	2.300772	-0.000272
 882	8.7659e+01	4.8881	165.082517	0.000598	5.979922	2.026053	-0.000239
 883	8.7759e+01	4.8528	164.820104	0.000659	6.588050	2.232092	-0.000264
 884	8.7859e+01	4.8127	164.598061	0.000557	5.574504	1.888693	-0.000223
 885	8.7958e+01	4.7694	164.351796	0.000618	6.182632	2.094732	-0.000248
 886	8.8058e+01	4.7261	164.073234	0.000699	6.993468	2.369451	-0.000280
 887	8.8157e+01	4.6860	163.806783	0.000669	6.689405	2.266432	-0.000268
 888	8.8257e+01	4.6491	163.580703	0.000568	5.675858	1.923033	-0.000227
 889	8.8356e+01	4.6106	163.314252	0.000669	6.689405	2.266432	-0.000268
 890	8.8456e+01	4.5737	163.067987	0.000618	6.182632	2.094732	-0.000248
 891	8.8555e+01	4.5304	162.797499	0.000679	6.790759	2.300772	-0.000272
 892	8.8654e+01	4.4935	162.506825	0.000730	7.297532	2.472471	-0.000292
 893	8.8754e+01	4.4566	162.256522	0.000628	6.283986	2.129072	-0.000252
 894	8.8853e+01	4.4181	161.981997	0.000689	6.892114	2.335111	-0.000276
 895	8.8953e+01	4.3731	161.772066	0.000527	5.270440	1.785673	-0.000211
 896	8.9052e+01	4.3378	161.481392	0.000730	7.297532	2.472471	-0.000292
 897	8.9152e+01	4.2961	161.198793	0.000709	7.094823	2.403791	-0.000284
 898	8.9251e+01	4.2544	160.956565	0.000608	6.081277	2.060392	-0.000243
 899	8.9351e+01	4.2079	160.673965	0.000709	7.094823	2.403791	-0.000284
 900	8.9451e+01	4.1806	160.411551	0.000659	6.588050	2.232092	-0.000264
 901	8.9550e+01	4.1405	160.161249	0.000628	6.283986	2.129072	-0.000252
 902	8.9650e+01	4.0972	159.878649	0.000709	7.094823	2.403791	-0.000284
 903	8.9749e+01	4.0555	159.596050	0.000709	7.094823	2.403791	-0.000284
 904	8.9849e+01	4.0202	159.357859	0.000598	5.979922	2.026053	-0.000239
 905	8.9948e+01	3.9737	159.123705	0.000588	5.878568	1.991713	-0.000235
 906	9.0047e+01	3.9256	158.833031	0.000730	7.297532	2.472471	-0.000292
 907	9.0147e+01	3.8887	158.582729	0.000628	6.283986	2.129072	-0.000252
 908	9.0246e+01	3.8518	158.279944	0.000760	7.601596	2.575490	-0.000304
 909	9.0346e+01	3.8213	157.997344	0.000709	7.094823	2.403791	-0.000284
 910	9.0445e+01	3.7876	157.747042	0.000628	6.283986	2.129072	-0.000252
 911	9.0545e+01	3.7459	157.464442	0.000709	7.094823	2.403791	-0.000284
 912	9.0644e+01	3.7042	157.226251	0.000598	5.979922	2.026053	-0.000239
 913	9.0744e+01	3.6528	156.959800	0.000669	6.689405	2.266432	-0.000268
 914	9.0844e+01	3.6191	156.681238	0.000699	6.993468	2.369451	-0.000280
 915	9.0943e+01	3.5855	156.406713	0.000689	6.892114	2.335111	-0.000276
 916	9.1043e+01	3.5357	156.152373	0.000639	6.385341	2.163412	-0.000256
 917	9.1142e+01	3.5004	155.873811	0.000699	6.993468	2.369451	-0.000280
 918	9.1242e+01	3.4684	155.599286	0.000689	6.892114	2.335111	-0.000276
 919	9.1341e+01	3.4154	155.336872	0.000659	6.588050	2.232092	-0.000264
 920	9.1441e+01	3.3833	155.050235	0.000720	7.196178	2.438131	-0.000288
 921	9.1540e+01	3.3352	154.739376	0.000780	7.804305	2.644170	-0.000312
 922	9.1639e+01	3.3031	154.493110	0.000618	6.182632	2.094732	-0.000248
 923	9.1739e+01	3.2518	154.234734	0.000649	6.486695	2.197752	-0.000260
 924	9.1838e+01	3.2085	153.919837	0.000791	7.905660	2.678510	-0.000316
 925	9.1938e+01	3.1748	153.697795	0.000557	5.574504	1.888693	-0.000223
 926	9.2037e+01	3.1459	153.382898	0.000791	7.905660	2.678510	-0.000316
 927	9.2137e+01	3.0962	153.104336	0.000699	6.993468	2.369451	-0.000280
 928	9.2237e+01	3.0593	152.837885	0.000669	6.689405	2.266432	-0.000268
 929	9.2336e+01	3.0240	152.527025	0.000780	7.804305	2.644170	-0.000312
 930	9.2436e+01	2.9759	152.276723	0.000628	6.283986	2.129072	-0.000252
 931	9.2535e+01	2.9390	152.002198	0.000689	6.892114	2.335111	-0.000276
 932	9.2635e+01	2.9005	151.743821	0.000649	6.486695	2.197752	-0.000260
 933	9.2734e+01	2.8539	151.392590	0.000882	8.817852	2.987569	-0.000353
 934	9.2834e+01	2.8170	151.162473	0.000578	5.777213	1.957373	-0.000231
 935	9.2933e+01	2.7801	150.883911	0.000699	6.993468	2.369451	-0.000280
 936	9.3032e+01	2.7352	150.605349	0.000699	6.993468	2.369451	-0.000280
 937	9.3132e+01	2.6935	150.274304	0.000831	8.311078	2.815870	-0.000333
 938	9.3231e+01	2.6614	150.052261	0.000557	5.574504	1.888693	-0.000223
 939	9.3331e+01	2.6309	149.745439	0.000770	7.702951	2.609830	-0.000308
 940	9.3430e+01	2.5860	149.442654	0.000760	7.601596	2.575490	-0.000304
 941	9.3530e+01	2.5443	149.172166	0.000679	6.790759	2.300772	-0.000272
 942	9.3629e+01	2.5074	148.897640	0.000689	6.892114	2.335111	-0.000276
 943	9.3729e+01	2.4577	148.611004	0.000720	7.196178	2.438131	-0.000288
 944	9.3829e+01	2.4256	148.348590	0.000659	6.588050	2.232092	-0.000264
 945	9.3928e+01	2.3823	148.049842	0.000750	7.500242	2.541151	-0.000300
 946	9.4028e+01	2.3406	147.755131	0.000740	7.398887	2.506811	-0.000296
 947	9.4127e+01	2.3037	147.504828	0.000628	6.283986	2.129072	-0.000252
 948	9.4227e+01	2.2636	147.234340	0.000679	6.790759	2.300772	-0.000272
 949	9.4326e+01	2.2187	146.923481	0.000780	7.804305	2.644170	-0.000312
 950	9.4425e+01	2.1946	146.636844	0.000720	7.196178	2.438131	-0.000288
 951	9.4525e+01	2.1417	146.350208	0.000720	7.196178	2.438131	-0.000288
 952	9.4624e+01	2.1112	146.051460	0.000750	7.500242	2.541151	-0.000300
 953	9.4724e+01	2.0711	145.756749	0.000740	7.398887	2.506811	-0.000296
 954	9.4823e+01	2.0310	145.490298	0.000669	6.689405	2.266432	-0.000268
 955	9.4923e+01	1.9909	145.215772	0.000689	6.892114	2.335111	-0.000276
 956	9.5022e+01	1.9347	144.949322	0.000669	6.689405	2.266432	-0.000268
 957	9.5122e+01	1.9026	144.654611	0.000740	7.398887	2.506811	-0.000296
 958	9.5222e+01	1.8625	144.355863	0.000750	7.500242	2.541151	-0.000300
 959	9.5321e+01	1.8272	144.053077	0.000760	7.601596	2.575490	-0.000304
 960	9.5421e+01	1.7903	143.794701	0.000649	6.486695	2.197752	-0.000260
 961	9.5520e+01	1.7390	143.491916	0.000760	7.601596	2.575490	-0.000304
 962	9.5620e+01	1.7069	143.172982	0.000801	8.007015	2.712850	-0.000321
 963	9.5719e+01	1.6732	142.918642	0.000639	6.385341	2.163412	-0.000256
 964	9.5819e+01	1.6267	142.619894	0.000750	7.500242	2.541151	-0.000300
 965	9.5918e+01	1.5882	142.325183	0.000740	7.398887	2.506811	-0.000296
 966	9.6017e+01	1.5401	142.086992	0.000598	5.979922	2.026053	-0.000239
 967	9.6117e+01	1.5000	141.764021	0.000811	8.108369	2.747190	-0.000325
 968	9.6216e+01	1.4631	141.485459	0.000699	6.993468	2.369451	-0.000280
 969	9.6316e+01	1.4230	141.178637	0.000770	7.702951	2.609830	-0.000308
 970	9.6415e+01	1.3877	140.908149	0.000679	6.790759	2.300772	-0.000272
 971	9.6515e+01	1.3508	140.589215	0.000801	8.007015	2.712850	-0.000321
 972	9.6615e+01	1.3010	140.290467	0.000750	7.500242	2.541151	-0.000300
 973	9.6714e+01	1.2689	140.028053	0.000659	6.588050	2.232092	-0.000264
 974	9.6814e+01	1.2224	139.729305	0.000750	7.500242	2.541151	-0.000300
 975	9.6913e+01	1.2016	139.438631	0.000730	7.297532	2.472471	-0.000292
 976	9.7013e+01	1.1390	139.123735	0.000791	7.905660	2.678510	-0.000316
 977	9.7112e+01	1.1005	138.824987	0.000750	7.500242	2.541151	-0.000300
 978	9.7212e+01	1.0716	138.546424	0.000699	6.993468	2.369451	-0.000280
 979	9.7311e+01	1.0315	138.243639	0.000760	7.601596	2.575490	-0.000304
 980	9.7410e+01	0.9930	137.969114	0.000689	6.892114	2.335111	-0.000276
 981	9.7510e+01	0.9529	137.634032	0.000841	8.412433	2.850209	-0.000337
 982	9.7609e+01	0.9064	137.395841	0.000598	5.979922	2.026053	-0.000239
 983	9.7709e+01	0.8631	137.052684	0.000862	8.615142	2.918889	-0.000345
 984	9.7808e+01	0.8230	136.774122	0.000699	6.993468	2.369451	-0.000280
 985	9.7908e+01	0.7909	136.459225	0.000791	7.905660	2.678510	-0.000316
 986	9.8007e+01	0.7428	136.168551	0.000730	7.297532	2.472471	-0.000292
 987	9.8107e+01	0.6994	135.845580	0.000811	8.108369	2.747190	-0.000325
 988	9.8207e+01	0.6722	135.599315	0.000618	6.182632	2.094732	-0.000248
 989	9.8306e+01	0.6240	135.264233	0.000841	8.412433	2.850209	-0.000337
 990	9.8406e+01	0.5920	134.969522	0.000740	7.398887	2.506811	-0.000296
 991	9.8505e+01	0.5470	134.642514	0.000821	8.209724	2.781530	-0.000329
 992	9.8605e+01	0.5134	134.376063	0.000669	6.689405	2.266432	-0.000268
 993	9.8704e+01	0.4668	134.097501	0.000699	6.993468	2.369451	-0.000280
 994	9.8803e+01	0.4283	133.770493	0.000821	8.209724	2.781530	-0.000329
 995	9.8903e+01	0.3786	133.483856	0.000720	7.196178	2.438131	-0.000288
 996	9.9002e+01	0.3497	133.185108	0.000750	7.500242	2.541151	-0.000300
 997	9.9102e+01	0.3144	132.874249	0.000780	7.804305	2.644170	-0.000312
 998	9.9201e+01	0.2727	132.555315	0.000801	8.007015	2.712850	-0.000321
 999	9.9301e+01	0.2342	132.248493	0.000770	7.702951	2.609830	-0.000308
1000	9.9400e+01	0.1909	131.957819	0.000730	7.297532	2.472471	-0.000292
1001	9.9500e+01	0.1428	131.642922	0.000791	7.905660	2.678510	-0.000316
1002	9.9600e+01	0.1043	131.360323	0.000709	7.094823	2.403791	-0.000284
1003	9.9699e+01	0.0690	130.996980	0.000912	9.121915	3.090589	-0.000365
1004	9.9799e+01	0.0369	130.718418	0.000699	6.993468	2.369451	-0.000280
1005	9.9898e+01	-0.0032	130.504450	0.000537	5.371795	1.820013	-0.000215
1006	9.9998e+01	-0.0401	130.161293	0.000862	8.615142	2.918889	-0.000345
1007	1.0010e+02	-0.0866	129.870620	0.000730	7.297532	2.472471	-0.000292
1008	1.0020e+02	-0.1219	129.567834	0.000760	7.601596	2.575490	-0.000304
1009	1.0030e+02	-0.1604	129.277161	0.000730	7.297532	2.472471	-0.000292
1010	1.0040e+02	-0.2053	128.950153	0.000821	8.209724	2.781530	-0.000329
1011	1.0050e+02	-0.2374	128.675627	0.000689	6.892114	2.335111	-0.000276
1012	1.0059e+02	-0.2791	128.336508	0.000851	8.513788	2.884549	-0.000341
1013	1.0069e+02	-0.3289	128.037760	0.000750	7.500242	2.541151	-0.000300
1014	1.0079e+02	-0.3545	127.743049	0.000740	7.398887	2.506811	-0.000296
1015	1.0089e+02	-0.4027	127.428152	0.000791	7.905660	2.678510	-0.000316
1016	1.0099e+02	-0.4396	127.125367	0.000760	7.601596	2.575490	-0.000304
1017	1.0109e+02	-0.4781	126.814508	0.000780	7.804305	2.644170	-0.000312
1018	1.0119e+02	-0.5294	126.527871	0.000720	7.196178	2.438131	-0.000288
1019	1.0129e+02	-0.5599	126.184715	0.000862	8.615142	2.918889	-0.000345
1020	1.0139e+02	-0.5968	125.934412	0.000628	6.283986	2.129072	-0.000252
1021	1.0149e+02	-0.6417	125.546847	0.000973	9.730043	3.296628	-0.000390
1022	1.0159e+02	-0.6818	125.288470	0.000649	6.486695	2.197752	-0.000260
1023	1.0169e+02	-0.7235	125.001834	0.000720	7.196178	2.438131	-0.000288
1024	1.0179e+02	-0.7524	124.646566	0.000892	8.919206	3.021909	-0.000357
1025	1.0189e+02	-0.7893	124.351855	0.000740	7.398887	2.506811	-0.000296
1026	1.0199e+02	-0.8438	124.049070	0.000760	7.601596	2.575490	-0.000304
1027	1.0209e+02	-0.8791	123.701876	0.000872	8.716497	2.953229	-0.000349
1028	1.0219e+02	-0.9192	123.423314	0.000699	6.993468	2.369451	-0.000280
1029	1.0229e+02	-0.9497	123.096306	0.000821	8.209724	2.781530	-0.000329
1030	1.0239e+02	-0.9978	122.789483	0.000770	7.702951	2.609830	-0.000308
1031	1.0248e+02	-1.0395	122.482661	0.000770	7.702951	2.609830	-0.000308
1032	1.0258e+02	-1.0845	122.131430	0.000882	8.817852	2.987569	-0.000353
1033	1.0268e+02	-1.1182	121.828645	0.000760	7.601596	2.575490	-0.000304
1034	1.0278e+02	-1.1615	121.525860	0.000760	7.601596	2.575490	-0.000304
1035	1.0288e+02	-1.1952	121.186741	0.000851	8.513788	2.884549	-0.000341
1036	1.0298e+02	-1.2353	120.855695	0.000831	8.311078	2.815870	-0.000333
1037	1.0308e+02	-1.2738	120.556947	0.000750	7.500242	2.541151	-0.000300
1038	1.0318e+02	-1.3139	120.242051	0.000791	7.905660	2.678510	-0.000316
1039	1.0328e+02	-1.3620	119.939266	0.000760	7.601596	2.575490	-0.000304
1040	1.0338e+02	-1.3957	119.596109	0.000862	8.615142	2.918889	-0.000345
1041	1.0348e+02	-1.4310	119.265064	0.000831	8.311078	2.815870	-0.000333
1042	1.0358e+02	-1.4743	118.934019	0.000831	8.311078	2.815870	-0.000333
1043	1.0368e+02	-1.5208	118.643345	0.000730	7.297532	2.472471	-0.000292
1044	1.0378e+02	-1.5561	118.304226	0.000851	8.513788	2.884549	-0.000341
1045	1.0388e+02	-1.5850	118.005478	0.000750	7.500242	2.541151	-0.000300
1046	1.0398e+02	-1.6411	117.690581	0.000791	7.905660	2.678510	-0.000316
1047	1.0408e+02	-1.6828	117.355499	0.000841	8.412433	2.850209	-0.000337
1048	1.0418e+02	-1.7133	117.036565	0.000801	8.007015	2.712850	-0.000321
1049	1.0428e+02	-1.7582	116.705520	0.000831	8.311078	2.815870	-0.000333
1050	1.0438e+02	-1.7935	116.402735	0.000760	7.601596	2.575490	-0.000304
1051	1.0447e+02	-1.8385	116.031318	0.000932	9.324625	3.159268	-0.000373
1052	1.0457e+02	-1.8737	115.764867	0.000669	6.689405	2.266432	-0.000268
1053	1.0467e+02	-1.9203	115.449971	0.000791	7.905660	2.678510	-0.000316
1054	1.0477e+02	-1.9572	115.082591	0.000922	9.223270	3.124928	-0.000369
1055	1.0487e+02	-2.0021	114.771732	0.000780	7.804305	2.644170	-0.000312
1056	1.0497e+02	-2.0342	114.452798	0.000801	8.007015	2.712850	-0.000321
1057	1.0507e+02	-2.0743	114.129827	0.000811	8.108369	2.747190	-0.000325
1058	1.0517e+02	-2.1160	113.810894	0.000801	8.007015	2.712850	-0.000321
1059	1.0527e+02	-2.1529	113.495997	0.000791	7.905660	2.678510	-0.000316
1060	1.0537e+02	-2.2026	113.217435	0.000699	6.993468	2.369451	-0.000280
1061	1.0547e+02	-2.2219	112.874278	0.000862	8.615142	2.918889	-0.000345
1062	1.0557e+02	-2.2748	112.539196	0.000841	8.412433	2.850209	-0.000337
1063	1.0567e+02	-2.3117	112.248522	0.000730	7.297532	2.472471	-0.000292
1064	1.0577e+02	-2.3614	111.905366	0.000862	8.615142	2.918889	-0.000345
1065	1.0587e+02	-2.3919	111.562209	0.000862	8.615142	2.918889	-0.000345
1066	1.0597e+02	-2.4304	111.231164	0.000831	8.311078	2.815870	-0.000333
1067	1.0607e+02	-2.4705	110.944527	0.000720	7.196178	2.438131	-0.000288
1068	1.0617e+02	-2.5106	110.629631	0.000791	7.905660	2.678510	-0.000316
1069	1.0627e+02	-2.5571	110.254177	0.000943	9.425979	3.193608	-0.000377
1070	1.0637e+02	-2.5973	109.963503	0.000730	7.297532	2.472471	-0.000292
1071	1.0647e+02	-2.6261	109.656681	0.000770	7.702951	2.609830	-0.000308
1072	1.0656e+02	-2.6759	109.333710	0.000811	8.108369	2.747190	-0.000325
1073	1.0666e+02	-2.7160	108.998628	0.000841	8.412433	2.850209	-0.000337
1074	1.0676e+02	-2.7497	108.699880	0.000750	7.500242	2.541151	-0.000300
1075	1.0686e+02	-2.7898	108.356723	0.000862	8.615142	2.918889	-0.000345
1076	1.0696e+02	-2.8315	108.025678	0.000831	8.311078	2.815870	-0.000333
1077	1.0706e+02	-2.8684	107.767301	0.000649	6.486695	2.197752	-0.000260
1078	1.0716e+02	-2.9133	107.432219	0.000841	8.412433	2.850209	-0.000337
1079	1.0726e+02	-2.9582	107.109248	0.000811	8.108369	2.747190	-0.000325
1080	1.0736e+02	-2.9903	106.790315	0.000801	8.007015	2.712850	-0.000321
1081	1.0746e+02	-3.0336	106.451195	0.000851	8.513788	2.884549	-0.000341
1082	1.0756e+02	-3.0769	106.148410	0.000760	7.601596	2.575490	-0.000304
1083	1.0766e+02	-3.1058	105.837551	0.000780	7.804305	2.644170	-0.000312
1084	1.0776e+02	-3.1475	105.546877	0.000730	7.297532	2.472471	-0.000292
1085	1.0786e+02	-3.1812	105.199683	0.000872	8.716497	2.953229	-0.000349
1086	1.0796e+02	-3.2181	104.929195	0.000679	6.790759	2.300772	-0.000272
1087	1.0806e+02	-3.2710	104.561816	0.000922	9.223270	3.124928	-0.000369
1088	1.0816e+02	-3.3159	104.222696	0.000851	8.513788	2.884549	-0.000341
1089	1.0826e+02	-3.3609	103.944134	0.000699	6.993468	2.369451	-0.000280
1090	1.0836e+02	-3.3930	103.649423	0.000740	7.398887	2.506811	-0.000296
1091	1.0845e+02	-3.4202	103.330489	0.000801	8.007015	2.712850	-0.000321
1092	1.0855e+02	-3.4667	103.007518	0.000811	8.108369	2.747190	-0.000325
1093	1.0865e+02	-3.4988	102.696659	0.000780	7.804305	2.644170	-0.000312
1094	1.0875e+02	-3.5518	102.349465	0.000872	8.716497	2.953229	-0.000349
1095	1.0885e+02	-3.5887	102.070903	0.000699	6.993468	2.369451	-0.000280
1096	1.0895e+02	-3.6272	101.760043	0.000780	7.804305	2.644170	-0.000312
1097	1.0905e+02	-3.6721	101.433035	0.000821	8.209724	2.781530	-0.000329
1098	1.0915e+02	-3.7026	101.138325	0.000740	7.398887	2.506811	-0.000296
1099	1.0925e+02	-3.7443	100.839576	0.000750	7.500242	2.541151	-0.000300
1100	1.0935e+02	-3.7796	100.520643	0.000801	8.007015	2.712850	-0.000321
1101	1.0945e+02	-3.8277	100.189598	0.000831	8.311078	2.815870	-0.000333
1102	1.0955e+02	-3.8710	99.923147	0.000669	6.689405	2.266432	-0.000268
1103	1.0965e+02	-3.9111	99.571916	0.000882	8.817852	2.987569	-0.000353
1104	1.0975e+02	-3.9528	99.257019	0.000791	7.905660	2.678510	-0.000316
1105	1.0985e+02	-3.9833	98.970383	0.000720	7.196178	2.438131	-0.000288
1106	1.0995e+02	-4.0234	98.647412	0.000811	8.108369	2.747190	-0.000325
1107	1.1005e+02	-4.0699	98.352701	0.000740	7.398887	2.506811	-0.000296
1108	1.1015e+02	-4.1020	98.013581	0.000851	8.513788	2.884549	-0.000341
1109	1.1025e+02	-4.1469	97.714833	0.000750	7.500242	2.541151	-0.000300
1110	1.1035e+02	-4.1790	97.420122	0.000740	7.398887	2.506811	-0.000296
1111	1.1044e+02	-4.2223	97.125412	0.000740	7.398887	2.506811	-0.000296
1112	1.1054e+02	-4.2624	96.838775	0.000720	7.196178	2.438131	-0.000288
1113	1.1064e+02	-4.3026	96.515804	0.000811	8.108369	2.747190	-0.000325
1114	1.1074e+02	-4.3491	96.213019	0.000760	7.601596	2.575490	-0.000304
1115	1.1084e+02	-4.3844	95.918308	0.000740	7.398887	2.506811	-0.000296
1116	1.1094e+02	-4.4229	95.619560	0.000750	7.500242	2.541151	-0.000300
1117	1.1104e+02	-4.4678	95.288515	0.000831	8.311078	2.815870	-0.000333
1118	1.1114e+02	-4.5031	95.005915	0.000709	7.094823	2.403791	-0.000284
1119	1.1124e+02	-4.5416	94.723316	0.000709	7.094823	2.403791	-0.000284
1120	1.1134e+02	-4.5913	94.400345	0.000811	8.108369	2.747190	-0.000325
1121	1.1144e+02	-4.6298	94.129857	0.000679	6.790759	2.300772	-0.000272
1122	1.1154e+02	-4.6731	93.843220	0.000720	7.196178	2.438131	-0.000288
1123	1.1164e+02	-4.7052	93.512175	0.000831	8.311078	2.815870	-0.000333
1124	1.1174e+02	-4.7373	93.197279	0.000791	7.905660	2.678510	-0.000316
1125	1.1184e+02	-4.7822	92.967162	0.000578	5.777213	1.957373	-0.000231
1126	1.1194e+02	-4.8159	92.619968	0.000872	8.716497	2.953229	-0.000349
1127	1.1204e+02	-4.8576	92.341406	0.000699	6.993468	2.369451	-0.000280
1128	1.1214e+02	-4.9090	92.046695	0.000740	7.398887	2.506811	-0.000296
1129	1.1224e+02	-4.9442	91.760058	0.000720	7.196178	2.438131	-0.000288
1130	1.1234e+02	-4.9827	91.489570	0.000679	6.790759	2.300772	-0.000272
1131	1.1244e+02	-5.0325	91.162562	0.000821	8.209724	2.781530	-0.000329
1132	1.1253e+02	-5.0581	90.900148	0.000659	6.588050	2.232092	-0.000264
1133	1.1263e+02	-5.0999	90.601400	0.000750	7.500242	2.541151	-0.000300
1134	1.1273e+02	-5.1528	90.334949	0.000669	6.689405	2.266432	-0.000268
1135	1.1283e+02	-5.1833	90.007941	0.000821	8.209724	2.781530	-0.000329
1136	1.1293e+02	-5.2186	89.725342	0.000709	7.094823	2.403791	-0.000284
1137	1.1303e+02	-5.2619	89.466965	0.000649	6.486695	2.197752	-0.000260
1138	1.1313e+02	-5.2924	89.152069	0.000791	7.905660	2.678510	-0.000316
1139	1.1323e+02	-5.3421	88.829098	0.000811	8.108369	2.747190	-0.000325
1140	1.1333e+02	-5.3854	88.558610	0.000679	6.790759	2.300772	-0.000272
1141	1.1343e+02	-5.4239	88.271973	0.000720	7.196178	2.438131	-0.000288
1142	1.1353e+02	-5.4688	88.017633	0.000639	6.385341	2.163412	-0.000256
1143	1.1363e+02	-5.4977	87.706774	0.000780	7.804305	2.644170	-0.000312
1144	1.1373e+02	-5.5378	87.436286	0.000679	6.790759	2.300772	-0.000272
1145	1.1383e+02	-5.5843	87.125426	0.000780	7.804305	2.644170	-0.000312
1146	1.1393e+02	-5.6196	86.895310	0.000578	5.777213	1.957373	-0.000231
1147	1.1403e+02	-5.6517	86.584450	0.000780	7.804305	2.644170	-0.000312
1148	1.1413e+02	-5.7063	86.281665	0.000760	7.601596	2.575490	-0.000304
1149	1.1423e+02	-5.7448	86.003103	0.000699	6.993468	2.369451	-0.000280
1150	1.1433e+02	-5.7736	85.732615	0.000679	6.790759	2.300772	-0.000272
1151	1.1442e+02	-5.8169	85.429829	0.000760	7.601596	2.575490	-0.000304
1152	1.1452e+02	-5.8571	85.179527	0.000628	6.283986	2.129072	-0.000252
1153	1.1462e+02	-5.9052	84.852519	0.000821	8.209724	2.781530	-0.000329
1154	1.1472e+02	-5.9453	84.582031	0.000679	6.790759	2.300772	-0.000272
1155	1.1482e+02	-5.9790	84.315580	0.000669	6.689405	2.266432	-0.000268
1156	1.1492e+02	-6.0239	84.016832	0.000750	7.500242	2.541151	-0.000300
1157	1.1502e+02	-6.0496	83.758455	0.000649	6.486695	2.197752	-0.000260
1158	1.1512e+02	-6.1025	83.463744	0.000740	7.398887	2.506811	-0.000296
1159	1.1522e+02	-6.1314	83.185182	0.000699	6.993468	2.369451	-0.000280
1160	1.1532e+02	-6.1811	82.914694	0.000679	6.790759	2.300772	-0.000272
1161	1.1542e+02	-6.2164	82.628057	0.000720	7.196178	2.438131	-0.000288
1162	1.1552e+02	-6.2533	82.341421	0.000720	7.196178	2.438131	-0.000288
1163	1.1562e+02	-6.3014	82.054784	0.000720	7.196178	2.438131	-0.000288
1164	1.1572e+02	-6.3415	81.832741	0.000557	5.574504	1.888693	-0.000223
1165	1.1582e+02	-6.3848	81.529956	0.000760	7.601596	2.575490	-0.000304
1166	1.1592e+02	-6.4137	81.219097	0.000780	7.804305	2.644170	-0.000312
1167	1.1602e+02	-6.4602	80.988980	0.000578	5.777213	1.957373	-0.000231
1168	1.1612e+02	-6.4907	80.726566	0.000659	6.588050	2.232092	-0.000264
1169	1.1622e+02	-6.5405	80.464152	0.000659	6.588050	2.232092	-0.000264
1170	1.1632e+02	-6.5758	80.145219	0.000801	8.007015	2.712850	-0.000321
1171	1.1642e+02	-6.6159	79.890879	0.000639	6.385341	2.163412	-0.000256
1172	1.1651e+02	-6.6431	79.640577	0.000628	6.283986	2.129072	-0.000252
1173	1.1661e+02	-6.6929	79.374126	0.000669	6.689405	2.266432	-0.000268
1174	1.1671e+02	-6.7394	79.095563	0.000699	6.993468	2.369451	-0.000280
1175	1.1681e+02	-6.7747	78.792778	0.000760	7.601596	2.575490	-0.000304
1176	1.1691e+02	-6.8132	78.538439	0.000639	6.385341	2.163412	-0.000256
1177	1.1701e+02	-6.8501	78.243728	0.000740	7.398887	2.506811	-0.000296
1178	1.1711e+02	-6.8886	78.001500	0.000608	6.081277	2.060392	-0.000243
1179	1.1721e+02	-6.9351	77.718900	0.000709	7.094823	2.403791	-0.000284
1180	1.1731e+02	-6.9688	77.444375	0.000689	6.892114	2.335111	-0.000276
1181	1.1741e+02	-7.0121	77.161775	0.000709	7.094823	2.403791	-0.000284
1182	1.1751e+02	-7.0554	76.927621	0.000588	5.878568	1.991713	-0.000235
1183	1.1761e+02	-7.0955	76.645022	0.000709	7.094823	2.403791	-0.000284
1184	1.1771e+02	-7.1292	76.378571	0.000669	6.689405	2.266432	-0.000268
1185	1.1781e+02	-7.1789	76.112120	0.000669	6.689405	2.266432	-0.000268
1186	1.1791e+02	-7.2158	75.853743	0.000649	6.486695	2.197752	-0.000260
1187	1.1801e+02	-7.2431	75.579218	0.000689	6.892114	2.335111	-0.000276
1188	1.1811e+02	-7.3009	75.349101	0.000578	5.777213	1.957373	-0.000231
1189	1.1821e+02	-7.3281	75.038242	0.000780	7.804305	2.644170	-0.000312
1190	1.1831e+02	-7.3698	74.779865	0.000649	6.486695	2.197752	-0.000260
1191	1.1841e+02	-7.4148	74.525526	0.000639	6.385341	2.163412	-0.000256
1192	1.1850e+02	-7.4452	74.226778	0.000750	7.500242	2.541151	-0.000300
1193	1.1860e+02	-7.4982	73.972438	0.000639	6.385341	2.163412	-0.000256
1194	1.1870e+02	-7.5287	73.681764	0.000730	7.297532	2.472471	-0.000292
1195	1.1880e+02	-7.5720	73.431462	0.000628	6.283986	2.129072	-0.000252
1196	1.1890e+02	-7.6089	73.189234	0.000608	6.081277	2.060392	-0.000243
1197	1.1900e+02	-7.6538	72.898560	0.000730	7.297532	2.472471	-0.000292
1198	1.1910e+02	-7.6955	72.636146	0.000659	6.588050	2.232092	-0.000264
1199	1.1920e+02	-7.7324	72.369695	0.000669	6.689405	2.266432	-0.000268
1200	1.1930e+02	-7.7693	72.107281	0.000659	6.588050	2.232092	-0.000264
1201	1.1940e+02	-7.8030	71.848905	0.000649	6.486695	2.197752	-0.000260
1202	1.1950e+02	-7.8479	71.590528	0.000649	6.486695	2.197752	-0.000260
1203	1.1960e+02	-7.8880	71.332151	0.000649	6.486695	2.197752	-0.000260
1204	1.1970e+02	-7.9265	71.073775	0.000649	6.486695	2.197752	-0.000260
1205	1.1980e+02	-7.9650	70.787138	0.000720	7.196178	2.438131	-0.000288
1206	1.1990e+02	-8.0115	70.512613	0.000689	6.892114	2.335111	-0.000276
1207	1.2000e+02	-8.0484	70.270385	0.000608	6.081277	2.060392	-0.000243
1208	1.2010e+02	-8.0918	69.983748	0.000720	7.196178	2.438131	-0.000288
1209	1.2020e+02	-8.1319	69.741520	0.000608	6.081277	2.060392	-0.000243
1210	1.2030e+02	-8.1655	69.471032	0.000679	6.790759	2.300772	-0.000272
1211	1.2039e+02	-8.2073	69.208618	0.000659	6.588050	2.232092	-0.000264
1212	1.2049e+02	-8.2538	68.950241	0.000649	6.486695	2.197752	-0.000260
1213	1.2059e+02	-8.2843	68.647456	0.000760	7.601596	2.575490	-0.000304
1214	1.2069e+02	-8.3340	68.453674	0.000487	4.865022	1.648314	-0.000195
1215	1.2079e+02	-8.3661	68.138777	0.000791	7.905660	2.678510	-0.000316
1216	1.2089e+02	-8.3998	67.888475	0.000628	6.283986	2.129072	-0.000252
1217	1.2099e+02	-8.4463	67.650284	0.000598	5.979922	2.026053	-0.000239
1218	1.2109e+02	-8.4896	67.351536	0.000750	7.500242	2.541151	-0.000300
1219	1.2119e+02	-8.5313	67.145642	0.000517	5.169085	1.751334	-0.000207
1220	1.2129e+02	-8.5650	66.846894	0.000750	7.500242	2.541151	-0.000300
1221	1.2139e+02	-8.6035	66.608703	0.000598	5.979922	2.026053	-0.000239
1222	1.2149e+02	-8.6500	66.326103	0.000709	7.094823	2.403791	-0.000284
1223	1.2159e+02	-8.6949	66.071763	0.000639	6.385341	2.163412	-0.000256
1224	1.2169e+02	-8.7318	65.825498	0.000618	6.182632	2.094732	-0.000248
1225	1.2179e+02	-8.7655	65.579233	0.000618	6.182632	2.094732	-0.000248
1226	1.2189e+02	-8.8072	65.296633	0.000709	7.094823	2.403791	-0.000284
1227	1.2199e+02	-8.8393	65.066517	0.000578	5.777213	1.957373	-0.000231
1228	1.2209e+02	-8.8842	64.791991	0.000689	6.892114	2.335111	-0.000276
1229	1.2219e+02	-8.9276	64.505355	0.000720	7.196178	2.438131	-0.000288
1230	1.2229e+02	-8.9596	64.275238	0.000578	5.777213	1.957373	-0.000231
1231	1.2239e+02	-8.9997	64.012824	0.000659	6.588050	2.232092	-0.000264
1232	1.2248e+02	-9.0431	63.778670	0.000588	5.878568	1.991713	-0.000235
1233	1.2258e+02	-9.0767	63.536442	0.000608	6.081277	2.060392	-0.000243
1234	1.2268e+02	-9.1281	63.274028	0.000659	6.588050	2.232092	-0.000264
1235	1.2278e+02	-9.1650	62.983355	0.000730	7.297532	2.472471	-0.000292
1236	1.2288e+02	-9.2115	62.745164	0.000598	5.979922	2.026053	-0.000239
1237	1.2298e+02	-9.2564	62.482750	0.000659	6.588050	2.232092	-0.000264
1238	1.2308e+02	-9.2853	62.220336	0.000659	6.588050	2.232092	-0.000264
1239	1.2318e+02	-9.3334	61.986182	0.000588	5.878568	1.991713	-0.000235
1240	1.2328e+02	-9.3543	61.735880	0.000628	6.283986	2.129072	-0.000252
1241	1.2338e+02	-9.4040	61.461354	0.000689	6.892114	2.335111	-0.000276
1242	1.2348e+02	-9.4377	61.231238	0.000578	5.777213	1.957373	-0.000231
1243	1.2358e+02	-9.4794	60.993047	0.000598	5.979922	2.026053	-0.000239
1244	1.2368e+02	-9.5243	60.746781	0.000618	6.182632	2.094732	-0.000248
1245	1.2378e+02	-9.5596	60.403625	0.000862	8.615142	2.918889	-0.000345
1246	1.2388e+02	-9.5917	60.221954	0.000456	4.560958	1.545294	-0.000183
1247	1.2398e+02	-9.6430	59.939354	0.000709	7.094823	2.403791	-0.000284
1248	1.2408e+02	-9.6815	59.697126	0.000608	6.081277	2.060392	-0.000243
1249	1.2418e+02	-9.7217	59.418564	0.000699	6.993468	2.369451	-0.000280
1250	1.2428e+02	-9.7618	59.172299	0.000618	6.182632	2.094732	-0.000248
1251	1.2438e+02	-9.8035	58.934108	0.000598	5.979922	2.026053	-0.000239
1252	1.2447e+02	-9.8404	58.647471	0.000720	7.196178	2.438131	-0.000288
1253	1.2457e+02	-9.8789	58.385057	0.000659	6.588050	2.232092	-0.000264
1254	1.2467e+02	-9.9206	58.074198	0.000780	7.804305	2.644170	-0.000312
1255	1.2477e+02	-9.9655	57.807747	0.000669	6.689405	2.266432	-0.000268
1256	1.2487e+02	-9.9976	57.581667	0.000568	5.675858	1.923033	-0.000227
1257	1.2497e+02	-10.0441	57.262733	0.000801	8.007015	2.712850	-0.000321
1258	1.2507e+02	-10.0794	56.972060	0.000730	7.297532	2.472471	-0.000292
1259	1.2517e+02	-10.1243	56.709646	0.000659	6.588050	2.232092	-0.000264
1260	1.2527e+02	-10.1532	56.439158	0.000679	6.790759	2.300772	-0.000272
1261	1.2537e+02	-10.1981	56.132335	0.000770	7.702951	2.609830	-0.000308
1262	1.2547e+02	-10.2398	55.845699	0.000720	7.196178	2.438131	-0.000288
1263	1.2557e+02	-10.2799	55.591359	0.000639	6.385341	2.163412	-0.000256
1264	1.2567e+02	-10.3264	55.308760	0.000709	7.094823	2.403791	-0.000284
1265	1.2577e+02	-10.3537	54.973677	0.000841	8.412433	2.850209	-0.000337
1266	1.2587e+02	-10.3922	54.674929	0.000750	7.500242	2.541151	-0.000300
1267	1.2597e+02	-10.4387	54.416553	0.000649	6.486695	2.197752	-0.000260
1268	1.2607e+02	-10.4885	54.073396	0.000862	8.615142	2.918889	-0.000345
1269	1.2617e+02	-10.5109	53.794834	0.000699	6.993468	2.369451	-0.000280
1270	1.2627e+02	-10.5703	53.508197	0.000720	7.196178	2.438131	-0.000288
1271	1.2636e+02	-10.6056	53.209449	0.000750	7.500242	2.541151	-0.000300
1272	1.2646e+02	-10.6329	52.882441	0.000821	8.209724	2.781530	-0.000329
1273	1.2656e+02	-10.6698	52.547359	0.000841	8.412433	2.850209	-0.000337
1274	1.2666e+02	-10.7179	52.260722	0.000720	7.196178	2.438131	-0.000288
1275	1.2676e+02	-10.7532	51.937751	0.000811	8.108369	2.747190	-0.000325
1276	1.2686e+02	-10.8045	51.590558	0.000872	8.716497	2.953229	-0.000349
1277	1.2696e+02	-10.8414	51.328144	0.000659	6.588050	2.232092	-0.000264
1278	1.2706e+02	-10.8767	50.997099	0.000831	8.311078	2.815870	-0.000333
1279	1.2716e+02	-10.9248	50.662016	0.000841	8.412433	2.850209	-0.000337
1280	1.2726e+02	-10.9633	50.351157	0.000780	7.804305	2.644170	-0.000312
1281	1.2736e+02	-11.0002	50.028186	0.000811	8.108369	2.747190	-0.000325
1282	1.2746e+02	-11.0355	49.697141	0.000831	8.311078	2.815870	-0.000333
1283	1.2756e+02	-11.0724	49.374170	0.000811	8.108369	2.747190	-0.000325
1284	1.2766e+02	-11.1205	49.047162	0.000821	8.209724	2.781530	-0.000329
1285	1.2776e+02	-11.1526	48.716117	0.000831	8.311078	2.815870	-0.000333
1286	1.2786e+02	-11.1975	48.409295	0.000770	7.702951	2.609830	-0.000308
1287	1.2796e+02	-11.2377	48.082287	0.000821	8.209724	2.781530	-0.000329
1288	1.2806e+02	-11.2778	47.747204	0.000841	8.412433	2.850209	-0.000337
1289	1.2816e+02	-11.3211	47.387899	0.000902	9.020561	3.056249	-0.000361
1290	1.2826e+02	-11.3596	47.097226	0.000730	7.297532	2.472471	-0.000292
1291	1.2835e+02	-11.3965	46.729846	0.000922	9.223270	3.124928	-0.000369
1292	1.2845e+02	-11.4398	46.402838	0.000821	8.209724	2.781530	-0.000329
1293	1.2855e+02	-11.4638	46.047570	0.000892	8.919206	3.021909	-0.000357
1294	1.2865e+02	-11.5216	45.736711	0.000780	7.804305	2.644170	-0.000312
1295	1.2875e+02	-11.5585	45.324923	0.001034	10.338171	3.502667	-0.000414
1296	1.2885e+02	-11.5938	45.005989	0.000801	8.007015	2.712850	-0.000321
1297	1.2895e+02	-11.6355	44.654758	0.000882	8.817852	2.987569	-0.000353
1298	1.2905e+02	-11.6740	44.287379	0.000922	9.223270	3.124928	-0.000369
1299	1.2915e+02	-11.7141	43.980557	0.000770	7.702951	2.609830	-0.000308
1300	1.2925e+02	-11.7558	43.629326	0.000882	8.817852	2.987569	-0.000353
1301	1.2935e+02	-11.7943	43.265984	0.000912	9.121915	3.090589	-0.000365
1302	1.2945e+02	-11.8328	42.866307	0.001003	10.034107	3.399647	-0.000402
1303	1.2955e+02	-11.8809	42.547374	0.000801	8.007015	2.712850	-0.000321
1304	1.2965e+02	-11.9146	42.179994	0.000922	9.223270	3.124928	-0.000369
1305	1.2975e+02	-11.9499	41.776281	0.001014	10.135462	3.433987	-0.000406
1306	1.2985e+02	-11.9884	41.425050	0.000882	8.817852	2.987569	-0.000353
1307	1.2995e+02	-12.0269	41.053633	0.000932	9.324625	3.159268	-0.000373
1308	1.3005e+02	-12.0815	40.645883	0.001024	10.236816	3.468327	-0.000410
1309	1.3015e+02	-12.1120	40.282540	0.000912	9.121915	3.090589	-0.000365
1310	1.3025e+02	-12.1633	39.927272	0.000892	8.919206	3.021909	-0.000357
1311	1.3034e+02	-12.1841	39.555856	0.000932	9.324625	3.159268	-0.000373
1312	1.3044e+02	-12.2355	39.160217	0.000993	9.932752	3.365308	-0.000398
1313	1.3054e+02	-12.2692	38.792837	0.000922	9.223270	3.124928	-0.000369
1314	1.3064e+02	-12.3157	38.421421	0.000932	9.324625	3.159268	-0.000373
1315	1.3074e+02	-12.3574	38.029819	0.000983	9.831398	3.330968	-0.000394
1316	1.3084e+02	-12.3879	37.658402	0.000932	9.324625	3.159268	-0.000373
1317	1.3094e+02	-12.4280	37.230466	0.001074	10.743589	3.640027	-0.000430
1318	1.3104e+02	-12.4729	36.806567	0.001064	10.642235	3.605687	-0.000426
1319	1.3114e+02	-12.5178	36.451299	0.000892	8.919206	3.021909	-0.000357
1320	1.3124e+02	-12.5403	36.059696	0.000983	9.831398	3.330968	-0.000394
1321	1.3134e+02	-12.5772	35.651946	0.001024	10.236816	3.468327	-0.000410
1322	1.3144e+02	-12.6317	35.264381	0.000973	9.730043	3.296628	-0.000390
1323	1.3154e+02	-12.6766	34.860667	0.001014	10.135462	3.433987	-0.000406
1324	1.3164e+02	-12.7071	34.400434	0.001155	11.554426	3.914746	-0.000463
1325	1.3174e+02	-12.7472	34.020943	0.000953	9.527334	3.227948	-0.000381
1326	1.3184e+02	-12.7873	33.588969	0.001084	10.844944	3.674366	-0.000434
1327	1.3194e+02	-12.8290	33.189293	0.001003	10.034107	3.399647	-0.000402
1328	1.3204e+02	-12.8708	32.761357	0.001074	10.743589	3.640027	-0.000430
1329	1.3214e+02	-12.9189	32.381866	0.000953	9.527334	3.227948	-0.000381
1330	1.3224e+02	-12.9510	31.937781	0.001115	11.149008	3.777386	-0.000446
1331	1.3234e+02	-12.9879	31.542142	0.000993	9.932752	3.365308	-0.000398
1332	1.3243e+02	-13.0264	31.122279	0.001054	10.540880	3.571347	-0.000422
1333	1.3253e+02	-13.0601	30.629749	0.001237	12.365263	4.189465	-0.000495
1334	1.3263e+02	-13.1050	30.234110	0.000993	9.932752	3.365308	-0.000398
1335	1.3273e+02	-13.1483	29.781950	0.001135	11.351717	3.846066	-0.000454
1336	1.3283e+02	-13.1868	29.325754	0.001145	11.453072	3.880406	-0.000458
1337	1.3293e+02	-13.2301	28.893780	0.001084	10.844944	3.674366	-0.000434
1338	1.3303e+02	-13.2670	28.465844	0.001074	10.743589	3.640027	-0.000430
1339	1.3313e+02	-13.3055	28.001573	0.001166	11.655781	3.949085	-0.000467
1340	1.3323e+02	-13.3488	27.553451	0.001125	11.250362	3.811726	-0.000450
1341	1.3333e+02	-13.4002	27.081107	0.001186	11.858490	4.017765	-0.000475
1342	1.3343e+02	-13.4210	26.685467	0.000993	9.932752	3.365308	-0.000398
1343	1.3353e+02	-13.4788	26.164677	0.001307	13.074745	4.429844	-0.000523
1344	1.3363e+02	-13.5076	25.748852	0.001044	10.439525	3.537007	-0.000418
1345	1.3373e+02	-13.5477	25.284581	0.001166	11.655781	3.949085	-0.000467
1346	1.3383e+02	-13.5830	24.800125	0.001216	12.162554	4.120785	-0.000487
1347	1.3393e+02	-13.6296	24.283371	0.001297	12.973391	4.395504	-0.000519
1348	1.3403e+02	-13.6649	23.847361	0.001095	10.946298	3.708706	-0.000438
1349	1.3413e+02	-13.7050	23.342719	0.001267	12.669327	4.292484	-0.000507
1350	1.3423e+02	-13.7435	22.886522	0.001145	11.453072	3.880406	-0.000458
1351	1.3432e+02	-13.7836	22.373806	0.001287	12.872036	4.361164	-0.000515
1352	1.3442e+02	-13.8253	21.881276	0.001237	12.365263	4.189465	-0.000495
1353	1.3452e+02	-13.8686	21.396819	0.001216	12.162554	4.120785	-0.000487
1354	1.3462e+02	-13.9007	20.888140	0.001277	12.770682	4.326824	-0.000511
1355	1.3472e+02	-13.9472	20.395610	0.001237	12.365263	4.189465	-0.000495
1356	1.3482e+02	-13.9889	19.927302	0.001176	11.757135	3.983425	-0.000471
1357	1.3492e+02	-14.0274	19.366140	0.001409	14.088292	4.773242	-0.000564
1358	1.3502e+02	-14.0611	18.885721	0.001206	12.061199	4.086445	-0.000483
1359	1.3512e+02	-14.1108	18.344745	0.001358	13.581518	4.601543	-0.000544
1360	1.3522e+02	-14.1525	17.852214	0.001237	12.365263	4.189465	-0.000495
1361	1.3532e+02	-14.1943	17.319312	0.001338	13.378809	4.532863	-0.000536
1362	1.3542e+02	-14.2344	16.750076	0.001429	14.291001	4.841922	-0.000572
1363	1.3552e+02	-14.2713	16.261583	0.001226	12.263908	4.155125	-0.000491
1364	1.3562e+02	-14.3033	15.688309	0.001439	14.392355	4.876262	-0.000576
1365	1.3572e+02	-14.3499	15.139259	0.001378	13.784228	4.670223	-0.000552
1366	1.3582e+02	-14.3948	14.614431	0.001318	13.176100	4.464184	-0.000527
1367	1.3592e+02	-14.4237	14.041158	0.001439	14.392355	4.876262	-0.000576
1368	1.3602e+02	-14.4557	13.520368	0.001307	13.074745	4.429844	-0.000523
1369	1.3612e+02	-14.5071	12.934983	0.001470	14.696419	4.979282	-0.000588
1370	1.3622e+02	-14.5408	12.345561	0.001480	14.797774	5.013621	-0.000592
1371	1.3631e+02	-14.5712	11.780362	0.001419	14.189646	4.807582	-0.000568
1372	1.3641e+02	-14.6258	11.215163	0.001419	14.189646	4.807582	-0.000568
1373	1.3651e+02	-14.6515	10.621704	0.001490	14.899128	5.047961	-0.000596
1374	1.3661e+02	-14.7060	10.056505	0.001419	14.189646	4.807582	-0.000568
1375	1.3671e+02	-14.7349	9.450935	0.001520	15.203192	5.150981	-0.000609
1376	1.3681e+02	-14.7750	8.865550	0.001470	14.696419	4.979282	-0.000588
1377	1.3691e+02	-14.8167	8.292277	0.001439	14.392355	4.876262	-0.000576
1378	1.3701e+02	-14.8568	7.626149	0.001672	16.723512	5.666079	-0.000669
1379	1.3711e+02	-14.8905	7.056913	0.001429	14.291001	4.841922	-0.000572
1380	1.3721e+02	-14.9370	6.382712	0.001693	16.926221	5.734759	-0.000678
1381	1.3731e+02	-14.9787	5.777141	0.001520	15.203192	5.150981	-0.000609
1382	1.3741e+02	-15.0204	5.151385	0.001571	15.709965	5.322680	-0.000629
1383	1.3751e+02	-15.0621	4.529666	0.001561	15.608611	5.288340	-0.000625
1384	1.3761e+02	-15.0878	3.871613	0.001652	16.520802	5.597399	-0.000661
1385	1.3771e+02	-15.1359	3.237783	0.001591	15.912675	5.391360	-0.000637
1386	1.3781e+02	-15.1825	2.575693	0.001662	16.622157	5.631739	-0.000665
1387	1.3791e+02	-15.2210	1.873231	0.001764	17.635703	5.975138	-0.000706
1388	1.3801e+02	-15.2563	1.271698	0.001510	15.101838	5.116641	-0.000605
1389	1.3811e+02	-15.2996	0.617682	0.001642	16.419448	5.563059	-0.000657
1390	1.3821e+02	-15.3413	-0.084780	0.001764	17.635703	5.975138	-0.000706
1391	1.3831e+02	-15.3718	-0.799353	0.001794	17.939767	6.078158	-0.000718
1392	1.3840e+02	-15.4135	-1.421072	0.001561	15.608611	5.288340	-0.000625
1393	1.3850e+02	-15.4600	-2.151793	0.001835	18.345185	6.215517	-0.000734
1394	1.3860e+02	-15.4985	-2.809846	0.001652	16.520802	5.597399	-0.000661
1395	1.3870e+02	-15.5418	-3.580939	0.001936	19.358732	6.558916	-0.000775
1396	1.3880e+02	-15.5787	-4.243030	0.001662	16.622157	5.631739	-0.000665
1397	1.3890e+02	-15.6172	-4.977788	0.001845	18.446540	6.249857	-0.000738
1398	1.3900e+02	-15.6525	-5.700436	0.001814	18.142476	6.146837	-0.000726
1399	1.3910e+02	-15.7022	-6.439232	0.001855	18.547895	6.284197	-0.000743
1400	1.3920e+02	-15.7359	-7.178027	0.001855	18.547895	6.284197	-0.000743
1401	1.3930e+02	-15.7776	-7.961232	0.001966	19.662795	6.661935	-0.000787
1402	1.3940e+02	-15.8209	-8.683879	0.001814	18.142476	6.146837	-0.000726
1403	1.3950e+02	-15.8643	-9.454972	0.001936	19.358732	6.558916	-0.000775
1404	1.3960e+02	-15.8996	-10.234139	0.001956	19.561441	6.627596	-0.000783
1405	1.3970e+02	-15.9445	-10.985046	0.001885	18.851958	6.387216	-0.000755
1406	1.3980e+02	-15.9701	-11.739991	0.001895	18.953313	6.421556	-0.000759
1407	1.3990e+02	-16.0118	-12.579715	0.002108	21.081760	7.142694	-0.000844
1408	1.4000e+02	-16.0552	-13.399254	0.002057	20.574987	6.970994	-0.000824
1409	1.4010e+02	-16.0969	-14.150161	0.001885	18.851958	6.387216	-0.000755
1410	1.4020e+02	-16.1290	-15.026219	0.002199	21.993951	7.451752	-0.000880
1411	1.4029e+02	-16.1819	-15.869981	0.002118	21.183115	7.177034	-0.000848
1412	1.4039e+02	-16.2156	-16.689519	0.002057	20.574987	6.970994	-0.000824
1413	1.4049e+02	-16.2557	-17.500983	0.002037	20.372278	6.902315	-0.000816
1414	1.4059e+02	-16.2974	-18.373005	0.002189	21.892597	7.417413	-0.000876
1415	1.4069e+02	-16.3327	-19.200618	0.002078	20.777696	7.039674	-0.000832
1416	1.4079e+02	-16.3728	-20.092825	0.002240	22.399370	7.589112	-0.000897
1417	1.4089e+02	-16.4097	-20.948697	0.002149	21.487178	7.280053	-0.000860
1418	1.4099e+02	-16.4514	-21.820719	0.002189	21.892597	7.417413	-0.000876
1419	1.4109e+02	-16.5027	-22.745223	0.002321	23.210207	7.863831	-0.000929
1420	1.4119e+02	-16.5332	-23.621281	0.002199	21.993951	7.451752	-0.000880
1421	1.4129e+02	-16.5717	-24.517525	0.002250	22.500725	7.623452	-0.000901
1422	1.4139e+02	-16.6182	-25.486438	0.002433	24.325108	8.241570	-0.000974
1423	1.4149e+02	-16.6567	-26.346348	0.002159	21.588533	7.314393	-0.000864
1424	1.4159e+02	-16.7017	-27.367743	0.002564	25.642718	8.687988	-0.001027
1425	1.4169e+02	-16.7338	-28.272062	0.002270	22.703434	7.692132	-0.000909
1426	1.4179e+02	-16.7819	-29.273271	0.002514	25.135945	8.516289	-0.001006
1427	1.4189e+02	-16.8204	-30.234110	0.002412	24.122398	8.172890	-0.000966
1428	1.4199e+02	-16.8477	-31.203022	0.002433	24.325108	8.241570	-0.000974
1429	1.4209e+02	-16.8894	-32.224417	0.002564	25.642718	8.687988	-0.001027
1430	1.4219e+02	-16.9359	-33.237739	0.002544	25.440008	8.619308	-0.001018
1431	1.4228e+02	-16.9744	-34.218763	0.002463	24.629171	8.344589	-0.000986
1432	1.4238e+02	-17.0145	-35.268418	0.002635	26.352200	8.928367	-0.001055
1433	1.4248e+02	-17.0530	-36.297887	0.002585	25.845427	8.756668	-0.001035
1434	1.4258e+02	-17.0979	-37.355617	0.002655	26.554909	8.997047	-0.001063
1435	1.4268e+02	-17.1396	-38.409309	0.002645	26.453555	8.962707	-0.001059
1436	1.4278e+02	-17.1653	-39.491262	0.002716	27.163037	9.203086	-0.001087
1437	1.4288e+02	-17.2102	-40.553028	0.002666	26.656264	9.031387	-0.001067
1438	1.4298e+02	-17.2535	-41.687464	0.002848	28.480647	9.649504	-0.001140
1439	1.4308e+02	-17.2936	-42.805750	0.002808	28.075228	9.512145	-0.001124
1440	1.4318e+02	-17.3321	-43.883665	0.002706	27.061682	9.168746	-0.001083
1441	1.4328e+02	-17.3706	-45.018101	0.002848	28.480647	9.649504	-0.001140
1442	1.4338e+02	-17.4139	-46.124276	0.002777	27.771165	9.409125	-0.001112
1443	1.4348e+02	-17.4541	-47.339454	0.003051	30.507739	10.336302	-0.001221
1444	1.4358e+02	-17.4926	-48.486000	0.002878	28.784711	9.752524	-0.001152
1445	1.4368e+02	-17.5311	-49.668881	0.002970	29.696902	10.061583	-0.001189
1446	1.4378e+02	-17.5728	-50.827539	0.002909	29.088775	9.855544	-0.001164
1447	1.4388e+02	-17.6113	-52.099237	0.003193	31.926704	10.817060	-0.001278
1448	1.4398e+02	-17.6401	-53.318452	0.003061	30.609094	10.370642	-0.001225
1449	1.4408e+02	-17.6963	-54.525555	0.003031	30.305030	10.267622	-0.001213
1450	1.4418e+02	-17.7316	-55.801290	0.003203	32.028058	10.851400	-0.001282
1451	1.4428e+02	-17.7797	-57.060877	0.003162	31.622640	10.714040	-0.001266
1452	1.4437e+02	-17.8134	-58.312389	0.003142	31.419931	10.645361	-0.001258
1453	1.4447e+02	-17.8503	-59.608309	0.003253	32.534831	11.023099	-0.001302
1454	1.4457e+02	-17.8904	-60.884044	0.003203	32.028058	10.851400	-0.001282
1455	1.4467e+02	-17.9273	-62.248596	0.003426	34.257860	11.606877	-0.001371
1456	1.4477e+02	-17.9722	-63.576814	0.003335	33.345668	11.297818	-0.001335
1457	1.4487e+02	-18.0059	-64.925217	0.003385	33.852441	11.469518	-0.001355
1458	1.4497e+02	-18.0540	-66.261509	0.003355	33.548378	11.366498	-0.001343
1459	1.4507e+02	-18.0941	-67.678544	0.003558	35.575470	12.053296	-0.001424
1460	1.4517e+02	-18.1230	-69.083467	0.003527	35.271406	11.950276	-0.001412
1461	1.4527e+02	-18.1663	-70.468204	0.003476	34.764633	11.778577	-0.001392
1462	1.4537e+02	-18.2145	-71.953870	0.003730	37.298498	12.637073	-0.001493
1463	1.4547e+02	-18.2498	-73.354756	0.003517	35.170051	11.915936	-0.001408
1464	1.4557e+02	-18.2866	-74.896942	0.003872	38.717463	13.117832	-0.001550
1465	1.4567e+02	-18.3412	-76.301865	0.003527	35.271406	11.950276	-0.001412
1466	1.4577e+02	-18.3717	-77.856163	0.003902	39.021527	13.220851	-0.001562
1467	1.4587e+02	-18.4070	-79.301457	0.003628	36.284952	12.293675	-0.001453
1468	1.4597e+02	-18.4471	-80.867866	0.003933	39.325591	13.323871	-0.001574
1469	1.4607e+02	-18.4840	-82.401978	0.003851	38.514754	13.049152	-0.001542
1470	1.4617e+02	-18.5241	-84.008758	0.004034	40.339137	13.667270	-0.001615
1471	1.4626e+02	-18.5674	-85.611500	0.004024	40.237782	13.632930	-0.001611
1472	1.4636e+02	-18.6043	-87.214243	0.004024	40.237782	13.632930	-0.001611
1473	1.4646e+02	-18.6476	-88.849283	0.004105	41.048619	13.907649	-0.001643
1474	1.4656e+02	-18.6877	-90.524695	0.004206	42.062165	14.251047	-0.001684
1475	1.4666e+02	-18.7374	-92.155697	0.004095	40.947265	13.873309	-0.001639
1476	1.4676e+02	-18.7631	-93.851295	0.004257	42.568938	14.422747	-0.001704
1477	1.4686e+02	-18.8032	-95.563040	0.004297	42.974357	14.560106	-0.001720
1478	1.4696e+02	-18.8497	-97.274786	0.004297	42.974357	14.560106	-0.001720
1479	1.4706e+02	-18.8834	-99.047088	0.004449	44.494676	15.075204	-0.001781
1480	1.4716e+02	-18.9283	-100.839576	0.004500	45.001449	15.246904	-0.001801
1481	1.4726e+02	-18.9668	-102.599768	0.004419	44.190612	14.972185	-0.001769
1482	1.4736e+02	-19.0053	-104.440702	0.004622	46.217705	15.658982	-0.001850
1483	1.4746e+02	-19.0471	-106.285673	0.004632	46.319059	15.693322	-0.001854
1484	1.4756e+02	-19.0791	-108.102384	0.004561	45.609577	15.452943	-0.001826
1485	1.4766e+02	-19.1257	-110.048283	0.004885	48.852925	16.551819	-0.001956
1486	1.4776e+02	-19.1561	-111.929588	0.004723	47.231251	16.002381	-0.001891
1487	1.4786e+02	-19.2075	-113.867413	0.004865	48.650215	16.483139	-0.001948
1488	1.4796e+02	-19.2460	-115.877907	0.005047	50.474598	17.101257	-0.002021
1489	1.4806e+02	-19.2829	-117.807658	0.004845	48.447506	16.414459	-0.001939
1490	1.4816e+02	-19.3198	-119.814114	0.005037	50.373244	17.066917	-0.002017
1491	1.4825e+02	-19.3711	-121.836719	0.005078	50.778662	17.204276	-0.002033
1492	1.4835e+02	-19.3984	-123.899696	0.005179	51.792208	17.547675	-0.002073
1493	1.4845e+02	-19.4465	-125.938449	0.005118	51.184081	17.341636	-0.002049
1494	1.4855e+02	-19.4770	-128.045834	0.005291	52.907109	17.925414	-0.002118
1495	1.4865e+02	-19.5251	-130.165330	0.005321	53.211173	18.028433	-0.002130
1496	1.4875e+02	-19.5716	-132.329235	0.005433	54.326074	18.406172	-0.002175
1497	1.4885e+02	-19.5957	-134.481029	0.005402	54.022010	18.303152	-0.002163
1498	1.4895e+02	-19.6406	-136.778159	0.005767	57.670776	19.539388	-0.002309
1499	1.4905e+02	-19.6823	-138.962249	0.005483	54.832847	18.577871	-0.002195
1500	1.4915e+02	-19.7256	-141.202860	0.005625	56.251811	19.058630	-0.002252
1501	1.4925e+02	-19.7609	-143.475767	0.005706	57.062648	19.333349	-0.002284
1502	1.4935e+02	-19.8123	-145.821343	0.005889	58.887031	19.951466	-0.002357
1503	1.4945e+02	-19.8476	-148.146733	0.005838	58.380258	19.779767	-0.002337
1504	1.4955e+02	-19.8813	-150.552866	0.006041	60.407351	20.466564	-0.002418
1505	1.4965e+02	-19.9230	-152.999370	0.006142	61.420897	20.809963	-0.002459
1506	1.4975e+02	-19.9567	-155.389355	0.006000	60.001932	20.329205	-0.002402
1507	1.4985e+02	-20.0080	-157.847970	0.006172	61.724961	20.912983	-0.002471
1508	1.4995e+02	-19.9599	-159.919021	-0.005199	-51.994918	-17.616355	-0.002081
1509	1.5005e+02	-19.9230	-161.844735	-0.004835	-48.346151	-16.380120	-0.001935
1510	1.5015e+02	-19.8748	-163.681631	-0.004612	-46.116350	-15.624642	-0.001846
1511	1.5025e+02	-19.8460	-165.466045	-0.004480	-44.798740	-15.178224	-0.001793
1512	1.5034e+02	-19.7994	-167.141457	-0.004206	-42.062165	-14.251047	-0.001684
1513	1.5044e+02	-19.7690	-168.748237	-0.004034	-40.339137	-13.667270	-0.001615
1514	1.5054e+02	-19.7208	-170.274274	-0.003831	-38.312045	-12.980472	-0.001534
1515	1.5064e+02	-19.6839	-171.751866	-0.003710	-37.095789	-12.568394	-0.001485
1516	1.5074e+02	-19.6374	-173.144678	-0.003497	-34.967342	-11.847256	-0.001400
1517	1.5084e+02	-19.5941	-174.505192	-0.003416	-34.156505	-11.572537	-0.001367
1518	1.5094e+02	-19.5588	-175.805150	-0.003264	-32.636186	-11.057439	-0.001306
1519	1.5104e+02	-19.5219	-177.088959	-0.003223	-32.230768	-10.920080	-0.001290
1520	1.5114e+02	-19.4866	-178.263766	-0.002949	-29.494193	-9.992903	-0.001181
1521	1.5124e+02	-19.4465	-179.434535	-0.002939	-29.392838	-9.958563	-0.001177
1522	1.5134e+02	-19.4016	-180.524562	-0.002737	-27.365746	-9.271766	-0.001096
1523	1.5144e+02	-19.3615	-181.590365	-0.002676	-26.757618	-9.065727	-0.001071
1524	1.5154e+02	-19.3230	-182.623872	-0.002595	-25.946781	-8.791008	-0.001039
1525	1.5164e+02	-19.2845	-183.572599	-0.002382	-23.818335	-8.069870	-0.000953
1526	1.5174e+02	-19.2492	-184.565735	-0.002493	-24.933235	-8.447609	-0.000998
1527	1.5184e+02	-19.2059	-185.498313	-0.002341	-23.412916	-7.932511	-0.000937
1528	1.5194e+02	-19.1722	-186.334000	-0.002098	-20.980405	-7.108354	-0.000840
1529	1.5204e+02	-19.1273	-187.125279	-0.001987	-19.865505	-6.730615	-0.000795
1530	1.5214e+02	-19.0872	-187.981151	-0.002149	-21.487178	-7.280053	-0.000860
1531	1.5224e+02	-19.0471	-188.744170	-0.001916	-19.156022	-6.490236	-0.000767
1532	1.5233e+02	-19.0166	-189.462780	-0.001804	-18.041122	-6.112497	-0.000722
1533	1.5243e+02	-18.9620	-190.161205	-0.001753	-17.534348	-5.940798	-0.000702
1534	1.5253e+02	-18.9235	-190.916149	-0.001895	-18.953313	-6.421556	-0.000759
1535	1.5263e+02	-18.8866	-191.489422	-0.001439	-14.392355	-4.876262	-0.000576
1536	1.5273e+02	-18.8465	-192.139401	-0.001632	-16.318093	-5.528720	-0.000653
1537	1.5283e+02	-18.8032	-192.740934	-0.001510	-15.101838	-5.116641	-0.000605
1538	1.5293e+02	-18.7631	-193.289985	-0.001378	-13.784228	-4.670223	-0.000552
1539	1.5303e+02	-18.7310	-193.843072	-0.001389	-13.885582	-4.704563	-0.000556
1540	1.5313e+02	-18.6909	-194.396160	-0.001389	-13.885582	-4.704563	-0.000556
1541	1.5323e+02	-18.6396	-194.896765	-0.001257	-12.567972	-4.258144	-0.000503
1542	1.5333e+02	-18.6107	-195.320664	-0.001064	-10.642235	-3.605687	-0.000426
1543	1.5343e+02	-18.5722	-195.845492	-0.001318	-13.176100	-4.464184	-0.000527
1544	1.5353e+02	-18.5257	-196.269391	-0.001064	-10.642235	-3.605687	-0.000426
1545	1.5363e+02	-18.4952	-196.701365	-0.001084	-10.844944	-3.674366	-0.000434
1546	1.5373e+02	-18.4471	-197.068744	-0.000922	-9.223270	-3.124928	-0.000369
1547	1.5383e+02	-18.4054	-197.464383	-0.000993	-9.932752	-3.365308	-0.000398
1548	1.5393e+02	-18.3685	-197.823688	-0.000902	-9.020561	-3.056249	-0.000361
1549	1.5403e+02	-18.3316	-198.146659	-0.000811	-8.108369	-2.747190	-0.000325
1550	1.5413e+02	-18.2947	-198.518076	-0.000932	-9.324625	-3.159268	-0.000373
1551	1.5422e+02	-18.2385	-198.784527	-0.000669	-6.689405	-2.266432	-0.000268
1552	1.5432e+02	-18.2032	-199.139795	-0.000892	-8.919206	-3.021909	-0.000357
1553	1.5442e+02	-18.1663	-199.406246	-0.000669	-6.689405	-2.266432	-0.000268
1554	1.5452e+02	-18.1294	-199.636362	-0.000578	-5.777213	-1.957373	-0.000231
1555	1.5462e+02	-18.0909	-199.886665	-0.000628	-6.283986	-2.129072	-0.000252
1556	1.5472e+02	-18.0508	-200.116781	-0.000578	-5.777213	-1.957373	-0.000231
1557	1.5482e+02	-18.0107	-200.342861	-0.000568	-5.675858	-1.923033	-0.000227
1558	1.5492e+02	-17.9706	-200.577015	-0.000588	-5.878568	-1.991713	-0.000235
1559	1.5502e+02	-17.9289	-200.778872	-0.000507	-5.067731	-1.716994	-0.000203
1560	1.5512e+02	-17.8920	-200.916134	-0.000345	-3.446057	-1.167556	-0.000138
1561	1.5522e+02	-17.8487	-201.130102	-0.000537	-5.371795	-1.820013	-0.000215
1562	1.5532e+02	-17.8102	-201.283514	-0.000385	-3.851475	-1.304915	-0.000154
1563	1.5542e+02	-17.7669	-201.412702	-0.000324	-3.243348	-1.098876	-0.000130
1564	1.5552e+02	-17.7316	-201.574187	-0.000405	-4.054185	-1.373595	-0.000162
1565	1.5562e+02	-17.6931	-201.699339	-0.000314	-3.141993	-1.064536	-0.000126
1566	1.5572e+02	-17.6514	-201.800267	-0.000253	-2.533865	-0.858497	-0.000101
1567	1.5582e+02	-17.6113	-201.945604	-0.000365	-3.648766	-1.236235	-0.000146
1568	1.5592e+02	-17.5663	-202.050569	-0.000264	-2.635220	-0.892837	-0.000105
1569	1.5602e+02	-17.5375	-202.123238	-0.000182	-1.824383	-0.618118	-0.000073
1570	1.5612e+02	-17.4910	-202.232241	-0.000274	-2.736575	-0.927177	-0.000110
1571	1.5622e+02	-17.4476	-202.292798	-0.000152	-1.520319	-0.515098	-0.000061
1572	1.5631e+02	-17.4139	-202.349317	-0.000142	-1.418965	-0.480758	-0.000057
1573	1.5641e+02	-17.3690	-202.430060	-0.000203	-2.027092	-0.686797	-0.000081
1574	1.5651e+02	-17.3289	-202.474469	-0.000111	-1.114901	-0.377739	-0.000045
1575	1.5661e+02	-17.3049	-202.474469	0.000000	0.000000	0.000000	0.000000
1576	1.5671e+02	-17.2567	-202.506766	-0.000081	-0.810837	-0.274719	-0.000032
1577	1.5681e+02	-17.2086	-202.591546	-0.000213	-2.128447	-0.721137	-0.000085
1578	1.5691e+02	-17.1653	-202.644028	-0.000132	-1.317610	-0.446418	-0.000053
1579	1.5701e+02	-17.1348	-202.607694	0.000091	0.912192	0.309059	0.000037
1580	1.5711e+02	-17.0979	-202.652103	-0.000111	-1.114901	-0.377739	-0.000045
1581	1.5721e+02	-17.0578	-202.627880	0.000061	0.608128	0.206039	0.000024
1582	1.5731e+02	-17.0193	-202.627880	0.000000	0.000000	0.000000	0.000000
1583	1.5741e+02	-16.9808	-202.603657	0.000061	0.608128	0.206039	0.000024
1584	1.5751e+02	-16.9375	-202.623843	-0.000051	-0.506773	-0.171699	-0.000020
1585	1.5761e+02	-16.8942	-202.559249	0.000162	1.621674	0.549438	0.000065
1586	1.5771e+02	-16.8477	-202.599620	-0.000101	-1.013546	-0.343399	-0.000041
1587	1.5781e+02	-16.8172	-202.514840	0.000213	2.128447	0.721137	0.000085
1588	1.5791e+02	-16.7819	-202.530989	-0.000041	-0.405418	-0.137359	-0.000016
1589	1.5801e+02	-16.7289	-202.486580	0.000111	1.114901	0.377739	0.000045
1590	1.5811e+02	-16.6888	-202.454283	0.000081	0.810837	0.274719	0.000032
1591	1.5821e+02	-16.6567	-202.369503	0.000213	2.128447	0.721137	0.000085
1592	1.5830e+02	-16.6150	-202.325095	0.000111	1.114901	0.377739	0.000045
1593	1.5840e+02	-16.5749	-202.284723	0.000101	1.013546	0.343399	0.000041
1594	1.5850e+02	-16.5428	-202.272612	0.000030	0.304064	0.103020	0.000012
1595	1.5860e+02	-16.4947	-202.163609	0.000274	2.736575	0.927177	0.000110
1596	1.5870e+02	-16.4562	-202.199943	-0.000091	-0.912192	-0.309059	-0.000037
1597	1.5880e+02	-16.4241	-202.062681	0.000345	3.446057	1.167556	0.000138
1598	1.5890e+02	-16.3776	-202.018272	0.000111	1.114901	0.377739	0.000045
1599	1.5900e+02	-16.3359	-201.941567	0.000193	1.925738	0.652458	0.000077
1600	1.5910e+02	-16.3022	-201.832564	0.000274	2.736575	0.927177	0.000110
1601	1.5920e+02	-16.2541	-201.739710	0.000233	2.331156	0.789817	0.000093
1602	1.5930e+02	-16.2108	-201.691264	0.000122	1.216255	0.412078	0.000049
1603	1.5940e+02	-16.1771	-201.562076	0.000324	3.243348	1.098876	0.000130
1604	1.5950e+02	-16.1322	-201.533816	0.000071	0.709482	0.240379	0.000028
1605	1.5960e+02	-16.0969	-201.453073	0.000203	2.027092	0.686797	0.000081
1606	1.5970e+02	-16.0552	-201.327922	0.000314	3.141993	1.064536	0.000126
1607	1.5980e+02	-16.0167	-201.259291	0.000172	1.723028	0.583778	0.000069
1608	1.5990e+02	-15.9750	-201.194697	0.000162	1.621674	0.549438	0.000065
1609	1.6000e+02	-15.9413	-201.069545	0.000314	3.141993	1.064536	0.000126
1610	1.6010e+02	-15.8963	-200.972654	0.000243	2.432511	0.824157	0.000097
1611	1.6019e+02	-15.8546	-200.843466	0.000324	3.243348	1.098876	0.000130
1612	1.6029e+02	-15.8209	-200.738500	0.000264	2.635220	0.892837	0.000105
1613	1.6039e+02	-15.7808	-200.665832	0.000182	1.824383	0.618118	0.000073
1614	1.6049e+02	-15.7407	-200.520495	0.000365	3.648766	1.236235	0.000146
1615	1.6059e+02	-15.7022	-200.455901	0.000162	1.621674	0.549438	0.000065
1616	1.6069e+02	-15.6525	-200.294415	0.000405	4.054185	1.373595	0.000162
1617	1.6079e+02	-15.6188	-200.165227	0.000324	3.243348	1.098876	0.000130
1618	1.6089e+02	-15.5803	-200.060261	0.000264	2.635220	0.892837	0.000105
1619	1.6099e+02	-15.5386	-199.975482	0.000213	2.128447	0.721137	0.000085
1620	1.6109e+02	-15.4969	-199.842256	0.000334	3.344702	1.133216	0.000134
1621	1.6119e+02	-15.4648	-199.692882	0.000375	3.750121	1.270575	0.000150
1622	1.6129e+02	-15.4247	-199.595991	0.000243	2.432511	0.824157	0.000097
1623	1.6139e+02	-15.3750	-199.507174	0.000223	2.229802	0.755477	0.000089
1624	1.6149e+02	-15.3429	-199.361837	0.000365	3.648766	1.236235	0.000146
1625	1.6159e+02	-15.3012	-199.228612	0.000334	3.344702	1.133216	0.000134
1626	1.6169e+02	-15.2595	-199.046940	0.000456	4.560958	1.545294	0.000183
1627	1.6179e+02	-15.2242	-198.998495	0.000122	1.216255	0.412078	0.000049
1628	1.6189e+02	-15.1744	-198.808749	0.000476	4.763667	1.613974	0.000191
1629	1.6199e+02	-15.1359	-198.671487	0.000345	3.446057	1.167556	0.000138
1630	1.6209e+02	-15.1087	-198.582670	0.000223	2.229802	0.755477	0.000089
1631	1.6219e+02	-15.0621	-198.465593	0.000294	2.939284	0.995856	0.000118
1632	1.6228e+02	-15.0301	-198.308145	0.000395	3.952830	1.339255	0.000158
1633	1.6238e+02	-14.9787	-198.150696	0.000395	3.952830	1.339255	0.000158
1634	1.6248e+02	-14.9434	-198.037656	0.000284	2.837929	0.961516	0.000114
1635	1.6258e+02	-14.9033	-197.851948	0.000466	4.662312	1.579634	0.000187
1636	1.6268e+02	-14.8664	-197.730834	0.000304	3.040638	1.030196	0.000122
1637	1.6278e+02	-14.8215	-197.573386	0.000395	3.952830	1.339255	0.000158
1638	1.6288e+02	-14.7814	-197.432086	0.000355	3.547412	1.201896	0.000142
1639	1.6298e+02	-14.7349	-197.310972	0.000304	3.040638	1.030196	0.000122
1640	1.6308e+02	-14.7028	-197.206007	0.000264	2.635220	0.892837	0.000105
1641	1.6318e+02	-14.6563	-197.060670	0.000365	3.648766	1.236235	0.000146
1642	1.6328e+02	-14.6258	-196.878999	0.000456	4.560958	1.545294	0.000183
1643	1.6338e+02	-14.5873	-196.737699	0.000355	3.547412	1.201896	0.000142
1644	1.6348e+02	-14.5440	-196.616585	0.000304	3.040638	1.030196	0.000122
1645	1.6358e+02	-14.4910	-196.463174	0.000385	3.851475	1.304915	0.000154
1646	1.6368e+02	-14.4718	-196.313800	0.000375	3.750121	1.270575	0.000150
1647	1.6378e+02	-14.4285	-196.176537	0.000345	3.446057	1.167556	0.000138
1648	1.6388e+02	-14.3868	-195.978717	0.000497	4.966376	1.682654	0.000199
1649	1.6398e+02	-14.3467	-195.833380	0.000365	3.648766	1.236235	0.000146
1650	1.6408e+02	-14.3146	-195.744563	0.000223	2.229802	0.755477	0.000089
1651	1.6418e+02	-14.2616	-195.570967	0.000436	4.358248	1.476615	0.000174
1652	1.6427e+02	-14.2263	-195.421593	0.000375	3.750121	1.270575	0.000150
1653	1.6437e+02	-14.1846	-195.264144	0.000395	3.952830	1.339255	0.000158
1654	1.6447e+02	-14.1590	-195.143030	0.000304	3.040638	1.030196	0.000122
1655	1.6457e+02	-14.1060	-194.985582	0.000395	3.952830	1.339255	0.000158
1656	1.6467e+02	-14.0643	-194.828134	0.000395	3.952830	1.339255	0.000158
1657	1.6477e+02	-14.0226	-194.666648	0.000405	4.054185	1.373595	0.000162
1658	1.6487e+02	-13.9841	-194.505163	0.000405	4.054185	1.373595	0.000162
1659	1.6497e+02	-13.9424	-194.363863	0.000355	3.547412	1.201896	0.000142
1660	1.6507e+02	-13.9119	-194.190266	0.000436	4.358248	1.476615	0.000174
1661	1.6517e+02	-13.8670	-194.061078	0.000324	3.243348	1.098876	0.000130
1662	1.6527e+02	-13.8189	-193.899592	0.000405	4.054185	1.373595	0.000162
1663	1.6537e+02	-13.7868	-193.713884	0.000466	4.662312	1.579634	0.000187
1664	1.6547e+02	-13.7547	-193.568547	0.000365	3.648766	1.236235	0.000146
1665	1.6557e+02	-13.7066	-193.407062	0.000405	4.054185	1.373595	0.000162
1666	1.6567e+02	-13.6649	-193.310171	0.000243	2.432511	0.824157	0.000097
1667	1.6577e+02	-13.6231	-193.112351	0.000497	4.966376	1.682654	0.000199
1668	1.6587e+02	-13.5862	-192.946828	0.000416	4.155539	1.407935	0.000166
1669	1.6597e+02	-13.5477	-192.821677	0.000314	3.141993	1.064536	0.000126
1670	1.6607e+02	-13.5012	-192.652117	0.000426	4.256894	1.442275	0.000170
1671	1.6616e+02	-13.4691	-192.478521	0.000436	4.358248	1.476615	0.000174
1672	1.6626e+02	-13.4354	-192.329147	0.000375	3.750121	1.270575	0.000150
1673	1.6636e+02	-13.3825	-192.139401	0.000476	4.763667	1.613974	0.000191
1674	1.6646e+02	-13.3488	-192.006176	0.000334	3.344702	1.133216	0.000134
1675	1.6656e+02	-13.3087	-191.868913	0.000345	3.446057	1.167556	0.000138
1676	1.6666e+02	-13.2718	-191.711465	0.000395	3.952830	1.339255	0.000158
1677	1.6676e+02	-13.2253	-191.541905	0.000426	4.256894	1.442275	0.000170
1678	1.6686e+02	-13.1852	-191.331974	0.000527	5.270440	1.785673	0.000211
1679	1.6696e+02	-13.1435	-191.202786	0.000324	3.243348	1.098876	0.000130
1680	1.6706e+02	-13.1146	-191.004966	0.000497	4.966376	1.682654	0.000199
1681	1.6716e+02	-13.0729	-190.855592	0.000375	3.750121	1.270575	0.000150
1682	1.6726e+02	-13.0312	-190.690069	0.000416	4.155539	1.407935	0.000166
1683	1.6736e+02	-12.9895	-190.536658	0.000385	3.851475	1.304915	0.000154
1684	1.6746e+02	-12.9430	-190.399396	0.000345	3.446057	1.167556	0.000138
1685	1.6756e+02	-12.9093	-190.213687	0.000466	4.662312	1.579634	0.000187
1686	1.6766e+02	-12.8724	-190.060276	0.000385	3.851475	1.304915	0.000154
1687	1.6776e+02	-12.8387	-189.890717	0.000426	4.256894	1.442275	0.000170
1688	1.6786e+02	-12.7922	-189.737305	0.000385	3.851475	1.304915	0.000154
1689	1.6796e+02	-12.7553	-189.555634	0.000456	4.560958	1.545294	0.000183
1690	1.6806e+02	-12.7168	-189.361852	0.000487	4.865022	1.648314	0.000195
1691	1.6816e+02	-12.6670	-189.208441	0.000385	3.851475	1.304915	0.000154
1692	1.6825e+02	-12.6333	-189.010621	0.000497	4.966376	1.682654	0.000199
1693	1.6835e+02	-12.5884	-188.853173	0.000395	3.952830	1.339255	0.000158
1694	1.6845e+02	-12.5435	-188.687650	0.000416	4.155539	1.407935	0.000166
1695	1.6855e+02	-12.5178	-188.606907	0.000203	2.027092	0.686797	0.000081
1696	1.6865e+02	-12.4729	-188.384865	0.000557	5.574504	1.888693	0.000223
1697	1.6875e+02	-12.4312	-188.215305	0.000426	4.256894	1.442275	0.000170
1698	1.6885e+02	-12.3879	-188.049783	0.000416	4.155539	1.407935	0.000166
1699	1.6895e+02	-12.3558	-187.860037	0.000476	4.763667	1.613974	0.000191
1700	1.6905e+02	-12.3109	-187.682403	0.000446	4.459603	1.510954	0.000179
1701	1.6915e+02	-12.2756	-187.516881	0.000416	4.155539	1.407935	0.000166
1702	1.6925e+02	-12.2371	-187.371544	0.000365	3.648766	1.236235	0.000146
1703	1.6935e+02	-12.1874	-187.197947	0.000436	4.358248	1.476615	0.000174
1704	1.6945e+02	-12.1521	-186.992053	0.000517	5.169085	1.751334	0.000207
1705	1.6955e+02	-12.1071	-186.830568	0.000405	4.054185	1.373595	0.000162
1706	1.6965e+02	-12.0735	-186.665045	0.000416	4.155539	1.407935	0.000166
1707	1.6975e+02	-12.0301	-186.531820	0.000334	3.344702	1.133216	0.000134
1708	1.6985e+02	-11.9948	-186.313814	0.000547	5.473149	1.854353	0.000219
1709	1.6995e+02	-11.9515	-186.176552	0.000345	3.446057	1.167556	0.000138
1710	1.7005e+02	-11.9082	-185.966621	0.000527	5.270440	1.785673	0.000211
1711	1.7015e+02	-11.8729	-185.776875	0.000476	4.763667	1.613974	0.000191
1712	1.7024e+02	-11.8376	-185.627501	0.000375	3.750121	1.270575	0.000150
1713	1.7034e+02	-11.7975	-185.494276	0.000334	3.344702	1.133216	0.000134
1714	1.7044e+02	-11.7478	-185.308568	0.000466	4.662312	1.579634	0.000187
1715	1.7054e+02	-11.7157	-185.102674	0.000517	5.169085	1.751334	0.000207
1716	1.7064e+02	-11.6772	-184.929077	0.000436	4.358248	1.476615	0.000174
1717	1.7074e+02	-11.6419	-184.735294	0.000487	4.865022	1.648314	0.000195
1718	1.7084e+02	-11.6018	-184.553623	0.000456	4.560958	1.545294	0.000183
1719	1.7094e+02	-11.5649	-184.428472	0.000314	3.141993	1.064536	0.000126
1720	1.7104e+02	-11.5216	-184.230652	0.000497	4.966376	1.682654	0.000199
1721	1.7114e+02	-11.4735	-184.093390	0.000345	3.446057	1.167556	0.000138
1722	1.7124e+02	-11.4334	-183.895570	0.000497	4.966376	1.682654	0.000199
1723	1.7134e+02	-11.3917	-183.705825	0.000476	4.763667	1.613974	0.000191
1724	1.7144e+02	-11.3692	-183.548376	0.000395	3.952830	1.339255	0.000158
1725	1.7154e+02	-11.3098	-183.403039	0.000365	3.648766	1.236235	0.000146
1726	1.7164e+02	-11.2729	-183.201183	0.000507	5.067731	1.716994	0.000203
1727	1.7174e+02	-11.2457	-183.051809	0.000375	3.750121	1.270575	0.000150
1728	1.7184e+02	-11.2072	-182.825729	0.000568	5.675858	1.923033	0.000227
1729	1.7194e+02	-11.1606	-182.627909	0.000497	4.966376	1.682654	0.000199
1730	1.7204e+02	-11.1109	-182.422015	0.000517	5.169085	1.751334	0.000207
1731	1.7213e+02	-11.0772	-182.256493	0.000416	4.155539	1.407935	0.000166
1732	1.7223e+02	-11.0323	-182.090970	0.000416	4.155539	1.407935	0.000166
1733	1.7233e+02	-11.0066	-181.945633	0.000365	3.648766	1.236235	0.000146
1734	1.7243e+02	-10.9521	-181.759925	0.000466	4.662312	1.579634	0.000187
1735	1.7253e+02	-10.9120	-181.541920	0.000547	5.473149	1.854353	0.000219
1736	1.7263e+02	-10.8751	-181.364286	0.000446	4.459603	1.510954	0.000179
1737	1.7273e+02	-10.8398	-181.210875	0.000385	3.851475	1.304915	0.000154
1738	1.7283e+02	-10.7997	-180.976721	0.000588	5.878568	1.991713	0.000235
1739	1.7293e+02	-10.7532	-180.791013	0.000466	4.662312	1.579634	0.000187
1740	1.7303e+02	-10.7147	-180.609342	0.000456	4.560958	1.545294	0.000183
1741	1.7313e+02	-10.6794	-180.455930	0.000385	3.851475	1.304915	0.000154
1742	1.7323e+02	-10.6377	-180.302519	0.000385	3.851475	1.304915	0.000154
1743	1.7333e+02	-10.5960	-180.064328	0.000598	5.979922	2.026053	0.000239
1744	1.7343e+02	-10.5607	-179.882657	0.000456	4.560958	1.545294	0.000183
1745	1.7353e+02	-10.5141	-179.676763	0.000517	5.169085	1.751334	0.000207
1746	1.7363e+02	-10.4788	-179.527389	0.000375	3.750121	1.270575	0.000150
1747	1.7373e+02	-10.4355	-179.313421	0.000537	5.371795	1.820013	0.000215
1748	1.7383e+02	-10.4051	-179.168084	0.000365	3.648766	1.236235	0.000146
1749	1.7393e+02	-10.3633	-178.954116	0.000537	5.371795	1.820013	0.000215
1750	1.7403e+02	-10.3281	-178.764370	0.000476	4.763667	1.613974	0.000191
1751	1.7413e+02	-10.2751	-178.562514	0.000507	5.067731	1.716994	0.000203
1752	1.7422e+02	-10.2366	-178.401028	0.000405	4.054185	1.373595	0.000162
1753	1.7432e+02	-10.2013	-178.211283	0.000476	4.763667	1.613974	0.000191
1754	1.7442e+02	-10.1612	-178.017500	0.000487	4.865022	1.648314	0.000195
1755	1.7452e+02	-10.1195	-177.795458	0.000557	5.574504	1.888693	0.000223
1756	1.7462e+02	-10.0778	-177.593601	0.000507	5.067731	1.716994	0.000203
1757	1.7472e+02	-10.0441	-177.415967	0.000446	4.459603	1.510954	0.000179
1758	1.7482e+02	-10.0024	-177.250445	0.000416	4.155539	1.407935	0.000166
1759	1.7492e+02	-9.9655	-177.044551	0.000517	5.169085	1.751334	0.000207
1760	1.7502e+02	-9.9238	-176.842694	0.000507	5.067731	1.716994	0.000203
1761	1.7512e+02	-9.8773	-176.665060	0.000446	4.459603	1.510954	0.000179
1762	1.7522e+02	-9.8388	-176.471277	0.000487	4.865022	1.648314	0.000195
1763	1.7532e+02	-9.8003	-176.241161	0.000578	5.777213	1.957373	0.000231
1764	1.7542e+02	-9.7714	-176.071601	0.000426	4.256894	1.442275	0.000170
1765	1.7552e+02	-9.7233	-175.893967	0.000446	4.459603	1.510954	0.000179
1766	1.7562e+02	-9.6848	-175.688073	0.000517	5.169085	1.751334	0.000207
1767	1.7572e+02	-9.6430	-175.530625	0.000395	3.952830	1.339255	0.000158
1768	1.7582e+02	-9.5917	-175.320694	0.000527	5.270440	1.785673	0.000211
1769	1.7592e+02	-9.5612	-175.118837	0.000507	5.067731	1.716994	0.000203
1770	1.7602e+02	-9.5307	-174.916980	0.000507	5.067731	1.716994	0.000203
1771	1.7612e+02	-9.4858	-174.723198	0.000487	4.865022	1.648314	0.000195
1772	1.7621e+02	-9.4489	-174.525378	0.000497	4.966376	1.682654	0.000199
1773	1.7631e+02	-9.3992	-174.335633	0.000476	4.763667	1.613974	0.000191
1774	1.7641e+02	-9.3607	-174.157999	0.000446	4.459603	1.510954	0.000179
1775	1.7651e+02	-9.3366	-173.952105	0.000517	5.169085	1.751334	0.000207
1776	1.7661e+02	-9.2821	-173.734099	0.000547	5.473149	1.854353	0.000219
1777	1.7671e+02	-9.2500	-173.552428	0.000456	4.560958	1.545294	0.000183
1778	1.7681e+02	-9.2051	-173.338460	0.000537	5.371795	1.820013	0.000215
1779	1.7691e+02	-9.1666	-173.132566	0.000517	5.169085	1.751334	0.000207
1780	1.7701e+02	-9.1265	-172.946858	0.000466	4.662312	1.579634	0.000187
1781	1.7711e+02	-9.0896	-172.724815	0.000557	5.574504	1.888693	0.000223
1782	1.7721e+02	-9.0463	-172.531033	0.000487	4.865022	1.648314	0.000195
1783	1.7731e+02	-9.0110	-172.296879	0.000588	5.878568	1.991713	0.000235
1784	1.7741e+02	-8.9693	-172.131356	0.000416	4.155539	1.407935	0.000166
1785	1.7751e+02	-8.9276	-171.929500	0.000507	5.067731	1.716994	0.000203
1786	1.7761e+02	-8.8842	-171.711494	0.000547	5.473149	1.854353	0.000219
1787	1.7771e+02	-8.8425	-171.485415	0.000568	5.675858	1.923033	0.000227
1788	1.7781e+02	-8.8072	-171.283558	0.000507	5.067731	1.716994	0.000203
1789	1.7791e+02	-8.7687	-171.097850	0.000466	4.662312	1.579634	0.000187
1790	1.7801e+02	-8.7383	-170.859659	0.000598	5.979922	2.026053	0.000239
1791	1.7810e+02	-8.6773	-170.661839	0.000497	4.966376	1.682654	0.000199
1792	1.7820e+02	-8.6436	-170.455945	0.000517	5.169085	1.751334	0.000207
1793	1.7830e+02	-8.6035	-170.266200	0.000476	4.763667	1.613974	0.000191
1794	1.7840e+02	-8.5698	-170.068380	0.000497	4.966376	1.682654	0.000199
1795	1.7850e+02	-8.5201	-169.846338	0.000557	5.574504	1.888693	0.000223
1796	1.7860e+02	-8.4896	-169.644481	0.000507	5.067731	1.716994	0.000203
1797	1.7870e+02	-8.4527	-169.406290	0.000598	5.979922	2.026053	0.000239
1798	1.7880e+02	-8.4142	-169.228656	0.000446	4.459603	1.510954	0.000179
1799	1.7890e+02	-8.3629	-169.006613	0.000557	5.574504	1.888693	0.000223
1800	1.7900e+02	-8.3308	-168.816868	0.000476	4.763667	1.613974	0.000191
1801	1.7910e+02	-8.2955	-168.570603	0.000618	6.182632	2.094732	0.000248
1802	1.7920e+02	-8.2458	-168.397006	0.000436	4.358248	1.476615	0.000174
1803	1.7930e+02	-8.2073	-168.158815	0.000598	5.979922	2.026053	0.000239
1804	1.7940e+02	-8.1736	-167.960995	0.000497	4.966376	1.682654	0.000199
1805	1.7950e+02	-8.1383	-167.714730	0.000618	6.182632	2.094732	0.000248
1806	1.7960e+02	-8.0789	-167.537096	0.000446	4.459603	1.510954	0.000179
1807	1.7970e+02	-8.0468	-167.270645	0.000669	6.689405	2.266432	0.000268
1808	1.7980e+02	-8.0147	-167.084937	0.000466	4.662312	1.579634	0.000187
1809	1.7990e+02	-7.9746	-166.866931	0.000547	5.473149	1.854353	0.000219
1810	1.8000e+02	-7.9329	-166.648926	0.000547	5.473149	1.854353	0.000219
1811	1.8009e+02	-7.8928	-166.426884	0.000557	5.574504	1.888693	0.000223
1812	1.8019e+02	-7.8447	-166.208878	0.000547	5.473149	1.854353	0.000219
1813	1.8029e+02	-7.8142	-165.966650	0.000608	6.081277	2.060392	0.000243
1814	1.8039e+02	-7.7709	-165.817276	0.000375	3.750121	1.270575	0.000150
1815	1.8049e+02	-7.7212	-165.550825	0.000669	6.689405	2.266432	0.000268
1816	1.8059e+02	-7.6955	-165.340894	0.000527	5.270440	1.785673	0.000211
1817	1.8069e+02	-7.6506	-165.135000	0.000517	5.169085	1.751334	0.000207
1818	1.8079e+02	-7.6041	-164.937181	0.000497	4.966376	1.682654	0.000199
1819	1.8089e+02	-7.5656	-164.751472	0.000466	4.662312	1.579634	0.000187
1820	1.8099e+02	-7.5351	-164.497133	0.000639	6.385341	2.163412	0.000256
1821	1.8109e+02	-7.4918	-164.246830	0.000628	6.283986	2.129072	0.000252
1822	1.8119e+02	-7.4533	-164.049011	0.000497	4.966376	1.682654	0.000199
1823	1.8129e+02	-7.4100	-163.814857	0.000588	5.878568	1.991713	0.000235
1824	1.8139e+02	-7.3698	-163.633186	0.000456	4.560958	1.545294	0.000183
1825	1.8149e+02	-7.3297	-163.407106	0.000568	5.675858	1.923033	0.000227
1826	1.8159e+02	-7.2912	-163.172952	0.000588	5.878568	1.991713	0.000235
1827	1.8169e+02	-7.2592	-162.987244	0.000466	4.662312	1.579634	0.000187
1828	1.8179e+02	-7.2110	-162.696570	0.000730	7.297532	2.472471	0.000292
1829	1.8189e+02	-7.1709	-162.527011	0.000426	4.256894	1.442275	0.000170
1830	1.8199e+02	-7.1276	-162.296894	0.000578	5.777213	1.957373	0.000231
1831	1.8209e+02	-7.1003	-162.107148	0.000476	4.763667	1.613974	0.000191
1832	1.8218e+02	-7.0522	-161.824549	0.000709	7.094823	2.403791	0.000284
1833	1.8228e+02	-7.0105	-161.630766	0.000487	4.865022	1.648314	0.000195
1834	1.8238e+02	-6.9736	-161.368353	0.000659	6.588050	2.232092	0.000264
1835	1.8248e+02	-6.9367	-161.162459	0.000517	5.169085	1.751334	0.000207
1836	1.8258e+02	-6.8950	-160.920231	0.000608	6.081277	2.060392	0.000243
1837	1.8268e+02	-6.8469	-160.678002	0.000608	6.081277	2.060392	0.000243
1838	1.8278e+02	-6.8100	-160.468071	0.000527	5.270440	1.785673	0.000211
1839	1.8288e+02	-6.7699	-160.237955	0.000578	5.777213	1.957373	0.000231
1840	1.8298e+02	-6.7378	-160.048209	0.000476	4.763667	1.613974	0.000191
1841	1.8308e+02	-6.6945	-159.797907	0.000628	6.283986	2.129072	0.000252
1842	1.8318e+02	-6.6544	-159.555679	0.000608	6.081277	2.060392	0.000243
1843	1.8328e+02	-6.6271	-159.341710	0.000537	5.371795	1.820013	0.000215
1844	1.8338e+02	-6.5758	-159.139854	0.000507	5.067731	1.716994	0.000203
1845	1.8348e+02	-6.5260	-158.869366	0.000679	6.790759	2.300772	0.000272
1846	1.8358e+02	-6.4923	-158.647323	0.000557	5.574504	1.888693	0.000223
1847	1.8368e+02	-6.4506	-158.413169	0.000588	5.878568	1.991713	0.000235
1848	1.8378e+02	-6.4282	-158.243610	0.000426	4.256894	1.442275	0.000170
1849	1.8388e+02	-6.3752	-158.025604	0.000547	5.473149	1.854353	0.000219
1850	1.8398e+02	-6.3399	-157.743005	0.000709	7.094823	2.403791	0.000284
1851	1.8407e+02	-6.2982	-157.529036	0.000537	5.371795	1.820013	0.000215
1852	1.8417e+02	-6.2581	-157.294883	0.000588	5.878568	1.991713	0.000235
1853	1.8427e+02	-6.2228	-157.020357	0.000689	6.892114	2.335111	0.000276
1854	1.8437e+02	-6.1795	-156.786204	0.000588	5.878568	1.991713	0.000235
1855	1.8447e+02	-6.1378	-156.584347	0.000507	5.067731	1.716994	0.000203
1856	1.8457e+02	-6.0977	-156.370379	0.000537	5.371795	1.820013	0.000215
1857	1.8467e+02	-6.0640	-156.095853	0.000689	6.892114	2.335111	0.000276
1858	1.8477e+02	-6.0111	-155.833439	0.000659	6.588050	2.232092	0.000264
1859	1.8487e+02	-5.9790	-155.611397	0.000557	5.574504	1.888693	0.000223
1860	1.8497e+02	-5.9373	-155.377243	0.000588	5.878568	1.991713	0.000235
1861	1.8507e+02	-5.8988	-155.167312	0.000527	5.270440	1.785673	0.000211
1862	1.8517e+02	-5.8538	-154.888750	0.000699	6.993468	2.369451	0.000280
1863	1.8527e+02	-5.8169	-154.686893	0.000507	5.067731	1.716994	0.000203
1864	1.8537e+02	-5.7833	-154.456776	0.000578	5.777213	1.957373	0.000231
1865	1.8547e+02	-5.7383	-154.210511	0.000618	6.182632	2.094732	0.000248
1866	1.8557e+02	-5.6982	-153.964246	0.000618	6.182632	2.094732	0.000248
1867	1.8567e+02	-5.6613	-153.754315	0.000527	5.270440	1.785673	0.000211
1868	1.8577e+02	-5.6196	-153.471715	0.000709	7.094823	2.403791	0.000284
1869	1.8587e+02	-5.5843	-153.241598	0.000578	5.777213	1.957373	0.000231
1870	1.8597e+02	-5.5410	-153.003407	0.000598	5.979922	2.026053	0.000239
1871	1.8606e+02	-5.4993	-152.813662	0.000476	4.763667	1.613974	0.000191
1872	1.8616e+02	-5.4624	-152.522988	0.000730	7.297532	2.472471	0.000292
1873	1.8626e+02	-5.4239	-152.268649	0.000639	6.385341	2.163412	0.000256
1874	1.8636e+02	-5.3886	-152.042569	0.000568	5.675858	1.923033	0.000227
1875	1.8646e+02	-5.3453	-151.844749	0.000497	4.966376	1.682654	0.000199
1876	1.8656e+02	-5.2956	-151.574261	0.000679	6.790759	2.300772	0.000272
1877	1.8666e+02	-5.2619	-151.323959	0.000628	6.283986	2.129072	0.000252
1878	1.8676e+02	-5.2282	-151.118065	0.000517	5.169085	1.751334	0.000207
1879	1.8686e+02	-5.1817	-150.819317	0.000750	7.500242	2.541151	0.000300
1880	1.8696e+02	-5.1335	-150.653794	0.000416	4.155539	1.407935	0.000166
1881	1.8706e+02	-5.0983	-150.363121	0.000730	7.297532	2.472471	0.000292
1882	1.8716e+02	-5.0614	-150.104744	0.000649	6.486695	2.197752	0.000260
1883	1.8726e+02	-5.0277	-149.854441	0.000628	6.283986	2.129072	0.000252
1884	1.8736e+02	-4.9892	-149.636436	0.000547	5.473149	1.854353	0.000219
1885	1.8746e+02	-4.9475	-149.361911	0.000689	6.892114	2.335111	0.000276
1886	1.8756e+02	-4.9009	-149.188314	0.000436	4.358248	1.476615	0.000174
1887	1.8766e+02	-4.8705	-148.877455	0.000780	7.804305	2.644170	0.000312
1888	1.8776e+02	-4.8223	-148.655412	0.000557	5.574504	1.888693	0.000223
1889	1.8786e+02	-4.7886	-148.392998	0.000659	6.588050	2.232092	0.000264
1890	1.8796e+02	-4.7357	-148.179030	0.000537	5.371795	1.820013	0.000215
1891	1.8806e+02	-4.7068	-147.920653	0.000649	6.486695	2.197752	0.000260
1892	1.8815e+02	-4.6619	-147.670351	0.000628	6.283986	2.129072	0.000252
1893	1.8825e+02	-4.6266	-147.407937	0.000659	6.588050	2.232092	0.000264
1894	1.8835e+02	-4.5849	-147.157635	0.000628	6.283986	2.129072	0.000252
1895	1.8845e+02	-4.5464	-146.927518	0.000578	5.777213	1.957373	0.000231
1896	1.8855e+02	-4.5095	-146.673178	0.000639	6.385341	2.163412	0.000256
1897	1.8865e+02	-4.4694	-146.406728	0.000669	6.689405	2.266432	0.000268
1898	1.8875e+02	-4.4229	-146.144314	0.000659	6.588050	2.232092	0.000264
1899	1.8885e+02	-4.3940	-145.906123	0.000598	5.979922	2.026053	0.000239
1900	1.8895e+02	-4.3475	-145.611412	0.000740	7.398887	2.506811	0.000296
1901	1.8905e+02	-4.3106	-145.353035	0.000649	6.486695	2.197752	0.000260
1902	1.8915e+02	-4.2721	-145.135030	0.000547	5.473149	1.854353	0.000219
1903	1.8925e+02	-4.2272	-144.868579	0.000669	6.689405	2.266432	0.000268
1904	1.8935e+02	-4.1854	-144.626351	0.000608	6.081277	2.060392	0.000243
1905	1.8945e+02	-4.1534	-144.351825	0.000689	6.892114	2.335111	0.000276
1906	1.8955e+02	-4.0956	-144.093449	0.000649	6.486695	2.197752	0.000260
1907	1.8965e+02	-4.0699	-143.818924	0.000689	6.892114	2.335111	0.000276
1908	1.8975e+02	-4.0314	-143.576695	0.000608	6.081277	2.060392	0.000243
1909	1.8985e+02	-3.9897	-143.370801	0.000517	5.169085	1.751334	0.000207
1910	1.8995e+02	-3.9416	-143.043793	0.000821	8.209724	2.781530	0.000329
1911	1.9004e+02	-3.9015	-142.797528	0.000618	6.182632	2.094732	0.000248
1912	1.9014e+02	-3.8710	-142.571449	0.000568	5.675858	1.923033	0.000227
1913	1.9024e+02	-3.8245	-142.276738	0.000740	7.398887	2.506811	0.000296
1914	1.9034e+02	-3.7860	-141.977990	0.000750	7.500242	2.541151	0.000300
1915	1.9044e+02	-3.7523	-141.772096	0.000517	5.169085	1.751334	0.000207
1916	1.9054e+02	-3.7058	-141.465273	0.000770	7.702951	2.609830	0.000308
1917	1.9064e+02	-3.6593	-141.247268	0.000547	5.473149	1.854353	0.000219
1918	1.9074e+02	-3.6320	-140.932371	0.000791	7.905660	2.678510	0.000316
1919	1.9084e+02	-3.5919	-140.682069	0.000628	6.283986	2.129072	0.000252
1920	1.9094e+02	-3.5502	-140.435804	0.000618	6.182632	2.094732	0.000248
1921	1.9104e+02	-3.5101	-140.161279	0.000689	6.892114	2.335111	0.000276
1922	1.9114e+02	-3.4748	-139.886753	0.000689	6.892114	2.335111	0.000276
1923	1.9124e+02	-3.4347	-139.648562	0.000598	5.979922	2.026053	0.000239
1924	1.9134e+02	-3.3881	-139.293294	0.000892	8.919206	3.021909	0.000357
1925	1.9144e+02	-3.3432	-139.087400	0.000517	5.169085	1.751334	0.000207
1926	1.9154e+02	-3.3015	-138.788652	0.000750	7.500242	2.541151	0.000300
1927	1.9164e+02	-3.2710	-138.518164	0.000679	6.790759	2.300772	0.000272
1928	1.9174e+02	-3.2309	-138.259788	0.000649	6.486695	2.197752	0.000260
1929	1.9184e+02	-3.1876	-137.993337	0.000669	6.689405	2.266432	0.000268
1930	1.9194e+02	-3.1443	-137.730923	0.000659	6.588050	2.232092	0.000264
1931	1.9203e+02	-3.1202	-137.428138	0.000760	7.601596	2.575490	0.000304
1932	1.9213e+02	-3.0785	-137.189947	0.000598	5.979922	2.026053	0.000239
1933	1.9223e+02	-3.0400	-136.875050	0.000791	7.905660	2.678510	0.000316
1934	1.9233e+02	-2.9887	-136.612636	0.000659	6.588050	2.232092	0.000264
1935	1.9243e+02	-2.9550	-136.410779	0.000507	5.067731	1.716994	0.000203
1936	1.9253e+02	-2.9117	-136.091846	0.000801	8.007015	2.712850	0.000321
1937	1.9263e+02	-2.8684	-135.768875	0.000811	8.108369	2.747190	0.000325
1938	1.9273e+02	-2.8363	-135.526647	0.000608	6.081277	2.060392	0.000243
1939	1.9283e+02	-2.7833	-135.235973	0.000730	7.297532	2.472471	0.000292
1940	1.9293e+02	-2.7545	-134.953373	0.000709	7.094823	2.403791	0.000284
1941	1.9303e+02	-2.7144	-134.646551	0.000770	7.702951	2.609830	0.000308
1942	1.9313e+02	-2.6694	-134.392212	0.000639	6.385341	2.163412	0.000256
1943	1.9323e+02	-2.6358	-134.093464	0.000750	7.500242	2.541151	0.000300
1944	1.9333e+02	-2.5796	-133.871421	0.000557	5.574504	1.888693	0.000223
1945	1.9343e+02	-2.5443	-133.572673	0.000750	7.500242	2.541151	0.000300
1946	1.9353e+02	-2.5122	-133.249702	0.000811	8.108369	2.747190	0.000325
1947	1.9363e+02	-2.4850	-132.975177	0.000689	6.892114	2.335111	0.000276
1948	1.9373e+02	-2.4304	-132.668355	0.000770	7.702951	2.609830	0.000308
1949	1.9383e+02	-2.3967	-132.373644	0.000740	7.398887	2.506811	0.000296
1950	1.9393e+02	-2.3470	-132.151601	0.000557	5.574504	1.888693	0.000223
1951	1.9403e+02	-2.3165	-131.824593	0.000821	8.209724	2.781530	0.000329
1952	1.9412e+02	-2.2700	-131.554105	0.000679	6.790759	2.300772	0.000272
1953	1.9422e+02	-2.2363	-131.243246	0.000780	7.804305	2.644170	0.000312
1954	1.9432e+02	-2.1946	-130.980832	0.000659	6.588050	2.232092	0.000264
1955	1.9442e+02	-2.1449	-130.649787	0.000831	8.311078	2.815870	0.000333
1956	1.9452e+02	-2.1192	-130.334890	0.000791	7.905660	2.678510	0.000316
1957	1.9462e+02	-2.0775	-130.048254	0.000720	7.196178	2.438131	0.000288
1958	1.9472e+02	-2.0326	-129.761617	0.000720	7.196178	2.438131	0.000288
1959	1.9482e+02	-1.9989	-129.450757	0.000780	7.804305	2.644170	0.000312
1960	1.9492e+02	-1.9507	-129.160084	0.000730	7.297532	2.472471	0.000292
1961	1.9502e+02	-1.9155	-128.869410	0.000730	7.297532	2.472471	0.000292
1962	1.9512e+02	-1.8673	-128.550476	0.000801	8.007015	2.712850	0.000321
1963	1.9522e+02	-1.8401	-128.279988	0.000679	6.790759	2.300772	0.000272
1964	1.9532e+02	-1.7967	-127.952980	0.000821	8.209724	2.781530	0.000329
1965	1.9542e+02	-1.7598	-127.642121	0.000780	7.804305	2.644170	0.000312
1966	1.9552e+02	-1.7037	-127.359521	0.000709	7.094823	2.403791	0.000284
1967	1.9562e+02	-1.6684	-127.032513	0.000821	8.209724	2.781530	0.000329
1968	1.9572e+02	-1.6395	-126.697431	0.000841	8.412433	2.850209	0.000337
1969	1.9582e+02	-1.5946	-126.430980	0.000669	6.689405	2.266432	0.000268
1970	1.9592e+02	-1.5529	-126.128195	0.000760	7.601596	2.575490	0.000304
1971	1.9601e+02	-1.5160	-125.829447	0.000750	7.500242	2.541151	0.000300
1972	1.9611e+02	-1.4871	-125.490327	0.000851	8.513788	2.884549	0.000341
1973	1.9621e+02	-1.4374	-125.203691	0.000720	7.196178	2.438131	0.000288
1974	1.9631e+02	-1.4085	-124.908980	0.000740	7.398887	2.506811	0.000296
1975	1.9641e+02	-1.3588	-124.577935	0.000831	8.311078	2.815870	0.000333
1976	1.9651e+02	-1.3219	-124.250927	0.000821	8.209724	2.781530	0.000329
1977	1.9661e+02	-1.2689	-123.968327	0.000709	7.094823	2.403791	0.000284
1978	1.9671e+02	-1.2369	-123.641319	0.000821	8.209724	2.781530	0.000329
1979	1.9681e+02	-1.2080	-123.346608	0.000740	7.398887	2.506811	0.000296
1980	1.9691e+02	-1.1599	-123.015563	0.000831	8.311078	2.815870	0.000333
1981	1.9701e+02	-1.1117	-122.704704	0.000780	7.804305	2.644170	0.000312
1982	1.9711e+02	-1.0796	-122.393844	0.000780	7.804305	2.644170	0.000312
1983	1.9721e+02	-1.0476	-122.070873	0.000811	8.108369	2.747190	0.000325
1984	1.9731e+02	-1.0123	-121.747902	0.000811	8.108369	2.747190	0.000325
1985	1.9741e+02	-0.9641	-121.424932	0.000811	8.108369	2.747190	0.000325
1986	1.9751e+02	-0.9240	-121.110035	0.000791	7.905660	2.678510	0.000316
1987	1.9761e+02	-0.8743	-120.815324	0.000740	7.398887	2.506811	0.000296
1988	1.9771e+02	-0.8374	-120.488316	0.000821	8.209724	2.781530	0.000329
1989	1.9781e+02	-0.7941	-120.181494	0.000770	7.702951	2.609830	0.000308
1990	1.9791e+02	-0.7620	-119.890820	0.000730	7.297532	2.472471	0.000292
1991	1.9800e+02	-0.7171	-119.515366	0.000943	9.425979	3.193608	0.000377
1992	1.9810e+02	-0.6802	-119.261027	0.000639	6.385341	2.163412	0.000256
1993	1.9820e+02	-0.6369	-118.917870	0.000862	8.615142	2.918889	0.000345
1994	1.9830e+02	-0.6000	-118.639308	0.000699	6.993468	2.369451	0.000280
1995	1.9840e+02	-0.5615	-118.263854	0.000943	9.425979	3.193608	0.000377
1996	1.9850e+02	-0.5198	-117.940883	0.000811	8.108369	2.747190	0.000325
1997	1.9860e+02	-0.4781	-117.621950	0.000801	8.007015	2.712850	0.000321
1998	1.9870e+02	-0.4380	-117.282830	0.000851	8.513788	2.884549	0.000341
1999	1.9880e+02	-0.3978	-116.931600	0.000882	8.817852	2.987569	0.000353
2000	1.9890e+02	-0.3577	-116.673223	0.000649	6.486695	2.197752	0.000260
2001	1.9900e+02	-0.3208	-116.313918	0.000902	9.020561	3.056249	0.000361
2002	1.9910e+02	-0.2839	-116.007095	0.000770	7.702951	2.609830	0.000308
2003	1.9920e+02	-0.2390	-115.684125	0.000811	8.108369	2.747190	0.000325
2004	1.9930e+02	-0.2021	-115.397488	0.000720	7.196178	2.438131	0.000288
2005	1.9940e+02	-0.1620	-115.034146	0.000912	9.121915	3.090589	0.000365
2006	1.9950e+02	-0.1235	-114.670804	0.000912	9.121915	3.090589	0.000365
2007	1.9960e+02	-0.0802	-114.368018	0.000760	7.601596	2.575490	0.000304
2008	1.9970e+02	-0.0433	-114.057159	0.000780	7.804305	2.644170	0.000312
2009	1.9980e+02	0.0000	-113.681705	0.000780	7.804305	2.644170	0.000377

Center data before PMax,+/-Pr and +/-Vc Calc.

PMax (uC/cm2):	2.02e+02
Pr (uC/cm2):	1.31e+02
-Pr (uC/cm2):	-1.14e+02
PLoss (uC/cm2):	-1.85e+02
-Vc:	-1.53e+01
C (Max-Eff) (nF):	1.01e+00
K (Eff):	3.43e+03
Vert. (+/-Pr) Shift (uC/cm2):	8.42e+00
Offset (uC/cm2):	-7.18e+01

A (Loop Area - uC/cm2·Volts):	-4.49e+00



Hysteresis Version: 5.48.1 - Radiant Technologies, Inc., 1999 - 9/12/24

