»»»»»»»»»»»»»»»»»»»»»»»»»»»»»»»»»»»» Hysteresis ««««««««««««««««««««««««««««««««««««
»»»  Executed Version:	5.48.1
»»»  Vision Version:	5.48.4 (R)
»»»  Vision Compiled:	9/18/24
»»»  Driver Version:	5.47.0
»»»  Windows Version:	Windows 8 or 8.1
»»»  Processor Information:	x86 (AMD or Intel) - 32 Processors
»»»  Tester Name:	PMF21124-494 (100V)
»»»  Tester S/N:	PMF21124-494
»»»  Internal Amp Type:	100V RevK 270k
»»»  Internal Amp S/N:	iAB2-596/K     
»»»  Execution Count:	1
»»»»»»»»»»»»»»»»»»»»»»»»»»»»»»»»»»»»»»»»»»««««««««««««««««««««««««««««««««««««««««««

Stored:	6/19/2025 - 16:48:28
Configured:	06/19/25 10:04:32 AM
Executed:	06/19/25 04:47:59 PM

»»»»»»»»»»»»»»»»»»»»»»»»»»»»»»»»»»» Sample Info ««««««««««««««««««««««««««««««««««««
Sample Name:	
Lot Name:	
Wafer Name:	
Die Row/Column:	0/0
Capacitor Number:	0
Sample Area (cm2):	1.00e-04
Sample Thickness (microns):	3.00e-01

Amplifier:	Internal

»»»»»»»»»»»»»»»»»»»»»»»»»»»»»»»»»»» Tester Info «««««««««««««««««««««««««««««««««««
Tester Name:	PMF21124-494 (100V)
Tester Serial Number:	PMF21124-494
Return Signal Amp. Level:	0.19 [Index: 3]

»»»»»»»»»»»»»»»»»»»»»»»»»»»»»»»» Hysteresis Info ««««««««««««««««««««««««««««««««««
Task Name:	Hyst-1168
Volts:	20.00
Field:	666.67 (kV/cm)
DCBias:	0.00
DCField:	0.00 (kV/cm)
Hysteresis Period (ms):	2.00e+02
Preset:	Enabled
Preset Delay (ms):	1.00e+03
Profile:	Standard Bipolar

»»»»»»»»»»»»»»»»»»»»»»»»»»»»»»»»»»»»»» Data «««««««««««««««««««««««««««««««««««««««
Points:	2009

Valid Data

Point	Time (ms)	Drive Voltage	Measured Polarization (uC/cm2)	Capacitance (uF)	Normalized Capacitance (uF/cm2)	Dielectric Constant	Instantaneous Current (mA)
   1	0.0000e+00	0.0128	-3.683886	0.000142	1.419221	0.480845	0.000057
   2	9.9500e-02	0.0289	-3.627366	0.000142	1.419221	0.480845	0.000057
   3	1.9900e-01	0.0770	-3.518364	0.000274	2.737069	0.927344	0.000110
   4	2.9850e-01	0.1219	-3.385138	0.000335	3.345306	1.133420	0.000134
   5	3.9800e-01	0.1588	-3.272099	0.000284	2.838442	0.961690	0.000114
   6	4.9750e-01	0.2021	-3.163096	0.000274	2.737069	0.927344	0.000110
   7	5.9700e-01	0.2358	-3.074279	0.000223	2.230204	0.755614	0.000089
   8	6.9650e-01	0.2807	-2.932979	0.000355	3.548052	1.202113	0.000142
   9	7.9600e-01	0.3128	-2.844162	0.000223	2.230204	0.755614	0.000089
  10	8.9550e-01	0.3513	-2.735159	0.000274	2.737069	0.927344	0.000110
  11	9.9500e-01	0.3930	-2.593860	0.000355	3.548052	1.202113	0.000142
  12	1.0945e+00	0.4412	-2.496968	0.000243	2.432950	0.824306	0.000097
  13	1.1940e+00	0.4684	-2.416226	0.000203	2.027458	0.686921	0.000081
  14	1.2935e+00	0.5166	-2.266852	0.000375	3.750798	1.270805	0.000150
  15	1.3930e+00	0.5551	-2.153812	0.000284	2.838442	0.961690	0.000114
  16	1.4925e+00	0.5952	-2.056921	0.000243	2.432950	0.824306	0.000097
  17	1.5920e+00	0.6369	-1.968104	0.000223	2.230204	0.755614	0.000089
  18	1.6915e+00	0.6722	-1.826804	0.000355	3.548052	1.202113	0.000142
  19	1.7910e+00	0.7075	-1.758173	0.000172	1.723340	0.583883	0.000069
  20	1.8905e+00	0.7620	-1.616873	0.000355	3.548052	1.202113	0.000142
  21	1.9900e+00	0.7845	-1.491722	0.000314	3.142560	1.064728	0.000126
  22	2.0895e+00	0.8422	-1.334273	0.000395	3.953544	1.339497	0.000158
  23	2.1890e+00	0.8823	-1.293902	0.000101	1.013729	0.343461	0.000041
  24	2.2885e+00	0.9192	-1.164714	0.000324	3.243933	1.099074	0.000130
  25	2.3880e+00	0.9609	-1.055711	0.000274	2.737069	0.927344	0.000110
  26	2.4875e+00	1.0026	-0.954783	0.000253	2.534323	0.858652	0.000101
  27	2.5870e+00	1.0363	-0.849817	0.000264	2.635696	0.892998	0.000105
  28	2.6865e+00	1.0652	-0.712554	0.000345	3.446679	1.167766	0.000138
  29	2.7860e+00	1.1069	-0.583366	0.000324	3.243933	1.099074	0.000130
  30	2.8855e+00	1.1518	-0.510698	0.000182	1.824712	0.618229	0.000073
  31	2.9850e+00	1.2000	-0.369398	0.000355	3.548052	1.202113	0.000142
  32	3.0845e+00	1.2240	-0.276544	0.000233	2.331577	0.789960	0.000093
  33	3.1840e+00	1.2706	-0.179653	0.000243	2.432950	0.824306	0.000097
  34	3.2835e+00	1.3187	-0.050464	0.000324	3.243933	1.099074	0.000130
  35	3.3830e+00	1.3524	0.054501	0.000264	2.635696	0.892998	0.000105
  36	3.4825e+00	1.3893	0.143318	0.000223	2.230204	0.755614	0.000089
  37	3.5820e+00	1.4310	0.284618	0.000355	3.548052	1.202113	0.000142
  38	3.6815e+00	1.4695	0.397658	0.000284	2.838442	0.961690	0.000114
  39	3.7810e+00	1.5096	0.482438	0.000213	2.128831	0.721268	0.000085
  40	3.8805e+00	1.5529	0.607589	0.000314	3.142560	1.064728	0.000126
  41	3.9800e+00	1.5834	0.720629	0.000284	2.838442	0.961690	0.000114
  42	4.0795e+00	1.6267	0.813483	0.000233	2.331577	0.789960	0.000093
  43	4.1790e+00	1.6748	0.942671	0.000324	3.243933	1.099074	0.000130
  44	4.2785e+00	1.7165	1.055711	0.000284	2.838442	0.961690	0.000114
  45	4.3780e+00	1.7534	1.201048	0.000365	3.649425	1.236459	0.000146
  46	4.4775e+00	1.7919	1.281791	0.000203	2.027458	0.686921	0.000081
  47	4.5770e+00	1.8320	1.419053	0.000345	3.446679	1.167766	0.000138
  48	4.6765e+00	1.8721	1.528056	0.000274	2.737069	0.927344	0.000110
  49	4.7760e+00	1.9138	1.608799	0.000203	2.027458	0.686921	0.000081
  50	4.8755e+00	1.9443	1.713764	0.000264	2.635696	0.892998	0.000105
  51	4.9750e+00	1.9925	1.851027	0.000345	3.446679	1.167766	0.000138
  52	5.0745e+00	2.0342	1.943881	0.000233	2.331577	0.789960	0.000093
  53	5.1740e+00	2.0679	2.101329	0.000395	3.953544	1.339497	0.000158
  54	5.2735e+00	2.1096	2.234555	0.000335	3.345306	1.133420	0.000134
  55	5.3730e+00	2.1577	2.287037	0.000132	1.317848	0.446499	0.000053
  56	5.4725e+00	2.1898	2.444486	0.000395	3.953544	1.339497	0.000158
  57	5.5720e+00	2.2251	2.577711	0.000335	3.345306	1.133420	0.000134
  58	5.6715e+00	2.2716	2.686714	0.000274	2.737069	0.927344	0.000110
  59	5.7710e+00	2.3005	2.783605	0.000243	2.432950	0.824306	0.000097
  60	5.8705e+00	2.3406	2.928942	0.000365	3.649425	1.236459	0.000146
  61	5.9700e+00	2.3871	3.029870	0.000253	2.534323	0.858652	0.000101
  62	6.0695e+00	2.4256	3.114650	0.000213	2.128831	0.721268	0.000085
  63	6.1690e+00	2.4689	3.280173	0.000416	4.156290	1.408189	0.000166
  64	6.2685e+00	2.5106	3.389175	0.000274	2.737069	0.927344	0.000110
  65	6.3680e+00	2.5491	3.498178	0.000274	2.737069	0.927344	0.000110
  66	6.4675e+00	2.5892	3.643515	0.000365	3.649425	1.236459	0.000146
  67	6.5670e+00	2.6245	3.772703	0.000324	3.243933	1.099074	0.000130
  68	6.6665e+00	2.6678	3.857483	0.000213	2.128831	0.721268	0.000085
  69	6.7660e+00	2.7144	4.006857	0.000375	3.750798	1.270805	0.000150
  70	6.8655e+00	2.7497	4.071451	0.000162	1.621967	0.549537	0.000065
  71	6.9650e+00	2.7930	4.204677	0.000335	3.345306	1.133420	0.000134
  72	7.0645e+00	2.8154	4.333865	0.000324	3.243933	1.099074	0.000130
  73	7.1640e+00	2.8684	4.438831	0.000264	2.635696	0.892998	0.000105
  74	7.2635e+00	2.9021	4.539759	0.000253	2.534323	0.858652	0.000101
  75	7.3630e+00	2.9502	4.697207	0.000395	3.953544	1.339497	0.000158
  76	7.4625e+00	2.9871	4.826396	0.000324	3.243933	1.099074	0.000130
  77	7.5620e+00	3.0240	4.939436	0.000284	2.838442	0.961690	0.000114
  78	7.6615e+00	3.0641	5.044401	0.000264	2.635696	0.892998	0.000105
  79	7.7610e+00	3.1154	5.157441	0.000284	2.838442	0.961690	0.000114
  80	7.8605e+00	3.1459	5.347186	0.000476	4.764527	1.614265	0.000191
  81	7.9600e+00	3.1844	5.411780	0.000162	1.621967	0.549537	0.000065
  82	8.0595e+00	3.2277	5.540969	0.000324	3.243933	1.099074	0.000130
  83	8.1590e+00	3.2694	5.702454	0.000405	4.054917	1.373843	0.000162
  84	8.2585e+00	3.3143	5.767048	0.000162	1.621967	0.549537	0.000065
  85	8.3580e+00	3.3432	5.888162	0.000304	3.041187	1.030382	0.000122
  86	8.4575e+00	3.3817	6.033499	0.000365	3.649425	1.236459	0.000146
  87	8.5570e+00	3.4347	6.166725	0.000335	3.345306	1.133420	0.000134
  88	8.6565e+00	3.4667	6.271690	0.000264	2.635696	0.892998	0.000105
  89	8.7560e+00	3.5101	6.360507	0.000223	2.230204	0.755614	0.000089
  90	8.8555e+00	3.5438	6.469510	0.000274	2.737069	0.927344	0.000110
  91	8.9550e+00	3.5887	6.647144	0.000446	4.460408	1.511227	0.000179
  92	9.0545e+00	3.6256	6.735961	0.000223	2.230204	0.755614	0.000089
  93	9.1540e+00	3.6609	6.865149	0.000324	3.243933	1.099074	0.000130
  94	9.2535e+00	3.7058	6.990301	0.000314	3.142560	1.064728	0.000126
  95	9.3530e+00	3.7395	7.131600	0.000355	3.548052	1.202113	0.000142
  96	9.4525e+00	3.7764	7.224454	0.000233	2.331577	0.789960	0.000093
  97	9.5520e+00	3.8293	7.361717	0.000345	3.446679	1.167766	0.000138
  98	9.6515e+00	3.8598	7.442460	0.000203	2.027458	0.686921	0.000081
  99	9.7510e+00	3.8999	7.591834	0.000375	3.750798	1.270805	0.000150
 100	9.8505e+00	3.9384	7.708911	0.000294	2.939815	0.996036	0.000118
 101	9.9500e+00	3.9817	7.817913	0.000274	2.737069	0.927344	0.000110
 102	1.0050e+01	4.0218	7.959213	0.000355	3.548052	1.202113	0.000142
 103	1.0149e+01	4.0571	8.060142	0.000253	2.534323	0.858652	0.000101
 104	1.0248e+01	4.1020	8.249887	0.000476	4.764527	1.614265	0.000191
 105	1.0348e+01	4.1357	8.338704	0.000223	2.230204	0.755614	0.000089
 106	1.0447e+01	4.1870	8.431558	0.000233	2.331577	0.789960	0.000093
 107	1.0547e+01	4.2255	8.528449	0.000243	2.432950	0.824306	0.000097
 108	1.0646e+01	4.2608	8.706083	0.000446	4.460408	1.511227	0.000179
 109	1.0746e+01	4.2945	8.823160	0.000294	2.939815	0.996036	0.000118
 110	1.0845e+01	4.3378	8.956386	0.000335	3.345306	1.133420	0.000134
 111	1.0945e+01	4.3892	9.057314	0.000253	2.534323	0.858652	0.000101
 112	1.1044e+01	4.4245	9.174391	0.000294	2.939815	0.996036	0.000118
 113	1.1144e+01	4.4646	9.319728	0.000365	3.649425	1.236459	0.000146
 114	1.1243e+01	4.5031	9.412582	0.000233	2.331577	0.789960	0.000093
 115	1.1343e+01	4.5400	9.561956	0.000375	3.750798	1.270805	0.000150
 116	1.1443e+01	4.5865	9.695181	0.000335	3.345306	1.133420	0.000134
 117	1.1542e+01	4.6266	9.828407	0.000335	3.345306	1.133420	0.000134
 118	1.1642e+01	4.6619	9.953558	0.000314	3.142560	1.064728	0.000126
 119	1.1741e+01	4.7036	10.086784	0.000335	3.345306	1.133420	0.000134
 120	1.1841e+01	4.7405	10.179638	0.000233	2.331577	0.789960	0.000093
 121	1.1940e+01	4.7790	10.288640	0.000274	2.737069	0.927344	0.000110
 122	1.2040e+01	4.8239	10.429940	0.000355	3.548052	1.202113	0.000142
 123	1.2139e+01	4.8560	10.547017	0.000294	2.939815	0.996036	0.000118
 124	1.2239e+01	4.9041	10.704465	0.000395	3.953544	1.339497	0.000158
 125	1.2338e+01	4.9346	10.817505	0.000284	2.838442	0.961690	0.000114
 126	1.2438e+01	4.9763	10.938619	0.000304	3.041187	1.030382	0.000122
 127	1.2537e+01	5.0229	11.063770	0.000314	3.142560	1.064728	0.000126
 128	1.2636e+01	5.0630	11.188922	0.000314	3.142560	1.064728	0.000126
 129	1.2736e+01	5.1079	11.310036	0.000304	3.041187	1.030382	0.000122
 130	1.2835e+01	5.1368	11.443261	0.000335	3.345306	1.133420	0.000134
 131	1.2935e+01	5.1737	11.572450	0.000324	3.243933	1.099074	0.000130
 132	1.3034e+01	5.2138	11.673378	0.000253	2.534323	0.858652	0.000101
 133	1.3134e+01	5.2619	11.842938	0.000426	4.257662	1.442535	0.000170
 134	1.3233e+01	5.3036	11.927718	0.000213	2.128831	0.721268	0.000085
 135	1.3333e+01	5.3389	12.093240	0.000416	4.156290	1.408189	0.000166
 136	1.3432e+01	5.3822	12.141686	0.000122	1.216475	0.412153	0.000049
 137	1.3532e+01	5.4143	12.303171	0.000405	4.054917	1.373843	0.000162
 138	1.3632e+01	5.4576	12.404100	0.000253	2.534323	0.858652	0.000101
 139	1.3731e+01	5.4961	12.521176	0.000294	2.939815	0.996036	0.000118
 140	1.3831e+01	5.5282	12.646328	0.000314	3.142560	1.064728	0.000126
 141	1.3930e+01	5.5811	12.763405	0.000294	2.939815	0.996036	0.000118
 142	1.4030e+01	5.6180	12.908742	0.000365	3.649425	1.236459	0.000146
 143	1.4129e+01	5.6629	12.997559	0.000223	2.230204	0.755614	0.000089
 144	1.4229e+01	5.6870	13.142895	0.000365	3.649425	1.236459	0.000146
 145	1.4328e+01	5.7415	13.284195	0.000355	3.548052	1.202113	0.000142
 146	1.4428e+01	5.7817	13.389161	0.000264	2.635696	0.892998	0.000105
 147	1.4527e+01	5.8153	13.457792	0.000172	1.723340	0.583883	0.000069
 148	1.4627e+01	5.8603	13.566795	0.000274	2.737069	0.927344	0.000110
 149	1.4726e+01	5.8907	13.708094	0.000355	3.548052	1.202113	0.000142
 150	1.4825e+01	5.9341	13.861506	0.000385	3.852171	1.305151	0.000154
 151	1.4925e+01	5.9742	13.954360	0.000233	2.331577	0.789960	0.000093
 152	1.5024e+01	6.0095	14.071437	0.000294	2.939815	0.996036	0.000118
 153	1.5124e+01	6.0512	14.208699	0.000345	3.446679	1.167766	0.000138
 154	1.5223e+01	6.0977	14.317702	0.000274	2.737069	0.927344	0.000110
 155	1.5323e+01	6.1394	14.450927	0.000335	3.345306	1.133420	0.000134
 156	1.5422e+01	6.1763	14.563967	0.000284	2.838442	0.961690	0.000114
 157	1.5522e+01	6.2180	14.672970	0.000274	2.737069	0.927344	0.000110
 158	1.5621e+01	6.2549	14.790047	0.000294	2.939815	0.996036	0.000118
 159	1.5721e+01	6.2934	14.951532	0.000405	4.054917	1.373843	0.000162
 160	1.5820e+01	6.3367	15.060535	0.000274	2.737069	0.927344	0.000110
 161	1.5920e+01	6.3848	15.165500	0.000264	2.635696	0.892998	0.000105
 162	1.6020e+01	6.4137	15.230095	0.000162	1.621967	0.549537	0.000065
 163	1.6119e+01	6.4538	15.391580	0.000405	4.054917	1.373843	0.000162
 164	1.6218e+01	6.4923	15.528843	0.000345	3.446679	1.167766	0.000138
 165	1.6318e+01	6.5308	15.593437	0.000162	1.621967	0.549537	0.000065
 166	1.6418e+01	6.5725	15.734737	0.000355	3.548052	1.202113	0.000142
 167	1.6517e+01	6.6143	15.851813	0.000294	2.939815	0.996036	0.000118
 168	1.6616e+01	6.6463	16.001187	0.000375	3.750798	1.270805	0.000150
 169	1.6716e+01	6.6864	16.106153	0.000264	2.635696	0.892998	0.000105
 170	1.6816e+01	6.7378	16.215156	0.000274	2.737069	0.927344	0.000110
 171	1.6915e+01	6.7683	16.364530	0.000375	3.750798	1.270805	0.000150
 172	1.7015e+01	6.8019	16.481607	0.000294	2.939815	0.996036	0.000118
 173	1.7114e+01	6.8437	16.570424	0.000223	2.230204	0.755614	0.000089
 174	1.7213e+01	6.8870	16.691538	0.000304	3.041187	1.030382	0.000122
 175	1.7313e+01	6.9223	16.788429	0.000243	2.432950	0.824306	0.000097
 176	1.7413e+01	6.9608	16.925692	0.000345	3.446679	1.167766	0.000138
 177	1.7512e+01	7.0073	17.038731	0.000284	2.838442	0.961690	0.000114
 178	1.7611e+01	7.0554	17.163883	0.000314	3.142560	1.064728	0.000126
 179	1.7711e+01	7.0907	17.272885	0.000274	2.737069	0.927344	0.000110
 180	1.7811e+01	7.1356	17.398036	0.000314	3.142560	1.064728	0.000126
 181	1.7910e+01	7.1709	17.482816	0.000213	2.128831	0.721268	0.000085
 182	1.8009e+01	7.2078	17.624116	0.000355	3.548052	1.202113	0.000142
 183	1.8109e+01	7.2495	17.733119	0.000274	2.737069	0.927344	0.000110
 184	1.8209e+01	7.2961	17.854233	0.000304	3.041187	1.030382	0.000122
 185	1.8308e+01	7.3394	18.007644	0.000385	3.852171	1.305151	0.000154
 186	1.8407e+01	7.3714	18.064164	0.000142	1.419221	0.480845	0.000057
 187	1.8507e+01	7.4051	18.225649	0.000405	4.054917	1.373843	0.000162
 188	1.8607e+01	7.4452	18.370986	0.000365	3.649425	1.236459	0.000146
 189	1.8706e+01	7.4950	18.455766	0.000213	2.128831	0.721268	0.000085
 190	1.8805e+01	7.5222	18.572843	0.000294	2.939815	0.996036	0.000118
 191	1.8905e+01	7.5672	18.661660	0.000223	2.230204	0.755614	0.000089
 192	1.9005e+01	7.6169	18.798923	0.000345	3.446679	1.167766	0.000138
 193	1.9104e+01	7.6410	18.895814	0.000243	2.432950	0.824306	0.000097
 194	1.9203e+01	7.6955	19.033076	0.000345	3.446679	1.167766	0.000138
 195	1.9303e+01	7.7244	19.170339	0.000345	3.446679	1.167766	0.000138
 196	1.9402e+01	7.7597	19.267230	0.000243	2.432950	0.824306	0.000097
 197	1.9502e+01	7.7998	19.372196	0.000264	2.635696	0.892998	0.000105
 198	1.9602e+01	7.8447	19.485236	0.000284	2.838442	0.961690	0.000114
 199	1.9701e+01	7.8928	19.618461	0.000335	3.345306	1.133420	0.000134
 200	1.9800e+01	7.9185	19.759761	0.000355	3.548052	1.202113	0.000142
 201	1.9900e+01	7.9682	19.816281	0.000142	1.419221	0.480845	0.000057
 202	2.0000e+01	8.0067	19.901061	0.000213	2.128831	0.721268	0.000085
 203	2.0099e+01	8.0532	20.026212	0.000314	3.142560	1.064728	0.000126
 204	2.0198e+01	8.0853	20.179623	0.000385	3.852171	1.305151	0.000154
 205	2.0298e+01	8.1270	20.280551	0.000253	2.534323	0.858652	0.000101
 206	2.0398e+01	8.1623	20.397628	0.000294	2.939815	0.996036	0.000118
 207	2.0497e+01	8.2040	20.478371	0.000203	2.027458	0.686921	0.000081
 208	2.0596e+01	8.2393	20.627745	0.000375	3.750798	1.270805	0.000150
 209	2.0696e+01	8.2810	20.704451	0.000193	1.926085	0.652575	0.000077
 210	2.0796e+01	8.3292	20.882085	0.000446	4.460408	1.511227	0.000179
 211	2.0895e+01	8.3581	20.954753	0.000182	1.824712	0.618229	0.000073
 212	2.0994e+01	8.4078	21.112201	0.000395	3.953544	1.339497	0.000158
 213	2.1094e+01	8.4495	21.205055	0.000233	2.331577	0.789960	0.000093
 214	2.1194e+01	8.4912	21.297910	0.000233	2.331577	0.789960	0.000093
 215	2.1293e+01	8.5185	21.439209	0.000355	3.548052	1.202113	0.000142
 216	2.1392e+01	8.5666	21.536101	0.000243	2.432950	0.824306	0.000097
 217	2.1492e+01	8.6003	21.681437	0.000365	3.649425	1.236459	0.000146
 218	2.1591e+01	8.6532	21.758143	0.000193	1.926085	0.652575	0.000077
 219	2.1691e+01	8.6869	21.955963	0.000497	4.967273	1.682958	0.000199
 220	2.1791e+01	8.7222	22.056891	0.000253	2.534323	0.858652	0.000101
 221	2.1890e+01	8.7639	22.133597	0.000193	1.926085	0.652575	0.000077
 222	2.1989e+01	8.7928	22.291045	0.000395	3.953544	1.339497	0.000158
 223	2.2089e+01	8.8409	22.347565	0.000142	1.419221	0.480845	0.000057
 224	2.2189e+01	8.8842	22.496939	0.000375	3.750798	1.270805	0.000150
 225	2.2288e+01	8.9227	22.638239	0.000355	3.548052	1.202113	0.000142
 226	2.2387e+01	8.9628	22.723019	0.000213	2.128831	0.721268	0.000085
 227	2.2487e+01	9.0030	22.860281	0.000345	3.446679	1.167766	0.000138
 228	2.2587e+01	9.0463	22.965247	0.000264	2.635696	0.892998	0.000105
 229	2.2686e+01	9.0832	23.126732	0.000405	4.054917	1.373843	0.000162
 230	2.2785e+01	9.1217	23.219586	0.000233	2.331577	0.789960	0.000093
 231	2.2885e+01	9.1570	23.344737	0.000314	3.142560	1.064728	0.000126
 232	2.2985e+01	9.2035	23.453740	0.000274	2.737069	0.927344	0.000110
 233	2.3084e+01	9.2452	23.595040	0.000355	3.548052	1.202113	0.000142
 234	2.3183e+01	9.2789	23.695968	0.000253	2.534323	0.858652	0.000101
 235	2.3283e+01	9.3206	23.809008	0.000284	2.838442	0.961690	0.000114
 236	2.3383e+01	9.3655	23.918011	0.000274	2.737069	0.927344	0.000110
 237	2.3482e+01	9.3992	24.018939	0.000253	2.534323	0.858652	0.000101
 238	2.3581e+01	9.4505	24.176387	0.000395	3.953544	1.339497	0.000158
 239	2.3681e+01	9.4794	24.301539	0.000314	3.142560	1.064728	0.000126
 240	2.3780e+01	9.5275	24.398430	0.000243	2.432950	0.824306	0.000097
 241	2.3880e+01	9.5580	24.539730	0.000355	3.548052	1.202113	0.000142
 242	2.3980e+01	9.5997	24.636621	0.000243	2.432950	0.824306	0.000097
 243	2.4079e+01	9.6463	24.781958	0.000365	3.649425	1.236459	0.000146
 244	2.4178e+01	9.6848	24.882886	0.000253	2.534323	0.858652	0.000101
 245	2.4278e+01	9.7217	25.024186	0.000355	3.548052	1.202113	0.000142
 246	2.4378e+01	9.7537	25.145300	0.000304	3.041187	1.030382	0.000122
 247	2.4477e+01	9.7938	25.262377	0.000294	2.939815	0.996036	0.000118
 248	2.4576e+01	9.8404	25.351194	0.000223	2.230204	0.755614	0.000089
 249	2.4676e+01	9.8789	25.480382	0.000324	3.243933	1.099074	0.000130
 250	2.4776e+01	9.9190	25.621682	0.000355	3.548052	1.202113	0.000142
 251	2.4875e+01	9.9607	25.746833	0.000314	3.142560	1.064728	0.000126
 252	2.4974e+01	10.0040	25.835650	0.000223	2.230204	0.755614	0.000089
 253	2.5074e+01	10.0361	25.972913	0.000345	3.446679	1.167766	0.000138
 254	2.5174e+01	10.0746	26.126324	0.000385	3.852171	1.305151	0.000154
 255	2.5273e+01	10.1099	26.243401	0.000294	2.939815	0.996036	0.000118
 256	2.5372e+01	10.1676	26.332218	0.000223	2.230204	0.755614	0.000089
 257	2.5472e+01	10.2013	26.465443	0.000335	3.345306	1.133420	0.000134
 258	2.5572e+01	10.2318	26.574446	0.000274	2.737069	0.927344	0.000110
 259	2.5671e+01	10.2719	26.659226	0.000213	2.128831	0.721268	0.000085
 260	2.5770e+01	10.3248	26.788414	0.000324	3.243933	1.099074	0.000130
 261	2.5870e+01	10.3569	26.949900	0.000405	4.054917	1.373843	0.000162
 262	2.5970e+01	10.4018	27.046791	0.000243	2.432950	0.824306	0.000097
 263	2.6069e+01	10.4371	27.155794	0.000274	2.737069	0.927344	0.000110
 264	2.6169e+01	10.4724	27.272870	0.000294	2.939815	0.996036	0.000118
 265	2.6268e+01	10.5157	27.422245	0.000375	3.750798	1.270805	0.000150
 266	2.6367e+01	10.5510	27.523173	0.000253	2.534323	0.858652	0.000101
 267	2.6467e+01	10.5944	27.648324	0.000314	3.142560	1.064728	0.000126
 268	2.6567e+01	10.6361	27.789624	0.000355	3.548052	1.202113	0.000142
 269	2.6666e+01	10.6778	27.934961	0.000365	3.649425	1.236459	0.000146
 270	2.6765e+01	10.7179	27.999555	0.000162	1.621967	0.549537	0.000065
 271	2.6865e+01	10.7516	28.120669	0.000304	3.041187	1.030382	0.000122
 272	2.6965e+01	10.8013	28.261969	0.000355	3.548052	1.202113	0.000142
 273	2.7064e+01	10.8334	28.342711	0.000203	2.027458	0.686921	0.000081
 274	2.7163e+01	10.8655	28.463826	0.000304	3.041187	1.030382	0.000122
 275	2.7263e+01	10.9072	28.653571	0.000476	4.764527	1.614265	0.000191
 276	2.7363e+01	10.9585	28.718165	0.000162	1.621967	0.549537	0.000065
 277	2.7462e+01	10.9842	28.875613	0.000395	3.953544	1.339497	0.000158
 278	2.7561e+01	11.0435	28.944245	0.000172	1.723340	0.583883	0.000069
 279	2.7661e+01	11.0740	29.138027	0.000487	4.865900	1.648612	0.000195
 280	2.7761e+01	11.1141	29.287401	0.000375	3.750798	1.270805	0.000150
 281	2.7860e+01	11.1446	29.327773	0.000101	1.013729	0.343461	0.000041
 282	2.7959e+01	11.1975	29.456961	0.000324	3.243933	1.099074	0.000130
 283	2.8059e+01	11.2280	29.622483	0.000416	4.156290	1.408189	0.000166
 284	2.8159e+01	11.2729	29.707263	0.000213	2.128831	0.721268	0.000085
 285	2.8258e+01	11.3179	29.860674	0.000385	3.852171	1.305151	0.000154
 286	2.8358e+01	11.3499	29.977751	0.000294	2.939815	0.996036	0.000118
 287	2.8457e+01	11.3965	30.135200	0.000395	3.953544	1.339497	0.000158
 288	2.8556e+01	11.4398	30.248240	0.000284	2.838442	0.961690	0.000114
 289	2.8656e+01	11.4767	30.345131	0.000243	2.432950	0.824306	0.000097
 290	2.8756e+01	11.5200	30.502579	0.000395	3.953544	1.339497	0.000158
 291	2.8855e+01	11.5537	30.603507	0.000253	2.534323	0.858652	0.000101
 292	2.8954e+01	11.5906	30.712510	0.000274	2.737069	0.927344	0.000110
 293	2.9054e+01	11.6403	30.837661	0.000314	3.142560	1.064728	0.000126
 294	2.9154e+01	11.6708	30.934553	0.000243	2.432950	0.824306	0.000097
 295	2.9253e+01	11.7157	31.055667	0.000304	3.041187	1.030382	0.000122
 296	2.9352e+01	11.7478	31.205041	0.000375	3.750798	1.270805	0.000150
 297	2.9452e+01	11.7911	31.318080	0.000284	2.838442	0.961690	0.000114
 298	2.9552e+01	11.8344	31.459380	0.000355	3.548052	1.202113	0.000142
 299	2.9651e+01	11.8745	31.580494	0.000304	3.041187	1.030382	0.000122
 300	2.9750e+01	11.9114	31.677386	0.000243	2.432950	0.824306	0.000097
 301	2.9850e+01	11.9451	31.814648	0.000345	3.446679	1.167766	0.000138
 302	2.9950e+01	11.9900	31.919614	0.000264	2.635696	0.892998	0.000105
 303	3.0049e+01	12.0398	32.036691	0.000294	2.939815	0.996036	0.000118
 304	3.0148e+01	12.0767	32.182028	0.000365	3.649425	1.236459	0.000146
 305	3.0248e+01	12.1200	32.254696	0.000182	1.824712	0.618229	0.000073
 306	3.0348e+01	12.1456	32.391959	0.000345	3.446679	1.167766	0.000138
 307	3.0447e+01	12.1874	32.488850	0.000243	2.432950	0.824306	0.000097
 308	3.0547e+01	12.2259	32.626112	0.000345	3.446679	1.167766	0.000138
 309	3.0646e+01	12.2708	32.731078	0.000264	2.635696	0.892998	0.000105
 310	3.0745e+01	12.3045	32.888526	0.000395	3.953544	1.339497	0.000158
 311	3.0845e+01	12.3478	32.989455	0.000253	2.534323	0.858652	0.000101
 312	3.0945e+01	12.3975	33.114606	0.000314	3.142560	1.064728	0.000126
 313	3.1044e+01	12.4328	33.203423	0.000223	2.230204	0.755614	0.000089
 314	3.1143e+01	12.4601	33.328574	0.000314	3.142560	1.064728	0.000126
 315	3.1243e+01	12.5114	33.441614	0.000284	2.838442	0.961690	0.000114
 316	3.1343e+01	12.5579	33.566765	0.000314	3.142560	1.064728	0.000126
 317	3.1442e+01	12.5884	33.671731	0.000264	2.635696	0.892998	0.000105
 318	3.1541e+01	12.6349	33.800919	0.000324	3.243933	1.099074	0.000130
 319	3.1641e+01	12.6654	33.897810	0.000243	2.432950	0.824306	0.000097
 320	3.1741e+01	12.7087	33.998739	0.000253	2.534323	0.858652	0.000101
 321	3.1840e+01	12.7424	34.140038	0.000355	3.548052	1.202113	0.000142
 322	3.1939e+01	12.7841	34.301524	0.000405	4.054917	1.373843	0.000162
 323	3.2039e+01	12.8194	34.341895	0.000101	1.013729	0.343461	0.000041
 324	3.2139e+01	12.8643	34.471083	0.000324	3.243933	1.099074	0.000130
 325	3.2238e+01	12.9044	34.616420	0.000365	3.649425	1.236459	0.000146
 326	3.2337e+01	12.9558	34.705237	0.000223	2.230204	0.755614	0.000089
 327	3.2437e+01	12.9782	34.818277	0.000284	2.838442	0.961690	0.000114
 328	3.2536e+01	13.0216	34.931317	0.000284	2.838442	0.961690	0.000114
 329	3.2636e+01	13.0617	35.032245	0.000253	2.534323	0.858652	0.000101
 330	3.2736e+01	13.1002	35.173545	0.000355	3.548052	1.202113	0.000142
 331	3.2835e+01	13.1483	35.310808	0.000345	3.446679	1.167766	0.000138
 332	3.2934e+01	13.1868	35.399625	0.000223	2.230204	0.755614	0.000089
 333	3.3034e+01	13.2269	35.508627	0.000274	2.737069	0.927344	0.000110
 334	3.3133e+01	13.2574	35.662039	0.000385	3.852171	1.305151	0.000154
 335	3.3233e+01	13.2991	35.750856	0.000223	2.230204	0.755614	0.000089
 336	3.3333e+01	13.3440	35.827561	0.000193	1.926085	0.652575	0.000077
 337	3.3432e+01	13.3857	36.001158	0.000436	4.359035	1.476881	0.000174
 338	3.3532e+01	13.4194	36.094012	0.000233	2.331577	0.789960	0.000093
 339	3.3631e+01	13.4611	36.203015	0.000274	2.737069	0.927344	0.000110
 340	3.3730e+01	13.5044	36.332203	0.000324	3.243933	1.099074	0.000130
 341	3.3830e+01	13.5413	36.388723	0.000142	1.419221	0.480845	0.000057
 342	3.3929e+01	13.5814	36.501763	0.000284	2.838442	0.961690	0.000114
 343	3.4029e+01	13.6215	36.679397	0.000446	4.460408	1.511227	0.000179
 344	3.4129e+01	13.6616	36.784362	0.000264	2.635696	0.892998	0.000105
 345	3.4228e+01	13.7001	36.861068	0.000193	1.926085	0.652575	0.000077
 346	3.4328e+01	13.7451	37.002368	0.000355	3.548052	1.202113	0.000142
 347	3.4427e+01	13.7868	37.095222	0.000233	2.331577	0.789960	0.000093
 348	3.4526e+01	13.8189	37.204224	0.000274	2.737069	0.927344	0.000110
 349	3.4626e+01	13.8654	37.321301	0.000294	2.939815	0.996036	0.000118
 350	3.4725e+01	13.8943	37.454527	0.000335	3.345306	1.133420	0.000134
 351	3.4825e+01	13.9440	37.527195	0.000182	1.824712	0.618229	0.000073
 352	3.4925e+01	13.9777	37.656384	0.000324	3.243933	1.099074	0.000130
 353	3.5024e+01	14.0162	37.785572	0.000324	3.243933	1.099074	0.000130
 354	3.5123e+01	14.0402	37.898612	0.000284	2.838442	0.961690	0.000114
 355	3.5223e+01	14.0932	38.007614	0.000274	2.737069	0.927344	0.000110
 356	3.5322e+01	14.1365	38.169100	0.000405	4.054917	1.373843	0.000162
 357	3.5422e+01	14.1750	38.265991	0.000243	2.432950	0.824306	0.000097
 358	3.5522e+01	14.2119	38.354808	0.000223	2.230204	0.755614	0.000089
 359	3.5621e+01	14.2584	38.443625	0.000223	2.230204	0.755614	0.000089
 360	3.5721e+01	14.2953	38.601073	0.000395	3.953544	1.339497	0.000158
 361	3.5820e+01	14.3386	38.685853	0.000213	2.128831	0.721268	0.000085
 362	3.5919e+01	14.3739	38.802930	0.000294	2.939815	0.996036	0.000118
 363	3.6019e+01	14.4172	38.847339	0.000112	1.115102	0.377807	0.000045
 364	3.6118e+01	14.4622	38.996713	0.000375	3.750798	1.270805	0.000150
 365	3.6218e+01	14.5039	39.121864	0.000314	3.142560	1.064728	0.000126
 366	3.6318e+01	14.5424	39.251052	0.000324	3.243933	1.099074	0.000130
 367	3.6417e+01	14.5841	39.315646	0.000162	1.621967	0.549537	0.000065
 368	3.6517e+01	14.6097	39.469058	0.000385	3.852171	1.305151	0.000154
 369	3.6616e+01	14.6579	39.541726	0.000182	1.824712	0.618229	0.000073
 370	3.6715e+01	14.7044	39.687063	0.000365	3.649425	1.236459	0.000146
 371	3.6815e+01	14.7461	39.792028	0.000264	2.635696	0.892998	0.000105
 372	3.6914e+01	14.7766	39.896994	0.000264	2.635696	0.892998	0.000105
 373	3.7014e+01	14.8135	39.997922	0.000253	2.534323	0.858652	0.000101
 374	3.7114e+01	14.8600	40.106925	0.000274	2.737069	0.927344	0.000110
 375	3.7213e+01	14.9001	40.167482	0.000152	1.520594	0.515191	0.000061
 376	3.7313e+01	14.9274	40.328967	0.000405	4.054917	1.373843	0.000162
 377	3.7412e+01	14.9723	40.429896	0.000253	2.534323	0.858652	0.000101
 378	3.7511e+01	15.0172	40.575233	0.000365	3.649425	1.236459	0.000146
 379	3.7611e+01	15.0557	40.639827	0.000162	1.621967	0.549537	0.000065
 380	3.7711e+01	15.0926	40.728644	0.000223	2.230204	0.755614	0.000089
 381	3.7810e+01	15.1327	40.873981	0.000365	3.649425	1.236459	0.000146
 382	3.7910e+01	15.1728	40.978946	0.000264	2.635696	0.892998	0.000105
 383	3.8009e+01	15.2178	41.140432	0.000405	4.054917	1.373843	0.000162
 384	3.8108e+01	15.2611	41.180803	0.000101	1.013729	0.343461	0.000041
 385	3.8208e+01	15.2948	41.346326	0.000416	4.156290	1.408189	0.000166
 386	3.8307e+01	15.3284	41.443217	0.000243	2.432950	0.824306	0.000097
 387	3.8407e+01	15.3830	41.540108	0.000243	2.432950	0.824306	0.000097
 388	3.8507e+01	15.4135	41.669297	0.000324	3.243933	1.099074	0.000130
 389	3.8606e+01	15.4504	41.766188	0.000243	2.432950	0.824306	0.000097
 390	3.8706e+01	15.4969	41.923636	0.000395	3.953544	1.339497	0.000158
 391	3.8805e+01	15.5338	42.016490	0.000233	2.331577	0.789960	0.000093
 392	3.8904e+01	15.5739	42.157790	0.000355	3.548052	1.202113	0.000142
 393	3.9004e+01	15.6076	42.222384	0.000162	1.621967	0.549537	0.000065
 394	3.9103e+01	15.6541	42.371758	0.000375	3.750798	1.270805	0.000150
 395	3.9203e+01	15.6958	42.432315	0.000152	1.520594	0.515191	0.000061
 396	3.9303e+01	15.7263	42.569578	0.000345	3.446679	1.167766	0.000138
 397	3.9402e+01	15.7760	42.706840	0.000345	3.446679	1.167766	0.000138
 398	3.9502e+01	15.8049	42.799695	0.000233	2.331577	0.789960	0.000093
 399	3.9601e+01	15.8562	42.916771	0.000294	2.939815	0.996036	0.000118
 400	3.9700e+01	15.8931	43.037886	0.000304	3.041187	1.030382	0.000122
 401	3.9800e+01	15.9316	43.154962	0.000294	2.939815	0.996036	0.000118
 402	3.9900e+01	15.9733	43.235705	0.000203	2.027458	0.686921	0.000081
 403	3.9999e+01	16.0086	43.381042	0.000365	3.649425	1.236459	0.000146
 404	4.0099e+01	16.0520	43.486008	0.000264	2.635696	0.892998	0.000105
 405	4.0198e+01	16.0905	43.586936	0.000253	2.534323	0.858652	0.000101
 406	4.0297e+01	16.1209	43.716124	0.000324	3.243933	1.099074	0.000130
 407	4.0397e+01	16.1771	43.861461	0.000365	3.649425	1.236459	0.000146
 408	4.0496e+01	16.2108	43.974501	0.000284	2.838442	0.961690	0.000114
 409	4.0596e+01	16.2541	44.099652	0.000314	3.142560	1.064728	0.000126
 410	4.0696e+01	16.2862	44.188469	0.000223	2.230204	0.755614	0.000089
 411	4.0795e+01	16.3263	44.285360	0.000243	2.432950	0.824306	0.000097
 412	4.0895e+01	16.3824	44.422623	0.000345	3.446679	1.167766	0.000138
 413	4.0994e+01	16.4097	44.527589	0.000264	2.635696	0.892998	0.000105
 414	4.1093e+01	16.4482	44.660814	0.000335	3.345306	1.133420	0.000134
 415	4.1193e+01	16.4867	44.769817	0.000274	2.737069	0.927344	0.000110
 416	4.1292e+01	16.5412	44.854597	0.000213	2.128831	0.721268	0.000085
 417	4.1392e+01	16.5749	44.975711	0.000304	3.041187	1.030382	0.000122
 418	4.1492e+01	16.6022	45.108936	0.000335	3.345306	1.133420	0.000134
 419	4.1591e+01	16.6455	45.193716	0.000213	2.128831	0.721268	0.000085
 420	4.1691e+01	16.6888	45.326941	0.000335	3.345306	1.133420	0.000134
 421	4.1790e+01	16.7370	45.435944	0.000274	2.737069	0.927344	0.000110
 422	4.1889e+01	16.7739	45.557058	0.000304	3.041187	1.030382	0.000122
 423	4.1989e+01	16.7947	45.645875	0.000223	2.230204	0.755614	0.000089
 424	4.2089e+01	16.8364	45.807361	0.000405	4.054917	1.373843	0.000162
 425	4.2188e+01	16.8894	45.924438	0.000294	2.939815	0.996036	0.000118
 426	4.2288e+01	16.9263	46.017292	0.000233	2.331577	0.789960	0.000093
 427	4.2387e+01	16.9696	46.154554	0.000345	3.446679	1.167766	0.000138
 428	4.2486e+01	17.0065	46.235297	0.000203	2.027458	0.686921	0.000081
 429	4.2586e+01	17.0466	46.396782	0.000405	4.054917	1.373843	0.000162
 430	4.2685e+01	17.0819	46.513859	0.000294	2.939815	0.996036	0.000118
 431	4.2785e+01	17.1268	46.582491	0.000172	1.723340	0.583883	0.000069
 432	4.2885e+01	17.1717	46.703605	0.000304	3.041187	1.030382	0.000122
 433	4.2984e+01	17.2086	46.840867	0.000345	3.446679	1.167766	0.000138
 434	4.3084e+01	17.2551	46.941796	0.000253	2.534323	0.858652	0.000101
 435	4.3183e+01	17.2952	47.062910	0.000304	3.041187	1.030382	0.000122
 436	4.3282e+01	17.3273	47.188061	0.000314	3.142560	1.064728	0.000126
 437	4.3382e+01	17.3658	47.309175	0.000304	3.041187	1.030382	0.000122
 438	4.3481e+01	17.4156	47.422215	0.000284	2.838442	0.961690	0.000114
 439	4.3581e+01	17.4476	47.531218	0.000274	2.737069	0.927344	0.000110
 440	4.3681e+01	17.4926	47.632146	0.000253	2.534323	0.858652	0.000101
 441	4.3780e+01	17.5214	47.797669	0.000416	4.156290	1.408189	0.000166
 442	4.3880e+01	17.5728	47.866300	0.000172	1.723340	0.583883	0.000069
 443	4.3979e+01	17.6049	47.971265	0.000264	2.635696	0.892998	0.000105
 444	4.4078e+01	17.6546	48.112565	0.000355	3.548052	1.202113	0.000142
 445	4.4178e+01	17.6883	48.201382	0.000223	2.230204	0.755614	0.000089
 446	4.4278e+01	17.7236	48.314422	0.000284	2.838442	0.961690	0.000114
 447	4.4377e+01	17.7573	48.455722	0.000355	3.548052	1.202113	0.000142
 448	4.4477e+01	17.8134	48.605096	0.000375	3.750798	1.270805	0.000150
 449	4.4576e+01	17.8455	48.693913	0.000223	2.230204	0.755614	0.000089
 450	4.4675e+01	17.8808	48.819064	0.000314	3.142560	1.064728	0.000126
 451	4.4775e+01	17.9321	48.948252	0.000324	3.243933	1.099074	0.000130
 452	4.4874e+01	17.9562	49.037069	0.000223	2.230204	0.755614	0.000089
 453	4.4974e+01	18.0027	49.194518	0.000395	3.953544	1.339497	0.000158
 454	4.5074e+01	18.0396	49.287372	0.000233	2.331577	0.789960	0.000093
 455	4.5173e+01	18.0813	49.432709	0.000365	3.649425	1.236459	0.000146
 456	4.5273e+01	18.1342	49.549785	0.000294	2.939815	0.996036	0.000118
 457	4.5372e+01	18.1663	49.634565	0.000213	2.128831	0.721268	0.000085
 458	4.5471e+01	18.2048	49.775865	0.000355	3.548052	1.202113	0.000142
 459	4.5571e+01	18.2401	49.917165	0.000355	3.548052	1.202113	0.000142
 460	4.5670e+01	18.2770	49.993870	0.000193	1.926085	0.652575	0.000077
 461	4.5770e+01	18.3235	50.151319	0.000395	3.953544	1.339497	0.000158
 462	4.5870e+01	18.3620	50.268396	0.000294	2.939815	0.996036	0.000118
 463	4.5969e+01	18.4006	50.361250	0.000233	2.331577	0.789960	0.000093
 464	4.6069e+01	18.4374	50.470252	0.000274	2.737069	0.927344	0.000110
 465	4.6168e+01	18.4743	50.559069	0.000223	2.230204	0.755614	0.000089
 466	4.6267e+01	18.5257	50.692295	0.000335	3.345306	1.133420	0.000134
 467	4.6367e+01	18.5642	50.817446	0.000314	3.142560	1.064728	0.000126
 468	4.6467e+01	18.6027	50.934523	0.000294	2.939815	0.996036	0.000118
 469	4.6566e+01	18.6364	51.035451	0.000253	2.534323	0.858652	0.000101
 470	4.6666e+01	18.6861	51.176751	0.000355	3.548052	1.202113	0.000142
 471	4.6765e+01	18.7262	51.285754	0.000274	2.737069	0.927344	0.000110
 472	4.6864e+01	18.7679	51.394757	0.000274	2.737069	0.927344	0.000110
 473	4.6964e+01	18.7968	51.532019	0.000345	3.446679	1.167766	0.000138
 474	4.7063e+01	18.8449	51.596613	0.000162	1.621967	0.549537	0.000065
 475	4.7163e+01	18.8738	51.750024	0.000385	3.852171	1.305151	0.000154
 476	4.7263e+01	18.9187	51.838841	0.000223	2.230204	0.755614	0.000089
 477	4.7362e+01	18.9652	51.980141	0.000355	3.548052	1.202113	0.000142
 478	4.7462e+01	19.0118	52.081070	0.000253	2.534323	0.858652	0.000101
 479	4.7561e+01	19.0487	52.177961	0.000243	2.432950	0.824306	0.000097
 480	4.7660e+01	19.0695	52.295038	0.000294	2.939815	0.996036	0.000118
 481	4.7760e+01	19.1241	52.420189	0.000314	3.142560	1.064728	0.000126
 482	4.7859e+01	19.1610	52.565526	0.000365	3.649425	1.236459	0.000146
 483	4.7959e+01	19.1979	52.654343	0.000223	2.230204	0.755614	0.000089
 484	4.8059e+01	19.2396	52.755271	0.000253	2.534323	0.858652	0.000101
 485	4.8158e+01	19.2813	52.880422	0.000314	3.142560	1.064728	0.000126
 486	4.8258e+01	19.3214	52.961165	0.000203	2.027458	0.686921	0.000081
 487	4.8357e+01	19.3551	53.138799	0.000446	4.460408	1.511227	0.000179
 488	4.8456e+01	19.3984	53.179171	0.000101	1.013729	0.343461	0.000041
 489	4.8556e+01	19.4353	53.312396	0.000335	3.345306	1.133420	0.000134
 490	4.8656e+01	19.4802	53.433510	0.000304	3.041187	1.030382	0.000122
 491	4.8755e+01	19.5155	53.546550	0.000284	2.838442	0.961690	0.000114
 492	4.8855e+01	19.5620	53.671701	0.000314	3.142560	1.064728	0.000126
 493	4.8954e+01	19.6005	53.768592	0.000243	2.432950	0.824306	0.000097
 494	4.9053e+01	19.6358	53.849335	0.000203	2.027458	0.686921	0.000081
 495	4.9153e+01	19.6775	53.974486	0.000314	3.142560	1.064728	0.000126
 496	4.9252e+01	19.7192	54.075415	0.000253	2.534323	0.858652	0.000101
 497	4.9352e+01	19.7577	54.196529	0.000304	3.041187	1.030382	0.000122
 498	4.9452e+01	19.8059	54.309569	0.000284	2.838442	0.961690	0.000114
 499	4.9551e+01	19.8379	54.402423	0.000233	2.331577	0.789960	0.000093
 500	4.9651e+01	19.8716	54.535648	0.000335	3.345306	1.133420	0.000134
 501	4.9750e+01	19.9085	54.636577	0.000253	2.534323	0.858652	0.000101
 502	4.9849e+01	19.9695	54.749616	0.000284	2.838442	0.961690	0.000114
 503	4.9949e+01	20.0016	54.874768	0.000314	3.142560	1.064728	0.000126
 504	5.0048e+01	19.9551	54.798062	0.000193	1.926085	0.652575	-0.000077
 505	5.0148e+01	19.9117	54.668874	0.000324	3.243933	1.099074	-0.000130
 506	5.0248e+01	19.8797	54.539685	0.000324	3.243933	1.099074	-0.000130
 507	5.0347e+01	19.8444	54.479128	0.000152	1.520594	0.515191	-0.000061
 508	5.0447e+01	19.7962	54.382237	0.000243	2.432950	0.824306	-0.000097
 509	5.0546e+01	19.7593	54.293420	0.000223	2.230204	0.755614	-0.000089
 510	5.0645e+01	19.7144	54.212677	0.000203	2.027458	0.686921	-0.000081
 511	5.0745e+01	19.6855	54.111749	0.000253	2.534323	0.858652	-0.000101
 512	5.0844e+01	19.6358	53.994672	0.000294	2.939815	0.996036	-0.000118
 513	5.0944e+01	19.5925	53.889706	0.000264	2.635696	0.892998	-0.000105
 514	5.1044e+01	19.5556	53.796852	0.000233	2.331577	0.789960	-0.000093
 515	5.1143e+01	19.5171	53.695924	0.000253	2.534323	0.858652	-0.000101
 516	5.1242e+01	19.4802	53.586921	0.000274	2.737069	0.927344	-0.000110
 517	5.1342e+01	19.4433	53.477919	0.000274	2.737069	0.927344	-0.000110
 518	5.1441e+01	19.4032	53.405250	0.000182	1.824712	0.618229	-0.000073
 519	5.1541e+01	19.3615	53.320470	0.000213	2.128831	0.721268	-0.000085
 520	5.1641e+01	19.3214	53.175133	0.000365	3.649425	1.236459	-0.000146
 521	5.1740e+01	19.2749	53.110539	0.000162	1.621967	0.549537	-0.000065
 522	5.1840e+01	19.2428	53.001537	0.000274	2.737069	0.927344	-0.000110
 523	5.1939e+01	19.2059	52.892534	0.000274	2.737069	0.927344	-0.000110
 524	5.2038e+01	19.1577	52.787568	0.000264	2.635696	0.892998	-0.000105
 525	5.2138e+01	19.1273	52.674529	0.000284	2.838442	0.961690	-0.000114
 526	5.2237e+01	19.0727	52.569563	0.000264	2.635696	0.892998	-0.000105
 527	5.2337e+01	19.0455	52.444412	0.000314	3.142560	1.064728	-0.000126
 528	5.2437e+01	18.9973	52.400003	0.000112	1.115102	0.377807	-0.000045
 529	5.2536e+01	18.9652	52.266778	0.000335	3.345306	1.133420	-0.000134
 530	5.2636e+01	18.9299	52.157775	0.000274	2.737069	0.927344	-0.000110
 531	5.2735e+01	18.8722	52.081070	0.000193	1.926085	0.652575	-0.000077
 532	5.2834e+01	18.8321	51.935733	0.000365	3.649425	1.236459	-0.000146
 533	5.2934e+01	18.8064	51.846916	0.000223	2.230204	0.755614	-0.000089
 534	5.3033e+01	18.7519	51.725802	0.000304	3.041187	1.030382	-0.000122
 535	5.3133e+01	18.7278	51.636985	0.000223	2.230204	0.755614	-0.000089
 536	5.3233e+01	18.6909	51.499722	0.000345	3.446679	1.167766	-0.000138
 537	5.3332e+01	18.6428	51.410905	0.000223	2.230204	0.755614	-0.000089
 538	5.3431e+01	18.5995	51.285754	0.000314	3.142560	1.064728	-0.000126
 539	5.3531e+01	18.5530	51.180788	0.000264	2.635696	0.892998	-0.000105
 540	5.3630e+01	18.5289	51.108120	0.000182	1.824712	0.618229	-0.000073
 541	5.3730e+01	18.4872	50.966820	0.000355	3.548052	1.202113	-0.000142
 542	5.3830e+01	18.4439	50.906263	0.000152	1.520594	0.515191	-0.000061
 543	5.3929e+01	18.4022	50.756889	0.000375	3.750798	1.270805	-0.000150
 544	5.4029e+01	18.3653	50.647886	0.000274	2.737069	0.927344	-0.000110
 545	5.4128e+01	18.3284	50.526772	0.000304	3.041187	1.030382	-0.000122
 546	5.4227e+01	18.2690	50.425844	0.000253	2.534323	0.858652	-0.000101
 547	5.4327e+01	18.2449	50.353175	0.000182	1.824712	0.618229	-0.000073
 548	5.4426e+01	18.2080	50.240136	0.000284	2.838442	0.961690	-0.000114
 549	5.4526e+01	18.1647	50.135170	0.000264	2.635696	0.892998	-0.000105
 550	5.4626e+01	18.1342	50.010019	0.000314	3.142560	1.064728	-0.000126
 551	5.4725e+01	18.0797	49.905053	0.000264	2.635696	0.892998	-0.000105
 552	5.4825e+01	18.0444	49.824311	0.000203	2.027458	0.686921	-0.000081
 553	5.4924e+01	18.0043	49.695122	0.000324	3.243933	1.099074	-0.000130
 554	5.5023e+01	17.9706	49.618417	0.000193	1.926085	0.652575	-0.000077
 555	5.5123e+01	17.9241	49.452894	0.000416	4.156290	1.408189	-0.000166
 556	5.5222e+01	17.8904	49.412523	0.000101	1.013729	0.343461	-0.000041
 557	5.5322e+01	17.8439	49.275260	0.000345	3.446679	1.167766	-0.000138
 558	5.5422e+01	17.8118	49.166258	0.000274	2.737069	0.927344	-0.000110
 559	5.5521e+01	17.7669	49.061292	0.000264	2.635696	0.892998	-0.000105
 560	5.5620e+01	17.7300	48.984586	0.000193	1.926085	0.652575	-0.000077
 561	5.5720e+01	17.6867	48.895769	0.000223	2.230204	0.755614	-0.000089
 562	5.5819e+01	17.6514	48.762544	0.000335	3.345306	1.133420	-0.000134
 563	5.5919e+01	17.6000	48.649504	0.000284	2.838442	0.961690	-0.000114
 564	5.6019e+01	17.5696	48.560687	0.000223	2.230204	0.755614	-0.000089
 565	5.6118e+01	17.5295	48.463796	0.000243	2.432950	0.824306	-0.000097
 566	5.6218e+01	17.4893	48.374979	0.000223	2.230204	0.755614	-0.000089
 567	5.6317e+01	17.4460	48.249828	0.000314	3.142560	1.064728	-0.000126
 568	5.6416e+01	17.4043	48.128714	0.000304	3.041187	1.030382	-0.000122
 569	5.6516e+01	17.3658	47.979340	0.000375	3.750798	1.270805	-0.000150
 570	5.6615e+01	17.3241	47.938968	0.000101	1.013729	0.343461	-0.000041
 571	5.6715e+01	17.2840	47.858226	0.000203	2.027458	0.686921	-0.000081
 572	5.6815e+01	17.2519	47.712889	0.000365	3.649425	1.236459	-0.000146
 573	5.6914e+01	17.2134	47.636183	0.000193	1.926085	0.652575	-0.000077
 574	5.7014e+01	17.1717	47.535255	0.000253	2.534323	0.858652	-0.000101
 575	5.7113e+01	17.1300	47.410104	0.000314	3.142560	1.064728	-0.000126
 576	5.7212e+01	17.0835	47.313212	0.000243	2.432950	0.824306	-0.000097
 577	5.7312e+01	17.0466	47.192098	0.000304	3.041187	1.030382	-0.000122
 578	5.7411e+01	17.0065	47.079058	0.000284	2.838442	0.961690	-0.000114
 579	5.7511e+01	16.9712	46.966019	0.000284	2.838442	0.961690	-0.000114
 580	5.7611e+01	16.9231	46.885276	0.000203	2.027458	0.686921	-0.000081
 581	5.7710e+01	16.8829	46.784348	0.000253	2.534323	0.858652	-0.000101
 582	5.7809e+01	16.8509	46.667271	0.000294	2.939815	0.996036	-0.000118
 583	5.7909e+01	16.8027	46.586528	0.000203	2.027458	0.686921	-0.000081
 584	5.8008e+01	16.7755	46.485599	0.000253	2.534323	0.858652	-0.000101
 585	5.8108e+01	16.7241	46.352374	0.000335	3.345306	1.133420	-0.000134
 586	5.8208e+01	16.6872	46.255483	0.000243	2.432950	0.824306	-0.000097
 587	5.8307e+01	16.6519	46.106109	0.000375	3.750798	1.270805	-0.000150
 588	5.8407e+01	16.6102	46.073812	0.000081	0.810983	0.274769	-0.000032
 589	5.8506e+01	16.5669	45.960772	0.000284	2.838442	0.961690	-0.000114
 590	5.8605e+01	16.5348	45.827546	0.000335	3.345306	1.133420	-0.000134
 591	5.8705e+01	16.4883	45.726618	0.000253	2.534323	0.858652	-0.000101
 592	5.8804e+01	16.4450	45.629727	0.000243	2.432950	0.824306	-0.000097
 593	5.8904e+01	16.4097	45.557058	0.000182	1.824712	0.618229	-0.000073
 594	5.9004e+01	16.3648	45.383461	0.000436	4.359035	1.476881	-0.000174
 595	5.9103e+01	16.3263	45.298682	0.000213	2.128831	0.721268	-0.000085
 596	5.9203e+01	16.2862	45.217939	0.000203	2.027458	0.686921	-0.000081
 597	5.9302e+01	16.2541	45.108936	0.000274	2.737069	0.927344	-0.000110
 598	5.9401e+01	16.2060	44.963599	0.000365	3.649425	1.236459	-0.000146
 599	5.9501e+01	16.1707	44.894968	0.000172	1.723340	0.583883	-0.000069
 600	5.9600e+01	16.1290	44.765780	0.000324	3.243933	1.099074	-0.000130
 601	5.9700e+01	16.0953	44.697148	0.000172	1.723340	0.583883	-0.000069
 602	5.9800e+01	16.0584	44.588146	0.000274	2.737069	0.927344	-0.000110
 603	5.9899e+01	16.0102	44.458957	0.000324	3.243933	1.099074	-0.000130
 604	5.9998e+01	15.9701	44.390326	0.000172	1.723340	0.583883	-0.000069
 605	6.0098e+01	15.9413	44.269212	0.000304	3.041187	1.030382	-0.000122
 606	6.0197e+01	15.8915	44.176358	0.000233	2.331577	0.789960	-0.000093
 607	6.0297e+01	15.8482	44.063318	0.000284	2.838442	0.961690	-0.000114
 608	6.0397e+01	15.8113	43.966427	0.000243	2.432950	0.824306	-0.000097
 609	6.0496e+01	15.7744	43.813016	0.000385	3.852171	1.305151	-0.000154
 610	6.0596e+01	15.7247	43.720161	0.000233	2.331577	0.789960	-0.000093
 611	6.0695e+01	15.6878	43.671716	0.000122	1.216475	0.412153	-0.000049
 612	6.0794e+01	15.6493	43.526379	0.000365	3.649425	1.236459	-0.000146
 613	6.0894e+01	15.6172	43.401228	0.000314	3.142560	1.064728	-0.000126
 614	6.0993e+01	15.5755	43.352782	0.000122	1.216475	0.412153	-0.000049
 615	6.1093e+01	15.5306	43.243779	0.000274	2.737069	0.927344	-0.000110
 616	6.1193e+01	15.4889	43.106517	0.000345	3.446679	1.167766	-0.000138
 617	6.1292e+01	15.4616	43.013663	0.000233	2.331577	0.789960	-0.000093
 618	6.1392e+01	15.4103	42.945031	0.000172	1.723340	0.583883	-0.000069
 619	6.1491e+01	15.3782	42.811806	0.000335	3.345306	1.133420	-0.000134
 620	6.1590e+01	15.3381	42.731063	0.000203	2.027458	0.686921	-0.000081
 621	6.1690e+01	15.2964	42.642246	0.000223	2.230204	0.755614	-0.000089
 622	6.1789e+01	15.2579	42.545355	0.000243	2.432950	0.824306	-0.000097
 623	6.1889e+01	15.2194	42.432315	0.000284	2.838442	0.961690	-0.000114
 624	6.1989e+01	15.1776	42.335424	0.000243	2.432950	0.824306	-0.000097
 625	6.2088e+01	15.1343	42.206236	0.000324	3.243933	1.099074	-0.000130
 626	6.2188e+01	15.0926	42.093196	0.000284	2.838442	0.961690	-0.000114
 627	6.2287e+01	15.0541	41.992267	0.000253	2.534323	0.858652	-0.000101
 628	6.2386e+01	15.0220	41.911525	0.000203	2.027458	0.686921	-0.000081
 629	6.2486e+01	14.9787	41.818671	0.000233	2.331577	0.789960	-0.000093
 630	6.2586e+01	14.9290	41.709668	0.000274	2.737069	0.927344	-0.000110
 631	6.2685e+01	14.8857	41.600665	0.000274	2.737069	0.927344	-0.000110
 632	6.2785e+01	14.8616	41.503774	0.000243	2.432950	0.824306	-0.000097
 633	6.2884e+01	14.8151	41.414957	0.000223	2.230204	0.755614	-0.000089
 634	6.2983e+01	14.7782	41.261546	0.000385	3.852171	1.305151	-0.000154
 635	6.3083e+01	14.7317	41.164655	0.000243	2.432950	0.824306	-0.000097
 636	6.3182e+01	14.6980	41.079875	0.000213	2.128831	0.721268	-0.000085
 637	6.3282e+01	14.6579	40.958761	0.000304	3.041187	1.030382	-0.000122
 638	6.3382e+01	14.6130	40.857832	0.000253	2.534323	0.858652	-0.000101
 639	6.3481e+01	14.5793	40.708458	0.000375	3.750798	1.270805	-0.000150
 640	6.3581e+01	14.5440	40.619641	0.000223	2.230204	0.755614	-0.000089
 641	6.3680e+01	14.5023	40.518713	0.000253	2.534323	0.858652	-0.000101
 642	6.3779e+01	14.4590	40.405673	0.000284	2.838442	0.961690	-0.000114
 643	6.3879e+01	14.4188	40.300708	0.000264	2.635696	0.892998	-0.000105
 644	6.3978e+01	14.3836	40.207853	0.000233	2.331577	0.789960	-0.000093
 645	6.4078e+01	14.3274	40.082702	0.000314	3.142560	1.064728	-0.000126
 646	6.4177e+01	14.2985	39.985811	0.000243	2.432950	0.824306	-0.000097
 647	6.4277e+01	14.2552	39.872771	0.000284	2.838442	0.961690	-0.000114
 648	6.4376e+01	14.2103	39.743583	0.000324	3.243933	1.099074	-0.000130
 649	6.4476e+01	14.1782	39.618432	0.000314	3.142560	1.064728	-0.000126
 650	6.4576e+01	14.1381	39.529615	0.000223	2.230204	0.755614	-0.000089
 651	6.4675e+01	14.1108	39.420612	0.000274	2.737069	0.927344	-0.000110
 652	6.4775e+01	14.0675	39.315646	0.000264	2.635696	0.892998	-0.000105
 653	6.4874e+01	14.0146	39.242978	0.000182	1.824712	0.618229	-0.000073
 654	6.4974e+01	13.9761	39.077455	0.000416	4.156290	1.408189	-0.000166
 655	6.5073e+01	13.9392	38.960378	0.000294	2.939815	0.996036	-0.000118
 656	6.5172e+01	13.8975	38.871561	0.000223	2.230204	0.755614	-0.000089
 657	6.5272e+01	13.8574	38.758522	0.000284	2.838442	0.961690	-0.000114
 658	6.5371e+01	13.8301	38.673742	0.000213	2.128831	0.721268	-0.000085
 659	6.5471e+01	13.7788	38.548591	0.000314	3.142560	1.064728	-0.000126
 660	6.5570e+01	13.7370	38.455736	0.000233	2.331577	0.789960	-0.000093
 661	6.5670e+01	13.7018	38.318474	0.000345	3.446679	1.167766	-0.000138
 662	6.5769e+01	13.6697	38.193323	0.000314	3.142560	1.064728	-0.000126
 663	6.5869e+01	13.6231	38.100469	0.000233	2.331577	0.789960	-0.000093
 664	6.5969e+01	13.5846	38.027800	0.000182	1.824712	0.618229	-0.000073
 665	6.6068e+01	13.5381	37.878426	0.000375	3.750798	1.270805	-0.000150
 666	6.6168e+01	13.5108	37.757312	0.000304	3.041187	1.030382	-0.000122
 667	6.6267e+01	13.4627	37.656384	0.000253	2.534323	0.858652	-0.000101
 668	6.6367e+01	13.4210	37.515084	0.000355	3.548052	1.202113	-0.000142
 669	6.6466e+01	13.3809	37.434341	0.000203	2.027458	0.686921	-0.000081
 670	6.6566e+01	13.3440	37.301116	0.000335	3.345306	1.133420	-0.000134
 671	6.6665e+01	13.3055	37.244596	0.000142	1.419221	0.480845	-0.000057
 672	6.6764e+01	13.2702	37.103296	0.000355	3.548052	1.202113	-0.000142
 673	6.6864e+01	13.2141	36.974108	0.000324	3.243933	1.099074	-0.000130
 674	6.6963e+01	13.1724	36.840882	0.000335	3.345306	1.133420	-0.000134
 675	6.7063e+01	13.1531	36.719768	0.000304	3.041187	1.030382	-0.000122
 676	6.7162e+01	13.1018	36.647100	0.000182	1.824712	0.618229	-0.000073
 677	6.7262e+01	13.0633	36.517911	0.000324	3.243933	1.099074	-0.000130
 678	6.7362e+01	13.0216	36.425057	0.000233	2.331577	0.789960	-0.000093
 679	6.7461e+01	12.9863	36.275683	0.000375	3.750798	1.270805	-0.000150
 680	6.7561e+01	12.9430	36.211089	0.000162	1.621967	0.549537	-0.000065
 681	6.7660e+01	12.8980	36.073826	0.000345	3.446679	1.167766	-0.000138
 682	6.7760e+01	12.8659	35.980972	0.000233	2.331577	0.789960	-0.000093
 683	6.7859e+01	12.8194	35.847747	0.000335	3.345306	1.133420	-0.000134
 684	6.7959e+01	12.7857	35.746818	0.000253	2.534323	0.858652	-0.000101
 685	6.8058e+01	12.7553	35.641853	0.000264	2.635696	0.892998	-0.000105
 686	6.8157e+01	12.7135	35.528813	0.000284	2.838442	0.961690	-0.000114
 687	6.8257e+01	12.6783	35.367328	0.000405	4.054917	1.373843	-0.000162
 688	6.8356e+01	12.6253	35.286585	0.000203	2.027458	0.686921	-0.000081
 689	6.8456e+01	12.5852	35.201805	0.000213	2.128831	0.721268	-0.000085
 690	6.8555e+01	12.5451	35.068580	0.000335	3.345306	1.133420	-0.000134
 691	6.8655e+01	12.5130	34.939391	0.000324	3.243933	1.099074	-0.000130
 692	6.8754e+01	12.4729	34.814240	0.000314	3.142560	1.064728	-0.000126
 693	6.8854e+01	12.4344	34.733497	0.000203	2.027458	0.686921	-0.000081
 694	6.8954e+01	12.3895	34.620458	0.000284	2.838442	0.961690	-0.000114
 695	6.9053e+01	12.3478	34.475121	0.000365	3.649425	1.236459	-0.000146
 696	6.9153e+01	12.3093	34.341895	0.000335	3.345306	1.133420	-0.000134
 697	6.9252e+01	12.2756	34.236930	0.000264	2.635696	0.892998	-0.000105
 698	6.9352e+01	12.2259	34.140038	0.000243	2.432950	0.824306	-0.000097
 699	6.9451e+01	12.1825	34.014887	0.000314	3.142560	1.064728	-0.000126
 700	6.9550e+01	12.1456	33.922033	0.000233	2.331577	0.789960	-0.000093
 701	6.9650e+01	12.1152	33.740362	0.000456	4.561781	1.545573	-0.000183
 702	6.9749e+01	12.0767	33.651545	0.000223	2.230204	0.755614	-0.000089
 703	6.9849e+01	12.0317	33.574839	0.000193	1.926085	0.652575	-0.000077
 704	6.9948e+01	11.9916	33.377020	0.000497	4.967273	1.682958	-0.000199
 705	7.0048e+01	11.9563	33.312426	0.000162	1.621967	0.549537	-0.000065
 706	7.0147e+01	11.9146	33.195349	0.000294	2.939815	0.996036	-0.000118
 707	7.0247e+01	11.8649	33.066160	0.000324	3.243933	1.099074	-0.000130
 708	7.0347e+01	11.8264	32.924861	0.000355	3.548052	1.202113	-0.000142
 709	7.0446e+01	11.7847	32.848155	0.000193	1.926085	0.652575	-0.000077
 710	7.0546e+01	11.7478	32.710892	0.000345	3.446679	1.167766	-0.000138
 711	7.0645e+01	11.7125	32.601890	0.000274	2.737069	0.927344	-0.000110
 712	7.0745e+01	11.6660	32.472701	0.000324	3.243933	1.099074	-0.000130
 713	7.0844e+01	11.6291	32.339476	0.000335	3.345306	1.133420	-0.000134
 714	7.0944e+01	11.5938	32.246622	0.000233	2.331577	0.789960	-0.000093
 715	7.1043e+01	11.5553	32.165879	0.000203	2.027458	0.686921	-0.000081
 716	7.1142e+01	11.5152	32.004394	0.000405	4.054917	1.373843	-0.000162
 717	7.1242e+01	11.4751	31.879242	0.000314	3.142560	1.064728	-0.000126
 718	7.1341e+01	11.4318	31.814648	0.000162	1.621967	0.549537	-0.000065
 719	7.1441e+01	11.3917	31.632977	0.000456	4.561781	1.545573	-0.000183
 720	7.1540e+01	11.3467	31.564346	0.000172	1.723340	0.583883	-0.000069
 721	7.1640e+01	11.3163	31.447269	0.000294	2.939815	0.996036	-0.000118
 722	7.1740e+01	11.2713	31.350378	0.000243	2.432950	0.824306	-0.000097
 723	7.1839e+01	11.2264	31.205041	0.000365	3.649425	1.236459	-0.000146
 724	7.1939e+01	11.1975	31.116224	0.000223	2.230204	0.755614	-0.000089
 725	7.2038e+01	11.1510	30.974924	0.000355	3.548052	1.202113	-0.000142
 726	7.2138e+01	11.1109	30.853810	0.000304	3.041187	1.030382	-0.000122
 727	7.2237e+01	11.0788	30.756919	0.000243	2.432950	0.824306	-0.000097
 728	7.2337e+01	11.0355	30.672139	0.000213	2.128831	0.721268	-0.000085
 729	7.2436e+01	10.9874	30.534876	0.000345	3.446679	1.167766	-0.000138
 730	7.2535e+01	10.9553	30.413762	0.000304	3.041187	1.030382	-0.000122
 731	7.2635e+01	10.9120	30.272462	0.000355	3.548052	1.202113	-0.000142
 732	7.2734e+01	10.8799	30.187682	0.000213	2.128831	0.721268	-0.000085
 733	7.2834e+01	10.8334	30.094828	0.000233	2.331577	0.789960	-0.000093
 734	7.2933e+01	10.7981	29.953529	0.000355	3.548052	1.202113	-0.000142
 735	7.3033e+01	10.7468	29.852600	0.000253	2.534323	0.858652	-0.000101
 736	7.3132e+01	10.7147	29.739560	0.000284	2.838442	0.961690	-0.000114
 737	7.3232e+01	10.6794	29.598261	0.000355	3.548052	1.202113	-0.000142
 738	7.3332e+01	10.6393	29.553852	0.000112	1.115102	0.377807	-0.000045
 739	7.3431e+01	10.6008	29.400441	0.000385	3.852171	1.305151	-0.000154
 740	7.3531e+01	10.5591	29.303550	0.000243	2.432950	0.824306	-0.000097
 741	7.3630e+01	10.5174	29.174361	0.000324	3.243933	1.099074	-0.000130
 742	7.3730e+01	10.4692	29.053247	0.000304	3.041187	1.030382	-0.000122
 743	7.3829e+01	10.4436	28.972505	0.000203	2.027458	0.686921	-0.000081
 744	7.3928e+01	10.4083	28.835242	0.000345	3.446679	1.167766	-0.000138
 745	7.4028e+01	10.3569	28.714128	0.000304	3.041187	1.030382	-0.000122
 746	7.4127e+01	10.3136	28.605125	0.000274	2.737069	0.927344	-0.000110
 747	7.4227e+01	10.2719	28.496123	0.000274	2.737069	0.927344	-0.000110
 748	7.4326e+01	10.2414	28.354823	0.000355	3.548052	1.202113	-0.000142
 749	7.4426e+01	10.1949	28.253894	0.000253	2.534323	0.858652	-0.000101
 750	7.4525e+01	10.1596	28.148929	0.000264	2.635696	0.892998	-0.000105
 751	7.4625e+01	10.1131	28.080298	0.000172	1.723340	0.583883	-0.000069
 752	7.4725e+01	10.0730	27.930924	0.000375	3.750798	1.270805	-0.000150
 753	7.4824e+01	10.0361	27.821921	0.000274	2.737069	0.927344	-0.000110
 754	7.4924e+01	9.9976	27.692733	0.000324	3.243933	1.099074	-0.000130
 755	7.5023e+01	9.9559	27.587767	0.000264	2.635696	0.892998	-0.000105
 756	7.5123e+01	9.9126	27.462616	0.000314	3.142560	1.064728	-0.000126
 757	7.5222e+01	9.8821	27.361687	0.000253	2.534323	0.858652	-0.000101
 758	7.5322e+01	9.8372	27.220388	0.000355	3.548052	1.202113	-0.000142
 759	7.5421e+01	9.8003	27.151756	0.000172	1.723340	0.583883	-0.000069
 760	7.5520e+01	9.7618	27.010457	0.000355	3.548052	1.202113	-0.000142
 761	7.5620e+01	9.7168	26.925677	0.000213	2.128831	0.721268	-0.000085
 762	7.5719e+01	9.6815	26.804563	0.000304	3.041187	1.030382	-0.000122
 763	7.5819e+01	9.6414	26.691523	0.000284	2.838442	0.961690	-0.000114
 764	7.5918e+01	9.5949	26.550223	0.000355	3.548052	1.202113	-0.000142
 765	7.6018e+01	9.5660	26.465443	0.000213	2.128831	0.721268	-0.000085
 766	7.6118e+01	9.5179	26.376626	0.000223	2.230204	0.755614	-0.000089
 767	7.6217e+01	9.4794	26.239364	0.000345	3.446679	1.167766	-0.000138
 768	7.6317e+01	9.4537	26.150547	0.000223	2.230204	0.755614	-0.000089
 769	7.6416e+01	9.4008	26.013284	0.000345	3.446679	1.167766	-0.000138
 770	7.6516e+01	9.3703	25.936579	0.000193	1.926085	0.652575	-0.000077
 771	7.6615e+01	9.3222	25.771056	0.000416	4.156290	1.408189	-0.000166
 772	7.6715e+01	9.2805	25.662053	0.000274	2.737069	0.927344	-0.000110
 773	7.6814e+01	9.2500	25.553051	0.000274	2.737069	0.927344	-0.000110
 774	7.6913e+01	9.2131	25.456159	0.000243	2.432950	0.824306	-0.000097
 775	7.7013e+01	9.1538	25.302748	0.000385	3.852171	1.305151	-0.000154
 776	7.7112e+01	9.1169	25.246228	0.000142	1.419221	0.480845	-0.000057
 777	7.7212e+01	9.0816	25.080706	0.000416	4.156290	1.408189	-0.000166
 778	7.7311e+01	9.0431	24.967666	0.000284	2.838442	0.961690	-0.000114
 779	7.7411e+01	9.0094	24.862700	0.000264	2.635696	0.892998	-0.000105
 780	7.7510e+01	8.9661	24.769846	0.000233	2.331577	0.789960	-0.000093
 781	7.7610e+01	8.9243	24.652769	0.000294	2.939815	0.996036	-0.000118
 782	7.7710e+01	8.8778	24.559915	0.000233	2.331577	0.789960	-0.000093
 783	7.7809e+01	8.8409	24.442838	0.000294	2.939815	0.996036	-0.000118
 784	7.7909e+01	8.7912	24.305576	0.000345	3.446679	1.167766	-0.000138
 785	7.8008e+01	8.7479	24.208684	0.000243	2.432950	0.824306	-0.000097
 786	7.8108e+01	8.7174	24.103719	0.000264	2.635696	0.892998	-0.000105
 787	7.8207e+01	8.6741	24.010865	0.000233	2.331577	0.789960	-0.000093
 788	7.8306e+01	8.6388	23.897825	0.000284	2.838442	0.961690	-0.000114
 789	7.8406e+01	8.6051	23.764600	0.000335	3.345306	1.133420	-0.000134
 790	7.8505e+01	8.5602	23.691931	0.000182	1.824712	0.618229	-0.000073
 791	7.8605e+01	8.5281	23.538520	0.000385	3.852171	1.305151	-0.000154
 792	7.8704e+01	8.4784	23.449703	0.000223	2.230204	0.755614	-0.000089
 793	7.8804e+01	8.4367	23.352812	0.000243	2.432950	0.824306	-0.000097
 794	7.8903e+01	8.3998	23.223623	0.000324	3.243933	1.099074	-0.000130
 795	7.9003e+01	8.3645	23.090398	0.000335	3.345306	1.133420	-0.000134
 796	7.9103e+01	8.3244	23.001581	0.000223	2.230204	0.755614	-0.000089
 797	7.9202e+01	8.2923	22.908727	0.000233	2.331577	0.789960	-0.000093
 798	7.9302e+01	8.2458	22.795687	0.000284	2.838442	0.961690	-0.000114
 799	7.9401e+01	8.2105	22.674573	0.000304	3.041187	1.030382	-0.000122
 800	7.9501e+01	8.1591	22.553459	0.000304	3.041187	1.030382	-0.000122
 801	7.9600e+01	8.1286	22.452530	0.000253	2.534323	0.858652	-0.000101
 802	7.9700e+01	8.0837	22.311231	0.000355	3.548052	1.202113	-0.000142
 803	7.9799e+01	8.0420	22.210302	0.000253	2.534323	0.858652	-0.000101
 804	7.9898e+01	8.0067	22.085151	0.000314	3.142560	1.064728	-0.000126
 805	7.9998e+01	7.9586	21.960000	0.000314	3.142560	1.064728	-0.000126
 806	8.0097e+01	7.9313	21.850997	0.000274	2.737069	0.927344	-0.000110
 807	8.0197e+01	7.8880	21.758143	0.000233	2.331577	0.789960	-0.000093
 808	8.0296e+01	7.8415	21.616843	0.000355	3.548052	1.202113	-0.000142
 809	8.0396e+01	7.8142	21.495729	0.000304	3.041187	1.030382	-0.000122
 810	8.0496e+01	7.7725	21.378652	0.000294	2.939815	0.996036	-0.000118
 811	8.0595e+01	7.7196	21.273687	0.000264	2.635696	0.892998	-0.000105
 812	8.0695e+01	7.6827	21.136424	0.000345	3.446679	1.167766	-0.000138
 813	8.0794e+01	7.6426	21.047607	0.000223	2.230204	0.755614	-0.000089
 814	8.0894e+01	7.6137	20.894196	0.000385	3.852171	1.305151	-0.000154
 815	8.0993e+01	7.5640	20.777119	0.000294	2.939815	0.996036	-0.000118
 816	8.1093e+01	7.5271	20.696376	0.000203	2.027458	0.686921	-0.000081
 817	8.1192e+01	7.4918	20.595448	0.000253	2.534323	0.858652	-0.000101
 818	8.1291e+01	7.4485	20.466260	0.000324	3.243933	1.099074	-0.000130
 819	8.1391e+01	7.4083	20.345146	0.000304	3.041187	1.030382	-0.000122
 820	8.1490e+01	7.3586	20.175586	0.000426	4.257662	1.442535	-0.000170
 821	8.1590e+01	7.3346	20.066583	0.000274	2.737069	0.927344	-0.000110
 822	8.1689e+01	7.2928	19.973729	0.000233	2.331577	0.789960	-0.000093
 823	8.1789e+01	7.2479	19.876838	0.000243	2.432950	0.824306	-0.000097
 824	8.1888e+01	7.2110	19.723427	0.000385	3.852171	1.305151	-0.000154
 825	8.1988e+01	7.1645	19.646721	0.000193	1.926085	0.652575	-0.000077
 826	8.2088e+01	7.1372	19.513496	0.000335	3.345306	1.133420	-0.000134
 827	8.2187e+01	7.0843	19.372196	0.000355	3.548052	1.202113	-0.000142
 828	8.2287e+01	7.0474	19.243007	0.000324	3.243933	1.099074	-0.000130
 829	8.2386e+01	7.0073	19.097671	0.000365	3.649425	1.236459	-0.000146
 830	8.2486e+01	6.9656	19.025002	0.000182	1.824712	0.618229	-0.000073
 831	8.2585e+01	6.9351	18.928111	0.000243	2.432950	0.824306	-0.000097
 832	8.2684e+01	6.8822	18.790848	0.000345	3.446679	1.167766	-0.000138
 833	8.2784e+01	6.8421	18.669734	0.000304	3.041187	1.030382	-0.000122
 834	8.2883e+01	6.8100	18.568806	0.000253	2.534323	0.858652	-0.000101
 835	8.2983e+01	6.7570	18.435580	0.000335	3.345306	1.133420	-0.000134
 836	8.3082e+01	6.7249	18.310429	0.000314	3.142560	1.064728	-0.000126
 837	8.3182e+01	6.6848	18.221612	0.000223	2.230204	0.755614	-0.000089
 838	8.3281e+01	6.6495	18.072238	0.000375	3.750798	1.270805	-0.000150
 839	8.3381e+01	6.6175	17.959198	0.000284	2.838442	0.961690	-0.000114
 840	8.3481e+01	6.5709	17.870381	0.000223	2.230204	0.755614	-0.000089
 841	8.3580e+01	6.5260	17.725044	0.000365	3.649425	1.236459	-0.000146
 842	8.3680e+01	6.4923	17.591819	0.000335	3.345306	1.133420	-0.000134
 843	8.3779e+01	6.4635	17.466668	0.000314	3.142560	1.064728	-0.000126
 844	8.3879e+01	6.4105	17.389962	0.000193	1.926085	0.652575	-0.000077
 845	8.3978e+01	6.3688	17.264811	0.000314	3.142560	1.064728	-0.000126
 846	8.4078e+01	6.3351	17.115437	0.000375	3.750798	1.270805	-0.000150
 847	8.4177e+01	6.2998	17.010471	0.000264	2.635696	0.892998	-0.000105
 848	8.4276e+01	6.2581	16.869172	0.000355	3.548052	1.202113	-0.000142
 849	8.4376e+01	6.2084	16.776318	0.000233	2.331577	0.789960	-0.000093
 850	8.4475e+01	6.1715	16.635018	0.000355	3.548052	1.202113	-0.000142
 851	8.4575e+01	6.1410	16.505829	0.000324	3.243933	1.099074	-0.000130
 852	8.4674e+01	6.0897	16.437198	0.000172	1.723340	0.583883	-0.000069
 853	8.4774e+01	6.0576	16.291861	0.000365	3.649425	1.236459	-0.000146
 854	8.4874e+01	6.0207	16.182859	0.000274	2.737069	0.927344	-0.000110
 855	8.4973e+01	5.9806	16.081930	0.000253	2.534323	0.858652	-0.000101
 856	8.5073e+01	5.9341	15.916408	0.000416	4.156290	1.408189	-0.000166
 857	8.5172e+01	5.8956	15.791256	0.000314	3.142560	1.064728	-0.000126
 858	8.5272e+01	5.8619	15.678217	0.000284	2.838442	0.961690	-0.000114
 859	8.5371e+01	5.8153	15.544991	0.000335	3.345306	1.133420	-0.000134
 860	8.5471e+01	5.7784	15.440026	0.000264	2.635696	0.892998	-0.000105
 861	8.5570e+01	5.7383	15.314874	0.000314	3.142560	1.064728	-0.000126
 862	8.5669e+01	5.7030	15.181649	0.000335	3.345306	1.133420	-0.000134
 863	8.5769e+01	5.6613	15.088795	0.000233	2.331577	0.789960	-0.000093
 864	8.5868e+01	5.6068	14.919235	0.000426	4.257662	1.442535	-0.000170
 865	8.5968e+01	5.5763	14.806195	0.000284	2.838442	0.961690	-0.000114
 866	8.6067e+01	5.5378	14.709304	0.000243	2.432950	0.824306	-0.000097
 867	8.6167e+01	5.4945	14.600301	0.000274	2.737069	0.927344	-0.000110
 868	8.6266e+01	5.4544	14.434779	0.000416	4.156290	1.408189	-0.000166
 869	8.6366e+01	5.4159	14.333850	0.000253	2.534323	0.858652	-0.000101
 870	8.6466e+01	5.3790	14.204662	0.000324	3.243933	1.099074	-0.000130
 871	8.6565e+01	5.3244	14.099697	0.000264	2.635696	0.892998	-0.000105
 872	8.6665e+01	5.3020	13.990694	0.000274	2.737069	0.927344	-0.000110
 873	8.6764e+01	5.2523	13.796911	0.000487	4.865900	1.648612	-0.000195
 874	8.6864e+01	5.2186	13.708094	0.000223	2.230204	0.755614	-0.000089
 875	8.6963e+01	5.1672	13.570832	0.000345	3.446679	1.167766	-0.000138
 876	8.7063e+01	5.1400	13.441643	0.000324	3.243933	1.099074	-0.000130
 877	8.7162e+01	5.0870	13.360901	0.000203	2.027458	0.686921	-0.000081
 878	8.7261e+01	5.0501	13.215564	0.000365	3.649425	1.236459	-0.000146
 879	8.7361e+01	5.0229	13.078301	0.000345	3.446679	1.167766	-0.000138
 880	8.7460e+01	4.9699	12.985447	0.000233	2.331577	0.789960	-0.000093
 881	8.7560e+01	4.9266	12.836073	0.000375	3.750798	1.270805	-0.000150
 882	8.7659e+01	4.9073	12.702848	0.000335	3.345306	1.133420	-0.000134
 883	8.7759e+01	4.8705	12.609993	0.000233	2.331577	0.789960	-0.000093
 884	8.7859e+01	4.8255	12.484842	0.000314	3.142560	1.064728	-0.000126
 885	8.7958e+01	4.7806	12.339505	0.000365	3.649425	1.236459	-0.000146
 886	8.8058e+01	4.7357	12.250688	0.000223	2.230204	0.755614	-0.000089
 887	8.8157e+01	4.6908	12.085166	0.000416	4.156290	1.408189	-0.000166
 888	8.8257e+01	4.6555	11.972126	0.000284	2.838442	0.961690	-0.000114
 889	8.8356e+01	4.6106	11.855049	0.000294	2.939815	0.996036	-0.000118
 890	8.8456e+01	4.5753	11.742009	0.000284	2.838442	0.961690	-0.000114
 891	8.8555e+01	4.5432	11.653192	0.000223	2.230204	0.755614	-0.000089
 892	8.8654e+01	4.5063	11.532078	0.000304	3.041187	1.030382	-0.000122
 893	8.8754e+01	4.4598	11.419038	0.000284	2.838442	0.961690	-0.000114
 894	8.8853e+01	4.4293	11.257553	0.000405	4.054917	1.373843	-0.000162
 895	8.8953e+01	4.3796	11.148550	0.000274	2.737069	0.927344	-0.000110
 896	8.9052e+01	4.3491	11.047622	0.000253	2.534323	0.858652	-0.000101
 897	8.9152e+01	4.2945	10.918434	0.000324	3.243933	1.099074	-0.000130
 898	8.9251e+01	4.2657	10.797320	0.000304	3.041187	1.030382	-0.000122
 899	8.9351e+01	4.2288	10.676205	0.000304	3.041187	1.030382	-0.000122
 900	8.9451e+01	4.1999	10.571240	0.000264	2.635696	0.892998	-0.000105
 901	8.9550e+01	4.1405	10.433977	0.000345	3.446679	1.167766	-0.000138
 902	8.9650e+01	4.1036	10.320938	0.000284	2.838442	0.961690	-0.000114
 903	8.9749e+01	4.0571	10.187712	0.000335	3.345306	1.133420	-0.000134
 904	8.9849e+01	4.0282	10.094858	0.000233	2.331577	0.789960	-0.000093
 905	8.9948e+01	3.9817	9.977781	0.000294	2.939815	0.996036	-0.000118
 906	9.0047e+01	3.9512	9.832444	0.000365	3.649425	1.236459	-0.000146
 907	9.0147e+01	3.9031	9.719404	0.000284	2.838442	0.961690	-0.000114
 908	9.0246e+01	3.8598	9.574067	0.000365	3.649425	1.236459	-0.000146
 909	9.0346e+01	3.8165	9.477176	0.000243	2.432950	0.824306	-0.000097
 910	9.0445e+01	3.7812	9.356062	0.000304	3.041187	1.030382	-0.000122
 911	9.0545e+01	3.7411	9.230911	0.000314	3.142560	1.064728	-0.000126
 912	9.0644e+01	3.7042	9.138057	0.000233	2.331577	0.789960	-0.000093
 913	9.0744e+01	3.6577	9.025017	0.000284	2.838442	0.961690	-0.000114
 914	9.0844e+01	3.6224	8.875643	0.000375	3.750798	1.270805	-0.000150
 915	9.0943e+01	3.5871	8.750492	0.000314	3.142560	1.064728	-0.000126
 916	9.1043e+01	3.5518	8.653600	0.000243	2.432950	0.824306	-0.000097
 917	9.1142e+01	3.5004	8.508264	0.000365	3.649425	1.236459	-0.000146
 918	9.1242e+01	3.4684	8.439632	0.000172	1.723340	0.583883	-0.000069
 919	9.1341e+01	3.4331	8.330630	0.000274	2.737069	0.927344	-0.000110
 920	9.1441e+01	3.3897	8.169144	0.000405	4.054917	1.373843	-0.000162
 921	9.1540e+01	3.3352	8.076290	0.000233	2.331577	0.789960	-0.000093
 922	9.1639e+01	3.2999	7.894619	0.000456	4.561781	1.545573	-0.000183
 923	9.1739e+01	3.2614	7.846173	0.000122	1.216475	0.412153	-0.000049
 924	9.1838e+01	3.2277	7.708911	0.000345	3.446679	1.167766	-0.000138
 925	9.1938e+01	3.1956	7.636242	0.000182	1.824712	0.618229	-0.000073
 926	9.2037e+01	3.1459	7.494942	0.000355	3.548052	1.202113	-0.000142
 927	9.2137e+01	3.0994	7.398051	0.000243	2.432950	0.824306	-0.000097
 928	9.2237e+01	3.0657	7.228492	0.000426	4.257662	1.442535	-0.000170
 929	9.2336e+01	3.0288	7.107377	0.000304	3.041187	1.030382	-0.000122
 930	9.2436e+01	2.9839	7.042783	0.000162	1.621967	0.549537	-0.000065
 931	9.2535e+01	2.9438	6.869186	0.000436	4.359035	1.476881	-0.000174
 932	9.2635e+01	2.9101	6.752110	0.000294	2.939815	0.996036	-0.000118
 933	9.2734e+01	2.8684	6.655218	0.000243	2.432950	0.824306	-0.000097
 934	9.2834e+01	2.8331	6.550253	0.000264	2.635696	0.892998	-0.000105
 935	9.2933e+01	2.7849	6.388767	0.000405	4.054917	1.373843	-0.000162
 936	9.3032e+01	2.7464	6.328210	0.000152	1.520594	0.515191	-0.000061
 937	9.3132e+01	2.7176	6.146539	0.000456	4.561781	1.545573	-0.000183
 938	9.3231e+01	2.6662	6.037536	0.000274	2.737069	0.927344	-0.000110
 939	9.3331e+01	2.6342	5.940645	0.000243	2.432950	0.824306	-0.000097
 940	9.3430e+01	2.5860	5.839717	0.000253	2.534323	0.858652	-0.000101
 941	9.3530e+01	2.5459	5.694380	0.000365	3.649425	1.236459	-0.000146
 942	9.3629e+01	2.5122	5.589414	0.000264	2.635696	0.892998	-0.000105
 943	9.3729e+01	2.4593	5.460226	0.000324	3.243933	1.099074	-0.000130
 944	9.3829e+01	2.4352	5.375446	0.000213	2.128831	0.721268	-0.000085
 945	9.3928e+01	2.3887	5.242221	0.000335	3.345306	1.133420	-0.000134
 946	9.4028e+01	2.3502	5.165515	0.000193	1.926085	0.652575	-0.000077
 947	9.4127e+01	2.3069	4.991918	0.000436	4.359035	1.476881	-0.000174
 948	9.4227e+01	2.2780	4.915213	0.000193	1.926085	0.652575	-0.000077
 949	9.4326e+01	2.2299	4.761802	0.000385	3.852171	1.305151	-0.000154
 950	9.4425e+01	2.1898	4.668947	0.000233	2.331577	0.789960	-0.000093
 951	9.4525e+01	2.1384	4.568019	0.000253	2.534323	0.858652	-0.000101
 952	9.4624e+01	2.1112	4.418645	0.000375	3.750798	1.270805	-0.000150
 953	9.4724e+01	2.0630	4.301568	0.000294	2.939815	0.996036	-0.000118
 954	9.4823e+01	2.0261	4.245048	0.000142	1.419221	0.480845	-0.000057
 955	9.4923e+01	1.9828	4.075489	0.000426	4.257662	1.442535	-0.000170
 956	9.5022e+01	1.9556	3.986672	0.000223	2.230204	0.755614	-0.000089
 957	9.5122e+01	1.9122	3.861520	0.000314	3.142560	1.064728	-0.000126
 958	9.5222e+01	1.8705	3.748481	0.000284	2.838442	0.961690	-0.000114
 959	9.5321e+01	1.8208	3.619292	0.000324	3.243933	1.099074	-0.000130
 960	9.5421e+01	1.7935	3.518364	0.000253	2.534323	0.858652	-0.000101
 961	9.5520e+01	1.7406	3.413398	0.000264	2.635696	0.892998	-0.000105
 962	9.5620e+01	1.7101	3.292284	0.000304	3.041187	1.030382	-0.000122
 963	9.5719e+01	1.6780	3.150984	0.000355	3.548052	1.202113	-0.000142
 964	9.5819e+01	1.6235	3.102539	0.000122	1.216475	0.412153	-0.000049
 965	9.5918e+01	1.5834	2.949128	0.000385	3.852171	1.305151	-0.000154
 966	9.6017e+01	1.5385	2.876459	0.000182	1.824712	0.618229	-0.000073
 967	9.6117e+01	1.5080	2.706900	0.000426	4.257662	1.442535	-0.000170
 968	9.6216e+01	1.4759	2.601934	0.000264	2.635696	0.892998	-0.000105
 969	9.6316e+01	1.4294	2.456597	0.000365	3.649425	1.236459	-0.000146
 970	9.6415e+01	1.3909	2.335483	0.000304	3.041187	1.030382	-0.000122
 971	9.6515e+01	1.3508	2.234555	0.000253	2.534323	0.858652	-0.000101
 972	9.6615e+01	1.3123	2.161886	0.000182	1.824712	0.618229	-0.000073
 973	9.6714e+01	1.2786	2.016549	0.000365	3.649425	1.236459	-0.000146
 974	9.6814e+01	1.2288	1.859101	0.000395	3.953544	1.339497	-0.000158
 975	9.6913e+01	1.1871	1.750098	0.000274	2.737069	0.927344	-0.000110
 976	9.7013e+01	1.1615	1.669356	0.000203	2.027458	0.686921	-0.000081
 977	9.7112e+01	1.1117	1.524019	0.000365	3.649425	1.236459	-0.000146
 978	9.7212e+01	1.0636	1.382719	0.000355	3.548052	1.202113	-0.000142
 979	9.7311e+01	1.0299	1.297939	0.000213	2.128831	0.721268	-0.000085
 980	9.7410e+01	1.0075	1.197011	0.000253	2.534323	0.858652	-0.000101
 981	9.7510e+01	0.9513	1.047637	0.000375	3.750798	1.270805	-0.000150
 982	9.7609e+01	0.9208	0.882114	0.000416	4.156290	1.408189	-0.000166
 983	9.7709e+01	0.8775	0.837706	0.000112	1.115102	0.377807	-0.000045
 984	9.7808e+01	0.8294	0.692369	0.000365	3.649425	1.236459	-0.000146
 985	9.7908e+01	0.7893	0.555106	0.000345	3.446679	1.167766	-0.000138
 986	9.8007e+01	0.7460	0.486475	0.000172	1.723340	0.583883	-0.000069
 987	9.8107e+01	0.7123	0.320952	0.000416	4.156290	1.408189	-0.000166
 988	9.8207e+01	0.6802	0.207912	0.000284	2.838442	0.961690	-0.000114
 989	9.8306e+01	0.6321	0.086798	0.000304	3.041187	1.030382	-0.000122
 990	9.8406e+01	0.6032	-0.038353	0.000314	3.142560	1.064728	-0.000126
 991	9.8505e+01	0.5470	-0.159467	0.000304	3.041187	1.030382	-0.000122
 992	9.8605e+01	0.5214	-0.304804	0.000365	3.649425	1.236459	-0.000146
 993	9.8704e+01	0.4668	-0.405732	0.000253	2.534323	0.858652	-0.000101
 994	9.8803e+01	0.4331	-0.534920	0.000324	3.243933	1.099074	-0.000130
 995	9.8903e+01	0.3914	-0.635849	0.000253	2.534323	0.858652	-0.000101
 996	9.9002e+01	0.3529	-0.744852	0.000274	2.737069	0.927344	-0.000110
 997	9.9102e+01	0.3144	-0.865966	0.000304	3.041187	1.030382	-0.000122
 998	9.9201e+01	0.2807	-1.031488	0.000416	4.156290	1.408189	-0.000166
 999	9.9301e+01	0.2326	-1.120305	0.000223	2.230204	0.755614	-0.000089
1000	9.9400e+01	0.1957	-1.257568	0.000345	3.446679	1.167766	-0.000138
1001	9.9500e+01	0.1588	-1.382719	0.000314	3.142560	1.064728	-0.000126
1002	9.9600e+01	0.1075	-1.487685	0.000264	2.635696	0.892998	-0.000105
1003	9.9699e+01	0.0866	-1.592650	0.000264	2.635696	0.892998	-0.000105
1004	9.9799e+01	0.0369	-1.721838	0.000324	3.243933	1.099074	-0.000130
1005	9.9898e+01	0.0112	-1.810655	0.000223	2.230204	0.755614	-0.000089
1006	9.9998e+01	-0.0417	-1.951955	0.000355	3.548052	1.202113	-0.000142
1007	1.0010e+02	-0.0786	-2.052884	0.000253	2.534323	0.858652	-0.000101
1008	1.0020e+02	-0.1219	-2.137663	0.000213	2.128831	0.721268	-0.000085
1009	1.0030e+02	-0.1588	-2.335483	0.000497	4.967273	1.682958	-0.000199
1010	1.0040e+02	-0.1909	-2.428337	0.000233	2.331577	0.789960	-0.000093
1011	1.0050e+02	-0.2342	-2.545414	0.000294	2.939815	0.996036	-0.000118
1012	1.0059e+02	-0.2711	-2.650380	0.000264	2.635696	0.892998	-0.000105
1013	1.0069e+02	-0.3144	-2.803791	0.000385	3.852171	1.305151	-0.000154
1014	1.0079e+02	-0.3529	-2.904719	0.000253	2.534323	0.858652	-0.000101
1015	1.0089e+02	-0.3930	-3.054093	0.000375	3.750798	1.270805	-0.000150
1016	1.0099e+02	-0.4347	-3.110613	0.000142	1.419221	0.480845	-0.000057
1017	1.0109e+02	-0.4781	-3.251913	0.000355	3.548052	1.202113	-0.000142
1018	1.0119e+02	-0.5101	-3.381101	0.000324	3.243933	1.099074	-0.000130
1019	1.0129e+02	-0.5470	-3.514327	0.000335	3.345306	1.133420	-0.000134
1020	1.0139e+02	-0.5839	-3.639478	0.000314	3.142560	1.064728	-0.000126
1021	1.0149e+02	-0.6273	-3.740406	0.000253	2.534323	0.858652	-0.000101
1022	1.0159e+02	-0.6690	-3.865557	0.000314	3.142560	1.064728	-0.000126
1023	1.0169e+02	-0.7075	-3.986672	0.000304	3.041187	1.030382	-0.000122
1024	1.0179e+02	-0.7588	-4.103748	0.000294	2.939815	0.996036	-0.000118
1025	1.0189e+02	-0.7941	-4.204677	0.000253	2.534323	0.858652	-0.000101
1026	1.0199e+02	-0.8326	-4.358088	0.000385	3.852171	1.305151	-0.000154
1027	1.0209e+02	-0.8711	-4.467091	0.000274	2.737069	0.927344	-0.000110
1028	1.0219e+02	-0.9144	-4.596279	0.000324	3.243933	1.099074	-0.000130
1029	1.0229e+02	-0.9497	-4.733542	0.000345	3.446679	1.167766	-0.000138
1030	1.0239e+02	-0.9930	-4.818322	0.000213	2.128831	0.721268	-0.000085
1031	1.0248e+02	-1.0379	-4.955584	0.000345	3.446679	1.167766	-0.000138
1032	1.0258e+02	-1.0684	-5.036327	0.000203	2.027458	0.686921	-0.000081
1033	1.0268e+02	-1.1117	-5.205887	0.000426	4.257662	1.442535	-0.000170
1034	1.0278e+02	-1.1502	-5.335075	0.000324	3.243933	1.099074	-0.000130
1035	1.0288e+02	-1.1919	-5.448115	0.000284	2.838442	0.961690	-0.000114
1036	1.0298e+02	-1.2288	-5.581340	0.000335	3.345306	1.133420	-0.000134
1037	1.0308e+02	-1.2738	-5.686306	0.000264	2.635696	0.892998	-0.000105
1038	1.0318e+02	-1.3058	-5.835680	0.000375	3.750798	1.270805	-0.000150
1039	1.0328e+02	-1.3508	-5.968905	0.000335	3.345306	1.133420	-0.000134
1040	1.0338e+02	-1.3925	-6.102131	0.000335	3.345306	1.133420	-0.000134
1041	1.0348e+02	-1.4246	-6.219208	0.000294	2.939815	0.996036	-0.000118
1042	1.0358e+02	-1.4695	-6.324173	0.000264	2.635696	0.892998	-0.000105
1043	1.0368e+02	-1.5048	-6.449324	0.000314	3.142560	1.064728	-0.000126
1044	1.0378e+02	-1.5481	-6.562364	0.000284	2.838442	0.961690	-0.000114
1045	1.0388e+02	-1.5866	-6.675404	0.000284	2.838442	0.961690	-0.000114
1046	1.0398e+02	-1.6235	-6.780369	0.000264	2.635696	0.892998	-0.000105
1047	1.0408e+02	-1.6716	-6.921669	0.000355	3.548052	1.202113	-0.000142
1048	1.0418e+02	-1.7165	-7.079118	0.000395	3.953544	1.339497	-0.000158
1049	1.0428e+02	-1.7438	-7.163897	0.000213	2.128831	0.721268	-0.000085
1050	1.0438e+02	-1.7919	-7.297123	0.000335	3.345306	1.133420	-0.000134
1051	1.0447e+02	-1.8224	-7.438423	0.000355	3.548052	1.202113	-0.000142
1052	1.0457e+02	-1.8689	-7.519165	0.000203	2.027458	0.686921	-0.000081
1053	1.0467e+02	-1.9042	-7.660465	0.000355	3.548052	1.202113	-0.000142
1054	1.0477e+02	-1.9556	-7.785616	0.000314	3.142560	1.064728	-0.000126
1055	1.0487e+02	-1.9876	-7.926916	0.000355	3.548052	1.202113	-0.000142
1056	1.0497e+02	-2.0261	-8.031882	0.000264	2.635696	0.892998	-0.000105
1057	1.0507e+02	-2.0775	-8.112624	0.000203	2.027458	0.686921	-0.000081
1058	1.0517e+02	-2.1080	-8.253924	0.000355	3.548052	1.202113	-0.000142
1059	1.0527e+02	-2.1449	-8.366964	0.000284	2.838442	0.961690	-0.000114
1060	1.0537e+02	-2.1930	-8.463855	0.000243	2.432950	0.824306	-0.000097
1061	1.0547e+02	-2.2187	-8.593043	0.000324	3.243933	1.099074	-0.000130
1062	1.0557e+02	-2.2684	-8.738380	0.000365	3.649425	1.236459	-0.000146
1063	1.0567e+02	-2.3005	-8.843346	0.000264	2.635696	0.892998	-0.000105
1064	1.0577e+02	-2.3406	-8.956386	0.000284	2.838442	0.961690	-0.000114
1065	1.0587e+02	-2.3919	-9.073463	0.000294	2.939815	0.996036	-0.000118
1066	1.0597e+02	-2.4256	-9.202651	0.000324	3.243933	1.099074	-0.000130
1067	1.0607e+02	-2.4705	-9.319728	0.000294	2.939815	0.996036	-0.000118
1068	1.0617e+02	-2.5026	-9.408545	0.000223	2.230204	0.755614	-0.000089
1069	1.0627e+02	-2.5459	-9.578105	0.000426	4.257662	1.442535	-0.000170
1070	1.0637e+02	-2.5844	-9.654810	0.000193	1.926085	0.652575	-0.000077
1071	1.0647e+02	-2.6197	-9.759776	0.000264	2.635696	0.892998	-0.000105
1072	1.0656e+02	-2.6614	-9.868778	0.000274	2.737069	0.927344	-0.000110
1073	1.0666e+02	-2.7063	-10.030264	0.000405	4.054917	1.373843	-0.000162
1074	1.0676e+02	-2.7464	-10.123118	0.000233	2.331577	0.789960	-0.000093
1075	1.0686e+02	-2.7817	-10.203861	0.000203	2.027458	0.686921	-0.000081
1076	1.0696e+02	-2.8234	-10.312863	0.000274	2.737069	0.927344	-0.000110
1077	1.0706e+02	-2.8636	-10.446089	0.000335	3.345306	1.133420	-0.000134
1078	1.0716e+02	-2.9005	-10.583351	0.000345	3.446679	1.167766	-0.000138
1079	1.0726e+02	-2.9454	-10.704465	0.000304	3.041187	1.030382	-0.000122
1080	1.0736e+02	-2.9807	-10.805394	0.000253	2.534323	0.858652	-0.000101
1081	1.0746e+02	-3.0272	-10.926508	0.000304	3.041187	1.030382	-0.000122
1082	1.0756e+02	-3.0657	-11.003213	0.000193	1.926085	0.652575	-0.000077
1083	1.0766e+02	-3.1010	-11.152587	0.000375	3.750798	1.270805	-0.000150
1084	1.0776e+02	-3.1443	-11.237367	0.000213	2.128831	0.721268	-0.000085
1085	1.0786e+02	-3.1908	-11.386741	0.000375	3.750798	1.270805	-0.000150
1086	1.0796e+02	-3.2229	-11.479595	0.000233	2.331577	0.789960	-0.000093
1087	1.0806e+02	-3.2614	-11.588598	0.000274	2.737069	0.927344	-0.000110
1088	1.0816e+02	-3.3031	-11.733935	0.000365	3.649425	1.236459	-0.000146
1089	1.0826e+02	-3.3448	-11.855049	0.000304	3.041187	1.030382	-0.000122
1090	1.0836e+02	-3.3833	-11.947903	0.000233	2.331577	0.789960	-0.000093
1091	1.0845e+02	-3.4250	-12.056906	0.000274	2.737069	0.927344	-0.000110
1092	1.0855e+02	-3.4587	-12.186094	0.000324	3.243933	1.099074	-0.000130
1093	1.0865e+02	-3.5036	-12.291060	0.000264	2.635696	0.892998	-0.000105
1094	1.0875e+02	-3.5357	-12.371802	0.000203	2.027458	0.686921	-0.000081
1095	1.0885e+02	-3.5887	-12.545399	0.000436	4.359035	1.476881	-0.000174
1096	1.0895e+02	-3.6304	-12.597882	0.000132	1.317848	0.446499	-0.000053
1097	1.0905e+02	-3.6625	-12.739182	0.000355	3.548052	1.202113	-0.000142
1098	1.0915e+02	-3.7026	-12.860296	0.000304	3.041187	1.030382	-0.000122
1099	1.0925e+02	-3.7395	-12.941039	0.000203	2.027458	0.686921	-0.000081
1100	1.0935e+02	-3.7716	-13.078301	0.000345	3.446679	1.167766	-0.000138
1101	1.0945e+02	-3.8229	-13.191341	0.000284	2.838442	0.961690	-0.000114
1102	1.0955e+02	-3.8566	-13.308418	0.000294	2.939815	0.996036	-0.000118
1103	1.0965e+02	-3.8999	-13.421458	0.000284	2.838442	0.961690	-0.000114
1104	1.0975e+02	-3.9416	-13.514312	0.000233	2.331577	0.789960	-0.000093
1105	1.0985e+02	-3.9801	-13.643500	0.000324	3.243933	1.099074	-0.000130
1106	1.0995e+02	-4.0298	-13.752503	0.000274	2.737069	0.927344	-0.000110
1107	1.1005e+02	-4.0571	-13.905914	0.000385	3.852171	1.305151	-0.000154
1108	1.1015e+02	-4.1004	-14.006842	0.000253	2.534323	0.858652	-0.000101
1109	1.1025e+02	-4.1357	-14.087585	0.000203	2.027458	0.686921	-0.000081
1110	1.1035e+02	-4.1790	-14.184476	0.000243	2.432950	0.824306	-0.000097
1111	1.1044e+02	-4.2175	-14.333850	0.000375	3.750798	1.270805	-0.000150
1112	1.1054e+02	-4.2576	-14.467076	0.000335	3.345306	1.133420	-0.000134
1113	1.1064e+02	-4.2977	-14.551856	0.000213	2.128831	0.721268	-0.000085
1114	1.1074e+02	-4.3362	-14.632598	0.000203	2.027458	0.686921	-0.000081
1115	1.1084e+02	-4.3763	-14.777935	0.000365	3.649425	1.236459	-0.000146
1116	1.1094e+02	-4.4245	-14.890975	0.000284	2.838442	0.961690	-0.000114
1117	1.1104e+02	-4.4582	-14.963644	0.000182	1.824712	0.618229	-0.000073
1118	1.1114e+02	-4.5015	-15.125129	0.000405	4.054917	1.373843	-0.000162
1119	1.1124e+02	-4.5448	-15.201835	0.000193	1.926085	0.652575	-0.000077
1120	1.1134e+02	-4.5785	-15.278540	0.000193	1.926085	0.652575	-0.000077
1121	1.1144e+02	-4.6202	-15.375431	0.000243	2.432950	0.824306	-0.000097
1122	1.1154e+02	-4.6635	-15.532880	0.000395	3.953544	1.339497	-0.000158
1123	1.1164e+02	-4.6972	-15.662068	0.000324	3.243933	1.099074	-0.000130
1124	1.1174e+02	-4.7389	-15.722625	0.000152	1.520594	0.515191	-0.000061
1125	1.1184e+02	-4.7742	-15.819516	0.000243	2.432950	0.824306	-0.000097
1126	1.1194e+02	-4.8191	-15.948705	0.000324	3.243933	1.099074	-0.000130
1127	1.1204e+02	-4.8544	-16.053670	0.000264	2.635696	0.892998	-0.000105
1128	1.1214e+02	-4.8961	-16.162673	0.000274	2.737069	0.927344	-0.000110
1129	1.1224e+02	-4.9394	-16.295898	0.000335	3.345306	1.133420	-0.000134
1130	1.1234e+02	-4.9795	-16.400864	0.000264	2.635696	0.892998	-0.000105
1131	1.1244e+02	-5.0068	-16.449310	0.000122	1.216475	0.412153	-0.000049
1132	1.1253e+02	-5.0517	-16.566387	0.000294	2.939815	0.996036	-0.000118
1133	1.1263e+02	-5.0950	-16.699612	0.000335	3.345306	1.133420	-0.000134
1134	1.1273e+02	-5.1384	-16.812652	0.000284	2.838442	0.961690	-0.000114
1135	1.1283e+02	-5.1769	-16.986249	0.000436	4.359035	1.476881	-0.000174
1136	1.1293e+02	-5.2105	-17.018546	0.000081	0.810983	0.274769	-0.000032
1137	1.1303e+02	-5.2474	-17.184068	0.000416	4.156290	1.408189	-0.000166
1138	1.1313e+02	-5.2972	-17.244625	0.000152	1.520594	0.515191	-0.000061
1139	1.1323e+02	-5.3357	-17.385925	0.000355	3.548052	1.202113	-0.000142
1140	1.1333e+02	-5.3726	-17.418222	0.000081	0.810983	0.274769	-0.000032
1141	1.1343e+02	-5.4175	-17.591819	0.000436	4.359035	1.476881	-0.000174
1142	1.1353e+02	-5.4496	-17.704859	0.000284	2.838442	0.961690	-0.000114
1143	1.1363e+02	-5.4913	-17.805787	0.000253	2.534323	0.858652	-0.000101
1144	1.1373e+02	-5.5298	-17.914790	0.000274	2.737069	0.927344	-0.000110
1145	1.1383e+02	-5.5699	-18.035904	0.000304	3.041187	1.030382	-0.000122
1146	1.1393e+02	-5.6164	-18.161055	0.000314	3.142560	1.064728	-0.000126
1147	1.1403e+02	-5.6581	-18.270058	0.000274	2.737069	0.927344	-0.000110
1148	1.1413e+02	-5.6854	-18.383098	0.000284	2.838442	0.961690	-0.000114
1149	1.1423e+02	-5.7399	-18.524397	0.000355	3.548052	1.202113	-0.000142
1150	1.1433e+02	-5.7736	-18.584954	0.000152	1.520594	0.515191	-0.000061
1151	1.1442e+02	-5.8137	-18.706068	0.000304	3.041187	1.030382	-0.000122
1152	1.1452e+02	-5.8603	-18.823145	0.000294	2.939815	0.996036	-0.000118
1153	1.1462e+02	-5.8988	-18.940222	0.000294	2.939815	0.996036	-0.000118
1154	1.1472e+02	-5.9308	-19.020965	0.000203	2.027458	0.686921	-0.000081
1155	1.1482e+02	-5.9677	-19.129968	0.000274	2.737069	0.927344	-0.000110
1156	1.1492e+02	-6.0159	-19.287416	0.000395	3.953544	1.339497	-0.000158
1157	1.1502e+02	-6.0528	-19.420641	0.000335	3.345306	1.133420	-0.000134
1158	1.1512e+02	-6.0977	-19.489273	0.000172	1.723340	0.583883	-0.000069
1159	1.1522e+02	-6.1266	-19.634610	0.000365	3.649425	1.236459	-0.000146
1160	1.1532e+02	-6.1731	-19.711315	0.000193	1.926085	0.652575	-0.000077
1161	1.1542e+02	-6.2148	-19.804169	0.000233	2.331577	0.789960	-0.000093
1162	1.1552e+02	-6.2581	-19.961618	0.000395	3.953544	1.339497	-0.000158
1163	1.1562e+02	-6.2918	-20.026212	0.000162	1.621967	0.549537	-0.000065
1164	1.1572e+02	-6.3255	-20.143289	0.000294	2.939815	0.996036	-0.000118
1165	1.1582e+02	-6.3768	-20.288626	0.000365	3.649425	1.236459	-0.000146
1166	1.1592e+02	-6.4073	-20.373406	0.000213	2.128831	0.721268	-0.000085
1167	1.1602e+02	-6.4474	-20.502594	0.000324	3.243933	1.099074	-0.000130
1168	1.1612e+02	-6.4811	-20.583337	0.000203	2.027458	0.686921	-0.000081
1169	1.1622e+02	-6.5324	-20.720599	0.000345	3.446679	1.167766	-0.000138
1170	1.1632e+02	-6.5693	-20.833639	0.000284	2.838442	0.961690	-0.000114
1171	1.1642e+02	-6.6046	-20.946679	0.000284	2.838442	0.961690	-0.000114
1172	1.1651e+02	-6.6415	-21.055681	0.000274	2.737069	0.927344	-0.000110
1173	1.1661e+02	-6.6864	-21.168721	0.000284	2.838442	0.961690	-0.000114
1174	1.1671e+02	-6.7233	-21.253501	0.000213	2.128831	0.721268	-0.000085
1175	1.1681e+02	-6.7731	-21.382689	0.000324	3.243933	1.099074	-0.000130
1176	1.1691e+02	-6.8003	-21.519952	0.000345	3.446679	1.167766	-0.000138
1177	1.1701e+02	-6.8421	-21.608769	0.000223	2.230204	0.755614	-0.000089
1178	1.1711e+02	-6.8966	-21.750069	0.000355	3.548052	1.202113	-0.000142
1179	1.1721e+02	-6.9271	-21.850997	0.000253	2.534323	0.858652	-0.000101
1180	1.1731e+02	-6.9736	-21.943851	0.000233	2.331577	0.789960	-0.000093
1181	1.1741e+02	-7.0105	-22.044780	0.000253	2.534323	0.858652	-0.000101
1182	1.1751e+02	-7.0426	-22.157819	0.000284	2.838442	0.961690	-0.000114
1183	1.1761e+02	-7.0843	-22.287008	0.000324	3.243933	1.099074	-0.000130
1184	1.1771e+02	-7.1196	-22.396011	0.000274	2.737069	0.927344	-0.000110
1185	1.1781e+02	-7.1613	-22.496939	0.000253	2.534323	0.858652	-0.000101
1186	1.1791e+02	-7.2046	-22.601904	0.000264	2.635696	0.892998	-0.000105
1187	1.1801e+02	-7.2415	-22.731093	0.000324	3.243933	1.099074	-0.000130
1188	1.1811e+02	-7.2961	-22.884504	0.000385	3.852171	1.305151	-0.000154
1189	1.1821e+02	-7.3281	-22.936987	0.000132	1.317848	0.446499	-0.000053
1190	1.1831e+02	-7.3586	-23.082324	0.000365	3.649425	1.236459	-0.000146
1191	1.1841e+02	-7.4003	-23.179215	0.000243	2.432950	0.824306	-0.000097
1192	1.1850e+02	-7.4372	-23.255920	0.000193	1.926085	0.652575	-0.000077
1193	1.1860e+02	-7.4773	-23.421443	0.000416	4.156290	1.408189	-0.000166
1194	1.1870e+02	-7.5239	-23.514297	0.000233	2.331577	0.789960	-0.000093
1195	1.1880e+02	-7.5543	-23.586966	0.000182	1.824712	0.618229	-0.000073
1196	1.1890e+02	-7.5976	-23.708080	0.000304	3.041187	1.030382	-0.000122
1197	1.1900e+02	-7.6490	-23.849379	0.000355	3.548052	1.202113	-0.000142
1198	1.1910e+02	-7.6955	-23.954345	0.000264	2.635696	0.892998	-0.000105
1199	1.1920e+02	-7.7196	-24.071422	0.000294	2.939815	0.996036	-0.000118
1200	1.1930e+02	-7.7597	-24.176387	0.000264	2.635696	0.892998	-0.000105
1201	1.1940e+02	-7.7966	-24.301539	0.000314	3.142560	1.064728	-0.000126
1202	1.1950e+02	-7.8415	-24.434764	0.000335	3.345306	1.133420	-0.000134
1203	1.1960e+02	-7.8768	-24.491284	0.000142	1.419221	0.480845	-0.000057
1204	1.1970e+02	-7.9201	-24.624509	0.000335	3.345306	1.133420	-0.000134
1205	1.1980e+02	-7.9698	-24.725438	0.000253	2.534323	0.858652	-0.000101
1206	1.1990e+02	-8.0003	-24.866738	0.000355	3.548052	1.202113	-0.000142
1207	1.2000e+02	-8.0404	-24.999963	0.000335	3.345306	1.133420	-0.000134
1208	1.2010e+02	-8.0918	-25.096854	0.000243	2.432950	0.824306	-0.000097
1209	1.2020e+02	-8.1142	-25.209894	0.000284	2.838442	0.961690	-0.000114
1210	1.2030e+02	-8.1655	-25.298711	0.000223	2.230204	0.755614	-0.000089
1211	1.2039e+02	-8.1992	-25.411751	0.000284	2.838442	0.961690	-0.000114
1212	1.2049e+02	-8.2377	-25.557088	0.000365	3.649425	1.236459	-0.000146
1213	1.2059e+02	-8.2810	-25.670128	0.000284	2.838442	0.961690	-0.000114
1214	1.2069e+02	-8.3228	-25.787205	0.000294	2.939815	0.996036	-0.000118
1215	1.2079e+02	-8.3564	-25.859873	0.000182	1.824712	0.618229	-0.000073
1216	1.2089e+02	-8.3901	-25.956764	0.000243	2.432950	0.824306	-0.000097
1217	1.2099e+02	-8.4367	-26.098064	0.000355	3.548052	1.202113	-0.000142
1218	1.2109e+02	-8.4816	-26.190918	0.000233	2.331577	0.789960	-0.000093
1219	1.2119e+02	-8.5121	-26.312032	0.000304	3.041187	1.030382	-0.000122
1220	1.2129e+02	-8.5634	-26.449295	0.000345	3.446679	1.167766	-0.000138
1221	1.2139e+02	-8.5939	-26.534075	0.000213	2.128831	0.721268	-0.000085
1222	1.2149e+02	-8.6452	-26.639040	0.000264	2.635696	0.892998	-0.000105
1223	1.2159e+02	-8.6805	-26.764191	0.000314	3.142560	1.064728	-0.000126
1224	1.2169e+02	-8.7222	-26.881268	0.000294	2.939815	0.996036	-0.000118
1225	1.2179e+02	-8.7527	-26.933751	0.000132	1.317848	0.446499	-0.000053
1226	1.2189e+02	-8.7976	-27.075051	0.000355	3.548052	1.202113	-0.000142
1227	1.2199e+02	-8.8345	-27.159831	0.000213	2.128831	0.721268	-0.000085
1228	1.2209e+02	-8.8746	-27.309205	0.000375	3.750798	1.270805	-0.000150
1229	1.2219e+02	-8.9115	-27.426282	0.000294	2.939815	0.996036	-0.000118
1230	1.2229e+02	-8.9516	-27.470690	0.000112	1.115102	0.377807	-0.000045
1231	1.2239e+02	-8.9981	-27.607953	0.000345	3.446679	1.167766	-0.000138
1232	1.2248e+02	-9.0350	-27.720993	0.000284	2.838442	0.961690	-0.000114
1233	1.2258e+02	-9.0800	-27.825958	0.000264	2.635696	0.892998	-0.000105
1234	1.2268e+02	-9.1233	-27.959184	0.000335	3.345306	1.133420	-0.000134
1235	1.2278e+02	-9.1554	-28.056075	0.000243	2.432950	0.824306	-0.000097
1236	1.2288e+02	-9.1955	-28.124706	0.000172	1.723340	0.583883	-0.000069
1237	1.2298e+02	-9.2356	-28.257932	0.000335	3.345306	1.133420	-0.000134
1238	1.2308e+02	-9.2837	-28.342711	0.000213	2.128831	0.721268	-0.000085
1239	1.2318e+02	-9.3110	-28.443640	0.000253	2.534323	0.858652	-0.000101
1240	1.2328e+02	-9.3543	-28.593014	0.000375	3.750798	1.270805	-0.000150
1241	1.2338e+02	-9.3944	-28.681831	0.000223	2.230204	0.755614	-0.000089
1242	1.2348e+02	-9.4345	-28.778722	0.000243	2.432950	0.824306	-0.000097
1243	1.2358e+02	-9.4810	-28.875613	0.000243	2.432950	0.824306	-0.000097
1244	1.2368e+02	-9.5131	-28.980579	0.000264	2.635696	0.892998	-0.000105
1245	1.2378e+02	-9.5612	-29.133990	0.000385	3.852171	1.305151	-0.000154
1246	1.2388e+02	-9.5949	-29.174361	0.000101	1.013729	0.343461	-0.000041
1247	1.2398e+02	-9.6270	-29.295475	0.000304	3.041187	1.030382	-0.000122
1248	1.2408e+02	-9.6735	-29.364107	0.000172	1.723340	0.583883	-0.000069
1249	1.2418e+02	-9.7200	-29.541741	0.000446	4.460408	1.511227	-0.000179
1250	1.2428e+02	-9.7521	-29.626521	0.000213	2.128831	0.721268	-0.000085
1251	1.2438e+02	-9.7987	-29.723412	0.000243	2.432950	0.824306	-0.000097
1252	1.2447e+02	-9.8307	-29.852600	0.000324	3.243933	1.099074	-0.000130
1253	1.2457e+02	-9.8773	-29.913157	0.000152	1.520594	0.515191	-0.000061
1254	1.2467e+02	-9.9126	-30.042346	0.000324	3.243933	1.099074	-0.000130
1255	1.2477e+02	-9.9559	-30.119051	0.000193	1.926085	0.652575	-0.000077
1256	1.2487e+02	-9.9863	-30.207868	0.000223	2.230204	0.755614	-0.000089
1257	1.2497e+02	-10.0409	-30.345131	0.000345	3.446679	1.167766	-0.000138
1258	1.2507e+02	-10.0778	-30.446059	0.000253	2.534323	0.858652	-0.000101
1259	1.2517e+02	-10.1211	-30.534876	0.000223	2.230204	0.755614	-0.000089
1260	1.2527e+02	-10.1564	-30.635805	0.000253	2.534323	0.858652	-0.000101
1261	1.2537e+02	-10.1917	-30.756919	0.000304	3.041187	1.030382	-0.000122
1262	1.2547e+02	-10.2382	-30.882070	0.000314	3.142560	1.064728	-0.000126
1263	1.2557e+02	-10.2783	-30.962813	0.000203	2.027458	0.686921	-0.000081
1264	1.2567e+02	-10.3184	-31.055667	0.000233	2.331577	0.789960	-0.000093
1265	1.2577e+02	-10.3521	-31.124298	0.000172	1.723340	0.583883	-0.000069
1266	1.2587e+02	-10.3890	-31.241375	0.000294	2.939815	0.996036	-0.000118
1267	1.2597e+02	-10.4371	-31.342303	0.000253	2.534323	0.858652	-0.000101
1268	1.2607e+02	-10.4724	-31.471492	0.000324	3.243933	1.099074	-0.000130
1269	1.2617e+02	-10.5045	-31.540123	0.000172	1.723340	0.583883	-0.000069
1270	1.2627e+02	-10.5446	-31.673348	0.000335	3.345306	1.133420	-0.000134
1271	1.2636e+02	-10.5927	-31.782351	0.000274	2.737069	0.927344	-0.000110
1272	1.2646e+02	-10.6329	-31.822722	0.000101	1.013729	0.343461	-0.000041
1273	1.2656e+02	-10.6698	-31.964022	0.000355	3.548052	1.202113	-0.000142
1274	1.2666e+02	-10.7099	-32.081099	0.000294	2.939815	0.996036	-0.000118
1275	1.2676e+02	-10.7516	-32.169916	0.000223	2.230204	0.755614	-0.000089
1276	1.2686e+02	-10.7885	-32.299104	0.000324	3.243933	1.099074	-0.000130
1277	1.2696e+02	-10.8302	-32.371773	0.000182	1.824712	0.618229	-0.000073
1278	1.2706e+02	-10.8687	-32.460590	0.000223	2.230204	0.755614	-0.000089
1279	1.2716e+02	-10.9168	-32.541333	0.000203	2.027458	0.686921	-0.000081
1280	1.2726e+02	-10.9537	-32.710892	0.000426	4.257662	1.442535	-0.000170
1281	1.2736e+02	-10.9874	-32.755301	0.000112	1.115102	0.377807	-0.000045
1282	1.2746e+02	-11.0307	-32.868341	0.000284	2.838442	0.961690	-0.000114
1283	1.2756e+02	-11.0676	-32.973306	0.000264	2.635696	0.892998	-0.000105
1284	1.2766e+02	-11.1077	-33.078272	0.000264	2.635696	0.892998	-0.000105
1285	1.2776e+02	-11.1542	-33.146903	0.000172	1.723340	0.583883	-0.000069
1286	1.2786e+02	-11.1943	-33.296277	0.000375	3.750798	1.270805	-0.000150
1287	1.2796e+02	-11.2344	-33.328574	0.000081	0.810983	0.274769	-0.000032
1288	1.2806e+02	-11.2729	-33.449688	0.000304	3.041187	1.030382	-0.000122
1289	1.2816e+02	-11.3034	-33.534468	0.000213	2.128831	0.721268	-0.000085
1290	1.2826e+02	-11.3419	-33.647508	0.000284	2.838442	0.961690	-0.000114
1291	1.2835e+02	-11.3884	-33.760548	0.000284	2.838442	0.961690	-0.000114
1292	1.2845e+02	-11.4253	-33.804956	0.000112	1.115102	0.377807	-0.000045
1293	1.2855e+02	-11.4638	-33.917996	0.000284	2.838442	0.961690	-0.000114
1294	1.2865e+02	-11.5136	-34.014887	0.000243	2.432950	0.824306	-0.000097
1295	1.2875e+02	-11.5441	-34.115816	0.000253	2.534323	0.858652	-0.000101
1296	1.2885e+02	-11.5890	-34.212707	0.000243	2.432950	0.824306	-0.000097
1297	1.2895e+02	-11.6307	-34.349969	0.000345	3.446679	1.167766	-0.000138
1298	1.2905e+02	-11.6692	-34.442824	0.000233	2.331577	0.789960	-0.000093
1299	1.2915e+02	-11.7141	-34.483195	0.000101	1.013729	0.343461	-0.000041
1300	1.2925e+02	-11.7494	-34.604309	0.000304	3.041187	1.030382	-0.000122
1301	1.2935e+02	-11.7927	-34.697163	0.000233	2.331577	0.789960	-0.000093
1302	1.2945e+02	-11.8264	-34.814240	0.000294	2.939815	0.996036	-0.000118
1303	1.2955e+02	-11.8681	-34.903057	0.000223	2.230204	0.755614	-0.000089
1304	1.2965e+02	-11.9082	-35.016097	0.000284	2.838442	0.961690	-0.000114
1305	1.2975e+02	-11.9467	-35.084728	0.000172	1.723340	0.583883	-0.000069
1306	1.2985e+02	-11.9772	-35.230065	0.000365	3.649425	1.236459	-0.000146
1307	1.2995e+02	-12.0285	-35.282548	0.000132	1.317848	0.446499	-0.000053
1308	1.3005e+02	-12.0670	-35.395588	0.000284	2.838442	0.961690	-0.000114
1309	1.3015e+02	-12.1055	-35.500553	0.000264	2.635696	0.892998	-0.000105
1310	1.3025e+02	-12.1424	-35.625704	0.000314	3.142560	1.064728	-0.000126
1311	1.3034e+02	-12.1858	-35.690298	0.000162	1.621967	0.549537	-0.000065
1312	1.3044e+02	-12.2307	-35.823524	0.000335	3.345306	1.133420	-0.000134
1313	1.3054e+02	-12.2644	-35.900230	0.000193	1.926085	0.652575	-0.000077
1314	1.3064e+02	-12.3061	-36.001158	0.000253	2.534323	0.858652	-0.000101
1315	1.3074e+02	-12.3382	-36.098049	0.000243	2.432950	0.824306	-0.000097
1316	1.3084e+02	-12.3863	-36.247423	0.000375	3.750798	1.270805	-0.000150
1317	1.3094e+02	-12.4312	-36.299906	0.000132	1.317848	0.446499	-0.000053
1318	1.3104e+02	-12.4601	-36.437169	0.000345	3.446679	1.167766	-0.000138
1319	1.3114e+02	-12.5050	-36.517911	0.000203	2.027458	0.686921	-0.000081
1320	1.3124e+02	-12.5371	-36.590580	0.000182	1.824712	0.618229	-0.000073
1321	1.3134e+02	-12.5868	-36.715731	0.000314	3.142560	1.064728	-0.000126
1322	1.3144e+02	-12.6237	-36.796474	0.000203	2.027458	0.686921	-0.000081
1323	1.3154e+02	-12.6590	-36.889328	0.000233	2.331577	0.789960	-0.000093
1324	1.3164e+02	-12.7055	-37.026590	0.000345	3.446679	1.167766	-0.000138
1325	1.3174e+02	-12.7376	-37.127519	0.000253	2.534323	0.858652	-0.000101
1326	1.3184e+02	-12.7761	-37.192113	0.000162	1.621967	0.549537	-0.000065
1327	1.3194e+02	-12.8162	-37.284967	0.000233	2.331577	0.789960	-0.000093
1328	1.3204e+02	-12.8659	-37.434341	0.000375	3.750798	1.270805	-0.000150
1329	1.3214e+02	-12.8948	-37.519121	0.000213	2.128831	0.721268	-0.000085
1330	1.3224e+02	-12.9381	-37.620049	0.000253	2.534323	0.858652	-0.000101
1331	1.3234e+02	-12.9750	-37.712903	0.000233	2.331577	0.789960	-0.000093
1332	1.3243e+02	-13.0167	-37.821906	0.000274	2.737069	0.927344	-0.000110
1333	1.3253e+02	-13.0552	-37.910723	0.000223	2.230204	0.755614	-0.000089
1334	1.3263e+02	-13.0954	-38.031837	0.000304	3.041187	1.030382	-0.000122
1335	1.3273e+02	-13.1355	-38.100469	0.000172	1.723340	0.583883	-0.000069
1336	1.3283e+02	-13.1884	-38.221583	0.000304	3.041187	1.030382	-0.000122
1337	1.3293e+02	-13.2269	-38.330585	0.000274	2.737069	0.927344	-0.000110
1338	1.3303e+02	-13.2670	-38.383068	0.000132	1.317848	0.446499	-0.000053
1339	1.3313e+02	-13.3007	-38.548591	0.000416	4.156290	1.408189	-0.000166
1340	1.3323e+02	-13.3408	-38.637408	0.000223	2.230204	0.755614	-0.000089
1341	1.3333e+02	-13.3777	-38.758522	0.000304	3.041187	1.030382	-0.000122
1342	1.3343e+02	-13.4178	-38.847339	0.000223	2.230204	0.755614	-0.000089
1343	1.3353e+02	-13.4547	-38.907896	0.000152	1.520594	0.515191	-0.000061
1344	1.3363e+02	-13.4996	-39.037084	0.000324	3.243933	1.099074	-0.000130
1345	1.3373e+02	-13.5445	-39.154161	0.000294	2.939815	0.996036	-0.000118
1346	1.3383e+02	-13.5814	-39.230867	0.000193	1.926085	0.652575	-0.000077
1347	1.3393e+02	-13.6215	-39.335832	0.000264	2.635696	0.892998	-0.000105
1348	1.3403e+02	-13.6536	-39.432723	0.000243	2.432950	0.824306	-0.000097
1349	1.3413e+02	-13.7018	-39.533652	0.000253	2.534323	0.858652	-0.000101
1350	1.3423e+02	-13.7322	-39.630543	0.000243	2.432950	0.824306	-0.000097
1351	1.3432e+02	-13.7788	-39.771843	0.000355	3.548052	1.202113	-0.000142
1352	1.3442e+02	-13.8124	-39.864697	0.000233	2.331577	0.789960	-0.000093
1353	1.3452e+02	-13.8702	-39.945440	0.000203	2.027458	0.686921	-0.000081
1354	1.3462e+02	-13.8959	-40.034257	0.000223	2.230204	0.755614	-0.000089
1355	1.3472e+02	-13.9456	-40.139222	0.000264	2.635696	0.892998	-0.000105
1356	1.3482e+02	-13.9729	-40.224002	0.000213	2.128831	0.721268	-0.000085
1357	1.3492e+02	-14.0178	-40.345116	0.000304	3.041187	1.030382	-0.000122
1358	1.3502e+02	-14.0547	-40.429896	0.000213	2.128831	0.721268	-0.000085
1359	1.3512e+02	-14.1044	-40.510639	0.000203	2.027458	0.686921	-0.000081
1360	1.3522e+02	-14.1349	-40.643864	0.000335	3.345306	1.133420	-0.000134
1361	1.3532e+02	-14.1766	-40.777090	0.000335	3.345306	1.133420	-0.000134
1362	1.3542e+02	-14.2087	-40.849758	0.000182	1.824712	0.618229	-0.000073
1363	1.3552e+02	-14.2520	-40.938575	0.000223	2.230204	0.755614	-0.000089
1364	1.3562e+02	-14.2985	-41.067763	0.000324	3.243933	1.099074	-0.000130
1365	1.3572e+02	-14.3370	-41.156580	0.000223	2.230204	0.755614	-0.000089
1366	1.3582e+02	-14.3755	-41.209063	0.000132	1.317848	0.446499	-0.000053
1367	1.3592e+02	-14.4140	-41.338251	0.000324	3.243933	1.099074	-0.000130
1368	1.3602e+02	-14.4606	-41.439180	0.000253	2.534323	0.858652	-0.000101
1369	1.3612e+02	-14.4958	-41.576442	0.000345	3.446679	1.167766	-0.000138
1370	1.3622e+02	-14.5311	-41.645074	0.000172	1.723340	0.583883	-0.000069
1371	1.3631e+02	-14.5729	-41.721779	0.000193	1.926085	0.652575	-0.000077
1372	1.3641e+02	-14.6178	-41.834819	0.000284	2.838442	0.961690	-0.000114
1373	1.3651e+02	-14.6579	-41.968045	0.000335	3.345306	1.133420	-0.000134
1374	1.3661e+02	-14.6948	-42.073010	0.000264	2.635696	0.892998	-0.000105
1375	1.3671e+02	-14.7381	-42.153753	0.000203	2.027458	0.686921	-0.000081
1376	1.3681e+02	-14.7798	-42.291015	0.000345	3.446679	1.167766	-0.000138
1377	1.3691e+02	-14.8151	-42.375795	0.000213	2.128831	0.721268	-0.000085
1378	1.3701e+02	-14.8488	-42.476724	0.000253	2.534323	0.858652	-0.000101
1379	1.3711e+02	-14.8921	-42.585726	0.000274	2.737069	0.927344	-0.000110
1380	1.3721e+02	-14.9338	-42.666469	0.000203	2.027458	0.686921	-0.000081
1381	1.3731e+02	-14.9771	-42.779509	0.000284	2.838442	0.961690	-0.000114
1382	1.3741e+02	-15.0204	-42.888512	0.000274	2.737069	0.927344	-0.000110
1383	1.3751e+02	-15.0605	-42.989440	0.000253	2.534323	0.858652	-0.000101
1384	1.3761e+02	-15.0926	-43.106517	0.000294	2.939815	0.996036	-0.000118
1385	1.3771e+02	-15.1359	-43.207445	0.000253	2.534323	0.858652	-0.000101
1386	1.3781e+02	-15.1680	-43.308374	0.000253	2.534323	0.858652	-0.000101
1387	1.3791e+02	-15.2129	-43.385079	0.000193	1.926085	0.652575	-0.000077
1388	1.3801e+02	-15.2498	-43.490045	0.000264	2.635696	0.892998	-0.000105
1389	1.3811e+02	-15.3028	-43.586936	0.000243	2.432950	0.824306	-0.000097
1390	1.3821e+02	-15.3381	-43.704013	0.000294	2.939815	0.996036	-0.000118
1391	1.3831e+02	-15.3702	-43.825127	0.000304	3.041187	1.030382	-0.000122
1392	1.3840e+02	-15.4087	-43.865498	0.000101	1.013729	0.343461	-0.000041
1393	1.3850e+02	-15.4488	-43.994687	0.000324	3.243933	1.099074	-0.000130
1394	1.3860e+02	-15.4969	-44.087541	0.000233	2.331577	0.789960	-0.000093
1395	1.3870e+02	-15.5402	-44.216729	0.000324	3.243933	1.099074	-0.000130
1396	1.3880e+02	-15.5627	-44.277286	0.000152	1.520594	0.515191	-0.000061
1397	1.3890e+02	-15.6140	-44.398400	0.000304	3.041187	1.030382	-0.000122
1398	1.3900e+02	-15.6525	-44.479143	0.000203	2.027458	0.686921	-0.000081
1399	1.3910e+02	-15.6910	-44.551811	0.000182	1.824712	0.618229	-0.000073
1400	1.3920e+02	-15.7327	-44.672926	0.000304	3.041187	1.030382	-0.000122
1401	1.3930e+02	-15.7680	-44.757705	0.000213	2.128831	0.721268	-0.000085
1402	1.3940e+02	-15.8129	-44.886894	0.000324	3.243933	1.099074	-0.000130
1403	1.3950e+02	-15.8514	-44.931302	0.000112	1.115102	0.377807	-0.000045
1404	1.3960e+02	-15.8851	-45.008008	0.000193	1.926085	0.652575	-0.000077
1405	1.3970e+02	-15.9332	-45.161419	0.000385	3.852171	1.305151	-0.000154
1406	1.3980e+02	-15.9653	-45.213902	0.000132	1.317848	0.446499	-0.000053
1407	1.3990e+02	-16.0086	-45.347127	0.000335	3.345306	1.133420	-0.000134
1408	1.4000e+02	-16.0503	-45.419796	0.000182	1.824712	0.618229	-0.000073
1409	1.4010e+02	-16.0953	-45.508613	0.000223	2.230204	0.755614	-0.000089
1410	1.4020e+02	-16.1306	-45.613578	0.000264	2.635696	0.892998	-0.000105
1411	1.4029e+02	-16.1594	-45.746804	0.000335	3.345306	1.133420	-0.000134
1412	1.4039e+02	-16.2028	-45.843695	0.000243	2.432950	0.824306	-0.000097
1413	1.4049e+02	-16.2477	-45.896178	0.000132	1.317848	0.446499	-0.000053
1414	1.4059e+02	-16.2926	-45.989032	0.000233	2.331577	0.789960	-0.000093
1415	1.4069e+02	-16.3327	-46.077849	0.000223	2.230204	0.755614	-0.000089
1416	1.4079e+02	-16.3664	-46.142443	0.000162	1.621967	0.549537	-0.000065
1417	1.4089e+02	-16.4097	-46.291817	0.000375	3.750798	1.270805	-0.000150
1418	1.4099e+02	-16.4514	-46.380634	0.000223	2.230204	0.755614	-0.000089
1419	1.4109e+02	-16.4851	-46.473488	0.000233	2.331577	0.789960	-0.000093
1420	1.4119e+02	-16.5332	-46.574416	0.000253	2.534323	0.858652	-0.000101
1421	1.4129e+02	-16.5701	-46.683419	0.000274	2.737069	0.927344	-0.000110
1422	1.4139e+02	-16.6054	-46.756088	0.000182	1.824712	0.618229	-0.000073
1423	1.4149e+02	-16.6391	-46.840867	0.000213	2.128831	0.721268	-0.000085
1424	1.4159e+02	-16.6920	-46.945833	0.000264	2.635696	0.892998	-0.000105
1425	1.4169e+02	-16.7338	-47.014464	0.000172	1.723340	0.583883	-0.000069
1426	1.4179e+02	-16.7642	-47.131541	0.000294	2.939815	0.996036	-0.000118
1427	1.4189e+02	-16.8075	-47.236507	0.000264	2.635696	0.892998	-0.000105
1428	1.4199e+02	-16.8541	-47.321287	0.000213	2.128831	0.721268	-0.000085
1429	1.4209e+02	-16.8862	-47.434326	0.000284	2.838442	0.961690	-0.000114
1430	1.4219e+02	-16.9295	-47.454512	0.000051	0.506865	0.171730	-0.000020
1431	1.4228e+02	-16.9680	-47.595812	0.000355	3.548052	1.202113	-0.000142
1432	1.4238e+02	-17.0017	-47.688666	0.000233	2.331577	0.789960	-0.000093
1433	1.4248e+02	-17.0514	-47.773446	0.000213	2.128831	0.721268	-0.000085
1434	1.4258e+02	-17.0835	-47.882448	0.000274	2.737069	0.927344	-0.000110
1435	1.4268e+02	-17.1268	-48.003562	0.000304	3.041187	1.030382	-0.000122
1436	1.4278e+02	-17.1589	-48.080268	0.000193	1.926085	0.652575	-0.000077
1437	1.4288e+02	-17.2038	-48.132751	0.000132	1.317848	0.446499	-0.000053
1438	1.4298e+02	-17.2455	-48.270013	0.000345	3.446679	1.167766	-0.000138
1439	1.4308e+02	-17.2920	-48.310385	0.000101	1.013729	0.343461	-0.000041
1440	1.4318e+02	-17.3193	-48.451685	0.000355	3.548052	1.202113	-0.000142
1441	1.4328e+02	-17.3626	-48.524353	0.000182	1.824712	0.618229	-0.000073
1442	1.4338e+02	-17.4011	-48.629319	0.000264	2.635696	0.892998	-0.000105
1443	1.4348e+02	-17.4476	-48.714098	0.000213	2.128831	0.721268	-0.000085
1444	1.4358e+02	-17.4861	-48.786767	0.000182	1.824712	0.618229	-0.000073
1445	1.4368e+02	-17.5182	-48.899807	0.000284	2.838442	0.961690	-0.000114
1446	1.4378e+02	-17.5631	-48.980549	0.000203	2.027458	0.686921	-0.000081
1447	1.4388e+02	-17.5952	-49.093589	0.000284	2.838442	0.961690	-0.000114
1448	1.4398e+02	-17.6434	-49.190480	0.000243	2.432950	0.824306	-0.000097
1449	1.4408e+02	-17.6947	-49.287372	0.000243	2.432950	0.824306	-0.000097
1450	1.4418e+02	-17.7188	-49.376189	0.000223	2.230204	0.755614	-0.000089
1451	1.4428e+02	-17.7653	-49.493266	0.000294	2.939815	0.996036	-0.000118
1452	1.4437e+02	-17.8054	-49.521526	0.000071	0.709610	0.240423	-0.000028
1453	1.4447e+02	-17.8391	-49.646677	0.000314	3.142560	1.064728	-0.000126
1454	1.4457e+02	-17.8792	-49.731457	0.000213	2.128831	0.721268	-0.000085
1455	1.4467e+02	-17.9129	-49.820274	0.000223	2.230204	0.755614	-0.000089
1456	1.4477e+02	-17.9578	-49.917165	0.000243	2.432950	0.824306	-0.000097
1457	1.4487e+02	-17.9979	-49.985796	0.000172	1.723340	0.583883	-0.000069
1458	1.4497e+02	-18.0428	-50.078650	0.000233	2.331577	0.789960	-0.000093
1459	1.4507e+02	-18.0813	-50.183616	0.000264	2.635696	0.892998	-0.000105
1460	1.4517e+02	-18.1246	-50.260321	0.000193	1.926085	0.652575	-0.000077
1461	1.4527e+02	-18.1599	-50.345101	0.000213	2.128831	0.721268	-0.000085
1462	1.4537e+02	-18.2000	-50.409695	0.000162	1.621967	0.549537	-0.000065
1463	1.4547e+02	-18.2353	-50.538884	0.000324	3.243933	1.099074	-0.000130
1464	1.4557e+02	-18.2786	-50.619626	0.000203	2.027458	0.686921	-0.000081
1465	1.4567e+02	-18.3187	-50.704406	0.000213	2.128831	0.721268	-0.000085
1466	1.4577e+02	-18.3508	-50.805335	0.000253	2.534323	0.858652	-0.000101
1467	1.4587e+02	-18.4086	-50.878003	0.000182	1.824712	0.618229	-0.000073
1468	1.4597e+02	-18.4391	-51.007191	0.000324	3.243933	1.099074	-0.000130
1469	1.4607e+02	-18.4904	-51.091971	0.000213	2.128831	0.721268	-0.000085
1470	1.4617e+02	-18.5193	-51.140417	0.000122	1.216475	0.412153	-0.000049
1471	1.4626e+02	-18.5658	-51.253457	0.000284	2.838442	0.961690	-0.000114
1472	1.4636e+02	-18.5947	-51.390719	0.000345	3.446679	1.167766	-0.000138
1473	1.4646e+02	-18.6492	-51.447239	0.000142	1.419221	0.480845	-0.000057
1474	1.4656e+02	-18.6845	-51.548168	0.000253	2.534323	0.858652	-0.000101
1475	1.4666e+02	-18.7166	-51.636985	0.000223	2.230204	0.755614	-0.000089
1476	1.4676e+02	-18.7631	-51.750024	0.000284	2.838442	0.961690	-0.000114
1477	1.4686e+02	-18.8064	-51.899398	0.000375	3.750798	1.270805	-0.000150
1478	1.4696e+02	-18.8433	-51.935733	0.000091	0.912356	0.309115	-0.000037
1479	1.4706e+02	-18.8818	-52.028587	0.000233	2.331577	0.789960	-0.000093
1480	1.4716e+02	-18.9251	-52.113367	0.000213	2.128831	0.721268	-0.000085
1481	1.4726e+02	-18.9572	-52.250629	0.000345	3.446679	1.167766	-0.000138
1482	1.4736e+02	-19.0037	-52.355595	0.000264	2.635696	0.892998	-0.000105
1483	1.4746e+02	-19.0374	-52.408078	0.000132	1.317848	0.446499	-0.000053
1484	1.4756e+02	-19.0840	-52.545340	0.000345	3.446679	1.167766	-0.000138
1485	1.4766e+02	-19.1257	-52.601860	0.000142	1.419221	0.480845	-0.000057
1486	1.4776e+02	-19.1626	-52.747197	0.000365	3.649425	1.236459	-0.000146
1487	1.4786e+02	-19.1979	-52.819865	0.000182	1.824712	0.618229	-0.000073
1488	1.4796e+02	-19.2380	-52.896571	0.000193	1.926085	0.652575	-0.000077
1489	1.4806e+02	-19.2749	-53.021722	0.000314	3.142560	1.064728	-0.000126
1490	1.4816e+02	-19.3294	-53.138799	0.000294	2.939815	0.996036	-0.000118
1491	1.4825e+02	-19.3535	-53.247802	0.000274	2.737069	0.927344	-0.000110
1492	1.4835e+02	-19.3936	-53.316433	0.000172	1.723340	0.583883	-0.000069
1493	1.4845e+02	-19.4321	-53.498104	0.000456	4.561781	1.545573	-0.000183
1494	1.4855e+02	-19.4722	-53.554624	0.000142	1.419221	0.480845	-0.000057
1495	1.4865e+02	-19.5171	-53.635367	0.000203	2.027458	0.686921	-0.000081
1496	1.4875e+02	-19.5492	-53.712072	0.000193	1.926085	0.652575	-0.000077
1497	1.4885e+02	-19.5957	-53.837224	0.000314	3.142560	1.064728	-0.000126
1498	1.4895e+02	-19.6358	-53.926041	0.000223	2.230204	0.755614	-0.000089
1499	1.4905e+02	-19.6727	-54.026969	0.000253	2.534323	0.858652	-0.000101
1500	1.4915e+02	-19.7112	-54.123860	0.000243	2.432950	0.824306	-0.000097
1501	1.4925e+02	-19.7561	-54.285346	0.000405	4.054917	1.373843	-0.000162
1502	1.4935e+02	-19.7994	-54.370126	0.000213	2.128831	0.721268	-0.000085
1503	1.4945e+02	-19.8363	-54.475091	0.000264	2.635696	0.892998	-0.000105
1504	1.4955e+02	-19.8716	-54.531611	0.000142	1.419221	0.480845	-0.000057
1505	1.4965e+02	-19.9069	-54.693096	0.000405	4.054917	1.373843	-0.000162
1506	1.4975e+02	-19.9583	-54.757691	0.000162	1.621967	0.549537	-0.000065
1507	1.4985e+02	-19.9839	-54.874768	0.000294	2.939815	0.996036	-0.000118
1508	1.4995e+02	-19.9551	-54.814210	0.000152	1.520594	0.515191	0.000061
1509	1.5005e+02	-19.9166	-54.745579	0.000172	1.723340	0.583883	0.000069
1510	1.5015e+02	-19.8668	-54.680985	0.000162	1.621967	0.549537	0.000065
1511	1.5025e+02	-19.8331	-54.620428	0.000152	1.520594	0.515191	0.000061
1512	1.5034e+02	-19.7962	-54.547760	0.000182	1.824712	0.618229	0.000073
1513	1.5044e+02	-19.7545	-54.503351	0.000112	1.115102	0.377807	0.000045
1514	1.5054e+02	-19.7144	-54.454905	0.000122	1.216475	0.412153	0.000049
1515	1.5064e+02	-19.6727	-54.386274	0.000172	1.723340	0.583883	0.000069
1516	1.5074e+02	-19.6294	-54.317643	0.000172	1.723340	0.583883	0.000069
1517	1.5084e+02	-19.5973	-54.261123	0.000142	1.419221	0.480845	0.000057
1518	1.5094e+02	-19.5524	-54.180380	0.000203	2.027458	0.686921	0.000081
1519	1.5104e+02	-19.5139	-54.099637	0.000203	2.027458	0.686921	0.000081
1520	1.5114e+02	-19.4690	-54.039080	0.000152	1.520594	0.515191	0.000061
1521	1.5124e+02	-19.4449	-53.994672	0.000112	1.115102	0.377807	0.000045
1522	1.5134e+02	-19.3984	-53.905855	0.000223	2.230204	0.755614	0.000089
1523	1.5144e+02	-19.3519	-53.829149	0.000193	1.926085	0.652575	0.000077
1524	1.5154e+02	-19.3230	-53.728221	0.000253	2.534323	0.858652	0.000101
1525	1.5164e+02	-19.2749	-53.703998	0.000061	0.608237	0.206076	0.000024
1526	1.5174e+02	-19.2348	-53.607107	0.000243	2.432950	0.824306	0.000097
1527	1.5184e+02	-19.1979	-53.546550	0.000152	1.520594	0.515191	0.000061
1528	1.5194e+02	-19.1626	-53.441584	0.000264	2.635696	0.892998	0.000105
1529	1.5204e+02	-19.1128	-53.372953	0.000172	1.723340	0.583883	0.000069
1530	1.5214e+02	-19.0775	-53.332582	0.000101	1.013729	0.343461	0.000041
1531	1.5224e+02	-19.0406	-53.227616	0.000264	2.635696	0.892998	0.000105
1532	1.5233e+02	-18.9957	-53.175133	0.000132	1.317848	0.446499	0.000053
1533	1.5243e+02	-18.9604	-53.098428	0.000193	1.926085	0.652575	0.000077
1534	1.5253e+02	-18.9187	-53.017685	0.000203	2.027458	0.686921	0.000081
1535	1.5263e+02	-18.8754	-52.940980	0.000193	1.926085	0.652575	0.000077
1536	1.5273e+02	-18.8401	-52.884460	0.000142	1.419221	0.480845	0.000057
1537	1.5283e+02	-18.8080	-52.783531	0.000253	2.534323	0.858652	0.000101
1538	1.5293e+02	-18.7551	-52.710863	0.000182	1.824712	0.618229	0.000073
1539	1.5303e+02	-18.7262	-52.658380	0.000132	1.317848	0.446499	0.000053
1540	1.5313e+02	-18.6765	-52.618009	0.000101	1.013729	0.343461	0.000041
1541	1.5323e+02	-18.6332	-52.513043	0.000264	2.635696	0.892998	0.000105
1542	1.5333e+02	-18.6027	-52.440375	0.000182	1.824712	0.618229	0.000073
1543	1.5343e+02	-18.5658	-52.355595	0.000213	2.128831	0.721268	0.000085
1544	1.5353e+02	-18.5193	-52.303112	0.000132	1.317848	0.446499	0.000053
1545	1.5363e+02	-18.4776	-52.186035	0.000294	2.939815	0.996036	0.000118
1546	1.5373e+02	-18.4455	-52.109330	0.000193	1.926085	0.652575	0.000077
1547	1.5383e+02	-18.3973	-52.097218	0.000030	0.304119	0.103038	0.000012
1548	1.5393e+02	-18.3588	-52.024550	0.000182	1.824712	0.618229	0.000073
1549	1.5403e+02	-18.3235	-51.947844	0.000193	1.926085	0.652575	0.000077
1550	1.5413e+02	-18.2899	-51.814619	0.000335	3.345306	1.133420	0.000134
1551	1.5422e+02	-18.2401	-51.745987	0.000172	1.723340	0.583883	0.000069
1552	1.5432e+02	-18.2016	-51.693505	0.000132	1.317848	0.446499	0.000053
1553	1.5442e+02	-18.1647	-51.620836	0.000182	1.824712	0.618229	0.000073
1554	1.5452e+02	-18.1182	-51.544131	0.000193	1.926085	0.652575	0.000077
1555	1.5462e+02	-18.0829	-51.467425	0.000193	1.926085	0.652575	0.000077
1556	1.5472e+02	-18.0460	-51.406868	0.000152	1.520594	0.515191	0.000061
1557	1.5482e+02	-18.0011	-51.293828	0.000284	2.838442	0.961690	0.000114
1558	1.5492e+02	-17.9690	-51.221160	0.000182	1.824712	0.618229	0.000073
1559	1.5502e+02	-17.9193	-51.128306	0.000233	2.331577	0.789960	0.000093
1560	1.5512e+02	-17.8824	-51.027377	0.000253	2.534323	0.858652	0.000101
1561	1.5522e+02	-17.8439	-50.942597	0.000213	2.128831	0.721268	0.000085
1562	1.5532e+02	-17.8022	-50.886077	0.000142	1.419221	0.480845	0.000057
1563	1.5542e+02	-17.7653	-50.805335	0.000203	2.027458	0.686921	0.000081
1564	1.5552e+02	-17.7268	-50.708443	0.000243	2.432950	0.824306	0.000097
1565	1.5562e+02	-17.6835	-50.659998	0.000122	1.216475	0.412153	0.000049
1566	1.5572e+02	-17.6385	-50.526772	0.000335	3.345306	1.133420	0.000134
1567	1.5582e+02	-17.6161	-50.478327	0.000122	1.216475	0.412153	0.000049
1568	1.5592e+02	-17.5615	-50.397584	0.000203	2.027458	0.686921	0.000081
1569	1.5602e+02	-17.5214	-50.308767	0.000223	2.230204	0.755614	0.000089
1570	1.5612e+02	-17.4861	-50.203801	0.000264	2.635696	0.892998	0.000105
1571	1.5622e+02	-17.4508	-50.155356	0.000122	1.216475	0.412153	0.000049
1572	1.5631e+02	-17.4059	-50.050390	0.000264	2.635696	0.892998	0.000105
1573	1.5641e+02	-17.3658	-49.977722	0.000182	1.824712	0.618229	0.000073
1574	1.5651e+02	-17.3225	-49.864682	0.000284	2.838442	0.961690	0.000114
1575	1.5661e+02	-17.2808	-49.832385	0.000081	0.810983	0.274769	0.000032
1576	1.5671e+02	-17.2439	-49.699160	0.000335	3.345306	1.133420	0.000134
1577	1.5681e+02	-17.2118	-49.634565	0.000162	1.621967	0.549537	0.000065
1578	1.5691e+02	-17.1589	-49.541711	0.000233	2.331577	0.789960	0.000093
1579	1.5701e+02	-17.1188	-49.477117	0.000162	1.621967	0.549537	0.000065
1580	1.5711e+02	-17.0899	-49.372152	0.000264	2.635696	0.892998	0.000105
1581	1.5721e+02	-17.0450	-49.283335	0.000223	2.230204	0.755614	0.000089
1582	1.5731e+02	-17.0001	-49.182406	0.000253	2.534323	0.858652	0.000101
1583	1.5741e+02	-16.9744	-49.129923	0.000132	1.317848	0.446499	0.000053
1584	1.5751e+02	-16.9295	-48.992661	0.000345	3.446679	1.167766	0.000138
1585	1.5761e+02	-16.8749	-48.907881	0.000213	2.128831	0.721268	0.000085
1586	1.5771e+02	-16.8605	-48.867510	0.000101	1.013729	0.343461	0.000041
1587	1.5781e+02	-16.8092	-48.778693	0.000223	2.230204	0.755614	0.000089
1588	1.5791e+02	-16.7755	-48.665653	0.000284	2.838442	0.961690	0.000114
1589	1.5801e+02	-16.7305	-48.597021	0.000172	1.723340	0.583883	0.000069
1590	1.5811e+02	-16.6872	-48.504167	0.000233	2.331577	0.789960	0.000093
1591	1.5821e+02	-16.6391	-48.403239	0.000253	2.534323	0.858652	0.000101
1592	1.5830e+02	-16.6086	-48.350756	0.000132	1.317848	0.446499	0.000053
1593	1.5840e+02	-16.5765	-48.233679	0.000294	2.939815	0.996036	0.000118
1594	1.5850e+02	-16.5236	-48.152937	0.000203	2.027458	0.686921	0.000081
1595	1.5860e+02	-16.4931	-48.072194	0.000203	2.027458	0.686921	0.000081
1596	1.5870e+02	-16.4434	-48.015674	0.000142	1.419221	0.480845	0.000057
1597	1.5880e+02	-16.4033	-47.894560	0.000304	3.041187	1.030382	0.000122
1598	1.5890e+02	-16.3712	-47.825929	0.000172	1.723340	0.583883	0.000069
1599	1.5900e+02	-16.3247	-47.696740	0.000324	3.243933	1.099074	0.000130
1600	1.5910e+02	-16.2878	-47.611960	0.000213	2.128831	0.721268	0.000085
1601	1.5920e+02	-16.2461	-47.511032	0.000253	2.534323	0.858652	0.000101
1602	1.5930e+02	-16.2060	-47.442401	0.000172	1.723340	0.583883	0.000069
1603	1.5940e+02	-16.1626	-47.337435	0.000264	2.635696	0.892998	0.000105
1604	1.5950e+02	-16.1241	-47.301101	0.000091	0.912356	0.309115	0.000037
1605	1.5960e+02	-16.0889	-47.220358	0.000203	2.027458	0.686921	0.000081
1606	1.5970e+02	-16.0568	-47.095207	0.000314	3.142560	1.064728	0.000126
1607	1.5980e+02	-16.0151	-47.026576	0.000172	1.723340	0.583883	0.000069
1608	1.5990e+02	-15.9653	-46.913536	0.000284	2.838442	0.961690	0.000114
1609	1.6000e+02	-15.9348	-46.852979	0.000152	1.520594	0.515191	0.000061
1610	1.6010e+02	-15.8867	-46.703605	0.000375	3.750798	1.270805	0.000150
1611	1.6019e+02	-15.8482	-46.647085	0.000142	1.419221	0.480845	0.000057
1612	1.6029e+02	-15.8113	-46.590565	0.000142	1.419221	0.480845	0.000057
1613	1.6039e+02	-15.7664	-46.509822	0.000203	2.027458	0.686921	0.000081
1614	1.6049e+02	-15.7295	-46.348337	0.000405	4.054917	1.373843	0.000162
1615	1.6059e+02	-15.6878	-46.275668	0.000182	1.824712	0.618229	0.000073
1616	1.6069e+02	-15.6445	-46.190889	0.000213	2.128831	0.721268	0.000085
1617	1.6079e+02	-15.6060	-46.098034	0.000233	2.331577	0.789960	0.000093
1618	1.6089e+02	-15.5787	-46.001143	0.000243	2.432950	0.824306	0.000097
1619	1.6099e+02	-15.5306	-45.916363	0.000213	2.128831	0.721268	0.000085
1620	1.6109e+02	-15.4937	-45.819472	0.000243	2.432950	0.824306	0.000097
1621	1.6119e+02	-15.4520	-45.722581	0.000243	2.432950	0.824306	0.000097
1622	1.6129e+02	-15.4103	-45.637801	0.000213	2.128831	0.721268	0.000085
1623	1.6139e+02	-15.3798	-45.524761	0.000284	2.838442	0.961690	0.000114
1624	1.6149e+02	-15.3381	-45.448056	0.000193	1.926085	0.652575	0.000077
1625	1.6159e+02	-15.2980	-45.330979	0.000294	2.939815	0.996036	0.000118
1626	1.6169e+02	-15.2450	-45.217939	0.000284	2.838442	0.961690	0.000114
1627	1.6179e+02	-15.2113	-45.133159	0.000213	2.128831	0.721268	0.000085
1628	1.6189e+02	-15.1760	-45.092788	0.000101	1.013729	0.343461	0.000041
1629	1.6199e+02	-15.1327	-44.931302	0.000405	4.054917	1.373843	0.000162
1630	1.6209e+02	-15.0926	-44.874782	0.000142	1.419221	0.480845	0.000057
1631	1.6219e+02	-15.0573	-44.745594	0.000324	3.243933	1.099074	0.000130
1632	1.6228e+02	-15.0140	-44.689074	0.000142	1.419221	0.480845	0.000057
1633	1.6238e+02	-14.9739	-44.559886	0.000324	3.243933	1.099074	0.000130
1634	1.6248e+02	-14.9338	-44.487217	0.000182	1.824712	0.618229	0.000073
1635	1.6258e+02	-14.8873	-44.378215	0.000274	2.737069	0.927344	0.000110
1636	1.6268e+02	-14.8504	-44.313620	0.000162	1.621967	0.549537	0.000065
1637	1.6278e+02	-14.8103	-44.236915	0.000193	1.926085	0.652575	0.000077
1638	1.6288e+02	-14.7750	-44.123875	0.000284	2.838442	0.961690	0.000114
1639	1.6298e+02	-14.7301	-44.022947	0.000253	2.534323	0.858652	0.000101
1640	1.6308e+02	-14.6948	-43.926055	0.000243	2.432950	0.824306	0.000097
1641	1.6318e+02	-14.6515	-43.841276	0.000213	2.128831	0.721268	0.000085
1642	1.6328e+02	-14.6017	-43.756496	0.000213	2.128831	0.721268	0.000085
1643	1.6338e+02	-14.5825	-43.671716	0.000213	2.128831	0.721268	0.000085
1644	1.6348e+02	-14.5392	-43.578862	0.000233	2.331577	0.789960	0.000093
1645	1.6358e+02	-14.4958	-43.486008	0.000233	2.331577	0.789960	0.000093
1646	1.6368e+02	-14.4590	-43.364894	0.000304	3.041187	1.030382	0.000122
1647	1.6378e+02	-14.4204	-43.300299	0.000162	1.621967	0.549537	0.000065
1648	1.6388e+02	-14.3723	-43.203408	0.000243	2.432950	0.824306	0.000097
1649	1.6398e+02	-14.3354	-43.102480	0.000253	2.534323	0.858652	0.000101
1650	1.6408e+02	-14.2985	-43.013663	0.000223	2.230204	0.755614	0.000089
1651	1.6418e+02	-14.2536	-42.920809	0.000233	2.331577	0.789960	0.000093
1652	1.6427e+02	-14.2167	-42.872363	0.000122	1.216475	0.412153	0.000049
1653	1.6437e+02	-14.1766	-42.731063	0.000355	3.548052	1.202113	0.000142
1654	1.6447e+02	-14.1461	-42.630135	0.000253	2.534323	0.858652	0.000101
1655	1.6457e+02	-14.0884	-42.577652	0.000132	1.317848	0.446499	0.000053
1656	1.6467e+02	-14.0611	-42.432315	0.000365	3.649425	1.236459	0.000146
1657	1.6477e+02	-14.0114	-42.359647	0.000182	1.824712	0.618229	0.000073
1658	1.6487e+02	-13.9857	-42.254681	0.000264	2.635696	0.892998	0.000105
1659	1.6497e+02	-13.9376	-42.198161	0.000142	1.419221	0.480845	0.000057
1660	1.6507e+02	-13.8911	-42.089159	0.000274	2.737069	0.927344	0.000110
1661	1.6517e+02	-13.8638	-42.016490	0.000182	1.824712	0.618229	0.000073
1662	1.6527e+02	-13.8205	-41.891339	0.000314	3.142560	1.064728	0.000126
1663	1.6537e+02	-13.7820	-41.786373	0.000264	2.635696	0.892998	0.000105
1664	1.6547e+02	-13.7370	-41.713705	0.000182	1.824712	0.618229	0.000073
1665	1.6557e+02	-13.6985	-41.620851	0.000233	2.331577	0.789960	0.000093
1666	1.6567e+02	-13.6536	-41.507811	0.000284	2.838442	0.961690	0.000114
1667	1.6577e+02	-13.6151	-41.467440	0.000101	1.013729	0.343461	0.000041
1668	1.6587e+02	-13.5766	-41.382660	0.000213	2.128831	0.721268	0.000085
1669	1.6597e+02	-13.5365	-41.269620	0.000284	2.838442	0.961690	0.000114
1670	1.6607e+02	-13.5060	-41.188877	0.000203	2.027458	0.686921	0.000081
1671	1.6616e+02	-13.4611	-41.100060	0.000223	2.230204	0.755614	0.000089
1672	1.6626e+02	-13.4194	-41.003169	0.000243	2.432950	0.824306	0.000097
1673	1.6636e+02	-13.3793	-40.958761	0.000112	1.115102	0.377807	0.000045
1674	1.6646e+02	-13.3360	-40.801312	0.000395	3.953544	1.339497	0.000158
1675	1.6656e+02	-13.2943	-40.728644	0.000182	1.824712	0.618229	0.000073
1676	1.6666e+02	-13.2558	-40.611567	0.000294	2.939815	0.996036	0.000118
1677	1.6676e+02	-13.2253	-40.555047	0.000142	1.419221	0.480845	0.000057
1678	1.6686e+02	-13.1772	-40.401636	0.000385	3.852171	1.305151	0.000154
1679	1.6696e+02	-13.1387	-40.357227	0.000112	1.115102	0.377807	0.000045
1680	1.6706e+02	-13.1082	-40.228039	0.000324	3.243933	1.099074	0.000130
1681	1.6716e+02	-13.0617	-40.175556	0.000132	1.317848	0.446499	0.000053
1682	1.6726e+02	-13.0312	-40.066554	0.000274	2.737069	0.927344	0.000110
1683	1.6736e+02	-12.9782	-39.989848	0.000193	1.926085	0.652575	0.000077
1684	1.6746e+02	-12.9430	-39.901031	0.000223	2.230204	0.755614	0.000089
1685	1.6756e+02	-12.8996	-39.779917	0.000304	3.041187	1.030382	0.000122
1686	1.6766e+02	-12.8643	-39.731471	0.000122	1.216475	0.412153	0.000049
1687	1.6776e+02	-12.8194	-39.598246	0.000335	3.345306	1.133420	0.000134
1688	1.6786e+02	-12.7857	-39.521540	0.000193	1.926085	0.652575	0.000077
1689	1.6796e+02	-12.7440	-39.452909	0.000172	1.723340	0.583883	0.000069
1690	1.6806e+02	-12.6991	-39.343906	0.000274	2.737069	0.927344	0.000110
1691	1.6816e+02	-12.6606	-39.238941	0.000264	2.635696	0.892998	0.000105
1692	1.6825e+02	-12.6173	-39.162235	0.000193	1.926085	0.652575	0.000077
1693	1.6835e+02	-12.5852	-39.037084	0.000314	3.142560	1.064728	0.000126
1694	1.6845e+02	-12.5499	-38.972490	0.000162	1.621967	0.549537	0.000065
1695	1.6855e+02	-12.4986	-38.891747	0.000203	2.027458	0.686921	0.000081
1696	1.6865e+02	-12.4681	-38.819079	0.000182	1.824712	0.618229	0.000073
1697	1.6875e+02	-12.4248	-38.714113	0.000264	2.635696	0.892998	0.000105
1698	1.6885e+02	-12.3831	-38.592999	0.000304	3.041187	1.030382	0.000122
1699	1.6895e+02	-12.3414	-38.488034	0.000264	2.635696	0.892998	0.000105
1700	1.6905e+02	-12.2980	-38.415365	0.000182	1.824712	0.618229	0.000073
1701	1.6915e+02	-12.2676	-38.350771	0.000162	1.621967	0.549537	0.000065
1702	1.6925e+02	-12.2323	-38.241768	0.000274	2.737069	0.927344	0.000110
1703	1.6935e+02	-12.1906	-38.112580	0.000324	3.243933	1.099074	0.000130
1704	1.6945e+02	-12.1392	-38.068171	0.000112	1.115102	0.377807	0.000045
1705	1.6955e+02	-12.1039	-37.967243	0.000253	2.534323	0.858652	0.000101
1706	1.6965e+02	-12.0686	-37.906686	0.000152	1.520594	0.515191	0.000061
1707	1.6975e+02	-12.0301	-37.793646	0.000284	2.838442	0.961690	0.000114
1708	1.6985e+02	-11.9900	-37.720978	0.000182	1.824712	0.618229	0.000073
1709	1.6995e+02	-11.9531	-37.599864	0.000304	3.041187	1.030382	0.000122
1710	1.7005e+02	-11.9050	-37.535270	0.000162	1.621967	0.549537	0.000065
1711	1.7015e+02	-11.8601	-37.450490	0.000213	2.128831	0.721268	0.000085
1712	1.7024e+02	-11.8280	-37.305153	0.000365	3.649425	1.236459	0.000146
1713	1.7034e+02	-11.7863	-37.228447	0.000193	1.926085	0.652575	0.000077
1714	1.7044e+02	-11.7494	-37.107333	0.000304	3.041187	1.030382	0.000122
1715	1.7054e+02	-11.7093	-37.083110	0.000061	0.608237	0.206076	0.000024
1716	1.7064e+02	-11.6692	-36.941811	0.000355	3.548052	1.202113	0.000142
1717	1.7074e+02	-11.6259	-36.844919	0.000243	2.432950	0.824306	0.000097
1718	1.7084e+02	-11.5922	-36.739954	0.000264	2.635696	0.892998	0.000105
1719	1.7094e+02	-11.5521	-36.687471	0.000132	1.317848	0.446499	0.000053
1720	1.7104e+02	-11.5104	-36.598654	0.000223	2.230204	0.755614	0.000089
1721	1.7114e+02	-11.4622	-36.489651	0.000274	2.737069	0.927344	0.000110
1722	1.7124e+02	-11.4237	-36.404872	0.000213	2.128831	0.721268	0.000085
1723	1.7134e+02	-11.3884	-36.307980	0.000243	2.432950	0.824306	0.000097
1724	1.7144e+02	-11.3467	-36.194940	0.000284	2.838442	0.961690	0.000114
1725	1.7154e+02	-11.3002	-36.106123	0.000223	2.230204	0.755614	0.000089
1726	1.7164e+02	-11.2665	-36.001158	0.000264	2.635696	0.892998	0.000105
1727	1.7174e+02	-11.2360	-35.920415	0.000203	2.027458	0.686921	0.000081
1728	1.7184e+02	-11.1911	-35.819487	0.000253	2.534323	0.858652	0.000101
1729	1.7194e+02	-11.1494	-35.750856	0.000172	1.723340	0.583883	0.000069
1730	1.7204e+02	-11.1157	-35.633779	0.000294	2.939815	0.996036	0.000118
1731	1.7213e+02	-11.0628	-35.536887	0.000243	2.432950	0.824306	0.000097
1732	1.7223e+02	-11.0275	-35.419810	0.000294	2.939815	0.996036	0.000118
1733	1.7233e+02	-10.9906	-35.330993	0.000223	2.230204	0.755614	0.000089
1734	1.7243e+02	-10.9473	-35.266399	0.000162	1.621967	0.549537	0.000065
1735	1.7253e+02	-10.9136	-35.141248	0.000314	3.142560	1.064728	0.000126
1736	1.7263e+02	-10.8719	-35.024171	0.000294	2.939815	0.996036	0.000118
1737	1.7273e+02	-10.8302	-34.971688	0.000132	1.317848	0.446499	0.000053
1738	1.7283e+02	-10.7756	-34.854611	0.000294	2.939815	0.996036	0.000118
1739	1.7293e+02	-10.7548	-34.757720	0.000243	2.432950	0.824306	0.000097
1740	1.7303e+02	-10.7050	-34.664866	0.000233	2.331577	0.789960	0.000093
1741	1.7313e+02	-10.6714	-34.531641	0.000335	3.345306	1.133420	0.000134
1742	1.7323e+02	-10.6345	-34.446861	0.000213	2.128831	0.721268	0.000085
1743	1.7333e+02	-10.5944	-34.325747	0.000304	3.041187	1.030382	0.000122
1744	1.7343e+02	-10.5494	-34.228855	0.000243	2.432950	0.824306	0.000097
1745	1.7353e+02	-10.5141	-34.152150	0.000193	1.926085	0.652575	0.000077
1746	1.7363e+02	-10.4740	-34.051221	0.000253	2.534323	0.858652	0.000101
1747	1.7373e+02	-10.4275	-33.934144	0.000294	2.939815	0.996036	0.000118
1748	1.7383e+02	-10.3906	-33.821105	0.000284	2.838442	0.961690	0.000114
1749	1.7393e+02	-10.3633	-33.740362	0.000203	2.027458	0.686921	0.000081
1750	1.7403e+02	-10.3168	-33.667693	0.000182	1.824712	0.618229	0.000073
1751	1.7413e+02	-10.2639	-33.542542	0.000314	3.142560	1.064728	0.000126
1752	1.7422e+02	-10.2350	-33.437577	0.000264	2.635696	0.892998	0.000105
1753	1.7432e+02	-10.1997	-33.364908	0.000182	1.824712	0.618229	0.000073
1754	1.7442e+02	-10.1580	-33.263980	0.000253	2.534323	0.858652	0.000101
1755	1.7452e+02	-10.1099	-33.138829	0.000314	3.142560	1.064728	0.000126
1756	1.7462e+02	-10.0810	-33.041937	0.000243	2.432950	0.824306	0.000097
1757	1.7472e+02	-10.0329	-32.936972	0.000264	2.635696	0.892998	0.000105
1758	1.7482e+02	-9.9831	-32.836044	0.000253	2.534323	0.858652	0.000101
1759	1.7492e+02	-9.9543	-32.723004	0.000284	2.838442	0.961690	0.000114
1760	1.7502e+02	-9.9093	-32.634187	0.000223	2.230204	0.755614	0.000089
1761	1.7512e+02	-9.8692	-32.541333	0.000233	2.331577	0.789960	0.000093
1762	1.7522e+02	-9.8323	-32.432330	0.000274	2.737069	0.927344	0.000110
1763	1.7532e+02	-9.7938	-32.327364	0.000264	2.635696	0.892998	0.000105
1764	1.7542e+02	-9.7569	-32.206250	0.000304	3.041187	1.030382	0.000122
1765	1.7552e+02	-9.7233	-32.117433	0.000223	2.230204	0.755614	0.000089
1766	1.7562e+02	-9.6783	-31.992282	0.000314	3.142560	1.064728	0.000126
1767	1.7572e+02	-9.6334	-31.899428	0.000233	2.331577	0.789960	0.000093
1768	1.7582e+02	-9.5965	-31.802537	0.000243	2.432950	0.824306	0.000097
1769	1.7592e+02	-9.5580	-31.693534	0.000274	2.737069	0.927344	0.000110
1770	1.7602e+02	-9.5099	-31.649126	0.000112	1.115102	0.377807	0.000045
1771	1.7612e+02	-9.4762	-31.519937	0.000324	3.243933	1.099074	0.000130
1772	1.7621e+02	-9.4249	-31.394786	0.000314	3.142560	1.064728	0.000126
1773	1.7631e+02	-9.3928	-31.314043	0.000203	2.027458	0.686921	0.000081
1774	1.7641e+02	-9.3543	-31.213115	0.000253	2.534323	0.858652	0.000101
1775	1.7651e+02	-9.3190	-31.083927	0.000324	3.243933	1.099074	0.000130
1776	1.7661e+02	-9.2741	-30.982998	0.000253	2.534323	0.858652	0.000101
1777	1.7671e+02	-9.2404	-30.886107	0.000243	2.432950	0.824306	0.000097
1778	1.7681e+02	-9.1906	-30.817476	0.000172	1.723340	0.583883	0.000069
1779	1.7691e+02	-9.1521	-30.676176	0.000355	3.548052	1.202113	0.000142
1780	1.7701e+02	-9.1072	-30.603507	0.000182	1.824712	0.618229	0.000073
1781	1.7711e+02	-9.0784	-30.437985	0.000416	4.156290	1.408189	0.000166
1782	1.7721e+02	-9.0318	-30.365316	0.000182	1.824712	0.618229	0.000073
1783	1.7731e+02	-9.0046	-30.296685	0.000172	1.723340	0.583883	0.000069
1784	1.7741e+02	-8.9596	-30.167497	0.000324	3.243933	1.099074	0.000130
1785	1.7751e+02	-8.9147	-30.046383	0.000304	3.041187	1.030382	0.000122
1786	1.7761e+02	-8.8826	-29.921232	0.000314	3.142560	1.064728	0.000126
1787	1.7771e+02	-8.8361	-29.820303	0.000253	2.534323	0.858652	0.000101
1788	1.7781e+02	-8.8072	-29.691115	0.000324	3.243933	1.099074	0.000130
1789	1.7791e+02	-8.7559	-29.622483	0.000172	1.723340	0.583883	0.000069
1790	1.7801e+02	-8.7190	-29.505407	0.000294	2.939815	0.996036	0.000118
1791	1.7810e+02	-8.6773	-29.347958	0.000395	3.953544	1.339497	0.000158
1792	1.7820e+02	-8.6452	-29.275290	0.000182	1.824712	0.618229	0.000073
1793	1.7830e+02	-8.5939	-29.190510	0.000213	2.128831	0.721268	0.000085
1794	1.7840e+02	-8.5650	-29.065359	0.000314	3.142560	1.064728	0.000126
1795	1.7850e+02	-8.5185	-28.960393	0.000264	2.635696	0.892998	0.000105
1796	1.7860e+02	-8.4832	-28.871576	0.000223	2.230204	0.755614	0.000089
1797	1.7870e+02	-8.4383	-28.722202	0.000375	3.750798	1.270805	0.000150
1798	1.7880e+02	-8.4046	-28.653571	0.000172	1.723340	0.583883	0.000069
1799	1.7890e+02	-8.3597	-28.556680	0.000243	2.432950	0.824306	0.000097
1800	1.7900e+02	-8.3244	-28.419417	0.000345	3.446679	1.167766	0.000138
1801	1.7910e+02	-8.2810	-28.310414	0.000274	2.737069	0.927344	0.000110
1802	1.7920e+02	-8.2425	-28.201412	0.000274	2.737069	0.927344	0.000110
1803	1.7930e+02	-8.1960	-28.084335	0.000294	2.939815	0.996036	0.000118
1804	1.7940e+02	-8.1559	-27.975332	0.000274	2.737069	0.927344	0.000110
1805	1.7950e+02	-8.1286	-27.862292	0.000284	2.838442	0.961690	0.000114
1806	1.7960e+02	-8.0773	-27.781550	0.000203	2.027458	0.686921	0.000081
1807	1.7970e+02	-8.0404	-27.680621	0.000253	2.534323	0.858652	0.000101
1808	1.7980e+02	-8.0003	-27.571619	0.000274	2.737069	0.927344	0.000110
1809	1.7990e+02	-7.9634	-27.470690	0.000253	2.534323	0.858652	0.000101
1810	1.8000e+02	-7.9185	-27.353613	0.000294	2.939815	0.996036	0.000118
1811	1.8009e+02	-7.8768	-27.236536	0.000294	2.939815	0.996036	0.000118
1812	1.8019e+02	-7.8463	-27.135608	0.000253	2.534323	0.858652	0.000101
1813	1.8029e+02	-7.8078	-27.010457	0.000314	3.142560	1.064728	0.000126
1814	1.8039e+02	-7.7597	-26.941825	0.000172	1.723340	0.583883	0.000069
1815	1.8049e+02	-7.7276	-26.800526	0.000355	3.548052	1.202113	0.000142
1816	1.8059e+02	-7.6843	-26.723820	0.000193	1.926085	0.652575	0.000077
1817	1.8069e+02	-7.6442	-26.622892	0.000253	2.534323	0.858652	0.000101
1818	1.8079e+02	-7.5993	-26.505815	0.000294	2.939815	0.996036	0.000118
1819	1.8089e+02	-7.5575	-26.396812	0.000274	2.737069	0.927344	0.000110
1820	1.8099e+02	-7.5287	-26.259549	0.000345	3.446679	1.167766	0.000138
1821	1.8109e+02	-7.4902	-26.194955	0.000162	1.621967	0.549537	0.000065
1822	1.8119e+02	-7.4404	-26.089990	0.000264	2.635696	0.892998	0.000105
1823	1.8129e+02	-7.4003	-25.944653	0.000365	3.649425	1.236459	0.000146
1824	1.8139e+02	-7.3618	-25.904281	0.000101	1.013729	0.343461	0.000041
1825	1.8149e+02	-7.3297	-25.795279	0.000274	2.737069	0.927344	0.000110
1826	1.8159e+02	-7.2736	-25.674165	0.000304	3.041187	1.030382	0.000122
1827	1.8169e+02	-7.2495	-25.528828	0.000365	3.649425	1.236459	0.000146
1828	1.8179e+02	-7.1934	-25.472308	0.000142	1.419221	0.480845	0.000057
1829	1.8189e+02	-7.1661	-25.351194	0.000304	3.041187	1.030382	0.000122
1830	1.8199e+02	-7.1244	-25.266414	0.000213	2.128831	0.721268	0.000085
1831	1.8209e+02	-7.0811	-25.141263	0.000314	3.142560	1.064728	0.000126
1832	1.8218e+02	-7.0442	-25.024186	0.000294	2.939815	0.996036	0.000118
1833	1.8228e+02	-7.0041	-24.979777	0.000112	1.115102	0.377807	0.000045
1834	1.8238e+02	-6.9672	-24.814255	0.000416	4.156290	1.408189	0.000166
1835	1.8248e+02	-6.9255	-24.705252	0.000274	2.737069	0.927344	0.000110
1836	1.8258e+02	-6.8838	-24.596249	0.000274	2.737069	0.927344	0.000110
1837	1.8268e+02	-6.8453	-24.499358	0.000243	2.432950	0.824306	0.000097
1838	1.8278e+02	-6.8052	-24.430727	0.000172	1.723340	0.583883	0.000069
1839	1.8288e+02	-6.7731	-24.297501	0.000335	3.345306	1.133420	0.000134
1840	1.8298e+02	-6.7233	-24.188499	0.000274	2.737069	0.927344	0.000110
1841	1.8308e+02	-6.6913	-24.051236	0.000345	3.446679	1.167766	0.000138
1842	1.8318e+02	-6.6528	-23.970493	0.000203	2.027458	0.686921	0.000081
1843	1.8328e+02	-6.6126	-23.845342	0.000314	3.142560	1.064728	0.000126
1844	1.8338e+02	-6.5661	-23.752488	0.000233	2.331577	0.789960	0.000093
1845	1.8348e+02	-6.5212	-23.611188	0.000355	3.548052	1.202113	0.000142
1846	1.8358e+02	-6.4891	-23.566780	0.000112	1.115102	0.377807	0.000045
1847	1.8368e+02	-6.4458	-23.465851	0.000253	2.534323	0.858652	0.000101
1848	1.8378e+02	-6.4121	-23.352812	0.000284	2.838442	0.961690	0.000114
1849	1.8388e+02	-6.3688	-23.268032	0.000213	2.128831	0.721268	0.000085
1850	1.8398e+02	-6.3271	-23.154992	0.000284	2.838442	0.961690	0.000114
1851	1.8407e+02	-6.2902	-23.033878	0.000304	3.041187	1.030382	0.000122
1852	1.8417e+02	-6.2597	-22.969284	0.000162	1.621967	0.549537	0.000065
1853	1.8427e+02	-6.2116	-22.836058	0.000335	3.345306	1.133420	0.000134
1854	1.8437e+02	-6.1715	-22.714944	0.000304	3.041187	1.030382	0.000122
1855	1.8447e+02	-6.1362	-22.654387	0.000152	1.520594	0.515191	0.000061
1856	1.8457e+02	-6.0977	-22.500976	0.000385	3.852171	1.305151	0.000154
1857	1.8467e+02	-6.0496	-22.436382	0.000162	1.621967	0.549537	0.000065
1858	1.8477e+02	-6.0079	-22.282971	0.000385	3.852171	1.305151	0.000154
1859	1.8487e+02	-5.9774	-22.190117	0.000233	2.331577	0.789960	0.000093
1860	1.8497e+02	-5.9308	-22.089188	0.000253	2.534323	0.858652	0.000101
1861	1.8507e+02	-5.8907	-21.972111	0.000294	2.939815	0.996036	0.000118
1862	1.8517e+02	-5.8474	-21.863109	0.000274	2.737069	0.927344	0.000110
1863	1.8527e+02	-5.8121	-21.766217	0.000243	2.432950	0.824306	0.000097
1864	1.8537e+02	-5.7752	-21.653178	0.000284	2.838442	0.961690	0.000114
1865	1.8547e+02	-5.7287	-21.548212	0.000264	2.635696	0.892998	0.000105
1866	1.8557e+02	-5.6950	-21.431135	0.000294	2.939815	0.996036	0.000118
1867	1.8567e+02	-5.6437	-21.346355	0.000213	2.128831	0.721268	0.000085
1868	1.8577e+02	-5.6244	-21.229278	0.000294	2.939815	0.996036	0.000118
1869	1.8587e+02	-5.5779	-21.120276	0.000274	2.737069	0.927344	0.000110
1870	1.8597e+02	-5.5298	-21.019347	0.000253	2.534323	0.858652	0.000101
1871	1.8606e+02	-5.4961	-20.902270	0.000294	2.939815	0.996036	0.000118
1872	1.8616e+02	-5.4592	-20.849788	0.000132	1.317848	0.446499	0.000053
1873	1.8626e+02	-5.4239	-20.696376	0.000385	3.852171	1.305151	0.000154
1874	1.8636e+02	-5.3790	-20.603522	0.000233	2.331577	0.789960	0.000093
1875	1.8646e+02	-5.3341	-20.506631	0.000243	2.432950	0.824306	0.000097
1876	1.8656e+02	-5.2843	-20.421851	0.000213	2.128831	0.721268	0.000085
1877	1.8666e+02	-5.2539	-20.288626	0.000335	3.345306	1.133420	0.000134
1878	1.8676e+02	-5.2138	-20.195772	0.000233	2.331577	0.789960	0.000093
1879	1.8686e+02	-5.1801	-20.127140	0.000172	1.723340	0.583883	0.000069
1880	1.8696e+02	-5.1255	-19.977766	0.000375	3.750798	1.270805	0.000150
1881	1.8706e+02	-5.0918	-19.860689	0.000294	2.939815	0.996036	0.000118
1882	1.8716e+02	-5.0533	-19.792058	0.000172	1.723340	0.583883	0.000069
1883	1.8726e+02	-5.0229	-19.662870	0.000324	3.243933	1.099074	0.000130
1884	1.8736e+02	-4.9763	-19.549830	0.000284	2.838442	0.961690	0.000114
1885	1.8746e+02	-4.9266	-19.465050	0.000213	2.128831	0.721268	0.000085
1886	1.8756e+02	-4.9057	-19.347973	0.000294	2.939815	0.996036	0.000118
1887	1.8766e+02	-4.8640	-19.275305	0.000182	1.824712	0.618229	0.000073
1888	1.8776e+02	-4.8207	-19.121893	0.000385	3.852171	1.305151	0.000154
1889	1.8786e+02	-4.7758	-19.029039	0.000233	2.331577	0.789960	0.000093
1890	1.8796e+02	-4.7341	-18.903888	0.000314	3.142560	1.064728	0.000126
1891	1.8806e+02	-4.6988	-18.811034	0.000233	2.331577	0.789960	0.000093
1892	1.8815e+02	-4.6587	-18.730291	0.000203	2.027458	0.686921	0.000081
1893	1.8825e+02	-4.6266	-18.593029	0.000345	3.446679	1.167766	0.000138
1894	1.8835e+02	-4.5689	-18.504212	0.000223	2.230204	0.755614	0.000089
1895	1.8845e+02	-4.5416	-18.395209	0.000274	2.737069	0.927344	0.000110
1896	1.8855e+02	-4.5047	-18.253909	0.000355	3.548052	1.202113	0.000142
1897	1.8865e+02	-4.4646	-18.144907	0.000274	2.737069	0.927344	0.000110
1898	1.8875e+02	-4.4213	-18.027830	0.000294	2.939815	0.996036	0.000118
1899	1.8885e+02	-4.3828	-17.930938	0.000243	2.432950	0.824306	0.000097
1900	1.8895e+02	-4.3394	-17.834047	0.000243	2.432950	0.824306	0.000097
1901	1.8905e+02	-4.3074	-17.692747	0.000355	3.548052	1.202113	0.000142
1902	1.8915e+02	-4.2560	-17.591819	0.000253	2.534323	0.858652	0.000101
1903	1.8925e+02	-4.2079	-17.507039	0.000213	2.128831	0.721268	0.000085
1904	1.8935e+02	-4.1774	-17.377851	0.000324	3.243933	1.099074	0.000130
1905	1.8945e+02	-4.1373	-17.236551	0.000355	3.548052	1.202113	0.000142
1906	1.8955e+02	-4.0972	-17.151771	0.000213	2.128831	0.721268	0.000085
1907	1.8965e+02	-4.0635	-17.071028	0.000203	2.027458	0.686921	0.000081
1908	1.8975e+02	-4.0282	-16.909543	0.000405	4.054917	1.373843	0.000162
1909	1.8985e+02	-3.9833	-16.836875	0.000182	1.824712	0.618229	0.000073
1910	1.8995e+02	-3.9384	-16.691538	0.000365	3.649425	1.236459	0.000146
1911	1.9004e+02	-3.9015	-16.574461	0.000294	2.939815	0.996036	0.000118
1912	1.9014e+02	-3.8550	-16.481607	0.000233	2.331577	0.789960	0.000093
1913	1.9024e+02	-3.8277	-16.356455	0.000314	3.142560	1.064728	0.000126
1914	1.9034e+02	-3.7780	-16.223230	0.000335	3.345306	1.133420	0.000134
1915	1.9044e+02	-3.7330	-16.142487	0.000203	2.027458	0.686921	0.000081
1916	1.9054e+02	-3.6994	-16.033485	0.000274	2.737069	0.927344	0.000110
1917	1.9064e+02	-3.6657	-15.863925	0.000426	4.257662	1.442535	0.000170
1918	1.9074e+02	-3.6272	-15.787219	0.000193	1.926085	0.652575	0.000077
1919	1.9084e+02	-3.5887	-15.674180	0.000284	2.838442	0.961690	0.000114
1920	1.9094e+02	-3.5389	-15.573251	0.000253	2.534323	0.858652	0.000101
1921	1.9104e+02	-3.5052	-15.427914	0.000365	3.649425	1.236459	0.000146
1922	1.9114e+02	-3.4587	-15.347172	0.000203	2.027458	0.686921	0.000081
1923	1.9124e+02	-3.4250	-15.234132	0.000284	2.838442	0.961690	0.000114
1924	1.9134e+02	-3.3785	-15.068609	0.000416	4.156290	1.408189	0.000166
1925	1.9144e+02	-3.3352	-14.987866	0.000203	2.027458	0.686921	0.000081
1926	1.9154e+02	-3.3031	-14.838492	0.000375	3.750798	1.270805	0.000150
1927	1.9164e+02	-3.2566	-14.757750	0.000203	2.027458	0.686921	0.000081
1928	1.9174e+02	-3.2229	-14.636636	0.000304	3.041187	1.030382	0.000122
1929	1.9184e+02	-3.1812	-14.527633	0.000274	2.737069	0.927344	0.000110
1930	1.9194e+02	-3.1347	-14.422667	0.000264	2.635696	0.892998	0.000105
1931	1.9203e+02	-3.1026	-14.293479	0.000324	3.243933	1.099074	0.000130
1932	1.9213e+02	-3.0625	-14.200625	0.000233	2.331577	0.789960	0.000093
1933	1.9223e+02	-3.0224	-14.079511	0.000304	3.041187	1.030382	0.000122
1934	1.9233e+02	-2.9887	-13.958397	0.000304	3.041187	1.030382	0.000122
1935	1.9243e+02	-2.9438	-13.825171	0.000335	3.345306	1.133420	0.000134
1936	1.9253e+02	-2.9021	-13.700020	0.000314	3.142560	1.064728	0.000126
1937	1.9263e+02	-2.8603	-13.566795	0.000335	3.345306	1.133420	0.000134
1938	1.9273e+02	-2.8170	-13.473941	0.000233	2.331577	0.789960	0.000093
1939	1.9283e+02	-2.7849	-13.368975	0.000264	2.635696	0.892998	0.000105
1940	1.9293e+02	-2.7513	-13.247861	0.000304	3.041187	1.030382	0.000122
1941	1.9303e+02	-2.6967	-13.118673	0.000324	3.243933	1.099074	0.000130
1942	1.9313e+02	-2.6630	-12.977373	0.000355	3.548052	1.202113	0.000142
1943	1.9323e+02	-2.6245	-12.900667	0.000193	1.926085	0.652575	0.000077
1944	1.9333e+02	-2.5796	-12.775516	0.000314	3.142560	1.064728	0.000126
1945	1.9343e+02	-2.5411	-12.642291	0.000335	3.345306	1.133420	0.000134
1946	1.9353e+02	-2.5090	-12.541362	0.000253	2.534323	0.858652	0.000101
1947	1.9363e+02	-2.4577	-12.428322	0.000284	2.838442	0.961690	0.000114
1948	1.9373e+02	-2.4304	-12.291060	0.000345	3.446679	1.167766	0.000138
1949	1.9383e+02	-2.3919	-12.198206	0.000233	2.331577	0.789960	0.000093
1950	1.9393e+02	-2.3438	-12.089203	0.000274	2.737069	0.927344	0.000110
1951	1.9403e+02	-2.3101	-11.976163	0.000284	2.838442	0.961690	0.000114
1952	1.9412e+02	-2.2604	-11.806603	0.000426	4.257662	1.442535	0.000170
1953	1.9422e+02	-2.2267	-11.701638	0.000264	2.635696	0.892998	0.000105
1954	1.9432e+02	-2.1866	-11.608784	0.000233	2.331577	0.789960	0.000093
1955	1.9442e+02	-2.1433	-11.475558	0.000335	3.345306	1.133420	0.000134
1956	1.9452e+02	-2.1031	-11.346370	0.000324	3.243933	1.099074	0.000130
1957	1.9462e+02	-2.0663	-11.237367	0.000274	2.737069	0.927344	0.000110
1958	1.9472e+02	-2.0213	-11.096068	0.000355	3.548052	1.202113	0.000142
1959	1.9482e+02	-1.9892	-10.987065	0.000274	2.737069	0.927344	0.000110
1960	1.9492e+02	-1.9475	-10.857877	0.000324	3.243933	1.099074	0.000130
1961	1.9502e+02	-1.9058	-10.724651	0.000335	3.345306	1.133420	0.000134
1962	1.9512e+02	-1.8689	-10.591426	0.000335	3.345306	1.133420	0.000134
1963	1.9522e+02	-1.8224	-10.502609	0.000223	2.230204	0.755614	0.000089
1964	1.9532e+02	-1.7807	-10.345160	0.000395	3.953544	1.339497	0.000158
1965	1.9542e+02	-1.7438	-10.272492	0.000182	1.824712	0.618229	0.000073
1966	1.9552e+02	-1.7085	-10.115044	0.000395	3.953544	1.339497	0.000158
1967	1.9562e+02	-1.6700	-9.985855	0.000324	3.243933	1.099074	0.000130
1968	1.9572e+02	-1.6203	-9.880890	0.000264	2.635696	0.892998	0.000105
1969	1.9582e+02	-1.5850	-9.739590	0.000355	3.548052	1.202113	0.000142
1970	1.9592e+02	-1.5449	-9.614439	0.000314	3.142560	1.064728	0.000126
1971	1.9601e+02	-1.5096	-9.525622	0.000223	2.230204	0.755614	0.000089
1972	1.9611e+02	-1.4615	-9.400471	0.000314	3.142560	1.064728	0.000126
1973	1.9621e+02	-1.4326	-9.279356	0.000304	3.041187	1.030382	0.000122
1974	1.9631e+02	-1.3893	-9.194577	0.000213	2.128831	0.721268	0.000085
1975	1.9641e+02	-1.3540	-9.053277	0.000355	3.548052	1.202113	0.000142
1976	1.9651e+02	-1.3074	-8.916014	0.000345	3.446679	1.167766	0.000138
1977	1.9661e+02	-1.2657	-8.786826	0.000324	3.243933	1.099074	0.000130
1978	1.9671e+02	-1.2337	-8.714157	0.000182	1.824712	0.618229	0.000073
1979	1.9681e+02	-1.1839	-8.580932	0.000335	3.345306	1.133420	0.000134
1980	1.9691e+02	-1.1438	-8.455781	0.000314	3.142560	1.064728	0.000126
1981	1.9701e+02	-1.1085	-8.334667	0.000304	3.041187	1.030382	0.000122
1982	1.9711e+02	-1.0684	-8.245850	0.000223	2.230204	0.755614	0.000089
1983	1.9721e+02	-1.0267	-8.108587	0.000345	3.446679	1.167766	0.000138
1984	1.9731e+02	-0.9978	-7.975362	0.000335	3.345306	1.133420	0.000134
1985	1.9741e+02	-0.9561	-7.846173	0.000324	3.243933	1.099074	0.000130
1986	1.9751e+02	-0.9016	-7.765431	0.000203	2.027458	0.686921	0.000081
1987	1.9761e+02	-0.8743	-7.620094	0.000365	3.649425	1.236459	0.000146
1988	1.9771e+02	-0.8406	-7.527240	0.000233	2.331577	0.789960	0.000093
1989	1.9781e+02	-0.7941	-7.389977	0.000345	3.446679	1.167766	0.000138
1990	1.9791e+02	-0.7460	-7.309234	0.000203	2.027458	0.686921	0.000081
1991	1.9800e+02	-0.7043	-7.143712	0.000416	4.156290	1.408189	0.000166
1992	1.9810e+02	-0.6722	-7.050858	0.000233	2.331577	0.789960	0.000093
1993	1.9820e+02	-0.6305	-6.949929	0.000253	2.534323	0.858652	0.000101
1994	1.9830e+02	-0.6032	-6.820741	0.000324	3.243933	1.099074	0.000130
1995	1.9840e+02	-0.5567	-6.691552	0.000324	3.243933	1.099074	0.000130
1996	1.9850e+02	-0.5166	-6.582550	0.000274	2.737069	0.927344	0.000110
1997	1.9860e+02	-0.4732	-6.453361	0.000324	3.243933	1.099074	0.000130
1998	1.9870e+02	-0.4331	-6.340322	0.000284	2.838442	0.961690	0.000114
1999	1.9880e+02	-0.3914	-6.219208	0.000304	3.041187	1.030382	0.000122
2000	1.9890e+02	-0.3513	-6.138465	0.000203	2.027458	0.686921	0.000081
2001	1.9900e+02	-0.3289	-5.976979	0.000405	4.054917	1.373843	0.000162
2002	1.9910e+02	-0.2679	-5.880088	0.000243	2.432950	0.824306	0.000097
2003	1.9920e+02	-0.2326	-5.767048	0.000284	2.838442	0.961690	0.000114
2004	1.9930e+02	-0.1925	-5.629786	0.000345	3.446679	1.167766	0.000138
2005	1.9940e+02	-0.1524	-5.524820	0.000264	2.635696	0.892998	0.000105
2006	1.9950e+02	-0.1171	-5.371409	0.000385	3.852171	1.305151	0.000154
2007	1.9960e+02	-0.0754	-5.262406	0.000274	2.737069	0.927344	0.000110
2008	1.9970e+02	-0.0337	-5.161478	0.000253	2.534323	0.858652	0.000101
2009	1.9980e+02	0.0096	-5.088810	0.000253	2.534323	0.858652	0.000073

PMax (uC/cm2):	5.86e+01
Pr (uC/cm2):	1.84e+00
-Pr (uC/cm2):	-1.40e+00
PLoss (uC/cm2):	-1.40e+00
-Vc:	-6.03e-01
C (Max-Eff) (nF):	2.93e-01
K (Eff):	9.92e+02
Vert. (+/-Pr) Shift (uC/cm2):	2.19e-01
Offset (uC/cm2):	3.68e+00

A (Loop Area - uC/cm2·Volts):	4.76e-02



Hysteresis Version: 5.48.1 - Radiant Technologies, Inc., 1999 - 9/12/24

