»»»»»»»»»»»»»»»»»»»»»»»»»»»»»»»»»»»» Hysteresis ««««««««««««««««««««««««««««««««««««
»»»  Executed Version:	5.48.1
»»»  Vision Version:	5.48.4 (R)
»»»  Vision Compiled:	9/18/24
»»»  Driver Version:	5.47.0
»»»  Windows Version:	Windows 8 or 8.1
»»»  Processor Information:	x86 (AMD or Intel) - 32 Processors
»»»  Tester Name:	PMF21124-494 (100V)
»»»  Tester S/N:	PMF21124-494
»»»  Internal Amp Type:	100V RevK 270k
»»»  Internal Amp S/N:	iAB2-596/K     
»»»  Execution Count:	1
»»»»»»»»»»»»»»»»»»»»»»»»»»»»»»»»»»»»»»»»»»««««««««««««««««««««««««««««««««««««««««««

Stored:	6/19/2025 - 16:51:48
Configured:	06/19/25 10:04:32 AM
Executed:	06/19/25 04:51:26 PM

»»»»»»»»»»»»»»»»»»»»»»»»»»»»»»»»»»» Sample Info ««««««««««««««««««««««««««««««««««««
Sample Name:	
Lot Name:	
Wafer Name:	
Die Row/Column:	0/0
Capacitor Number:	0
Sample Area (cm2):	1.00e-04
Sample Thickness (microns):	3.00e-01

Amplifier:	Internal

»»»»»»»»»»»»»»»»»»»»»»»»»»»»»»»»»»» Tester Info «««««««««««««««««««««««««««««««««««
Tester Name:	PMF21124-494 (100V)
Tester Serial Number:	PMF21124-494
Return Signal Amp. Level:	0.19 [Index: 3]

»»»»»»»»»»»»»»»»»»»»»»»»»»»»»»»» Hysteresis Info ««««««««««««««««««««««««««««««««««
Task Name:	Hyst-1168
Volts:	20.00
Field:	666.67 (kV/cm)
DCBias:	0.00
DCField:	0.00 (kV/cm)
Hysteresis Period (ms):	2.00e+02
Preset:	Enabled
Preset Delay (ms):	1.00e+03
Profile:	Standard Bipolar

»»»»»»»»»»»»»»»»»»»»»»»»»»»»»»»»»»»»»» Data «««««««««««««««««««««««««««««««««««««««
Points:	2009

Valid Data

Point	Time (ms)	Drive Voltage	Measured Polarization (uC/cm2)	Capacitance (uF)	Normalized Capacitance (uF/cm2)	Dielectric Constant	Instantaneous Current (mA)
   1	0.0000e+00	0.0144	-3.437621	0.000345	3.446610	1.167743	0.000138
   2	9.9500e-02	0.0385	-3.300358	0.000345	3.446610	1.167743	0.000138
   3	1.9900e-01	0.0722	-3.215579	0.000213	2.128789	0.721253	0.000085
   4	2.9850e-01	0.1091	-3.062167	0.000385	3.852093	1.305125	0.000154
   5	3.9800e-01	0.1556	-2.969313	0.000233	2.331530	0.789944	0.000093
   6	4.9750e-01	0.1877	-2.840125	0.000324	3.243868	1.099052	0.000130
   7	5.9700e-01	0.2294	-2.739197	0.000253	2.534272	0.858635	0.000101
   8	6.9650e-01	0.2823	-2.626157	0.000284	2.838385	0.961671	0.000114
   9	7.9600e-01	0.3192	-2.501006	0.000314	3.142497	1.064707	0.000126
  10	8.9550e-01	0.3561	-2.383929	0.000294	2.939756	0.996016	0.000118
  11	9.9500e-01	0.3946	-2.270889	0.000284	2.838385	0.961671	0.000114
  12	1.0945e+00	0.4364	-2.141701	0.000324	3.243868	1.099052	0.000130
  13	1.1940e+00	0.4716	-2.020586	0.000304	3.041126	1.030362	0.000122
  14	1.2935e+00	0.5246	-1.903510	0.000294	2.939756	0.996016	0.000118
  15	1.3930e+00	0.5503	-1.806618	0.000243	2.432901	0.824289	0.000097
  16	1.4925e+00	0.5936	-1.677430	0.000324	3.243868	1.099052	0.000130
  17	1.5920e+00	0.6337	-1.576502	0.000253	2.534272	0.858635	0.000101
  18	1.6915e+00	0.6802	-1.483647	0.000233	2.331530	0.789944	0.000093
  19	1.7910e+00	0.7187	-1.350422	0.000335	3.345239	1.133398	0.000134
  20	1.8905e+00	0.7460	-1.237382	0.000284	2.838385	0.961671	0.000114
  21	1.9900e+00	0.7941	-1.100119	0.000345	3.446610	1.167743	0.000138
  22	2.0895e+00	0.8438	-0.974968	0.000314	3.142497	1.064707	0.000126
  23	2.1890e+00	0.8759	-0.870003	0.000264	2.635643	0.892980	0.000105
  24	2.2885e+00	0.9144	-0.736777	0.000335	3.345239	1.133398	0.000134
  25	2.3880e+00	0.9545	-0.619700	0.000294	2.939756	0.996016	0.000118
  26	2.4875e+00	0.9930	-0.498586	0.000304	3.041126	1.030362	0.000122
  27	2.5870e+00	1.0363	-0.361324	0.000345	3.446610	1.167743	0.000138
  28	2.6865e+00	1.0748	-0.244247	0.000294	2.939756	0.996016	0.000118
  29	2.7860e+00	1.1117	-0.119096	0.000314	3.142497	1.064707	0.000126
  30	2.8855e+00	1.1567	-0.018167	0.000253	2.534272	0.858635	0.000101
  31	2.9850e+00	1.1952	0.086798	0.000264	2.635643	0.892980	0.000105
  32	3.0845e+00	1.2272	0.211950	0.000314	3.142497	1.064707	0.000126
  33	3.1840e+00	1.2706	0.329027	0.000294	2.939756	0.996016	0.000118
  34	3.2835e+00	1.3155	0.470326	0.000355	3.547981	1.202088	0.000142
  35	3.3830e+00	1.3524	0.563180	0.000233	2.331530	0.789944	0.000093
  36	3.4825e+00	1.3941	0.684295	0.000304	3.041126	1.030362	0.000122
  37	3.5820e+00	1.4294	0.841743	0.000395	3.953464	1.339470	0.000158
  38	3.6815e+00	1.4743	0.934597	0.000233	2.331530	0.789944	0.000093
  39	3.7810e+00	1.5128	1.096082	0.000405	4.054835	1.373815	0.000162
  40	3.8805e+00	1.5593	1.188936	0.000233	2.331530	0.789944	0.000093
  41	3.9800e+00	1.5946	1.289865	0.000253	2.534272	0.858635	0.000101
  42	4.0795e+00	1.6235	1.451350	0.000405	4.054835	1.373815	0.000162
  43	4.1790e+00	1.6828	1.540167	0.000223	2.230159	0.755598	0.000089
  44	4.2785e+00	1.7149	1.645133	0.000264	2.635643	0.892980	0.000105
  45	4.3780e+00	1.7582	1.778358	0.000335	3.345239	1.133398	0.000134
  46	4.4775e+00	1.7935	1.911584	0.000335	3.345239	1.133398	0.000134
  47	4.5770e+00	1.8368	1.984252	0.000182	1.824676	0.618217	0.000073
  48	4.6765e+00	1.8641	2.121515	0.000345	3.446610	1.167743	0.000138
  49	4.7760e+00	1.9090	2.226480	0.000264	2.635643	0.892980	0.000105
  50	4.8755e+00	1.9475	2.387966	0.000405	4.054835	1.373815	0.000162
  51	4.9750e+00	2.0037	2.468709	0.000203	2.027418	0.686908	0.000081
  52	5.0745e+00	2.0310	2.561563	0.000233	2.331530	0.789944	0.000093
  53	5.1740e+00	2.0663	2.735159	0.000436	4.358948	1.476852	0.000174
  54	5.2735e+00	2.1192	2.823976	0.000223	2.230159	0.755598	0.000089
  55	5.3730e+00	2.1400	2.932979	0.000274	2.737014	0.927325	0.000110
  56	5.4725e+00	2.1834	3.062167	0.000324	3.243868	1.099052	0.000130
  57	5.5720e+00	2.2363	3.187319	0.000314	3.142497	1.064707	0.000126
  58	5.6715e+00	2.2668	3.272099	0.000213	2.128789	0.721253	0.000085
  59	5.7710e+00	2.3101	3.429547	0.000395	3.953464	1.339470	0.000158
  60	5.8705e+00	2.3390	3.522401	0.000233	2.331530	0.789944	0.000093
  61	5.9700e+00	2.3919	3.647552	0.000314	3.142497	1.064707	0.000126
  62	6.0695e+00	2.4320	3.764629	0.000294	2.939756	0.996016	0.000118
  63	6.1690e+00	2.4609	3.865557	0.000253	2.534272	0.858635	0.000101
  64	6.2685e+00	2.5074	4.018969	0.000385	3.852093	1.305125	0.000154
  65	6.3680e+00	2.5443	4.111823	0.000233	2.331530	0.789944	0.000093
  66	6.4675e+00	2.5780	4.216788	0.000264	2.635643	0.892980	0.000105
  67	6.5670e+00	2.6277	4.337902	0.000304	3.041126	1.030362	0.000122
  68	6.6665e+00	2.6646	4.459016	0.000304	3.041126	1.030362	0.000122
  69	6.7660e+00	2.7095	4.628576	0.000426	4.257577	1.442506	0.000170
  70	6.8655e+00	2.7497	4.729505	0.000253	2.534272	0.858635	0.000101
  71	6.9650e+00	2.7898	4.830433	0.000253	2.534272	0.858635	0.000101
  72	7.0645e+00	2.8251	4.939436	0.000274	2.737014	0.927325	0.000110
  73	7.1640e+00	2.8636	5.068624	0.000324	3.243868	1.099052	0.000130
  74	7.2635e+00	2.9021	5.205887	0.000345	3.446610	1.167743	0.000138
  75	7.3630e+00	2.9470	5.306815	0.000253	2.534272	0.858635	0.000101
  76	7.4625e+00	2.9823	5.436003	0.000324	3.243868	1.099052	0.000130
  77	7.5620e+00	3.0224	5.569229	0.000335	3.345239	1.133398	0.000134
  78	7.6615e+00	3.0705	5.629786	0.000152	1.520563	0.515181	0.000061
  79	7.7610e+00	3.0994	5.742826	0.000284	2.838385	0.961671	0.000114
  80	7.8605e+00	3.1523	5.847791	0.000264	2.635643	0.892980	0.000105
  81	7.9600e+00	3.1908	5.985054	0.000345	3.446610	1.167743	0.000138
  82	8.0595e+00	3.2181	6.122316	0.000345	3.446610	1.167743	0.000138
  83	8.1590e+00	3.2598	6.255542	0.000335	3.345239	1.133398	0.000134
  84	8.2585e+00	3.3079	6.336285	0.000203	2.027418	0.686908	0.000081
  85	8.3580e+00	3.3480	6.445287	0.000274	2.737014	0.927325	0.000110
  86	8.4575e+00	3.3817	6.546216	0.000253	2.534272	0.858635	0.000101
  87	8.5570e+00	3.4331	6.675404	0.000324	3.243868	1.099052	0.000130
  88	8.6565e+00	3.4732	6.788444	0.000284	2.838385	0.961671	0.000114
  89	8.7560e+00	3.5020	6.921669	0.000335	3.345239	1.133398	0.000134
  90	8.8555e+00	3.5486	7.067006	0.000365	3.649352	1.236434	0.000146
  91	8.9550e+00	3.5855	7.180046	0.000284	2.838385	0.961671	0.000114
  92	9.0545e+00	3.6175	7.276937	0.000243	2.432901	0.824289	0.000097
  93	9.1540e+00	3.6753	7.426311	0.000375	3.750723	1.270779	0.000150
  94	9.2535e+00	3.7010	7.507054	0.000203	2.027418	0.686908	0.000081
  95	9.3530e+00	3.7427	7.636242	0.000324	3.243868	1.099052	0.000130
  96	9.4525e+00	3.7732	7.761393	0.000314	3.142497	1.064707	0.000126
  97	9.5520e+00	3.8261	7.874433	0.000284	2.838385	0.961671	0.000114
  98	9.6515e+00	3.8630	7.971325	0.000243	2.432901	0.824289	0.000097
  99	9.7510e+00	3.8999	8.120699	0.000375	3.750723	1.270779	0.000150
 100	9.8505e+00	3.9384	8.237775	0.000294	2.939756	0.996016	0.000118
 101	9.9500e+00	3.9897	8.338704	0.000253	2.534272	0.858635	0.000101
 102	1.0050e+01	4.0250	8.492115	0.000385	3.852093	1.305125	0.000154
 103	1.0149e+01	4.0539	8.580932	0.000223	2.230159	0.755598	0.000089
 104	1.0248e+01	4.1068	8.702046	0.000304	3.041126	1.030362	0.000122
 105	1.0348e+01	4.1309	8.811049	0.000274	2.737014	0.927325	0.000110
 106	1.0447e+01	4.1854	8.952348	0.000355	3.547981	1.202088	0.000142
 107	1.0547e+01	4.2272	9.033091	0.000203	2.027418	0.686908	0.000081
 108	1.0646e+01	4.2608	9.158242	0.000314	3.142497	1.064707	0.000126
 109	1.0746e+01	4.3026	9.299542	0.000355	3.547981	1.202088	0.000142
 110	1.0845e+01	4.3443	9.444879	0.000365	3.649352	1.236434	0.000146
 111	1.0945e+01	4.3860	9.509473	0.000162	1.621934	0.549526	0.000065
 112	1.1044e+01	4.4309	9.614439	0.000264	2.635643	0.892980	0.000105
 113	1.1144e+01	4.4614	9.715367	0.000253	2.534272	0.858635	0.000101
 114	1.1243e+01	4.4999	9.876853	0.000405	4.054835	1.373815	0.000162
 115	1.1343e+01	4.5448	9.965670	0.000223	2.230159	0.755598	0.000089
 116	1.1443e+01	4.5881	10.086784	0.000304	3.041126	1.030362	0.000122
 117	1.1542e+01	4.6170	10.179638	0.000233	2.331530	0.789944	0.000093
 118	1.1642e+01	4.6587	10.324975	0.000365	3.649352	1.236434	0.000146
 119	1.1741e+01	4.7020	10.438014	0.000284	2.838385	0.961671	0.000114
 120	1.1841e+01	4.7373	10.530869	0.000233	2.331530	0.789944	0.000093
 121	1.1940e+01	4.7806	10.664094	0.000335	3.345239	1.133398	0.000134
 122	1.2040e+01	4.8207	10.789245	0.000314	3.142497	1.064707	0.000126
 123	1.2139e+01	4.8576	10.902285	0.000284	2.838385	0.961671	0.000114
 124	1.2239e+01	4.9009	11.043585	0.000355	3.547981	1.202088	0.000142
 125	1.2338e+01	4.9426	11.128365	0.000213	2.128789	0.721253	0.000085
 126	1.2438e+01	4.9811	11.277739	0.000375	3.750723	1.270779	0.000150
 127	1.2537e+01	5.0245	11.374630	0.000243	2.432901	0.824289	0.000097
 128	1.2636e+01	5.0614	11.483633	0.000274	2.737014	0.927325	0.000110
 129	1.2736e+01	5.0918	11.596672	0.000284	2.838385	0.961671	0.000114
 130	1.2835e+01	5.1480	11.766232	0.000426	4.257577	1.442506	0.000170
 131	1.2935e+01	5.1785	11.879272	0.000284	2.838385	0.961671	0.000114
 132	1.3034e+01	5.2282	11.968089	0.000223	2.230159	0.755598	0.000089
 133	1.3134e+01	5.2587	12.113426	0.000365	3.649352	1.236434	0.000146
 134	1.3233e+01	5.3004	12.234540	0.000304	3.041126	1.030362	0.000122
 135	1.3333e+01	5.3421	12.339505	0.000264	2.635643	0.892980	0.000105
 136	1.3432e+01	5.3790	12.460619	0.000304	3.041126	1.030362	0.000122
 137	1.3532e+01	5.4159	12.634216	0.000436	4.358948	1.476852	0.000174
 138	1.3632e+01	5.4608	12.731108	0.000243	2.432901	0.824289	0.000097
 139	1.3731e+01	5.4849	12.860296	0.000324	3.243868	1.099052	0.000130
 140	1.3831e+01	5.5266	12.949113	0.000223	2.230159	0.755598	0.000089
 141	1.3930e+01	5.5795	13.054078	0.000264	2.635643	0.892980	0.000105
 142	1.4030e+01	5.6196	13.203452	0.000375	3.750723	1.270779	0.000150
 143	1.4129e+01	5.6597	13.360901	0.000395	3.953464	1.339470	0.000158
 144	1.4229e+01	5.7047	13.465866	0.000264	2.635643	0.892980	0.000105
 145	1.4328e+01	5.7399	13.603129	0.000345	3.446610	1.167743	0.000138
 146	1.4428e+01	5.7720	13.716169	0.000284	2.838385	0.961671	0.000114
 147	1.4527e+01	5.8234	13.837283	0.000304	3.041126	1.030362	0.000122
 148	1.4627e+01	5.8619	13.922063	0.000213	2.128789	0.721253	0.000085
 149	1.4726e+01	5.8956	14.035102	0.000284	2.838385	0.961671	0.000114
 150	1.4825e+01	5.9341	14.208699	0.000436	4.358948	1.476852	0.000174
 151	1.4925e+01	5.9742	14.358073	0.000375	3.750723	1.270779	0.000150
 152	1.5024e+01	6.0111	14.454965	0.000243	2.432901	0.824289	0.000097
 153	1.5124e+01	6.0544	14.539744	0.000213	2.128789	0.721253	0.000085
 154	1.5223e+01	6.1009	14.721415	0.000456	4.561690	1.545542	0.000183
 155	1.5323e+01	6.1282	14.781973	0.000152	1.520563	0.515181	0.000061
 156	1.5422e+01	6.1811	14.899049	0.000294	2.939756	0.996016	0.000118
 157	1.5522e+01	6.2084	15.052461	0.000385	3.852093	1.305125	0.000154
 158	1.5621e+01	6.2581	15.153389	0.000253	2.534272	0.858635	0.000101
 159	1.5721e+01	6.2902	15.322949	0.000426	4.257577	1.442506	0.000170
 160	1.5820e+01	6.3287	15.411766	0.000223	2.230159	0.755598	0.000089
 161	1.5920e+01	6.3704	15.536917	0.000314	3.142497	1.064707	0.000126
 162	1.6020e+01	6.4217	15.653994	0.000294	2.939756	0.996016	0.000118
 163	1.6119e+01	6.4522	15.791256	0.000345	3.446610	1.167743	0.000138
 164	1.6218e+01	6.4875	15.888148	0.000243	2.432901	0.824289	0.000097
 165	1.6318e+01	6.5308	16.005225	0.000294	2.939756	0.996016	0.000118
 166	1.6418e+01	6.5741	16.158636	0.000385	3.852093	1.305125	0.000154
 167	1.6517e+01	6.6062	16.251490	0.000233	2.331530	0.789944	0.000093
 168	1.6616e+01	6.6528	16.421050	0.000426	4.257577	1.442506	0.000170
 169	1.6716e+01	6.6832	16.517941	0.000243	2.432901	0.824289	0.000097
 170	1.6816e+01	6.7233	16.667315	0.000375	3.750723	1.270779	0.000150
 171	1.6915e+01	6.7699	16.752095	0.000213	2.128789	0.721253	0.000085
 172	1.7015e+01	6.8084	16.885320	0.000335	3.345239	1.133398	0.000134
 173	1.7114e+01	6.8404	17.010471	0.000314	3.142497	1.064707	0.000126
 174	1.7213e+01	6.8902	17.143697	0.000335	3.345239	1.133398	0.000134
 175	1.7313e+01	6.9239	17.268848	0.000314	3.142497	1.064707	0.000126
 176	1.7413e+01	6.9624	17.406111	0.000345	3.446610	1.167743	0.000138
 177	1.7512e+01	7.0073	17.535299	0.000324	3.243868	1.099052	0.000130
 178	1.7611e+01	7.0442	17.620079	0.000213	2.128789	0.721253	0.000085
 179	1.7711e+01	7.0907	17.769453	0.000375	3.750723	1.270779	0.000150
 180	1.7811e+01	7.1260	17.906716	0.000345	3.446610	1.167743	0.000138
 181	1.7910e+01	7.1693	18.011681	0.000264	2.635643	0.892980	0.000105
 182	1.8009e+01	7.2046	18.169129	0.000395	3.953464	1.339470	0.000158
 183	1.8109e+01	7.2543	18.286206	0.000294	2.939756	0.996016	0.000118
 184	1.8209e+01	7.2912	18.399246	0.000284	2.838385	0.961671	0.000114
 185	1.8308e+01	7.3265	18.528434	0.000324	3.243868	1.099052	0.000130
 186	1.8407e+01	7.3554	18.629363	0.000253	2.534272	0.858635	0.000101
 187	1.8507e+01	7.4180	18.778737	0.000375	3.750723	1.270779	0.000150
 188	1.8607e+01	7.4501	18.895814	0.000294	2.939756	0.996016	0.000118
 189	1.8706e+01	7.4934	19.033076	0.000345	3.446610	1.167743	0.000138
 190	1.8805e+01	7.5319	19.138042	0.000264	2.635643	0.892980	0.000105
 191	1.8905e+01	7.5672	19.263193	0.000314	3.142497	1.064707	0.000126
 192	1.9005e+01	7.6105	19.452939	0.000476	4.764431	1.614233	0.000191
 193	1.9104e+01	7.6522	19.517533	0.000162	1.621934	0.549526	0.000065
 194	1.9203e+01	7.6827	19.670944	0.000385	3.852093	1.305125	0.000154
 195	1.9303e+01	7.7244	19.820318	0.000375	3.750723	1.270779	0.000150
 196	1.9402e+01	7.7565	19.917209	0.000243	2.432901	0.824289	0.000097
 197	1.9502e+01	7.8062	20.030249	0.000284	2.838385	0.961671	0.000114
 198	1.9602e+01	7.8511	20.167512	0.000345	3.446610	1.167743	0.000138
 199	1.9701e+01	7.8864	20.308811	0.000355	3.547981	1.202088	0.000142
 200	1.9800e+01	7.9153	20.377443	0.000172	1.723305	0.583872	0.000069
 201	1.9900e+01	7.9666	20.559114	0.000456	4.561690	1.545542	0.000183
 202	2.0000e+01	8.0131	20.643894	0.000213	2.128789	0.721253	0.000085
 203	2.0099e+01	8.0452	20.793268	0.000375	3.750723	1.270779	0.000150
 204	2.0198e+01	8.0837	20.938605	0.000365	3.649352	1.236434	0.000146
 205	2.0298e+01	8.1351	21.051644	0.000284	2.838385	0.961671	0.000114
 206	2.0398e+01	8.1623	21.184870	0.000335	3.345239	1.133398	0.000134
 207	2.0497e+01	8.2024	21.285798	0.000253	2.534272	0.858635	0.000101
 208	2.0596e+01	8.2393	21.414987	0.000324	3.243868	1.099052	0.000130
 209	2.0696e+01	8.2859	21.572435	0.000395	3.953464	1.339470	0.000158
 210	2.0796e+01	8.3292	21.649140	0.000193	1.926047	0.652562	0.000077
 211	2.0895e+01	8.3805	21.782366	0.000335	3.345239	1.133398	0.000134
 212	2.0994e+01	8.4030	21.903480	0.000304	3.041126	1.030362	0.000122
 213	2.1094e+01	8.4431	22.044780	0.000355	3.547981	1.202088	0.000142
 214	2.1194e+01	8.4864	22.157819	0.000284	2.838385	0.961671	0.000114
 215	2.1293e+01	8.5217	22.303156	0.000365	3.649352	1.236434	0.000146
 216	2.1392e+01	8.5682	22.391973	0.000223	2.230159	0.755598	0.000089
 217	2.1492e+01	8.6147	22.505013	0.000284	2.838385	0.961671	0.000114
 218	2.1591e+01	8.6452	22.630164	0.000314	3.142497	1.064707	0.000126
 219	2.1691e+01	8.6869	22.767427	0.000345	3.446610	1.167743	0.000138
 220	2.1791e+01	8.7190	22.904690	0.000345	3.446610	1.167743	0.000138
 221	2.1890e+01	8.7591	22.977358	0.000182	1.824676	0.618217	0.000073
 222	2.1989e+01	8.7992	23.102509	0.000314	3.142497	1.064707	0.000126
 223	2.2089e+01	8.8425	23.247846	0.000365	3.649352	1.236434	0.000146
 224	2.2189e+01	8.8874	23.360886	0.000284	2.838385	0.961671	0.000114
 225	2.2288e+01	8.9211	23.461814	0.000253	2.534272	0.858635	0.000101
 226	2.2387e+01	8.9580	23.603114	0.000355	3.547981	1.202088	0.000142
 227	2.2487e+01	9.0094	23.740377	0.000345	3.446610	1.167743	0.000138
 228	2.2587e+01	9.0463	23.849379	0.000274	2.737014	0.927325	0.000110
 229	2.2686e+01	9.0751	23.962419	0.000284	2.838385	0.961671	0.000114
 230	2.2785e+01	9.1169	24.067385	0.000264	2.635643	0.892980	0.000105
 231	2.2885e+01	9.1634	24.216759	0.000375	3.750723	1.270779	0.000150
 232	2.2985e+01	9.2115	24.370170	0.000385	3.852093	1.305125	0.000154
 233	2.3084e+01	9.2532	24.446875	0.000193	1.926047	0.652562	0.000077
 234	2.3183e+01	9.2837	24.543767	0.000243	2.432901	0.824289	0.000097
 235	2.3283e+01	9.3222	24.697178	0.000385	3.852093	1.305125	0.000154
 236	2.3383e+01	9.3591	24.830403	0.000335	3.345239	1.133398	0.000134
 237	2.3482e+01	9.3976	24.935369	0.000264	2.635643	0.892980	0.000105
 238	2.3581e+01	9.4393	25.048409	0.000284	2.838385	0.961671	0.000114
 239	2.3681e+01	9.4778	25.161448	0.000284	2.838385	0.961671	0.000114
 240	2.3780e+01	9.5147	25.298711	0.000345	3.446610	1.167743	0.000138
 241	2.3880e+01	9.5612	25.407714	0.000274	2.737014	0.927325	0.000110
 242	2.3980e+01	9.6029	25.565162	0.000395	3.953464	1.339470	0.000158
 243	2.4079e+01	9.6511	25.617645	0.000132	1.317821	0.446490	0.000053
 244	2.4178e+01	9.6719	25.730685	0.000284	2.838385	0.961671	0.000114
 245	2.4278e+01	9.7200	25.888133	0.000395	3.953464	1.339470	0.000158
 246	2.4378e+01	9.7521	26.009247	0.000304	3.041126	1.030362	0.000122
 247	2.4477e+01	9.7954	26.110175	0.000253	2.534272	0.858635	0.000101
 248	2.4576e+01	9.8404	26.251475	0.000355	3.547981	1.202088	0.000142
 249	2.4676e+01	9.8805	26.364515	0.000284	2.838385	0.961671	0.000114
 250	2.4776e+01	9.9206	26.461406	0.000243	2.432901	0.824289	0.000097
 251	2.4875e+01	9.9527	26.590595	0.000324	3.243868	1.099052	0.000130
 252	2.4974e+01	9.9944	26.703634	0.000284	2.838385	0.961671	0.000114
 253	2.5074e+01	10.0409	26.804563	0.000253	2.534272	0.858635	0.000101
 254	2.5174e+01	10.0682	26.949900	0.000365	3.649352	1.236434	0.000146
 255	2.5273e+01	10.1211	27.075051	0.000314	3.142497	1.064707	0.000126
 256	2.5372e+01	10.1596	27.196165	0.000304	3.041126	1.030362	0.000122
 257	2.5472e+01	10.1885	27.301130	0.000264	2.635643	0.892980	0.000105
 258	2.5572e+01	10.2366	27.418207	0.000294	2.939756	0.996016	0.000118
 259	2.5671e+01	10.2751	27.519136	0.000253	2.534272	0.858635	0.000101
 260	2.5770e+01	10.3168	27.664473	0.000365	3.649352	1.236434	0.000146
 261	2.5870e+01	10.3585	27.761364	0.000243	2.432901	0.824289	0.000097
 262	2.5970e+01	10.4018	27.870367	0.000274	2.737014	0.927325	0.000110
 263	2.6069e+01	10.4420	28.011666	0.000355	3.547981	1.202088	0.000142
 264	2.6169e+01	10.4772	28.148929	0.000345	3.446610	1.167743	0.000138
 265	2.6268e+01	10.5157	28.253894	0.000264	2.635643	0.892980	0.000105
 266	2.6367e+01	10.5542	28.338674	0.000213	2.128789	0.721253	0.000085
 267	2.6467e+01	10.5976	28.479974	0.000355	3.547981	1.202088	0.000142
 268	2.6567e+01	10.6345	28.609162	0.000324	3.243868	1.099052	0.000130
 269	2.6666e+01	10.6698	28.685868	0.000193	1.926047	0.652562	0.000077
 270	2.6765e+01	10.7147	28.847353	0.000405	4.054835	1.373815	0.000162
 271	2.6865e+01	10.7612	28.992690	0.000365	3.649352	1.236434	0.000146
 272	2.6965e+01	10.8013	29.097656	0.000264	2.635643	0.892980	0.000105
 273	2.7064e+01	10.8366	29.154176	0.000142	1.419192	0.480835	0.000057
 274	2.7163e+01	10.8735	29.287401	0.000335	3.345239	1.133398	0.000134
 275	2.7263e+01	10.9024	29.432738	0.000365	3.649352	1.236434	0.000146
 276	2.7363e+01	10.9521	29.529629	0.000243	2.432901	0.824289	0.000097
 277	2.7462e+01	11.0034	29.650743	0.000304	3.041126	1.030362	0.000122
 278	2.7561e+01	11.0419	29.731486	0.000203	2.027418	0.686908	0.000081
 279	2.7661e+01	11.0772	29.828377	0.000243	2.432901	0.824289	0.000097
 280	2.7761e+01	11.1205	29.965640	0.000345	3.446610	1.167743	0.000138
 281	2.7860e+01	11.1574	30.090791	0.000314	3.142497	1.064707	0.000126
 282	2.7959e+01	11.1911	30.252277	0.000405	4.054835	1.373815	0.000162
 283	2.8059e+01	11.2377	30.324945	0.000182	1.824676	0.618217	0.000073
 284	2.8159e+01	11.2810	30.442022	0.000294	2.939756	0.996016	0.000118
 285	2.8258e+01	11.3179	30.559099	0.000294	2.939756	0.996016	0.000118
 286	2.8358e+01	11.3564	30.672139	0.000284	2.838385	0.961671	0.000114
 287	2.8457e+01	11.3997	30.833624	0.000405	4.054835	1.373815	0.000162
 288	2.8556e+01	11.4318	30.946664	0.000284	2.838385	0.961671	0.000114
 289	2.8656e+01	11.4767	31.027407	0.000203	2.027418	0.686908	0.000081
 290	2.8756e+01	11.5152	31.172744	0.000365	3.649352	1.236434	0.000146
 291	2.8855e+01	11.5505	31.273672	0.000253	2.534272	0.858635	0.000101
 292	2.8954e+01	11.5842	31.390749	0.000294	2.939756	0.996016	0.000118
 293	2.9054e+01	11.6355	31.523974	0.000335	3.345239	1.133398	0.000134
 294	2.9154e+01	11.6708	31.653163	0.000324	3.243868	1.099052	0.000130
 295	2.9253e+01	11.7125	31.750054	0.000243	2.432901	0.824289	0.000097
 296	2.9352e+01	11.7526	31.859057	0.000274	2.737014	0.927325	0.000110
 297	2.9452e+01	11.7943	31.968059	0.000274	2.737014	0.927325	0.000110
 298	2.9552e+01	11.8360	32.052839	0.000213	2.128789	0.721253	0.000085
 299	2.9651e+01	11.8793	32.222399	0.000426	4.257577	1.442506	0.000170
 300	2.9750e+01	11.9114	32.319290	0.000243	2.432901	0.824289	0.000097
 301	2.9850e+01	11.9580	32.464627	0.000365	3.649352	1.236434	0.000146
 302	2.9950e+01	11.9868	32.561518	0.000243	2.432901	0.824289	0.000097
 303	3.0049e+01	12.0301	32.702818	0.000355	3.547981	1.202088	0.000142
 304	3.0148e+01	12.0654	32.807784	0.000264	2.635643	0.892980	0.000105
 305	3.0248e+01	12.0991	32.945046	0.000345	3.446610	1.167743	0.000138
 306	3.0348e+01	12.1473	33.025789	0.000203	2.027418	0.686908	0.000081
 307	3.0447e+01	12.1938	33.215534	0.000476	4.764431	1.614233	0.000191
 308	3.0547e+01	12.2243	33.284166	0.000172	1.723305	0.583872	0.000069
 309	3.0646e+01	12.2676	33.421428	0.000345	3.446610	1.167743	0.000138
 310	3.0745e+01	12.3125	33.558691	0.000345	3.446610	1.167743	0.000138
 311	3.0845e+01	12.3510	33.687879	0.000324	3.243868	1.099052	0.000130
 312	3.0945e+01	12.3911	33.780733	0.000233	2.331530	0.789944	0.000093
 313	3.1044e+01	12.4392	33.881662	0.000253	2.534272	0.858635	0.000101
 314	3.1143e+01	12.4793	34.014887	0.000335	3.345239	1.133398	0.000134
 315	3.1243e+01	12.5018	34.160224	0.000365	3.649352	1.236434	0.000146
 316	3.1343e+01	12.5483	34.273264	0.000284	2.838385	0.961671	0.000114
 317	3.1442e+01	12.5852	34.398415	0.000314	3.142497	1.064707	0.000126
 318	3.1541e+01	12.6269	34.527603	0.000324	3.243868	1.099052	0.000130
 319	3.1641e+01	12.6702	34.620458	0.000233	2.331530	0.789944	0.000093
 320	3.1741e+01	12.7055	34.737534	0.000294	2.939756	0.996016	0.000118
 321	3.1840e+01	12.7537	34.846537	0.000274	2.737014	0.927325	0.000110
 322	3.1939e+01	12.7905	35.003985	0.000395	3.953464	1.339470	0.000158
 323	3.2039e+01	12.8258	35.060505	0.000142	1.419192	0.480835	0.000057
 324	3.2139e+01	12.8708	35.221991	0.000405	4.054835	1.373815	0.000162
 325	3.2238e+01	12.9109	35.322919	0.000253	2.534272	0.858635	0.000101
 326	3.2337e+01	12.9462	35.439996	0.000294	2.939756	0.996016	0.000118
 327	3.2437e+01	12.9831	35.528813	0.000223	2.230159	0.755598	0.000089
 328	3.2536e+01	13.0280	35.666076	0.000345	3.446610	1.167743	0.000138
 329	3.2636e+01	13.0536	35.823524	0.000395	3.953464	1.339470	0.000158
 330	3.2736e+01	13.1146	35.932527	0.000274	2.737014	0.927325	0.000110
 331	3.2835e+01	13.1435	36.069789	0.000345	3.446610	1.167743	0.000138
 332	3.2934e+01	13.1868	36.186866	0.000294	2.939756	0.996016	0.000118
 333	3.3034e+01	13.2125	36.283757	0.000243	2.432901	0.824289	0.000097
 334	3.3133e+01	13.2542	36.380649	0.000243	2.432901	0.824289	0.000097
 335	3.3233e+01	13.3023	36.534060	0.000385	3.852093	1.305125	0.000154
 336	3.3333e+01	13.3440	36.699582	0.000416	4.156206	1.408161	0.000166
 337	3.3432e+01	13.3729	36.808585	0.000274	2.737014	0.927325	0.000110
 338	3.3532e+01	13.4194	36.917588	0.000274	2.737014	0.927325	0.000110
 339	3.3631e+01	13.4579	37.010442	0.000233	2.331530	0.789944	0.000093
 340	3.3730e+01	13.5044	37.159816	0.000375	3.750723	1.270779	0.000150
 341	3.3830e+01	13.5461	37.252670	0.000233	2.331530	0.789944	0.000093
 342	3.3929e+01	13.5846	37.389933	0.000345	3.446610	1.167743	0.000138
 343	3.4029e+01	13.6231	37.507010	0.000294	2.939756	0.996016	0.000118
 344	3.4129e+01	13.6616	37.607938	0.000253	2.534272	0.858635	0.000101
 345	3.4228e+01	13.6985	37.745201	0.000345	3.446610	1.167743	0.000138
 346	3.4328e+01	13.7467	37.850166	0.000264	2.635643	0.892980	0.000105
 347	3.4427e+01	13.7788	38.003577	0.000385	3.852093	1.305125	0.000154
 348	3.4526e+01	13.8221	38.128728	0.000314	3.142497	1.064707	0.000126
 349	3.4626e+01	13.8558	38.257917	0.000324	3.243868	1.099052	0.000130
 350	3.4725e+01	13.8975	38.334622	0.000193	1.926047	0.652562	0.000077
 351	3.4825e+01	13.9440	38.471885	0.000345	3.446610	1.167743	0.000138
 352	3.4925e+01	13.9761	38.605110	0.000335	3.345239	1.133398	0.000134
 353	3.5024e+01	14.0194	38.738336	0.000335	3.345239	1.133398	0.000134
 354	3.5123e+01	14.0563	38.815042	0.000193	1.926047	0.652562	0.000077
 355	3.5223e+01	14.1028	38.976527	0.000405	4.054835	1.373815	0.000162
 356	3.5322e+01	14.1381	39.109752	0.000335	3.345239	1.133398	0.000134
 357	3.5422e+01	14.1782	39.198569	0.000223	2.230159	0.755598	0.000089
 358	3.5522e+01	14.2135	39.323721	0.000314	3.142497	1.064707	0.000126
 359	3.5621e+01	14.2568	39.428686	0.000264	2.635643	0.892980	0.000105
 360	3.5721e+01	14.3098	39.557875	0.000324	3.243868	1.099052	0.000130
 361	3.5820e+01	14.3402	39.699174	0.000355	3.547981	1.202088	0.000142
 362	3.5919e+01	14.3836	39.828363	0.000324	3.243868	1.099052	0.000130
 363	3.6019e+01	14.4285	39.957551	0.000324	3.243868	1.099052	0.000130
 364	3.6118e+01	14.4654	40.074628	0.000294	2.939756	0.996016	0.000118
 365	3.6218e+01	14.4958	40.199779	0.000314	3.142497	1.064707	0.000126
 366	3.6318e+01	14.5343	40.333005	0.000335	3.345239	1.133398	0.000134
 367	3.6417e+01	14.5777	40.421822	0.000223	2.230159	0.755598	0.000089
 368	3.6517e+01	14.6146	40.595418	0.000436	4.358948	1.476852	0.000174
 369	3.6616e+01	14.6482	40.668087	0.000182	1.824676	0.618217	0.000073
 370	3.6715e+01	14.7092	40.793238	0.000314	3.142497	1.064707	0.000126
 371	3.6815e+01	14.7301	40.906278	0.000284	2.838385	0.961671	0.000114
 372	3.6914e+01	14.7782	41.035466	0.000324	3.243868	1.099052	0.000130
 373	3.7014e+01	14.8119	41.140432	0.000264	2.635643	0.892980	0.000105
 374	3.7114e+01	14.8632	41.277694	0.000345	3.446610	1.167743	0.000138
 375	3.7213e+01	14.8937	41.423031	0.000365	3.649352	1.236434	0.000146
 376	3.7313e+01	14.9386	41.527997	0.000264	2.635643	0.892980	0.000105
 377	3.7412e+01	14.9755	41.669297	0.000355	3.547981	1.202088	0.000142
 378	3.7511e+01	15.0220	41.746002	0.000193	1.926047	0.652562	0.000077
 379	3.7611e+01	15.0573	41.875190	0.000324	3.243868	1.099052	0.000130
 380	3.7711e+01	15.0990	41.984193	0.000274	2.737014	0.927325	0.000110
 381	3.7810e+01	15.1359	42.121456	0.000345	3.446610	1.167743	0.000138
 382	3.7910e+01	15.1712	42.214310	0.000233	2.331530	0.789944	0.000093
 383	3.8009e+01	15.2161	42.335424	0.000304	3.041126	1.030362	0.000122
 384	3.8108e+01	15.2563	42.444427	0.000274	2.737014	0.927325	0.000110
 385	3.8208e+01	15.2948	42.581689	0.000345	3.446610	1.167743	0.000138
 386	3.8307e+01	15.3284	42.686655	0.000264	2.635643	0.892980	0.000105
 387	3.8407e+01	15.3782	42.827954	0.000355	3.547981	1.202088	0.000142
 388	3.8507e+01	15.4135	42.924846	0.000243	2.432901	0.824289	0.000097
 389	3.8606e+01	15.4584	43.070183	0.000365	3.649352	1.236434	0.000146
 390	3.8706e+01	15.4969	43.159000	0.000223	2.230159	0.755598	0.000089
 391	3.8805e+01	15.5354	43.284151	0.000314	3.142497	1.064707	0.000126
 392	3.8904e+01	15.5691	43.409302	0.000314	3.142497	1.064707	0.000126
 393	3.9004e+01	15.6172	43.554639	0.000365	3.649352	1.236434	0.000146
 394	3.9103e+01	15.6557	43.623270	0.000172	1.723305	0.583872	0.000069
 395	3.9203e+01	15.7022	43.776681	0.000385	3.852093	1.305125	0.000154
 396	3.9303e+01	15.7343	43.861461	0.000213	2.128789	0.721253	0.000085
 397	3.9402e+01	15.7840	43.994687	0.000335	3.345239	1.133398	0.000134
 398	3.9502e+01	15.8145	44.095615	0.000253	2.534272	0.858635	0.000101
 399	3.9601e+01	15.8578	44.196543	0.000253	2.534272	0.858635	0.000101
 400	3.9700e+01	15.8947	44.321695	0.000314	3.142497	1.064707	0.000126
 401	3.9800e+01	15.9332	44.434735	0.000284	2.838385	0.961671	0.000114
 402	3.9900e+01	15.9750	44.551811	0.000294	2.939756	0.996016	0.000118
 403	3.9999e+01	16.0199	44.636591	0.000213	2.128789	0.721253	0.000085
 404	4.0099e+01	16.0487	44.773854	0.000345	3.446610	1.167743	0.000138
 405	4.0198e+01	16.0921	44.890931	0.000294	2.939756	0.996016	0.000118
 406	4.0297e+01	16.1354	45.008008	0.000294	2.939756	0.996016	0.000118
 407	4.0397e+01	16.1642	45.117010	0.000274	2.737014	0.927325	0.000110
 408	4.0496e+01	16.2140	45.230050	0.000284	2.838385	0.961671	0.000114
 409	4.0596e+01	16.2525	45.363276	0.000335	3.345239	1.133398	0.000134
 410	4.0696e+01	16.2958	45.456130	0.000233	2.331530	0.789944	0.000093
 411	4.0795e+01	16.3279	45.593392	0.000345	3.446610	1.167743	0.000138
 412	4.0895e+01	16.3744	45.706432	0.000284	2.838385	0.961671	0.000114
 413	4.0994e+01	16.4177	45.831583	0.000314	3.142497	1.064707	0.000126
 414	4.1093e+01	16.4658	45.924438	0.000233	2.331530	0.789944	0.000093
 415	4.1193e+01	16.4931	46.021329	0.000243	2.432901	0.824289	0.000097
 416	4.1292e+01	16.5188	46.170703	0.000375	3.750723	1.270779	0.000150
 417	4.1392e+01	16.5669	46.247408	0.000193	1.926047	0.652562	0.000077
 418	4.1492e+01	16.6054	46.376597	0.000324	3.243868	1.099052	0.000130
 419	4.1591e+01	16.6519	46.521934	0.000365	3.649352	1.236434	0.000146
 420	4.1691e+01	16.6856	46.626899	0.000264	2.635643	0.892980	0.000105
 421	4.1790e+01	16.7273	46.748013	0.000304	3.041126	1.030362	0.000122
 422	4.1889e+01	16.7690	46.865090	0.000294	2.939756	0.996016	0.000118
 423	4.1989e+01	16.8188	46.953907	0.000223	2.230159	0.755598	0.000089
 424	4.2089e+01	16.8477	47.070984	0.000294	2.939756	0.996016	0.000118
 425	4.2188e+01	16.8958	47.200172	0.000324	3.243868	1.099052	0.000130
 426	4.2288e+01	16.9279	47.301101	0.000253	2.534272	0.858635	0.000101
 427	4.2387e+01	16.9648	47.442401	0.000355	3.547981	1.202088	0.000142
 428	4.2486e+01	17.0145	47.535255	0.000233	2.331530	0.789944	0.000093
 429	4.2586e+01	17.0546	47.615997	0.000203	2.027418	0.686908	0.000081
 430	4.2685e+01	17.0803	47.749223	0.000335	3.345239	1.133398	0.000134
 431	4.2785e+01	17.1220	47.854188	0.000264	2.635643	0.892980	0.000105
 432	4.2885e+01	17.1701	47.983377	0.000324	3.243868	1.099052	0.000130
 433	4.2984e+01	17.2006	48.088342	0.000264	2.635643	0.892980	0.000105
 434	4.3084e+01	17.2487	48.205419	0.000294	2.939756	0.996016	0.000118
 435	4.3183e+01	17.2840	48.298273	0.000233	2.331530	0.789944	0.000093
 436	4.3282e+01	17.3385	48.427462	0.000324	3.243868	1.099052	0.000130
 437	4.3382e+01	17.3642	48.524353	0.000243	2.432901	0.824289	0.000097
 438	4.3481e+01	17.4204	48.645467	0.000304	3.041126	1.030362	0.000122
 439	4.3581e+01	17.4412	48.790804	0.000365	3.649352	1.236434	0.000146
 440	4.3681e+01	17.4877	48.863472	0.000182	1.824676	0.618217	0.000073
 441	4.3780e+01	17.5262	48.960364	0.000243	2.432901	0.824289	0.000097
 442	4.3880e+01	17.5647	49.113775	0.000385	3.852093	1.305125	0.000154
 443	4.3979e+01	17.5968	49.210666	0.000243	2.432901	0.824289	0.000097
 444	4.4078e+01	17.6578	49.303520	0.000233	2.331530	0.789944	0.000093
 445	4.4178e+01	17.6819	49.396374	0.000233	2.331530	0.789944	0.000093
 446	4.4278e+01	17.7268	49.586120	0.000476	4.764431	1.614233	0.000191
 447	4.4377e+01	17.7685	49.622454	0.000091	0.912338	0.309108	0.000037
 448	4.4477e+01	17.8070	49.751642	0.000324	3.243868	1.099052	0.000130
 449	4.4576e+01	17.8471	49.868719	0.000294	2.939756	0.996016	0.000118
 450	4.4675e+01	17.8840	49.933313	0.000162	1.621934	0.549526	0.000065
 451	4.4775e+01	17.9289	50.106910	0.000436	4.358948	1.476852	0.000174
 452	4.4874e+01	17.9626	50.219950	0.000284	2.838385	0.961671	0.000114
 453	4.4974e+01	18.0027	50.332990	0.000284	2.838385	0.961671	0.000114
 454	4.5074e+01	18.0396	50.421807	0.000223	2.230159	0.755598	0.000089
 455	4.5173e+01	18.0781	50.555032	0.000335	3.345239	1.133398	0.000134
 456	4.5273e+01	18.1294	50.647886	0.000233	2.331530	0.789944	0.000093
 457	4.5372e+01	18.1599	50.752852	0.000264	2.635643	0.892980	0.000105
 458	4.5471e+01	18.2016	50.898189	0.000365	3.649352	1.236434	0.000146
 459	4.5571e+01	18.2385	50.995080	0.000243	2.432901	0.824289	0.000097
 460	4.5670e+01	18.2963	51.120231	0.000314	3.142497	1.064707	0.000126
 461	4.5770e+01	18.3203	51.180788	0.000152	1.520563	0.515181	0.000061
 462	4.5870e+01	18.3685	51.314014	0.000335	3.345239	1.133398	0.000134
 463	4.5969e+01	18.4086	51.447239	0.000335	3.345239	1.133398	0.000134
 464	4.6069e+01	18.4519	51.532019	0.000213	2.128789	0.721253	0.000085
 465	4.6168e+01	18.4904	51.673319	0.000355	3.547981	1.202088	0.000142
 466	4.6267e+01	18.5257	51.798470	0.000314	3.142497	1.064707	0.000126
 467	4.6367e+01	18.5594	51.911510	0.000284	2.838385	0.961671	0.000114
 468	4.6467e+01	18.6059	52.040698	0.000324	3.243868	1.099052	0.000130
 469	4.6566e+01	18.6428	52.145664	0.000264	2.635643	0.892980	0.000105
 470	4.6666e+01	18.6765	52.274852	0.000324	3.243868	1.099052	0.000130
 471	4.6765e+01	18.7310	52.371743	0.000243	2.432901	0.824289	0.000097
 472	4.6864e+01	18.7615	52.476709	0.000264	2.635643	0.892980	0.000105
 473	4.6964e+01	18.8048	52.577637	0.000253	2.534272	0.858635	0.000101
 474	4.7063e+01	18.8529	52.686640	0.000274	2.737014	0.927325	0.000110
 475	4.7163e+01	18.8722	52.803717	0.000294	2.939756	0.996016	0.000118
 476	4.7263e+01	18.9171	52.949054	0.000365	3.649352	1.236434	0.000146
 477	4.7362e+01	18.9588	53.049982	0.000253	2.534272	0.858635	0.000101
 478	4.7462e+01	19.0102	53.130725	0.000203	2.027418	0.686908	0.000081
 479	4.7561e+01	19.0471	53.292210	0.000405	4.054835	1.373815	0.000162
 480	4.7660e+01	19.0759	53.372953	0.000203	2.027418	0.686908	0.000081
 481	4.7760e+01	19.1273	53.526364	0.000385	3.852093	1.305125	0.000154
 482	4.7859e+01	19.1722	53.671701	0.000365	3.649352	1.236434	0.000146
 483	4.7959e+01	19.1995	53.756481	0.000213	2.128789	0.721253	0.000085
 484	4.8059e+01	19.2476	53.865484	0.000274	2.737014	0.927325	0.000110
 485	4.8158e+01	19.2829	53.966412	0.000253	2.534272	0.858635	0.000101
 486	4.8258e+01	19.3326	54.103675	0.000345	3.446610	1.167743	0.000138
 487	4.8357e+01	19.3599	54.236900	0.000335	3.345239	1.133398	0.000134
 488	4.8456e+01	19.4000	54.349940	0.000284	2.838385	0.961671	0.000114
 489	4.8556e+01	19.4289	54.442794	0.000233	2.331530	0.789944	0.000093
 490	4.8656e+01	19.4866	54.604279	0.000405	4.054835	1.373815	0.000162
 491	4.8755e+01	19.5187	54.685022	0.000203	2.027418	0.686908	0.000081
 492	4.8855e+01	19.5636	54.794025	0.000274	2.737014	0.927325	0.000110
 493	4.8954e+01	19.6037	54.894953	0.000253	2.534272	0.858635	0.000101
 494	4.9053e+01	19.6374	54.987807	0.000233	2.331530	0.789944	0.000093
 495	4.9153e+01	19.6711	55.173516	0.000466	4.663061	1.579888	0.000187
 496	4.9252e+01	19.7208	55.262333	0.000223	2.230159	0.755598	0.000089
 497	4.9352e+01	19.7545	55.403632	0.000355	3.547981	1.202088	0.000142
 498	4.9452e+01	19.8026	55.480338	0.000193	1.926047	0.652562	0.000077
 499	4.9551e+01	19.8283	55.617600	0.000345	3.446610	1.167743	0.000138
 500	4.9651e+01	19.8861	55.734677	0.000294	2.939756	0.996016	0.000118
 501	4.9750e+01	19.9182	55.855792	0.000304	3.041126	1.030362	0.000122
 502	4.9849e+01	19.9615	55.960757	0.000264	2.635643	0.892980	0.000105
 503	4.9949e+01	19.9968	56.089945	0.000324	3.243868	1.099052	0.000130
 504	5.0048e+01	19.9599	55.976906	0.000284	2.838385	0.961671	-0.000114
 505	5.0148e+01	19.9166	55.924423	0.000132	1.317821	0.446490	-0.000053
 506	5.0248e+01	19.8893	55.815420	0.000274	2.737014	0.927325	-0.000110
 507	5.0347e+01	19.8203	55.738715	0.000193	1.926047	0.652562	-0.000077
 508	5.0447e+01	19.7898	55.621638	0.000294	2.939756	0.996016	-0.000118
 509	5.0546e+01	19.7577	55.484375	0.000345	3.446610	1.167743	-0.000138
 510	5.0645e+01	19.7192	55.415744	0.000172	1.723305	0.583872	-0.000069
 511	5.0745e+01	19.6807	55.335001	0.000203	2.027418	0.686908	-0.000081
 512	5.0844e+01	19.6390	55.250221	0.000213	2.128789	0.721253	-0.000085
 513	5.0944e+01	19.6037	55.161404	0.000223	2.230159	0.755598	-0.000089
 514	5.1044e+01	19.5636	55.072587	0.000223	2.230159	0.755598	-0.000089
 515	5.1143e+01	19.5155	54.927250	0.000365	3.649352	1.236434	-0.000146
 516	5.1242e+01	19.4818	54.870730	0.000142	1.419192	0.480835	-0.000057
 517	5.1342e+01	19.4401	54.777876	0.000233	2.331530	0.789944	-0.000093
 518	5.1441e+01	19.3968	54.701171	0.000193	1.926047	0.652562	-0.000077
 519	5.1541e+01	19.3631	54.555834	0.000365	3.649352	1.236434	-0.000146
 520	5.1641e+01	19.3134	54.479128	0.000193	1.926047	0.652562	-0.000077
 521	5.1740e+01	19.2893	54.386274	0.000233	2.331530	0.789944	-0.000093
 522	5.1840e+01	19.2428	54.261123	0.000314	3.142497	1.064707	-0.000126
 523	5.1939e+01	19.1962	54.192492	0.000172	1.723305	0.583872	-0.000069
 524	5.2038e+01	19.1626	54.079452	0.000284	2.838385	0.961671	-0.000114
 525	5.2138e+01	19.1176	53.990635	0.000223	2.230159	0.755598	-0.000089
 526	5.2237e+01	19.0840	53.881632	0.000274	2.737014	0.927325	-0.000110
 527	5.2337e+01	19.0390	53.841261	0.000101	1.013709	0.343454	-0.000041
 528	5.2437e+01	18.9989	53.716110	0.000314	3.142497	1.064707	-0.000126
 529	5.2536e+01	18.9572	53.635367	0.000203	2.027418	0.686908	-0.000081
 530	5.2636e+01	18.9187	53.522327	0.000284	2.838385	0.961671	-0.000114
 531	5.2735e+01	18.8834	53.437547	0.000213	2.128789	0.721253	-0.000085
 532	5.2834e+01	18.8401	53.328545	0.000274	2.737014	0.927325	-0.000110
 533	5.2934e+01	18.8016	53.243765	0.000213	2.128789	0.721253	-0.000085
 534	5.3033e+01	18.7599	53.118613	0.000314	3.142497	1.064707	-0.000126
 535	5.3133e+01	18.7278	53.021722	0.000243	2.432901	0.824289	-0.000097
 536	5.3233e+01	18.6861	52.912720	0.000274	2.737014	0.927325	-0.000110
 537	5.3332e+01	18.6460	52.856200	0.000142	1.419192	0.480835	-0.000057
 538	5.3431e+01	18.6107	52.718937	0.000345	3.446610	1.167743	-0.000138
 539	5.3531e+01	18.5658	52.638194	0.000203	2.027418	0.686908	-0.000081
 540	5.3630e+01	18.5289	52.545340	0.000233	2.331530	0.789944	-0.000093
 541	5.3730e+01	18.4792	52.440375	0.000264	2.635643	0.892980	-0.000105
 542	5.3830e+01	18.4471	52.347521	0.000233	2.331530	0.789944	-0.000093
 543	5.3929e+01	18.4070	52.222369	0.000314	3.142497	1.064707	-0.000126
 544	5.4029e+01	18.3653	52.117404	0.000264	2.635643	0.892980	-0.000105
 545	5.4128e+01	18.3203	51.992253	0.000314	3.142497	1.064707	-0.000126
 546	5.4227e+01	18.2722	51.927658	0.000162	1.621934	0.549526	-0.000065
 547	5.4327e+01	18.2417	51.834804	0.000233	2.331530	0.789944	-0.000093
 548	5.4426e+01	18.2113	51.705616	0.000324	3.243868	1.099052	-0.000130
 549	5.4526e+01	18.1711	51.600650	0.000264	2.635643	0.892980	-0.000105
 550	5.4626e+01	18.1246	51.519908	0.000203	2.027418	0.686908	-0.000081
 551	5.4725e+01	18.0845	51.390719	0.000324	3.243868	1.099052	-0.000130
 552	5.4825e+01	18.0492	51.297865	0.000233	2.331530	0.789944	-0.000093
 553	5.4924e+01	18.0043	51.209048	0.000223	2.230159	0.755598	-0.000089
 554	5.5023e+01	17.9674	51.071786	0.000345	3.446610	1.167743	-0.000138
 555	5.5123e+01	17.9177	50.995080	0.000193	1.926047	0.652562	-0.000077
 556	5.5222e+01	17.8840	50.910300	0.000213	2.128789	0.721253	-0.000085
 557	5.5322e+01	17.8551	50.728629	0.000456	4.561690	1.545542	-0.000183
 558	5.5422e+01	17.8022	50.704406	0.000061	0.608225	0.206072	-0.000024
 559	5.5521e+01	17.7765	50.587329	0.000294	2.939756	0.996016	-0.000118
 560	5.5620e+01	17.7188	50.437955	0.000375	3.750723	1.270779	-0.000150
 561	5.5720e+01	17.6819	50.385473	0.000132	1.317821	0.446490	-0.000053
 562	5.5819e+01	17.6498	50.276470	0.000274	2.737014	0.927325	-0.000110
 563	5.5919e+01	17.5968	50.163430	0.000284	2.838385	0.961671	-0.000114
 564	5.6019e+01	17.5663	50.062502	0.000253	2.534272	0.858635	-0.000101
 565	5.6118e+01	17.5278	49.969648	0.000233	2.331530	0.789944	-0.000093
 566	5.6218e+01	17.4926	49.852571	0.000294	2.939756	0.996016	-0.000118
 567	5.6317e+01	17.4573	49.683011	0.000426	4.257577	1.442506	-0.000170
 568	5.6416e+01	17.4043	49.618417	0.000162	1.621934	0.549526	-0.000065
 569	5.6516e+01	17.3690	49.505377	0.000284	2.838385	0.961671	-0.000114
 570	5.6615e+01	17.3321	49.404449	0.000253	2.534272	0.858635	-0.000101
 571	5.6715e+01	17.2904	49.287372	0.000294	2.939756	0.996016	-0.000118
 572	5.6815e+01	17.2455	49.158183	0.000324	3.243868	1.099052	-0.000130
 573	5.6914e+01	17.2070	49.061292	0.000243	2.432901	0.824289	-0.000097
 574	5.7014e+01	17.1749	48.996698	0.000162	1.621934	0.549526	-0.000065
 575	5.7113e+01	17.1220	48.839250	0.000395	3.953464	1.339470	-0.000158
 576	5.7212e+01	17.0851	48.766581	0.000182	1.824676	0.618217	-0.000073
 577	5.7312e+01	17.0466	48.633356	0.000335	3.345239	1.133398	-0.000134
 578	5.7411e+01	17.0145	48.568761	0.000162	1.621934	0.549526	-0.000065
 579	5.7511e+01	16.9712	48.399202	0.000426	4.257577	1.442506	-0.000170
 580	5.7611e+01	16.9182	48.318459	0.000203	2.027418	0.686908	-0.000081
 581	5.7710e+01	16.8862	48.213494	0.000264	2.635643	0.892980	-0.000105
 582	5.7809e+01	16.8493	48.124677	0.000223	2.230159	0.755598	-0.000089
 583	5.7909e+01	16.8043	47.995488	0.000324	3.243868	1.099052	-0.000130
 584	5.8008e+01	16.7674	47.890523	0.000264	2.635643	0.892980	-0.000105
 585	5.8108e+01	16.7225	47.765371	0.000314	3.142497	1.064707	-0.000126
 586	5.8208e+01	16.6969	47.692703	0.000182	1.824676	0.618217	-0.000073
 587	5.8307e+01	16.6503	47.547366	0.000365	3.649352	1.236434	-0.000146
 588	5.8407e+01	16.6166	47.406066	0.000355	3.547981	1.202088	-0.000142
 589	5.8506e+01	16.5749	47.329361	0.000193	1.926047	0.652562	-0.000077
 590	5.8605e+01	16.5300	47.244581	0.000213	2.128789	0.721253	-0.000085
 591	5.8705e+01	16.4915	47.099244	0.000365	3.649352	1.236434	-0.000146
 592	5.8804e+01	16.4498	47.022539	0.000193	1.926047	0.652562	-0.000077
 593	5.8904e+01	16.4097	46.905462	0.000294	2.939756	0.996016	-0.000118
 594	5.9004e+01	16.3728	46.764162	0.000355	3.547981	1.202088	-0.000142
 595	5.9103e+01	16.3279	46.683419	0.000203	2.027418	0.686908	-0.000081
 596	5.9203e+01	16.3006	46.594602	0.000223	2.230159	0.755598	-0.000089
 597	5.9302e+01	16.2605	46.473488	0.000304	3.041126	1.030362	-0.000122
 598	5.9401e+01	16.2108	46.344300	0.000324	3.243868	1.099052	-0.000130
 599	5.9501e+01	16.1723	46.211074	0.000335	3.345239	1.133398	-0.000134
 600	5.9600e+01	16.1338	46.118220	0.000233	2.331530	0.789944	-0.000093
 601	5.9700e+01	16.0872	45.993069	0.000314	3.142497	1.064707	-0.000126
 602	5.9800e+01	16.0471	45.916363	0.000193	1.926047	0.652562	-0.000077
 603	5.9899e+01	16.0151	45.779101	0.000345	3.446610	1.167743	-0.000138
 604	5.9998e+01	15.9701	45.666061	0.000284	2.838385	0.961671	-0.000114
 605	6.0098e+01	15.9397	45.585318	0.000203	2.027418	0.686908	-0.000081
 606	6.0197e+01	15.8963	45.464204	0.000304	3.041126	1.030362	-0.000122
 607	6.0297e+01	15.8594	45.294644	0.000426	4.257577	1.442506	-0.000170
 608	6.0397e+01	15.8177	45.221976	0.000182	1.824676	0.618217	-0.000073
 609	6.0496e+01	15.7728	45.121048	0.000253	2.534272	0.858635	-0.000101
 610	6.0596e+01	15.7375	44.991859	0.000324	3.243868	1.099052	-0.000130
 611	6.0695e+01	15.6942	44.886894	0.000264	2.635643	0.892980	-0.000105
 612	6.0794e+01	15.6477	44.777891	0.000274	2.737014	0.927325	-0.000110
 613	6.0894e+01	15.6108	44.660814	0.000294	2.939756	0.996016	-0.000118
 614	6.0993e+01	15.5835	44.551811	0.000274	2.737014	0.927325	-0.000110
 615	6.1093e+01	15.5290	44.418586	0.000335	3.345239	1.133398	-0.000134
 616	6.1193e+01	15.4985	44.337843	0.000203	2.027418	0.686908	-0.000081
 617	6.1292e+01	15.4584	44.180395	0.000395	3.953464	1.339470	-0.000158
 618	6.1392e+01	15.4151	44.123875	0.000142	1.419192	0.480835	-0.000057
 619	6.1491e+01	15.3782	43.986612	0.000345	3.446610	1.167743	-0.000138
 620	6.1590e+01	15.3349	43.853387	0.000335	3.345239	1.133398	-0.000134
 621	6.1690e+01	15.3044	43.772644	0.000203	2.027418	0.686908	-0.000081
 622	6.1789e+01	15.2546	43.615196	0.000395	3.953464	1.339470	-0.000158
 623	6.1889e+01	15.2210	43.526379	0.000223	2.230159	0.755598	-0.000089
 624	6.1989e+01	15.1776	43.409302	0.000294	2.939756	0.996016	-0.000118
 625	6.2088e+01	15.1295	43.284151	0.000314	3.142497	1.064707	-0.000126
 626	6.2188e+01	15.1022	43.150925	0.000335	3.345239	1.133398	-0.000134
 627	6.2287e+01	15.0621	43.082294	0.000172	1.723305	0.583872	-0.000069
 628	6.2386e+01	15.0124	42.989440	0.000233	2.331530	0.789944	-0.000093
 629	6.2486e+01	14.9723	42.840066	0.000375	3.750723	1.270779	-0.000150
 630	6.2586e+01	14.9370	42.718952	0.000304	3.041126	1.030362	-0.000122
 631	6.2685e+01	14.8985	42.593801	0.000314	3.142497	1.064707	-0.000126
 632	6.2785e+01	14.8600	42.525169	0.000172	1.723305	0.583872	-0.000069
 633	6.2884e+01	14.8151	42.416167	0.000274	2.737014	0.927325	-0.000110
 634	6.2983e+01	14.7782	42.295053	0.000304	3.041126	1.030362	-0.000122
 635	6.3083e+01	14.7397	42.214310	0.000203	2.027418	0.686908	-0.000081
 636	6.3182e+01	14.6948	42.097233	0.000294	2.939756	0.996016	-0.000118
 637	6.3282e+01	14.6611	42.004379	0.000233	2.331530	0.789944	-0.000093
 638	6.3382e+01	14.6210	41.871153	0.000335	3.345239	1.133398	-0.000134
 639	6.3481e+01	14.5777	41.766188	0.000264	2.635643	0.892980	-0.000105
 640	6.3581e+01	14.5360	41.649111	0.000294	2.939756	0.996016	-0.000118
 641	6.3680e+01	14.4975	41.527997	0.000304	3.041126	1.030362	-0.000122
 642	6.3779e+01	14.4654	41.427068	0.000253	2.534272	0.858635	-0.000101
 643	6.3879e+01	14.4156	41.338251	0.000223	2.230159	0.755598	-0.000089
 644	6.3978e+01	14.3819	41.229249	0.000274	2.737014	0.927325	-0.000110
 645	6.4078e+01	14.3434	41.104098	0.000314	3.142497	1.064707	-0.000126
 646	6.4177e+01	14.2969	40.962798	0.000355	3.547981	1.202088	-0.000142
 647	6.4277e+01	14.2600	40.882055	0.000203	2.027418	0.686908	-0.000081
 648	6.4376e+01	14.2247	40.756904	0.000314	3.142497	1.064707	-0.000126
 649	6.4476e+01	14.1830	40.668087	0.000223	2.230159	0.755598	-0.000089
 650	6.4576e+01	14.1381	40.571196	0.000243	2.432901	0.824289	-0.000097
 651	6.4675e+01	14.1076	40.450082	0.000304	3.041126	1.030362	-0.000122
 652	6.4775e+01	14.0547	40.320893	0.000324	3.243868	1.099052	-0.000130
 653	6.4874e+01	14.0194	40.195742	0.000314	3.142497	1.064707	-0.000126
 654	6.4974e+01	13.9809	40.110962	0.000213	2.128789	0.721253	-0.000085
 655	6.5073e+01	13.9360	40.005997	0.000264	2.635643	0.892980	-0.000105
 656	6.5172e+01	13.9023	39.896994	0.000274	2.737014	0.927325	-0.000110
 657	6.5272e+01	13.8558	39.751657	0.000365	3.649352	1.236434	-0.000146
 658	6.5371e+01	13.8189	39.683026	0.000172	1.723305	0.583872	-0.000069
 659	6.5471e+01	13.7836	39.553837	0.000324	3.243868	1.099052	-0.000130
 660	6.5570e+01	13.7354	39.424649	0.000324	3.243868	1.099052	-0.000130
 661	6.5670e+01	13.7001	39.331795	0.000233	2.331530	0.789944	-0.000093
 662	6.5769e+01	13.6616	39.242978	0.000223	2.230159	0.755598	-0.000089
 663	6.5869e+01	13.6312	39.093604	0.000375	3.750723	1.270779	-0.000150
 664	6.5969e+01	13.5782	38.992676	0.000253	2.534272	0.858635	-0.000101
 665	6.6068e+01	13.5413	38.920007	0.000182	1.824676	0.618217	-0.000073
 666	6.6168e+01	13.5028	38.778707	0.000355	3.547981	1.202088	-0.000142
 667	6.6267e+01	13.4627	38.689890	0.000223	2.230159	0.755598	-0.000089
 668	6.6367e+01	13.4226	38.544553	0.000365	3.649352	1.236434	-0.000146
 669	6.6466e+01	13.3809	38.447662	0.000243	2.432901	0.824289	-0.000097
 670	6.6566e+01	13.3488	38.387105	0.000152	1.520563	0.515181	-0.000061
 671	6.6665e+01	13.2975	38.249843	0.000345	3.446610	1.167743	-0.000138
 672	6.6764e+01	13.2622	38.140840	0.000274	2.737014	0.927325	-0.000110
 673	6.6864e+01	13.2237	38.031837	0.000274	2.737014	0.927325	-0.000110
 674	6.6963e+01	13.1756	37.902649	0.000324	3.243868	1.099052	-0.000130
 675	6.7063e+01	13.1451	37.777498	0.000314	3.142497	1.064707	-0.000126
 676	6.7162e+01	13.1066	37.688681	0.000223	2.230159	0.755598	-0.000089
 677	6.7262e+01	13.0777	37.571604	0.000294	2.939756	0.996016	-0.000118
 678	6.7362e+01	13.0264	37.430304	0.000355	3.547981	1.202088	-0.000142
 679	6.7461e+01	12.9815	37.389933	0.000101	1.013709	0.343454	-0.000041
 680	6.7561e+01	12.9526	37.212299	0.000446	4.460319	1.511197	-0.000179
 681	6.7660e+01	12.8980	37.188076	0.000061	0.608225	0.206072	-0.000024
 682	6.7760e+01	12.8676	37.026590	0.000405	4.054835	1.373815	-0.000162
 683	6.7859e+01	12.8307	36.929699	0.000243	2.432901	0.824289	-0.000097
 684	6.7959e+01	12.7857	36.800511	0.000324	3.243868	1.099052	-0.000130
 685	6.8058e+01	12.7488	36.703620	0.000243	2.432901	0.824289	-0.000097
 686	6.8157e+01	12.6991	36.606728	0.000243	2.432901	0.824289	-0.000097
 687	6.8257e+01	12.6734	36.517911	0.000223	2.230159	0.755598	-0.000089
 688	6.8356e+01	12.6349	36.368537	0.000375	3.750723	1.270779	-0.000150
 689	6.8456e+01	12.5868	36.255497	0.000284	2.838385	0.961671	-0.000114
 690	6.8555e+01	12.5499	36.162643	0.000233	2.331530	0.789944	-0.000093
 691	6.8655e+01	12.5098	36.061715	0.000253	2.534272	0.858635	-0.000101
 692	6.8754e+01	12.4729	35.976935	0.000213	2.128789	0.721253	-0.000085
 693	6.8854e+01	12.4296	35.855821	0.000304	3.041126	1.030362	-0.000122
 694	6.8954e+01	12.3959	35.750856	0.000264	2.635643	0.892980	-0.000105
 695	6.9053e+01	12.3542	35.629741	0.000304	3.041126	1.030362	-0.000122
 696	6.9153e+01	12.3157	35.512665	0.000294	2.939756	0.996016	-0.000118
 697	6.9252e+01	12.2612	35.427885	0.000213	2.128789	0.721253	-0.000085
 698	6.9352e+01	12.2307	35.318882	0.000274	2.737014	0.927325	-0.000110
 699	6.9451e+01	12.1938	35.181619	0.000345	3.446610	1.167743	-0.000138
 700	6.9550e+01	12.1473	35.064542	0.000294	2.939756	0.996016	-0.000118
 701	6.9650e+01	12.1071	34.995911	0.000172	1.723305	0.583872	-0.000069
 702	6.9749e+01	12.0702	34.850574	0.000365	3.649352	1.236434	-0.000146
 703	6.9849e+01	12.0350	34.757720	0.000233	2.331530	0.789944	-0.000093
 704	6.9948e+01	11.9916	34.668903	0.000223	2.230159	0.755598	-0.000089
 705	7.0048e+01	11.9435	34.543752	0.000314	3.142497	1.064707	-0.000126
 706	7.0147e+01	11.9114	34.422638	0.000304	3.041126	1.030362	-0.000122
 707	7.0247e+01	11.8697	34.341895	0.000203	2.027418	0.686908	-0.000081
 708	7.0347e+01	11.8280	34.196558	0.000365	3.649352	1.236434	-0.000146
 709	7.0446e+01	11.7831	34.111778	0.000213	2.128789	0.721253	-0.000085
 710	7.0546e+01	11.7558	33.978553	0.000335	3.345239	1.133398	-0.000134
 711	7.0645e+01	11.7077	33.841290	0.000345	3.446610	1.167743	-0.000138
 712	7.0745e+01	11.6740	33.756510	0.000213	2.128789	0.721253	-0.000085
 713	7.0844e+01	11.6387	33.623285	0.000335	3.345239	1.133398	-0.000134
 714	7.0944e+01	11.5954	33.510245	0.000284	2.838385	0.961671	-0.000114
 715	7.1043e+01	11.5585	33.421428	0.000223	2.230159	0.755598	-0.000089
 716	7.1142e+01	11.5088	33.308388	0.000284	2.838385	0.961671	-0.000114
 717	7.1242e+01	11.4703	33.187274	0.000304	3.041126	1.030362	-0.000122
 718	7.1341e+01	11.4286	33.078272	0.000274	2.737014	0.927325	-0.000110
 719	7.1441e+01	11.3933	32.977343	0.000253	2.534272	0.858635	-0.000101
 720	7.1540e+01	11.3580	32.852192	0.000314	3.142497	1.064707	-0.000126
 721	7.1640e+01	11.3130	32.727041	0.000314	3.142497	1.064707	-0.000126
 722	7.1740e+01	11.2697	32.638224	0.000223	2.230159	0.755598	-0.000089
 723	7.1839e+01	11.2264	32.537295	0.000253	2.534272	0.858635	-0.000101
 724	7.1939e+01	11.1959	32.391959	0.000365	3.649352	1.236434	-0.000146
 725	7.2038e+01	11.1478	32.286993	0.000264	2.635643	0.892980	-0.000105
 726	7.2138e+01	11.1093	32.157805	0.000324	3.243868	1.099052	-0.000130
 727	7.2237e+01	11.0676	32.056876	0.000253	2.534272	0.858635	-0.000101
 728	7.2337e+01	11.0307	31.911539	0.000365	3.649352	1.236434	-0.000146
 729	7.2436e+01	10.9890	31.810611	0.000253	2.534272	0.858635	-0.000101
 730	7.2535e+01	10.9537	31.689497	0.000304	3.041126	1.030362	-0.000122
 731	7.2635e+01	10.9120	31.592606	0.000243	2.432901	0.824289	-0.000097
 732	7.2734e+01	10.8831	31.491677	0.000253	2.534272	0.858635	-0.000101
 733	7.2834e+01	10.8382	31.358452	0.000335	3.345239	1.133398	-0.000134
 734	7.2933e+01	10.7933	31.241375	0.000294	2.939756	0.996016	-0.000118
 735	7.3033e+01	10.7548	31.176781	0.000162	1.621934	0.549526	-0.000065
 736	7.3132e+01	10.7195	30.999147	0.000446	4.460319	1.511197	-0.000179
 737	7.3232e+01	10.6746	30.894181	0.000264	2.635643	0.892980	-0.000105
 738	7.3332e+01	10.6280	30.764993	0.000324	3.243868	1.099052	-0.000130
 739	7.3431e+01	10.6008	30.651953	0.000284	2.838385	0.961671	-0.000114
 740	7.3531e+01	10.5655	30.522765	0.000324	3.243868	1.099052	-0.000130
 741	7.3630e+01	10.5174	30.454133	0.000172	1.723305	0.583872	-0.000069
 742	7.3730e+01	10.4756	30.316871	0.000345	3.446610	1.167743	-0.000138
 743	7.3829e+01	10.4259	30.191720	0.000314	3.142497	1.064707	-0.000126
 744	7.3928e+01	10.3922	30.054457	0.000345	3.446610	1.167743	-0.000138
 745	7.4028e+01	10.3569	29.953529	0.000253	2.534272	0.858635	-0.000101
 746	7.4127e+01	10.3200	29.856637	0.000243	2.432901	0.824289	-0.000097
 747	7.4227e+01	10.2783	29.703226	0.000385	3.852093	1.305125	-0.000154
 748	7.4326e+01	10.2414	29.602298	0.000253	2.534272	0.858635	-0.000101
 749	7.4426e+01	10.1949	29.521555	0.000203	2.027418	0.686908	-0.000081
 750	7.4525e+01	10.1580	29.388330	0.000335	3.345239	1.133398	-0.000134
 751	7.4625e+01	10.1179	29.275290	0.000284	2.838385	0.961671	-0.000114
 752	7.4725e+01	10.0730	29.125916	0.000375	3.750723	1.270779	-0.000150
 753	7.4824e+01	10.0345	29.004802	0.000304	3.041126	1.030362	-0.000122
 754	7.4924e+01	9.9896	28.915985	0.000223	2.230159	0.755598	-0.000089
 755	7.5023e+01	9.9478	28.774685	0.000355	3.547981	1.202088	-0.000142
 756	7.5123e+01	9.9206	28.673757	0.000253	2.534272	0.858635	-0.000101
 757	7.5222e+01	9.8821	28.556680	0.000294	2.939756	0.996016	-0.000118
 758	7.5322e+01	9.8468	28.427491	0.000324	3.243868	1.099052	-0.000130
 759	7.5421e+01	9.7970	28.302340	0.000314	3.142497	1.064707	-0.000126
 760	7.5520e+01	9.7585	28.185263	0.000294	2.939756	0.996016	-0.000118
 761	7.5620e+01	9.7233	28.088372	0.000243	2.432901	0.824289	-0.000097
 762	7.5719e+01	9.6719	27.930924	0.000395	3.953464	1.339470	-0.000158
 763	7.5819e+01	9.6398	27.850181	0.000203	2.027418	0.686908	-0.000081
 764	7.5918e+01	9.5885	27.704844	0.000365	3.649352	1.236434	-0.000146
 765	7.6018e+01	9.5548	27.628138	0.000193	1.926047	0.652562	-0.000077
 766	7.6118e+01	9.5243	27.434356	0.000487	4.865802	1.648578	-0.000195
 767	7.6217e+01	9.4906	27.353613	0.000203	2.027418	0.686908	-0.000081
 768	7.6317e+01	9.4393	27.208276	0.000365	3.649352	1.236434	-0.000146
 769	7.6416e+01	9.4040	27.123496	0.000213	2.128789	0.721253	-0.000085
 770	7.6516e+01	9.3687	27.006420	0.000294	2.939756	0.996016	-0.000118
 771	7.6615e+01	9.3222	26.881268	0.000314	3.142497	1.064707	-0.000126
 772	7.6715e+01	9.2789	26.756117	0.000314	3.142497	1.064707	-0.000126
 773	7.6814e+01	9.2388	26.655189	0.000253	2.534272	0.858635	-0.000101
 774	7.6913e+01	9.2019	26.493703	0.000405	4.054835	1.373815	-0.000162
 775	7.7013e+01	9.1634	26.392775	0.000253	2.534272	0.858635	-0.000101
 776	7.7112e+01	9.1233	26.267624	0.000314	3.142497	1.064707	-0.000126
 777	7.7212e+01	9.0864	26.162658	0.000264	2.635643	0.892980	-0.000105
 778	7.7311e+01	9.0431	26.013284	0.000375	3.750723	1.270779	-0.000150
 779	7.7411e+01	9.0078	25.904281	0.000274	2.737014	0.927325	-0.000110
 780	7.7510e+01	8.9612	25.811427	0.000233	2.331530	0.789944	-0.000093
 781	7.7610e+01	8.9131	25.662053	0.000375	3.750723	1.270779	-0.000150
 782	7.7710e+01	8.8810	25.544976	0.000294	2.939756	0.996016	-0.000118
 783	7.7809e+01	8.8425	25.423862	0.000304	3.041126	1.030362	-0.000122
 784	7.7909e+01	8.8024	25.298711	0.000314	3.142497	1.064707	-0.000126
 785	7.8008e+01	8.7639	25.173560	0.000314	3.142497	1.064707	-0.000126
 786	7.8108e+01	8.7238	25.068594	0.000264	2.635643	0.892980	-0.000105
 787	7.8207e+01	8.6773	24.943443	0.000314	3.142497	1.064707	-0.000126
 788	7.8306e+01	8.6468	24.810218	0.000335	3.345239	1.133398	-0.000134
 789	7.8406e+01	8.6035	24.652769	0.000395	3.953464	1.339470	-0.000158
 790	7.8505e+01	8.5666	24.576064	0.000193	1.926047	0.652562	-0.000077
 791	7.8605e+01	8.5217	24.426690	0.000375	3.750723	1.270779	-0.000150
 792	7.8704e+01	8.4816	24.301539	0.000314	3.142497	1.064707	-0.000126
 793	7.8804e+01	8.4447	24.208684	0.000233	2.331530	0.789944	-0.000093
 794	7.8903e+01	8.4142	24.071422	0.000345	3.446610	1.167743	-0.000138
 795	7.9003e+01	8.3613	23.978568	0.000233	2.331530	0.789944	-0.000093
 796	7.9103e+01	8.3147	23.833231	0.000365	3.649352	1.236434	-0.000146
 797	7.9202e+01	8.2843	23.708080	0.000314	3.142497	1.064707	-0.000126
 798	7.9302e+01	8.2458	23.611188	0.000243	2.432901	0.824289	-0.000097
 799	7.9401e+01	8.2089	23.473926	0.000345	3.446610	1.167743	-0.000138
 800	7.9501e+01	8.1559	23.360886	0.000284	2.838385	0.961671	-0.000114
 801	7.9600e+01	8.1254	23.239772	0.000304	3.041126	1.030362	-0.000122
 802	7.9700e+01	8.0934	23.126732	0.000284	2.838385	0.961671	-0.000114
 803	7.9799e+01	8.0388	22.981395	0.000365	3.649352	1.236434	-0.000146
 804	7.9898e+01	8.0115	22.900652	0.000203	2.027418	0.686908	-0.000081
 805	7.9998e+01	7.9778	22.783576	0.000294	2.939756	0.996016	-0.000118
 806	8.0097e+01	7.9265	22.670536	0.000284	2.838385	0.961671	-0.000114
 807	8.0197e+01	7.8944	22.565570	0.000264	2.635643	0.892980	-0.000105
 808	8.0296e+01	7.8463	22.420233	0.000365	3.649352	1.236434	-0.000146
 809	8.0396e+01	7.7998	22.331416	0.000223	2.230159	0.755598	-0.000089
 810	8.0496e+01	7.7645	22.190117	0.000355	3.547981	1.202088	-0.000142
 811	8.0595e+01	7.7244	22.064965	0.000314	3.142497	1.064707	-0.000126
 812	8.0695e+01	7.6891	21.935777	0.000324	3.243868	1.099052	-0.000130
 813	8.0794e+01	7.6474	21.810626	0.000314	3.142497	1.064707	-0.000126
 814	8.0894e+01	7.5976	21.693549	0.000294	2.939756	0.996016	-0.000118
 815	8.0993e+01	7.5720	21.624918	0.000172	1.723305	0.583872	-0.000069
 816	8.1093e+01	7.5271	21.507841	0.000294	2.939756	0.996016	-0.000118
 817	8.1192e+01	7.4886	21.374615	0.000335	3.345239	1.133398	-0.000134
 818	8.1291e+01	7.4517	21.253501	0.000304	3.041126	1.030362	-0.000122
 819	8.1391e+01	7.4019	21.136424	0.000294	2.939756	0.996016	-0.000118
 820	8.1490e+01	7.3731	21.047607	0.000223	2.230159	0.755598	-0.000089
 821	8.1590e+01	7.3313	20.914382	0.000335	3.345239	1.133398	-0.000134
 822	8.1689e+01	7.2912	20.773082	0.000355	3.547981	1.202088	-0.000142
 823	8.1789e+01	7.2495	20.688302	0.000213	2.128789	0.721253	-0.000085
 824	8.1888e+01	7.2110	20.547002	0.000355	3.547981	1.202088	-0.000142
 825	8.1988e+01	7.1629	20.458185	0.000223	2.230159	0.755598	-0.000089
 826	8.2088e+01	7.1260	20.320923	0.000345	3.446610	1.167743	-0.000138
 827	8.2187e+01	7.0859	20.167512	0.000385	3.852093	1.305125	-0.000154
 828	8.2287e+01	7.0570	20.066583	0.000253	2.534272	0.858635	-0.000101
 829	8.2386e+01	7.0105	19.945469	0.000304	3.041126	1.030362	-0.000122
 830	8.2486e+01	6.9672	19.816281	0.000324	3.243868	1.099052	-0.000130
 831	8.2585e+01	6.9319	19.695167	0.000304	3.041126	1.030362	-0.000122
 832	8.2684e+01	6.8902	19.590201	0.000264	2.635643	0.892980	-0.000105
 833	8.2784e+01	6.8517	19.529644	0.000152	1.520563	0.515181	-0.000061
 834	8.2883e+01	6.8164	19.368159	0.000405	4.054835	1.373815	-0.000162
 835	8.2983e+01	6.7667	19.238970	0.000324	3.243868	1.099052	-0.000130
 836	8.3082e+01	6.7282	19.117856	0.000304	3.041126	1.030362	-0.000122
 837	8.3182e+01	6.6832	19.029039	0.000223	2.230159	0.755598	-0.000089
 838	8.3281e+01	6.6511	18.924074	0.000264	2.635643	0.892980	-0.000105
 839	8.3381e+01	6.6110	18.819108	0.000264	2.635643	0.892980	-0.000105
 840	8.3481e+01	6.5741	18.665697	0.000385	3.852093	1.305125	-0.000154
 841	8.3580e+01	6.5340	18.556694	0.000274	2.737014	0.927325	-0.000110
 842	8.3680e+01	6.4939	18.447692	0.000274	2.737014	0.927325	-0.000110
 843	8.3779e+01	6.4538	18.330615	0.000294	2.939756	0.996016	-0.000118
 844	8.3879e+01	6.4169	18.253909	0.000193	1.926047	0.652562	-0.000077
 845	8.3978e+01	6.3768	18.092424	0.000405	4.054835	1.373815	-0.000162
 846	8.4078e+01	6.3319	17.991495	0.000253	2.534272	0.858635	-0.000101
 847	8.4177e+01	6.2966	17.821936	0.000426	4.257577	1.442506	-0.000170
 848	8.4276e+01	6.2549	17.753304	0.000172	1.723305	0.583872	-0.000069
 849	8.4376e+01	6.2132	17.591819	0.000405	4.054835	1.373815	-0.000162
 850	8.4475e+01	6.1731	17.523188	0.000172	1.723305	0.583872	-0.000069
 851	8.4575e+01	6.1426	17.361702	0.000405	4.054835	1.373815	-0.000162
 852	8.4674e+01	6.0977	17.289034	0.000182	1.824676	0.618217	-0.000073
 853	8.4774e+01	6.0592	17.163883	0.000314	3.142497	1.064707	-0.000126
 854	8.4874e+01	6.0175	17.075066	0.000223	2.230159	0.755598	-0.000089
 855	8.4973e+01	5.9774	16.925692	0.000375	3.750723	1.270779	-0.000150
 856	8.5073e+01	5.9421	16.820726	0.000264	2.635643	0.892980	-0.000105
 857	8.5172e+01	5.9052	16.691538	0.000324	3.243868	1.099052	-0.000130
 858	8.5272e+01	5.8506	16.614832	0.000193	1.926047	0.652562	-0.000077
 859	8.5371e+01	5.8169	16.469495	0.000365	3.649352	1.236434	-0.000146
 860	8.5471e+01	5.7768	16.352418	0.000294	2.939756	0.996016	-0.000118
 861	8.5570e+01	5.7367	16.235341	0.000294	2.939756	0.996016	-0.000118
 862	8.5669e+01	5.6950	16.098079	0.000345	3.446610	1.167743	-0.000138
 863	8.5769e+01	5.6517	15.989076	0.000274	2.737014	0.927325	-0.000110
 864	8.5868e+01	5.6180	15.867962	0.000304	3.041126	1.030362	-0.000122
 865	8.5968e+01	5.5859	15.783182	0.000213	2.128789	0.721253	-0.000085
 866	8.6067e+01	5.5314	15.662068	0.000304	3.041126	1.030362	-0.000122
 867	8.6167e+01	5.4993	15.561140	0.000253	2.534272	0.858635	-0.000101
 868	8.6266e+01	5.4592	15.448100	0.000284	2.838385	0.961671	-0.000114
 869	8.6366e+01	5.4191	15.347172	0.000253	2.534272	0.858635	-0.000101
 870	8.6466e+01	5.3790	15.181649	0.000416	4.156206	1.408161	-0.000166
 871	8.6565e+01	5.3244	15.092832	0.000223	2.230159	0.755598	-0.000089
 872	8.6665e+01	5.3036	14.987866	0.000264	2.635643	0.892980	-0.000105
 873	8.6764e+01	5.2651	14.858678	0.000324	3.243868	1.099052	-0.000130
 874	8.6864e+01	5.2105	14.729490	0.000324	3.243868	1.099052	-0.000130
 875	8.6963e+01	5.1865	14.644710	0.000213	2.128789	0.721253	-0.000085
 876	8.7063e+01	5.1416	14.531670	0.000284	2.838385	0.961671	-0.000114
 877	8.7162e+01	5.0934	14.378259	0.000385	3.852093	1.305125	-0.000154
 878	8.7261e+01	5.0421	14.277331	0.000253	2.534272	0.858635	-0.000101
 879	8.7361e+01	5.0180	14.176402	0.000253	2.534272	0.858635	-0.000101
 880	8.7460e+01	4.9699	14.010880	0.000416	4.156206	1.408161	-0.000166
 881	8.7560e+01	4.9442	13.934174	0.000193	1.926047	0.652562	-0.000077
 882	8.7659e+01	4.8961	13.804986	0.000324	3.243868	1.099052	-0.000130
 883	8.7759e+01	4.8592	13.683872	0.000304	3.041126	1.030362	-0.000122
 884	8.7859e+01	4.8239	13.546609	0.000345	3.446610	1.167743	-0.000138
 885	8.7958e+01	4.7774	13.433569	0.000284	2.838385	0.961671	-0.000114
 886	8.8058e+01	4.7389	13.296307	0.000345	3.446610	1.167743	-0.000138
 887	8.8157e+01	4.7036	13.175192	0.000304	3.041126	1.030362	-0.000122
 888	8.8257e+01	4.6619	13.094450	0.000203	2.027418	0.686908	-0.000081
 889	8.8356e+01	4.6186	12.949113	0.000365	3.649352	1.236434	-0.000146
 890	8.8456e+01	4.5737	12.832036	0.000294	2.939756	0.996016	-0.000118
 891	8.8555e+01	4.5336	12.723033	0.000274	2.737014	0.927325	-0.000110
 892	8.8654e+01	4.4999	12.581734	0.000355	3.547981	1.202088	-0.000142
 893	8.8754e+01	4.4630	12.456582	0.000314	3.142497	1.064707	-0.000126
 894	8.8853e+01	4.4277	12.347580	0.000274	2.737014	0.927325	-0.000110
 895	8.8953e+01	4.3844	12.258763	0.000223	2.230159	0.755598	-0.000089
 896	8.9052e+01	4.3394	12.121500	0.000345	3.446610	1.167743	-0.000138
 897	8.9152e+01	4.3074	11.992312	0.000324	3.243868	1.099052	-0.000130
 898	8.9251e+01	4.2608	11.838901	0.000385	3.852093	1.305125	-0.000154
 899	8.9351e+01	4.2255	11.762195	0.000193	1.926047	0.652562	-0.000077
 900	8.9451e+01	4.1838	11.616858	0.000365	3.649352	1.236434	-0.000146
 901	8.9550e+01	4.1421	11.528041	0.000223	2.230159	0.755598	-0.000089
 902	8.9650e+01	4.0908	11.390778	0.000345	3.446610	1.167743	-0.000138
 903	8.9749e+01	4.0683	11.289850	0.000253	2.534272	0.858635	-0.000101
 904	8.9849e+01	4.0170	11.136439	0.000385	3.852093	1.305125	-0.000154
 905	8.9948e+01	3.9833	10.995139	0.000355	3.547981	1.202088	-0.000142
 906	9.0047e+01	3.9368	10.914396	0.000203	2.027418	0.686908	-0.000081
 907	9.0147e+01	3.8951	10.744837	0.000426	4.257577	1.442506	-0.000170
 908	9.0246e+01	3.8614	10.619686	0.000314	3.142497	1.064707	-0.000126
 909	9.0346e+01	3.8277	10.506646	0.000284	2.838385	0.961671	-0.000114
 910	9.0445e+01	3.7892	10.401680	0.000264	2.635643	0.892980	-0.000105
 911	9.0545e+01	3.7459	10.320938	0.000203	2.027418	0.686908	-0.000081
 912	9.0644e+01	3.7106	10.167526	0.000385	3.852093	1.305125	-0.000154
 913	9.0744e+01	3.6609	10.042375	0.000314	3.142497	1.064707	-0.000126
 914	9.0844e+01	3.6240	9.893001	0.000375	3.750723	1.270779	-0.000150
 915	9.0943e+01	3.5855	9.796110	0.000243	2.432901	0.824289	-0.000097
 916	9.1043e+01	3.5502	9.679033	0.000294	2.939756	0.996016	-0.000118
 917	9.1142e+01	3.5085	9.513510	0.000416	4.156206	1.408161	-0.000166
 918	9.1242e+01	3.4716	9.452953	0.000152	1.520563	0.515181	-0.000061
 919	9.1341e+01	3.4186	9.299542	0.000385	3.852093	1.305125	-0.000154
 920	9.1441e+01	3.3801	9.166317	0.000335	3.345239	1.133398	-0.000134
 921	9.1540e+01	3.3448	9.081537	0.000213	2.128789	0.721253	-0.000085
 922	9.1639e+01	3.3015	8.936200	0.000365	3.649352	1.236434	-0.000146
 923	9.1739e+01	3.2710	8.794900	0.000355	3.547981	1.202088	-0.000142
 924	9.1838e+01	3.2261	8.657638	0.000345	3.446610	1.167743	-0.000138
 925	9.1938e+01	3.1860	8.568821	0.000223	2.230159	0.755598	-0.000089
 926	9.2037e+01	3.1539	8.431558	0.000345	3.446610	1.167743	-0.000138
 927	9.2137e+01	3.1122	8.302370	0.000324	3.243868	1.099052	-0.000130
 928	9.2237e+01	3.0673	8.197404	0.000264	2.635643	0.892980	-0.000105
 929	9.2336e+01	3.0176	8.076290	0.000304	3.041126	1.030362	-0.000122
 930	9.2436e+01	2.9807	7.955176	0.000304	3.041126	1.030362	-0.000122
 931	9.2535e+01	2.9422	7.801765	0.000385	3.852093	1.305125	-0.000154
 932	9.2635e+01	2.9021	7.712948	0.000223	2.230159	0.755598	-0.000089
 933	9.2734e+01	2.8652	7.583759	0.000324	3.243868	1.099052	-0.000130
 934	9.2834e+01	2.8202	7.442460	0.000355	3.547981	1.202088	-0.000142
 935	9.2933e+01	2.7866	7.313271	0.000324	3.243868	1.099052	-0.000130
 936	9.3032e+01	2.7545	7.155823	0.000395	3.953464	1.339470	-0.000158
 937	9.3132e+01	2.7095	7.071043	0.000213	2.128789	0.721253	-0.000085
 938	9.3231e+01	2.6710	6.949929	0.000304	3.041126	1.030362	-0.000122
 939	9.3331e+01	2.6325	6.812667	0.000345	3.446610	1.167743	-0.000138
 940	9.3430e+01	2.5876	6.707701	0.000264	2.635643	0.892980	-0.000105
 941	9.3530e+01	2.5539	6.590624	0.000294	2.939756	0.996016	-0.000118
 942	9.3629e+01	2.5170	6.465473	0.000314	3.142497	1.064707	-0.000126
 943	9.3729e+01	2.4705	6.328210	0.000345	3.446610	1.167743	-0.000138
 944	9.3829e+01	2.4368	6.199022	0.000324	3.243868	1.099052	-0.000130
 945	9.3928e+01	2.3903	6.085982	0.000284	2.838385	0.961671	-0.000114
 946	9.4028e+01	2.3518	5.940645	0.000365	3.649352	1.236434	-0.000146
 947	9.4127e+01	2.3101	5.823568	0.000294	2.939756	0.996016	-0.000118
 948	9.4227e+01	2.2700	5.706491	0.000294	2.939756	0.996016	-0.000118
 949	9.4326e+01	2.2299	5.540969	0.000416	4.156206	1.408161	-0.000166
 950	9.4425e+01	2.1898	5.415818	0.000314	3.142497	1.064707	-0.000126
 951	9.4525e+01	2.1545	5.322963	0.000233	2.331530	0.789944	-0.000093
 952	9.4624e+01	2.1064	5.141292	0.000456	4.561690	1.545542	-0.000183
 953	9.4724e+01	2.0646	5.060550	0.000203	2.027418	0.686908	-0.000081
 954	9.4823e+01	2.0310	4.927324	0.000335	3.345239	1.133398	-0.000134
 955	9.4923e+01	1.9844	4.830433	0.000243	2.432901	0.824289	-0.000097
 956	9.5022e+01	1.9540	4.693170	0.000345	3.446610	1.167743	-0.000138
 957	9.5122e+01	1.9122	4.519573	0.000436	4.358948	1.476852	-0.000174
 958	9.5222e+01	1.8705	4.479202	0.000101	1.013709	0.343454	-0.000041
 959	9.5321e+01	1.8352	4.321754	0.000395	3.953464	1.339470	-0.000158
 960	9.5421e+01	1.7791	4.144120	0.000446	4.460319	1.511197	-0.000179
 961	9.5520e+01	1.7614	4.047229	0.000243	2.432901	0.824289	-0.000097
 962	9.5620e+01	1.7117	3.938226	0.000274	2.737014	0.927325	-0.000110
 963	9.5719e+01	1.6732	3.809038	0.000324	3.243868	1.099052	-0.000130
 964	9.5819e+01	1.6203	3.691961	0.000294	2.939756	0.996016	-0.000118
 965	9.5918e+01	1.5898	3.599107	0.000233	2.331530	0.789944	-0.000093
 966	9.6017e+01	1.5449	3.453770	0.000365	3.649352	1.236434	-0.000146
 967	9.6117e+01	1.5336	3.332656	0.000304	3.041126	1.030362	-0.000122
 968	9.6216e+01	1.4663	3.203467	0.000324	3.243868	1.099052	-0.000130
 969	9.6316e+01	1.4342	3.090427	0.000284	2.838385	0.961671	-0.000114
 970	9.6415e+01	1.3893	2.985462	0.000264	2.635643	0.892980	-0.000105
 971	9.6515e+01	1.3492	2.807828	0.000446	4.460319	1.511197	-0.000179
 972	9.6615e+01	1.3139	2.743234	0.000162	1.621934	0.549526	-0.000065
 973	9.6714e+01	1.2770	2.593860	0.000375	3.750723	1.270779	-0.000150
 974	9.6814e+01	1.2256	2.468709	0.000314	3.142497	1.064707	-0.000126
 975	9.6913e+01	1.1952	2.363743	0.000264	2.635643	0.892980	-0.000105
 976	9.7013e+01	1.1550	2.246666	0.000294	2.939756	0.996016	-0.000118
 977	9.7112e+01	1.1117	2.109403	0.000345	3.446610	1.167743	-0.000138
 978	9.7212e+01	1.0716	1.988289	0.000304	3.041126	1.030362	-0.000122
 979	9.7311e+01	1.0315	1.871212	0.000294	2.939756	0.996016	-0.000118
 980	9.7410e+01	0.9834	1.786433	0.000213	2.128789	0.721253	-0.000085
 981	9.7510e+01	0.9513	1.641096	0.000365	3.649352	1.236434	-0.000146
 982	9.7609e+01	0.9048	1.524019	0.000294	2.939756	0.996016	-0.000118
 983	9.7709e+01	0.8727	1.386756	0.000345	3.446610	1.167743	-0.000138
 984	9.7808e+01	0.8310	1.293902	0.000233	2.331530	0.789944	-0.000093
 985	9.7908e+01	0.7925	1.168751	0.000314	3.142497	1.064707	-0.000126
 986	9.8007e+01	0.7572	1.051674	0.000294	2.939756	0.996016	-0.000118
 987	9.8107e+01	0.7107	0.934597	0.000294	2.939756	0.996016	-0.000118
 988	9.8207e+01	0.6834	0.821557	0.000284	2.838385	0.961671	-0.000114
 989	9.8306e+01	0.6321	0.688332	0.000335	3.345239	1.133398	-0.000134
 990	9.8406e+01	0.6016	0.559143	0.000324	3.243868	1.099052	-0.000130
 991	9.8505e+01	0.5454	0.401695	0.000395	3.953464	1.339470	-0.000158
 992	9.8605e+01	0.5134	0.329027	0.000182	1.824676	0.618217	-0.000073
 993	9.8704e+01	0.4749	0.220024	0.000274	2.737014	0.927325	-0.000110
 994	9.8803e+01	0.4364	0.066613	0.000385	3.852093	1.305125	-0.000154
 995	9.8903e+01	0.3962	-0.062576	0.000324	3.243868	1.099052	-0.000130
 996	9.9002e+01	0.3529	-0.131207	0.000172	1.723305	0.583872	-0.000069
 997	9.9102e+01	0.3160	-0.264432	0.000335	3.345239	1.133398	-0.000134
 998	9.9201e+01	0.2727	-0.385546	0.000304	3.041126	1.030362	-0.000122
 999	9.9301e+01	0.2374	-0.559143	0.000436	4.358948	1.476852	-0.000174
1000	9.9400e+01	0.1925	-0.615663	0.000142	1.419192	0.480835	-0.000057
1001	9.9500e+01	0.1556	-0.728703	0.000284	2.838385	0.961671	-0.000114
1002	9.9600e+01	0.1139	-0.870003	0.000355	3.547981	1.202088	-0.000142
1003	9.9699e+01	0.0850	-0.974968	0.000264	2.635643	0.892980	-0.000105
1004	9.9799e+01	0.0449	-1.108194	0.000335	3.345239	1.133398	-0.000134
1005	9.9898e+01	0.0064	-1.180862	0.000182	1.824676	0.618217	-0.000073
1006	9.9998e+01	-0.0449	-1.314088	0.000335	3.345239	1.133398	-0.000134
1007	1.0010e+02	-0.0706	-1.394830	0.000203	2.027418	0.686908	-0.000081
1008	1.0020e+02	-0.1203	-1.524019	0.000324	3.243868	1.099052	-0.000130
1009	1.0030e+02	-0.1604	-1.665318	0.000355	3.547981	1.202088	-0.000142
1010	1.0040e+02	-0.1973	-1.770284	0.000264	2.635643	0.892980	-0.000105
1011	1.0050e+02	-0.2374	-1.955992	0.000466	4.663061	1.579888	-0.000187
1012	1.0059e+02	-0.2872	-2.016549	0.000152	1.520563	0.515181	-0.000061
1013	1.0069e+02	-0.3128	-2.133626	0.000294	2.939756	0.996016	-0.000118
1014	1.0079e+02	-0.3545	-2.283000	0.000375	3.750723	1.270779	-0.000150
1015	1.0089e+02	-0.3930	-2.363743	0.000203	2.027418	0.686908	-0.000081
1016	1.0099e+02	-0.4331	-2.480820	0.000294	2.939756	0.996016	-0.000118
1017	1.0109e+02	-0.4749	-2.597897	0.000294	2.939756	0.996016	-0.000118
1018	1.0119e+02	-0.5182	-2.719011	0.000304	3.041126	1.030362	-0.000122
1019	1.0129e+02	-0.5470	-2.832051	0.000284	2.838385	0.961671	-0.000114
1020	1.0139e+02	-0.5968	-2.961239	0.000324	3.243868	1.099052	-0.000130
1021	1.0149e+02	-0.6240	-3.037945	0.000193	1.926047	0.652562	-0.000077
1022	1.0159e+02	-0.6722	-3.159059	0.000304	3.041126	1.030362	-0.000122
1023	1.0169e+02	-0.7123	-3.324581	0.000416	4.156206	1.408161	-0.000166
1024	1.0179e+02	-0.7492	-3.405324	0.000203	2.027418	0.686908	-0.000081
1025	1.0189e+02	-0.7941	-3.526438	0.000304	3.041126	1.030362	-0.000122
1026	1.0199e+02	-0.8294	-3.655626	0.000324	3.243868	1.099052	-0.000130
1027	1.0209e+02	-0.8711	-3.764629	0.000274	2.737014	0.927325	-0.000110
1028	1.0219e+02	-0.9144	-3.853446	0.000223	2.230159	0.755598	-0.000089
1029	1.0229e+02	-0.9513	-3.974560	0.000304	3.041126	1.030362	-0.000122
1030	1.0239e+02	-0.9978	-4.087600	0.000284	2.838385	0.961671	-0.000114
1031	1.0248e+02	-1.0299	-4.236974	0.000375	3.750723	1.270779	-0.000150
1032	1.0258e+02	-1.0572	-4.333865	0.000243	2.432901	0.824289	-0.000097
1033	1.0268e+02	-1.1117	-4.479202	0.000365	3.649352	1.236434	-0.000146
1034	1.0278e+02	-1.1534	-4.584168	0.000264	2.635643	0.892980	-0.000105
1035	1.0288e+02	-1.1935	-4.668947	0.000213	2.128789	0.721253	-0.000085
1036	1.0298e+02	-1.2240	-4.781987	0.000284	2.838385	0.961671	-0.000114
1037	1.0308e+02	-1.2706	-4.927324	0.000365	3.649352	1.236434	-0.000146
1038	1.0318e+02	-1.3123	-4.987881	0.000152	1.520563	0.515181	-0.000061
1039	1.0328e+02	-1.3476	-5.169552	0.000456	4.561690	1.545542	-0.000183
1040	1.0338e+02	-1.3893	-5.258369	0.000223	2.230159	0.755598	-0.000089
1041	1.0348e+02	-1.4262	-5.379483	0.000304	3.041126	1.030362	-0.000122
1042	1.0358e+02	-1.4711	-5.476375	0.000243	2.432901	0.824289	-0.000097
1043	1.0368e+02	-1.5048	-5.593452	0.000294	2.939756	0.996016	-0.000118
1044	1.0378e+02	-1.5545	-5.702454	0.000274	2.737014	0.927325	-0.000110
1045	1.0388e+02	-1.5978	-5.791271	0.000223	2.230159	0.755598	-0.000089
1046	1.0398e+02	-1.6251	-5.964868	0.000436	4.358948	1.476852	-0.000174
1047	1.0408e+02	-1.6732	-6.033499	0.000172	1.723305	0.583872	-0.000069
1048	1.0418e+02	-1.7053	-6.162688	0.000324	3.243868	1.099052	-0.000130
1049	1.0428e+02	-1.7550	-6.283802	0.000304	3.041126	1.030362	-0.000122
1050	1.0438e+02	-1.7919	-6.453361	0.000426	4.257577	1.442506	-0.000170
1051	1.0447e+02	-1.8304	-6.562364	0.000274	2.737014	0.927325	-0.000110
1052	1.0457e+02	-1.8737	-6.663293	0.000253	2.534272	0.858635	-0.000101
1053	1.0467e+02	-1.9090	-6.792481	0.000324	3.243868	1.099052	-0.000130
1054	1.0477e+02	-1.9475	-6.865149	0.000182	1.824676	0.618217	-0.000073
1055	1.0487e+02	-1.9844	-7.018560	0.000385	3.852093	1.305125	-0.000154
1056	1.0497e+02	-2.0261	-7.167935	0.000375	3.750723	1.270779	-0.000150
1057	1.0507e+02	-2.0743	-7.252714	0.000213	2.128789	0.721253	-0.000085
1058	1.0517e+02	-2.1112	-7.398051	0.000365	3.649352	1.236434	-0.000146
1059	1.0527e+02	-2.1417	-7.450534	0.000132	1.317821	0.446490	-0.000053
1060	1.0537e+02	-2.1866	-7.644317	0.000487	4.865802	1.648578	-0.000195
1061	1.0547e+02	-2.2363	-7.716985	0.000182	1.824676	0.618217	-0.000073
1062	1.0557e+02	-2.2716	-7.866359	0.000375	3.750723	1.270779	-0.000150
1063	1.0567e+02	-2.3037	-7.951139	0.000213	2.128789	0.721253	-0.000085
1064	1.0577e+02	-2.3438	-8.100513	0.000375	3.750723	1.270779	-0.000150
1065	1.0587e+02	-2.3791	-8.177218	0.000193	1.926047	0.652562	-0.000077
1066	1.0597e+02	-2.4256	-8.342741	0.000416	4.156206	1.408161	-0.000166
1067	1.0607e+02	-2.4657	-8.427521	0.000213	2.128789	0.721253	-0.000085
1068	1.0617e+02	-2.5010	-8.520375	0.000233	2.331530	0.789944	-0.000093
1069	1.0627e+02	-2.5443	-8.689935	0.000426	4.257577	1.442506	-0.000170
1070	1.0637e+02	-2.5940	-8.823160	0.000335	3.345239	1.133398	-0.000134
1071	1.0647e+02	-2.6229	-8.867569	0.000112	1.115080	0.377799	-0.000045
1072	1.0656e+02	-2.6550	-9.029054	0.000405	4.054835	1.373815	-0.000162
1073	1.0666e+02	-2.7015	-9.113834	0.000213	2.128789	0.721253	-0.000085
1074	1.0676e+02	-2.7432	-9.243022	0.000324	3.243868	1.099052	-0.000130
1075	1.0686e+02	-2.7882	-9.372211	0.000324	3.243868	1.099052	-0.000130
1076	1.0696e+02	-2.8186	-9.513510	0.000355	3.547981	1.202088	-0.000142
1077	1.0706e+02	-2.8620	-9.650773	0.000345	3.446610	1.167743	-0.000138
1078	1.0716e+02	-2.9053	-9.727479	0.000193	1.926047	0.652562	-0.000077
1079	1.0726e+02	-2.9470	-9.893001	0.000416	4.156206	1.408161	-0.000166
1080	1.0736e+02	-2.9791	-9.965670	0.000182	1.824676	0.618217	-0.000073
1081	1.0746e+02	-3.0224	-10.090821	0.000314	3.142497	1.064707	-0.000126
1082	1.0756e+02	-3.0609	-10.207898	0.000294	2.939756	0.996016	-0.000118
1083	1.0766e+02	-3.1010	-10.377457	0.000426	4.257577	1.442506	-0.000170
1084	1.0776e+02	-3.1411	-10.454163	0.000193	1.926047	0.652562	-0.000077
1085	1.0786e+02	-3.1796	-10.579314	0.000314	3.142497	1.064707	-0.000126
1086	1.0796e+02	-3.2165	-10.712540	0.000335	3.345239	1.133398	-0.000134
1087	1.0806e+02	-3.2710	-10.821542	0.000274	2.737014	0.927325	-0.000110
1088	1.0816e+02	-3.3015	-10.930545	0.000274	2.737014	0.927325	-0.000110
1089	1.0826e+02	-3.3432	-11.043585	0.000284	2.838385	0.961671	-0.000114
1090	1.0836e+02	-3.3833	-11.152587	0.000274	2.737014	0.927325	-0.000110
1091	1.0845e+02	-3.4234	-11.318110	0.000416	4.156206	1.408161	-0.000166
1092	1.0855e+02	-3.4555	-11.394816	0.000193	1.926047	0.652562	-0.000077
1093	1.0865e+02	-3.5101	-11.524004	0.000324	3.243868	1.099052	-0.000130
1094	1.0875e+02	-3.5405	-11.653192	0.000324	3.243868	1.099052	-0.000130
1095	1.0885e+02	-3.5903	-11.758158	0.000264	2.635643	0.892980	-0.000105
1096	1.0895e+02	-3.6272	-11.899458	0.000355	3.547981	1.202088	-0.000142
1097	1.0905e+02	-3.6609	-12.008460	0.000274	2.737014	0.927325	-0.000110
1098	1.0915e+02	-3.6994	-12.085166	0.000193	1.926047	0.652562	-0.000077
1099	1.0925e+02	-3.7443	-12.270874	0.000466	4.663061	1.579888	-0.000187
1100	1.0935e+02	-3.7732	-12.339505	0.000172	1.723305	0.583872	-0.000069
1101	1.0945e+02	-3.8261	-12.460619	0.000304	3.041126	1.030362	-0.000122
1102	1.0955e+02	-3.8582	-12.585771	0.000314	3.142497	1.064707	-0.000126
1103	1.0965e+02	-3.8983	-12.702848	0.000294	2.939756	0.996016	-0.000118
1104	1.0975e+02	-3.9432	-12.827999	0.000314	3.142497	1.064707	-0.000126
1105	1.0985e+02	-3.9785	-12.977373	0.000375	3.750723	1.270779	-0.000150
1106	1.0995e+02	-4.0170	-13.102524	0.000314	3.142497	1.064707	-0.000126
1107	1.1005e+02	-4.0555	-13.183267	0.000203	2.027418	0.686908	-0.000081
1108	1.1015e+02	-4.0988	-13.328604	0.000365	3.649352	1.236434	-0.000146
1109	1.1025e+02	-4.1373	-13.437606	0.000274	2.737014	0.927325	-0.000110
1110	1.1035e+02	-4.1742	-13.566795	0.000324	3.243868	1.099052	-0.000130
1111	1.1044e+02	-4.2304	-13.691946	0.000314	3.142497	1.064707	-0.000126
1112	1.1054e+02	-4.2560	-13.804986	0.000284	2.838385	0.961671	-0.000114
1113	1.1064e+02	-4.3026	-13.905914	0.000253	2.534272	0.858635	-0.000101
1114	1.1074e+02	-4.3314	-14.039140	0.000335	3.345239	1.133398	-0.000134
1115	1.1084e+02	-4.3812	-14.140068	0.000253	2.534272	0.858635	-0.000101
1116	1.1094e+02	-4.4132	-14.257145	0.000294	2.939756	0.996016	-0.000118
1117	1.1104e+02	-4.4550	-14.354036	0.000243	2.432901	0.824289	-0.000097
1118	1.1114e+02	-4.4983	-14.519559	0.000416	4.156206	1.408161	-0.000166
1119	1.1124e+02	-4.5448	-14.652784	0.000335	3.345239	1.133398	-0.000134
1120	1.1134e+02	-4.5897	-14.729490	0.000193	1.926047	0.652562	-0.000077
1121	1.1144e+02	-4.6138	-14.862715	0.000335	3.345239	1.133398	-0.000134
1122	1.1154e+02	-4.6603	-15.008052	0.000365	3.649352	1.236434	-0.000146
1123	1.1164e+02	-4.6956	-15.113018	0.000264	2.635643	0.892980	-0.000105
1124	1.1174e+02	-4.7389	-15.217983	0.000264	2.635643	0.892980	-0.000105
1125	1.1184e+02	-4.7822	-15.339097	0.000304	3.041126	1.030362	-0.000122
1126	1.1194e+02	-4.8191	-15.456174	0.000294	2.939756	0.996016	-0.000118
1127	1.1204e+02	-4.8576	-15.581325	0.000314	3.142497	1.064707	-0.000126
1128	1.1214e+02	-4.9009	-15.718588	0.000345	3.446610	1.167743	-0.000138
1129	1.1224e+02	-4.9298	-15.835665	0.000294	2.939756	0.996016	-0.000118
1130	1.1234e+02	-4.9860	-15.964853	0.000324	3.243868	1.099052	-0.000130
1131	1.1244e+02	-5.0116	-16.053670	0.000223	2.230159	0.755598	-0.000089
1132	1.1253e+02	-5.0533	-16.154599	0.000253	2.534272	0.858635	-0.000101
1133	1.1263e+02	-5.0999	-16.271676	0.000294	2.939756	0.996016	-0.000118
1134	1.1273e+02	-5.1368	-16.388753	0.000294	2.939756	0.996016	-0.000118
1135	1.1283e+02	-5.1769	-16.497755	0.000274	2.737014	0.927325	-0.000110
1136	1.1293e+02	-5.2154	-16.639055	0.000355	3.547981	1.202088	-0.000142
1137	1.1303e+02	-5.2603	-16.719798	0.000203	2.027418	0.686908	-0.000081
1138	1.1313e+02	-5.2956	-16.865135	0.000365	3.649352	1.236434	-0.000146
1139	1.1323e+02	-5.3373	-16.970100	0.000264	2.635643	0.892980	-0.000105
1140	1.1333e+02	-5.3742	-17.075066	0.000264	2.635643	0.892980	-0.000105
1141	1.1343e+02	-5.4191	-17.171957	0.000243	2.432901	0.824289	-0.000097
1142	1.1353e+02	-5.4544	-17.325368	0.000385	3.852093	1.305125	-0.000154
1143	1.1363e+02	-5.4977	-17.442445	0.000294	2.939756	0.996016	-0.000118
1144	1.1373e+02	-5.5266	-17.555485	0.000284	2.838385	0.961671	-0.000114
1145	1.1383e+02	-5.5779	-17.640265	0.000213	2.128789	0.721253	-0.000085
1146	1.1393e+02	-5.6132	-17.749267	0.000274	2.737014	0.927325	-0.000110
1147	1.1403e+02	-5.6613	-17.886530	0.000345	3.446610	1.167743	-0.000138
1148	1.1413e+02	-5.6998	-18.064164	0.000446	4.460319	1.511197	-0.000179
1149	1.1423e+02	-5.7383	-18.088387	0.000061	0.608225	0.206072	-0.000024
1150	1.1433e+02	-5.7801	-18.233724	0.000365	3.649352	1.236434	-0.000146
1151	1.1442e+02	-5.8153	-18.318503	0.000213	2.128789	0.721253	-0.000085
1152	1.1452e+02	-5.8426	-18.484026	0.000416	4.156206	1.408161	-0.000166
1153	1.1462e+02	-5.9036	-18.504212	0.000051	0.506854	0.171727	-0.000020
1154	1.1472e+02	-5.9357	-18.677808	0.000436	4.358948	1.476852	-0.000174
1155	1.1482e+02	-5.9758	-18.794885	0.000294	2.939756	0.996016	-0.000118
1156	1.1492e+02	-6.0079	-18.895814	0.000253	2.534272	0.858635	-0.000101
1157	1.1502e+02	-6.0512	-18.988668	0.000233	2.331530	0.789944	-0.000093
1158	1.1512e+02	-6.0913	-19.134005	0.000365	3.649352	1.236434	-0.000146
1159	1.1522e+02	-6.1266	-19.226859	0.000233	2.331530	0.789944	-0.000093
1160	1.1532e+02	-6.1779	-19.376233	0.000375	3.750723	1.270779	-0.000150
1161	1.1542e+02	-6.2116	-19.452939	0.000193	1.926047	0.652562	-0.000077
1162	1.1552e+02	-6.2581	-19.586164	0.000335	3.345239	1.133398	-0.000134
1163	1.1562e+02	-6.2886	-19.687092	0.000253	2.534272	0.858635	-0.000101
1164	1.1572e+02	-6.3319	-19.820318	0.000335	3.345239	1.133398	-0.000134
1165	1.1582e+02	-6.3656	-19.892986	0.000182	1.824676	0.618217	-0.000073
1166	1.1592e+02	-6.4105	-19.993915	0.000253	2.534272	0.858635	-0.000101
1167	1.1602e+02	-6.4378	-20.115029	0.000304	3.041126	1.030362	-0.000122
1168	1.1612e+02	-6.4827	-20.219994	0.000264	2.635643	0.892980	-0.000105
1169	1.1622e+02	-6.5276	-20.312848	0.000233	2.331530	0.789944	-0.000093
1170	1.1632e+02	-6.5741	-20.438000	0.000314	3.142497	1.064707	-0.000126
1171	1.1642e+02	-6.6126	-20.575262	0.000345	3.446610	1.167743	-0.000138
1172	1.1651e+02	-6.6447	-20.656005	0.000203	2.027418	0.686908	-0.000081
1173	1.1661e+02	-6.6816	-20.752896	0.000243	2.432901	0.824289	-0.000097
1174	1.1671e+02	-6.7282	-20.857862	0.000264	2.635643	0.892980	-0.000105
1175	1.1681e+02	-6.7683	-20.995124	0.000345	3.446610	1.167743	-0.000138
1176	1.1691e+02	-6.8036	-21.096053	0.000253	2.534272	0.858635	-0.000101
1177	1.1701e+02	-6.8469	-21.213130	0.000294	2.939756	0.996016	-0.000118
1178	1.1711e+02	-6.8918	-21.310021	0.000243	2.432901	0.824289	-0.000097
1179	1.1721e+02	-6.9207	-21.402875	0.000233	2.331530	0.789944	-0.000093
1180	1.1731e+02	-6.9736	-21.532063	0.000324	3.243868	1.099052	-0.000130
1181	1.1741e+02	-7.0057	-21.628955	0.000243	2.432901	0.824289	-0.000097
1182	1.1751e+02	-7.0442	-21.758143	0.000324	3.243868	1.099052	-0.000130
1183	1.1761e+02	-7.0939	-21.842923	0.000213	2.128789	0.721253	-0.000085
1184	1.1771e+02	-7.1244	-21.980186	0.000345	3.446610	1.167743	-0.000138
1185	1.1781e+02	-7.1565	-22.105337	0.000314	3.142497	1.064707	-0.000126
1186	1.1791e+02	-7.2062	-22.202228	0.000243	2.432901	0.824289	-0.000097
1187	1.1801e+02	-7.2447	-22.234525	0.000081	0.810967	0.274763	-0.000032
1188	1.1811e+02	-7.2800	-22.408122	0.000436	4.358948	1.476852	-0.000174
1189	1.1821e+02	-7.3233	-22.513087	0.000264	2.635643	0.892980	-0.000105
1190	1.1831e+02	-7.3682	-22.597867	0.000213	2.128789	0.721253	-0.000085
1191	1.1841e+02	-7.4116	-22.747241	0.000375	3.750723	1.270779	-0.000150
1192	1.1850e+02	-7.4485	-22.819910	0.000182	1.824676	0.618217	-0.000073
1193	1.1860e+02	-7.4837	-22.912764	0.000233	2.331530	0.789944	-0.000093
1194	1.1870e+02	-7.5206	-23.041952	0.000324	3.243868	1.099052	-0.000130
1195	1.1880e+02	-7.5672	-23.163066	0.000304	3.041126	1.030362	-0.000122
1196	1.1890e+02	-7.5928	-23.276106	0.000284	2.838385	0.961671	-0.000114
1197	1.1900e+02	-7.6442	-23.348775	0.000182	1.824676	0.618217	-0.000073
1198	1.1910e+02	-7.6827	-23.449703	0.000253	2.534272	0.858635	-0.000101
1199	1.1920e+02	-7.7164	-23.566780	0.000294	2.939756	0.996016	-0.000118
1200	1.1930e+02	-7.7581	-23.663671	0.000243	2.432901	0.824289	-0.000097
1201	1.1940e+02	-7.8014	-23.780748	0.000294	2.939756	0.996016	-0.000118
1202	1.1950e+02	-7.8351	-23.857454	0.000193	1.926047	0.652562	-0.000077
1203	1.1960e+02	-7.8832	-23.990679	0.000335	3.345239	1.133398	-0.000134
1204	1.1970e+02	-7.9233	-24.047199	0.000142	1.419192	0.480835	-0.000057
1205	1.1980e+02	-7.9666	-24.168313	0.000304	3.041126	1.030362	-0.000122
1206	1.1990e+02	-8.0003	-24.289427	0.000304	3.041126	1.030362	-0.000122
1207	1.2000e+02	-8.0404	-24.414578	0.000314	3.142497	1.064707	-0.000126
1208	1.2010e+02	-8.0741	-24.495321	0.000203	2.027418	0.686908	-0.000081
1209	1.2020e+02	-8.1254	-24.588175	0.000233	2.331530	0.789944	-0.000093
1210	1.2030e+02	-8.1575	-24.701215	0.000284	2.838385	0.961671	-0.000114
1211	1.2039e+02	-8.1960	-24.834440	0.000335	3.345239	1.133398	-0.000134
1212	1.2049e+02	-8.2393	-24.935369	0.000253	2.534272	0.858635	-0.000101
1213	1.2059e+02	-8.2843	-25.024186	0.000223	2.230159	0.755598	-0.000089
1214	1.2069e+02	-8.3147	-25.129151	0.000264	2.635643	0.892980	-0.000105
1215	1.2079e+02	-8.3645	-25.278525	0.000375	3.750723	1.270779	-0.000150
1216	1.2089e+02	-8.4062	-25.347157	0.000172	1.723305	0.583872	-0.000069
1217	1.2099e+02	-8.4447	-25.435974	0.000223	2.230159	0.755598	-0.000089
1218	1.2109e+02	-8.4800	-25.544976	0.000274	2.737014	0.927325	-0.000110
1219	1.2119e+02	-8.5169	-25.678202	0.000335	3.345239	1.133398	-0.000134
1220	1.2129e+02	-8.5570	-25.807390	0.000324	3.243868	1.099052	-0.000130
1221	1.2139e+02	-8.5987	-25.896207	0.000223	2.230159	0.755598	-0.000089
1222	1.2149e+02	-8.6436	-26.009247	0.000284	2.838385	0.961671	-0.000114
1223	1.2159e+02	-8.6757	-26.114213	0.000264	2.635643	0.892980	-0.000105
1224	1.2169e+02	-8.7142	-26.227252	0.000284	2.838385	0.961671	-0.000114
1225	1.2179e+02	-8.7495	-26.332218	0.000264	2.635643	0.892980	-0.000105
1226	1.2189e+02	-8.8008	-26.481592	0.000375	3.750723	1.270779	-0.000150
1227	1.2199e+02	-8.8345	-26.558297	0.000193	1.926047	0.652562	-0.000077
1228	1.2209e+02	-8.8778	-26.663263	0.000264	2.635643	0.892980	-0.000105
1229	1.2219e+02	-8.9195	-26.748043	0.000213	2.128789	0.721253	-0.000085
1230	1.2229e+02	-8.9596	-26.853008	0.000264	2.635643	0.892980	-0.000105
1231	1.2239e+02	-8.9965	-27.002382	0.000375	3.750723	1.270779	-0.000150
1232	1.2248e+02	-9.0463	-27.079088	0.000193	1.926047	0.652562	-0.000077
1233	1.2258e+02	-9.0816	-27.200202	0.000304	3.041126	1.030362	-0.000122
1234	1.2268e+02	-9.1088	-27.337465	0.000345	3.446610	1.167743	-0.000138
1235	1.2278e+02	-9.1521	-27.434356	0.000243	2.432901	0.824289	-0.000097
1236	1.2288e+02	-9.1971	-27.507024	0.000182	1.824676	0.618217	-0.000073
1237	1.2298e+02	-9.2388	-27.636213	0.000324	3.243868	1.099052	-0.000130
1238	1.2308e+02	-9.2757	-27.741178	0.000264	2.635643	0.892980	-0.000105
1239	1.2318e+02	-9.3110	-27.890552	0.000375	3.750723	1.270779	-0.000150
1240	1.2328e+02	-9.3639	-27.922849	0.000081	0.810967	0.274763	-0.000032
1241	1.2338e+02	-9.3976	-28.064149	0.000355	3.547981	1.202088	-0.000142
1242	1.2348e+02	-9.4361	-28.169115	0.000264	2.635643	0.892980	-0.000105
1243	1.2358e+02	-9.4746	-28.306377	0.000345	3.446610	1.167743	-0.000138
1244	1.2368e+02	-9.5179	-28.383083	0.000193	1.926047	0.652562	-0.000077
1245	1.2378e+02	-9.5532	-28.484011	0.000253	2.534272	0.858635	-0.000101
1246	1.2388e+02	-9.5949	-28.588977	0.000264	2.635643	0.892980	-0.000105
1247	1.2398e+02	-9.6398	-28.714128	0.000314	3.142497	1.064707	-0.000126
1248	1.2408e+02	-9.6767	-28.794871	0.000203	2.027418	0.686908	-0.000081
1249	1.2418e+02	-9.7136	-28.940208	0.000365	3.649352	1.236434	-0.000146
1250	1.2428e+02	-9.7505	-29.033062	0.000233	2.331530	0.789944	-0.000093
1251	1.2438e+02	-9.7938	-29.166287	0.000335	3.345239	1.133398	-0.000134
1252	1.2447e+02	-9.8339	-29.271253	0.000264	2.635643	0.892980	-0.000105
1253	1.2457e+02	-9.8741	-29.331810	0.000152	1.520563	0.515181	-0.000061
1254	1.2467e+02	-9.9093	-29.460998	0.000324	3.243868	1.099052	-0.000130
1255	1.2477e+02	-9.9495	-29.553852	0.000233	2.331530	0.789944	-0.000093
1256	1.2487e+02	-9.9992	-29.674966	0.000304	3.041126	1.030362	-0.000122
1257	1.2497e+02	-10.0297	-29.844526	0.000426	4.257577	1.442506	-0.000170
1258	1.2507e+02	-10.0810	-29.909120	0.000162	1.621934	0.549526	-0.000065
1259	1.2517e+02	-10.1115	-30.030234	0.000304	3.041126	1.030362	-0.000122
1260	1.2527e+02	-10.1516	-30.143274	0.000284	2.838385	0.961671	-0.000114
1261	1.2537e+02	-10.1981	-30.211905	0.000172	1.723305	0.583872	-0.000069
1262	1.2547e+02	-10.2270	-30.357242	0.000365	3.649352	1.236434	-0.000146
1263	1.2557e+02	-10.2639	-30.462208	0.000264	2.635643	0.892980	-0.000105
1264	1.2567e+02	-10.3104	-30.551025	0.000223	2.230159	0.755598	-0.000089
1265	1.2577e+02	-10.3409	-30.676176	0.000314	3.142497	1.064707	-0.000126
1266	1.2587e+02	-10.3890	-30.789216	0.000284	2.838385	0.961671	-0.000114
1267	1.2597e+02	-10.4275	-30.886107	0.000243	2.432901	0.824289	-0.000097
1268	1.2607e+02	-10.4708	-30.978961	0.000233	2.331530	0.789944	-0.000093
1269	1.2617e+02	-10.5093	-31.124298	0.000365	3.649352	1.236434	-0.000146
1270	1.2627e+02	-10.5510	-31.209078	0.000213	2.128789	0.721253	-0.000085
1271	1.2636e+02	-10.5944	-31.354415	0.000365	3.649352	1.236434	-0.000146
1272	1.2646e+02	-10.6232	-31.439195	0.000213	2.128789	0.721253	-0.000085
1273	1.2656e+02	-10.6714	-31.540123	0.000253	2.534272	0.858635	-0.000101
1274	1.2666e+02	-10.7066	-31.657200	0.000294	2.939756	0.996016	-0.000118
1275	1.2676e+02	-10.7548	-31.746017	0.000223	2.230159	0.755598	-0.000089
1276	1.2686e+02	-10.7869	-31.895391	0.000375	3.750723	1.270779	-0.000150
1277	1.2696e+02	-10.8254	-31.976134	0.000203	2.027418	0.686908	-0.000081
1278	1.2706e+02	-10.8623	-32.052839	0.000193	1.926047	0.652562	-0.000077
1279	1.2716e+02	-10.9216	-32.202213	0.000375	3.750723	1.270779	-0.000150
1280	1.2726e+02	-10.9473	-32.299104	0.000243	2.432901	0.824289	-0.000097
1281	1.2736e+02	-10.9874	-32.412144	0.000284	2.838385	0.961671	-0.000114
1282	1.2746e+02	-11.0291	-32.565555	0.000385	3.852093	1.305125	-0.000154
1283	1.2756e+02	-11.0612	-32.646298	0.000203	2.027418	0.686908	-0.000081
1284	1.2766e+02	-11.1141	-32.767412	0.000304	3.041126	1.030362	-0.000122
1285	1.2776e+02	-11.1574	-32.872378	0.000264	2.635643	0.892980	-0.000105
1286	1.2786e+02	-11.1911	-32.973306	0.000253	2.534272	0.858635	-0.000101
1287	1.2796e+02	-11.2216	-33.098457	0.000314	3.142497	1.064707	-0.000126
1288	1.2806e+02	-11.2697	-33.191311	0.000233	2.331530	0.789944	-0.000093
1289	1.2816e+02	-11.3114	-33.300314	0.000274	2.737014	0.927325	-0.000110
1290	1.2826e+02	-11.3483	-33.372983	0.000182	1.824676	0.618217	-0.000073
1291	1.2835e+02	-11.3836	-33.546579	0.000436	4.358948	1.476852	-0.000174
1292	1.2845e+02	-11.4334	-33.595025	0.000122	1.216451	0.412145	-0.000049
1293	1.2855e+02	-11.4655	-33.740362	0.000365	3.649352	1.236434	-0.000146
1294	1.2865e+02	-11.5007	-33.841290	0.000253	2.534272	0.858635	-0.000101
1295	1.2875e+02	-11.5441	-33.913959	0.000182	1.824676	0.618217	-0.000073
1296	1.2885e+02	-11.5810	-34.067370	0.000385	3.852093	1.305125	-0.000154
1297	1.2895e+02	-11.6355	-34.180410	0.000284	2.838385	0.961671	-0.000114
1298	1.2905e+02	-11.6660	-34.245004	0.000162	1.621934	0.549526	-0.000065
1299	1.2915e+02	-11.7125	-34.382267	0.000345	3.446610	1.167743	-0.000138
1300	1.2925e+02	-11.7478	-34.434749	0.000132	1.317821	0.446490	-0.000053
1301	1.2935e+02	-11.7863	-34.592198	0.000395	3.953464	1.339470	-0.000158
1302	1.2945e+02	-11.8264	-34.693126	0.000253	2.534272	0.858635	-0.000101
1303	1.2955e+02	-11.8617	-34.785980	0.000233	2.331530	0.789944	-0.000093
1304	1.2965e+02	-11.9050	-34.882871	0.000243	2.432901	0.824289	-0.000097
1305	1.2975e+02	-11.9483	-34.959577	0.000193	1.926047	0.652562	-0.000077
1306	1.2985e+02	-11.9820	-35.068580	0.000274	2.737014	0.927325	-0.000110
1307	1.2995e+02	-12.0205	-35.189694	0.000304	3.041126	1.030362	-0.000122
1308	1.3005e+02	-12.0558	-35.322919	0.000335	3.345239	1.133398	-0.000134
1309	1.3015e+02	-12.1023	-35.391550	0.000172	1.723305	0.583872	-0.000069
1310	1.3025e+02	-12.1424	-35.496516	0.000264	2.635643	0.892980	-0.000105
1311	1.3034e+02	-12.1890	-35.617630	0.000304	3.041126	1.030362	-0.000122
1312	1.3044e+02	-12.2210	-35.718558	0.000253	2.534272	0.858635	-0.000101
1313	1.3054e+02	-12.2708	-35.831598	0.000284	2.838385	0.961671	-0.000114
1314	1.3064e+02	-12.3013	-35.916378	0.000213	2.128789	0.721253	-0.000085
1315	1.3074e+02	-12.3526	-35.997121	0.000203	2.027418	0.686908	-0.000081
1316	1.3084e+02	-12.3783	-36.114198	0.000294	2.939756	0.996016	-0.000118
1317	1.3094e+02	-12.4280	-36.223200	0.000274	2.737014	0.927325	-0.000110
1318	1.3104e+02	-12.4665	-36.348352	0.000314	3.142497	1.064707	-0.000126
1319	1.3114e+02	-12.5066	-36.425057	0.000193	1.926047	0.652562	-0.000077
1320	1.3124e+02	-12.5499	-36.566357	0.000355	3.547981	1.202088	-0.000142
1321	1.3134e+02	-12.5820	-36.655174	0.000223	2.230159	0.755598	-0.000089
1322	1.3144e+02	-12.6189	-36.731880	0.000193	1.926047	0.652562	-0.000077
1323	1.3154e+02	-12.6606	-36.869142	0.000345	3.446610	1.167743	-0.000138
1324	1.3164e+02	-12.6991	-36.925662	0.000142	1.419192	0.480835	-0.000057
1325	1.3174e+02	-12.7504	-37.022553	0.000243	2.432901	0.824289	-0.000097
1326	1.3184e+02	-12.7905	-37.143667	0.000304	3.041126	1.030362	-0.000122
1327	1.3194e+02	-12.8146	-37.232484	0.000223	2.230159	0.755598	-0.000089
1328	1.3204e+02	-12.8643	-37.337450	0.000264	2.635643	0.892980	-0.000105
1329	1.3214e+02	-12.8980	-37.450490	0.000284	2.838385	0.961671	-0.000114
1330	1.3224e+02	-12.9413	-37.539307	0.000223	2.230159	0.755598	-0.000089
1331	1.3234e+02	-12.9766	-37.644272	0.000264	2.635643	0.892980	-0.000105
1332	1.3243e+02	-13.0119	-37.781535	0.000345	3.446610	1.167743	-0.000138
1333	1.3253e+02	-13.0601	-37.850166	0.000172	1.723305	0.583872	-0.000069
1334	1.3263e+02	-13.1050	-37.906686	0.000142	1.419192	0.480835	-0.000057
1335	1.3273e+02	-13.1451	-38.056060	0.000375	3.750723	1.270779	-0.000150
1336	1.3283e+02	-13.1740	-38.120654	0.000162	1.621934	0.549526	-0.000065
1337	1.3293e+02	-13.2253	-38.185248	0.000162	1.621934	0.549526	-0.000065
1338	1.3303e+02	-13.2606	-38.342697	0.000395	3.953464	1.339470	-0.000158
1339	1.3313e+02	-13.3039	-38.439588	0.000243	2.432901	0.824289	-0.000097
1340	1.3323e+02	-13.3328	-38.528405	0.000223	2.230159	0.755598	-0.000089
1341	1.3333e+02	-13.3873	-38.613185	0.000213	2.128789	0.721253	-0.000085
1342	1.3343e+02	-13.4226	-38.730262	0.000294	2.939756	0.996016	-0.000118
1343	1.3353e+02	-13.4659	-38.851376	0.000304	3.041126	1.030362	-0.000122
1344	1.3363e+02	-13.5012	-38.915970	0.000162	1.621934	0.549526	-0.000065
1345	1.3373e+02	-13.5349	-39.049195	0.000335	3.345239	1.133398	-0.000134
1346	1.3383e+02	-13.5686	-39.093604	0.000112	1.115080	0.377799	-0.000045
1347	1.3393e+02	-13.6151	-39.222792	0.000324	3.243868	1.099052	-0.000130
1348	1.3403e+02	-13.6616	-39.331795	0.000274	2.737014	0.927325	-0.000110
1349	1.3413e+02	-13.7050	-39.412538	0.000203	2.027418	0.686908	-0.000081
1350	1.3423e+02	-13.7419	-39.509429	0.000243	2.432901	0.824289	-0.000097
1351	1.3432e+02	-13.7852	-39.582097	0.000182	1.824676	0.618217	-0.000073
1352	1.3442e+02	-13.8124	-39.699174	0.000294	2.939756	0.996016	-0.000118
1353	1.3452e+02	-13.8558	-39.820288	0.000304	3.041126	1.030362	-0.000122
1354	1.3462e+02	-13.9007	-39.888920	0.000172	1.723305	0.583872	-0.000069
1355	1.3472e+02	-13.9360	-40.018108	0.000324	3.243868	1.099052	-0.000130
1356	1.3482e+02	-13.9745	-40.082702	0.000162	1.621934	0.549526	-0.000065
1357	1.3492e+02	-14.0194	-40.187668	0.000264	2.635643	0.892980	-0.000105
1358	1.3502e+02	-14.0611	-40.276485	0.000223	2.230159	0.755598	-0.000089
1359	1.3512e+02	-14.0916	-40.454119	0.000446	4.460319	1.511197	-0.000179
1360	1.3522e+02	-14.1413	-40.502564	0.000122	1.216451	0.412145	-0.000049
1361	1.3532e+02	-14.1782	-40.546973	0.000112	1.115080	0.377799	-0.000045
1362	1.3542e+02	-14.2231	-40.676161	0.000324	3.243868	1.099052	-0.000130
1363	1.3552e+02	-14.2472	-40.777090	0.000253	2.534272	0.858635	-0.000101
1364	1.3562e+02	-14.3001	-40.869944	0.000233	2.331530	0.789944	-0.000093
1365	1.3572e+02	-14.3402	-40.954723	0.000213	2.128789	0.721253	-0.000085
1366	1.3582e+02	-14.3691	-41.067763	0.000284	2.838385	0.961671	-0.000114
1367	1.3592e+02	-14.4124	-41.148506	0.000203	2.027418	0.686908	-0.000081
1368	1.3602e+02	-14.4509	-41.241360	0.000233	2.331530	0.789944	-0.000093
1369	1.3612e+02	-14.4958	-41.338251	0.000243	2.432901	0.824289	-0.000097
1370	1.3622e+02	-14.5456	-41.431106	0.000233	2.331530	0.789944	-0.000093
1371	1.3631e+02	-14.5745	-41.536071	0.000264	2.635643	0.892980	-0.000105
1372	1.3641e+02	-14.6146	-41.600665	0.000162	1.621934	0.549526	-0.000065
1373	1.3651e+02	-14.6531	-41.677371	0.000193	1.926047	0.652562	-0.000077
1374	1.3661e+02	-14.6900	-41.830782	0.000385	3.852093	1.305125	-0.000154
1375	1.3671e+02	-14.7317	-41.911525	0.000203	2.027418	0.686908	-0.000081
1376	1.3681e+02	-14.7766	-42.036676	0.000314	3.142497	1.064707	-0.000126
1377	1.3691e+02	-14.8119	-42.149716	0.000284	2.838385	0.961671	-0.000114
1378	1.3701e+02	-14.8584	-42.214310	0.000162	1.621934	0.549526	-0.000065
1379	1.3711e+02	-14.8921	-42.339461	0.000314	3.142497	1.064707	-0.000126
1380	1.3721e+02	-14.9258	-42.400018	0.000152	1.520563	0.515181	-0.000061
1381	1.3731e+02	-14.9771	-42.496909	0.000243	2.432901	0.824289	-0.000097
1382	1.3741e+02	-15.0236	-42.622061	0.000314	3.142497	1.064707	-0.000126
1383	1.3751e+02	-15.0557	-42.674543	0.000132	1.317821	0.446490	-0.000053
1384	1.3761e+02	-15.0926	-42.787583	0.000284	2.838385	0.961671	-0.000114
1385	1.3771e+02	-15.1263	-42.880437	0.000233	2.331530	0.789944	-0.000093
1386	1.3781e+02	-15.1664	-42.997514	0.000294	2.939756	0.996016	-0.000118
1387	1.3791e+02	-15.2113	-43.098443	0.000253	2.534272	0.858635	-0.000101
1388	1.3801e+02	-15.2611	-43.171111	0.000182	1.824676	0.618217	-0.000073
1389	1.3811e+02	-15.2867	-43.272039	0.000253	2.534272	0.858635	-0.000101
1390	1.3821e+02	-15.3284	-43.352782	0.000203	2.027418	0.686908	-0.000081
1391	1.3831e+02	-15.3814	-43.449673	0.000243	2.432901	0.824289	-0.000097
1392	1.3840e+02	-15.4022	-43.607122	0.000395	3.953464	1.339470	-0.000158
1393	1.3850e+02	-15.4423	-43.679790	0.000182	1.824676	0.618217	-0.000073
1394	1.3860e+02	-15.4953	-43.784756	0.000264	2.635643	0.892980	-0.000105
1395	1.3870e+02	-15.5402	-43.853387	0.000172	1.723305	0.583872	-0.000069
1396	1.3880e+02	-15.5675	-44.006798	0.000385	3.852093	1.305125	-0.000154
1397	1.3890e+02	-15.6124	-44.063318	0.000142	1.419192	0.480835	-0.000057
1398	1.3900e+02	-15.6461	-44.152135	0.000223	2.230159	0.755598	-0.000089
1399	1.3910e+02	-15.6830	-44.265175	0.000284	2.838385	0.961671	-0.000114
1400	1.3920e+02	-15.7359	-44.386289	0.000304	3.041126	1.030362	-0.000122
1401	1.3930e+02	-15.7632	-44.462994	0.000193	1.926047	0.652562	-0.000077
1402	1.3940e+02	-15.8145	-44.551811	0.000223	2.230159	0.755598	-0.000089
1403	1.3950e+02	-15.8498	-44.697148	0.000365	3.649352	1.236434	-0.000146
1404	1.3960e+02	-15.8963	-44.761742	0.000162	1.621934	0.549526	-0.000065
1405	1.3970e+02	-15.9252	-44.894968	0.000335	3.345239	1.133398	-0.000134
1406	1.3980e+02	-15.9717	-44.979748	0.000213	2.128789	0.721253	-0.000085
1407	1.3990e+02	-16.0151	-45.084713	0.000264	2.635643	0.892980	-0.000105
1408	1.4000e+02	-16.0487	-45.145270	0.000152	1.520563	0.515181	-0.000061
1409	1.4010e+02	-16.0905	-45.286570	0.000355	3.547981	1.202088	-0.000142
1410	1.4020e+02	-16.1209	-45.367313	0.000203	2.027418	0.686908	-0.000081
1411	1.4029e+02	-16.1691	-45.460167	0.000233	2.331530	0.789944	-0.000093
1412	1.4039e+02	-16.2076	-45.597430	0.000345	3.446610	1.167743	-0.000138
1413	1.4049e+02	-16.2557	-45.690284	0.000233	2.331530	0.789944	-0.000093
1414	1.4059e+02	-16.2814	-45.775064	0.000213	2.128789	0.721253	-0.000085
1415	1.4069e+02	-16.3327	-45.896178	0.000304	3.041126	1.030362	-0.000122
1416	1.4079e+02	-16.3632	-45.968846	0.000182	1.824676	0.618217	-0.000073
1417	1.4089e+02	-16.4049	-46.061700	0.000233	2.331530	0.789944	-0.000093
1418	1.4099e+02	-16.4546	-46.203000	0.000355	3.547981	1.202088	-0.000142
1419	1.4109e+02	-16.4867	-46.303928	0.000253	2.534272	0.858635	-0.000101
1420	1.4119e+02	-16.5284	-46.412931	0.000274	2.737014	0.927325	-0.000110
1421	1.4129e+02	-16.5589	-46.517897	0.000264	2.635643	0.892980	-0.000105
1422	1.4139e+02	-16.6086	-46.590565	0.000182	1.824676	0.618217	-0.000073
1423	1.4149e+02	-16.6455	-46.687456	0.000243	2.432901	0.824289	-0.000097
1424	1.4159e+02	-16.6872	-46.792422	0.000264	2.635643	0.892980	-0.000105
1425	1.4169e+02	-16.7241	-46.889313	0.000243	2.432901	0.824289	-0.000097
1426	1.4179e+02	-16.7723	-46.982167	0.000233	2.331530	0.789944	-0.000093
1427	1.4189e+02	-16.8075	-47.131541	0.000375	3.750723	1.270779	-0.000150
1428	1.4199e+02	-16.8541	-47.208247	0.000193	1.926047	0.652562	-0.000077
1429	1.4209e+02	-16.8829	-47.337435	0.000324	3.243868	1.099052	-0.000130
1430	1.4219e+02	-16.9247	-47.418178	0.000203	2.027418	0.686908	-0.000081
1431	1.4228e+02	-16.9696	-47.498921	0.000203	2.027418	0.686908	-0.000081
1432	1.4238e+02	-17.0001	-47.611960	0.000284	2.838385	0.961671	-0.000114
1433	1.4248e+02	-17.0370	-47.729037	0.000294	2.939756	0.996016	-0.000118
1434	1.4258e+02	-17.0867	-47.854188	0.000314	3.142497	1.064707	-0.000126
1435	1.4268e+02	-17.1268	-47.926857	0.000182	1.824676	0.618217	-0.000073
1436	1.4278e+02	-17.1605	-48.015674	0.000223	2.230159	0.755598	-0.000089
1437	1.4288e+02	-17.1942	-48.108528	0.000233	2.331530	0.789944	-0.000093
1438	1.4298e+02	-17.2455	-48.249828	0.000355	3.547981	1.202088	-0.000142
1439	1.4308e+02	-17.2936	-48.374979	0.000314	3.142497	1.064707	-0.000126
1440	1.4318e+02	-17.3289	-48.423425	0.000122	1.216451	0.412145	-0.000049
1441	1.4328e+02	-17.3546	-48.564724	0.000355	3.547981	1.202088	-0.000142
1442	1.4338e+02	-17.4043	-48.637393	0.000182	1.824676	0.618217	-0.000073
1443	1.4348e+02	-17.4380	-48.770618	0.000335	3.345239	1.133398	-0.000134
1444	1.4358e+02	-17.4845	-48.895769	0.000314	3.142497	1.064707	-0.000126
1445	1.4368e+02	-17.5214	-48.964401	0.000172	1.723305	0.583872	-0.000069
1446	1.4378e+02	-17.5631	-49.093589	0.000324	3.243868	1.099052	-0.000130
1447	1.4388e+02	-17.6065	-49.210666	0.000294	2.939756	0.996016	-0.000118
1448	1.4398e+02	-17.6434	-49.291409	0.000203	2.027418	0.686908	-0.000081
1449	1.4408e+02	-17.6802	-49.384263	0.000233	2.331530	0.789944	-0.000093
1450	1.4418e+02	-17.7300	-49.497303	0.000284	2.838385	0.961671	-0.000114
1451	1.4428e+02	-17.7653	-49.658788	0.000405	4.054835	1.373815	-0.000162
1452	1.4437e+02	-17.7942	-49.699160	0.000101	1.013709	0.343454	-0.000041
1453	1.4447e+02	-17.8407	-49.876793	0.000446	4.460319	1.511197	-0.000179
1454	1.4457e+02	-17.8808	-49.977722	0.000253	2.534272	0.858635	-0.000101
1455	1.4467e+02	-17.9209	-50.058465	0.000203	2.027418	0.686908	-0.000081
1456	1.4477e+02	-17.9594	-50.159393	0.000253	2.534272	0.858635	-0.000101
1457	1.4487e+02	-18.0075	-50.288581	0.000324	3.243868	1.099052	-0.000130
1458	1.4497e+02	-18.0524	-50.413733	0.000314	3.142497	1.064707	-0.000126
1459	1.4507e+02	-18.0797	-50.462178	0.000122	1.216451	0.412145	-0.000049
1460	1.4517e+02	-18.1214	-50.611552	0.000375	3.750723	1.270779	-0.000150
1461	1.4527e+02	-18.1615	-50.680183	0.000172	1.723305	0.583872	-0.000069
1462	1.4537e+02	-18.2016	-50.829558	0.000375	3.750723	1.270779	-0.000150
1463	1.4547e+02	-18.2369	-50.954709	0.000314	3.142497	1.064707	-0.000126
1464	1.4557e+02	-18.2802	-51.063711	0.000274	2.737014	0.927325	-0.000110
1465	1.4567e+02	-18.3219	-51.152528	0.000223	2.230159	0.755598	-0.000089
1466	1.4577e+02	-18.3572	-51.237308	0.000213	2.128789	0.721253	-0.000085
1467	1.4587e+02	-18.4022	-51.362459	0.000314	3.142497	1.064707	-0.000126
1468	1.4597e+02	-18.4391	-51.479536	0.000294	2.939756	0.996016	-0.000118
1469	1.4607e+02	-18.4808	-51.608725	0.000324	3.243868	1.099052	-0.000130
1470	1.4617e+02	-18.5209	-51.721765	0.000284	2.838385	0.961671	-0.000114
1471	1.4626e+02	-18.5642	-51.806544	0.000213	2.128789	0.721253	-0.000085
1472	1.4636e+02	-18.5898	-51.939770	0.000335	3.345239	1.133398	-0.000134
1473	1.4646e+02	-18.6316	-52.040698	0.000253	2.534272	0.858635	-0.000101
1474	1.4656e+02	-18.6829	-52.121441	0.000203	2.027418	0.686908	-0.000081
1475	1.4666e+02	-18.7182	-52.230444	0.000274	2.737014	0.927325	-0.000110
1476	1.4676e+02	-18.7599	-52.371743	0.000355	3.547981	1.202088	-0.000142
1477	1.4686e+02	-18.8016	-52.468635	0.000243	2.432901	0.824289	-0.000097
1478	1.4696e+02	-18.8401	-52.581674	0.000284	2.838385	0.961671	-0.000114
1479	1.4706e+02	-18.8786	-52.739123	0.000395	3.953464	1.339470	-0.000158
1480	1.4716e+02	-18.9091	-52.815828	0.000193	1.926047	0.652562	-0.000077
1481	1.4726e+02	-18.9556	-52.916757	0.000253	2.534272	0.858635	-0.000101
1482	1.4736e+02	-18.9973	-53.062094	0.000365	3.649352	1.236434	-0.000146
1483	1.4746e+02	-19.0342	-53.175133	0.000284	2.838385	0.961671	-0.000114
1484	1.4756e+02	-19.0791	-53.296247	0.000304	3.041126	1.030362	-0.000122
1485	1.4766e+02	-19.1273	-53.393139	0.000243	2.432901	0.824289	-0.000097
1486	1.4776e+02	-19.1594	-53.526364	0.000335	3.345239	1.133398	-0.000134
1487	1.4786e+02	-19.1979	-53.635367	0.000274	2.737014	0.927325	-0.000110
1488	1.4796e+02	-19.2396	-53.728221	0.000233	2.331530	0.789944	-0.000093
1489	1.4806e+02	-19.2781	-53.853372	0.000314	3.142497	1.064707	-0.000126
1490	1.4816e+02	-19.3182	-53.986598	0.000335	3.345239	1.133398	-0.000134
1491	1.4825e+02	-19.3583	-54.091563	0.000264	2.635643	0.892980	-0.000105
1492	1.4835e+02	-19.3968	-54.212677	0.000304	3.041126	1.030362	-0.000122
1493	1.4845e+02	-19.4385	-54.325717	0.000284	2.838385	0.961671	-0.000114
1494	1.4855e+02	-19.4818	-54.491240	0.000416	4.156206	1.408161	-0.000166
1495	1.4865e+02	-19.5139	-54.576019	0.000213	2.128789	0.721253	-0.000085
1496	1.4875e+02	-19.5540	-54.713282	0.000345	3.446610	1.167743	-0.000138
1497	1.4885e+02	-19.5957	-54.842470	0.000324	3.243868	1.099052	-0.000130
1498	1.4895e+02	-19.6326	-54.907065	0.000162	1.621934	0.549526	-0.000065
1499	1.4905e+02	-19.6807	-55.088736	0.000456	4.561690	1.545542	-0.000183
1500	1.4915e+02	-19.7128	-55.157367	0.000172	1.723305	0.583872	-0.000069
1501	1.4925e+02	-19.7561	-55.343075	0.000466	4.663061	1.579888	-0.000187
1502	1.4935e+02	-19.7850	-55.444004	0.000253	2.534272	0.858635	-0.000101
1503	1.4945e+02	-19.8379	-55.589341	0.000365	3.649352	1.236434	-0.000146
1504	1.4955e+02	-19.8732	-55.649898	0.000152	1.520563	0.515181	-0.000061
1505	1.4965e+02	-19.9166	-55.795234	0.000365	3.649352	1.236434	-0.000146
1506	1.4975e+02	-19.9518	-55.932497	0.000345	3.446610	1.167743	-0.000138
1507	1.4985e+02	-19.9903	-56.089945	0.000395	3.953464	1.339470	-0.000158
1508	1.4995e+02	-19.9486	-56.037463	0.000132	1.317821	0.446490	0.000053
1509	1.5005e+02	-19.9101	-55.993054	0.000112	1.115080	0.377799	0.000045
1510	1.5015e+02	-19.8716	-55.932497	0.000152	1.520563	0.515181	0.000061
1511	1.5025e+02	-19.8315	-55.884051	0.000122	1.216451	0.412145	0.000049
1512	1.5034e+02	-19.7850	-55.835606	0.000122	1.216451	0.412145	0.000049
1513	1.5044e+02	-19.7593	-55.815420	0.000051	0.506854	0.171727	0.000020
1514	1.5054e+02	-19.7112	-55.742752	0.000182	1.824676	0.618217	0.000073
1515	1.5064e+02	-19.6791	-55.662009	0.000203	2.027418	0.686908	0.000081
1516	1.5074e+02	-19.6406	-55.609526	0.000132	1.317821	0.446490	0.000053
1517	1.5084e+02	-19.5877	-55.557043	0.000132	1.317821	0.446490	0.000053
1518	1.5094e+02	-19.5524	-55.516672	0.000101	1.013709	0.343454	0.000041
1519	1.5104e+02	-19.5171	-55.427855	0.000223	2.230159	0.755598	0.000089
1520	1.5114e+02	-19.4626	-55.387484	0.000101	1.013709	0.343454	0.000041
1521	1.5124e+02	-19.4353	-55.310778	0.000193	1.926047	0.652562	0.000077
1522	1.5134e+02	-19.4016	-55.250221	0.000152	1.520563	0.515181	0.000061
1523	1.5144e+02	-19.3647	-55.157367	0.000233	2.331530	0.789944	0.000093
1524	1.5154e+02	-19.3102	-55.084699	0.000182	1.824676	0.618217	0.000073
1525	1.5164e+02	-19.2749	-55.048364	0.000091	0.912338	0.309108	0.000037
1526	1.5174e+02	-19.2412	-54.939362	0.000274	2.737014	0.927325	0.000110
1527	1.5184e+02	-19.2011	-54.907065	0.000081	0.810967	0.274763	0.000032
1528	1.5194e+02	-19.1561	-54.810173	0.000243	2.432901	0.824289	0.000097
1529	1.5204e+02	-19.1241	-54.709245	0.000253	2.534272	0.858635	0.000101
1530	1.5214e+02	-19.0663	-54.668874	0.000101	1.013709	0.343454	0.000041
1531	1.5224e+02	-19.0438	-54.592168	0.000193	1.926047	0.652562	0.000077
1532	1.5233e+02	-18.9957	-54.503351	0.000223	2.230159	0.755598	0.000089
1533	1.5243e+02	-18.9524	-54.418571	0.000213	2.128789	0.721253	0.000085
1534	1.5253e+02	-18.9123	-54.333791	0.000213	2.128789	0.721253	0.000085
1535	1.5263e+02	-18.8802	-54.273234	0.000152	1.520563	0.515181	0.000061
1536	1.5273e+02	-18.8449	-54.176343	0.000243	2.432901	0.824289	0.000097
1537	1.5283e+02	-18.7984	-54.079452	0.000243	2.432901	0.824289	0.000097
1538	1.5293e+02	-18.7663	-54.022932	0.000142	1.419192	0.480835	0.000057
1539	1.5303e+02	-18.7262	-53.982561	0.000101	1.013709	0.343454	0.000041
1540	1.5313e+02	-18.6845	-53.926041	0.000142	1.419192	0.480835	0.000057
1541	1.5323e+02	-18.6364	-53.821075	0.000264	2.635643	0.892980	0.000105
1542	1.5333e+02	-18.5963	-53.752444	0.000172	1.723305	0.583872	0.000069
1543	1.5343e+02	-18.5594	-53.631330	0.000304	3.041126	1.030362	0.000122
1544	1.5353e+02	-18.5193	-53.574810	0.000142	1.419192	0.480835	0.000057
1545	1.5363e+02	-18.4824	-53.473881	0.000253	2.534272	0.858635	0.000101
1546	1.5373e+02	-18.4423	-53.397176	0.000193	1.926047	0.652562	0.000077
1547	1.5383e+02	-18.3989	-53.356804	0.000101	1.013709	0.343454	0.000041
1548	1.5393e+02	-18.3556	-53.259913	0.000243	2.432901	0.824289	0.000097
1549	1.5403e+02	-18.3155	-53.150911	0.000274	2.737014	0.927325	0.000110
1550	1.5413e+02	-18.2802	-53.074205	0.000193	1.926047	0.652562	0.000077
1551	1.5422e+02	-18.2417	-52.985388	0.000223	2.230159	0.755598	0.000089
1552	1.5432e+02	-18.1920	-52.920794	0.000162	1.621934	0.549526	0.000065
1553	1.5442e+02	-18.1695	-52.864274	0.000142	1.419192	0.480835	0.000057
1554	1.5452e+02	-18.1166	-52.727011	0.000345	3.446610	1.167743	0.000138
1555	1.5462e+02	-18.0749	-52.706826	0.000051	0.506854	0.171727	0.000020
1556	1.5472e+02	-18.0380	-52.622046	0.000213	2.128789	0.721253	0.000085
1557	1.5482e+02	-17.9867	-52.504969	0.000294	2.939756	0.996016	0.000118
1558	1.5492e+02	-17.9642	-52.408078	0.000243	2.432901	0.824289	0.000097
1559	1.5502e+02	-17.9273	-52.351558	0.000142	1.419192	0.480835	0.000057
1560	1.5512e+02	-17.8760	-52.266778	0.000213	2.128789	0.721253	0.000085
1561	1.5522e+02	-17.8375	-52.218332	0.000122	1.216451	0.412145	0.000049
1562	1.5532e+02	-17.7958	-52.125478	0.000233	2.331530	0.789944	0.000093
1563	1.5542e+02	-17.7685	-52.032624	0.000233	2.331530	0.789944	0.000093
1564	1.5552e+02	-17.7220	-51.931696	0.000253	2.534272	0.858635	0.000101
1565	1.5562e+02	-17.6931	-51.871139	0.000152	1.520563	0.515181	0.000061
1566	1.5572e+02	-17.6369	-51.826730	0.000112	1.115080	0.377799	0.000045
1567	1.5582e+02	-17.6000	-51.705616	0.000304	3.041126	1.030362	0.000122
1568	1.5592e+02	-17.5615	-51.632948	0.000182	1.824676	0.618217	0.000073
1569	1.5602e+02	-17.5343	-51.540093	0.000233	2.331530	0.789944	0.000093
1570	1.5612e+02	-17.4781	-51.463388	0.000193	1.926047	0.652562	0.000077
1571	1.5622e+02	-17.4412	-51.394757	0.000172	1.723305	0.583872	0.000069
1572	1.5631e+02	-17.4123	-51.269605	0.000314	3.142497	1.064707	0.000126
1573	1.5641e+02	-17.3626	-51.200974	0.000172	1.723305	0.583872	0.000069
1574	1.5651e+02	-17.3241	-51.116194	0.000213	2.128789	0.721253	0.000085
1575	1.5661e+02	-17.2888	-51.063711	0.000132	1.317821	0.446490	0.000053
1576	1.5671e+02	-17.2407	-50.958746	0.000264	2.635643	0.892980	0.000105
1577	1.5681e+02	-17.1974	-50.954709	0.000010	0.101371	0.034345	0.000004
1578	1.5691e+02	-17.1621	-50.793223	0.000405	4.054835	1.373815	0.000162
1579	1.5701e+02	-17.1172	-50.700369	0.000233	2.331530	0.789944	0.000093
1580	1.5711e+02	-17.0803	-50.647886	0.000132	1.317821	0.446490	0.000053
1581	1.5721e+02	-17.0370	-50.538884	0.000274	2.737014	0.927325	0.000110
1582	1.5731e+02	-17.0001	-50.494475	0.000112	1.115080	0.377799	0.000045
1583	1.5741e+02	-16.9616	-50.381435	0.000284	2.838385	0.961671	0.000114
1584	1.5751e+02	-16.9214	-50.300693	0.000203	2.027418	0.686908	0.000081
1585	1.5761e+02	-16.8797	-50.191690	0.000274	2.737014	0.927325	0.000110
1586	1.5771e+02	-16.8412	-50.163430	0.000071	0.709596	0.240418	0.000028
1587	1.5781e+02	-16.8075	-50.070576	0.000233	2.331530	0.789944	0.000093
1588	1.5791e+02	-16.7562	-49.969648	0.000253	2.534272	0.858635	0.000101
1589	1.5801e+02	-16.7273	-49.905053	0.000162	1.621934	0.549526	0.000065
1590	1.5811e+02	-16.6856	-49.792014	0.000284	2.838385	0.961671	0.000114
1591	1.5821e+02	-16.6471	-49.703197	0.000223	2.230159	0.755598	0.000089
1592	1.5830e+02	-16.6038	-49.654751	0.000122	1.216451	0.412145	0.000049
1593	1.5840e+02	-16.5669	-49.545748	0.000274	2.737014	0.927325	0.000110
1594	1.5850e+02	-16.5188	-49.452894	0.000233	2.331530	0.789944	0.000093
1595	1.5860e+02	-16.4803	-49.404449	0.000122	1.216451	0.412145	0.000049
1596	1.5870e+02	-16.4482	-49.311594	0.000233	2.331530	0.789944	0.000093
1597	1.5880e+02	-16.4001	-49.218740	0.000233	2.331530	0.789944	0.000093
1598	1.5890e+02	-16.3680	-49.129923	0.000223	2.230159	0.755598	0.000089
1599	1.5900e+02	-16.3247	-49.077441	0.000132	1.317821	0.446490	0.000053
1600	1.5910e+02	-16.2846	-48.996698	0.000203	2.027418	0.686908	0.000081
1601	1.5920e+02	-16.2493	-48.879621	0.000294	2.939756	0.996016	0.000118
1602	1.5930e+02	-16.2044	-48.823101	0.000142	1.419192	0.480835	0.000057
1603	1.5940e+02	-16.1642	-48.718136	0.000264	2.635643	0.892980	0.000105
1604	1.5950e+02	-16.1241	-48.649504	0.000172	1.723305	0.583872	0.000069
1605	1.5960e+02	-16.0889	-48.597021	0.000132	1.317821	0.446490	0.000053
1606	1.5970e+02	-16.0520	-48.496093	0.000253	2.534272	0.858635	0.000101
1607	1.5980e+02	-16.0070	-48.415350	0.000203	2.027418	0.686908	0.000081
1608	1.5990e+02	-15.9733	-48.270013	0.000365	3.649352	1.236434	0.000146
1609	1.6000e+02	-15.9332	-48.241754	0.000071	0.709596	0.240418	0.000028
1610	1.6010e+02	-15.8835	-48.156974	0.000213	2.128789	0.721253	0.000085
1611	1.6019e+02	-15.8514	-48.064120	0.000233	2.331530	0.789944	0.000093
1612	1.6029e+02	-15.8033	-47.975303	0.000223	2.230159	0.755598	0.000089
1613	1.6039e+02	-15.7648	-47.886486	0.000223	2.230159	0.755598	0.000089
1614	1.6049e+02	-15.7327	-47.842077	0.000112	1.115080	0.377799	0.000045
1615	1.6059e+02	-15.6926	-47.700777	0.000355	3.547981	1.202088	0.000142
1616	1.6069e+02	-15.6525	-47.632146	0.000172	1.723305	0.583872	0.000069
1617	1.6079e+02	-15.6044	-47.575626	0.000142	1.419192	0.480835	0.000057
1618	1.6089e+02	-15.5578	-47.466623	0.000274	2.737014	0.927325	0.000110
1619	1.6099e+02	-15.5386	-47.426252	0.000101	1.013709	0.343454	0.000041
1620	1.6109e+02	-15.4953	-47.301101	0.000314	3.142497	1.064707	0.000126
1621	1.6119e+02	-15.4568	-47.212284	0.000223	2.230159	0.755598	0.000089
1622	1.6129e+02	-15.4183	-47.131541	0.000203	2.027418	0.686908	0.000081
1623	1.6139e+02	-15.3766	-47.054836	0.000193	1.926047	0.652562	0.000077
1624	1.6149e+02	-15.3252	-46.978130	0.000193	1.926047	0.652562	0.000077
1625	1.6159e+02	-15.3044	-46.889313	0.000223	2.230159	0.755598	0.000089
1626	1.6169e+02	-15.2482	-46.784348	0.000264	2.635643	0.892980	0.000105
1627	1.6179e+02	-15.2129	-46.667271	0.000294	2.939756	0.996016	0.000118
1628	1.6189e+02	-15.1712	-46.630936	0.000091	0.912338	0.309108	0.000037
1629	1.6199e+02	-15.1343	-46.521934	0.000274	2.737014	0.927325	0.000110
1630	1.6209e+02	-15.0958	-46.437154	0.000213	2.128789	0.721253	0.000085
1631	1.6219e+02	-15.0573	-46.360448	0.000193	1.926047	0.652562	0.000077
1632	1.6228e+02	-15.0124	-46.271631	0.000223	2.230159	0.755598	0.000089
1633	1.6238e+02	-14.9787	-46.150517	0.000304	3.041126	1.030362	0.000122
1634	1.6248e+02	-14.9338	-46.122257	0.000071	0.709596	0.240418	0.000028
1635	1.6258e+02	-14.8873	-46.029403	0.000233	2.331530	0.789944	0.000093
1636	1.6268e+02	-14.8568	-45.948660	0.000203	2.027418	0.686908	0.000081
1637	1.6278e+02	-14.8151	-45.807361	0.000355	3.547981	1.202088	0.000142
1638	1.6288e+02	-14.7686	-45.762952	0.000112	1.115080	0.377799	0.000045
1639	1.6298e+02	-14.7349	-45.629727	0.000335	3.345239	1.133398	0.000134
1640	1.6308e+02	-14.6980	-45.544947	0.000213	2.128789	0.721253	0.000085
1641	1.6318e+02	-14.6515	-45.423833	0.000304	3.041126	1.030362	0.000122
1642	1.6328e+02	-14.6162	-45.355201	0.000172	1.723305	0.583872	0.000069
1643	1.6338e+02	-14.5664	-45.298682	0.000142	1.419192	0.480835	0.000057
1644	1.6348e+02	-14.5343	-45.189679	0.000274	2.737014	0.927325	0.000110
1645	1.6358e+02	-14.5007	-45.096825	0.000233	2.331530	0.789944	0.000093
1646	1.6368e+02	-14.4541	-44.999934	0.000243	2.432901	0.824289	0.000097
1647	1.6378e+02	-14.4156	-44.899005	0.000253	2.534272	0.858635	0.000101
1648	1.6388e+02	-14.3739	-44.806151	0.000233	2.331530	0.789944	0.000093
1649	1.6398e+02	-14.3370	-44.737520	0.000172	1.723305	0.583872	0.000069
1650	1.6408e+02	-14.2969	-44.616406	0.000304	3.041126	1.030362	0.000122
1651	1.6418e+02	-14.2520	-44.551811	0.000162	1.621934	0.549526	0.000065
1652	1.6427e+02	-14.2151	-44.434735	0.000294	2.939756	0.996016	0.000118
1653	1.6437e+02	-14.1718	-44.374177	0.000152	1.520563	0.515181	0.000061
1654	1.6447e+02	-14.1397	-44.269212	0.000264	2.635643	0.892980	0.000105
1655	1.6457e+02	-14.0996	-44.176358	0.000233	2.331530	0.789944	0.000093
1656	1.6467e+02	-14.0483	-44.095615	0.000203	2.027418	0.686908	0.000081
1657	1.6477e+02	-14.0162	-44.002761	0.000233	2.331530	0.789944	0.000093
1658	1.6487e+02	-13.9745	-43.917981	0.000213	2.128789	0.721253	0.000085
1659	1.6497e+02	-13.9408	-43.796867	0.000304	3.041126	1.030362	0.000122
1660	1.6507e+02	-13.8927	-43.716124	0.000203	2.027418	0.686908	0.000081
1661	1.6517e+02	-13.8606	-43.599047	0.000294	2.939756	0.996016	0.000118
1662	1.6527e+02	-13.8221	-43.534453	0.000162	1.621934	0.549526	0.000065
1663	1.6537e+02	-13.7820	-43.457748	0.000193	1.926047	0.652562	0.000077
1664	1.6547e+02	-13.7290	-43.332596	0.000314	3.142497	1.064707	0.000126
1665	1.6557e+02	-13.6969	-43.247817	0.000213	2.128789	0.721253	0.000085
1666	1.6567e+02	-13.6616	-43.138814	0.000274	2.737014	0.927325	0.000110
1667	1.6577e+02	-13.6151	-43.049997	0.000223	2.230159	0.755598	0.000089
1668	1.6587e+02	-13.5750	-42.957143	0.000233	2.331530	0.789944	0.000093
1669	1.6597e+02	-13.5461	-42.860252	0.000243	2.432901	0.824289	0.000097
1670	1.6607e+02	-13.5028	-42.759323	0.000253	2.534272	0.858635	0.000101
1671	1.6616e+02	-13.4531	-42.682618	0.000193	1.926047	0.652562	0.000077
1672	1.6626e+02	-13.4130	-42.569578	0.000284	2.838385	0.961671	0.000114
1673	1.6636e+02	-13.3857	-42.472687	0.000243	2.432901	0.824289	0.000097
1674	1.6646e+02	-13.3360	-42.408092	0.000162	1.621934	0.549526	0.000065
1675	1.6656e+02	-13.2911	-42.274867	0.000335	3.345239	1.133398	0.000134
1676	1.6666e+02	-13.2542	-42.194124	0.000203	2.027418	0.686908	0.000081
1677	1.6676e+02	-13.2141	-42.105307	0.000223	2.230159	0.755598	0.000089
1678	1.6686e+02	-13.1756	-42.020527	0.000213	2.128789	0.721253	0.000085
1679	1.6696e+02	-13.1371	-41.903450	0.000294	2.939756	0.996016	0.000118
1680	1.6706e+02	-13.0970	-41.766188	0.000345	3.446610	1.167743	0.000138
1681	1.6716e+02	-13.0520	-41.717742	0.000122	1.216451	0.412145	0.000049
1682	1.6726e+02	-13.0232	-41.624888	0.000233	2.331530	0.789944	0.000093
1683	1.6736e+02	-12.9750	-41.507811	0.000294	2.939756	0.996016	0.000118
1684	1.6746e+02	-12.9349	-41.414957	0.000233	2.331530	0.789944	0.000093
1685	1.6756e+02	-12.9028	-41.366511	0.000122	1.216451	0.412145	0.000049
1686	1.6766e+02	-12.8643	-41.200989	0.000416	4.156206	1.408161	0.000166
1687	1.6776e+02	-12.8178	-41.116209	0.000213	2.128789	0.721253	0.000085
1688	1.6786e+02	-12.7857	-41.011243	0.000264	2.635643	0.892980	0.000105
1689	1.6796e+02	-12.7344	-40.922426	0.000223	2.230159	0.755598	0.000089
1690	1.6806e+02	-12.7039	-40.805349	0.000294	2.939756	0.996016	0.000118
1691	1.6816e+02	-12.6590	-40.720570	0.000213	2.128789	0.721253	0.000085
1692	1.6825e+02	-12.6237	-40.660013	0.000152	1.520563	0.515181	0.000061
1693	1.6835e+02	-12.5836	-40.546973	0.000284	2.838385	0.961671	0.000114
1694	1.6845e+02	-12.5355	-40.429896	0.000294	2.939756	0.996016	0.000118
1695	1.6855e+02	-12.5082	-40.320893	0.000274	2.737014	0.927325	0.000110
1696	1.6865e+02	-12.4633	-40.219965	0.000253	2.534272	0.858635	0.000101
1697	1.6875e+02	-12.4232	-40.139222	0.000203	2.027418	0.686908	0.000081
1698	1.6885e+02	-12.3895	-40.066554	0.000182	1.824676	0.618217	0.000073
1699	1.6895e+02	-12.3382	-39.909105	0.000395	3.953464	1.339470	0.000158
1700	1.6905e+02	-12.3013	-39.792028	0.000294	2.939756	0.996016	0.000118
1701	1.6915e+02	-12.2644	-39.711286	0.000203	2.027418	0.686908	0.000081
1702	1.6925e+02	-12.2259	-39.626506	0.000213	2.128789	0.721253	0.000085
1703	1.6935e+02	-12.1858	-39.509429	0.000294	2.939756	0.996016	0.000118
1704	1.6945e+02	-12.1569	-39.428686	0.000203	2.027418	0.686908	0.000081
1705	1.6955e+02	-12.1087	-39.295461	0.000335	3.345239	1.133398	0.000134
1706	1.6965e+02	-12.0719	-39.206644	0.000223	2.230159	0.755598	0.000089
1707	1.6975e+02	-12.0269	-39.109752	0.000243	2.432901	0.824289	0.000097
1708	1.6985e+02	-11.9836	-39.033047	0.000193	1.926047	0.652562	0.000077
1709	1.6995e+02	-11.9355	-38.915970	0.000294	2.939756	0.996016	0.000118
1710	1.7005e+02	-11.9082	-38.819079	0.000243	2.432901	0.824289	0.000097
1711	1.7015e+02	-11.8681	-38.726225	0.000233	2.331530	0.789944	0.000093
1712	1.7024e+02	-11.8264	-38.629333	0.000243	2.432901	0.824289	0.000097
1713	1.7034e+02	-11.7879	-38.504182	0.000314	3.142497	1.064707	0.000126
1714	1.7044e+02	-11.7414	-38.447662	0.000142	1.419192	0.480835	0.000057
1715	1.7054e+02	-11.7173	-38.334622	0.000284	2.838385	0.961671	0.000114
1716	1.7064e+02	-11.6644	-38.237731	0.000243	2.432901	0.824289	0.000097
1717	1.7074e+02	-11.6275	-38.108543	0.000324	3.243868	1.099052	0.000130
1718	1.7084e+02	-11.5874	-38.015689	0.000233	2.331530	0.789944	0.000093
1719	1.7094e+02	-11.5457	-37.930909	0.000213	2.128789	0.721253	0.000085
1720	1.7104e+02	-11.5023	-37.829980	0.000253	2.534272	0.858635	0.000101
1721	1.7114e+02	-11.4638	-37.708866	0.000304	3.041126	1.030362	0.000122
1722	1.7124e+02	-11.4237	-37.632161	0.000193	1.926047	0.652562	0.000077
1723	1.7134e+02	-11.3852	-37.502972	0.000324	3.243868	1.099052	0.000130
1724	1.7144e+02	-11.3435	-37.454527	0.000122	1.216451	0.412145	0.000049
1725	1.7154e+02	-11.3034	-37.305153	0.000375	3.750723	1.270779	0.000150
1726	1.7164e+02	-11.2681	-37.208262	0.000243	2.432901	0.824289	0.000097
1727	1.7174e+02	-11.2216	-37.184039	0.000061	0.608225	0.206072	0.000024
1728	1.7184e+02	-11.1975	-37.022553	0.000405	4.054835	1.373815	0.000162
1729	1.7194e+02	-11.1526	-36.982182	0.000101	1.013709	0.343454	0.000041
1730	1.7204e+02	-11.1077	-36.832808	0.000375	3.750723	1.270779	0.000150
1731	1.7213e+02	-11.0708	-36.756102	0.000193	1.926047	0.652562	0.000077
1732	1.7223e+02	-11.0323	-36.667285	0.000223	2.230159	0.755598	0.000089
1733	1.7233e+02	-10.9906	-36.586543	0.000203	2.027418	0.686908	0.000081
1734	1.7243e+02	-10.9441	-36.445243	0.000355	3.547981	1.202088	0.000142
1735	1.7253e+02	-10.9184	-36.372574	0.000182	1.824676	0.618217	0.000073
1736	1.7263e+02	-10.8719	-36.239349	0.000335	3.345239	1.133398	0.000134
1737	1.7273e+02	-10.8238	-36.162643	0.000193	1.926047	0.652562	0.000077
1738	1.7283e+02	-10.7853	-36.049604	0.000284	2.838385	0.961671	0.000114
1739	1.7293e+02	-10.7580	-35.944638	0.000264	2.635643	0.892980	0.000105
1740	1.7303e+02	-10.7131	-35.867932	0.000193	1.926047	0.652562	0.000077
1741	1.7313e+02	-10.6633	-35.742781	0.000314	3.142497	1.064707	0.000126
1742	1.7323e+02	-10.6296	-35.658001	0.000213	2.128789	0.721253	0.000085
1743	1.7333e+02	-10.5895	-35.609556	0.000122	1.216451	0.412145	0.000049
1744	1.7343e+02	-10.5575	-35.472293	0.000345	3.446610	1.167743	0.000138
1745	1.7353e+02	-10.5141	-35.387513	0.000213	2.128789	0.721253	0.000085
1746	1.7363e+02	-10.4708	-35.326956	0.000152	1.520563	0.515181	0.000061
1747	1.7373e+02	-10.4307	-35.226028	0.000253	2.534272	0.858635	0.000101
1748	1.7383e+02	-10.4018	-35.068580	0.000395	3.953464	1.339470	0.000158
1749	1.7393e+02	-10.3537	-34.999948	0.000172	1.723305	0.583872	0.000069
1750	1.7403e+02	-10.3200	-34.854611	0.000365	3.649352	1.236434	0.000146
1751	1.7413e+02	-10.2687	-34.777906	0.000193	1.926047	0.652562	0.000077
1752	1.7422e+02	-10.2302	-34.701200	0.000193	1.926047	0.652562	0.000077
1753	1.7432e+02	-10.1997	-34.596235	0.000264	2.635643	0.892980	0.000105
1754	1.7442e+02	-10.1548	-34.495306	0.000253	2.534272	0.858635	0.000101
1755	1.7452e+02	-10.1163	-34.422638	0.000182	1.824676	0.618217	0.000073
1756	1.7462e+02	-10.0778	-34.293450	0.000324	3.243868	1.099052	0.000130
1757	1.7472e+02	-10.0232	-34.228855	0.000162	1.621934	0.549526	0.000065
1758	1.7482e+02	-9.9944	-34.067370	0.000405	4.054835	1.373815	0.000162
1759	1.7492e+02	-9.9478	-33.994701	0.000182	1.824676	0.618217	0.000073
1760	1.7502e+02	-9.9110	-33.905884	0.000223	2.230159	0.755598	0.000089
1761	1.7512e+02	-9.8773	-33.813030	0.000233	2.331530	0.789944	0.000093
1762	1.7522e+02	-9.8259	-33.687879	0.000314	3.142497	1.064707	0.000126
1763	1.7532e+02	-9.7906	-33.607136	0.000203	2.027418	0.686908	0.000081
1764	1.7542e+02	-9.7537	-33.502171	0.000264	2.635643	0.892980	0.000105
1765	1.7552e+02	-9.7136	-33.393168	0.000274	2.737014	0.927325	0.000110
1766	1.7562e+02	-9.6687	-33.308388	0.000213	2.128789	0.721253	0.000085
1767	1.7572e+02	-9.6334	-33.195349	0.000284	2.838385	0.961671	0.000114
1768	1.7582e+02	-9.5933	-33.114606	0.000203	2.027418	0.686908	0.000081
1769	1.7592e+02	-9.5548	-33.025789	0.000223	2.230159	0.755598	0.000089
1770	1.7602e+02	-9.5115	-32.932935	0.000233	2.331530	0.789944	0.000093
1771	1.7612e+02	-9.4810	-32.856229	0.000193	1.926047	0.652562	0.000077
1772	1.7621e+02	-9.4313	-32.759338	0.000243	2.432901	0.824289	0.000097
1773	1.7631e+02	-9.3912	-32.618038	0.000355	3.547981	1.202088	0.000142
1774	1.7641e+02	-9.3591	-32.504998	0.000284	2.838385	0.961671	0.000114
1775	1.7651e+02	-9.3126	-32.448478	0.000142	1.419192	0.480835	0.000057
1776	1.7661e+02	-9.2741	-32.319290	0.000324	3.243868	1.099052	0.000130
1777	1.7671e+02	-9.2388	-32.238547	0.000203	2.027418	0.686908	0.000081
1778	1.7681e+02	-9.1987	-32.109359	0.000324	3.243868	1.099052	0.000130
1779	1.7691e+02	-9.1650	-32.028616	0.000203	2.027418	0.686908	0.000081
1780	1.7701e+02	-9.1249	-31.927688	0.000253	2.534272	0.858635	0.000101
1781	1.7711e+02	-9.0848	-31.830797	0.000243	2.432901	0.824289	0.000097
1782	1.7721e+02	-9.0238	-31.758128	0.000182	1.824676	0.618217	0.000073
1783	1.7731e+02	-8.9981	-31.620866	0.000345	3.446610	1.167743	0.000138
1784	1.7741e+02	-8.9628	-31.507826	0.000284	2.838385	0.961671	0.000114
1785	1.7751e+02	-8.9195	-31.435157	0.000182	1.824676	0.618217	0.000073
1786	1.7761e+02	-8.8762	-31.358452	0.000193	1.926047	0.652562	0.000077
1787	1.7771e+02	-8.8361	-31.293858	0.000162	1.621934	0.549526	0.000065
1788	1.7781e+02	-8.7960	-31.108149	0.000466	4.663061	1.579888	0.000187
1789	1.7791e+02	-8.7575	-31.055667	0.000132	1.317821	0.446490	0.000053
1790	1.7801e+02	-8.7174	-30.950701	0.000264	2.635643	0.892980	0.000105
1791	1.7810e+02	-8.6725	-30.845736	0.000264	2.635643	0.892980	0.000105
1792	1.7820e+02	-8.6356	-30.752881	0.000233	2.331530	0.789944	0.000093
1793	1.7830e+02	-8.5971	-30.623693	0.000324	3.243868	1.099052	0.000130
1794	1.7840e+02	-8.5682	-30.542950	0.000203	2.027418	0.686908	0.000081
1795	1.7850e+02	-8.5201	-30.474319	0.000172	1.723305	0.583872	0.000069
1796	1.7860e+02	-8.4800	-30.381465	0.000233	2.331530	0.789944	0.000093
1797	1.7870e+02	-8.4335	-30.236128	0.000365	3.649352	1.236434	0.000146
1798	1.7880e+02	-8.4110	-30.139237	0.000243	2.432901	0.824289	0.000097
1799	1.7890e+02	-8.3484	-30.062531	0.000193	1.926047	0.652562	0.000077
1800	1.7900e+02	-8.3163	-29.925269	0.000345	3.446610	1.167743	0.000138
1801	1.7910e+02	-8.2859	-29.884897	0.000101	1.013709	0.343454	0.000041
1802	1.7920e+02	-8.2425	-29.747635	0.000345	3.446610	1.167743	0.000138
1803	1.7930e+02	-8.2040	-29.634595	0.000284	2.838385	0.961671	0.000114
1804	1.7940e+02	-8.1559	-29.537704	0.000243	2.432901	0.824289	0.000097
1805	1.7950e+02	-8.1206	-29.436775	0.000253	2.534272	0.858635	0.000101
1806	1.7960e+02	-8.0805	-29.315661	0.000304	3.041126	1.030362	0.000122
1807	1.7970e+02	-8.0452	-29.198584	0.000294	2.939756	0.996016	0.000118
1808	1.7980e+02	-8.0083	-29.129953	0.000172	1.723305	0.583872	0.000069
1809	1.7990e+02	-7.9650	-28.996727	0.000335	3.345239	1.133398	0.000134
1810	1.8000e+02	-7.9137	-28.895799	0.000253	2.534272	0.858635	0.000101
1811	1.8009e+02	-7.8800	-28.802945	0.000233	2.331530	0.789944	0.000093
1812	1.8019e+02	-7.8335	-28.718165	0.000213	2.128789	0.721253	0.000085
1813	1.8029e+02	-7.7934	-28.593014	0.000314	3.142497	1.064707	0.000126
1814	1.8039e+02	-7.7581	-28.500160	0.000233	2.331530	0.789944	0.000093
1815	1.8049e+02	-7.7180	-28.366934	0.000335	3.345239	1.133398	0.000134
1816	1.8059e+02	-7.6827	-28.306377	0.000152	1.520563	0.515181	0.000061
1817	1.8069e+02	-7.6394	-28.185263	0.000304	3.041126	1.030362	0.000122
1818	1.8079e+02	-7.6073	-28.076260	0.000274	2.737014	0.927325	0.000110
1819	1.8089e+02	-7.5640	-27.975332	0.000253	2.534272	0.858635	0.000101
1820	1.8099e+02	-7.5190	-27.870367	0.000264	2.635643	0.892980	0.000105
1821	1.8109e+02	-7.4821	-27.729067	0.000355	3.547981	1.202088	0.000142
1822	1.8119e+02	-7.4501	-27.611990	0.000294	2.939756	0.996016	0.000118
1823	1.8129e+02	-7.4100	-27.507024	0.000264	2.635643	0.892980	0.000105
1824	1.8139e+02	-7.3634	-27.442430	0.000162	1.621934	0.549526	0.000065
1825	1.8149e+02	-7.3233	-27.305168	0.000345	3.446610	1.167743	0.000138
1826	1.8159e+02	-7.2912	-27.204239	0.000253	2.534272	0.858635	0.000101
1827	1.8169e+02	-7.2415	-27.095237	0.000274	2.737014	0.927325	0.000110
1828	1.8179e+02	-7.1966	-26.974122	0.000304	3.041126	1.030362	0.000122
1829	1.8189e+02	-7.1709	-26.881268	0.000233	2.331530	0.789944	0.000093
1830	1.8199e+02	-7.1292	-26.748043	0.000335	3.345239	1.133398	0.000134
1831	1.8209e+02	-7.0827	-26.675374	0.000182	1.824676	0.618217	0.000073
1832	1.8218e+02	-7.0442	-26.554260	0.000304	3.041126	1.030362	0.000122
1833	1.8228e+02	-7.0041	-26.429109	0.000314	3.142497	1.064707	0.000126
1834	1.8238e+02	-6.9672	-26.360478	0.000172	1.723305	0.583872	0.000069
1835	1.8248e+02	-6.9271	-26.247438	0.000284	2.838385	0.961671	0.000114
1836	1.8258e+02	-6.8934	-26.114213	0.000335	3.345239	1.133398	0.000134
1837	1.8268e+02	-6.8517	-26.025396	0.000223	2.230159	0.755598	0.000089
1838	1.8278e+02	-6.8036	-25.892170	0.000335	3.345239	1.133398	0.000134
1839	1.8288e+02	-6.7683	-25.779130	0.000284	2.838385	0.961671	0.000114
1840	1.8298e+02	-6.7185	-25.682239	0.000243	2.432901	0.824289	0.000097
1841	1.8308e+02	-6.6880	-25.549014	0.000335	3.345239	1.133398	0.000134
1842	1.8318e+02	-6.6447	-25.488456	0.000152	1.520563	0.515181	0.000061
1843	1.8328e+02	-6.6094	-25.367342	0.000304	3.041126	1.030362	0.000122
1844	1.8338e+02	-6.5661	-25.254303	0.000284	2.838385	0.961671	0.000114
1845	1.8348e+02	-6.5180	-25.137226	0.000294	2.939756	0.996016	0.000118
1846	1.8358e+02	-6.4891	-25.020149	0.000294	2.939756	0.996016	0.000118
1847	1.8368e+02	-6.4330	-24.939406	0.000203	2.027418	0.686908	0.000081
1848	1.8378e+02	-6.4105	-24.850589	0.000223	2.230159	0.755598	0.000089
1849	1.8388e+02	-6.3736	-24.693141	0.000395	3.953464	1.339470	0.000158
1850	1.8398e+02	-6.3271	-24.604324	0.000223	2.230159	0.755598	0.000089
1851	1.8407e+02	-6.2950	-24.515507	0.000223	2.230159	0.755598	0.000089
1852	1.8417e+02	-6.2549	-24.366133	0.000375	3.750723	1.270779	0.000150
1853	1.8427e+02	-6.2084	-24.232907	0.000335	3.345239	1.133398	0.000134
1854	1.8437e+02	-6.1811	-24.172350	0.000152	1.520563	0.515181	0.000061
1855	1.8447e+02	-6.1298	-24.002791	0.000426	4.257577	1.442506	0.000170
1856	1.8457e+02	-6.0929	-23.930122	0.000182	1.824676	0.618217	0.000073
1857	1.8467e+02	-6.0576	-23.837268	0.000233	2.331530	0.789944	0.000093
1858	1.8477e+02	-6.0159	-23.720191	0.000294	2.939756	0.996016	0.000118
1859	1.8487e+02	-5.9661	-23.611188	0.000274	2.737014	0.927325	0.000110
1860	1.8497e+02	-5.9276	-23.457777	0.000385	3.852093	1.305125	0.000154
1861	1.8507e+02	-5.8843	-23.393183	0.000162	1.621934	0.549526	0.000065
1862	1.8517e+02	-5.8506	-23.219586	0.000436	4.358948	1.476852	0.000174
1863	1.8527e+02	-5.8153	-23.159029	0.000152	1.520563	0.515181	0.000061
1864	1.8537e+02	-5.7784	-23.005618	0.000385	3.852093	1.305125	0.000154
1865	1.8547e+02	-5.7351	-22.892578	0.000284	2.838385	0.961671	0.000114
1866	1.8557e+02	-5.6950	-22.803761	0.000223	2.230159	0.755598	0.000089
1867	1.8567e+02	-5.6533	-22.654387	0.000375	3.750723	1.270779	0.000150
1868	1.8577e+02	-5.6116	-22.585756	0.000172	1.723305	0.583872	0.000069
1869	1.8587e+02	-5.5651	-22.480790	0.000264	2.635643	0.892980	0.000105
1870	1.8597e+02	-5.5314	-22.315268	0.000416	4.156206	1.408161	0.000166
1871	1.8606e+02	-5.4945	-22.238562	0.000193	1.926047	0.652562	0.000077
1872	1.8616e+02	-5.4496	-22.073040	0.000416	4.156206	1.408161	0.000166
1873	1.8626e+02	-5.4095	-21.980186	0.000233	2.331530	0.789944	0.000093
1874	1.8636e+02	-5.3726	-21.863109	0.000294	2.939756	0.996016	0.000118
1875	1.8646e+02	-5.3293	-21.766217	0.000243	2.432901	0.824289	0.000097
1876	1.8656e+02	-5.2924	-21.665289	0.000253	2.534272	0.858635	0.000101
1877	1.8666e+02	-5.2523	-21.536101	0.000324	3.243868	1.099052	0.000130
1878	1.8676e+02	-5.2170	-21.427098	0.000274	2.737014	0.927325	0.000110
1879	1.8686e+02	-5.1688	-21.289835	0.000345	3.446610	1.167743	0.000138
1880	1.8696e+02	-5.1271	-21.192944	0.000243	2.432901	0.824289	0.000097
1881	1.8706e+02	-5.0934	-21.087979	0.000264	2.635643	0.892980	0.000105
1882	1.8716e+02	-5.0581	-20.926493	0.000405	4.054835	1.373815	0.000162
1883	1.8726e+02	-5.0196	-20.853825	0.000182	1.824676	0.618217	0.000073
1884	1.8736e+02	-4.9763	-20.700413	0.000385	3.852093	1.305125	0.000154
1885	1.8746e+02	-4.9378	-20.627745	0.000182	1.824676	0.618217	0.000073
1886	1.8756e+02	-4.9041	-20.510668	0.000294	2.939756	0.996016	0.000118
1887	1.8766e+02	-4.8560	-20.446074	0.000162	1.621934	0.549526	0.000065
1888	1.8776e+02	-4.8127	-20.369368	0.000193	1.926047	0.652562	0.000077
1889	1.8786e+02	-4.7646	-20.167512	0.000507	5.068544	1.717269	0.000203
1890	1.8796e+02	-4.7245	-20.034286	0.000335	3.345239	1.133398	0.000134
1891	1.8806e+02	-4.7004	-19.949506	0.000213	2.128789	0.721253	0.000085
1892	1.8815e+02	-4.6571	-19.812244	0.000345	3.446610	1.167743	0.000138
1893	1.8825e+02	-4.6170	-19.723427	0.000223	2.230159	0.755598	0.000089
1894	1.8835e+02	-4.5817	-19.626535	0.000243	2.432901	0.824289	0.000097
1895	1.8845e+02	-4.5368	-19.525607	0.000253	2.534272	0.858635	0.000101
1896	1.8855e+02	-4.4983	-19.428716	0.000243	2.432901	0.824289	0.000097
1897	1.8865e+02	-4.4566	-19.267230	0.000405	4.054835	1.373815	0.000162
1898	1.8875e+02	-4.4229	-19.178413	0.000223	2.230159	0.755598	0.000089
1899	1.8885e+02	-4.3715	-19.053262	0.000314	3.142497	1.064707	0.000126
1900	1.8895e+02	-4.3411	-18.956371	0.000243	2.432901	0.824289	0.000097
1901	1.8905e+02	-4.2913	-18.819108	0.000345	3.446610	1.167743	0.000138
1902	1.8915e+02	-4.2624	-18.762588	0.000142	1.419192	0.480835	0.000057
1903	1.8925e+02	-4.2207	-18.609177	0.000385	3.852093	1.305125	0.000154
1904	1.8935e+02	-4.1758	-18.520360	0.000223	2.230159	0.755598	0.000089
1905	1.8945e+02	-4.1373	-18.399246	0.000304	3.041126	1.030362	0.000122
1906	1.8955e+02	-4.0988	-18.282169	0.000294	2.939756	0.996016	0.000118
1907	1.8965e+02	-4.0635	-18.169129	0.000284	2.838385	0.961671	0.000114
1908	1.8975e+02	-4.0250	-18.092424	0.000193	1.926047	0.652562	0.000077
1909	1.8985e+02	-3.9833	-17.918827	0.000436	4.358948	1.476852	0.000174
1910	1.8995e+02	-3.9336	-17.813861	0.000264	2.635643	0.892980	0.000105
1911	1.9004e+02	-3.9079	-17.716970	0.000243	2.432901	0.824289	0.000097
1912	1.9014e+02	-3.8598	-17.607968	0.000274	2.737014	0.927325	0.000110
1913	1.9024e+02	-3.8389	-17.507039	0.000253	2.534272	0.858635	0.000101
1914	1.9034e+02	-3.7908	-17.373814	0.000335	3.345239	1.133398	0.000134
1915	1.9044e+02	-3.7443	-17.284997	0.000223	2.230159	0.755598	0.000089
1916	1.9054e+02	-3.7010	-17.167920	0.000294	2.939756	0.996016	0.000118
1917	1.9064e+02	-3.6528	-17.071028	0.000243	2.432901	0.824289	0.000097
1918	1.9074e+02	-3.6159	-16.913580	0.000395	3.953464	1.339470	0.000158
1919	1.9084e+02	-3.5871	-16.836875	0.000193	1.926047	0.652562	0.000077
1920	1.9094e+02	-3.5421	-16.707686	0.000324	3.243868	1.099052	0.000130
1921	1.9104e+02	-3.5036	-16.606758	0.000253	2.534272	0.858635	0.000101
1922	1.9114e+02	-3.4555	-16.481607	0.000314	3.142497	1.064707	0.000126
1923	1.9124e+02	-3.4234	-16.384715	0.000243	2.432901	0.824289	0.000097
1924	1.9134e+02	-3.3817	-16.255527	0.000324	3.243868	1.099052	0.000130
1925	1.9144e+02	-3.3448	-16.162673	0.000233	2.331530	0.789944	0.000093
1926	1.9154e+02	-3.3095	-16.033485	0.000324	3.243868	1.099052	0.000130
1927	1.9164e+02	-3.2614	-15.912371	0.000304	3.041126	1.030362	0.000122
1928	1.9174e+02	-3.2245	-15.779145	0.000335	3.345239	1.133398	0.000134
1929	1.9184e+02	-3.1748	-15.682254	0.000243	2.432901	0.824289	0.000097
1930	1.9194e+02	-3.1491	-15.609585	0.000182	1.824676	0.618217	0.000073
1931	1.9203e+02	-3.0930	-15.504620	0.000264	2.635643	0.892980	0.000105
1932	1.9213e+02	-3.0641	-15.375431	0.000324	3.243868	1.099052	0.000130
1933	1.9223e+02	-3.0288	-15.242206	0.000335	3.345239	1.133398	0.000134
1934	1.9233e+02	-2.9839	-15.145315	0.000243	2.432901	0.824289	0.000097
1935	1.9243e+02	-2.9454	-15.020164	0.000314	3.142497	1.064707	0.000126
1936	1.9253e+02	-2.9037	-14.939421	0.000203	2.027418	0.686908	0.000081
1937	1.9263e+02	-2.8668	-14.818307	0.000304	3.041126	1.030362	0.000122
1938	1.9273e+02	-2.8234	-14.697193	0.000304	3.041126	1.030362	0.000122
1939	1.9283e+02	-2.7849	-14.563967	0.000335	3.345239	1.133398	0.000134
1940	1.9293e+02	-2.7481	-14.487262	0.000193	1.926047	0.652562	0.000077
1941	1.9303e+02	-2.7128	-14.374222	0.000284	2.838385	0.961671	0.000114
1942	1.9313e+02	-2.6646	-14.249071	0.000314	3.142497	1.064707	0.000126
1943	1.9323e+02	-2.6229	-14.136031	0.000284	2.838385	0.961671	0.000114
1944	1.9333e+02	-2.5908	-14.022991	0.000284	2.838385	0.961671	0.000114
1945	1.9343e+02	-2.5523	-13.869580	0.000385	3.852093	1.305125	0.000154
1946	1.9353e+02	-2.5090	-13.809023	0.000152	1.520563	0.515181	0.000061
1947	1.9363e+02	-2.4641	-13.708094	0.000253	2.534272	0.858635	0.000101
1948	1.9373e+02	-2.4320	-13.595055	0.000284	2.838385	0.961671	0.000114
1949	1.9383e+02	-2.3903	-13.469903	0.000314	3.142497	1.064707	0.000126
1950	1.9393e+02	-2.3438	-13.324567	0.000365	3.649352	1.236434	0.000146
1951	1.9403e+02	-2.3053	-13.219601	0.000264	2.635643	0.892980	0.000105
1952	1.9412e+02	-2.2668	-13.159044	0.000152	1.520563	0.515181	0.000061
1953	1.9422e+02	-2.2251	-13.025818	0.000335	3.345239	1.133398	0.000134
1954	1.9432e+02	-2.1930	-12.912779	0.000284	2.838385	0.961671	0.000114
1955	1.9442e+02	-2.1513	-12.783590	0.000324	3.243868	1.099052	0.000130
1956	1.9452e+02	-2.1080	-12.698810	0.000213	2.128789	0.721253	0.000085
1957	1.9462e+02	-2.0775	-12.626142	0.000182	1.824676	0.618217	0.000073
1958	1.9472e+02	-2.0326	-12.448508	0.000446	4.460319	1.511197	0.000179
1959	1.9482e+02	-1.9860	-12.315283	0.000335	3.345239	1.133398	0.000134
1960	1.9492e+02	-1.9427	-12.254726	0.000152	1.520563	0.515181	0.000061
1961	1.9502e+02	-1.9122	-12.133611	0.000304	3.041126	1.030362	0.000122
1962	1.9512e+02	-1.8770	-12.012497	0.000304	3.041126	1.030362	0.000122
1963	1.9522e+02	-1.8336	-11.891383	0.000304	3.041126	1.030362	0.000122
1964	1.9532e+02	-1.7839	-11.754121	0.000345	3.446610	1.167743	0.000138
1965	1.9542e+02	-1.7566	-11.657229	0.000243	2.432901	0.824289	0.000097
1966	1.9552e+02	-1.7101	-11.536115	0.000304	3.041126	1.030362	0.000122
1967	1.9562e+02	-1.6668	-11.423076	0.000284	2.838385	0.961671	0.000114
1968	1.9572e+02	-1.6251	-11.354444	0.000172	1.723305	0.583872	0.000069
1969	1.9582e+02	-1.5834	-11.213145	0.000355	3.547981	1.202088	0.000142
1970	1.9592e+02	-1.5545	-11.096068	0.000294	2.939756	0.996016	0.000118
1971	1.9601e+02	-1.5080	-10.987065	0.000274	2.737014	0.927325	0.000110
1972	1.9611e+02	-1.4647	-10.882099	0.000264	2.635643	0.892980	0.000105
1973	1.9621e+02	-1.4246	-10.708503	0.000436	4.358948	1.476852	0.000174
1974	1.9631e+02	-1.3909	-10.635834	0.000182	1.824676	0.618217	0.000073
1975	1.9641e+02	-1.3476	-10.490497	0.000365	3.649352	1.236434	0.000146
1976	1.9651e+02	-1.3091	-10.405717	0.000213	2.128789	0.721253	0.000085
1977	1.9661e+02	-1.2689	-10.308826	0.000243	2.432901	0.824289	0.000097
1978	1.9671e+02	-1.2304	-10.143304	0.000416	4.156206	1.408161	0.000166
1979	1.9681e+02	-1.1903	-9.961632	0.000456	4.561690	1.545542	0.000183
1980	1.9691e+02	-1.1454	-9.901075	0.000152	1.520563	0.515181	0.000061
1981	1.9701e+02	-1.1149	-9.788036	0.000284	2.838385	0.961671	0.000114
1982	1.9711e+02	-1.0764	-9.670959	0.000294	2.939756	0.996016	0.000118
1983	1.9721e+02	-1.0411	-9.586179	0.000213	2.128789	0.721253	0.000085
1984	1.9731e+02	-0.9930	-9.420656	0.000416	4.156206	1.408161	0.000166
1985	1.9741e+02	-0.9513	-9.347988	0.000182	1.824676	0.618217	0.000073
1986	1.9751e+02	-0.9128	-9.210725	0.000345	3.446610	1.167743	0.000138
1987	1.9761e+02	-0.8615	-9.093648	0.000294	2.939756	0.996016	0.000118
1988	1.9771e+02	-0.8342	-8.992720	0.000253	2.534272	0.858635	0.000101
1989	1.9781e+02	-0.7909	-8.819123	0.000436	4.358948	1.476852	0.000174
1990	1.9791e+02	-0.7508	-8.726269	0.000233	2.331530	0.789944	0.000093
1991	1.9800e+02	-0.7235	-8.601118	0.000314	3.142497	1.064707	0.000126
1992	1.9810e+02	-0.6754	-8.475966	0.000314	3.142497	1.064707	0.000126
1993	1.9820e+02	-0.6321	-8.350815	0.000314	3.142497	1.064707	0.000126
1994	1.9830e+02	-0.5920	-8.233738	0.000294	2.939756	0.996016	0.000118
1995	1.9840e+02	-0.5486	-8.144921	0.000223	2.230159	0.755598	0.000089
1996	1.9850e+02	-0.5166	-7.983436	0.000405	4.054835	1.373815	0.000162
1997	1.9860e+02	-0.4700	-7.918842	0.000162	1.621934	0.549526	0.000065
1998	1.9870e+02	-0.4267	-7.769468	0.000375	3.750723	1.270779	0.000150
1999	1.9880e+02	-0.4027	-7.664502	0.000264	2.635643	0.892980	0.000105
2000	1.9890e+02	-0.3497	-7.531277	0.000335	3.345239	1.133398	0.000134
2001	1.9900e+02	-0.3176	-7.365754	0.000416	4.156206	1.408161	0.000166
2002	1.9910e+02	-0.2695	-7.256751	0.000274	2.737014	0.927325	0.000110
2003	1.9920e+02	-0.2390	-7.151786	0.000264	2.635643	0.892980	0.000105
2004	1.9930e+02	-0.1909	-7.050858	0.000253	2.534272	0.858635	0.000101
2005	1.9940e+02	-0.1604	-6.929743	0.000304	3.041126	1.030362	0.000122
2006	1.9950e+02	-0.1155	-6.796518	0.000335	3.345239	1.133398	0.000134
2007	1.9960e+02	-0.0722	-6.655218	0.000355	3.547981	1.202088	0.000142
2008	1.9970e+02	-0.0353	-6.550253	0.000264	2.635643	0.892980	0.000105
2009	1.9980e+02	0.0096	-6.445287	0.000264	2.635643	0.892980	0.000105

PMax (uC/cm2):	5.95e+01
Pr (uC/cm2):	2.21e+00
-Pr (uC/cm2):	-3.04e+00
PLoss (uC/cm2):	-3.01e+00
-Vc:	-7.51e-01
C (Max-Eff) (nF):	2.98e-01
K (Eff):	1.01e+03
Vert. (+/-Pr) Shift (uC/cm2):	-4.12e-01
Offset (uC/cm2):	3.41e+00

A (Loop Area - uC/cm2·Volts):	2.79e-02



Hysteresis Version: 5.48.1 - Radiant Technologies, Inc., 1999 - 9/12/24

