»»»»»»»»»»»»»»»»»»»»»»»»»»»»»»»»»»»» Hysteresis ««««««««««««««««««««««««««««««««««««
»»»  Executed Version:	5.48.1
»»»  Vision Version:	5.48.4 (R)
»»»  Vision Compiled:	9/18/24
»»»  Driver Version:	5.47.0
»»»  Windows Version:	Windows 8 or 8.1
»»»  Processor Information:	x86 (AMD or Intel) - 32 Processors
»»»  Tester Name:	PMF21124-494 (100V)
»»»  Tester S/N:	PMF21124-494
»»»  Internal Amp Type:	100V RevK 270k
»»»  Internal Amp S/N:	iAB2-596/K     
»»»  Execution Count:	1
»»»»»»»»»»»»»»»»»»»»»»»»»»»»»»»»»»»»»»»»»»««««««««««««««««««««««««««««««««««««««««««

Stored:	6/19/2025 - 17:1:28
Configured:	06/19/25 10:04:32 AM
Executed:	06/19/25 05:00:30 PM

»»»»»»»»»»»»»»»»»»»»»»»»»»»»»»»»»»» Sample Info ««««««««««««««««««««««««««««««««««««
Sample Name:	
Lot Name:	
Wafer Name:	
Die Row/Column:	0/0
Capacitor Number:	0
Sample Area (cm2):	1.00e-04
Sample Thickness (microns):	3.00e-01

Amplifier:	Internal

»»»»»»»»»»»»»»»»»»»»»»»»»»»»»»»»»»» Tester Info «««««««««««««««««««««««««««««««««««
Tester Name:	PMF21124-494 (100V)
Tester Serial Number:	PMF21124-494
Return Signal Amp. Level:	0.19 [Index: 3]

»»»»»»»»»»»»»»»»»»»»»»»»»»»»»»»» Hysteresis Info ««««««««««««««««««««««««««««««««««
Task Name:	Hyst-1168
Volts:	20.00
Field:	666.67 (kV/cm)
DCBias:	0.00
DCField:	0.00 (kV/cm)
Hysteresis Period (ms):	2.00e+02
Preset:	Enabled
Preset Delay (ms):	1.00e+03
Profile:	Standard Bipolar

»»»»»»»»»»»»»»»»»»»»»»»»»»»»»»»»»»»»»» Data «««««««««««««««««««««««««««««««««««««««
Points:	2009

Valid Data

Point	Time (ms)	Drive Voltage	Measured Polarization (uC/cm2)	Capacitance (uF)	Normalized Capacitance (uF/cm2)	Dielectric Constant	Instantaneous Current (mA)
   1	0.0000e+00	-0.0016	-4.186510	0.000243	2.432511	0.824157	0.000097
   2	9.9500e-02	0.0337	-4.089619	0.000243	2.432511	0.824157	0.000097
   3	1.9900e-01	0.0914	-3.944282	0.000365	3.648766	1.236235	0.000146
   4	2.9850e-01	0.1299	-3.831242	0.000284	2.837929	0.961516	0.000114
   5	3.9800e-01	0.1572	-3.698016	0.000334	3.344702	1.133216	0.000134
   6	4.9750e-01	0.1989	-3.597088	0.000253	2.533865	0.858497	0.000101
   7	5.9700e-01	0.2438	-3.516345	0.000203	2.027092	0.686797	0.000081
   8	6.9650e-01	0.2775	-3.350823	0.000416	4.155539	1.407935	0.000166
   9	7.9600e-01	0.3160	-3.257969	0.000233	2.331156	0.789817	0.000093
  10	8.9550e-01	0.3626	-3.153003	0.000264	2.635220	0.892837	0.000105
  11	9.9500e-01	0.3898	-3.003629	0.000375	3.750121	1.270575	0.000150
  12	1.0945e+00	0.4460	-2.926923	0.000193	1.925738	0.652458	0.000077
  13	1.1940e+00	0.4684	-2.801772	0.000314	3.141993	1.064536	0.000126
  14	1.2935e+00	0.5069	-2.696807	0.000264	2.635220	0.892837	0.000105
  15	1.3930e+00	0.5551	-2.547433	0.000375	3.750121	1.270575	0.000150
  16	1.4925e+00	0.5968	-2.446504	0.000253	2.533865	0.858497	0.000101
  17	1.5920e+00	0.6353	-2.341539	0.000264	2.635220	0.892837	0.000105
  18	1.6915e+00	0.6674	-2.224462	0.000294	2.939284	0.995856	0.000118
  19	1.7910e+00	0.7107	-2.119496	0.000264	2.635220	0.892837	0.000105
  20	1.8905e+00	0.7588	-1.982234	0.000345	3.446057	1.167556	0.000138
  21	1.9900e+00	0.7941	-1.869194	0.000284	2.837929	0.961516	0.000114
  22	2.0895e+00	0.8390	-1.760191	0.000274	2.736575	0.927177	0.000110
  23	2.1890e+00	0.8743	-1.655226	0.000264	2.635220	0.892837	0.000105
  24	2.2885e+00	0.9144	-1.538149	0.000294	2.939284	0.995856	0.000118
  25	2.3880e+00	0.9513	-1.429146	0.000274	2.736575	0.927177	0.000110
  26	2.4875e+00	0.9930	-1.283809	0.000365	3.648766	1.236235	0.000146
  27	2.5870e+00	1.0299	-1.158658	0.000314	3.141993	1.064536	0.000126
  28	2.6865e+00	1.0716	-1.073878	0.000213	2.128447	0.721137	0.000085
  29	2.7860e+00	1.1165	-0.940653	0.000334	3.344702	1.133216	0.000134
  30	2.8855e+00	1.1470	-0.823576	0.000294	2.939284	0.995856	0.000118
  31	2.9850e+00	1.1839	-0.698424	0.000314	3.141993	1.064536	0.000126
  32	3.0845e+00	1.2208	-0.637867	0.000152	1.520319	0.515098	0.000061
  33	3.1840e+00	1.2722	-0.464271	0.000436	4.358248	1.476615	0.000174
  34	3.2835e+00	1.3139	-0.339119	0.000314	3.141993	1.064536	0.000126
  35	3.3830e+00	1.3572	-0.278562	0.000152	1.520319	0.515098	0.000061
  36	3.4825e+00	1.3877	-0.100928	0.000446	4.459603	1.510954	0.000179
  37	3.5820e+00	1.4326	-0.008074	0.000233	2.331156	0.789817	0.000093
  38	3.6815e+00	1.4711	0.141300	0.000375	3.750121	1.270575	0.000150
  39	3.7810e+00	1.5144	0.250302	0.000274	2.736575	0.927177	0.000110
  40	3.8805e+00	1.5449	0.355268	0.000264	2.635220	0.892837	0.000105
  41	3.9800e+00	1.5962	0.472345	0.000294	2.939284	0.995856	0.000118
  42	4.0795e+00	1.6363	0.577310	0.000264	2.635220	0.892837	0.000105
  43	4.1790e+00	1.6668	0.718610	0.000355	3.547412	1.201896	0.000142
  44	4.2785e+00	1.7101	0.872021	0.000385	3.851475	1.304915	0.000154
  45	4.3780e+00	1.7486	0.968913	0.000243	2.432511	0.824157	0.000097
  46	4.4775e+00	1.7887	1.090027	0.000304	3.040638	1.030196	0.000122
  47	4.5770e+00	1.8272	1.154621	0.000162	1.621674	0.549438	0.000065
  48	4.6765e+00	1.8721	1.336292	0.000456	4.560958	1.545294	0.000183
  49	4.7760e+00	1.9122	1.437220	0.000253	2.533865	0.858497	0.000101
  50	4.8755e+00	1.9507	1.566409	0.000324	3.243348	1.098876	0.000130
  51	4.9750e+00	1.9892	1.635040	0.000172	1.723028	0.583778	0.000069
  52	5.0745e+00	2.0278	1.816711	0.000456	4.560958	1.545294	0.000183
  53	5.1740e+00	2.0743	1.893417	0.000193	1.925738	0.652458	0.000077
  54	5.2735e+00	2.1048	2.018568	0.000314	3.141993	1.064536	0.000126
  55	5.3730e+00	2.1561	2.155830	0.000345	3.446057	1.167556	0.000138
  56	5.4725e+00	2.1946	2.260796	0.000264	2.635220	0.892837	0.000105
  57	5.5720e+00	2.2267	2.373836	0.000284	2.837929	0.961516	0.000114
  58	5.6715e+00	2.2700	2.498987	0.000314	3.141993	1.064536	0.000126
  59	5.7710e+00	2.3037	2.624138	0.000314	3.141993	1.064536	0.000126
  60	5.8705e+00	2.3454	2.749289	0.000314	3.141993	1.064536	0.000126
  61	5.9700e+00	2.3871	2.910775	0.000405	4.054185	1.373595	0.000162
  62	6.0695e+00	2.4304	3.007666	0.000243	2.432511	0.824157	0.000097
  63	6.1690e+00	2.4737	3.052075	0.000111	1.114901	0.377739	0.000045
  64	6.2685e+00	2.5138	3.221634	0.000426	4.256894	1.442275	0.000170
  65	6.3680e+00	2.5539	3.346786	0.000314	3.141993	1.064536	0.000126
  66	6.4675e+00	2.5844	3.459825	0.000284	2.837929	0.961516	0.000114
  67	6.5670e+00	2.6325	3.593051	0.000334	3.344702	1.133216	0.000134
  68	6.6665e+00	2.6759	3.734351	0.000355	3.547412	1.201896	0.000142
  69	6.7660e+00	2.7112	3.847390	0.000284	2.837929	0.961516	0.000114
  70	6.8655e+00	2.7529	3.948319	0.000253	2.533865	0.858497	0.000101
  71	6.9650e+00	2.7849	4.089619	0.000355	3.547412	1.201896	0.000142
  72	7.0645e+00	2.8363	4.226881	0.000345	3.446057	1.167556	0.000138
  73	7.1640e+00	2.8732	4.319735	0.000233	2.331156	0.789817	0.000093
  74	7.2635e+00	2.9053	4.448924	0.000324	3.243348	1.098876	0.000130
  75	7.3630e+00	2.9518	4.590223	0.000355	3.547412	1.201896	0.000142
  76	7.4625e+00	2.9823	4.695189	0.000264	2.635220	0.892837	0.000105
  77	7.5620e+00	3.0272	4.832451	0.000345	3.446057	1.167556	0.000138
  78	7.6615e+00	3.0641	4.965677	0.000334	3.344702	1.133216	0.000134
  79	7.7610e+00	3.1010	5.090828	0.000314	3.141993	1.064536	0.000126
  80	7.8605e+00	3.1475	5.191757	0.000253	2.533865	0.858497	0.000101
  81	7.9600e+00	3.1876	5.353242	0.000405	4.054185	1.373595	0.000162
  82	8.0595e+00	3.2277	5.466282	0.000284	2.837929	0.961516	0.000114
  83	8.1590e+00	3.2742	5.575284	0.000274	2.736575	0.927177	0.000110
  84	8.2585e+00	3.3079	5.716584	0.000355	3.547412	1.201896	0.000142
  85	8.3580e+00	3.3416	5.845773	0.000324	3.243348	1.098876	0.000130
  86	8.4575e+00	3.3865	5.938627	0.000233	2.331156	0.789817	0.000093
  87	8.5570e+00	3.4266	6.100112	0.000405	4.054185	1.373595	0.000162
  88	8.6565e+00	3.4587	6.192966	0.000233	2.331156	0.789817	0.000093
  89	8.7560e+00	3.5117	6.330229	0.000345	3.446057	1.167556	0.000138
  90	8.8555e+00	3.5454	6.435194	0.000264	2.635220	0.892837	0.000105
  91	8.9550e+00	3.5823	6.572457	0.000345	3.446057	1.167556	0.000138
  92	9.0545e+00	3.6208	6.677423	0.000264	2.635220	0.892837	0.000105
  93	9.1540e+00	3.6593	6.846982	0.000426	4.256894	1.442275	0.000170
  94	9.2535e+00	3.6978	6.996356	0.000375	3.750121	1.270575	0.000150
  95	9.3530e+00	3.7411	7.069025	0.000182	1.824383	0.618118	0.000073
  96	9.4525e+00	3.7764	7.222436	0.000385	3.851475	1.304915	0.000154
  97	9.5520e+00	3.8213	7.335476	0.000284	2.837929	0.961516	0.000114
  98	9.6515e+00	3.8614	7.424293	0.000223	2.229802	0.755477	0.000089
  99	9.7510e+00	3.9095	7.618075	0.000487	4.865022	1.648314	0.000195
 100	9.8505e+00	3.9384	7.678632	0.000152	1.520319	0.515098	0.000061
 101	9.9500e+00	3.9801	7.848192	0.000426	4.256894	1.442275	0.000170
 102	1.0050e+01	4.0186	7.989492	0.000355	3.547412	1.201896	0.000142
 103	1.0149e+01	4.0571	8.090420	0.000253	2.533865	0.858497	0.000101
 104	1.0248e+01	4.0988	8.243831	0.000385	3.851475	1.304915	0.000154
 105	1.0348e+01	4.1469	8.377057	0.000334	3.344702	1.133216	0.000134
 106	1.0447e+01	4.1822	8.550653	0.000436	4.358248	1.476615	0.000174
 107	1.0547e+01	4.2223	8.595062	0.000111	1.114901	0.377739	0.000045
 108	1.0646e+01	4.2624	8.691953	0.000243	2.432511	0.824157	0.000097
 109	1.0746e+01	4.3042	8.885736	0.000487	4.865022	1.648314	0.000195
 110	1.0845e+01	4.3427	9.002813	0.000294	2.939284	0.995856	0.000118
 111	1.0945e+01	4.3812	9.144112	0.000355	3.547412	1.201896	0.000142
 112	1.1044e+01	4.4197	9.257152	0.000284	2.837929	0.961516	0.000114
 113	1.1144e+01	4.4566	9.386341	0.000324	3.243348	1.098876	0.000130
 114	1.1243e+01	4.4999	9.491306	0.000264	2.635220	0.892837	0.000105
 115	1.1343e+01	4.5400	9.620494	0.000324	3.243348	1.098876	0.000130
 116	1.1443e+01	4.5769	9.741609	0.000304	3.040638	1.030196	0.000122
 117	1.1542e+01	4.6266	9.870797	0.000324	3.243348	1.098876	0.000130
 118	1.1642e+01	4.6619	10.012097	0.000355	3.547412	1.201896	0.000142
 119	1.1741e+01	4.7036	10.141285	0.000324	3.243348	1.098876	0.000130
 120	1.1841e+01	4.7421	10.242213	0.000253	2.533865	0.858497	0.000101
 121	1.1940e+01	4.7662	10.387550	0.000365	3.648766	1.236235	0.000146
 122	1.2040e+01	4.8191	10.504627	0.000294	2.939284	0.995856	0.000118
 123	1.2139e+01	4.8640	10.662075	0.000395	3.952830	1.339255	0.000158
 124	1.2239e+01	4.9057	10.779152	0.000294	2.939284	0.995856	0.000118
 125	1.2338e+01	4.9378	10.867969	0.000223	2.229802	0.755477	0.000089
 126	1.2438e+01	4.9827	10.989083	0.000304	3.040638	1.030196	0.000122
 127	1.2537e+01	5.0196	11.110198	0.000304	3.040638	1.030196	0.000122
 128	1.2636e+01	5.0598	11.247460	0.000345	3.446057	1.167556	0.000138
 129	1.2736e+01	5.1047	11.372611	0.000314	3.141993	1.064536	0.000126
 130	1.2835e+01	5.1464	11.538134	0.000416	4.155539	1.407935	0.000166
 131	1.2935e+01	5.1817	11.635025	0.000243	2.432511	0.824157	0.000097
 132	1.3034e+01	5.2186	11.739991	0.000264	2.635220	0.892837	0.000105
 133	1.3134e+01	5.2603	11.921662	0.000456	4.560958	1.545294	0.000183
 134	1.3233e+01	5.3036	12.054887	0.000334	3.344702	1.133216	0.000134
 135	1.3333e+01	5.3453	12.155816	0.000253	2.533865	0.858497	0.000101
 136	1.3432e+01	5.3790	12.293078	0.000345	3.446057	1.167556	0.000138
 137	1.3532e+01	5.4159	12.430341	0.000345	3.446057	1.167556	0.000138
 138	1.3632e+01	5.4544	12.523195	0.000233	2.331156	0.789817	0.000093
 139	1.3731e+01	5.5057	12.688718	0.000416	4.155539	1.407935	0.000166
 140	1.3831e+01	5.5346	12.765423	0.000193	1.925738	0.652458	0.000077
 141	1.3930e+01	5.5683	12.902686	0.000345	3.446057	1.167556	0.000138
 142	1.4030e+01	5.6164	13.072246	0.000426	4.256894	1.442275	0.000170
 143	1.4129e+01	5.6613	13.157025	0.000213	2.128447	0.721137	0.000085
 144	1.4229e+01	5.6918	13.326585	0.000426	4.256894	1.442275	0.000170
 145	1.4328e+01	5.7319	13.439625	0.000284	2.837929	0.961516	0.000114
 146	1.4428e+01	5.7704	13.532479	0.000233	2.331156	0.789817	0.000093
 147	1.4527e+01	5.8186	13.661667	0.000324	3.243348	1.098876	0.000130
 148	1.4627e+01	5.8506	13.819116	0.000395	3.952830	1.339255	0.000158
 149	1.4726e+01	5.8972	13.883710	0.000162	1.621674	0.549438	0.000065
 150	1.4825e+01	5.9373	14.057307	0.000436	4.358248	1.476615	0.000174
 151	1.4925e+01	5.9806	14.158235	0.000253	2.533865	0.858497	0.000101
 152	1.5024e+01	6.0255	14.287423	0.000324	3.243348	1.098876	0.000130
 153	1.5124e+01	6.0544	14.404500	0.000294	2.939284	0.995856	0.000118
 154	1.5223e+01	6.0945	14.533689	0.000324	3.243348	1.098876	0.000130
 155	1.5323e+01	6.1378	14.634617	0.000253	2.533865	0.858497	0.000101
 156	1.5422e+01	6.1731	14.767843	0.000334	3.344702	1.133216	0.000134
 157	1.5522e+01	6.2116	14.949514	0.000456	4.560958	1.545294	0.000183
 158	1.5621e+01	6.2469	15.046405	0.000243	2.432511	0.824157	0.000097
 159	1.5721e+01	6.2998	15.159445	0.000284	2.837929	0.961516	0.000114
 160	1.5820e+01	6.3351	15.280559	0.000304	3.040638	1.030196	0.000122
 161	1.5920e+01	6.3704	15.425896	0.000365	3.648766	1.236235	0.000146
 162	1.6020e+01	6.4201	15.526824	0.000253	2.533865	0.858497	0.000101
 163	1.6119e+01	6.4683	15.643901	0.000294	2.939284	0.995856	0.000118
 164	1.6218e+01	6.4859	15.777126	0.000334	3.344702	1.133216	0.000134
 165	1.6318e+01	6.5308	15.869981	0.000233	2.331156	0.789817	0.000093
 166	1.6418e+01	6.5645	16.023392	0.000385	3.851475	1.304915	0.000154
 167	1.6517e+01	6.6191	16.152580	0.000324	3.243348	1.098876	0.000130
 168	1.6616e+01	6.6528	16.314066	0.000405	4.054185	1.373595	0.000162
 169	1.6716e+01	6.6800	16.378660	0.000162	1.621674	0.549438	0.000065
 170	1.6816e+01	6.7314	16.528034	0.000375	3.750121	1.270575	0.000150
 171	1.6915e+01	6.7747	16.677408	0.000375	3.750121	1.270575	0.000150
 172	1.7015e+01	6.8148	16.737965	0.000152	1.520319	0.515098	0.000061
 173	1.7114e+01	6.8453	16.875227	0.000345	3.446057	1.167556	0.000138
 174	1.7213e+01	6.8854	17.036713	0.000405	4.054185	1.373595	0.000162
 175	1.7313e+01	6.9319	17.153790	0.000294	2.939284	0.995856	0.000118
 176	1.7413e+01	6.9800	17.266830	0.000284	2.837929	0.961516	0.000114
 177	1.7512e+01	7.0041	17.359684	0.000233	2.331156	0.789817	0.000093
 178	1.7611e+01	7.0586	17.484835	0.000314	3.141993	1.064536	0.000126
 179	1.7711e+01	7.0891	17.605949	0.000304	3.040638	1.030196	0.000122
 180	1.7811e+01	7.1244	17.747249	0.000355	3.547412	1.201896	0.000142
 181	1.7910e+01	7.1661	17.836066	0.000223	2.229802	0.755477	0.000089
 182	1.8009e+01	7.2046	17.981403	0.000365	3.648766	1.236235	0.000146
 183	1.8109e+01	7.2511	18.066182	0.000213	2.128447	0.721137	0.000085
 184	1.8209e+01	7.2848	18.215556	0.000375	3.750121	1.270575	0.000150
 185	1.8308e+01	7.3281	18.296299	0.000203	2.027092	0.686797	0.000081
 186	1.8407e+01	7.3586	18.482007	0.000466	4.662312	1.579634	0.000187
 187	1.8507e+01	7.4100	18.538527	0.000142	1.418965	0.480758	0.000057
 188	1.8607e+01	7.4436	18.708087	0.000426	4.256894	1.442275	0.000170
 189	1.8706e+01	7.4854	18.804978	0.000243	2.432511	0.824157	0.000097
 190	1.8805e+01	7.5255	18.922055	0.000294	2.939284	0.995856	0.000118
 191	1.8905e+01	7.5624	19.047206	0.000314	3.141993	1.064536	0.000126
 192	1.9005e+01	7.6073	19.176395	0.000324	3.243348	1.098876	0.000130
 193	1.9104e+01	7.6394	19.297509	0.000304	3.040638	1.030196	0.000122
 194	1.9203e+01	7.6939	19.414586	0.000294	2.939284	0.995856	0.000118
 195	1.9303e+01	7.7308	19.531663	0.000294	2.939284	0.995856	0.000118
 196	1.9402e+01	7.7613	19.664888	0.000334	3.344702	1.133216	0.000134
 197	1.9502e+01	7.8062	19.777928	0.000284	2.837929	0.961516	0.000114
 198	1.9602e+01	7.8463	19.903079	0.000314	3.141993	1.064536	0.000126
 199	1.9701e+01	7.8880	20.016119	0.000284	2.837929	0.961516	0.000114
 200	1.9800e+01	7.9313	20.141270	0.000314	3.141993	1.064536	0.000126
 201	1.9900e+01	7.9634	20.242199	0.000253	2.533865	0.858497	0.000101
 202	2.0000e+01	8.0083	20.407721	0.000416	4.155539	1.407935	0.000166
 203	2.0099e+01	8.0516	20.484427	0.000193	1.925738	0.652458	0.000077
 204	2.0198e+01	8.0918	20.641875	0.000395	3.952830	1.339255	0.000158
 205	2.0298e+01	8.1270	20.738766	0.000243	2.432511	0.824157	0.000097
 206	2.0398e+01	8.1655	20.863917	0.000314	3.141993	1.064536	0.000126
 207	2.0497e+01	8.2153	20.993106	0.000324	3.243348	1.098876	0.000130
 208	2.0596e+01	8.2458	21.106146	0.000284	2.837929	0.961516	0.000114
 209	2.0696e+01	8.2794	21.263594	0.000395	3.952830	1.339255	0.000158
 210	2.0796e+01	8.3244	21.400857	0.000345	3.446057	1.167556	0.000138
 211	2.0895e+01	8.3677	21.469488	0.000172	1.723028	0.583778	0.000069
 212	2.0994e+01	8.4030	21.554268	0.000213	2.128447	0.721137	0.000085
 213	2.1094e+01	8.4415	21.723827	0.000426	4.256894	1.442275	0.000170
 214	2.1194e+01	8.4864	21.877239	0.000385	3.851475	1.304915	0.000154
 215	2.1293e+01	8.5265	21.941833	0.000162	1.621674	0.549438	0.000065
 216	2.1392e+01	8.5666	22.071021	0.000324	3.243348	1.098876	0.000130
 217	2.1492e+01	8.5955	22.192135	0.000304	3.040638	1.030196	0.000122
 218	2.1591e+01	8.6452	22.361695	0.000426	4.256894	1.442275	0.000170
 219	2.1691e+01	8.6821	22.422252	0.000152	1.520319	0.515098	0.000061
 220	2.1791e+01	8.7254	22.579700	0.000395	3.952830	1.339255	0.000158
 221	2.1890e+01	8.7655	22.692740	0.000284	2.837929	0.961516	0.000114
 222	2.1989e+01	8.7976	22.830003	0.000345	3.446057	1.167556	0.000138
 223	2.2089e+01	8.8457	22.926894	0.000243	2.432511	0.824157	0.000097
 224	2.2189e+01	8.8826	23.056082	0.000324	3.243348	1.098876	0.000130
 225	2.2288e+01	8.9179	23.185271	0.000324	3.243348	1.098876	0.000130
 226	2.2387e+01	8.9645	23.290236	0.000264	2.635220	0.892837	0.000105
 227	2.2487e+01	9.0030	23.427499	0.000345	3.446057	1.167556	0.000138
 228	2.2587e+01	9.0431	23.544576	0.000294	2.939284	0.995856	0.000118
 229	2.2686e+01	9.0896	23.702024	0.000395	3.952830	1.339255	0.000158
 230	2.2785e+01	9.1153	23.790841	0.000223	2.229802	0.755477	0.000089
 231	2.2885e+01	9.1602	23.928104	0.000345	3.446057	1.167556	0.000138
 232	2.2985e+01	9.2019	24.033069	0.000264	2.635220	0.892837	0.000105
 233	2.3084e+01	9.2372	24.138035	0.000264	2.635220	0.892837	0.000105
 234	2.3183e+01	9.2805	24.291446	0.000385	3.851475	1.304915	0.000154
 235	2.3283e+01	9.3254	24.416597	0.000314	3.141993	1.064536	0.000126
 236	2.3383e+01	9.3655	24.485228	0.000172	1.723028	0.583778	0.000069
 237	2.3482e+01	9.3992	24.654788	0.000426	4.256894	1.442275	0.000170
 238	2.3581e+01	9.4377	24.763791	0.000274	2.736575	0.927177	0.000110
 239	2.3681e+01	9.4810	24.868756	0.000264	2.635220	0.892837	0.000105
 240	2.3780e+01	9.5195	25.006019	0.000345	3.446057	1.167556	0.000138
 241	2.3880e+01	9.5676	25.139244	0.000334	3.344702	1.133216	0.000134
 242	2.3980e+01	9.5997	25.236135	0.000243	2.432511	0.824157	0.000097
 243	2.4079e+01	9.6286	25.369361	0.000334	3.344702	1.133216	0.000134
 244	2.4178e+01	9.6799	25.526809	0.000395	3.952830	1.339255	0.000158
 245	2.4278e+01	9.7217	25.603515	0.000193	1.925738	0.652458	0.000077
 246	2.4378e+01	9.7489	25.732703	0.000324	3.243348	1.098876	0.000130
 247	2.4477e+01	9.7987	25.882077	0.000375	3.750121	1.270575	0.000150
 248	2.4576e+01	9.8388	25.999154	0.000294	2.939284	0.995856	0.000118
 249	2.4676e+01	9.8805	26.116231	0.000294	2.939284	0.995856	0.000118
 250	2.4776e+01	9.9222	26.261568	0.000365	3.648766	1.236235	0.000146
 251	2.4875e+01	9.9639	26.374608	0.000284	2.837929	0.961516	0.000114
 252	2.4974e+01	9.9896	26.479573	0.000264	2.635220	0.892837	0.000105
 253	2.5074e+01	10.0377	26.596650	0.000294	2.939284	0.995856	0.000118
 254	2.5174e+01	10.0762	26.701616	0.000264	2.635220	0.892837	0.000105
 255	2.5273e+01	10.1259	26.838878	0.000345	3.446057	1.167556	0.000138
 256	2.5372e+01	10.1612	27.016512	0.000446	4.459603	1.510954	0.000179
 257	2.5472e+01	10.1949	27.129552	0.000284	2.837929	0.961516	0.000114
 258	2.5572e+01	10.2414	27.210295	0.000203	2.027092	0.686797	0.000081
 259	2.5671e+01	10.2767	27.363706	0.000385	3.851475	1.304915	0.000154
 260	2.5770e+01	10.3152	27.496932	0.000334	3.344702	1.133216	0.000134
 261	2.5870e+01	10.3553	27.585748	0.000223	2.229802	0.755477	0.000089
 262	2.5970e+01	10.3906	27.763382	0.000446	4.459603	1.510954	0.000179
 263	2.6069e+01	10.4339	27.819902	0.000142	1.418965	0.480758	0.000057
 264	2.6169e+01	10.4788	27.969276	0.000375	3.750121	1.270575	0.000150
 265	2.6268e+01	10.5238	28.118650	0.000375	3.750121	1.270575	0.000150
 266	2.6367e+01	10.5639	28.251876	0.000334	3.344702	1.133216	0.000134
 267	2.6467e+01	10.5895	28.372990	0.000304	3.040638	1.030196	0.000122
 268	2.6567e+01	10.6280	28.498141	0.000314	3.141993	1.064536	0.000126
 269	2.6666e+01	10.6714	28.590995	0.000233	2.331156	0.789817	0.000093
 270	2.6765e+01	10.7211	28.744406	0.000385	3.851475	1.304915	0.000154
 271	2.6865e+01	10.7468	28.857446	0.000284	2.837929	0.961516	0.000114
 272	2.6965e+01	10.7901	28.998746	0.000355	3.547412	1.201896	0.000142
 273	2.7064e+01	10.8398	29.127934	0.000324	3.243348	1.098876	0.000130
 274	2.7163e+01	10.8783	29.253086	0.000314	3.141993	1.064536	0.000126
 275	2.7263e+01	10.9216	29.370162	0.000294	2.939284	0.995856	0.000118
 276	2.7363e+01	10.9553	29.511462	0.000355	3.547412	1.201896	0.000142
 277	2.7462e+01	10.9826	29.644688	0.000334	3.344702	1.133216	0.000134
 278	2.7561e+01	11.0371	29.757728	0.000284	2.837929	0.961516	0.000114
 279	2.7661e+01	11.0740	29.866730	0.000274	2.736575	0.927177	0.000110
 280	2.7761e+01	11.1125	30.008030	0.000355	3.547412	1.201896	0.000142
 281	2.7860e+01	11.1606	30.173553	0.000416	4.155539	1.407935	0.000166
 282	2.7959e+01	11.1991	30.234110	0.000152	1.520319	0.515098	0.000061
 283	2.8059e+01	11.2377	30.363298	0.000324	3.243348	1.098876	0.000130
 284	2.8159e+01	11.2810	30.484412	0.000304	3.040638	1.030196	0.000122
 285	2.8258e+01	11.3114	30.609563	0.000314	3.141993	1.064536	0.000126
 286	2.8358e+01	11.3532	30.734714	0.000314	3.141993	1.064536	0.000126
 287	2.8457e+01	11.3884	30.867940	0.000334	3.344702	1.133216	0.000134
 288	2.8556e+01	11.4334	30.968868	0.000253	2.533865	0.858497	0.000101
 289	2.8656e+01	11.4863	31.094019	0.000314	3.141993	1.064536	0.000126
 290	2.8756e+01	11.5104	31.219171	0.000314	3.141993	1.064536	0.000126
 291	2.8855e+01	11.5585	31.344322	0.000314	3.141993	1.064536	0.000126
 292	2.8954e+01	11.5938	31.453325	0.000274	2.736575	0.927177	0.000110
 293	2.9054e+01	11.6307	31.562327	0.000274	2.736575	0.927177	0.000110
 294	2.9154e+01	11.6692	31.723813	0.000405	4.054185	1.373595	0.000162
 295	2.9253e+01	11.7125	31.828778	0.000264	2.635220	0.892837	0.000105
 296	2.9352e+01	11.7510	31.945855	0.000294	2.939284	0.995856	0.000118
 297	2.9452e+01	11.7831	32.034672	0.000223	2.229802	0.755477	0.000089
 298	2.9552e+01	11.8248	32.224417	0.000476	4.763667	1.613974	0.000191
 299	2.9651e+01	11.8729	32.365717	0.000355	3.547412	1.201896	0.000142
 300	2.9750e+01	11.9114	32.454534	0.000223	2.229802	0.755477	0.000089
 301	2.9850e+01	11.9435	32.531240	0.000193	1.925738	0.652458	0.000077
 302	2.9950e+01	11.9868	32.712911	0.000456	4.560958	1.545294	0.000183
 303	3.0049e+01	12.0317	32.829988	0.000294	2.939284	0.995856	0.000118
 304	3.0148e+01	12.0719	32.914768	0.000213	2.128447	0.721137	0.000085
 305	3.0248e+01	12.1039	33.084327	0.000426	4.256894	1.442275	0.000170
 306	3.0348e+01	12.1601	33.169107	0.000213	2.128447	0.721137	0.000085
 307	3.0447e+01	12.1906	33.326556	0.000395	3.952830	1.339255	0.000158
 308	3.0547e+01	12.2275	33.451707	0.000314	3.141993	1.064536	0.000126
 309	3.0646e+01	12.2676	33.593006	0.000355	3.547412	1.201896	0.000142
 310	3.0745e+01	12.3157	33.693935	0.000253	2.533865	0.858497	0.000101
 311	3.0845e+01	12.3558	33.786789	0.000233	2.331156	0.789817	0.000093
 312	3.0945e+01	12.3847	33.920014	0.000334	3.344702	1.133216	0.000134
 313	3.1044e+01	12.4264	34.033054	0.000284	2.837929	0.961516	0.000114
 314	3.1143e+01	12.4681	34.182428	0.000375	3.750121	1.270575	0.000150
 315	3.1243e+01	12.5082	34.275282	0.000233	2.331156	0.789817	0.000093
 316	3.1343e+01	12.5547	34.440805	0.000416	4.155539	1.407935	0.000166
 317	3.1442e+01	12.5900	34.541733	0.000253	2.533865	0.858497	0.000101
 318	3.1541e+01	12.6253	34.654773	0.000284	2.837929	0.961516	0.000114
 319	3.1641e+01	12.6638	34.751664	0.000243	2.432511	0.824157	0.000097
 320	3.1741e+01	12.7119	34.905076	0.000385	3.851475	1.304915	0.000154
 321	3.1840e+01	12.7520	35.014078	0.000274	2.736575	0.927177	0.000110
 322	3.1939e+01	12.7954	35.147304	0.000334	3.344702	1.133216	0.000134
 323	3.2039e+01	12.8387	35.236121	0.000223	2.229802	0.755477	0.000089
 324	3.2139e+01	12.8692	35.357235	0.000304	3.040638	1.030196	0.000122
 325	3.2238e+01	12.9125	35.486423	0.000324	3.243348	1.098876	0.000130
 326	3.2337e+01	12.9526	35.599463	0.000284	2.837929	0.961516	0.000114
 327	3.2437e+01	12.9831	35.688280	0.000223	2.229802	0.755477	0.000089
 328	3.2536e+01	13.0264	35.829580	0.000355	3.547412	1.201896	0.000142
 329	3.2636e+01	13.0585	35.966842	0.000345	3.446057	1.167556	0.000138
 330	3.2736e+01	13.1082	36.043548	0.000193	1.925738	0.652458	0.000077
 331	3.2835e+01	13.1451	36.200996	0.000395	3.952830	1.339255	0.000158
 332	3.2934e+01	13.1788	36.309999	0.000274	2.736575	0.927177	0.000110
 333	3.3034e+01	13.2173	36.427076	0.000294	2.939284	0.995856	0.000118
 334	3.3133e+01	13.2654	36.560301	0.000334	3.344702	1.133216	0.000134
 335	3.3233e+01	13.3023	36.689490	0.000324	3.243348	1.098876	0.000130
 336	3.3333e+01	13.3408	36.790418	0.000253	2.533865	0.858497	0.000101
 337	3.3432e+01	13.3809	36.923643	0.000334	3.344702	1.133216	0.000134
 338	3.3532e+01	13.4226	37.028609	0.000264	2.635220	0.892837	0.000105
 339	3.3631e+01	13.4611	37.153760	0.000314	3.141993	1.064536	0.000126
 340	3.3730e+01	13.4980	37.282949	0.000324	3.243348	1.098876	0.000130
 341	3.3830e+01	13.5349	37.387914	0.000264	2.635220	0.892837	0.000105
 342	3.3929e+01	13.5895	37.500954	0.000284	2.837929	0.961516	0.000114
 343	3.4029e+01	13.6183	37.597845	0.000243	2.432511	0.824157	0.000097
 344	3.4129e+01	13.6697	37.714922	0.000294	2.939284	0.995856	0.000118
 345	3.4228e+01	13.6985	37.844110	0.000324	3.243348	1.098876	0.000130
 346	3.4328e+01	13.7451	37.981373	0.000345	3.446057	1.167556	0.000138
 347	3.4427e+01	13.7820	38.066153	0.000213	2.128447	0.721137	0.000085
 348	3.4526e+01	13.8237	38.199378	0.000334	3.344702	1.133216	0.000134
 349	3.4626e+01	13.8654	38.320492	0.000304	3.040638	1.030196	0.000122
 350	3.4725e+01	13.9055	38.429495	0.000274	2.736575	0.927177	0.000110
 351	3.4825e+01	13.9440	38.542535	0.000284	2.837929	0.961516	0.000114
 352	3.4925e+01	13.9841	38.683835	0.000355	3.547412	1.201896	0.000142
 353	3.5024e+01	14.0242	38.752466	0.000172	1.723028	0.583778	0.000069
 354	3.5123e+01	14.0755	38.889729	0.000345	3.446057	1.167556	0.000138
 355	3.5223e+01	14.0964	39.014880	0.000314	3.141993	1.064536	0.000126
 356	3.5322e+01	14.1381	39.135994	0.000304	3.040638	1.030196	0.000122
 357	3.5422e+01	14.1830	39.204625	0.000172	1.723028	0.583778	0.000069
 358	3.5522e+01	14.2183	39.349962	0.000365	3.648766	1.236235	0.000146
 359	3.5621e+01	14.2664	39.454928	0.000264	2.635220	0.892837	0.000105
 360	3.5721e+01	14.2985	39.596227	0.000355	3.547412	1.201896	0.000142
 361	3.5820e+01	14.3434	39.697156	0.000253	2.533865	0.858497	0.000101
 362	3.5919e+01	14.3739	39.818270	0.000304	3.040638	1.030196	0.000122
 363	3.6019e+01	14.4140	39.894975	0.000193	1.925738	0.652458	0.000077
 364	3.6118e+01	14.4557	40.040312	0.000365	3.648766	1.236235	0.000146
 365	3.6218e+01	14.5055	40.149315	0.000274	2.736575	0.927177	0.000110
 366	3.6318e+01	14.5295	40.294652	0.000365	3.648766	1.236235	0.000146
 367	3.6417e+01	14.5729	40.375395	0.000203	2.027092	0.686797	0.000081
 368	3.6517e+01	14.6258	40.520731	0.000365	3.648766	1.236235	0.000146
 369	3.6616e+01	14.6675	40.625697	0.000264	2.635220	0.892837	0.000105
 370	3.6715e+01	14.6964	40.702403	0.000193	1.925738	0.652458	0.000077
 371	3.6815e+01	14.7317	40.859851	0.000395	3.952830	1.339255	0.000158
 372	3.6914e+01	14.7846	40.993076	0.000334	3.344702	1.133216	0.000134
 373	3.7014e+01	14.8247	41.118227	0.000314	3.141993	1.064536	0.000126
 374	3.7114e+01	14.8616	41.194933	0.000193	1.925738	0.652458	0.000077
 375	3.7213e+01	14.8953	41.332196	0.000345	3.446057	1.167556	0.000138
 376	3.7313e+01	14.9338	41.429087	0.000243	2.432511	0.824157	0.000097
 377	3.7412e+01	14.9819	41.550201	0.000304	3.040638	1.030196	0.000122
 378	3.7511e+01	15.0156	41.711686	0.000405	4.054185	1.373595	0.000162
 379	3.7611e+01	15.0525	41.784355	0.000182	1.824383	0.618118	0.000073
 380	3.7711e+01	15.0990	41.893358	0.000274	2.736575	0.927177	0.000110
 381	3.7810e+01	15.1311	41.990249	0.000243	2.432511	0.824157	0.000097
 382	3.7910e+01	15.1809	42.119437	0.000324	3.243348	1.098876	0.000130
 383	3.8009e+01	15.2081	42.224403	0.000264	2.635220	0.892837	0.000105
 384	3.8108e+01	15.2579	42.349554	0.000314	3.141993	1.064536	0.000126
 385	3.8208e+01	15.3012	42.454519	0.000264	2.635220	0.892837	0.000105
 386	3.8307e+01	15.3445	42.543336	0.000223	2.229802	0.755477	0.000089
 387	3.8407e+01	15.3718	42.720970	0.000446	4.459603	1.510954	0.000179
 388	3.8507e+01	15.4151	42.821899	0.000253	2.533865	0.858497	0.000101
 389	3.8606e+01	15.4584	42.947050	0.000314	3.141993	1.064536	0.000126
 390	3.8706e+01	15.5033	43.031830	0.000213	2.128447	0.721137	0.000085
 391	3.8805e+01	15.5354	43.169092	0.000345	3.446057	1.167556	0.000138
 392	3.8904e+01	15.5707	43.278095	0.000274	2.736575	0.927177	0.000110
 393	3.9004e+01	15.6124	43.374986	0.000243	2.432511	0.824157	0.000097
 394	3.9103e+01	15.6573	43.540509	0.000416	4.155539	1.407935	0.000166
 395	3.9203e+01	15.6894	43.617215	0.000193	1.925738	0.652458	0.000077
 396	3.9303e+01	15.7375	43.738329	0.000304	3.040638	1.030196	0.000122
 397	3.9402e+01	15.7744	43.871554	0.000334	3.344702	1.133216	0.000134
 398	3.9502e+01	15.8193	43.936148	0.000162	1.621674	0.549438	0.000065
 399	3.9601e+01	15.8562	44.093597	0.000395	3.952830	1.339255	0.000158
 400	3.9700e+01	15.8915	44.206636	0.000284	2.837929	0.961516	0.000114
 401	3.9800e+01	15.9300	44.319676	0.000284	2.837929	0.961516	0.000114
 402	3.9900e+01	15.9637	44.477124	0.000395	3.952830	1.339255	0.000158
 403	3.9999e+01	16.0151	44.574016	0.000243	2.432511	0.824157	0.000097
 404	4.0099e+01	16.0455	44.670907	0.000243	2.432511	0.824157	0.000097
 405	4.0198e+01	16.0953	44.820281	0.000375	3.750121	1.270575	0.000150
 406	4.0297e+01	16.1370	44.921209	0.000253	2.533865	0.858497	0.000101
 407	4.0397e+01	16.1691	45.038286	0.000294	2.939284	0.995856	0.000118
 408	4.0496e+01	16.2140	45.171512	0.000334	3.344702	1.133216	0.000134
 409	4.0596e+01	16.2461	45.264366	0.000233	2.331156	0.789817	0.000093
 410	4.0696e+01	16.2926	45.393554	0.000324	3.243348	1.098876	0.000130
 411	4.0795e+01	16.3231	45.494483	0.000253	2.533865	0.858497	0.000101
 412	4.0895e+01	16.3696	45.639820	0.000365	3.648766	1.236235	0.000146
 413	4.0994e+01	16.4129	45.752859	0.000284	2.837929	0.961516	0.000114
 414	4.1093e+01	16.4434	45.857825	0.000264	2.635220	0.892837	0.000105
 415	4.1193e+01	16.4883	45.995087	0.000345	3.446057	1.167556	0.000138
 416	4.1292e+01	16.5252	46.116202	0.000304	3.040638	1.030196	0.000122
 417	4.1392e+01	16.5717	46.229241	0.000284	2.837929	0.961516	0.000114
 418	4.1492e+01	16.6086	46.350355	0.000304	3.040638	1.030196	0.000122
 419	4.1591e+01	16.6503	46.471469	0.000304	3.040638	1.030196	0.000122
 420	4.1691e+01	16.6953	46.588546	0.000294	2.939284	0.995856	0.000118
 421	4.1790e+01	16.7386	46.717735	0.000324	3.243348	1.098876	0.000130
 422	4.1889e+01	16.7739	46.834812	0.000294	2.939284	0.995856	0.000118
 423	4.1989e+01	16.8140	46.939777	0.000264	2.635220	0.892837	0.000105
 424	4.2089e+01	16.8444	47.085114	0.000365	3.648766	1.236235	0.000146
 425	4.2188e+01	16.8862	47.145671	0.000152	1.520319	0.515098	0.000061
 426	4.2288e+01	16.9375	47.266785	0.000304	3.040638	1.030196	0.000122
 427	4.2387e+01	16.9696	47.387899	0.000304	3.040638	1.030196	0.000122
 428	4.2486e+01	17.0065	47.541310	0.000385	3.851475	1.304915	0.000154
 429	4.2586e+01	17.0434	47.658387	0.000294	2.939284	0.995856	0.000118
 430	4.2685e+01	17.0915	47.787576	0.000324	3.243348	1.098876	0.000130
 431	4.2785e+01	17.1284	47.904653	0.000294	2.939284	0.995856	0.000118
 432	4.2885e+01	17.1733	48.029804	0.000314	3.141993	1.064536	0.000126
 433	4.2984e+01	17.2134	48.086324	0.000142	1.418965	0.480758	0.000057
 434	4.3084e+01	17.2471	48.267995	0.000456	4.560958	1.545294	0.000183
 435	4.3183e+01	17.2904	48.372960	0.000264	2.635220	0.892837	0.000105
 436	4.3282e+01	17.3273	48.498112	0.000314	3.141993	1.064536	0.000126
 437	4.3382e+01	17.3690	48.611151	0.000284	2.837929	0.961516	0.000114
 438	4.3481e+01	17.4172	48.780711	0.000426	4.256894	1.442275	0.000170
 439	4.3581e+01	17.4492	48.853380	0.000182	1.824383	0.618118	0.000073
 440	4.3681e+01	17.4829	48.994679	0.000355	3.547412	1.201896	0.000142
 441	4.3780e+01	17.5214	49.111756	0.000294	2.939284	0.995856	0.000118
 442	4.3880e+01	17.5615	49.216722	0.000264	2.635220	0.892837	0.000105
 443	4.3979e+01	17.6097	49.366096	0.000375	3.750121	1.270575	0.000150
 444	4.4078e+01	17.6369	49.450876	0.000213	2.128447	0.721137	0.000085
 445	4.4178e+01	17.6899	49.596213	0.000365	3.648766	1.236235	0.000146
 446	4.4278e+01	17.7236	49.689067	0.000233	2.331156	0.789817	0.000093
 447	4.4377e+01	17.7637	49.858626	0.000426	4.256894	1.442275	0.000170
 448	4.4477e+01	17.8118	49.975703	0.000294	2.939284	0.995856	0.000118
 449	4.4576e+01	17.8455	50.080669	0.000264	2.635220	0.892837	0.000105
 450	4.4675e+01	17.8824	50.201783	0.000304	3.040638	1.030196	0.000122
 451	4.4775e+01	17.9257	50.302711	0.000253	2.533865	0.858497	0.000101
 452	4.4874e+01	17.9610	50.435937	0.000334	3.344702	1.133216	0.000134
 453	4.4974e+01	18.0123	50.557051	0.000304	3.040638	1.030196	0.000122
 454	4.5074e+01	18.0412	50.657979	0.000253	2.533865	0.858497	0.000101
 455	4.5173e+01	18.0893	50.758908	0.000253	2.533865	0.858497	0.000101
 456	4.5273e+01	18.1102	50.900207	0.000355	3.547412	1.201896	0.000142
 457	4.5372e+01	18.1679	51.065730	0.000416	4.155539	1.407935	0.000166
 458	4.5471e+01	18.2096	51.126287	0.000152	1.520319	0.515098	0.000061
 459	4.5571e+01	18.2369	51.247401	0.000304	3.040638	1.030196	0.000122
 460	4.5670e+01	18.2834	51.360441	0.000284	2.837929	0.961516	0.000114
 461	4.5770e+01	18.3252	51.461369	0.000253	2.533865	0.858497	0.000101
 462	4.5870e+01	18.3717	51.610743	0.000375	3.750121	1.270575	0.000150
 463	4.5969e+01	18.4006	51.723783	0.000284	2.837929	0.961516	0.000114
 464	4.6069e+01	18.4503	51.877194	0.000385	3.851475	1.304915	0.000154
 465	4.6168e+01	18.4824	51.966011	0.000223	2.229802	0.755477	0.000089
 466	4.6267e+01	18.5337	52.123460	0.000395	3.952830	1.339255	0.000158
 467	4.6367e+01	18.5674	52.232462	0.000274	2.736575	0.927177	0.000110
 468	4.6467e+01	18.5995	52.301093	0.000172	1.723028	0.583778	0.000069
 469	4.6566e+01	18.6460	52.446430	0.000365	3.648766	1.236235	0.000146
 470	4.6666e+01	18.6861	52.579656	0.000334	3.344702	1.133216	0.000134
 471	4.6765e+01	18.7294	52.696733	0.000294	2.939284	0.995856	0.000118
 472	4.6864e+01	18.7615	52.825921	0.000324	3.243348	1.098876	0.000130
 473	4.6964e+01	18.8016	52.930887	0.000264	2.635220	0.892837	0.000105
 474	4.7063e+01	18.8385	53.060075	0.000324	3.243348	1.098876	0.000130
 475	4.7163e+01	18.8786	53.165041	0.000264	2.635220	0.892837	0.000105
 476	4.7263e+01	18.9203	53.278080	0.000284	2.837929	0.961516	0.000114
 477	4.7362e+01	18.9492	53.411306	0.000334	3.344702	1.133216	0.000134
 478	4.7462e+01	19.0021	53.544531	0.000334	3.344702	1.133216	0.000134
 479	4.7561e+01	19.0422	53.693905	0.000375	3.750121	1.270575	0.000150
 480	4.7660e+01	19.0920	53.806945	0.000284	2.837929	0.961516	0.000114
 481	4.7760e+01	19.1128	53.879614	0.000182	1.824383	0.618118	0.000073
 482	4.7859e+01	19.1561	54.057248	0.000446	4.459603	1.510954	0.000179
 483	4.7959e+01	19.2107	54.150102	0.000233	2.331156	0.789817	0.000093
 484	4.8059e+01	19.2331	54.242956	0.000233	2.331156	0.789817	0.000093
 485	4.8158e+01	19.2781	54.360033	0.000294	2.939284	0.995856	0.000118
 486	4.8258e+01	19.3182	54.501332	0.000355	3.547412	1.201896	0.000142
 487	4.8357e+01	19.3615	54.610335	0.000274	2.736575	0.927177	0.000110
 488	4.8456e+01	19.4032	54.711264	0.000253	2.533865	0.858497	0.000101
 489	4.8556e+01	19.4401	54.832378	0.000304	3.040638	1.030196	0.000122
 490	4.8656e+01	19.4786	54.917157	0.000213	2.128447	0.721137	0.000085
 491	4.8755e+01	19.5139	55.070569	0.000385	3.851475	1.304915	0.000154
 492	4.8855e+01	19.5524	55.143237	0.000182	1.824383	0.618118	0.000073
 493	4.8954e+01	19.6021	55.272425	0.000324	3.243348	1.098876	0.000130
 494	4.9053e+01	19.6422	55.397577	0.000314	3.141993	1.064536	0.000126
 495	4.9153e+01	19.6839	55.538876	0.000355	3.547412	1.201896	0.000142
 496	4.9252e+01	19.7128	55.639805	0.000253	2.533865	0.858497	0.000101
 497	4.9352e+01	19.7513	55.732659	0.000233	2.331156	0.789817	0.000093
 498	4.9452e+01	19.7930	55.865884	0.000334	3.344702	1.133216	0.000134
 499	4.9551e+01	19.8315	56.023333	0.000395	3.952830	1.339255	0.000158
 500	4.9651e+01	19.8764	56.079853	0.000142	1.418965	0.480758	0.000057
 501	4.9750e+01	19.9133	56.200967	0.000304	3.040638	1.030196	0.000122
 502	4.9849e+01	19.9615	56.326118	0.000314	3.141993	1.064536	0.000126
 503	4.9949e+01	19.9919	56.443195	0.000294	2.939284	0.995856	0.000118
 504	5.0048e+01	19.9567	56.338229	0.000264	2.635220	0.892837	-0.000105
 505	5.0148e+01	19.9133	56.245375	0.000233	2.331156	0.789817	-0.000093
 506	5.0248e+01	19.8845	56.152521	0.000233	2.331156	0.789817	-0.000093
 507	5.0347e+01	19.8299	56.071778	0.000203	2.027092	0.686797	-0.000081
 508	5.0447e+01	19.7962	55.938553	0.000334	3.344702	1.133216	-0.000134
 509	5.0546e+01	19.7481	55.869921	0.000172	1.723028	0.583778	-0.000069
 510	5.0645e+01	19.7192	55.764956	0.000264	2.635220	0.892837	-0.000105
 511	5.0745e+01	19.6775	55.712473	0.000132	1.317610	0.446418	-0.000053
 512	5.0844e+01	19.6358	55.583285	0.000324	3.243348	1.098876	-0.000130
 513	5.0944e+01	19.5989	55.502542	0.000203	2.027092	0.686797	-0.000081
 514	5.1044e+01	19.5572	55.365280	0.000345	3.446057	1.167556	-0.000138
 515	5.1143e+01	19.5139	55.260314	0.000264	2.635220	0.892837	-0.000105
 516	5.1242e+01	19.4722	55.147274	0.000284	2.837929	0.961516	-0.000114
 517	5.1342e+01	19.4401	55.082680	0.000162	1.621674	0.549438	-0.000065
 518	5.1441e+01	19.3904	54.973677	0.000274	2.736575	0.927177	-0.000110
 519	5.1541e+01	19.3631	54.860638	0.000284	2.837929	0.961516	-0.000114
 520	5.1641e+01	19.3198	54.743561	0.000294	2.939284	0.995856	-0.000118
 521	5.1740e+01	19.2829	54.630521	0.000284	2.837929	0.961516	-0.000114
 522	5.1840e+01	19.2364	54.553815	0.000193	1.925738	0.652458	-0.000077
 523	5.1939e+01	19.1930	54.452887	0.000253	2.533865	0.858497	-0.000101
 524	5.2038e+01	19.1610	54.335810	0.000294	2.939284	0.995856	-0.000118
 525	5.2138e+01	19.1225	54.242956	0.000233	2.331156	0.789817	-0.000093
 526	5.2237e+01	19.0823	54.150102	0.000233	2.331156	0.789817	-0.000093
 527	5.2337e+01	19.0390	54.041099	0.000274	2.736575	0.927177	-0.000110
 528	5.2437e+01	19.0037	53.859428	0.000456	4.560958	1.545294	-0.000183
 529	5.2536e+01	18.9492	53.810982	0.000122	1.216255	0.412078	-0.000049
 530	5.2636e+01	18.9219	53.701980	0.000274	2.736575	0.927177	-0.000110
 531	5.2735e+01	18.8818	53.613163	0.000223	2.229802	0.755477	-0.000089
 532	5.2834e+01	18.8465	53.524346	0.000223	2.229802	0.755477	-0.000089
 533	5.2934e+01	18.7952	53.407269	0.000294	2.939284	0.995856	-0.000118
 534	5.3033e+01	18.7647	53.294229	0.000284	2.837929	0.961516	-0.000114
 535	5.3133e+01	18.7262	53.169078	0.000314	3.141993	1.064536	-0.000126
 536	5.3233e+01	18.6813	53.056038	0.000284	2.837929	0.961516	-0.000114
 537	5.3332e+01	18.6412	52.963184	0.000233	2.331156	0.789817	-0.000093
 538	5.3431e+01	18.6011	52.874367	0.000223	2.229802	0.755477	-0.000089
 539	5.3531e+01	18.5674	52.801698	0.000182	1.824383	0.618118	-0.000073
 540	5.3630e+01	18.5321	52.676547	0.000314	3.141993	1.064536	-0.000126
 541	5.3730e+01	18.4792	52.559470	0.000294	2.939284	0.995856	-0.000118
 542	5.3830e+01	18.4423	52.442393	0.000294	2.939284	0.995856	-0.000118
 543	5.3929e+01	18.4118	52.333391	0.000274	2.736575	0.927177	-0.000110
 544	5.4029e+01	18.3620	52.228425	0.000264	2.635220	0.892837	-0.000105
 545	5.4128e+01	18.3316	52.147682	0.000203	2.027092	0.686797	-0.000081
 546	5.4227e+01	18.2786	52.046754	0.000253	2.533865	0.858497	-0.000101
 547	5.4327e+01	18.2465	51.917566	0.000324	3.243348	1.098876	-0.000130
 548	5.4426e+01	18.2113	51.800489	0.000294	2.939284	0.995856	-0.000118
 549	5.4526e+01	18.1744	51.707635	0.000233	2.331156	0.789817	-0.000093
 550	5.4626e+01	18.1198	51.598632	0.000274	2.736575	0.927177	-0.000110
 551	5.4725e+01	18.0829	51.481555	0.000294	2.939284	0.995856	-0.000118
 552	5.4825e+01	18.0492	51.392738	0.000223	2.229802	0.755477	-0.000089
 553	5.4924e+01	18.0059	51.279698	0.000284	2.837929	0.961516	-0.000114
 554	5.5023e+01	17.9738	51.154547	0.000314	3.141993	1.064536	-0.000126
 555	5.5123e+01	17.9289	51.033433	0.000304	3.040638	1.030196	-0.000122
 556	5.5222e+01	17.8776	50.944616	0.000223	2.229802	0.755477	-0.000089
 557	5.5322e+01	17.8551	50.847725	0.000243	2.432511	0.824157	-0.000097
 558	5.5422e+01	17.8038	50.750833	0.000243	2.432511	0.824157	-0.000097
 559	5.5521e+01	17.7733	50.629719	0.000304	3.040638	1.030196	-0.000122
 560	5.5620e+01	17.7284	50.528791	0.000253	2.533865	0.858497	-0.000101
 561	5.5720e+01	17.6931	50.383454	0.000365	3.648766	1.236235	-0.000146
 562	5.5819e+01	17.6482	50.290600	0.000233	2.331156	0.789817	-0.000093
 563	5.5919e+01	17.6081	50.217931	0.000182	1.824383	0.618118	-0.000073
 564	5.6019e+01	17.5615	50.044335	0.000436	4.358248	1.476615	-0.000174
 565	5.6118e+01	17.5343	49.971666	0.000182	1.824383	0.618118	-0.000073
 566	5.6218e+01	17.4877	49.886886	0.000213	2.128447	0.721137	-0.000085
 567	5.6317e+01	17.4396	49.753661	0.000334	3.344702	1.133216	-0.000134
 568	5.6416e+01	17.4011	49.640621	0.000284	2.837929	0.961516	-0.000114
 569	5.6516e+01	17.3722	49.555841	0.000213	2.128447	0.721137	-0.000085
 570	5.6615e+01	17.3305	49.410504	0.000365	3.648766	1.236235	-0.000146
 571	5.6715e+01	17.2824	49.317650	0.000233	2.331156	0.789817	-0.000093
 572	5.6815e+01	17.2583	49.224796	0.000233	2.331156	0.789817	-0.000093
 573	5.6914e+01	17.2006	49.071385	0.000385	3.851475	1.304915	-0.000154
 574	5.7014e+01	17.1637	49.055236	0.000041	0.405418	0.137359	-0.000016
 575	5.7113e+01	17.1284	48.926048	0.000324	3.243348	1.098876	-0.000130
 576	5.7212e+01	17.0803	48.788785	0.000345	3.446057	1.167556	-0.000138
 577	5.7312e+01	17.0466	48.716117	0.000182	1.824383	0.618118	-0.000073
 578	5.7411e+01	17.0081	48.582891	0.000334	3.344702	1.133216	-0.000134
 579	5.7511e+01	16.9567	48.469852	0.000284	2.837929	0.961516	-0.000114
 580	5.7611e+01	16.9263	48.348738	0.000304	3.040638	1.030196	-0.000122
 581	5.7710e+01	16.8829	48.239735	0.000274	2.736575	0.927177	-0.000110
 582	5.7809e+01	16.8557	48.130732	0.000274	2.736575	0.927177	-0.000110
 583	5.7909e+01	16.8075	48.066138	0.000162	1.621674	0.549438	-0.000065
 584	5.8008e+01	16.7739	47.936950	0.000324	3.243348	1.098876	-0.000130
 585	5.8108e+01	16.7305	47.840058	0.000243	2.432511	0.824157	-0.000097
 586	5.8208e+01	16.6904	47.747204	0.000233	2.331156	0.789817	-0.000093
 587	5.8307e+01	16.6487	47.650313	0.000243	2.432511	0.824157	-0.000097
 588	5.8407e+01	16.6199	47.513051	0.000345	3.446057	1.167556	-0.000138
 589	5.8506e+01	16.5733	47.416159	0.000243	2.432511	0.824157	-0.000097
 590	5.8605e+01	16.5252	47.270822	0.000365	3.648766	1.236235	-0.000146
 591	5.8705e+01	16.4851	47.206228	0.000162	1.621674	0.549438	-0.000065
 592	5.8804e+01	16.4450	47.137597	0.000172	1.723028	0.583778	-0.000069
 593	5.8904e+01	16.4097	46.992260	0.000365	3.648766	1.236235	-0.000146
 594	5.9004e+01	16.3792	46.854997	0.000345	3.446057	1.167556	-0.000138
 595	5.9103e+01	16.3295	46.802515	0.000132	1.317610	0.446418	-0.000053
 596	5.9203e+01	16.2862	46.709660	0.000233	2.331156	0.789817	-0.000093
 597	5.9302e+01	16.2573	46.556249	0.000385	3.851475	1.304915	-0.000154
 598	5.9401e+01	16.2124	46.439172	0.000294	2.939284	0.995856	-0.000118
 599	5.9501e+01	16.1675	46.350355	0.000223	2.229802	0.755477	-0.000089
 600	5.9600e+01	16.1241	46.229241	0.000304	3.040638	1.030196	-0.000122
 601	5.9700e+01	16.0969	46.140424	0.000223	2.229802	0.755477	-0.000089
 602	5.9800e+01	16.0487	46.035459	0.000264	2.635220	0.892837	-0.000105
 603	5.9899e+01	16.0118	45.934530	0.000253	2.533865	0.858497	-0.000101
 604	5.9998e+01	15.9685	45.837639	0.000243	2.432511	0.824157	-0.000097
 605	6.0098e+01	15.9284	45.724599	0.000284	2.837929	0.961516	-0.000114
 606	6.0197e+01	15.8835	45.615597	0.000274	2.736575	0.927177	-0.000110
 607	6.0297e+01	15.8594	45.510631	0.000264	2.635220	0.892837	-0.000105
 608	6.0397e+01	15.8177	45.397591	0.000284	2.837929	0.961516	-0.000114
 609	6.0496e+01	15.7712	45.312812	0.000213	2.128447	0.721137	-0.000085
 610	6.0596e+01	15.7391	45.183623	0.000324	3.243348	1.098876	-0.000130
 611	6.0695e+01	15.6926	45.102880	0.000203	2.027092	0.686797	-0.000081
 612	6.0794e+01	15.6557	45.010026	0.000233	2.331156	0.789817	-0.000093
 613	6.0894e+01	15.6076	44.864689	0.000365	3.648766	1.236235	-0.000146
 614	6.0993e+01	15.5835	44.775872	0.000223	2.229802	0.755477	-0.000089
 615	6.1093e+01	15.5402	44.654758	0.000304	3.040638	1.030196	-0.000122
 616	6.1193e+01	15.4905	44.569979	0.000213	2.128447	0.721137	-0.000085
 617	6.1292e+01	15.4504	44.428679	0.000355	3.547412	1.201896	-0.000142
 618	6.1392e+01	15.4199	44.339862	0.000223	2.229802	0.755477	-0.000089
 619	6.1491e+01	15.3798	44.214711	0.000314	3.141993	1.064536	-0.000126
 620	6.1590e+01	15.3413	44.121856	0.000233	2.331156	0.789817	-0.000093
 621	6.1690e+01	15.2964	44.033039	0.000223	2.229802	0.755477	-0.000089
 622	6.1789e+01	15.2530	43.920000	0.000284	2.837929	0.961516	-0.000114
 623	6.1889e+01	15.2226	43.815034	0.000264	2.635220	0.892837	-0.000105
 624	6.1989e+01	15.1825	43.673734	0.000355	3.547412	1.201896	-0.000142
 625	6.2088e+01	15.1391	43.532435	0.000355	3.547412	1.201896	-0.000142
 626	6.2188e+01	15.0974	43.443618	0.000223	2.229802	0.755477	-0.000089
 627	6.2287e+01	15.0589	43.350764	0.000233	2.331156	0.789817	-0.000093
 628	6.2386e+01	15.0204	43.201390	0.000375	3.750121	1.270575	-0.000150
 629	6.2486e+01	14.9723	43.169092	0.000081	0.810837	0.274719	-0.000032
 630	6.2586e+01	14.9338	43.047978	0.000304	3.040638	1.030196	-0.000122
 631	6.2685e+01	14.8921	42.922827	0.000314	3.141993	1.064536	-0.000126
 632	6.2785e+01	14.8584	42.793639	0.000324	3.243348	1.098876	-0.000130
 633	6.2884e+01	14.8135	42.725008	0.000172	1.723028	0.583778	-0.000069
 634	6.2983e+01	14.7910	42.644265	0.000203	2.027092	0.686797	-0.000081
 635	6.3083e+01	14.7333	42.478742	0.000416	4.155539	1.407935	-0.000166
 636	6.3182e+01	14.7028	42.361665	0.000294	2.939284	0.995856	-0.000118
 637	6.3282e+01	14.6531	42.284960	0.000193	1.925738	0.652458	-0.000077
 638	6.3382e+01	14.6226	42.155771	0.000324	3.243348	1.098876	-0.000130
 639	6.3481e+01	14.5680	42.022546	0.000334	3.344702	1.133216	-0.000134
 640	6.3581e+01	14.5488	41.937766	0.000213	2.128447	0.721137	-0.000085
 641	6.3680e+01	14.4942	41.836838	0.000253	2.533865	0.858497	-0.000101
 642	6.3779e+01	14.4622	41.723798	0.000284	2.837929	0.961516	-0.000114
 643	6.3879e+01	14.4221	41.643055	0.000203	2.027092	0.686797	-0.000081
 644	6.3978e+01	14.3739	41.493681	0.000375	3.750121	1.270575	-0.000150
 645	6.4078e+01	14.3370	41.396790	0.000243	2.432511	0.824157	-0.000097
 646	6.4177e+01	14.2953	41.275676	0.000304	3.040638	1.030196	-0.000122
 647	6.4277e+01	14.2616	41.235304	0.000101	1.013546	0.343399	-0.000041
 648	6.4376e+01	14.2151	41.065745	0.000426	4.256894	1.442275	-0.000170
 649	6.4476e+01	14.1766	40.952705	0.000284	2.837929	0.961516	-0.000114
 650	6.4576e+01	14.1493	40.855814	0.000243	2.432511	0.824157	-0.000097
 651	6.4675e+01	14.1044	40.766997	0.000223	2.229802	0.755477	-0.000089
 652	6.4775e+01	14.0675	40.617623	0.000375	3.750121	1.270575	-0.000150
 653	6.4874e+01	14.0098	40.516694	0.000253	2.533865	0.858497	-0.000101
 654	6.4974e+01	13.9793	40.399617	0.000294	2.939284	0.995856	-0.000118
 655	6.5073e+01	13.9376	40.290615	0.000274	2.736575	0.927177	-0.000110
 656	6.5172e+01	13.9039	40.189686	0.000253	2.533865	0.858497	-0.000101
 657	6.5272e+01	13.8638	40.048387	0.000355	3.547412	1.201896	-0.000142
 658	6.5371e+01	13.8173	39.995904	0.000132	1.317610	0.446418	-0.000053
 659	6.5471e+01	13.7755	39.834418	0.000405	4.054185	1.373595	-0.000162
 660	6.5570e+01	13.7515	39.713304	0.000304	3.040638	1.030196	-0.000122
 661	6.5670e+01	13.7034	39.584116	0.000324	3.243348	1.098876	-0.000130
 662	6.5769e+01	13.6681	39.519522	0.000162	1.621674	0.549438	-0.000065
 663	6.5869e+01	13.6215	39.398408	0.000304	3.040638	1.030196	-0.000122
 664	6.5969e+01	13.5782	39.269219	0.000324	3.243348	1.098876	-0.000130
 665	6.6068e+01	13.5381	39.144068	0.000314	3.141993	1.064536	-0.000126
 666	6.6168e+01	13.5076	39.035065	0.000274	2.736575	0.927177	-0.000110
 667	6.6267e+01	13.4691	38.934137	0.000253	2.533865	0.858497	-0.000101
 668	6.6367e+01	13.4274	38.825134	0.000274	2.736575	0.927177	-0.000110
 669	6.6466e+01	13.3713	38.691909	0.000334	3.344702	1.133216	-0.000134
 670	6.6566e+01	13.3472	38.574832	0.000294	2.939284	0.995856	-0.000118
 671	6.6665e+01	13.3023	38.477941	0.000243	2.432511	0.824157	-0.000097
 672	6.6764e+01	13.2702	38.385087	0.000233	2.331156	0.789817	-0.000093
 673	6.6864e+01	13.2221	38.235713	0.000375	3.750121	1.270575	-0.000150
 674	6.6963e+01	13.1804	38.114599	0.000304	3.040638	1.030196	-0.000122
 675	6.7063e+01	13.1467	38.041930	0.000182	1.824383	0.618118	-0.000073
 676	6.7162e+01	13.1018	37.892556	0.000375	3.750121	1.270575	-0.000150
 677	6.7262e+01	13.0681	37.795665	0.000243	2.432511	0.824157	-0.000097
 678	6.7362e+01	13.0296	37.702811	0.000233	2.331156	0.789817	-0.000093
 679	6.7461e+01	12.9879	37.573622	0.000324	3.243348	1.098876	-0.000130
 680	6.7561e+01	12.9462	37.436360	0.000345	3.446057	1.167556	-0.000138
 681	6.7660e+01	12.9061	37.315246	0.000304	3.040638	1.030196	-0.000122
 682	6.7760e+01	12.8708	37.202206	0.000284	2.837929	0.961516	-0.000114
 683	6.7859e+01	12.8339	37.081092	0.000304	3.040638	1.030196	-0.000122
 684	6.7959e+01	12.7889	36.943829	0.000345	3.446057	1.167556	-0.000138
 685	6.8058e+01	12.7424	36.846938	0.000243	2.432511	0.824157	-0.000097
 686	6.8157e+01	12.7151	36.754084	0.000233	2.331156	0.789817	-0.000093
 687	6.8257e+01	12.6750	36.624895	0.000324	3.243348	1.098876	-0.000130
 688	6.8356e+01	12.6301	36.507818	0.000294	2.939284	0.995856	-0.000118
 689	6.8456e+01	12.5788	36.386704	0.000304	3.040638	1.030196	-0.000122
 690	6.8555e+01	12.5531	36.261553	0.000314	3.141993	1.064536	-0.000126
 691	6.8655e+01	12.5066	36.144476	0.000294	2.939284	0.995856	-0.000118
 692	6.8754e+01	12.4681	36.023362	0.000304	3.040638	1.030196	-0.000122
 693	6.8854e+01	12.4392	35.942619	0.000203	2.027092	0.686797	-0.000081
 694	6.8954e+01	12.3927	35.809394	0.000334	3.344702	1.133216	-0.000134
 695	6.9053e+01	12.3574	35.712503	0.000243	2.432511	0.824157	-0.000097
 696	6.9153e+01	12.3077	35.603500	0.000274	2.736575	0.927177	-0.000110
 697	6.9252e+01	12.2740	35.454126	0.000375	3.750121	1.270575	-0.000150
 698	6.9352e+01	12.2275	35.324938	0.000324	3.243348	1.098876	-0.000130
 699	6.9451e+01	12.1890	35.219972	0.000264	2.635220	0.892837	-0.000105
 700	6.9550e+01	12.1521	35.070598	0.000375	3.750121	1.270575	-0.000150
 701	6.9650e+01	12.1104	34.981781	0.000223	2.229802	0.755477	-0.000089
 702	6.9749e+01	12.0702	34.872779	0.000274	2.736575	0.927177	-0.000110
 703	6.9849e+01	12.0285	34.727442	0.000365	3.648766	1.236235	-0.000146
 704	6.9948e+01	11.9932	34.590179	0.000345	3.446057	1.167556	-0.000138
 705	7.0048e+01	11.9499	34.497325	0.000233	2.331156	0.789817	-0.000093
 706	7.0147e+01	11.9114	34.400434	0.000243	2.432511	0.824157	-0.000097
 707	7.0247e+01	11.8713	34.247022	0.000385	3.851475	1.304915	-0.000154
 708	7.0347e+01	11.8328	34.158205	0.000223	2.229802	0.755477	-0.000089
 709	7.0446e+01	11.7895	34.077463	0.000203	2.027092	0.686797	-0.000081
 710	7.0546e+01	11.7590	33.932126	0.000365	3.648766	1.236235	-0.000146
 711	7.0645e+01	11.7173	33.806975	0.000314	3.141993	1.064536	-0.000126
 712	7.0745e+01	11.6756	33.710083	0.000243	2.432511	0.824157	-0.000097
 713	7.0844e+01	11.6227	33.560709	0.000375	3.750121	1.270575	-0.000150
 714	7.0944e+01	11.5890	33.463818	0.000243	2.432511	0.824157	-0.000097
 715	7.1043e+01	11.5489	33.326556	0.000345	3.446057	1.167556	-0.000138
 716	7.1142e+01	11.5088	33.237739	0.000223	2.229802	0.755477	-0.000089
 717	7.1242e+01	11.4767	33.136810	0.000253	2.533865	0.858497	-0.000101
 718	7.1341e+01	11.4270	33.003585	0.000334	3.344702	1.133216	-0.000134
 719	7.1441e+01	11.3901	32.870359	0.000334	3.344702	1.133216	-0.000134
 720	7.1540e+01	11.3580	32.765394	0.000264	2.635220	0.892837	-0.000105
 721	7.1640e+01	11.3163	32.636205	0.000324	3.243348	1.098876	-0.000130
 722	7.1740e+01	11.2729	32.507017	0.000324	3.243348	1.098876	-0.000130
 723	7.1839e+01	11.2377	32.393977	0.000284	2.837929	0.961516	-0.000114
 724	7.1939e+01	11.1879	32.305160	0.000223	2.229802	0.755477	-0.000089
 725	7.2038e+01	11.1510	32.155786	0.000375	3.750121	1.270575	-0.000150
 726	7.2138e+01	11.1141	32.054858	0.000253	2.533865	0.858497	-0.000101
 727	7.2237e+01	11.0788	31.917595	0.000345	3.446057	1.167556	-0.000138
 728	7.2337e+01	11.0323	31.800518	0.000294	2.939284	0.995856	-0.000118
 729	7.2436e+01	10.9922	31.663256	0.000345	3.446057	1.167556	-0.000138
 730	7.2535e+01	10.9521	31.586550	0.000193	1.925738	0.652458	-0.000077
 731	7.2635e+01	10.9168	31.449287	0.000345	3.446057	1.167556	-0.000138
 732	7.2734e+01	10.8767	31.287802	0.000405	4.054185	1.373595	-0.000162
 733	7.2834e+01	10.8318	31.231282	0.000142	1.418965	0.480758	-0.000057
 734	7.2933e+01	10.7997	31.102094	0.000324	3.243348	1.098876	-0.000130
 735	7.3033e+01	10.7548	30.960794	0.000355	3.547412	1.201896	-0.000142
 736	7.3132e+01	10.7179	30.888126	0.000182	1.824383	0.618118	-0.000073
 737	7.3232e+01	10.6794	30.754900	0.000334	3.344702	1.133216	-0.000134
 738	7.3332e+01	10.6313	30.629749	0.000314	3.141993	1.064536	-0.000126
 739	7.3431e+01	10.6008	30.520746	0.000274	2.736575	0.927177	-0.000110
 740	7.3531e+01	10.5494	30.407706	0.000284	2.837929	0.961516	-0.000114
 741	7.3630e+01	10.5206	30.290629	0.000294	2.939284	0.995856	-0.000118
 742	7.3730e+01	10.4708	30.157404	0.000334	3.344702	1.133216	-0.000134
 743	7.3829e+01	10.4403	30.072624	0.000213	2.128447	0.721137	-0.000085
 744	7.3928e+01	10.3970	29.943436	0.000324	3.243348	1.098876	-0.000130
 745	7.4028e+01	10.3473	29.838470	0.000264	2.635220	0.892837	-0.000105
 746	7.4127e+01	10.3281	29.705245	0.000334	3.344702	1.133216	-0.000134
 747	7.4227e+01	10.2799	29.572019	0.000334	3.344702	1.133216	-0.000134
 748	7.4326e+01	10.2302	29.450905	0.000304	3.040638	1.030196	-0.000122
 749	7.4426e+01	10.1949	29.382274	0.000172	1.723028	0.583778	-0.000069
 750	7.4525e+01	10.1548	29.269234	0.000284	2.837929	0.961516	-0.000114
 751	7.4625e+01	10.1131	29.111786	0.000395	3.952830	1.339255	-0.000158
 752	7.4725e+01	10.0762	29.006820	0.000264	2.635220	0.892837	-0.000105
 753	7.4824e+01	10.0329	28.873595	0.000334	3.344702	1.133216	-0.000134
 754	7.4924e+01	10.0040	28.760555	0.000284	2.837929	0.961516	-0.000114
 755	7.5023e+01	9.9591	28.671738	0.000223	2.229802	0.755477	-0.000089
 756	7.5123e+01	9.9158	28.522364	0.000375	3.750121	1.270575	-0.000150
 757	7.5222e+01	9.8757	28.393176	0.000324	3.243348	1.098876	-0.000130
 758	7.5322e+01	9.8356	28.308396	0.000213	2.128447	0.721137	-0.000085
 759	7.5421e+01	9.8019	28.167096	0.000355	3.547412	1.201896	-0.000142
 760	7.5520e+01	9.7650	28.074242	0.000233	2.331156	0.789817	-0.000093
 761	7.5620e+01	9.7217	27.953128	0.000304	3.040638	1.030196	-0.000122
 762	7.5719e+01	9.6767	27.815865	0.000345	3.446057	1.167556	-0.000138
 763	7.5819e+01	9.6366	27.714937	0.000253	2.533865	0.858497	-0.000101
 764	7.5918e+01	9.5869	27.601897	0.000284	2.837929	0.961516	-0.000114
 765	7.6018e+01	9.5676	27.496932	0.000264	2.635220	0.892837	-0.000105
 766	7.6118e+01	9.5147	27.355632	0.000355	3.547412	1.201896	-0.000142
 767	7.6217e+01	9.4810	27.242592	0.000284	2.837929	0.961516	-0.000114
 768	7.6317e+01	9.4489	27.165886	0.000193	1.925738	0.652458	-0.000077
 769	7.6416e+01	9.4040	27.040735	0.000314	3.141993	1.064536	-0.000126
 770	7.6516e+01	9.3591	26.911547	0.000324	3.243348	1.098876	-0.000130
 771	7.6615e+01	9.3190	26.794470	0.000294	2.939284	0.995856	-0.000118
 772	7.6715e+01	9.2773	26.713727	0.000203	2.027092	0.686797	-0.000081
 773	7.6814e+01	9.2372	26.580502	0.000334	3.344702	1.133216	-0.000134
 774	7.6913e+01	9.2083	26.463425	0.000294	2.939284	0.995856	-0.000118
 775	7.7013e+01	9.1682	26.370571	0.000233	2.331156	0.789817	-0.000093
 776	7.7112e+01	9.1217	26.241382	0.000324	3.243348	1.098876	-0.000130
 777	7.7212e+01	9.0832	26.140454	0.000253	2.533865	0.858497	-0.000101
 778	7.7311e+01	9.0366	26.019340	0.000304	3.040638	1.030196	-0.000122
 779	7.7411e+01	9.0094	25.857854	0.000405	4.054185	1.373595	-0.000162
 780	7.7510e+01	8.9564	25.748852	0.000274	2.736575	0.927177	-0.000110
 781	7.7610e+01	8.9211	25.631775	0.000294	2.939284	0.995856	-0.000118
 782	7.7710e+01	8.8794	25.538921	0.000233	2.331156	0.789817	-0.000093
 783	7.7809e+01	8.8409	25.462215	0.000193	1.925738	0.652458	-0.000077
 784	7.7909e+01	8.8024	25.320915	0.000355	3.547412	1.201896	-0.000142
 785	7.8008e+01	8.7671	25.203838	0.000294	2.939284	0.995856	-0.000118
 786	7.8108e+01	8.7254	25.090799	0.000284	2.837929	0.961516	-0.000114
 787	7.8207e+01	8.6837	24.985833	0.000264	2.635220	0.892837	-0.000105
 788	7.8306e+01	8.6404	24.872793	0.000284	2.837929	0.961516	-0.000114
 789	7.8406e+01	8.6051	24.719382	0.000385	3.851475	1.304915	-0.000154
 790	7.8505e+01	8.5650	24.586157	0.000334	3.344702	1.133216	-0.000134
 791	7.8605e+01	8.5281	24.505414	0.000203	2.027092	0.686797	-0.000081
 792	7.8704e+01	8.4864	24.380263	0.000314	3.141993	1.064536	-0.000126
 793	7.8804e+01	8.4318	24.234926	0.000365	3.648766	1.236235	-0.000146
 794	7.8903e+01	8.4030	24.138035	0.000243	2.432511	0.824157	-0.000097
 795	7.9003e+01	8.3677	24.012883	0.000314	3.141993	1.064536	-0.000126
 796	7.9103e+01	8.3228	23.924066	0.000223	2.229802	0.755477	-0.000089
 797	7.9202e+01	8.2778	23.766618	0.000395	3.952830	1.339255	-0.000158
 798	7.9302e+01	8.2474	23.645504	0.000304	3.040638	1.030196	-0.000122
 799	7.9401e+01	8.2073	23.552650	0.000233	2.331156	0.789817	-0.000093
 800	7.9501e+01	8.1607	23.475944	0.000193	1.925738	0.652458	-0.000077
 801	7.9600e+01	8.1238	23.294273	0.000456	4.560958	1.545294	-0.000183
 802	7.9700e+01	8.0741	23.177196	0.000294	2.939284	0.995856	-0.000118
 803	7.9799e+01	8.0452	23.088379	0.000223	2.229802	0.755477	-0.000089
 804	7.9898e+01	8.0051	22.943042	0.000365	3.648766	1.236235	-0.000146
 805	7.9998e+01	7.9634	22.830003	0.000284	2.837929	0.961516	-0.000114
 806	8.0097e+01	7.9233	22.688703	0.000355	3.547412	1.201896	-0.000142
 807	8.0197e+01	7.8816	22.571626	0.000294	2.939284	0.995856	-0.000118
 808	8.0296e+01	7.8463	22.486846	0.000213	2.128447	0.721137	-0.000085
 809	8.0396e+01	7.7998	22.349583	0.000345	3.446057	1.167556	-0.000138
 810	8.0496e+01	7.7613	22.264804	0.000213	2.128447	0.721137	-0.000085
 811	8.0595e+01	7.7164	22.184061	0.000203	2.027092	0.686797	-0.000081
 812	8.0695e+01	7.6811	22.022575	0.000405	4.054185	1.373595	-0.000162
 813	8.0794e+01	7.6378	21.917610	0.000264	2.635220	0.892837	-0.000105
 814	8.0894e+01	7.6105	21.784384	0.000334	3.344702	1.133216	-0.000134
 815	8.0993e+01	7.5624	21.691530	0.000233	2.331156	0.789817	-0.000093
 816	8.1093e+01	7.5206	21.582528	0.000274	2.736575	0.927177	-0.000110
 817	8.1192e+01	7.4966	21.425079	0.000395	3.952830	1.339255	-0.000158
 818	8.1291e+01	7.4533	21.299928	0.000314	3.141993	1.064536	-0.000126
 819	8.1391e+01	7.4067	21.223223	0.000193	1.925738	0.652458	-0.000077
 820	8.1490e+01	7.3682	21.057700	0.000416	4.155539	1.407935	-0.000166
 821	8.1590e+01	7.3249	20.948697	0.000274	2.736575	0.927177	-0.000110
 822	8.1689e+01	7.2993	20.819509	0.000324	3.243348	1.098876	-0.000130
 823	8.1789e+01	7.2511	20.710506	0.000274	2.736575	0.927177	-0.000110
 824	8.1888e+01	7.2126	20.589392	0.000304	3.040638	1.030196	-0.000122
 825	8.1988e+01	7.1661	20.476352	0.000284	2.837929	0.961516	-0.000114
 826	8.2088e+01	7.1244	20.359276	0.000294	2.939284	0.995856	-0.000118
 827	8.2187e+01	7.0859	20.205864	0.000385	3.851475	1.304915	-0.000154
 828	8.2287e+01	7.0490	20.133196	0.000182	1.824383	0.618118	-0.000073
 829	8.2386e+01	7.0121	19.991896	0.000355	3.547412	1.201896	-0.000142
 830	8.2486e+01	6.9704	19.854634	0.000345	3.446057	1.167556	-0.000138
 831	8.2585e+01	6.9367	19.725445	0.000324	3.243348	1.098876	-0.000130
 832	8.2684e+01	6.8870	19.620480	0.000264	2.635220	0.892837	-0.000105
 833	8.2784e+01	6.8533	19.495328	0.000314	3.141993	1.064536	-0.000126
 834	8.2883e+01	6.8100	19.382289	0.000284	2.837929	0.961516	-0.000114
 835	8.2983e+01	6.7683	19.265212	0.000294	2.939284	0.995856	-0.000118
 836	8.3082e+01	6.7249	19.152172	0.000284	2.837929	0.961516	-0.000114
 837	8.3182e+01	6.6784	19.031058	0.000304	3.040638	1.030196	-0.000122
 838	8.3281e+01	6.6672	18.909944	0.000304	3.040638	1.030196	-0.000122
 839	8.3381e+01	6.6110	18.768644	0.000355	3.547412	1.201896	-0.000142
 840	8.3481e+01	6.5661	18.643493	0.000314	3.141993	1.064536	-0.000126
 841	8.3580e+01	6.5308	18.482007	0.000405	4.054185	1.373595	-0.000162
 842	8.3680e+01	6.4923	18.393190	0.000223	2.229802	0.755477	-0.000089
 843	8.3779e+01	6.4554	18.272076	0.000304	3.040638	1.030196	-0.000122
 844	8.3879e+01	6.4121	18.171148	0.000253	2.533865	0.858497	-0.000101
 845	8.3978e+01	6.3720	18.062145	0.000274	2.736575	0.927177	-0.000110
 846	8.4078e+01	6.3335	17.908734	0.000385	3.851475	1.304915	-0.000154
 847	8.4177e+01	6.2982	17.840103	0.000172	1.723028	0.583778	-0.000069
 848	8.4276e+01	6.2485	17.678617	0.000405	4.054185	1.373595	-0.000162
 849	8.4376e+01	6.2148	17.545392	0.000334	3.344702	1.133216	-0.000134
 850	8.4475e+01	6.1715	17.404092	0.000355	3.547412	1.201896	-0.000142
 851	8.4575e+01	6.1330	17.282978	0.000304	3.040638	1.030196	-0.000122
 852	8.4674e+01	6.0913	17.190124	0.000233	2.331156	0.789817	-0.000093
 853	8.4774e+01	6.0560	17.040750	0.000375	3.750121	1.270575	-0.000150
 854	8.4874e+01	6.0271	16.907524	0.000334	3.344702	1.133216	-0.000134
 855	8.4973e+01	5.9710	16.725853	0.000456	4.560958	1.545294	-0.000183
 856	8.5073e+01	5.9325	16.637036	0.000223	2.229802	0.755477	-0.000089
 857	8.5172e+01	5.8988	16.556294	0.000203	2.027092	0.686797	-0.000081
 858	8.5272e+01	5.8619	16.439217	0.000294	2.939284	0.995856	-0.000118
 859	8.5371e+01	5.8153	16.305991	0.000334	3.344702	1.133216	-0.000134
 860	8.5471e+01	5.7752	16.148543	0.000395	3.952830	1.339255	-0.000158
 861	8.5570e+01	5.7351	16.043577	0.000264	2.635220	0.892837	-0.000105
 862	8.5669e+01	5.6902	15.890166	0.000385	3.851475	1.304915	-0.000154
 863	8.5769e+01	5.6533	15.797312	0.000233	2.331156	0.789817	-0.000093
 864	8.5868e+01	5.6100	15.664087	0.000334	3.344702	1.133216	-0.000134
 865	8.5968e+01	5.5683	15.530861	0.000334	3.344702	1.133216	-0.000134
 866	8.6067e+01	5.5410	15.433970	0.000243	2.432511	0.824157	-0.000097
 867	8.6167e+01	5.4929	15.276522	0.000395	3.952830	1.339255	-0.000158
 868	8.6266e+01	5.4672	15.151370	0.000314	3.141993	1.064536	-0.000126
 869	8.6366e+01	5.4239	15.066591	0.000213	2.128447	0.721137	-0.000085
 870	8.6466e+01	5.3774	14.941439	0.000314	3.141993	1.064536	-0.000126
 871	8.6565e+01	5.3341	14.783991	0.000395	3.952830	1.339255	-0.000158
 872	8.6665e+01	5.3020	14.695174	0.000223	2.229802	0.755477	-0.000089
 873	8.6764e+01	5.2603	14.537726	0.000395	3.952830	1.339255	-0.000158
 874	8.6864e+01	5.2202	14.436797	0.000253	2.533865	0.858497	-0.000101
 875	8.6963e+01	5.1785	14.311646	0.000314	3.141993	1.064536	-0.000126
 876	8.7063e+01	5.1303	14.146124	0.000416	4.155539	1.407935	-0.000166
 877	8.7162e+01	5.1015	14.053270	0.000233	2.331156	0.789817	-0.000093
 878	8.7261e+01	5.0598	13.952341	0.000253	2.533865	0.858497	-0.000101
 879	8.7361e+01	5.0148	13.802967	0.000375	3.750121	1.270575	-0.000150
 880	8.7460e+01	4.9811	13.685890	0.000294	2.939284	0.995856	-0.000118
 881	8.7560e+01	4.9330	13.552665	0.000334	3.344702	1.133216	-0.000134
 882	8.7659e+01	4.8961	13.447699	0.000264	2.635220	0.892837	-0.000105
 883	8.7759e+01	4.8560	13.302362	0.000365	3.648766	1.236235	-0.000146
 884	8.7859e+01	4.8191	13.185285	0.000294	2.939284	0.995856	-0.000118
 885	8.7958e+01	4.7758	13.019763	0.000416	4.155539	1.407935	-0.000166
 886	8.8058e+01	4.7357	12.926909	0.000233	2.331156	0.789817	-0.000093
 887	8.8157e+01	4.6956	12.801757	0.000314	3.141993	1.064536	-0.000126
 888	8.8257e+01	4.6651	12.664495	0.000345	3.446057	1.167556	-0.000138
 889	8.8356e+01	4.6122	12.535306	0.000324	3.243348	1.098876	-0.000130
 890	8.8456e+01	4.5785	12.434378	0.000253	2.533865	0.858497	-0.000101
 891	8.8555e+01	4.5496	12.289041	0.000365	3.648766	1.236235	-0.000146
 892	8.8654e+01	4.5047	12.188113	0.000253	2.533865	0.858497	-0.000101
 893	8.8754e+01	4.4598	12.046813	0.000355	3.547412	1.201896	-0.000142
 894	8.8853e+01	4.4181	11.917625	0.000324	3.243348	1.098876	-0.000130
 895	8.8953e+01	4.3844	11.780362	0.000345	3.446057	1.167556	-0.000138
 896	8.9052e+01	4.3346	11.671359	0.000274	2.736575	0.927177	-0.000110
 897	8.9152e+01	4.2993	11.578505	0.000233	2.331156	0.789817	-0.000093
 898	8.9251e+01	4.2673	11.441243	0.000345	3.446057	1.167556	-0.000138
 899	8.9351e+01	4.2239	11.308017	0.000334	3.344702	1.133216	-0.000134
 900	8.9451e+01	4.1870	11.162680	0.000365	3.648766	1.236235	-0.000146
 901	8.9550e+01	4.1518	11.041566	0.000304	3.040638	1.030196	-0.000122
 902	8.9650e+01	4.0972	10.944675	0.000243	2.432511	0.824157	-0.000097
 903	8.9749e+01	4.0651	10.823561	0.000304	3.040638	1.030196	-0.000122
 904	8.9849e+01	4.0234	10.690335	0.000334	3.344702	1.133216	-0.000134
 905	8.9948e+01	3.9849	10.544999	0.000365	3.648766	1.236235	-0.000146
 906	9.0047e+01	3.9448	10.423884	0.000304	3.040638	1.030196	-0.000122
 907	9.0147e+01	3.9031	10.306808	0.000294	2.939284	0.995856	-0.000118
 908	9.0246e+01	3.8614	10.177619	0.000324	3.243348	1.098876	-0.000130
 909	9.0346e+01	3.8245	10.108988	0.000172	1.723028	0.583778	-0.000069
 910	9.0445e+01	3.7812	9.967688	0.000355	3.547412	1.201896	-0.000142
 911	9.0545e+01	3.7411	9.786017	0.000456	4.560958	1.545294	-0.000183
 912	9.0644e+01	3.6945	9.697200	0.000223	2.229802	0.755477	-0.000089
 913	9.0744e+01	3.6641	9.616457	0.000203	2.027092	0.686797	-0.000081
 914	9.0844e+01	3.6159	9.446898	0.000426	4.256894	1.442275	-0.000170
 915	9.0943e+01	3.5790	9.350006	0.000243	2.432511	0.824157	-0.000097
 916	9.1043e+01	3.5405	9.224855	0.000314	3.141993	1.064536	-0.000126
 917	9.1142e+01	3.5133	9.059333	0.000416	4.155539	1.407935	-0.000166
 918	9.1242e+01	3.4684	8.986664	0.000182	1.824383	0.618118	-0.000073
 919	9.1341e+01	3.4218	8.849402	0.000345	3.446057	1.167556	-0.000138
 920	9.1441e+01	3.3881	8.724250	0.000314	3.141993	1.064536	-0.000126
 921	9.1540e+01	3.3496	8.607173	0.000294	2.939284	0.995856	-0.000118
 922	9.1639e+01	3.3079	8.506245	0.000253	2.533865	0.858497	-0.000101
 923	9.1739e+01	3.2630	8.320537	0.000466	4.662312	1.579634	-0.000187
 924	9.1838e+01	3.2277	8.231720	0.000223	2.229802	0.755477	-0.000089
 925	9.1938e+01	3.1812	8.082346	0.000375	3.750121	1.270575	-0.000150
 926	9.2037e+01	3.1459	7.989492	0.000233	2.331156	0.789817	-0.000093
 927	9.2137e+01	3.1058	7.852229	0.000345	3.446057	1.167556	-0.000138
 928	9.2237e+01	3.0737	7.739189	0.000284	2.837929	0.961516	-0.000114
 929	9.2336e+01	3.0224	7.658446	0.000203	2.027092	0.686797	-0.000081
 930	9.2436e+01	2.9823	7.509072	0.000375	3.750121	1.270575	-0.000150
 931	9.2535e+01	2.9470	7.379884	0.000324	3.243348	1.098876	-0.000130
 932	9.2635e+01	2.9069	7.282993	0.000243	2.432511	0.824157	-0.000097
 933	9.2734e+01	2.8668	7.125545	0.000395	3.952830	1.339255	-0.000158
 934	9.2834e+01	2.8234	7.008468	0.000294	2.939284	0.995856	-0.000118
 935	9.2933e+01	2.7914	6.911576	0.000243	2.432511	0.824157	-0.000097
 936	9.3032e+01	2.7416	6.778351	0.000334	3.344702	1.133216	-0.000134
 937	9.3132e+01	2.7112	6.685497	0.000233	2.331156	0.789817	-0.000093
 938	9.3231e+01	2.6807	6.528048	0.000395	3.952830	1.339255	-0.000158
 939	9.3331e+01	2.6245	6.415009	0.000284	2.837929	0.961516	-0.000114
 940	9.3430e+01	2.5956	6.318117	0.000243	2.432511	0.824157	-0.000097
 941	9.3530e+01	2.5459	6.184892	0.000334	3.344702	1.133216	-0.000134
 942	9.3629e+01	2.5026	6.043592	0.000355	3.547412	1.201896	-0.000142
 943	9.3729e+01	2.4673	5.938627	0.000264	2.635220	0.892837	-0.000105
 944	9.3829e+01	2.4288	5.813475	0.000314	3.141993	1.064536	-0.000126
 945	9.3928e+01	2.3871	5.708510	0.000264	2.635220	0.892837	-0.000105
 946	9.4028e+01	2.3454	5.583359	0.000314	3.141993	1.064536	-0.000126
 947	9.4127e+01	2.3053	5.433985	0.000375	3.750121	1.270575	-0.000150
 948	9.4227e+01	2.2732	5.308833	0.000314	3.141993	1.064536	-0.000126
 949	9.4326e+01	2.2315	5.211942	0.000243	2.432511	0.824157	-0.000097
 950	9.4425e+01	2.1882	5.131200	0.000203	2.027092	0.686797	-0.000081
 951	9.4525e+01	2.1593	4.993937	0.000345	3.446057	1.167556	-0.000138
 952	9.4624e+01	2.1176	4.848600	0.000365	3.648766	1.236235	-0.000146
 953	9.4724e+01	2.0695	4.759783	0.000223	2.229802	0.755477	-0.000089
 954	9.4823e+01	2.0294	4.622520	0.000345	3.446057	1.167556	-0.000138
 955	9.4923e+01	1.9892	4.456998	0.000416	4.155539	1.407935	-0.000166
 956	9.5022e+01	1.9443	4.380292	0.000193	1.925738	0.652458	-0.000077
 957	9.5122e+01	1.9106	4.226881	0.000385	3.851475	1.304915	-0.000154
 958	9.5222e+01	1.8866	4.113841	0.000284	2.837929	0.961516	-0.000114
 959	9.5321e+01	1.8208	3.988690	0.000314	3.141993	1.064536	-0.000126
 960	9.5421e+01	1.7887	3.883725	0.000264	2.635220	0.892837	-0.000105
 961	9.5520e+01	1.7454	3.790870	0.000233	2.331156	0.789817	-0.000093
 962	9.5620e+01	1.7021	3.593051	0.000497	4.966376	1.682654	-0.000199
 963	9.5719e+01	1.6732	3.512308	0.000203	2.027092	0.686797	-0.000081
 964	9.5819e+01	1.6363	3.411380	0.000253	2.533865	0.858497	-0.000101
 965	9.5918e+01	1.5978	3.274117	0.000345	3.446057	1.167556	-0.000138
 966	9.6017e+01	1.5545	3.161077	0.000284	2.837929	0.961516	-0.000114
 967	9.6117e+01	1.5128	3.015740	0.000365	3.648766	1.236235	-0.000146
 968	9.6216e+01	1.4807	2.886552	0.000324	3.243348	1.098876	-0.000130
 969	9.6316e+01	1.4326	2.785624	0.000253	2.533865	0.858497	-0.000101
 970	9.6415e+01	1.3941	2.656435	0.000324	3.243348	1.098876	-0.000130
 971	9.6515e+01	1.3460	2.543396	0.000284	2.837929	0.961516	-0.000114
 972	9.6615e+01	1.3107	2.398059	0.000365	3.648766	1.236235	-0.000146
 973	9.6714e+01	1.2657	2.293093	0.000264	2.635220	0.892837	-0.000105
 974	9.6814e+01	1.2369	2.163905	0.000324	3.243348	1.098876	-0.000130
 975	9.6913e+01	1.2000	2.062976	0.000253	2.533865	0.858497	-0.000101
 976	9.7013e+01	1.1534	1.921677	0.000355	3.547412	1.201896	-0.000142
 977	9.7112e+01	1.1198	1.796525	0.000314	3.141993	1.064536	-0.000126
 978	9.7212e+01	1.0716	1.707708	0.000223	2.229802	0.755477	-0.000089
 979	9.7311e+01	1.0315	1.570446	0.000345	3.446057	1.167556	-0.000138
 980	9.7410e+01	0.9962	1.412998	0.000395	3.952830	1.339255	-0.000158
 981	9.7510e+01	0.9577	1.336292	0.000193	1.925738	0.652458	-0.000077
 982	9.7609e+01	0.9048	1.207104	0.000324	3.243348	1.098876	-0.000130
 983	9.7709e+01	0.8775	1.094064	0.000284	2.837929	0.961516	-0.000114
 984	9.7808e+01	0.8390	0.964875	0.000324	3.243348	1.098876	-0.000130
 985	9.7908e+01	0.7925	0.819539	0.000365	3.648766	1.236235	-0.000146
 986	9.8007e+01	0.7524	0.730722	0.000223	2.229802	0.755477	-0.000089
 987	9.8107e+01	0.7219	0.617682	0.000284	2.837929	0.961516	-0.000114
 988	9.8207e+01	0.6722	0.468308	0.000375	3.750121	1.270575	-0.000150
 989	9.8306e+01	0.6273	0.347194	0.000304	3.040638	1.030196	-0.000122
 990	9.8406e+01	0.5936	0.238191	0.000274	2.736575	0.927177	-0.000110
 991	9.8505e+01	0.5551	0.080743	0.000395	3.952830	1.339255	-0.000158
 992	9.8605e+01	0.5118	-0.044408	0.000314	3.141993	1.064536	-0.000126
 993	9.8704e+01	0.4861	-0.161485	0.000294	2.939284	0.995856	-0.000118
 994	9.8803e+01	0.4380	-0.258377	0.000243	2.432511	0.824157	-0.000097
 995	9.8903e+01	0.3930	-0.407751	0.000375	3.750121	1.270575	-0.000150
 996	9.9002e+01	0.3561	-0.516753	0.000274	2.736575	0.927177	-0.000110
 997	9.9102e+01	0.3305	-0.641905	0.000314	3.141993	1.064536	-0.000126
 998	9.9201e+01	0.2823	-0.795316	0.000385	3.851475	1.304915	-0.000154
 999	9.9301e+01	0.2358	-0.863947	0.000172	1.723028	0.583778	-0.000069
1000	9.9400e+01	0.1989	-1.029470	0.000416	4.155539	1.407935	-0.000166
1001	9.9500e+01	0.1508	-1.110212	0.000203	2.027092	0.686797	-0.000081
1002	9.9600e+01	0.1155	-1.239401	0.000324	3.243348	1.098876	-0.000130
1003	9.9699e+01	0.0754	-1.445295	0.000517	5.169085	1.751334	-0.000207
1004	9.9799e+01	0.0353	-1.542186	0.000243	2.432511	0.824157	-0.000097
1005	9.9898e+01	0.0112	-1.631003	0.000223	2.229802	0.755477	-0.000089
1006	9.9998e+01	-0.0337	-1.727894	0.000243	2.432511	0.824157	-0.000097
1007	1.0010e+02	-0.0786	-1.828822	0.000253	2.533865	0.858497	-0.000101
1008	1.0020e+02	-0.1187	-1.966085	0.000345	3.446057	1.167556	-0.000138
1009	1.0030e+02	-0.1508	-2.135645	0.000426	4.256894	1.442275	-0.000170
1010	1.0040e+02	-0.1973	-2.248685	0.000284	2.837929	0.961516	-0.000114
1011	1.0050e+02	-0.2342	-2.398059	0.000375	3.750121	1.270575	-0.000150
1012	1.0059e+02	-0.2727	-2.466690	0.000172	1.723028	0.583778	-0.000069
1013	1.0069e+02	-0.3096	-2.603953	0.000345	3.446057	1.167556	-0.000138
1014	1.0079e+02	-0.3513	-2.745252	0.000355	3.547412	1.201896	-0.000142
1015	1.0089e+02	-0.3962	-2.854255	0.000274	2.736575	0.927177	-0.000110
1016	1.0099e+02	-0.4412	-2.999592	0.000365	3.648766	1.236235	-0.000146
1017	1.0109e+02	-0.4636	-3.092446	0.000233	2.331156	0.789817	-0.000093
1018	1.0119e+02	-0.5118	-3.237783	0.000365	3.648766	1.236235	-0.000146
1019	1.0129e+02	-0.5470	-3.383120	0.000365	3.648766	1.236235	-0.000146
1020	1.0139e+02	-0.5952	-3.480011	0.000243	2.432511	0.824157	-0.000097
1021	1.0149e+02	-0.6353	-3.613236	0.000334	3.344702	1.133216	-0.000134
1022	1.0159e+02	-0.6642	-3.738388	0.000314	3.141993	1.064536	-0.000126
1023	1.0169e+02	-0.7059	-3.859502	0.000304	3.040638	1.030196	-0.000122
1024	1.0179e+02	-0.7508	-3.996764	0.000345	3.446057	1.167556	-0.000138
1025	1.0189e+02	-0.7957	-4.117878	0.000304	3.040638	1.030196	-0.000122
1026	1.0199e+02	-0.8326	-4.243030	0.000314	3.141993	1.064536	-0.000126
1027	1.0209e+02	-0.8759	-4.356069	0.000284	2.837929	0.961516	-0.000114
1028	1.0219e+02	-0.9112	-4.489295	0.000334	3.344702	1.133216	-0.000134
1029	1.0229e+02	-0.9609	-4.675003	0.000466	4.662312	1.579634	-0.000187
1030	1.0239e+02	-0.9914	-4.731523	0.000142	1.418965	0.480758	-0.000057
1031	1.0248e+02	-1.0379	-4.913194	0.000456	4.560958	1.545294	-0.000183
1032	1.0258e+02	-1.0684	-5.018160	0.000264	2.635220	0.892837	-0.000105
1033	1.0268e+02	-1.1101	-5.106977	0.000223	2.229802	0.755477	-0.000089
1034	1.0278e+02	-1.1486	-5.252314	0.000365	3.648766	1.236235	-0.000146
1035	1.0288e+02	-1.1919	-5.369391	0.000294	2.939284	0.995856	-0.000118
1036	1.0298e+02	-1.2321	-5.502616	0.000334	3.344702	1.133216	-0.000134
1037	1.0308e+02	-1.2722	-5.639879	0.000345	3.446057	1.167556	-0.000138
1038	1.0318e+02	-1.3091	-5.760993	0.000304	3.040638	1.030196	-0.000122
1039	1.0328e+02	-1.3476	-5.910367	0.000375	3.750121	1.270575	-0.000150
1040	1.0338e+02	-1.3812	-5.999184	0.000223	2.229802	0.755477	-0.000089
1041	1.0348e+02	-1.4262	-6.136446	0.000345	3.446057	1.167556	-0.000138
1042	1.0358e+02	-1.4647	-6.221226	0.000213	2.128447	0.721137	-0.000085
1043	1.0368e+02	-1.5080	-6.374637	0.000385	3.851475	1.304915	-0.000154
1044	1.0378e+02	-1.5433	-6.487677	0.000284	2.837929	0.961516	-0.000114
1045	1.0388e+02	-1.5786	-6.624940	0.000345	3.446057	1.167556	-0.000138
1046	1.0398e+02	-1.6283	-6.746054	0.000304	3.040638	1.030196	-0.000122
1047	1.0408e+02	-1.6668	-6.826797	0.000203	2.027092	0.686797	-0.000081
1048	1.0418e+02	-1.7117	-6.992319	0.000416	4.155539	1.407935	-0.000166
1049	1.0428e+02	-1.7550	-7.097285	0.000264	2.635220	0.892837	-0.000105
1050	1.0438e+02	-1.7855	-7.238584	0.000355	3.547412	1.201896	-0.000142
1051	1.0447e+02	-1.8320	-7.335476	0.000243	2.432511	0.824157	-0.000097
1052	1.0457e+02	-1.8625	-7.496961	0.000405	4.054185	1.373595	-0.000162
1053	1.0467e+02	-1.9010	-7.585778	0.000223	2.229802	0.755477	-0.000089
1054	1.0477e+02	-1.9475	-7.731115	0.000365	3.648766	1.236235	-0.000146
1055	1.0487e+02	-1.9828	-7.864340	0.000334	3.344702	1.133216	-0.000134
1056	1.0497e+02	-2.0278	-7.997566	0.000334	3.344702	1.133216	-0.000134
1057	1.0507e+02	-2.0679	-8.074271	0.000193	1.925738	0.652458	-0.000077
1058	1.0517e+02	-2.1064	-8.215571	0.000355	3.547412	1.201896	-0.000142
1059	1.0527e+02	-2.1497	-8.320537	0.000264	2.635220	0.892837	-0.000105
1060	1.0537e+02	-2.1946	-8.461837	0.000355	3.547412	1.201896	-0.000142
1061	1.0547e+02	-2.2331	-8.586988	0.000314	3.141993	1.064536	-0.000126
1062	1.0557e+02	-2.2572	-8.732325	0.000365	3.648766	1.236235	-0.000146
1063	1.0567e+02	-2.2957	-8.837290	0.000264	2.635220	0.892837	-0.000105
1064	1.0577e+02	-2.3470	-8.986664	0.000375	3.750121	1.270575	-0.000150
1065	1.0587e+02	-2.3855	-9.115852	0.000324	3.243348	1.098876	-0.000130
1066	1.0597e+02	-2.4176	-9.208707	0.000233	2.331156	0.789817	-0.000093
1067	1.0607e+02	-2.4673	-9.329821	0.000304	3.040638	1.030196	-0.000122
1068	1.0617e+02	-2.5074	-9.463046	0.000334	3.344702	1.133216	-0.000134
1069	1.0627e+02	-2.5539	-9.592235	0.000324	3.243348	1.098876	-0.000130
1070	1.0637e+02	-2.5876	-9.685089	0.000233	2.331156	0.789817	-0.000093
1071	1.0647e+02	-2.6293	-9.786017	0.000253	2.533865	0.858497	-0.000101
1072	1.0656e+02	-2.6678	-9.935391	0.000375	3.750121	1.270575	-0.000150
1073	1.0666e+02	-2.7079	-10.016134	0.000203	2.027092	0.686797	-0.000081
1074	1.0676e+02	-2.7416	-10.181656	0.000416	4.155539	1.407935	-0.000166
1075	1.0686e+02	-2.7785	-10.282585	0.000253	2.533865	0.858497	-0.000101
1076	1.0696e+02	-2.8202	-10.448107	0.000416	4.155539	1.407935	-0.000166
1077	1.0706e+02	-2.8652	-10.540961	0.000233	2.331156	0.789817	-0.000093
1078	1.0716e+02	-2.9005	-10.629778	0.000223	2.229802	0.755477	-0.000089
1079	1.0726e+02	-2.9422	-10.783190	0.000385	3.851475	1.304915	-0.000154
1080	1.0736e+02	-2.9839	-10.876044	0.000233	2.331156	0.789817	-0.000093
1081	1.0746e+02	-3.0224	-11.013306	0.000345	3.446057	1.167556	-0.000138
1082	1.0756e+02	-3.0609	-11.134420	0.000304	3.040638	1.030196	-0.000122
1083	1.0766e+02	-3.0946	-11.251497	0.000294	2.939284	0.995856	-0.000118
1084	1.0776e+02	-3.1491	-11.376649	0.000314	3.141993	1.064536	-0.000126
1085	1.0786e+02	-3.1828	-11.493725	0.000294	2.939284	0.995856	-0.000118
1086	1.0796e+02	-3.2197	-11.594654	0.000253	2.533865	0.858497	-0.000101
1087	1.0806e+02	-3.2630	-11.748065	0.000385	3.851475	1.304915	-0.000154
1088	1.0816e+02	-3.3015	-11.824771	0.000193	1.925738	0.652458	-0.000077
1089	1.0826e+02	-3.3416	-11.945885	0.000304	3.040638	1.030196	-0.000122
1090	1.0836e+02	-3.3897	-12.079110	0.000334	3.344702	1.133216	-0.000134
1091	1.0845e+02	-3.4202	-12.208298	0.000324	3.243348	1.098876	-0.000130
1092	1.0855e+02	-3.4635	-12.289041	0.000203	2.027092	0.686797	-0.000081
1093	1.0865e+02	-3.5149	-12.438415	0.000375	3.750121	1.270575	-0.000150
1094	1.0875e+02	-3.5373	-12.563566	0.000314	3.141993	1.064536	-0.000126
1095	1.0885e+02	-3.5871	-12.672569	0.000274	2.736575	0.927177	-0.000110
1096	1.0895e+02	-3.6191	-12.777535	0.000264	2.635220	0.892837	-0.000105
1097	1.0905e+02	-3.6577	-12.882500	0.000264	2.635220	0.892837	-0.000105
1098	1.0915e+02	-3.6962	-13.011688	0.000324	3.243348	1.098876	-0.000130
1099	1.0925e+02	-3.7443	-13.124728	0.000284	2.837929	0.961516	-0.000114
1100	1.0935e+02	-3.7812	-13.253917	0.000324	3.243348	1.098876	-0.000130
1101	1.0945e+02	-3.8117	-13.354845	0.000253	2.533865	0.858497	-0.000101
1102	1.0955e+02	-3.8678	-13.435588	0.000203	2.027092	0.686797	-0.000081
1103	1.0965e+02	-3.9079	-13.601110	0.000416	4.155539	1.407935	-0.000166
1104	1.0975e+02	-3.9416	-13.730299	0.000324	3.243348	1.098876	-0.000130
1105	1.0985e+02	-3.9881	-13.807004	0.000193	1.925738	0.652458	-0.000077
1106	1.0995e+02	-4.0202	-13.924081	0.000294	2.939284	0.995856	-0.000118
1107	1.1005e+02	-4.0507	-14.020972	0.000243	2.432511	0.824157	-0.000097
1108	1.1015e+02	-4.1020	-14.154198	0.000334	3.344702	1.133216	-0.000134
1109	1.1025e+02	-4.1405	-14.279349	0.000314	3.141993	1.064536	-0.000126
1110	1.1035e+02	-4.1694	-14.408537	0.000324	3.243348	1.098876	-0.000130
1111	1.1044e+02	-4.2143	-14.525614	0.000294	2.939284	0.995856	-0.000118
1112	1.1054e+02	-4.2657	-14.642691	0.000294	2.939284	0.995856	-0.000118
1113	1.1064e+02	-4.3009	-14.715360	0.000182	1.824383	0.618118	-0.000073
1114	1.1074e+02	-4.3394	-14.848585	0.000334	3.344702	1.133216	-0.000134
1115	1.1084e+02	-4.3780	-14.937402	0.000223	2.229802	0.755477	-0.000089
1116	1.1094e+02	-4.4165	-15.078702	0.000355	3.547412	1.201896	-0.000142
1117	1.1104e+02	-4.4566	-15.199816	0.000304	3.040638	1.030196	-0.000122
1118	1.1114e+02	-4.4999	-15.300744	0.000253	2.533865	0.858497	-0.000101
1119	1.1124e+02	-4.5448	-15.401673	0.000253	2.533865	0.858497	-0.000101
1120	1.1134e+02	-4.5753	-15.526824	0.000314	3.141993	1.064536	-0.000126
1121	1.1144e+02	-4.6170	-15.660050	0.000334	3.344702	1.133216	-0.000134
1122	1.1154e+02	-4.6491	-15.756941	0.000243	2.432511	0.824157	-0.000097
1123	1.1164e+02	-4.6876	-15.849795	0.000233	2.331156	0.789817	-0.000093
1124	1.1174e+02	-4.7389	-16.007243	0.000395	3.952830	1.339255	-0.000158
1125	1.1184e+02	-4.7726	-16.116246	0.000274	2.736575	0.927177	-0.000110
1126	1.1194e+02	-4.8143	-16.225249	0.000274	2.736575	0.927177	-0.000110
1127	1.1204e+02	-4.8640	-16.350400	0.000314	3.141993	1.064536	-0.000126
1128	1.1214e+02	-4.8913	-16.451328	0.000253	2.533865	0.858497	-0.000101
1129	1.1224e+02	-4.9250	-16.532071	0.000203	2.027092	0.686797	-0.000081
1130	1.1234e+02	-4.9779	-16.689519	0.000395	3.952830	1.339255	-0.000158
1131	1.1244e+02	-5.0229	-16.778336	0.000223	2.229802	0.755477	-0.000089
1132	1.1253e+02	-5.0501	-16.903487	0.000314	3.141993	1.064536	-0.000126
1133	1.1263e+02	-5.0950	-17.020564	0.000294	2.939284	0.995856	-0.000118
1134	1.1273e+02	-5.1432	-17.190124	0.000426	4.256894	1.442275	-0.000170
1135	1.1283e+02	-5.1785	-17.242607	0.000132	1.317610	0.446418	-0.000053
1136	1.1293e+02	-5.2186	-17.351609	0.000274	2.736575	0.927177	-0.000110
1137	1.1303e+02	-5.2571	-17.468686	0.000294	2.939284	0.995856	-0.000118
1138	1.1313e+02	-5.2988	-17.618060	0.000375	3.750121	1.270575	-0.000150
1139	1.1323e+02	-5.3309	-17.714952	0.000243	2.432511	0.824157	-0.000097
1140	1.1333e+02	-5.3678	-17.819917	0.000264	2.635220	0.892837	-0.000105
1141	1.1343e+02	-5.4127	-17.957180	0.000345	3.446057	1.167556	-0.000138
1142	1.1353e+02	-5.4608	-18.062145	0.000264	2.635220	0.892837	-0.000105
1143	1.1363e+02	-5.4945	-18.199408	0.000345	3.446057	1.167556	-0.000138
1144	1.1373e+02	-5.5266	-18.288225	0.000223	2.229802	0.755477	-0.000089
1145	1.1383e+02	-5.5811	-18.364930	0.000193	1.925738	0.652458	-0.000077
1146	1.1393e+02	-5.6100	-18.473933	0.000274	2.736575	0.927177	-0.000110
1147	1.1403e+02	-5.6549	-18.635419	0.000405	4.054185	1.373595	-0.000162
1148	1.1413e+02	-5.6902	-18.683864	0.000122	1.216255	0.412078	-0.000049
1149	1.1423e+02	-5.7351	-18.837275	0.000385	3.851475	1.304915	-0.000154
1150	1.1433e+02	-5.7768	-18.938204	0.000253	2.533865	0.858497	-0.000101
1151	1.1442e+02	-5.8186	-19.087578	0.000375	3.750121	1.270575	-0.000150
1152	1.1452e+02	-5.8458	-19.192543	0.000264	2.635220	0.892837	-0.000105
1153	1.1462e+02	-5.9020	-19.313657	0.000304	3.040638	1.030196	-0.000122
1154	1.1472e+02	-5.9292	-19.422660	0.000274	2.736575	0.927177	-0.000110
1155	1.1482e+02	-5.9774	-19.483217	0.000152	1.520319	0.515098	-0.000061
1156	1.1492e+02	-6.0159	-19.677000	0.000487	4.865022	1.648314	-0.000195
1157	1.1502e+02	-6.0544	-19.749668	0.000182	1.824383	0.618118	-0.000073
1158	1.1512e+02	-6.1073	-19.899042	0.000375	3.750121	1.270575	-0.000150
1159	1.1522e+02	-6.1346	-20.020156	0.000304	3.040638	1.030196	-0.000122
1160	1.1532e+02	-6.1731	-20.096862	0.000193	1.925738	0.652458	-0.000077
1161	1.1542e+02	-6.2052	-20.222013	0.000314	3.141993	1.064536	-0.000126
1162	1.1552e+02	-6.2581	-20.347164	0.000314	3.141993	1.064536	-0.000126
1163	1.1562e+02	-6.2998	-20.444055	0.000243	2.432511	0.824157	-0.000097
1164	1.1572e+02	-6.3191	-20.593429	0.000375	3.750121	1.270575	-0.000150
1165	1.1582e+02	-6.3736	-20.678209	0.000213	2.128447	0.721137	-0.000085
1166	1.1592e+02	-6.4025	-20.795286	0.000294	2.939284	0.995856	-0.000118
1167	1.1602e+02	-6.4458	-20.928512	0.000334	3.344702	1.133216	-0.000134
1168	1.1612e+02	-6.4795	-21.025403	0.000243	2.432511	0.824157	-0.000097
1169	1.1622e+02	-6.5292	-21.142480	0.000294	2.939284	0.995856	-0.000118
1170	1.1632e+02	-6.5709	-21.267631	0.000314	3.141993	1.064536	-0.000126
1171	1.1642e+02	-6.6143	-21.380671	0.000284	2.837929	0.961516	-0.000114
1172	1.1651e+02	-6.6463	-21.489674	0.000274	2.736575	0.927177	-0.000110
1173	1.1661e+02	-6.6784	-21.622899	0.000334	3.344702	1.133216	-0.000134
1174	1.1671e+02	-6.7410	-21.735939	0.000284	2.837929	0.961516	-0.000114
1175	1.1681e+02	-6.7683	-21.877239	0.000355	3.547412	1.201896	-0.000142
1176	1.1691e+02	-6.8100	-21.929721	0.000132	1.317610	0.446418	-0.000053
1177	1.1701e+02	-6.8340	-22.095244	0.000416	4.155539	1.407935	-0.000166
1178	1.1711e+02	-6.8790	-22.171949	0.000193	1.925738	0.652458	-0.000077
1179	1.1721e+02	-6.9335	-22.280952	0.000274	2.736575	0.927177	-0.000110
1180	1.1731e+02	-6.9592	-22.406103	0.000314	3.141993	1.064536	-0.000126
1181	1.1741e+02	-7.0025	-22.527217	0.000304	3.040638	1.030196	-0.000122
1182	1.1751e+02	-7.0490	-22.620072	0.000233	2.331156	0.789817	-0.000093
1183	1.1761e+02	-7.0923	-22.708889	0.000223	2.229802	0.755477	-0.000089
1184	1.1771e+02	-7.1196	-22.838077	0.000324	3.243348	1.098876	-0.000130
1185	1.1781e+02	-7.1725	-22.971302	0.000334	3.344702	1.133216	-0.000134
1186	1.1791e+02	-7.1982	-23.112602	0.000355	3.547412	1.201896	-0.000142
1187	1.1801e+02	-7.2543	-23.253902	0.000355	3.547412	1.201896	-0.000142
1188	1.1811e+02	-7.2848	-23.334645	0.000203	2.027092	0.686797	-0.000081
1189	1.1821e+02	-7.3265	-23.439610	0.000264	2.635220	0.892837	-0.000105
1190	1.1831e+02	-7.3618	-23.536501	0.000243	2.432511	0.824157	-0.000097
1191	1.1841e+02	-7.3987	-23.710098	0.000436	4.358248	1.476615	-0.000174
1192	1.1850e+02	-7.4404	-23.827175	0.000294	2.939284	0.995856	-0.000118
1193	1.1860e+02	-7.4837	-23.932141	0.000264	2.635220	0.892837	-0.000105
1194	1.1870e+02	-7.5158	-24.065366	0.000334	3.344702	1.133216	-0.000134
1195	1.1880e+02	-7.5688	-24.158220	0.000233	2.331156	0.789817	-0.000093
1196	1.1890e+02	-7.6041	-24.259149	0.000253	2.533865	0.858497	-0.000101
1197	1.1900e+02	-7.6410	-24.368151	0.000274	2.736575	0.927177	-0.000110
1198	1.1910e+02	-7.6843	-24.485228	0.000294	2.939284	0.995856	-0.000118
1199	1.1920e+02	-7.7260	-24.598268	0.000284	2.837929	0.961516	-0.000114
1200	1.1930e+02	-7.7661	-24.699196	0.000253	2.533865	0.858497	-0.000101
1201	1.1940e+02	-7.8062	-24.860682	0.000405	4.054185	1.373595	-0.000162
1202	1.1950e+02	-7.8351	-24.969685	0.000274	2.736575	0.927177	-0.000110
1203	1.1960e+02	-7.8832	-25.038316	0.000172	1.723028	0.583778	-0.000069
1204	1.1970e+02	-7.9169	-25.187690	0.000375	3.750121	1.270575	-0.000150
1205	1.1980e+02	-7.9586	-25.292655	0.000264	2.635220	0.892837	-0.000105
1206	1.1990e+02	-8.0003	-25.405695	0.000284	2.837929	0.961516	-0.000114
1207	1.2000e+02	-8.0436	-25.510661	0.000264	2.635220	0.892837	-0.000105
1208	1.2010e+02	-8.0821	-25.631775	0.000304	3.040638	1.030196	-0.000122
1209	1.2020e+02	-8.1270	-25.744815	0.000284	2.837929	0.961516	-0.000114
1210	1.2030e+02	-8.1527	-25.869966	0.000314	3.141993	1.064536	-0.000126
1211	1.2039e+02	-8.2040	-25.942634	0.000182	1.824383	0.618118	-0.000073
1212	1.2049e+02	-8.2361	-26.104120	0.000405	4.054185	1.373595	-0.000162
1213	1.2059e+02	-8.2827	-26.180825	0.000193	1.925738	0.652458	-0.000077
1214	1.2069e+02	-8.3260	-26.314051	0.000334	3.344702	1.133216	-0.000134
1215	1.2079e+02	-8.3661	-26.427091	0.000284	2.837929	0.961516	-0.000114
1216	1.2089e+02	-8.3998	-26.544167	0.000294	2.939284	0.995856	-0.000118
1217	1.2099e+02	-8.4367	-26.608762	0.000162	1.621674	0.549438	-0.000065
1218	1.2109e+02	-8.4752	-26.721801	0.000284	2.837929	0.961516	-0.000114
1219	1.2119e+02	-8.5169	-26.895398	0.000436	4.358248	1.476615	-0.000174
1220	1.2129e+02	-8.5634	-26.996327	0.000253	2.533865	0.858497	-0.000101
1221	1.2139e+02	-8.6051	-27.085144	0.000223	2.229802	0.755477	-0.000089
1222	1.2149e+02	-8.6340	-27.206258	0.000304	3.040638	1.030196	-0.000122
1223	1.2159e+02	-8.6917	-27.311223	0.000264	2.635220	0.892837	-0.000105
1224	1.2169e+02	-8.7254	-27.404077	0.000233	2.331156	0.789817	-0.000093
1225	1.2179e+02	-8.7607	-27.545377	0.000355	3.547412	1.201896	-0.000142
1226	1.2189e+02	-8.7944	-27.658417	0.000284	2.837929	0.961516	-0.000114
1227	1.2199e+02	-8.8361	-27.747234	0.000223	2.229802	0.755477	-0.000089
1228	1.2209e+02	-8.8810	-27.876422	0.000324	3.243348	1.098876	-0.000130
1229	1.2219e+02	-8.9179	-27.981388	0.000264	2.635220	0.892837	-0.000105
1230	1.2229e+02	-8.9564	-28.086353	0.000264	2.635220	0.892837	-0.000105
1231	1.2239e+02	-8.9997	-28.215542	0.000324	3.243348	1.098876	-0.000130
1232	1.2248e+02	-9.0399	-28.316470	0.000253	2.533865	0.858497	-0.000101
1233	1.2258e+02	-9.0800	-28.461807	0.000365	3.648766	1.236235	-0.000146
1234	1.2268e+02	-9.1104	-28.582921	0.000304	3.040638	1.030196	-0.000122
1235	1.2278e+02	-9.1538	-28.695961	0.000284	2.837929	0.961516	-0.000114
1236	1.2288e+02	-9.1987	-28.740369	0.000111	1.114901	0.377739	-0.000045
1237	1.2298e+02	-9.2308	-28.885706	0.000365	3.648766	1.236235	-0.000146
1238	1.2308e+02	-9.2677	-28.998746	0.000284	2.837929	0.961516	-0.000114
1239	1.2318e+02	-9.3190	-29.075452	0.000193	1.925738	0.652458	-0.000077
1240	1.2328e+02	-9.3607	-29.232900	0.000395	3.952830	1.339255	-0.000158
1241	1.2338e+02	-9.3976	-29.321717	0.000223	2.229802	0.755477	-0.000089
1242	1.2348e+02	-9.4265	-29.458979	0.000345	3.446057	1.167556	-0.000138
1243	1.2358e+02	-9.4698	-29.531648	0.000182	1.824383	0.618118	-0.000073
1244	1.2368e+02	-9.5163	-29.624502	0.000233	2.331156	0.789817	-0.000093
1245	1.2378e+02	-9.5612	-29.745616	0.000304	3.040638	1.030196	-0.000122
1246	1.2388e+02	-9.5933	-29.854619	0.000274	2.736575	0.927177	-0.000110
1247	1.2398e+02	-9.6334	-29.975733	0.000304	3.040638	1.030196	-0.000122
1248	1.2408e+02	-9.6703	-30.068587	0.000233	2.331156	0.789817	-0.000093
1249	1.2418e+02	-9.7152	-30.209887	0.000355	3.547412	1.201896	-0.000142
1250	1.2428e+02	-9.7425	-30.274481	0.000162	1.621674	0.549438	-0.000065
1251	1.2438e+02	-9.7922	-30.387521	0.000284	2.837929	0.961516	-0.000114
1252	1.2447e+02	-9.8339	-30.557080	0.000426	4.256894	1.442275	-0.000170
1253	1.2457e+02	-9.8676	-30.641860	0.000213	2.128447	0.721137	-0.000085
1254	1.2467e+02	-9.9110	-30.722603	0.000203	2.027092	0.686797	-0.000081
1255	1.2477e+02	-9.9511	-30.811420	0.000223	2.229802	0.755477	-0.000089
1256	1.2487e+02	-10.0008	-30.940608	0.000324	3.243348	1.098876	-0.000130
1257	1.2497e+02	-10.0297	-31.045574	0.000264	2.635220	0.892837	-0.000105
1258	1.2507e+02	-10.0601	-31.158614	0.000284	2.837929	0.961516	-0.000114
1259	1.2517e+02	-10.1083	-31.271653	0.000284	2.837929	0.961516	-0.000114
1260	1.2527e+02	-10.1596	-31.348359	0.000193	1.925738	0.652458	-0.000077
1261	1.2537e+02	-10.1997	-31.485622	0.000345	3.446057	1.167556	-0.000138
1262	1.2547e+02	-10.2382	-31.554253	0.000172	1.723028	0.583778	-0.000069
1263	1.2557e+02	-10.2639	-31.695553	0.000355	3.547412	1.201896	-0.000142
1264	1.2567e+02	-10.3184	-31.804555	0.000274	2.736575	0.927177	-0.000110
1265	1.2577e+02	-10.3473	-31.901447	0.000243	2.432511	0.824157	-0.000097
1266	1.2587e+02	-10.3810	-32.006412	0.000264	2.635220	0.892837	-0.000105
1267	1.2597e+02	-10.4259	-32.091192	0.000213	2.128447	0.721137	-0.000085
1268	1.2607e+02	-10.4740	-32.200195	0.000274	2.736575	0.927177	-0.000110
1269	1.2617e+02	-10.5141	-32.301123	0.000253	2.533865	0.858497	-0.000101
1270	1.2627e+02	-10.5478	-32.381866	0.000203	2.027092	0.686797	-0.000081
1271	1.2636e+02	-10.5879	-32.519128	0.000345	3.446057	1.167556	-0.000138
1272	1.2646e+02	-10.6377	-32.579685	0.000152	1.520319	0.515098	-0.000061
1273	1.2656e+02	-10.6617	-32.692725	0.000284	2.837929	0.961516	-0.000114
1274	1.2666e+02	-10.7083	-32.789616	0.000243	2.432511	0.824157	-0.000097
1275	1.2676e+02	-10.7500	-32.951102	0.000405	4.054185	1.373595	-0.000162
1276	1.2686e+02	-10.7917	-33.039919	0.000223	2.229802	0.755477	-0.000089
1277	1.2696e+02	-10.8254	-33.100476	0.000152	1.520319	0.515098	-0.000061
1278	1.2706e+02	-10.8703	-33.229664	0.000324	3.243348	1.098876	-0.000130
1279	1.2716e+02	-10.9088	-33.370964	0.000355	3.547412	1.201896	-0.000142
1280	1.2726e+02	-10.9489	-33.419410	0.000122	1.216255	0.412078	-0.000049
1281	1.2736e+02	-10.9874	-33.532449	0.000284	2.837929	0.961516	-0.000114
1282	1.2746e+02	-11.0307	-33.669712	0.000345	3.446057	1.167556	-0.000138
1283	1.2756e+02	-11.0708	-33.738343	0.000172	1.723028	0.583778	-0.000069
1284	1.2766e+02	-11.1013	-33.843309	0.000264	2.635220	0.892837	-0.000105
1285	1.2776e+02	-11.1494	-33.952312	0.000274	2.736575	0.927177	-0.000110
1286	1.2786e+02	-11.1815	-34.061314	0.000274	2.736575	0.927177	-0.000110
1287	1.2796e+02	-11.2344	-34.150131	0.000223	2.229802	0.755477	-0.000089
1288	1.2806e+02	-11.2665	-34.238948	0.000223	2.229802	0.755477	-0.000089
1289	1.2816e+02	-11.3082	-34.392359	0.000385	3.851475	1.304915	-0.000154
1290	1.2826e+02	-11.3451	-34.497325	0.000264	2.635220	0.892837	-0.000105
1291	1.2835e+02	-11.3852	-34.590179	0.000233	2.331156	0.789817	-0.000093
1292	1.2845e+02	-11.4302	-34.642662	0.000132	1.317610	0.446418	-0.000053
1293	1.2855e+02	-11.4703	-34.796073	0.000385	3.851475	1.304915	-0.000154
1294	1.2865e+02	-11.5072	-34.844519	0.000122	1.216255	0.412078	-0.000049
1295	1.2875e+02	-11.5473	-35.006004	0.000405	4.054185	1.373595	-0.000162
1296	1.2885e+02	-11.5842	-35.102895	0.000243	2.432511	0.824157	-0.000097
1297	1.2895e+02	-11.6275	-35.211898	0.000274	2.736575	0.927177	-0.000110
1298	1.2905e+02	-11.6724	-35.324938	0.000284	2.837929	0.961516	-0.000114
1299	1.2915e+02	-11.7157	-35.401643	0.000193	1.925738	0.652458	-0.000077
1300	1.2925e+02	-11.7478	-35.555054	0.000385	3.851475	1.304915	-0.000154
1301	1.2935e+02	-11.7799	-35.635797	0.000203	2.027092	0.686797	-0.000081
1302	1.2945e+02	-11.8248	-35.736726	0.000253	2.533865	0.858497	-0.000101
1303	1.2955e+02	-11.8585	-35.821505	0.000213	2.128447	0.721137	-0.000085
1304	1.2965e+02	-11.9082	-35.918397	0.000243	2.432511	0.824157	-0.000097
1305	1.2975e+02	-11.9355	-35.995102	0.000193	1.925738	0.652458	-0.000077
1306	1.2985e+02	-11.9820	-36.120253	0.000314	3.141993	1.064536	-0.000126
1307	1.2995e+02	-12.0253	-36.209070	0.000223	2.229802	0.755477	-0.000089
1308	1.3005e+02	-12.0719	-36.330185	0.000304	3.040638	1.030196	-0.000122
1309	1.3015e+02	-12.1023	-36.459373	0.000324	3.243348	1.098876	-0.000130
1310	1.3025e+02	-12.1424	-36.540116	0.000203	2.027092	0.686797	-0.000081
1311	1.3034e+02	-12.1825	-36.608747	0.000172	1.723028	0.583778	-0.000069
1312	1.3044e+02	-12.2226	-36.746009	0.000345	3.446057	1.167556	-0.000138
1313	1.3054e+02	-12.2644	-36.830789	0.000213	2.128447	0.721137	-0.000085
1314	1.3064e+02	-12.2980	-36.939792	0.000274	2.736575	0.927177	-0.000110
1315	1.3074e+02	-12.3333	-37.044758	0.000264	2.635220	0.892837	-0.000105
1316	1.3084e+02	-12.3879	-37.117426	0.000182	1.824383	0.618118	-0.000073
1317	1.3094e+02	-12.4296	-37.242577	0.000314	3.141993	1.064536	-0.000126
1318	1.3104e+02	-12.4665	-37.347543	0.000264	2.635220	0.892837	-0.000105
1319	1.3114e+02	-12.5034	-37.436360	0.000223	2.229802	0.755477	-0.000089
1320	1.3124e+02	-12.5499	-37.529214	0.000233	2.331156	0.789817	-0.000093
1321	1.3134e+02	-12.5852	-37.662439	0.000334	3.344702	1.133216	-0.000134
1322	1.3144e+02	-12.6269	-37.775479	0.000284	2.837929	0.961516	-0.000114
1323	1.3154e+02	-12.6638	-37.872370	0.000243	2.432511	0.824157	-0.000097
1324	1.3164e+02	-12.6959	-37.989447	0.000294	2.939284	0.995856	-0.000118
1325	1.3174e+02	-12.7456	-38.086339	0.000243	2.432511	0.824157	-0.000097
1326	1.3184e+02	-12.7809	-38.175156	0.000223	2.229802	0.755477	-0.000089
1327	1.3194e+02	-12.8178	-38.263973	0.000223	2.229802	0.755477	-0.000089
1328	1.3204e+02	-12.8579	-38.389124	0.000314	3.141993	1.064536	-0.000126
1329	1.3214e+02	-12.9044	-38.481978	0.000233	2.331156	0.789817	-0.000093
1330	1.3224e+02	-12.9462	-38.574832	0.000233	2.331156	0.789817	-0.000093
1331	1.3234e+02	-12.9847	-38.708057	0.000334	3.344702	1.133216	-0.000134
1332	1.3243e+02	-13.0151	-38.788800	0.000203	2.027092	0.686797	-0.000081
1333	1.3253e+02	-13.0569	-38.897803	0.000274	2.736575	0.927177	-0.000110
1334	1.3263e+02	-13.0954	-39.002768	0.000264	2.635220	0.892837	-0.000105
1335	1.3273e+02	-13.1403	-39.111771	0.000274	2.736575	0.927177	-0.000110
1336	1.3283e+02	-13.1804	-39.253071	0.000355	3.547412	1.201896	-0.000142
1337	1.3293e+02	-13.2157	-39.349962	0.000243	2.432511	0.824157	-0.000097
1338	1.3303e+02	-13.2574	-39.458965	0.000274	2.736575	0.927177	-0.000110
1339	1.3313e+02	-13.2959	-39.507410	0.000122	1.216255	0.412078	-0.000049
1340	1.3323e+02	-13.3312	-39.676970	0.000426	4.256894	1.442275	-0.000170
1341	1.3333e+02	-13.3841	-39.785973	0.000274	2.736575	0.927177	-0.000110
1342	1.3343e+02	-13.4226	-39.842493	0.000142	1.418965	0.480758	-0.000057
1343	1.3353e+02	-13.4643	-39.927272	0.000213	2.128447	0.721137	-0.000085
1344	1.3363e+02	-13.4916	-40.088758	0.000405	4.054185	1.373595	-0.000162
1345	1.3373e+02	-13.5494	-40.129129	0.000101	1.013546	0.343399	-0.000041
1346	1.3383e+02	-13.5782	-40.262355	0.000334	3.344702	1.133216	-0.000134
1347	1.3393e+02	-13.6199	-40.367320	0.000264	2.635220	0.892837	-0.000105
1348	1.3403e+02	-13.6633	-40.468249	0.000253	2.533865	0.858497	-0.000101
1349	1.3413e+02	-13.7001	-40.561103	0.000233	2.331156	0.789817	-0.000093
1350	1.3423e+02	-13.7467	-40.637808	0.000193	1.925738	0.652458	-0.000077
1351	1.3432e+02	-13.7739	-40.807368	0.000426	4.256894	1.442275	-0.000170
1352	1.3442e+02	-13.8189	-40.892148	0.000213	2.128447	0.721137	-0.000085
1353	1.3452e+02	-13.8606	-41.029411	0.000345	3.446057	1.167556	-0.000138
1354	1.3462e+02	-13.8959	-41.102079	0.000182	1.824383	0.618118	-0.000073
1355	1.3472e+02	-13.9360	-41.239342	0.000345	3.446057	1.167556	-0.000138
1356	1.3482e+02	-13.9697	-41.328159	0.000223	2.229802	0.755477	-0.000089
1357	1.3492e+02	-14.0066	-41.453310	0.000314	3.141993	1.064536	-0.000126
1358	1.3502e+02	-14.0579	-41.538090	0.000213	2.128447	0.721137	-0.000085
1359	1.3512e+02	-14.0948	-41.667278	0.000324	3.243348	1.098876	-0.000130
1360	1.3522e+02	-14.1413	-41.715724	0.000122	1.216255	0.412078	-0.000049
1361	1.3532e+02	-14.1766	-41.824726	0.000274	2.736575	0.927177	-0.000110
1362	1.3542e+02	-14.2199	-41.966026	0.000355	3.547412	1.201896	-0.000142
1363	1.3552e+02	-14.2488	-42.079066	0.000284	2.837929	0.961516	-0.000114
1364	1.3562e+02	-14.2969	-42.179994	0.000253	2.533865	0.858497	-0.000101
1365	1.3572e+02	-14.3338	-42.248625	0.000172	1.723028	0.583778	-0.000069
1366	1.3582e+02	-14.3675	-42.381851	0.000334	3.344702	1.133216	-0.000134
1367	1.3592e+02	-14.4140	-42.478742	0.000243	2.432511	0.824157	-0.000097
1368	1.3602e+02	-14.4573	-42.595819	0.000294	2.939284	0.995856	-0.000118
1369	1.3612e+02	-14.4926	-42.668488	0.000182	1.824383	0.618118	-0.000073
1370	1.3622e+02	-14.5360	-42.829973	0.000405	4.054185	1.373595	-0.000162
1371	1.3631e+02	-14.5712	-42.882456	0.000132	1.317610	0.446418	-0.000053
1372	1.3641e+02	-14.6162	-43.011644	0.000324	3.243348	1.098876	-0.000130
1373	1.3651e+02	-14.6563	-43.096424	0.000213	2.128447	0.721137	-0.000085
1374	1.3661e+02	-14.6996	-43.253872	0.000395	3.952830	1.339255	-0.000158
1375	1.3671e+02	-14.7253	-43.294244	0.000101	1.013546	0.343399	-0.000041
1376	1.3681e+02	-14.7734	-43.427469	0.000334	3.344702	1.133216	-0.000134
1377	1.3691e+02	-14.8055	-43.532435	0.000264	2.635220	0.892837	-0.000105
1378	1.3701e+02	-14.8552	-43.584917	0.000132	1.317610	0.446418	-0.000053
1379	1.3711e+02	-14.8889	-43.730254	0.000365	3.648766	1.236235	-0.000146
1380	1.3721e+02	-14.9338	-43.806960	0.000193	1.925738	0.652458	-0.000077
1381	1.3731e+02	-14.9691	-43.899814	0.000233	2.331156	0.789817	-0.000093
1382	1.3741e+02	-15.0172	-44.033039	0.000334	3.344702	1.133216	-0.000134
1383	1.3751e+02	-15.0525	-44.154154	0.000304	3.040638	1.030196	-0.000122
1384	1.3761e+02	-15.0910	-44.263156	0.000274	2.736575	0.927177	-0.000110
1385	1.3771e+02	-15.1343	-44.380233	0.000294	2.939284	0.995856	-0.000118
1386	1.3781e+02	-15.1632	-44.481162	0.000253	2.533865	0.858497	-0.000101
1387	1.3791e+02	-15.2161	-44.525570	0.000111	1.114901	0.377739	-0.000045
1388	1.3801e+02	-15.2482	-44.666870	0.000355	3.547412	1.201896	-0.000142
1389	1.3811e+02	-15.2915	-44.759724	0.000233	2.331156	0.789817	-0.000093
1390	1.3821e+02	-15.3284	-44.860652	0.000253	2.533865	0.858497	-0.000101
1391	1.3831e+02	-15.3718	-44.961581	0.000253	2.533865	0.858497	-0.000101
1392	1.3840e+02	-15.4151	-45.050398	0.000223	2.229802	0.755477	-0.000089
1393	1.3850e+02	-15.4456	-45.139215	0.000223	2.229802	0.755477	-0.000089
1394	1.3860e+02	-15.4937	-45.252254	0.000284	2.837929	0.961516	-0.000114
1395	1.3870e+02	-15.5290	-45.349146	0.000243	2.432511	0.824157	-0.000097
1396	1.3880e+02	-15.5755	-45.474297	0.000314	3.141993	1.064536	-0.000126
1397	1.3890e+02	-15.6044	-45.611560	0.000345	3.446057	1.167556	-0.000138
1398	1.3900e+02	-15.6493	-45.696339	0.000213	2.128447	0.721137	-0.000085
1399	1.3910e+02	-15.6846	-45.773045	0.000193	1.925738	0.652458	-0.000077
1400	1.3920e+02	-15.7327	-45.946642	0.000436	4.358248	1.476615	-0.000174
1401	1.3930e+02	-15.7712	-45.954716	0.000020	0.202709	0.068680	-0.000008
1402	1.3940e+02	-15.8145	-46.083904	0.000324	3.243348	1.098876	-0.000130
1403	1.3950e+02	-15.8578	-46.184833	0.000253	2.533865	0.858497	-0.000101
1404	1.3960e+02	-15.8723	-46.330170	0.000365	3.648766	1.236235	-0.000146
1405	1.3970e+02	-15.9300	-46.394764	0.000162	1.621674	0.549438	-0.000065
1406	1.3980e+02	-15.9750	-46.511841	0.000294	2.939284	0.995856	-0.000118
1407	1.3990e+02	-16.0070	-46.592584	0.000203	2.027092	0.686797	-0.000081
1408	1.4000e+02	-16.0471	-46.713698	0.000304	3.040638	1.030196	-0.000122
1409	1.4010e+02	-16.0872	-46.822700	0.000274	2.736575	0.927177	-0.000110
1410	1.4020e+02	-16.1241	-46.863072	0.000101	1.013546	0.343399	-0.000041
1411	1.4029e+02	-16.1723	-46.976111	0.000284	2.837929	0.961516	-0.000114
1412	1.4039e+02	-16.2044	-47.093188	0.000294	2.939284	0.995856	-0.000118
1413	1.4049e+02	-16.2413	-47.182005	0.000223	2.229802	0.755477	-0.000089
1414	1.4059e+02	-16.2926	-47.266785	0.000213	2.128447	0.721137	-0.000085
1415	1.4069e+02	-16.3215	-47.367714	0.000253	2.533865	0.858497	-0.000101
1416	1.4079e+02	-16.3712	-47.525162	0.000395	3.952830	1.339255	-0.000158
1417	1.4089e+02	-16.4065	-47.581682	0.000142	1.418965	0.480758	-0.000057
1418	1.4099e+02	-16.4450	-47.686647	0.000264	2.635220	0.892837	-0.000105
1419	1.4109e+02	-16.4963	-47.803724	0.000294	2.939284	0.995856	-0.000118
1420	1.4119e+02	-16.5284	-47.876393	0.000182	1.824383	0.618118	-0.000073
1421	1.4129e+02	-16.5589	-48.005581	0.000324	3.243348	1.098876	-0.000130
1422	1.4139e+02	-16.6038	-48.086324	0.000203	2.027092	0.686797	-0.000081
1423	1.4149e+02	-16.6455	-48.175141	0.000223	2.229802	0.755477	-0.000089
1424	1.4159e+02	-16.6856	-48.320478	0.000365	3.648766	1.236235	-0.000146
1425	1.4169e+02	-16.7289	-48.360849	0.000101	1.013546	0.343399	-0.000041
1426	1.4179e+02	-16.7578	-48.461777	0.000253	2.533865	0.858497	-0.000101
1427	1.4189e+02	-16.7979	-48.574817	0.000284	2.837929	0.961516	-0.000114
1428	1.4199e+02	-16.8493	-48.687857	0.000284	2.837929	0.961516	-0.000114
1429	1.4209e+02	-16.8829	-48.772637	0.000213	2.128447	0.721137	-0.000085
1430	1.4219e+02	-16.9279	-48.885677	0.000284	2.837929	0.961516	-0.000114
1431	1.4228e+02	-16.9616	-48.982568	0.000243	2.432511	0.824157	-0.000097
1432	1.4238e+02	-17.0113	-49.079459	0.000243	2.432511	0.824157	-0.000097
1433	1.4248e+02	-17.0418	-49.123868	0.000111	1.114901	0.377739	-0.000045
1434	1.4258e+02	-17.0899	-49.281316	0.000395	3.952830	1.339255	-0.000158
1435	1.4268e+02	-17.1220	-49.362059	0.000203	2.027092	0.686797	-0.000081
1436	1.4278e+02	-17.1701	-49.430690	0.000172	1.723028	0.583778	-0.000069
1437	1.4288e+02	-17.2070	-49.535656	0.000264	2.635220	0.892837	-0.000105
1438	1.4298e+02	-17.2439	-49.656770	0.000304	3.040638	1.030196	-0.000122
1439	1.4308e+02	-17.2984	-49.753661	0.000243	2.432511	0.824157	-0.000097
1440	1.4318e+02	-17.3177	-49.794032	0.000101	1.013546	0.343399	-0.000041
1441	1.4328e+02	-17.3626	-49.931295	0.000345	3.446057	1.167556	-0.000138
1442	1.4338e+02	-17.4043	-50.048372	0.000294	2.939284	0.995856	-0.000118
1443	1.4348e+02	-17.4348	-50.125077	0.000193	1.925738	0.652458	-0.000077
1444	1.4358e+02	-17.4845	-50.177560	0.000132	1.317610	0.446418	-0.000053
1445	1.4368e+02	-17.5166	-50.318860	0.000355	3.547412	1.201896	-0.000142
1446	1.4378e+02	-17.5631	-50.427863	0.000274	2.736575	0.927177	-0.000110
1447	1.4388e+02	-17.5968	-50.488420	0.000152	1.520319	0.515098	-0.000061
1448	1.4398e+02	-17.6434	-50.601459	0.000284	2.837929	0.961516	-0.000114
1449	1.4408e+02	-17.6786	-50.682202	0.000203	2.027092	0.686797	-0.000081
1450	1.4418e+02	-17.7188	-50.779093	0.000243	2.432511	0.824157	-0.000097
1451	1.4428e+02	-17.7669	-50.880022	0.000253	2.533865	0.858497	-0.000101
1452	1.4437e+02	-17.7893	-50.972876	0.000233	2.331156	0.789817	-0.000093
1453	1.4447e+02	-17.8359	-51.081878	0.000274	2.736575	0.927177	-0.000110
1454	1.4457e+02	-17.8872	-51.186844	0.000264	2.635220	0.892837	-0.000105
1455	1.4467e+02	-17.9193	-51.271624	0.000213	2.128447	0.721137	-0.000085
1456	1.4477e+02	-17.9642	-51.356404	0.000213	2.128447	0.721137	-0.000085
1457	1.4487e+02	-18.0059	-51.469444	0.000284	2.837929	0.961516	-0.000114
1458	1.4497e+02	-18.0332	-51.562298	0.000233	2.331156	0.789817	-0.000093
1459	1.4507e+02	-18.0845	-51.663226	0.000253	2.533865	0.858497	-0.000101
1460	1.4517e+02	-18.1278	-51.731857	0.000172	1.723028	0.583778	-0.000069
1461	1.4527e+02	-18.1583	-51.836823	0.000264	2.635220	0.892837	-0.000105
1462	1.4537e+02	-18.2080	-51.986197	0.000375	3.750121	1.270575	-0.000150
1463	1.4547e+02	-18.2481	-52.058865	0.000182	1.824383	0.618118	-0.000073
1464	1.4557e+02	-18.2738	-52.147682	0.000223	2.229802	0.755477	-0.000089
1465	1.4567e+02	-18.3203	-52.208239	0.000152	1.520319	0.515098	-0.000061
1466	1.4577e+02	-18.3637	-52.349539	0.000355	3.547412	1.201896	-0.000142
1467	1.4587e+02	-18.4006	-52.458542	0.000274	2.736575	0.927177	-0.000110
1468	1.4597e+02	-18.4519	-52.579656	0.000304	3.040638	1.030196	-0.000122
1469	1.4607e+02	-18.4759	-52.648287	0.000172	1.723028	0.583778	-0.000069
1470	1.4617e+02	-18.5273	-52.741141	0.000233	2.331156	0.789817	-0.000093
1471	1.4626e+02	-18.5546	-52.829958	0.000223	2.229802	0.755477	-0.000089
1472	1.4636e+02	-18.5947	-52.930887	0.000253	2.533865	0.858497	-0.000101
1473	1.4646e+02	-18.6428	-53.039889	0.000274	2.736575	0.927177	-0.000110
1474	1.4656e+02	-18.6781	-53.161003	0.000304	3.040638	1.030196	-0.000122
1475	1.4666e+02	-18.7150	-53.229635	0.000172	1.723028	0.583778	-0.000069
1476	1.4676e+02	-18.7631	-53.314415	0.000213	2.128447	0.721137	-0.000085
1477	1.4686e+02	-18.8016	-53.419380	0.000264	2.635220	0.892837	-0.000105
1478	1.4696e+02	-18.8417	-53.532420	0.000284	2.837929	0.961516	-0.000114
1479	1.4706e+02	-18.8770	-53.621237	0.000223	2.229802	0.755477	-0.000089
1480	1.4716e+02	-18.9219	-53.710054	0.000223	2.229802	0.755477	-0.000089
1481	1.4726e+02	-18.9604	-53.790797	0.000203	2.027092	0.686797	-0.000081
1482	1.4736e+02	-19.0005	-53.940171	0.000375	3.750121	1.270575	-0.000150
1483	1.4746e+02	-19.0294	-54.004765	0.000162	1.621674	0.549438	-0.000065
1484	1.4756e+02	-19.0727	-54.121842	0.000294	2.939284	0.995856	-0.000118
1485	1.4766e+02	-19.1112	-54.218733	0.000243	2.432511	0.824157	-0.000097
1486	1.4776e+02	-19.1529	-54.299476	0.000203	2.027092	0.686797	-0.000081
1487	1.4786e+02	-19.1946	-54.384256	0.000213	2.128447	0.721137	-0.000085
1488	1.4796e+02	-19.2444	-54.469035	0.000213	2.128447	0.721137	-0.000085
1489	1.4806e+02	-19.2716	-54.606298	0.000345	3.446057	1.167556	-0.000138
1490	1.4816e+02	-19.3150	-54.683004	0.000193	1.925738	0.652458	-0.000077
1491	1.4825e+02	-19.3519	-54.800081	0.000294	2.939284	0.995856	-0.000118
1492	1.4835e+02	-19.3936	-54.905046	0.000264	2.635220	0.892837	-0.000105
1493	1.4845e+02	-19.4417	-54.993863	0.000223	2.229802	0.755477	-0.000089
1494	1.4855e+02	-19.4690	-55.127089	0.000334	3.344702	1.133216	-0.000134
1495	1.4865e+02	-19.5139	-55.228017	0.000253	2.533865	0.858497	-0.000101
1496	1.4875e+02	-19.5508	-55.345094	0.000294	2.939284	0.995856	-0.000118
1497	1.4885e+02	-19.5957	-55.393539	0.000122	1.216255	0.412078	-0.000049
1498	1.4895e+02	-19.6278	-55.522728	0.000324	3.243348	1.098876	-0.000130
1499	1.4905e+02	-19.6679	-55.611545	0.000223	2.229802	0.755477	-0.000089
1500	1.4915e+02	-19.7208	-55.728622	0.000294	2.939284	0.995856	-0.000118
1501	1.4925e+02	-19.7529	-55.845699	0.000294	2.939284	0.995856	-0.000118
1502	1.4935e+02	-19.7882	-55.938553	0.000233	2.331156	0.789817	-0.000093
1503	1.4945e+02	-19.8363	-56.047555	0.000274	2.736575	0.927177	-0.000110
1504	1.4955e+02	-19.8652	-56.160595	0.000284	2.837929	0.961516	-0.000114
1505	1.4965e+02	-19.9198	-56.249412	0.000223	2.229802	0.755477	-0.000089
1506	1.4975e+02	-19.9422	-56.338229	0.000223	2.229802	0.755477	-0.000089
1507	1.4985e+02	-19.9968	-56.443195	0.000264	2.635220	0.892837	-0.000105
1508	1.4995e+02	-19.9551	-56.366489	0.000193	1.925738	0.652458	0.000077
1509	1.5005e+02	-19.9166	-56.314006	0.000132	1.317610	0.446418	0.000053
1510	1.5015e+02	-19.8780	-56.253449	0.000152	1.520319	0.515098	0.000061
1511	1.5025e+02	-19.8315	-56.168670	0.000213	2.128447	0.721137	0.000085
1512	1.5034e+02	-19.7898	-56.108112	0.000152	1.520319	0.515098	0.000061
1513	1.5044e+02	-19.7593	-56.075815	0.000081	0.810837	0.274719	0.000032
1514	1.5054e+02	-19.7112	-55.986998	0.000223	2.229802	0.755477	0.000089
1515	1.5064e+02	-19.6791	-55.922404	0.000162	1.621674	0.549438	0.000065
1516	1.5074e+02	-19.6374	-55.841662	0.000203	2.027092	0.686797	0.000081
1517	1.5084e+02	-19.5941	-55.764956	0.000193	1.925738	0.652458	0.000077
1518	1.5094e+02	-19.5476	-55.688250	0.000193	1.925738	0.652458	0.000077
1519	1.5104e+02	-19.5123	-55.631730	0.000142	1.418965	0.480758	0.000057
1520	1.5114e+02	-19.4690	-55.599433	0.000081	0.810837	0.274719	0.000032
1521	1.5124e+02	-19.4321	-55.482356	0.000294	2.939284	0.995856	0.000118
1522	1.5134e+02	-19.3936	-55.437948	0.000111	1.114901	0.377739	0.000045
1523	1.5144e+02	-19.3470	-55.421799	0.000041	0.405418	0.137359	0.000016
1524	1.5154e+02	-19.3069	-55.268388	0.000385	3.851475	1.304915	0.000154
1525	1.5164e+02	-19.2749	-55.215905	0.000132	1.317610	0.446418	0.000053
1526	1.5174e+02	-19.2412	-55.143237	0.000182	1.824383	0.618118	0.000073
1527	1.5184e+02	-19.2027	-55.110940	0.000081	0.810837	0.274719	0.000032
1528	1.5194e+02	-19.1626	-55.034234	0.000193	1.925738	0.652458	0.000077
1529	1.5204e+02	-19.1112	-54.941380	0.000233	2.331156	0.789817	0.000093
1530	1.5214e+02	-19.0743	-54.884860	0.000142	1.418965	0.480758	0.000057
1531	1.5224e+02	-19.0374	-54.804118	0.000203	2.027092	0.686797	0.000081
1532	1.5233e+02	-19.0037	-54.735486	0.000172	1.723028	0.583778	0.000069
1533	1.5243e+02	-18.9572	-54.626484	0.000274	2.736575	0.927177	0.000110
1534	1.5253e+02	-18.9155	-54.561889	0.000162	1.621674	0.549438	0.000065
1535	1.5263e+02	-18.8834	-54.497295	0.000162	1.621674	0.549438	0.000065
1536	1.5273e+02	-18.8385	-54.469035	0.000071	0.709482	0.240379	0.000028
1537	1.5283e+02	-18.7952	-54.380218	0.000223	2.229802	0.755477	0.000089
1538	1.5293e+02	-18.7567	-54.295439	0.000213	2.128447	0.721137	0.000085
1539	1.5303e+02	-18.7150	-54.230844	0.000162	1.621674	0.549438	0.000065
1540	1.5313e+02	-18.6829	-54.121842	0.000274	2.736575	0.927177	0.000110
1541	1.5323e+02	-18.6428	-54.041099	0.000203	2.027092	0.686797	0.000081
1542	1.5333e+02	-18.5995	-53.984579	0.000142	1.418965	0.480758	0.000057
1543	1.5343e+02	-18.5626	-53.871539	0.000284	2.837929	0.961516	0.000114
1544	1.5353e+02	-18.5128	-53.806945	0.000162	1.621674	0.549438	0.000065
1545	1.5363e+02	-18.4727	-53.714091	0.000233	2.331156	0.789817	0.000093
1546	1.5373e+02	-18.4487	-53.653534	0.000152	1.520319	0.515098	0.000061
1547	1.5383e+02	-18.4038	-53.564717	0.000223	2.229802	0.755477	0.000089
1548	1.5393e+02	-18.3620	-53.471863	0.000233	2.331156	0.789817	0.000093
1549	1.5403e+02	-18.3155	-53.370934	0.000253	2.533865	0.858497	0.000101
1550	1.5413e+02	-18.2802	-53.298266	0.000182	1.824383	0.618118	0.000073
1551	1.5422e+02	-18.2385	-53.229635	0.000172	1.723028	0.583778	0.000069
1552	1.5432e+02	-18.2080	-53.152929	0.000193	1.925738	0.652458	0.000077
1553	1.5442e+02	-18.1631	-53.019704	0.000334	3.344702	1.133216	0.000134
1554	1.5452e+02	-18.1262	-53.072186	-0.000132	-1.317610	-0.446418	-0.000053
1555	1.5462e+02	-18.0829	-52.942998	0.000324	3.243348	1.098876	0.000130
1556	1.5472e+02	-18.0380	-52.797661	0.000365	3.648766	1.236235	0.000146
1557	1.5482e+02	-18.0027	-52.765364	0.000081	0.810837	0.274719	0.000032
1558	1.5492e+02	-17.9578	-52.676547	0.000223	2.229802	0.755477	0.000089
1559	1.5502e+02	-17.9257	-52.615990	0.000152	1.520319	0.515098	0.000061
1560	1.5512e+02	-17.8808	-52.523136	0.000233	2.331156	0.789817	0.000093
1561	1.5522e+02	-17.8423	-52.438356	0.000213	2.128447	0.721137	0.000085
1562	1.5532e+02	-17.8006	-52.377799	0.000152	1.520319	0.515098	0.000061
1563	1.5542e+02	-17.7701	-52.272834	0.000264	2.635220	0.892837	0.000105
1564	1.5552e+02	-17.7252	-52.216314	0.000142	1.418965	0.480758	0.000057
1565	1.5562e+02	-17.6802	-52.127497	0.000223	2.229802	0.755477	0.000089
1566	1.5572e+02	-17.6369	-52.062902	0.000162	1.621674	0.549438	0.000065
1567	1.5582e+02	-17.6000	-51.974085	0.000223	2.229802	0.755477	0.000089
1568	1.5592e+02	-17.5583	-51.893343	0.000203	2.027092	0.686797	0.000081
1569	1.5602e+02	-17.5246	-51.792414	0.000253	2.533865	0.858497	0.000101
1570	1.5612e+02	-17.4781	-51.691486	0.000253	2.533865	0.858497	0.000101
1571	1.5622e+02	-17.4492	-51.630929	0.000152	1.520319	0.515098	0.000061
1572	1.5631e+02	-17.4043	-51.509815	0.000304	3.040638	1.030196	0.000122
1573	1.5641e+02	-17.3626	-51.469444	0.000101	1.013546	0.343399	0.000041
1574	1.5651e+02	-17.3209	-51.352367	0.000294	2.939284	0.995856	0.000118
1575	1.5661e+02	-17.2888	-51.299884	0.000132	1.317610	0.446418	0.000053
1576	1.5671e+02	-17.2407	-51.194918	0.000264	2.635220	0.892837	0.000105
1577	1.5681e+02	-17.2038	-51.089953	0.000264	2.635220	0.892837	0.000105
1578	1.5691e+02	-17.1669	-51.001136	0.000223	2.229802	0.755477	0.000089
1579	1.5701e+02	-17.1300	-50.936542	0.000162	1.621674	0.549438	0.000065
1580	1.5711e+02	-17.0819	-50.835613	0.000253	2.533865	0.858497	0.000101
1581	1.5721e+02	-17.0386	-50.791205	0.000111	1.114901	0.377739	0.000045
1582	1.5731e+02	-17.0113	-50.694313	0.000243	2.432511	0.824157	0.000097
1583	1.5741e+02	-16.9680	-50.585311	0.000274	2.736575	0.927177	0.000110
1584	1.5751e+02	-16.9263	-50.520717	0.000162	1.621674	0.549438	0.000065
1585	1.5761e+02	-16.8990	-50.403640	0.000294	2.939284	0.995856	0.000118
1586	1.5771e+02	-16.8412	-50.322897	0.000203	2.027092	0.686797	0.000081
1587	1.5781e+02	-16.8059	-50.185634	0.000345	3.446057	1.167556	0.000138
1588	1.5791e+02	-16.7658	-50.153337	0.000081	0.810837	0.274719	0.000032
1589	1.5801e+02	-16.7321	-50.056446	0.000243	2.432511	0.824157	0.000097
1590	1.5811e+02	-16.6856	-49.991852	0.000162	1.621674	0.549438	0.000065
1591	1.5821e+02	-16.6375	-49.866701	0.000314	3.141993	1.064536	0.000126
1592	1.5830e+02	-16.6038	-49.806144	0.000152	1.520319	0.515098	0.000061
1593	1.5840e+02	-16.5669	-49.713289	0.000233	2.331156	0.789817	0.000093
1594	1.5850e+02	-16.5316	-49.640621	0.000182	1.824383	0.618118	0.000073
1595	1.5860e+02	-16.4819	-49.515470	0.000314	3.141993	1.064536	0.000126
1596	1.5870e+02	-16.4450	-49.446839	0.000172	1.723028	0.583778	0.000069
1597	1.5880e+02	-16.4145	-49.378207	0.000172	1.723028	0.583778	0.000069
1598	1.5890e+02	-16.3600	-49.305539	0.000182	1.824383	0.618118	0.000073
1599	1.5900e+02	-16.3215	-49.196536	0.000274	2.736575	0.927177	0.000110
1600	1.5910e+02	-16.2910	-49.071385	0.000314	3.141993	1.064536	0.000126
1601	1.5920e+02	-16.2557	-48.998716	0.000182	1.824383	0.618118	0.000073
1602	1.5930e+02	-16.2028	-48.893751	0.000264	2.635220	0.892837	0.000105
1603	1.5940e+02	-16.1707	-48.833194	0.000152	1.520319	0.515098	0.000061
1604	1.5950e+02	-16.1274	-48.695931	0.000345	3.446057	1.167556	0.000138
1605	1.5960e+02	-16.0985	-48.651523	0.000111	1.114901	0.377739	0.000045
1606	1.5970e+02	-16.0536	-48.550594	0.000253	2.533865	0.858497	0.000101
1607	1.5980e+02	-16.0022	-48.441592	0.000274	2.736575	0.927177	0.000110
1608	1.5990e+02	-15.9669	-48.372960	0.000172	1.723028	0.583778	0.000069
1609	1.6000e+02	-15.9252	-48.280106	0.000233	2.331156	0.789817	0.000093
1610	1.6010e+02	-15.8931	-48.146881	0.000334	3.344702	1.133216	0.000134
1611	1.6019e+02	-15.8482	-48.037878	0.000274	2.736575	0.927177	0.000110
1612	1.6029e+02	-15.8065	-47.997507	0.000101	1.013546	0.343399	0.000041
1613	1.6039e+02	-15.7760	-47.868318	0.000324	3.243348	1.098876	0.000130
1614	1.6049e+02	-15.7263	-47.807761	0.000152	1.520319	0.515098	0.000061
1615	1.6059e+02	-15.6846	-47.710870	0.000243	2.432511	0.824157	0.000097
1616	1.6069e+02	-15.6493	-47.597830	0.000284	2.837929	0.961516	0.000114
1617	1.6079e+02	-15.6092	-47.504976	0.000233	2.331156	0.789817	0.000093
1618	1.6089e+02	-15.5707	-47.444419	0.000152	1.520319	0.515098	0.000061
1619	1.6099e+02	-15.5322	-47.339454	0.000264	2.635220	0.892837	0.000105
1620	1.6109e+02	-15.4873	-47.246600	0.000233	2.331156	0.789817	0.000093
1621	1.6119e+02	-15.4536	-47.137597	0.000274	2.736575	0.927177	0.000110
1622	1.6129e+02	-15.4119	-47.077040	0.000152	1.520319	0.515098	0.000061
1623	1.6139e+02	-15.3734	-46.964000	0.000284	2.837929	0.961516	0.000114
1624	1.6149e+02	-15.3381	-46.871146	0.000233	2.331156	0.789817	0.000093
1625	1.6159e+02	-15.3060	-46.750032	0.000304	3.040638	1.030196	0.000122
1626	1.6169e+02	-15.2530	-46.677363	0.000182	1.824383	0.618118	0.000073
1627	1.6179e+02	-15.2145	-46.568361	0.000274	2.736575	0.927177	0.000110
1628	1.6189e+02	-15.1632	-46.515878	0.000132	1.317610	0.446418	0.000053
1629	1.6199e+02	-15.1440	-46.402838	0.000284	2.837929	0.961516	0.000114
1630	1.6209e+02	-15.0910	-46.314021	0.000223	2.229802	0.755477	0.000089
1631	1.6219e+02	-15.0589	-46.233278	0.000203	2.027092	0.686797	0.000081
1632	1.6228e+02	-15.0172	-46.091979	0.000355	3.547412	1.201896	0.000142
1633	1.6238e+02	-14.9675	-46.007199	0.000213	2.128447	0.721137	0.000085
1634	1.6248e+02	-14.9354	-45.934530	0.000182	1.824383	0.618118	0.000073
1635	1.6258e+02	-14.8889	-45.821491	0.000284	2.837929	0.961516	0.000114
1636	1.6268e+02	-14.8440	-45.764971	0.000142	1.418965	0.480758	0.000057
1637	1.6278e+02	-14.8151	-45.655968	0.000274	2.736575	0.927177	0.000110
1638	1.6288e+02	-14.7686	-45.514668	0.000355	3.547412	1.201896	0.000142
1639	1.6298e+02	-14.7413	-45.486408	0.000071	0.709482	0.240379	0.000028
1640	1.6308e+02	-14.6964	-45.341071	0.000365	3.648766	1.236235	0.000146
1641	1.6318e+02	-14.6563	-45.296663	0.000111	1.114901	0.377739	0.000045
1642	1.6328e+02	-14.6114	-45.199772	0.000243	2.432511	0.824157	0.000097
1643	1.6338e+02	-14.5745	-45.082695	0.000294	2.939284	0.995856	0.000118
1644	1.6348e+02	-14.5295	-44.973692	0.000274	2.736575	0.927177	0.000110
1645	1.6358e+02	-14.4926	-44.917172	0.000142	1.418965	0.480758	0.000057
1646	1.6368e+02	-14.4638	-44.812207	0.000264	2.635220	0.892837	0.000105
1647	1.6378e+02	-14.4092	-44.666870	0.000365	3.648766	1.236235	0.000146
1648	1.6388e+02	-14.3659	-44.582090	0.000213	2.128447	0.721137	0.000085
1649	1.6398e+02	-14.3306	-44.513459	0.000172	1.723028	0.583778	0.000069
1650	1.6408e+02	-14.2985	-44.420605	0.000233	2.331156	0.789817	0.000093
1651	1.6418e+02	-14.2472	-44.315639	0.000264	2.635220	0.892837	0.000105
1652	1.6427e+02	-14.2103	-44.210673	0.000264	2.635220	0.892837	0.000105
1653	1.6437e+02	-14.1782	-44.138005	0.000182	1.824383	0.618118	0.000073
1654	1.6447e+02	-14.1365	-44.029002	0.000274	2.736575	0.927177	0.000110
1655	1.6457e+02	-14.1060	-43.956334	0.000182	1.824383	0.618118	0.000073
1656	1.6467e+02	-14.0595	-43.855406	0.000253	2.533865	0.858497	0.000101
1657	1.6477e+02	-14.0162	-43.790811	0.000162	1.621674	0.549438	0.000065
1658	1.6487e+02	-13.9841	-43.661623	0.000324	3.243348	1.098876	0.000130
1659	1.6497e+02	-13.9328	-43.564732	0.000243	2.432511	0.824157	0.000097
1660	1.6507e+02	-13.8943	-43.471878	0.000233	2.331156	0.789817	0.000093
1661	1.6517e+02	-13.8590	-43.423432	0.000122	1.216255	0.412078	0.000049
1662	1.6527e+02	-13.8269	-43.265984	0.000395	3.952830	1.339255	0.000158
1663	1.6537e+02	-13.7788	-43.165055	0.000253	2.533865	0.858497	0.000101
1664	1.6547e+02	-13.7403	-43.084313	0.000203	2.027092	0.686797	0.000081
1665	1.6557e+02	-13.6953	-43.027793	0.000142	1.418965	0.480758	0.000057
1666	1.6567e+02	-13.6649	-42.926864	0.000253	2.533865	0.858497	0.000101
1667	1.6577e+02	-13.6151	-42.838047	0.000223	2.229802	0.755477	0.000089
1668	1.6587e+02	-13.5862	-42.733082	0.000264	2.635220	0.892837	0.000105
1669	1.6597e+02	-13.5381	-42.668488	0.000162	1.621674	0.549438	0.000065
1670	1.6607e+02	-13.4948	-42.563522	0.000264	2.635220	0.892837	0.000105
1671	1.6616e+02	-13.4643	-42.474705	0.000223	2.229802	0.755477	0.000089
1672	1.6626e+02	-13.4178	-42.381851	0.000233	2.331156	0.789817	0.000093
1673	1.6636e+02	-13.3745	-42.288997	0.000233	2.331156	0.789817	0.000093
1674	1.6646e+02	-13.3360	-42.184031	0.000264	2.635220	0.892837	0.000105
1675	1.6656e+02	-13.3007	-42.087140	0.000243	2.432511	0.824157	0.000097
1676	1.6666e+02	-13.2526	-42.006397	0.000203	2.027092	0.686797	0.000081
1677	1.6676e+02	-13.2205	-41.873172	0.000334	3.344702	1.133216	0.000134
1678	1.6686e+02	-13.1820	-41.828763	0.000111	1.114901	0.377739	0.000045
1679	1.6696e+02	-13.1499	-41.703612	0.000314	3.141993	1.064536	0.000126
1680	1.6706e+02	-13.0954	-41.590572	0.000284	2.837929	0.961516	0.000114
1681	1.6716e+02	-13.0569	-41.538090	0.000132	1.317610	0.446418	0.000053
1682	1.6726e+02	-13.0216	-41.388716	0.000375	3.750121	1.270575	0.000150
1683	1.6736e+02	-12.9718	-41.303936	0.000213	2.128447	0.721137	0.000085
1684	1.6746e+02	-12.9446	-41.198970	0.000264	2.635220	0.892837	0.000105
1685	1.6756e+02	-12.8948	-41.134376	0.000162	1.621674	0.549438	0.000065
1686	1.6766e+02	-12.8627	-41.033448	0.000253	2.533865	0.858497	0.000101
1687	1.6776e+02	-12.8290	-40.944631	0.000223	2.229802	0.755477	0.000089
1688	1.6786e+02	-12.7777	-40.880036	0.000162	1.621674	0.549438	0.000065
1689	1.6796e+02	-12.7376	-40.746811	0.000334	3.344702	1.133216	0.000134
1690	1.6806e+02	-12.6991	-40.686254	0.000152	1.520319	0.515098	0.000061
1691	1.6816e+02	-12.6654	-40.585326	0.000253	2.533865	0.858497	0.000101
1692	1.6825e+02	-12.6269	-40.500546	0.000213	2.128447	0.721137	0.000085
1693	1.6835e+02	-12.5820	-40.363283	0.000345	3.446057	1.167556	0.000138
1694	1.6845e+02	-12.5371	-40.318875	0.000111	1.114901	0.377739	0.000045
1695	1.6855e+02	-12.5050	-40.226020	0.000233	2.331156	0.789817	0.000093
1696	1.6865e+02	-12.4585	-40.104906	0.000304	3.040638	1.030196	0.000122
1697	1.6875e+02	-12.4280	-40.020127	0.000213	2.128447	0.721137	0.000085
1698	1.6885e+02	-12.3879	-39.947458	0.000182	1.824383	0.618118	0.000073
1699	1.6895e+02	-12.3494	-39.810196	0.000345	3.446057	1.167556	0.000138
1700	1.6905e+02	-12.2980	-39.709267	0.000253	2.533865	0.858497	0.000101
1701	1.6915e+02	-12.2740	-39.620450	0.000223	2.229802	0.755477	0.000089
1702	1.6925e+02	-12.2162	-39.576042	0.000111	1.114901	0.377739	0.000045
1703	1.6935e+02	-12.1922	-39.450890	0.000314	3.141993	1.064536	0.000126
1704	1.6945e+02	-12.1505	-39.390333	0.000152	1.520319	0.515098	0.000061
1705	1.6955e+02	-12.0943	-39.265182	0.000314	3.141993	1.064536	0.000126
1706	1.6965e+02	-12.0670	-39.172328	0.000233	2.331156	0.789817	0.000093
1707	1.6975e+02	-12.0237	-39.071400	0.000253	2.533865	0.858497	0.000101
1708	1.6985e+02	-11.9820	-38.986620	0.000213	2.128447	0.721137	0.000085
1709	1.6995e+02	-11.9451	-38.873580	0.000284	2.837929	0.961516	0.000114
1710	1.7005e+02	-11.9050	-38.772652	0.000253	2.533865	0.858497	0.000101
1711	1.7015e+02	-11.8697	-38.671723	0.000253	2.533865	0.858497	0.000101
1712	1.7024e+02	-11.8264	-38.627315	0.000111	1.114901	0.377739	0.000045
1713	1.7034e+02	-11.7895	-38.534461	0.000233	2.331156	0.789817	0.000093
1714	1.7044e+02	-11.7430	-38.425458	0.000274	2.736575	0.927177	0.000110
1715	1.7054e+02	-11.7077	-38.304344	0.000304	3.040638	1.030196	0.000122
1716	1.7064e+02	-11.6676	-38.150933	0.000385	3.851475	1.304915	0.000154
1717	1.7074e+02	-11.6259	-38.118636	0.000081	0.810837	0.274719	0.000032
1718	1.7084e+02	-11.5745	-38.029819	0.000223	2.229802	0.755477	0.000089
1719	1.7094e+02	-11.5441	-37.900630	0.000324	3.243348	1.098876	0.000130
1720	1.7104e+02	-11.5056	-37.795665	0.000264	2.635220	0.892837	0.000105
1721	1.7114e+02	-11.4719	-37.706848	0.000223	2.229802	0.755477	0.000089
1722	1.7124e+02	-11.4318	-37.634179	0.000182	1.824383	0.618118	0.000073
1723	1.7134e+02	-11.3884	-37.517102	0.000294	2.939284	0.995856	0.000118
1724	1.7144e+02	-11.3499	-37.400025	0.000294	2.939284	0.995856	0.000118
1725	1.7154e+02	-11.3066	-37.315246	0.000213	2.128447	0.721137	0.000085
1726	1.7164e+02	-11.2697	-37.210280	0.000264	2.635220	0.892837	0.000105
1727	1.7174e+02	-11.2232	-37.117426	0.000233	2.331156	0.789817	0.000093
1728	1.7184e+02	-11.1927	-37.064943	0.000132	1.317610	0.446418	0.000053
1729	1.7194e+02	-11.1558	-36.931718	0.000334	3.344702	1.133216	0.000134
1730	1.7204e+02	-11.1093	-36.818678	0.000284	2.837929	0.961516	0.000114
1731	1.7213e+02	-11.0740	-36.717750	0.000253	2.533865	0.858497	0.000101
1732	1.7223e+02	-11.0355	-36.604710	0.000284	2.837929	0.961516	0.000114
1733	1.7233e+02	-10.9826	-36.548190	0.000142	1.418965	0.480758	0.000057
1734	1.7243e+02	-10.9537	-36.439187	0.000274	2.736575	0.927177	0.000110
1735	1.7253e+02	-10.9056	-36.334222	0.000264	2.635220	0.892837	0.000105
1736	1.7263e+02	-10.8703	-36.253479	0.000203	2.027092	0.686797	0.000081
1737	1.7273e+02	-10.8318	-36.168699	0.000213	2.128447	0.721137	0.000085
1738	1.7283e+02	-10.7901	-36.043548	0.000314	3.141993	1.064536	0.000126
1739	1.7293e+02	-10.7500	-35.922434	0.000304	3.040638	1.030196	0.000122
1740	1.7303e+02	-10.7147	-35.825543	0.000243	2.432511	0.824157	0.000097
1741	1.7313e+02	-10.6665	-35.756911	0.000172	1.723028	0.583778	0.000069
1742	1.7323e+02	-10.6409	-35.651946	0.000264	2.635220	0.892837	0.000105
1743	1.7333e+02	-10.5879	-35.538906	0.000284	2.837929	0.961516	0.000114
1744	1.7343e+02	-10.5559	-35.437978	0.000253	2.533865	0.858497	0.000101
1745	1.7353e+02	-10.5125	-35.337049	0.000253	2.533865	0.858497	0.000101
1746	1.7363e+02	-10.4724	-35.228046	0.000274	2.736575	0.927177	0.000110
1747	1.7373e+02	-10.4243	-35.127118	0.000253	2.533865	0.858497	0.000101
1748	1.7383e+02	-10.3906	-35.034264	0.000233	2.331156	0.789817	0.000093
1749	1.7393e+02	-10.3441	-34.905076	0.000324	3.243348	1.098876	0.000130
1750	1.7403e+02	-10.3104	-34.828370	0.000193	1.925738	0.652458	0.000077
1751	1.7413e+02	-10.2735	-34.723404	0.000264	2.635220	0.892837	0.000105
1752	1.7422e+02	-10.2222	-34.602290	0.000304	3.040638	1.030196	0.000122
1753	1.7432e+02	-10.2029	-34.497325	0.000264	2.635220	0.892837	0.000105
1754	1.7442e+02	-10.1484	-34.420619	0.000193	1.925738	0.652458	0.000077
1755	1.7452e+02	-10.1163	-34.295468	0.000314	3.141993	1.064536	0.000126
1756	1.7462e+02	-10.0682	-34.214725	0.000203	2.027092	0.686797	0.000081
1757	1.7472e+02	-10.0345	-34.033054	0.000456	4.560958	1.545294	0.000183
1758	1.7482e+02	-9.9928	-34.000757	0.000081	0.810837	0.274719	0.000032
1759	1.7492e+02	-9.9495	-33.899829	0.000253	2.533865	0.858497	0.000101
1760	1.7502e+02	-9.9077	-33.774678	0.000314	3.141993	1.064536	0.000126
1761	1.7512e+02	-9.8741	-33.681823	0.000233	2.331156	0.789817	0.000093
1762	1.7522e+02	-9.8323	-33.576858	0.000264	2.635220	0.892837	0.000105
1763	1.7532e+02	-9.7890	-33.479967	0.000243	2.432511	0.824157	0.000097
1764	1.7542e+02	-9.7489	-33.358853	0.000304	3.040638	1.030196	0.000122
1765	1.7552e+02	-9.7136	-33.261961	0.000243	2.432511	0.824157	0.000097
1766	1.7562e+02	-9.6767	-33.156996	0.000264	2.635220	0.892837	0.000105
1767	1.7572e+02	-9.6334	-33.047993	0.000274	2.736575	0.927177	0.000110
1768	1.7582e+02	-9.5853	-32.947065	0.000253	2.533865	0.858497	0.000101
1769	1.7592e+02	-9.5612	-32.874396	0.000182	1.824383	0.618118	0.000073
1770	1.7602e+02	-9.5115	-32.720985	0.000385	3.851475	1.304915	0.000154
1771	1.7612e+02	-9.4762	-32.591797	0.000324	3.243348	1.098876	0.000130
1772	1.7621e+02	-9.4313	-32.547388	0.000111	1.114901	0.377739	0.000045
1773	1.7631e+02	-9.3992	-32.426274	0.000304	3.040638	1.030196	0.000122
1774	1.7641e+02	-9.3511	-32.248640	0.000446	4.459603	1.510954	0.000179
1775	1.7651e+02	-9.3142	-32.196158	0.000132	1.317610	0.446418	0.000053
1776	1.7661e+02	-9.2741	-32.123489	0.000182	1.824383	0.618118	0.000073
1777	1.7671e+02	-9.2340	-31.970078	0.000385	3.851475	1.304915	0.000154
1778	1.7681e+02	-9.2051	-31.848964	0.000304	3.040638	1.030196	0.000122
1779	1.7691e+02	-9.1554	-31.748035	0.000253	2.533865	0.858497	0.000101
1780	1.7701e+02	-9.1169	-31.655181	0.000233	2.331156	0.789817	0.000093
1781	1.7711e+02	-9.0784	-31.546179	0.000274	2.736575	0.927177	0.000110
1782	1.7721e+02	-9.0350	-31.421027	0.000314	3.141993	1.064536	0.000126
1783	1.7731e+02	-9.0046	-31.348359	0.000182	1.824383	0.618118	0.000073
1784	1.7741e+02	-8.9580	-31.194948	0.000385	3.851475	1.304915	0.000154
1785	1.7751e+02	-8.9243	-31.098057	0.000243	2.432511	0.824157	0.000097
1786	1.7761e+02	-8.8778	-31.037500	0.000152	1.520319	0.515098	0.000061
1787	1.7771e+02	-8.8409	-30.896200	0.000355	3.547412	1.201896	0.000142
1788	1.7781e+02	-8.7992	-30.791234	0.000264	2.635220	0.892837	0.000105
1789	1.7791e+02	-8.7511	-30.690306	0.000253	2.533865	0.858497	0.000101
1790	1.7801e+02	-8.7254	-30.581303	0.000274	2.736575	0.927177	0.000110
1791	1.7810e+02	-8.6853	-30.456152	0.000314	3.141993	1.064536	0.000126
1792	1.7820e+02	-8.6420	-30.359261	0.000243	2.432511	0.824157	0.000097
1793	1.7830e+02	-8.6019	-30.246221	0.000284	2.837929	0.961516	0.000114
1794	1.7840e+02	-8.5602	-30.149330	0.000243	2.432511	0.824157	0.000097
1795	1.7850e+02	-8.5201	-30.044364	0.000264	2.635220	0.892837	0.000105
1796	1.7860e+02	-8.4703	-29.943436	0.000253	2.533865	0.858497	0.000101
1797	1.7870e+02	-8.4383	-29.834433	0.000274	2.736575	0.927177	0.000110
1798	1.7880e+02	-8.3933	-29.713319	0.000304	3.040638	1.030196	0.000122
1799	1.7890e+02	-8.3757	-29.604316	0.000274	2.736575	0.927177	0.000110
1800	1.7900e+02	-8.3244	-29.539722	0.000162	1.621674	0.549438	0.000065
1801	1.7910e+02	-8.2810	-29.345940	0.000487	4.865022	1.648314	0.000195
1802	1.7920e+02	-8.2442	-29.285383	0.000152	1.520319	0.515098	0.000061
1803	1.7930e+02	-8.1896	-29.164269	0.000304	3.040638	1.030196	0.000122
1804	1.7940e+02	-8.1623	-29.071414	0.000233	2.331156	0.789817	0.000093
1805	1.7950e+02	-8.1222	-28.934152	0.000345	3.446057	1.167556	0.000138
1806	1.7960e+02	-8.0837	-28.841298	0.000233	2.331156	0.789817	0.000093
1807	1.7970e+02	-8.0356	-28.724221	0.000294	2.939284	0.995856	0.000118
1808	1.7980e+02	-8.0003	-28.611181	0.000284	2.837929	0.961516	0.000114
1809	1.7990e+02	-7.9618	-28.514290	0.000243	2.432511	0.824157	0.000097
1810	1.8000e+02	-7.9249	-28.401250	0.000284	2.837929	0.961516	0.000114
1811	1.8009e+02	-7.8896	-28.251876	0.000375	3.750121	1.270575	0.000150
1812	1.8019e+02	-7.8431	-28.203430	0.000122	1.216255	0.412078	0.000049
1813	1.8029e+02	-7.7966	-28.062131	0.000355	3.547412	1.201896	0.000142
1814	1.8039e+02	-7.7533	-27.973314	0.000223	2.229802	0.755477	0.000089
1815	1.8049e+02	-7.7196	-27.815865	0.000395	3.952830	1.339255	0.000158
1816	1.8059e+02	-7.6795	-27.751271	0.000162	1.621674	0.549438	0.000065
1817	1.8069e+02	-7.6506	-27.609971	0.000355	3.547412	1.201896	0.000142
1818	1.8079e+02	-7.6041	-27.541340	0.000172	1.723028	0.583778	0.000069
1819	1.8089e+02	-7.5543	-27.387929	0.000385	3.851475	1.304915	0.000154
1820	1.8099e+02	-7.5190	-27.311223	0.000193	1.925738	0.652458	0.000077
1821	1.8109e+02	-7.4821	-27.218369	0.000233	2.331156	0.789817	0.000093
1822	1.8119e+02	-7.4468	-27.073032	0.000365	3.648766	1.236235	0.000146
1823	1.8129e+02	-7.3987	-26.935770	0.000345	3.446057	1.167556	0.000138
1824	1.8139e+02	-7.3650	-26.846953	0.000223	2.229802	0.755477	0.000089
1825	1.8149e+02	-7.3265	-26.766210	0.000203	2.027092	0.686797	0.000081
1826	1.8159e+02	-7.2848	-26.628947	0.000345	3.446057	1.167556	0.000138
1827	1.8169e+02	-7.2463	-26.544167	0.000213	2.128447	0.721137	0.000085
1828	1.8179e+02	-7.2046	-26.427091	0.000294	2.939284	0.995856	0.000118
1829	1.8189e+02	-7.1597	-26.322125	0.000264	2.635220	0.892837	0.000105
1830	1.8199e+02	-7.1212	-26.192937	0.000324	3.243348	1.098876	0.000130
1831	1.8209e+02	-7.0843	-26.075860	0.000294	2.939284	0.995856	0.000118
1832	1.8218e+02	-7.0362	-25.999154	0.000193	1.925738	0.652458	0.000077
1833	1.8228e+02	-7.0057	-25.886114	0.000284	2.837929	0.961516	0.000114
1834	1.8238e+02	-6.9576	-25.765000	0.000304	3.040638	1.030196	0.000122
1835	1.8248e+02	-6.9255	-25.647923	0.000294	2.939284	0.995856	0.000118
1836	1.8258e+02	-6.8966	-25.555069	0.000233	2.331156	0.789817	0.000093
1837	1.8268e+02	-6.8453	-25.446067	0.000274	2.736575	0.927177	0.000110
1838	1.8278e+02	-6.8196	-25.304767	0.000355	3.547412	1.201896	0.000142
1839	1.8288e+02	-6.7715	-25.232098	0.000182	1.824383	0.618118	0.000073
1840	1.8298e+02	-6.7217	-25.078687	0.000385	3.851475	1.304915	0.000154
1841	1.8308e+02	-6.6832	-25.010056	0.000172	1.723028	0.583778	0.000069
1842	1.8318e+02	-6.6511	-24.892979	0.000294	2.939284	0.995856	0.000118
1843	1.8328e+02	-6.6062	-24.783976	0.000274	2.736575	0.927177	0.000110
1844	1.8338e+02	-6.5661	-24.687085	0.000243	2.432511	0.824157	0.000097
1845	1.8348e+02	-6.5340	-24.582120	0.000264	2.635220	0.892837	0.000105
1846	1.8358e+02	-6.4843	-24.448894	0.000334	3.344702	1.133216	0.000134
1847	1.8368e+02	-6.4426	-24.372188	0.000193	1.925738	0.652458	0.000077
1848	1.8378e+02	-6.4153	-24.263186	0.000274	2.736575	0.927177	0.000110
1849	1.8388e+02	-6.3624	-24.125923	0.000345	3.446057	1.167556	0.000138
1850	1.8398e+02	-6.3351	-24.069403	0.000142	1.418965	0.480758	0.000057
1851	1.8407e+02	-6.2902	-23.895806	0.000436	4.358248	1.476615	0.000174
1852	1.8417e+02	-6.2549	-23.831212	0.000162	1.621674	0.549438	0.000065
1853	1.8427e+02	-6.2164	-23.714135	0.000294	2.939284	0.995856	0.000118
1854	1.8437e+02	-6.1619	-23.617244	0.000243	2.432511	0.824157	0.000097
1855	1.8447e+02	-6.1298	-23.479981	0.000345	3.446057	1.167556	0.000138
1856	1.8457e+02	-6.0961	-23.346756	0.000334	3.344702	1.133216	0.000134
1857	1.8467e+02	-6.0560	-23.266013	0.000203	2.027092	0.686797	0.000081
1858	1.8477e+02	-6.0095	-23.185271	0.000203	2.027092	0.686797	0.000081
1859	1.8487e+02	-5.9710	-23.092416	0.000233	2.331156	0.789817	0.000093
1860	1.8497e+02	-5.9276	-22.955154	0.000345	3.446057	1.167556	0.000138
1861	1.8507e+02	-5.8988	-22.817891	0.000345	3.446057	1.167556	0.000138
1862	1.8517e+02	-5.8506	-22.708889	0.000274	2.736575	0.927177	0.000110
1863	1.8527e+02	-5.8089	-22.624109	0.000213	2.128447	0.721137	0.000085
1864	1.8537e+02	-5.7576	-22.511069	0.000284	2.837929	0.961516	0.000114
1865	1.8547e+02	-5.7351	-22.406103	0.000264	2.635220	0.892837	0.000105
1866	1.8557e+02	-5.6950	-22.313249	0.000233	2.331156	0.789817	0.000093
1867	1.8567e+02	-5.6533	-22.192135	0.000304	3.040638	1.030196	0.000122
1868	1.8577e+02	-5.6164	-22.087170	0.000264	2.635220	0.892837	0.000105
1869	1.8587e+02	-5.5715	-21.994316	0.000233	2.331156	0.789817	0.000093
1870	1.8597e+02	-5.5314	-21.844941	0.000375	3.750121	1.270575	0.000150
1871	1.8606e+02	-5.4929	-21.772273	0.000182	1.824383	0.618118	0.000073
1872	1.8616e+02	-5.4480	-21.630973	0.000355	3.547412	1.201896	0.000142
1873	1.8626e+02	-5.4111	-21.562342	0.000172	1.723028	0.583778	0.000069
1874	1.8636e+02	-5.3710	-21.392782	0.000426	4.256894	1.442275	0.000170
1875	1.8646e+02	-5.3405	-21.312040	0.000203	2.027092	0.686797	0.000081
1876	1.8656e+02	-5.2988	-21.186888	0.000314	3.141993	1.064536	0.000126
1877	1.8666e+02	-5.2603	-21.077886	0.000274	2.736575	0.927177	0.000110
1878	1.8676e+02	-5.2089	-20.944660	0.000334	3.344702	1.133216	0.000134
1879	1.8686e+02	-5.1769	-20.867955	0.000193	1.925738	0.652458	0.000077
1880	1.8696e+02	-5.1384	-20.738766	0.000324	3.243348	1.098876	0.000130
1881	1.8706e+02	-5.0934	-20.613615	0.000314	3.141993	1.064536	0.000126
1882	1.8716e+02	-5.0581	-20.520761	0.000233	2.331156	0.789817	0.000093
1883	1.8726e+02	-5.0148	-20.403684	0.000294	2.939284	0.995856	0.000118
1884	1.8736e+02	-4.9844	-20.290644	0.000284	2.837929	0.961516	0.000114
1885	1.8746e+02	-4.9378	-20.173567	0.000294	2.939284	0.995856	0.000118
1886	1.8756e+02	-4.8961	-20.048416	0.000314	3.141993	1.064536	0.000126
1887	1.8766e+02	-4.8721	-19.967673	0.000203	2.027092	0.686797	0.000081
1888	1.8776e+02	-4.8207	-19.806188	0.000405	4.054185	1.373595	0.000162
1889	1.8786e+02	-4.7854	-19.725445	0.000203	2.027092	0.686797	0.000081
1890	1.8796e+02	-4.7325	-19.596257	0.000324	3.243348	1.098876	0.000130
1891	1.8806e+02	-4.6988	-19.511477	0.000213	2.128447	0.721137	0.000085
1892	1.8815e+02	-4.6619	-19.382289	0.000324	3.243348	1.098876	0.000130
1893	1.8825e+02	-4.6122	-19.301546	0.000203	2.027092	0.686797	0.000081
1894	1.8835e+02	-4.5769	-19.148135	0.000385	3.851475	1.304915	0.000154
1895	1.8845e+02	-4.5384	-19.027021	0.000304	3.040638	1.030196	0.000122
1896	1.8855e+02	-4.4983	-18.930129	0.000243	2.432511	0.824157	0.000097
1897	1.8865e+02	-4.4517	-18.841312	0.000223	2.229802	0.755477	0.000089
1898	1.8875e+02	-4.4132	-18.695976	0.000365	3.648766	1.236235	0.000146
1899	1.8885e+02	-4.3812	-18.578899	0.000294	2.939284	0.995856	0.000118
1900	1.8895e+02	-4.3346	-18.498156	0.000203	2.027092	0.686797	0.000081
1901	1.8905e+02	-4.3009	-18.368968	0.000324	3.243348	1.098876	0.000130
1902	1.8915e+02	-4.2576	-18.239779	0.000324	3.243348	1.098876	0.000130
1903	1.8925e+02	-4.2272	-18.146925	0.000233	2.331156	0.789817	0.000093
1904	1.8935e+02	-4.1822	-18.001588	0.000365	3.648766	1.236235	0.000146
1905	1.8945e+02	-4.1453	-17.872400	0.000324	3.243348	1.098876	0.000130
1906	1.8955e+02	-4.0972	-17.840103	0.000081	0.810837	0.274719	0.000032
1907	1.8965e+02	-4.0571	-17.686692	0.000385	3.851475	1.304915	0.000154
1908	1.8975e+02	-4.0218	-17.593838	0.000233	2.331156	0.789817	0.000093
1909	1.8985e+02	-3.9865	-17.408129	0.000466	4.662312	1.579634	0.000187
1910	1.8995e+02	-3.9384	-17.319312	0.000223	2.229802	0.755477	0.000089
1911	1.9004e+02	-3.8919	-17.206273	0.000284	2.837929	0.961516	0.000114
1912	1.9014e+02	-3.8582	-17.093233	0.000284	2.837929	0.961516	0.000114
1913	1.9024e+02	-3.8229	-16.992304	0.000253	2.533865	0.858497	0.000101
1914	1.9034e+02	-3.7748	-16.891376	0.000253	2.533865	0.858497	0.000101
1915	1.9044e+02	-3.7298	-16.746039	0.000365	3.648766	1.236235	0.000146
1916	1.9054e+02	-3.6945	-16.620888	0.000314	3.141993	1.064536	0.000126
1917	1.9064e+02	-3.6577	-16.483625	0.000345	3.446057	1.167556	0.000138
1918	1.9074e+02	-3.6304	-16.366548	0.000294	2.939284	0.995856	0.000118
1919	1.9084e+02	-3.5806	-16.301954	0.000162	1.621674	0.549438	0.000065
1920	1.9094e+02	-3.5277	-16.176803	0.000314	3.141993	1.064536	0.000126
1921	1.9104e+02	-3.5052	-16.043577	0.000334	3.344702	1.133216	0.000134
1922	1.9114e+02	-3.4619	-15.902278	0.000355	3.547412	1.201896	0.000142
1923	1.9124e+02	-3.4331	-15.813461	0.000223	2.229802	0.755477	0.000089
1924	1.9134e+02	-3.3849	-15.704458	0.000274	2.736575	0.927177	0.000110
1925	1.9144e+02	-3.3416	-15.595455	0.000274	2.736575	0.927177	0.000110
1926	1.9154e+02	-3.2967	-15.450118	0.000365	3.648766	1.236235	0.000146
1927	1.9164e+02	-3.2630	-15.345153	0.000264	2.635220	0.892837	0.000105
1928	1.9174e+02	-3.2181	-15.171556	0.000436	4.358248	1.476615	0.000174
1929	1.9184e+02	-3.1892	-15.082739	0.000223	2.229802	0.755477	0.000089
1930	1.9194e+02	-3.1443	-14.969699	0.000284	2.837929	0.961516	0.000114
1931	1.9203e+02	-3.1042	-14.856660	0.000284	2.837929	0.961516	0.000114
1932	1.9213e+02	-3.0593	-14.731508	0.000314	3.141993	1.064536	0.000126
1933	1.9223e+02	-3.0336	-14.582134	0.000375	3.750121	1.270575	0.000150
1934	1.9233e+02	-2.9742	-14.505429	0.000193	1.925738	0.652458	0.000077
1935	1.9243e+02	-2.9470	-14.400463	0.000264	2.635220	0.892837	0.000105
1936	1.9253e+02	-2.9053	-14.218792	0.000456	4.560958	1.545294	0.000183
1937	1.9263e+02	-2.8620	-14.109789	0.000274	2.736575	0.927177	0.000110
1938	1.9273e+02	-2.8202	-13.992712	0.000294	2.939284	0.995856	0.000118
1939	1.9283e+02	-2.7769	-13.867561	0.000314	3.141993	1.064536	0.000126
1940	1.9293e+02	-2.7448	-13.730299	0.000345	3.446057	1.167556	0.000138
1941	1.9303e+02	-2.7224	-13.673779	0.000142	1.418965	0.480758	0.000057
1942	1.9313e+02	-2.6678	-13.536516	0.000345	3.446057	1.167556	0.000138
1943	1.9323e+02	-2.6181	-13.399254	0.000345	3.446057	1.167556	0.000138
1944	1.9333e+02	-2.5876	-13.318511	0.000203	2.027092	0.686797	0.000081
1945	1.9343e+02	-2.5379	-13.112617	0.000517	5.169085	1.751334	0.000207
1946	1.9353e+02	-2.5106	-13.019763	0.000233	2.331156	0.789817	0.000093
1947	1.9363e+02	-2.4641	-12.882500	0.000345	3.446057	1.167556	0.000138
1948	1.9373e+02	-2.4208	-12.793683	0.000223	2.229802	0.755477	0.000089
1949	1.9383e+02	-2.3823	-12.632198	0.000405	4.054185	1.373595	0.000162
1950	1.9393e+02	-2.3438	-12.519158	0.000284	2.837929	0.961516	0.000114
1951	1.9403e+02	-2.2989	-12.398044	0.000304	3.040638	1.030196	0.000122
1952	1.9412e+02	-2.2780	-12.256744	0.000355	3.547412	1.201896	0.000142
1953	1.9422e+02	-2.2363	-12.167927	0.000223	2.229802	0.755477	0.000089
1954	1.9432e+02	-2.1785	-12.030664	0.000345	3.446057	1.167556	0.000138
1955	1.9442e+02	-2.1433	-11.897439	0.000334	3.344702	1.133216	0.000134
1956	1.9452e+02	-2.1031	-11.768251	0.000324	3.243348	1.098876	0.000130
1957	1.9462e+02	-2.0679	-11.618877	0.000375	3.750121	1.270575	0.000150
1958	1.9472e+02	-2.0245	-11.538134	0.000203	2.027092	0.686797	0.000081
1959	1.9482e+02	-1.9844	-11.421057	0.000294	2.939284	0.995856	0.000118
1960	1.9492e+02	-1.9491	-11.303980	0.000294	2.939284	0.995856	0.000118
1961	1.9502e+02	-1.9058	-11.190940	0.000284	2.837929	0.961516	0.000114
1962	1.9512e+02	-1.8689	-11.090012	0.000253	2.533865	0.858497	0.000101
1963	1.9522e+02	-1.8240	-10.936601	0.000385	3.851475	1.304915	0.000154
1964	1.9532e+02	-1.7903	-10.811450	0.000314	3.141993	1.064536	0.000126
1965	1.9542e+02	-1.7486	-10.714558	0.000243	2.432511	0.824157	0.000097
1966	1.9552e+02	-1.7021	-10.557110	0.000395	3.952830	1.339255	0.000158
1967	1.9562e+02	-1.6652	-10.444070	0.000284	2.837929	0.961516	0.000114
1968	1.9572e+02	-1.6267	-10.270473	0.000436	4.358248	1.476615	0.000174
1969	1.9582e+02	-1.5898	-10.185693	0.000213	2.128447	0.721137	0.000085
1970	1.9592e+02	-1.5433	-10.104951	0.000203	2.027092	0.686797	0.000081
1971	1.9601e+02	-1.5080	-9.971725	0.000334	3.344702	1.133216	0.000134
1972	1.9611e+02	-1.4647	-9.802166	0.000426	4.256894	1.442275	0.000170
1973	1.9621e+02	-1.4310	-9.685089	0.000294	2.939284	0.995856	0.000118
1974	1.9631e+02	-1.3893	-9.576086	0.000274	2.736575	0.927177	0.000110
1975	1.9641e+02	-1.3443	-9.463046	0.000284	2.837929	0.961516	0.000114
1976	1.9651e+02	-1.3026	-9.313672	0.000375	3.750121	1.270575	0.000150
1977	1.9661e+02	-1.2673	-9.216781	0.000243	2.432511	0.824157	0.000097
1978	1.9671e+02	-1.2321	-9.087593	0.000324	3.243348	1.098876	0.000130
1979	1.9681e+02	-1.1887	-8.930144	0.000395	3.952830	1.339255	0.000158
1980	1.9691e+02	-1.1599	-8.800956	0.000324	3.243348	1.098876	0.000130
1981	1.9701e+02	-1.1117	-8.683879	0.000294	2.939284	0.995856	0.000118
1982	1.9711e+02	-1.0700	-8.578913	0.000264	2.635220	0.892837	0.000105
1983	1.9721e+02	-1.0331	-8.445688	0.000334	3.344702	1.133216	0.000134
1984	1.9731e+02	-0.9930	-8.344760	0.000253	2.533865	0.858497	0.000101
1985	1.9741e+02	-0.9577	-8.138866	0.000517	5.169085	1.751334	0.000207
1986	1.9751e+02	-0.9160	-8.078309	0.000152	1.520319	0.515098	0.000061
1987	1.9761e+02	-0.8695	-7.904712	0.000436	4.358248	1.476615	0.000174
1988	1.9771e+02	-0.8294	-7.852229	0.000132	1.317610	0.446418	0.000053
1989	1.9781e+02	-0.7845	-7.670558	0.000456	4.560958	1.545294	0.000183
1990	1.9791e+02	-0.7556	-7.610001	0.000152	1.520319	0.515098	0.000061
1991	1.9800e+02	-0.7155	-7.464664	0.000365	3.648766	1.236235	0.000146
1992	1.9810e+02	-0.6609	-7.319327	0.000365	3.648766	1.236235	0.000146
1993	1.9820e+02	-0.6305	-7.194176	0.000314	3.141993	1.064536	0.000126
1994	1.9830e+02	-0.6016	-7.093247	0.000253	2.533865	0.858497	0.000101
1995	1.9840e+02	-0.5503	-6.947911	0.000365	3.648766	1.236235	0.000146
1996	1.9850e+02	-0.5182	-6.871205	0.000193	1.925738	0.652458	0.000077
1997	1.9860e+02	-0.4732	-6.713757	0.000395	3.952830	1.339255	0.000158
1998	1.9870e+02	-0.4364	-6.612828	0.000253	2.533865	0.858497	0.000101
1999	1.9880e+02	-0.3962	-6.487677	0.000314	3.141993	1.064536	0.000126
2000	1.9890e+02	-0.3481	-6.346377	0.000355	3.547412	1.201896	0.000142
2001	1.9900e+02	-0.3096	-6.221226	0.000314	3.141993	1.064536	0.000126
2002	1.9910e+02	-0.2695	-6.116261	0.000264	2.635220	0.892837	0.000105
2003	1.9920e+02	-0.2326	-5.987072	0.000324	3.243348	1.098876	0.000130
2004	1.9930e+02	-0.1941	-5.898255	0.000223	2.229802	0.755477	0.000089
2005	1.9940e+02	-0.1492	-5.708510	0.000476	4.763667	1.613974	0.000191
2006	1.9950e+02	-0.1075	-5.631804	0.000193	1.925738	0.652458	0.000077
2007	1.9960e+02	-0.0770	-5.470319	0.000405	4.054185	1.373595	0.000162
2008	1.9970e+02	-0.0353	-5.369391	0.000253	2.533865	0.858497	0.000101
2009	1.9980e+02	0.0032	-5.272499	0.000253	2.533865	0.858497	0.000097

PMax (uC/cm2):	6.06e+01
Pr (uC/cm2):	2.48e+00
-Pr (uC/cm2):	-1.13e+00
PLoss (uC/cm2):	-1.09e+00
-Vc:	-8.02e-01
C (Max-Eff) (nF):	3.03e-01
K (Eff):	1.03e+03
Vert. (+/-Pr) Shift (uC/cm2):	6.74e-01
Offset (uC/cm2):	4.14e+00

A (Loop Area - uC/cm2·Volts):	-1.00e-03



Hysteresis Version: 5.48.1 - Radiant Technologies, Inc., 1999 - 9/12/24

