»»»»»»»»»»»»»»»»»»»»»»»»»»»»»»»»»»»» Hysteresis ««««««««««««««««««««««««««««««««««««
»»»  Executed Version:	5.48.1
»»»  Vision Version:	5.48.4 (R)
»»»  Vision Compiled:	9/18/24
»»»  Driver Version:	5.47.0
»»»  Windows Version:	Windows 8 or 8.1
»»»  Processor Information:	x86 (AMD or Intel) - 32 Processors
»»»  Tester Name:	PMF21124-494 (100V)
»»»  Tester S/N:	PMF21124-494
»»»  Internal Amp Type:	100V RevK 270k
»»»  Internal Amp S/N:	iAB2-596/K     
»»»  Execution Count:	1
»»»»»»»»»»»»»»»»»»»»»»»»»»»»»»»»»»»»»»»»»»««««««««««««««««««««««««««««««««««««««««««

Stored:	6/19/2025 - 17:10:34
Configured:	06/19/25 10:04:32 AM
Executed:	06/19/25 05:09:39 PM

»»»»»»»»»»»»»»»»»»»»»»»»»»»»»»»»»»» Sample Info ««««««««««««««««««««««««««««««««««««
Sample Name:	
Lot Name:	
Wafer Name:	
Die Row/Column:	0/0
Capacitor Number:	0
Sample Area (cm2):	1.00e-04
Sample Thickness (microns):	3.00e-01

Amplifier:	Internal

»»»»»»»»»»»»»»»»»»»»»»»»»»»»»»»»»»» Tester Info «««««««««««««««««««««««««««««««««««
Tester Name:	PMF21124-494 (100V)
Tester Serial Number:	PMF21124-494
Return Signal Amp. Level:	0.19 [Index: 3]

»»»»»»»»»»»»»»»»»»»»»»»»»»»»»»»» Hysteresis Info ««««««««««««««««««««««««««««««««««
Task Name:	Hyst-1168
Volts:	20.00
Field:	666.67 (kV/cm)
DCBias:	0.00
DCField:	0.00 (kV/cm)
Hysteresis Period (ms):	2.00e+02
Preset:	Enabled
Preset Delay (ms):	1.00e+03
Profile:	Standard Bipolar

»»»»»»»»»»»»»»»»»»»»»»»»»»»»»»»»»»»»»» Data «««««««««««««««««««««««««««««««««««««««
Points:	2009

Valid Data

Point	Time (ms)	Drive Voltage	Measured Polarization (uC/cm2)	Capacitance (uF)	Normalized Capacitance (uF/cm2)	Dielectric Constant	Instantaneous Current (mA)
   1	0.0000e+00	0.0112	-3.695998	0.000101	1.013505	0.343385	0.000041
   2	9.9500e-02	0.0401	-3.655626	0.000101	1.013505	0.343385	0.000041
   3	1.9900e-01	0.0866	-3.482030	0.000436	4.358074	1.476555	0.000174
   4	2.9850e-01	0.1171	-3.401287	0.000203	2.027011	0.686770	0.000081
   5	3.9800e-01	0.1556	-3.259987	0.000355	3.547269	1.201847	0.000142
   6	4.9750e-01	0.1973	-3.142910	0.000294	2.939166	0.995816	0.000118
   7	5.9700e-01	0.2294	-2.997573	0.000365	3.648620	1.236186	0.000146
   8	6.9650e-01	0.2727	-2.900682	0.000243	2.432413	0.824124	0.000097
   9	7.9600e-01	0.3257	-2.767457	0.000334	3.344568	1.133170	0.000134
  10	8.9550e-01	0.3545	-2.682677	0.000213	2.128362	0.721108	0.000085
  11	9.9500e-01	0.3995	-2.561563	0.000304	3.040516	1.030155	0.000122
  12	1.0945e+00	0.4283	-2.456597	0.000264	2.635114	0.892801	0.000105
  13	1.1940e+00	0.4732	-2.331446	0.000314	3.141867	1.064493	0.000126
  14	1.2935e+00	0.5101	-2.218406	0.000284	2.837815	0.961478	0.000114
  15	1.3930e+00	0.5470	-2.085181	0.000334	3.344568	1.133170	0.000134
  16	1.4925e+00	0.5936	-1.968104	0.000294	2.939166	0.995816	0.000118
  17	1.5920e+00	0.6353	-1.923695	0.000111	1.114856	0.377723	0.000045
  18	1.6915e+00	0.6722	-1.750098	0.000436	4.358074	1.476555	0.000174
  19	1.7910e+00	0.7123	-1.669356	0.000203	2.027011	0.686770	0.000081
  20	1.8905e+00	0.7652	-1.572464	0.000243	2.432413	0.824124	0.000097
  21	1.9900e+00	0.7925	-1.507870	0.000162	1.621609	0.549416	0.000065
  22	2.0895e+00	0.8374	-1.358496	0.000375	3.749970	1.270524	0.000150
  23	2.1890e+00	0.8743	-1.217196	0.000355	3.547269	1.201847	0.000142
  24	2.2885e+00	0.9192	-1.039562	0.000446	4.459424	1.510894	0.000179
  25	2.3880e+00	0.9545	-0.934597	0.000264	2.635114	0.892801	0.000105
  26	2.4875e+00	0.9914	-0.801371	0.000334	3.344568	1.133170	0.000134
  27	2.5870e+00	1.0379	-0.724666	0.000193	1.925660	0.652431	0.000077
  28	2.6865e+00	1.0716	-0.575292	0.000375	3.749970	1.270524	0.000150
  29	2.7860e+00	1.1133	-0.486475	0.000223	2.229712	0.755447	0.000089
  30	2.8855e+00	1.1567	-0.349212	0.000345	3.445919	1.167509	0.000138
  31	2.9850e+00	1.1919	-0.224061	0.000314	3.141867	1.064493	0.000126
  32	3.0845e+00	1.2321	-0.131207	0.000233	2.331063	0.789785	0.000093
  33	3.1840e+00	1.2754	0.042390	0.000436	4.358074	1.476555	0.000174
  34	3.2835e+00	1.3139	0.135244	0.000233	2.331063	0.789785	0.000093
  35	3.3830e+00	1.3540	0.268470	0.000334	3.344568	1.133170	0.000134
  36	3.4825e+00	1.3893	0.361324	0.000233	2.331063	0.789785	0.000093
  37	3.5820e+00	1.4422	0.494549	0.000334	3.344568	1.133170	0.000134
  38	3.6815e+00	1.4791	0.583366	0.000223	2.229712	0.755447	0.000089
  39	3.7810e+00	1.5192	0.660072	0.000193	1.925660	0.652431	0.000077
  40	3.8805e+00	1.5577	0.801371	0.000355	3.547269	1.201847	0.000142
  41	3.9800e+00	1.5946	0.979005	0.000446	4.459424	1.510894	0.000179
  42	4.0795e+00	1.6347	1.083971	0.000264	2.635114	0.892801	0.000105
  43	4.1790e+00	1.6732	1.205085	0.000304	3.040516	1.030155	0.000122
  44	4.2785e+00	1.7101	1.338310	0.000334	3.344568	1.133170	0.000134
  45	4.3780e+00	1.7647	1.435202	0.000243	2.432413	0.824124	0.000097
  46	4.4775e+00	1.7807	1.564390	0.000324	3.243218	1.098832	0.000130
  47	4.5770e+00	1.8304	1.657244	0.000233	2.331063	0.789785	0.000093
  48	4.6765e+00	1.8705	1.790470	0.000334	3.344568	1.133170	0.000134
  49	4.7760e+00	1.9155	1.923695	0.000334	3.344568	1.133170	0.000134
  50	4.8755e+00	1.9475	2.077106	0.000385	3.851321	1.304863	0.000154
  51	4.9750e+00	1.9828	2.133626	0.000142	1.418908	0.480739	0.000057
  52	5.0745e+00	2.0390	2.283000	0.000375	3.749970	1.270524	0.000150
  53	5.1740e+00	2.0663	2.347594	0.000162	1.621609	0.549416	0.000065
  54	5.2735e+00	2.1080	2.513117	0.000416	4.155373	1.407878	0.000166
  55	5.3730e+00	2.1529	2.626157	0.000284	2.837815	0.961478	0.000114
  56	5.4725e+00	2.1994	2.771494	0.000365	3.648620	1.236186	0.000146
  57	5.5720e+00	2.2347	2.795716	0.000061	0.608103	0.206031	0.000024
  58	5.6715e+00	2.2636	2.916831	0.000304	3.040516	1.030155	0.000122
  59	5.7710e+00	2.3069	2.997573	0.000203	2.027011	0.686770	0.000081
  60	5.8705e+00	2.3614	3.146947	0.000375	3.749970	1.270524	0.000150
  61	5.9700e+00	2.3871	3.300358	0.000385	3.851321	1.304863	0.000154
  62	6.0695e+00	2.4272	3.409361	0.000274	2.736465	0.927139	0.000110
  63	6.1690e+00	2.4641	3.490104	0.000203	2.027011	0.686770	0.000081
  64	6.2685e+00	2.5058	3.659664	0.000426	4.256723	1.442217	0.000170
  65	6.3680e+00	2.5395	3.744443	0.000213	2.128362	0.721108	0.000085
  66	6.4675e+00	2.5908	3.918040	0.000436	4.358074	1.476555	0.000174
  67	6.5670e+00	2.6277	3.970523	0.000132	1.317557	0.446400	0.000053
  68	6.6665e+00	2.6646	4.123934	0.000385	3.851321	1.304863	0.000154
  69	6.7660e+00	2.7128	4.232937	0.000274	2.736465	0.927139	0.000110
  70	6.8655e+00	2.7481	4.341939	0.000274	2.736465	0.927139	0.000110
  71	6.9650e+00	2.7946	4.491314	0.000375	3.749970	1.270524	0.000150
  72	7.0645e+00	2.8218	4.600316	0.000274	2.736465	0.927139	0.000110
  73	7.1640e+00	2.8539	4.709319	0.000274	2.736465	0.927139	0.000110
  74	7.2635e+00	2.9053	4.777950	0.000172	1.722959	0.583754	0.000069
  75	7.3630e+00	2.9518	4.959621	0.000456	4.560775	1.545232	0.000183
  76	7.4625e+00	2.9887	4.983844	0.000061	0.608103	0.206031	0.000024
  77	7.5620e+00	3.0272	5.096884	0.000284	2.837815	0.961478	0.000114
  78	7.6615e+00	3.0737	5.262406	0.000416	4.155373	1.407878	0.000166
  79	7.7610e+00	3.0962	5.339112	0.000193	1.925660	0.652431	0.000077
  80	7.8605e+00	3.1587	5.492523	0.000385	3.851321	1.304863	0.000154
  81	7.9600e+00	3.1828	5.629786	0.000345	3.445919	1.167509	0.000138
  82	8.0595e+00	3.2261	5.734751	0.000264	2.635114	0.892801	0.000105
  83	8.1590e+00	3.2598	5.831643	0.000243	2.432413	0.824124	0.000097
  84	8.2585e+00	3.2999	5.989091	0.000395	3.952671	1.339201	0.000158
  85	8.3580e+00	3.3432	6.106168	0.000294	2.939166	0.995816	0.000118
  86	8.4575e+00	3.3865	6.207096	0.000253	2.533764	0.858462	0.000101
  87	8.5570e+00	3.4202	6.320136	0.000284	2.837815	0.961478	0.000114
  88	8.6565e+00	3.4716	6.429139	0.000274	2.736465	0.927139	0.000110
  89	8.7560e+00	3.5036	6.542178	0.000284	2.837815	0.961478	0.000114
  90	8.8555e+00	3.5421	6.683478	0.000355	3.547269	1.201847	0.000142
  91	8.9550e+00	3.5790	6.776332	0.000233	2.331063	0.789785	0.000093
  92	9.0545e+00	3.6208	6.917632	0.000355	3.547269	1.201847	0.000142
  93	9.1540e+00	3.6657	7.018560	0.000253	2.533764	0.858462	0.000101
  94	9.2535e+00	3.7122	7.091229	0.000182	1.824310	0.618093	0.000073
  95	9.3530e+00	3.7475	7.216380	0.000314	3.141867	1.064493	0.000126
  96	9.4525e+00	3.7908	7.293086	0.000193	1.925660	0.652431	0.000077
  97	9.5520e+00	3.8229	7.414200	0.000304	3.040516	1.030155	0.000122
  98	9.6515e+00	3.8646	7.503017	0.000223	2.229712	0.755447	0.000089
  99	9.7510e+00	3.8999	7.652391	0.000375	3.749970	1.270524	0.000150
 100	9.8505e+00	3.9400	7.793691	0.000355	3.547269	1.201847	0.000142
 101	9.9500e+00	3.9849	7.999584	0.000517	5.168878	1.751263	0.000207
 102	1.0050e+01	4.0218	8.076290	0.000193	1.925660	0.652431	0.000077
 103	1.0149e+01	4.0635	8.197404	0.000304	3.040516	1.030155	0.000122
 104	1.0248e+01	4.1036	8.298333	0.000253	2.533764	0.858462	0.000101
 105	1.0348e+01	4.1405	8.431558	0.000334	3.344568	1.133170	0.000134
 106	1.0447e+01	4.1758	8.544598	0.000284	2.837815	0.961478	0.000114
 107	1.0547e+01	4.2272	8.681860	0.000345	3.445919	1.167509	0.000138
 108	1.0646e+01	4.2673	8.742417	0.000152	1.520258	0.515077	0.000061
 109	1.0746e+01	4.2961	8.867569	0.000314	3.141867	1.064493	0.000126
 110	1.0845e+01	4.3411	8.972534	0.000264	2.635114	0.892801	0.000105
 111	1.0945e+01	4.3780	9.073463	0.000253	2.533764	0.858462	0.000101
 112	1.1044e+01	4.4245	9.210725	0.000345	3.445919	1.167509	0.000138
 113	1.1144e+01	4.4678	9.307616	0.000243	2.432413	0.824124	0.000097
 114	1.1243e+01	4.4999	9.404508	0.000243	2.432413	0.824124	0.000097
 115	1.1343e+01	4.5352	9.509473	0.000264	2.635114	0.892801	0.000105
 116	1.1443e+01	4.5833	9.610402	0.000253	2.533764	0.858462	0.000101
 117	1.1542e+01	4.6234	9.711330	0.000253	2.533764	0.858462	0.000101
 118	1.1642e+01	4.6619	9.828407	0.000294	2.939166	0.995816	0.000118
 119	1.1741e+01	4.7036	9.969707	0.000355	3.547269	1.201847	0.000142
 120	1.1841e+01	4.7373	10.070635	0.000253	2.533764	0.858462	0.000101
 121	1.1940e+01	4.7870	10.211935	0.000355	3.547269	1.201847	0.000142
 122	1.2040e+01	4.8255	10.337086	0.000314	3.141867	1.064493	0.000126
 123	1.2139e+01	4.8576	10.442052	0.000264	2.635114	0.892801	0.000105
 124	1.2239e+01	4.8993	10.575277	0.000334	3.344568	1.133170	0.000134
 125	1.2338e+01	4.9266	10.668131	0.000233	2.331063	0.789785	0.000093
 126	1.2438e+01	4.9827	10.793282	0.000314	3.141867	1.064493	0.000126
 127	1.2537e+01	5.0180	10.890174	0.000243	2.432413	0.824124	0.000097
 128	1.2636e+01	5.0533	11.015325	0.000314	3.141867	1.064493	0.000126
 129	1.2736e+01	5.1079	11.160662	0.000365	3.648620	1.236186	0.000146
 130	1.2835e+01	5.1319	11.261590	0.000253	2.533764	0.858462	0.000101
 131	1.2935e+01	5.1672	11.382704	0.000304	3.040516	1.030155	0.000122
 132	1.3034e+01	5.2202	11.499781	0.000294	2.939166	0.995816	0.000118
 133	1.3134e+01	5.2571	11.604747	0.000264	2.635114	0.892801	0.000105
 134	1.3233e+01	5.3036	11.661267	0.000142	1.418908	0.480739	0.000057
 135	1.3333e+01	5.3389	11.774306	0.000284	2.837815	0.961478	0.000114
 136	1.3432e+01	5.3694	11.871198	0.000243	2.432413	0.824124	0.000097
 137	1.3532e+01	5.4111	12.020572	0.000375	3.749970	1.270524	0.000150
 138	1.3632e+01	5.4624	12.165909	0.000365	3.648620	1.236186	0.000146
 139	1.3731e+01	5.4993	12.307208	0.000355	3.547269	1.201847	0.000142
 140	1.3831e+01	5.5330	12.444471	0.000345	3.445919	1.167509	0.000138
 141	1.3930e+01	5.5763	12.533288	0.000223	2.229712	0.755447	0.000089
 142	1.4030e+01	5.6068	12.686699	0.000385	3.851321	1.304863	0.000154
 143	1.4129e+01	5.6517	12.795702	0.000274	2.736465	0.927139	0.000110
 144	1.4229e+01	5.6998	12.908742	0.000284	2.837815	0.961478	0.000114
 145	1.4328e+01	5.7399	13.062153	0.000385	3.851321	1.304863	0.000154
 146	1.4428e+01	5.7736	13.146933	0.000213	2.128362	0.721108	0.000085
 147	1.4527e+01	5.8105	13.288232	0.000355	3.547269	1.201847	0.000142
 148	1.4627e+01	5.8571	13.397235	0.000274	2.736465	0.927139	0.000110
 149	1.4726e+01	5.8956	13.498163	0.000253	2.533764	0.858462	0.000101
 150	1.4825e+01	5.9308	13.623315	0.000314	3.141867	1.064493	0.000126
 151	1.4925e+01	5.9661	13.776726	0.000385	3.851321	1.304863	0.000154
 152	1.5024e+01	6.0175	13.825171	0.000122	1.216207	0.412062	0.000049
 153	1.5124e+01	6.0624	13.926100	0.000253	2.533764	0.858462	0.000101
 154	1.5223e+01	6.0977	14.035102	0.000274	2.736465	0.927139	0.000110
 155	1.5323e+01	6.1298	14.192551	0.000395	3.952671	1.339201	0.000158
 156	1.5422e+01	6.1779	14.305590	0.000284	2.837815	0.961478	0.000114
 157	1.5522e+01	6.2132	14.438816	0.000334	3.344568	1.133170	0.000134
 158	1.5621e+01	6.2565	14.588190	0.000375	3.749970	1.270524	0.000150
 159	1.5721e+01	6.2902	14.709304	0.000304	3.040516	1.030155	0.000122
 160	1.5820e+01	6.3319	14.842530	0.000334	3.344568	1.133170	0.000134
 161	1.5920e+01	6.3736	14.911161	0.000172	1.722959	0.583754	0.000069
 162	1.6020e+01	6.4169	15.076683	0.000416	4.155373	1.407878	0.000166
 163	1.6119e+01	6.4490	15.213946	0.000345	3.445919	1.167509	0.000138
 164	1.6218e+01	6.4971	15.322949	0.000274	2.736465	0.927139	0.000110
 165	1.6318e+01	6.5244	15.440026	0.000294	2.939166	0.995816	0.000118
 166	1.6418e+01	6.5677	15.524805	0.000213	2.128362	0.721108	0.000085
 167	1.6517e+01	6.6046	15.682254	0.000395	3.952671	1.339201	0.000158
 168	1.6616e+01	6.6511	15.775108	0.000233	2.331063	0.789785	0.000093
 169	1.6716e+01	6.6800	15.908333	0.000334	3.344568	1.133170	0.000134
 170	1.6816e+01	6.7201	16.005225	0.000243	2.432413	0.824124	0.000097
 171	1.6915e+01	6.7699	16.178821	0.000436	4.358074	1.476555	0.000174
 172	1.7015e+01	6.8148	16.207081	0.000071	0.709454	0.240369	0.000028
 173	1.7114e+01	6.8421	16.352418	0.000365	3.648620	1.236186	0.000146
 174	1.7213e+01	6.8998	16.461421	0.000274	2.736465	0.927139	0.000110
 175	1.7313e+01	6.9319	16.618869	0.000395	3.952671	1.339201	0.000158
 176	1.7413e+01	6.9752	16.739983	0.000304	3.040516	1.030155	0.000122
 177	1.7512e+01	7.0121	16.881283	0.000355	3.547269	1.201847	0.000142
 178	1.7611e+01	7.0522	16.990286	0.000274	2.736465	0.927139	0.000110
 179	1.7711e+01	7.0907	17.111400	0.000304	3.040516	1.030155	0.000122
 180	1.7811e+01	7.1388	17.248662	0.000345	3.445919	1.167509	0.000138
 181	1.7910e+01	7.1709	17.381888	0.000334	3.344568	1.133170	0.000134
 182	1.8009e+01	7.2078	17.507039	0.000314	3.141867	1.064493	0.000126
 183	1.8109e+01	7.2511	17.603930	0.000243	2.432413	0.824124	0.000097
 184	1.8209e+01	7.2832	17.725044	0.000304	3.040516	1.030155	0.000122
 185	1.8308e+01	7.3265	17.825973	0.000253	2.533764	0.858462	0.000101
 186	1.8407e+01	7.3682	17.967273	0.000355	3.547269	1.201847	0.000142
 187	1.8507e+01	7.4116	18.100498	0.000334	3.344568	1.133170	0.000134
 188	1.8607e+01	7.4485	18.181241	0.000203	2.027011	0.686770	0.000081
 189	1.8706e+01	7.4870	18.346763	0.000416	4.155373	1.407878	0.000166
 190	1.8805e+01	7.5319	18.463840	0.000294	2.939166	0.995816	0.000118
 191	1.8905e+01	7.5688	18.576880	0.000284	2.837815	0.961478	0.000114
 192	1.9005e+01	7.6153	18.633400	0.000142	1.418908	0.480739	0.000057
 193	1.9104e+01	7.6490	18.766625	0.000334	3.344568	1.133170	0.000134
 194	1.9203e+01	7.6939	18.903888	0.000345	3.445919	1.167509	0.000138
 195	1.9303e+01	7.7276	19.065374	0.000405	4.054022	1.373540	0.000162
 196	1.9402e+01	7.7725	19.190525	0.000314	3.141867	1.064493	0.000126
 197	1.9502e+01	7.8046	19.307602	0.000294	2.939166	0.995816	0.000118
 198	1.9602e+01	7.8431	19.477161	0.000426	4.256723	1.442217	0.000170
 199	1.9701e+01	7.8832	19.574053	0.000243	2.432413	0.824124	0.000097
 200	1.9800e+01	7.9217	19.695167	0.000304	3.040516	1.030155	0.000122
 201	1.9900e+01	7.9714	19.856652	0.000405	4.054022	1.373540	0.000162
 202	2.0000e+01	7.9971	19.977766	0.000304	3.040516	1.030155	0.000122
 203	2.0099e+01	8.0484	20.058509	0.000203	2.027011	0.686770	0.000081
 204	2.0198e+01	8.0853	20.199809	0.000355	3.547269	1.201847	0.000142
 205	2.0298e+01	8.1222	20.341108	0.000355	3.547269	1.201847	0.000142
 206	2.0398e+01	8.1639	20.462222	0.000304	3.040516	1.030155	0.000122
 207	2.0497e+01	8.1992	20.567188	0.000264	2.635114	0.892801	0.000105
 208	2.0596e+01	8.2522	20.676191	0.000274	2.736465	0.927139	0.000110
 209	2.0696e+01	8.2875	20.821528	0.000365	3.648620	1.236186	0.000146
 210	2.0796e+01	8.3260	20.946679	0.000314	3.141867	1.064493	0.000126
 211	2.0895e+01	8.3757	21.023384	0.000193	1.925660	0.652431	0.000077
 212	2.0994e+01	8.4062	21.172758	0.000375	3.749970	1.270524	0.000150
 213	2.1094e+01	8.4495	21.297910	0.000314	3.141867	1.064493	0.000126
 214	2.1194e+01	8.4816	21.435172	0.000345	3.445919	1.167509	0.000138
 215	2.1293e+01	8.5233	21.572435	0.000345	3.445919	1.167509	0.000138
 216	2.1392e+01	8.5634	21.689512	0.000294	2.939166	0.995816	0.000118
 217	2.1492e+01	8.6051	21.778329	0.000223	2.229712	0.755447	0.000089
 218	2.1591e+01	8.6484	21.943851	0.000416	4.155373	1.407878	0.000166
 219	2.1691e+01	8.6805	22.016520	0.000182	1.824310	0.618093	0.000073
 220	2.1791e+01	8.7302	22.182042	0.000416	4.155373	1.407878	0.000166
 221	2.1890e+01	8.7623	22.291045	0.000274	2.736465	0.927139	0.000110
 222	2.1989e+01	8.8040	22.404085	0.000284	2.837815	0.961478	0.000114
 223	2.2089e+01	8.8425	22.484827	0.000203	2.027011	0.686770	0.000081
 224	2.2189e+01	8.8794	22.630164	0.000365	3.648620	1.236186	0.000146
 225	2.2288e+01	8.9179	22.779538	0.000375	3.749970	1.270524	0.000150
 226	2.2387e+01	8.9596	22.884504	0.000264	2.635114	0.892801	0.000105
 227	2.2487e+01	9.0046	23.017729	0.000334	3.344568	1.133170	0.000134
 228	2.2587e+01	9.0447	23.114621	0.000243	2.432413	0.824124	0.000097
 229	2.2686e+01	9.0751	23.227660	0.000284	2.837815	0.961478	0.000114
 230	2.2785e+01	9.1201	23.328589	0.000253	2.533764	0.858462	0.000101
 231	2.2885e+01	9.1521	23.441629	0.000284	2.837815	0.961478	0.000114
 232	2.2985e+01	9.2035	23.591003	0.000375	3.749970	1.270524	0.000150
 233	2.3084e+01	9.2420	23.708080	0.000294	2.939166	0.995816	0.000118
 234	2.3183e+01	9.2773	23.833231	0.000314	3.141867	1.064493	0.000126
 235	2.3283e+01	9.3206	23.946271	0.000284	2.837815	0.961478	0.000114
 236	2.3383e+01	9.3655	24.039125	0.000233	2.331063	0.789785	0.000093
 237	2.3482e+01	9.4024	24.188499	0.000375	3.749970	1.270524	0.000150
 238	2.3581e+01	9.4457	24.321724	0.000334	3.344568	1.133170	0.000134
 239	2.3681e+01	9.4778	24.442838	0.000304	3.040516	1.030155	0.000122
 240	2.3780e+01	9.5099	24.499358	0.000142	1.418908	0.480739	0.000057
 241	2.3880e+01	9.5532	24.640658	0.000355	3.547269	1.201847	0.000142
 242	2.3980e+01	9.5949	24.765809	0.000314	3.141867	1.064493	0.000126
 243	2.4079e+01	9.6446	24.890960	0.000314	3.141867	1.064493	0.000126
 244	2.4178e+01	9.6799	25.004000	0.000284	2.837815	0.961478	0.000114
 245	2.4278e+01	9.7200	25.125114	0.000304	3.040516	1.030155	0.000122
 246	2.4378e+01	9.7650	25.226043	0.000253	2.533764	0.858462	0.000101
 247	2.4477e+01	9.8019	25.335045	0.000274	2.736465	0.927139	0.000110
 248	2.4576e+01	9.8372	25.472308	0.000345	3.445919	1.167509	0.000138
 249	2.4676e+01	9.8805	25.565162	0.000233	2.331063	0.789785	0.000093
 250	2.4776e+01	9.9238	25.674165	0.000274	2.736465	0.927139	0.000110
 251	2.4875e+01	9.9527	25.819502	0.000365	3.648620	1.236186	0.000146
 252	2.4974e+01	9.9944	25.940616	0.000304	3.040516	1.030155	0.000122
 253	2.5074e+01	10.0377	26.025396	0.000213	2.128362	0.721108	0.000085
 254	2.5174e+01	10.0874	26.166695	0.000355	3.547269	1.201847	0.000142
 255	2.5273e+01	10.1099	26.283772	0.000294	2.939166	0.995816	0.000118
 256	2.5372e+01	10.1612	26.388738	0.000264	2.635114	0.892801	0.000105
 257	2.5472e+01	10.2013	26.505815	0.000294	2.939166	0.995816	0.000118
 258	2.5572e+01	10.2366	26.602706	0.000243	2.432413	0.824124	0.000097
 259	2.5671e+01	10.2783	26.744006	0.000355	3.547269	1.201847	0.000142
 260	2.5770e+01	10.3072	26.840897	0.000243	2.432413	0.824124	0.000097
 261	2.5870e+01	10.3617	26.982197	0.000355	3.547269	1.201847	0.000142
 262	2.5970e+01	10.3986	27.103311	0.000304	3.040516	1.030155	0.000122
 263	2.6069e+01	10.4468	27.200202	0.000243	2.432413	0.824124	0.000097
 264	2.6169e+01	10.4772	27.313242	0.000284	2.837815	0.961478	0.000114
 265	2.6268e+01	10.5029	27.454542	0.000355	3.547269	1.201847	0.000142
 266	2.6367e+01	10.5575	27.571619	0.000294	2.939166	0.995816	0.000118
 267	2.6467e+01	10.5895	27.688695	0.000294	2.939166	0.995816	0.000118
 268	2.6567e+01	10.6345	27.801735	0.000284	2.837815	0.961478	0.000114
 269	2.6666e+01	10.6698	27.934961	0.000334	3.344568	1.133170	0.000134
 270	2.6765e+01	10.7195	28.031852	0.000243	2.432413	0.824124	0.000097
 271	2.6865e+01	10.7516	28.140855	0.000274	2.736465	0.927139	0.000110
 272	2.6965e+01	10.7949	28.245820	0.000264	2.635114	0.892801	0.000105
 273	2.7064e+01	10.8350	28.370971	0.000314	3.141867	1.064493	0.000126
 274	2.7163e+01	10.8735	28.471900	0.000253	2.533764	0.858462	0.000101
 275	2.7263e+01	10.9152	28.601088	0.000324	3.243218	1.098832	0.000130
 276	2.7363e+01	10.9601	28.681831	0.000203	2.027011	0.686770	0.000081
 277	2.7462e+01	10.9938	28.831205	0.000375	3.749970	1.270524	0.000150
 278	2.7561e+01	11.0451	28.948282	0.000294	2.939166	0.995816	0.000118
 279	2.7661e+01	11.0708	29.061322	0.000284	2.837815	0.961478	0.000114
 280	2.7761e+01	11.1205	29.158213	0.000243	2.432413	0.824124	0.000097
 281	2.7860e+01	11.1478	29.259141	0.000253	2.533764	0.858462	0.000101
 282	2.7959e+01	11.1831	29.368144	0.000274	2.736465	0.927139	0.000110
 283	2.8059e+01	11.2360	29.517518	0.000375	3.749970	1.270524	0.000150
 284	2.8159e+01	11.2681	29.614409	0.000243	2.432413	0.824124	0.000097
 285	2.8258e+01	11.3082	29.727449	0.000284	2.837815	0.961478	0.000114
 286	2.8358e+01	11.3516	29.808192	0.000203	2.027011	0.686770	0.000081
 287	2.8457e+01	11.3965	29.949491	0.000355	3.547269	1.201847	0.000142
 288	2.8556e+01	11.4221	30.098865	0.000375	3.749970	1.270524	0.000150
 289	2.8656e+01	11.4767	30.207868	0.000274	2.736465	0.927139	0.000110
 290	2.8756e+01	11.5152	30.244202	0.000091	0.912155	0.309046	0.000037
 291	2.8855e+01	11.5505	30.397614	0.000385	3.851321	1.304863	0.000154
 292	2.8954e+01	11.5906	30.474319	0.000193	1.925660	0.652431	0.000077
 293	2.9054e+01	11.6307	30.603507	0.000324	3.243218	1.098832	0.000130
 294	2.9154e+01	11.6740	30.712510	0.000274	2.736465	0.927139	0.000110
 295	2.9253e+01	11.7173	30.845736	0.000334	3.344568	1.133170	0.000134
 296	2.9352e+01	11.7430	30.954738	0.000274	2.736465	0.927139	0.000110
 297	2.9452e+01	11.7863	31.067778	0.000284	2.837815	0.961478	0.000114
 298	2.9552e+01	11.8264	31.233301	0.000416	4.155373	1.407878	0.000166
 299	2.9651e+01	11.8777	31.322118	0.000223	2.229712	0.755447	0.000089
 300	2.9750e+01	11.9178	31.398823	0.000193	1.925660	0.652431	0.000077
 301	2.9850e+01	11.9483	31.519937	0.000304	3.040516	1.030155	0.000122
 302	2.9950e+01	11.9820	31.628940	0.000274	2.736465	0.927139	0.000110
 303	3.0049e+01	12.0317	31.782351	0.000385	3.851321	1.304863	0.000154
 304	3.0148e+01	12.0735	31.871168	0.000223	2.229712	0.755447	0.000089
 305	3.0248e+01	12.1039	32.016505	0.000365	3.648620	1.236186	0.000146
 306	3.0348e+01	12.1440	32.173953	0.000395	3.952671	1.339201	0.000158
 307	3.0447e+01	12.1890	32.282956	0.000274	2.736465	0.927139	0.000110
 308	3.0547e+01	12.2371	32.416181	0.000334	3.344568	1.133170	0.000134
 309	3.0646e+01	12.2820	32.504998	0.000223	2.229712	0.755447	0.000089
 310	3.0745e+01	12.3093	32.581704	0.000193	1.925660	0.652431	0.000077
 311	3.0845e+01	12.3478	32.690707	0.000274	2.736465	0.927139	0.000110
 312	3.0945e+01	12.3927	32.836044	0.000365	3.648620	1.236186	0.000146
 313	3.1044e+01	12.4248	32.920823	0.000213	2.128362	0.721108	0.000085
 314	3.1143e+01	12.4793	33.037900	0.000294	2.939166	0.995816	0.000118
 315	3.1243e+01	12.5114	33.146903	0.000274	2.736465	0.927139	0.000110
 316	3.1343e+01	12.5499	33.304351	0.000395	3.952671	1.339201	0.000158
 317	3.1442e+01	12.5932	33.368945	0.000162	1.621609	0.549416	0.000065
 318	3.1541e+01	12.6205	33.514282	0.000365	3.648620	1.236186	0.000146
 319	3.1641e+01	12.6686	33.647508	0.000334	3.344568	1.133170	0.000134
 320	3.1741e+01	12.7087	33.756510	0.000274	2.736465	0.927139	0.000110
 321	3.1840e+01	12.7537	33.857439	0.000253	2.533764	0.858462	0.000101
 322	3.1939e+01	12.7841	33.986627	0.000324	3.243218	1.098832	0.000130
 323	3.2039e+01	12.8419	34.107741	0.000304	3.040516	1.030155	0.000122
 324	3.2139e+01	12.8611	34.281338	0.000436	4.358074	1.476555	0.000174
 325	3.2238e+01	12.9109	34.402452	0.000304	3.040516	1.030155	0.000122
 326	3.2337e+01	12.9446	34.519529	0.000294	2.939166	0.995816	0.000118
 327	3.2437e+01	12.9911	34.600272	0.000203	2.027011	0.686770	0.000081
 328	3.2536e+01	13.0264	34.729460	0.000324	3.243218	1.098832	0.000130
 329	3.2636e+01	13.0681	34.781943	0.000132	1.317557	0.446400	0.000053
 330	3.2736e+01	13.1034	34.907094	0.000314	3.141867	1.064493	0.000126
 331	3.2835e+01	13.1499	35.016097	0.000274	2.736465	0.927139	0.000110
 332	3.2934e+01	13.1868	35.129137	0.000284	2.837815	0.961478	0.000114
 333	3.3034e+01	13.2285	35.266399	0.000345	3.445919	1.167509	0.000138
 334	3.3133e+01	13.2622	35.423848	0.000395	3.952671	1.339201	0.000158
 335	3.3233e+01	13.2991	35.492479	0.000172	1.722959	0.583754	0.000069
 336	3.3333e+01	13.3424	35.613593	0.000304	3.040516	1.030155	0.000122
 337	3.3432e+01	13.3809	35.758930	0.000365	3.648620	1.236186	0.000146
 338	3.3532e+01	13.4258	35.892155	0.000334	3.344568	1.133170	0.000134
 339	3.3631e+01	13.4595	36.005195	0.000284	2.837815	0.961478	0.000114
 340	3.3730e+01	13.5012	36.085938	0.000203	2.027011	0.686770	0.000081
 341	3.3830e+01	13.5461	36.219163	0.000334	3.344568	1.133170	0.000134
 342	3.3929e+01	13.5782	36.360463	0.000355	3.547269	1.201847	0.000142
 343	3.4029e+01	13.6231	36.505800	0.000365	3.648620	1.236186	0.000146
 344	3.4129e+01	13.6600	36.639025	0.000334	3.344568	1.133170	0.000134
 345	3.4228e+01	13.7018	36.659211	0.000051	0.506753	0.171692	0.000020
 346	3.4328e+01	13.7451	36.784362	0.000314	3.141867	1.064493	0.000126
 347	3.4427e+01	13.7755	36.909513	0.000314	3.141867	1.064493	0.000126
 348	3.4526e+01	13.8253	37.018516	0.000274	2.736465	0.927139	0.000110
 349	3.4626e+01	13.8590	37.119445	0.000253	2.533764	0.858462	0.000101
 350	3.4725e+01	13.8878	37.297079	0.000446	4.459424	1.510894	0.000179
 351	3.4825e+01	13.9392	37.381858	0.000213	2.128362	0.721108	0.000085
 352	3.4925e+01	13.9825	37.498935	0.000294	2.939166	0.995816	0.000118
 353	3.5024e+01	14.0178	37.583715	0.000213	2.128362	0.721108	0.000085
 354	3.5123e+01	14.0547	37.741163	0.000395	3.952671	1.339201	0.000158
 355	3.5223e+01	14.1044	37.862278	0.000304	3.040516	1.030155	0.000122
 356	3.5322e+01	14.1397	37.987429	0.000314	3.141867	1.064493	0.000126
 357	3.5422e+01	14.1766	38.096431	0.000274	2.736465	0.927139	0.000110
 358	3.5522e+01	14.2183	38.237731	0.000355	3.547269	1.201847	0.000142
 359	3.5621e+01	14.2504	38.322511	0.000213	2.128362	0.721108	0.000085
 360	3.5721e+01	14.3017	38.479959	0.000395	3.952671	1.339201	0.000158
 361	3.5820e+01	14.3402	38.621259	0.000355	3.547269	1.201847	0.000142
 362	3.5919e+01	14.3803	38.730262	0.000274	2.736465	0.927139	0.000110
 363	3.6019e+01	14.4204	38.827153	0.000243	2.432413	0.824124	0.000097
 364	3.6118e+01	14.4638	38.968453	0.000355	3.547269	1.201847	0.000142
 365	3.6218e+01	14.4991	39.033047	0.000162	1.621609	0.549416	0.000065
 366	3.6318e+01	14.5376	39.166272	0.000334	3.344568	1.133170	0.000134
 367	3.6417e+01	14.5761	39.291424	0.000314	3.141867	1.064493	0.000126
 368	3.6517e+01	14.6178	39.408501	0.000294	2.939166	0.995816	0.000118
 369	3.6616e+01	14.6611	39.549800	0.000355	3.547269	1.201847	0.000142
 370	3.6715e+01	14.7028	39.642654	0.000233	2.331063	0.789785	0.000093
 371	3.6815e+01	14.7381	39.792028	0.000375	3.749970	1.270524	0.000150
 372	3.6914e+01	14.7798	39.901031	0.000274	2.736465	0.927139	0.000110
 373	3.7014e+01	14.8151	40.010034	0.000274	2.736465	0.927139	0.000110
 374	3.7114e+01	14.8536	40.135185	0.000314	3.141867	1.064493	0.000126
 375	3.7213e+01	14.9001	40.268410	0.000334	3.344568	1.133170	0.000134
 376	3.7313e+01	14.9418	40.369339	0.000253	2.533764	0.858462	0.000101
 377	3.7412e+01	14.9691	40.526787	0.000395	3.952671	1.339201	0.000158
 378	3.7511e+01	15.0204	40.619641	0.000233	2.331063	0.789785	0.000093
 379	3.7611e+01	15.0573	40.756904	0.000345	3.445919	1.167509	0.000138
 380	3.7711e+01	15.0942	40.849758	0.000233	2.331063	0.789785	0.000093
 381	3.7810e+01	15.1407	41.031429	0.000456	4.560775	1.545232	0.000183
 382	3.7910e+01	15.1728	41.067763	0.000091	0.912155	0.309046	0.000037
 383	3.8009e+01	15.2178	41.188877	0.000304	3.040516	1.030155	0.000122
 384	3.8108e+01	15.2563	41.346326	0.000395	3.952671	1.339201	0.000158
 385	3.8208e+01	15.2980	41.410920	0.000162	1.621609	0.549416	0.000065
 386	3.8307e+01	15.3365	41.560294	0.000375	3.749970	1.270524	0.000150
 387	3.8407e+01	15.3702	41.669297	0.000274	2.736465	0.927139	0.000110
 388	3.8507e+01	15.4183	41.774262	0.000264	2.635114	0.892801	0.000105
 389	3.8606e+01	15.4584	41.883265	0.000274	2.736465	0.927139	0.000110
 390	3.8706e+01	15.4825	42.008416	0.000314	3.141867	1.064493	0.000126
 391	3.8805e+01	15.5418	42.109344	0.000253	2.533764	0.858462	0.000101
 392	3.8904e+01	15.5851	42.238533	0.000324	3.243218	1.098832	0.000130
 393	3.9004e+01	15.6156	42.359647	0.000304	3.040516	1.030155	0.000122
 394	3.9103e+01	15.6589	42.460575	0.000253	2.533764	0.858462	0.000101
 395	3.9203e+01	15.6942	42.573615	0.000284	2.837815	0.961478	0.000114
 396	3.9303e+01	15.7343	42.694729	0.000304	3.040516	1.030155	0.000122
 397	3.9402e+01	15.7840	42.811806	0.000294	2.939166	0.995816	0.000118
 398	3.9502e+01	15.8145	42.892549	0.000203	2.027011	0.686770	0.000081
 399	3.9601e+01	15.8498	43.037886	0.000365	3.648620	1.236186	0.000146
 400	3.9700e+01	15.9028	43.154962	0.000294	2.939166	0.995816	0.000118
 401	3.9800e+01	15.9397	43.259928	0.000264	2.635114	0.892801	0.000105
 402	3.9900e+01	15.9750	43.389116	0.000324	3.243218	1.098832	0.000130
 403	3.9999e+01	16.0086	43.498119	0.000274	2.736465	0.927139	0.000110
 404	4.0099e+01	16.0568	43.578862	0.000203	2.027011	0.686770	0.000081
 405	4.0198e+01	16.0856	43.732273	0.000385	3.851321	1.304863	0.000154
 406	4.0297e+01	16.1338	43.813016	0.000203	2.027011	0.686770	0.000081
 407	4.0397e+01	16.1691	43.930093	0.000294	2.939166	0.995816	0.000118
 408	4.0496e+01	16.2124	44.031021	0.000253	2.533764	0.858462	0.000101
 409	4.0596e+01	16.2541	44.172321	0.000355	3.547269	1.201847	0.000142
 410	4.0696e+01	16.2942	44.273249	0.000253	2.533764	0.858462	0.000101
 411	4.0795e+01	16.3279	44.398400	0.000314	3.141867	1.064493	0.000126
 412	4.0895e+01	16.3648	44.527589	0.000324	3.243218	1.098832	0.000130
 413	4.0994e+01	16.4113	44.600257	0.000182	1.824310	0.618093	0.000073
 414	4.1093e+01	16.4466	44.745594	0.000365	3.648620	1.236186	0.000146
 415	4.1193e+01	16.4883	44.874782	0.000324	3.243218	1.098832	0.000130
 416	4.1292e+01	16.5204	44.927265	0.000132	1.317557	0.446400	0.000053
 417	4.1392e+01	16.5733	45.032231	0.000264	2.635114	0.892801	0.000105
 418	4.1492e+01	16.6102	45.149308	0.000294	2.939166	0.995816	0.000118
 419	4.1591e+01	16.6584	45.286570	0.000345	3.445919	1.167509	0.000138
 420	4.1691e+01	16.6872	45.387499	0.000253	2.533764	0.858462	0.000101
 421	4.1790e+01	16.7321	45.480353	0.000233	2.331063	0.789785	0.000093
 422	4.1889e+01	16.7658	45.589355	0.000274	2.736465	0.927139	0.000110
 423	4.1989e+01	16.8108	45.686247	0.000243	2.432413	0.824124	0.000097
 424	4.2089e+01	16.8525	45.831583	0.000365	3.648620	1.236186	0.000146
 425	4.2188e+01	16.8862	45.928475	0.000243	2.432413	0.824124	0.000097
 426	4.2288e+01	16.9263	46.065737	0.000345	3.445919	1.167509	0.000138
 427	4.2387e+01	16.9696	46.182814	0.000294	2.939166	0.995816	0.000118
 428	4.2486e+01	17.0049	46.263557	0.000203	2.027011	0.686770	0.000081
 429	4.2586e+01	17.0370	46.384671	0.000304	3.040516	1.030155	0.000122
 430	4.2685e+01	17.0931	46.509822	0.000314	3.141867	1.064493	0.000126
 431	4.2785e+01	17.1252	46.618825	0.000274	2.736465	0.927139	0.000110
 432	4.2885e+01	17.1669	46.743976	0.000314	3.141867	1.064493	0.000126
 433	4.2984e+01	17.2006	46.861053	0.000294	2.939166	0.995816	0.000118
 434	4.3084e+01	17.2535	46.929684	0.000172	1.722959	0.583754	0.000069
 435	4.3183e+01	17.2984	47.026576	0.000243	2.432413	0.824124	0.000097
 436	4.3282e+01	17.3257	47.196135	0.000426	4.256723	1.442217	0.000170
 437	4.3382e+01	17.3658	47.313212	0.000294	2.939166	0.995816	0.000118
 438	4.3481e+01	17.4156	47.446438	0.000334	3.344568	1.133170	0.000134
 439	4.3581e+01	17.4476	47.575626	0.000324	3.243218	1.098832	0.000130
 440	4.3681e+01	17.4877	47.615997	0.000101	1.013505	0.343385	0.000041
 441	4.3780e+01	17.5118	47.704814	0.000223	2.229712	0.755447	0.000089
 442	4.3880e+01	17.5647	47.850151	0.000365	3.648620	1.236186	0.000146
 443	4.3979e+01	17.6081	47.914746	0.000162	1.621609	0.549416	0.000065
 444	4.4078e+01	17.6385	48.039897	0.000314	3.141867	1.064493	0.000126
 445	4.4178e+01	17.6947	48.152937	0.000284	2.837815	0.961478	0.000114
 446	4.4278e+01	17.7220	48.249828	0.000243	2.432413	0.824124	0.000097
 447	4.4377e+01	17.7556	48.342682	0.000233	2.331063	0.789785	0.000093
 448	4.4477e+01	17.7942	48.435536	0.000233	2.331063	0.789785	0.000093
 449	4.4576e+01	17.8455	48.613170	0.000446	4.459424	1.510894	0.000179
 450	4.4675e+01	17.8776	48.661616	0.000122	1.216207	0.412062	0.000049
 451	4.4775e+01	17.9289	48.786767	0.000314	3.141867	1.064493	0.000126
 452	4.4874e+01	17.9674	48.871547	0.000213	2.128362	0.721108	0.000085
 453	4.4974e+01	18.0075	48.972475	0.000253	2.533764	0.858462	0.000101
 454	4.5074e+01	18.0492	49.101663	0.000324	3.243218	1.098832	0.000130
 455	4.5173e+01	18.0941	49.222777	0.000304	3.040516	1.030155	0.000122
 456	4.5273e+01	18.1118	49.339854	0.000294	2.939166	0.995816	0.000118
 457	4.5372e+01	18.1631	49.456931	0.000294	2.939166	0.995816	0.000118
 458	4.5471e+01	18.2064	49.561897	0.000264	2.635114	0.892801	0.000105
 459	4.5571e+01	18.2337	49.634565	0.000182	1.824310	0.618093	0.000073
 460	4.5670e+01	18.2883	49.763754	0.000324	3.243218	1.098832	0.000130
 461	4.5770e+01	18.3332	49.828348	0.000162	1.621609	0.549416	0.000065
 462	4.5870e+01	18.3637	49.933313	0.000264	2.635114	0.892801	0.000105
 463	4.5969e+01	18.4006	50.042316	0.000274	2.736465	0.927139	0.000110
 464	4.6069e+01	18.4455	50.155356	0.000284	2.837815	0.961478	0.000114
 465	4.6168e+01	18.4808	50.272433	0.000294	2.939166	0.995816	0.000118
 466	4.6267e+01	18.5321	50.389510	0.000294	2.939166	0.995816	0.000118
 467	4.6367e+01	18.5610	50.470252	0.000203	2.027011	0.686770	0.000081
 468	4.6467e+01	18.5995	50.615589	0.000365	3.648620	1.236186	0.000146
 469	4.6566e+01	18.6476	50.724592	0.000274	2.736465	0.927139	0.000110
 470	4.6666e+01	18.6925	50.857817	0.000334	3.344568	1.133170	0.000134
 471	4.6765e+01	18.7214	50.954709	0.000243	2.432413	0.824124	0.000097
 472	4.6864e+01	18.7647	51.031414	0.000193	1.925660	0.652431	0.000077
 473	4.6964e+01	18.8032	51.205011	0.000436	4.358074	1.476555	0.000174
 474	4.7063e+01	18.8385	51.330162	0.000314	3.141867	1.064493	0.000126
 475	4.7163e+01	18.8930	51.447239	0.000294	2.939166	0.995816	0.000118
 476	4.7263e+01	18.9187	51.560279	0.000284	2.837815	0.961478	0.000114
 477	4.7362e+01	18.9636	51.653133	0.000233	2.331063	0.789785	0.000093
 478	4.7462e+01	19.0021	51.705616	0.000132	1.317557	0.446400	0.000053
 479	4.7561e+01	19.0342	51.867101	0.000405	4.054022	1.373540	0.000162
 480	4.7660e+01	19.0807	51.963993	0.000243	2.432413	0.824124	0.000097
 481	4.7760e+01	19.1289	52.052810	0.000223	2.229712	0.755447	0.000089
 482	4.7859e+01	19.1610	52.186035	0.000334	3.344568	1.133170	0.000134
 483	4.7959e+01	19.1995	52.291001	0.000264	2.635114	0.892801	0.000105
 484	4.8059e+01	19.2444	52.404040	0.000284	2.837815	0.961478	0.000114
 485	4.8158e+01	19.2716	52.533229	0.000324	3.243218	1.098832	0.000130
 486	4.8258e+01	19.3278	52.638194	0.000264	2.635114	0.892801	0.000105
 487	4.8357e+01	19.3599	52.755271	0.000294	2.939166	0.995816	0.000118
 488	4.8456e+01	19.3920	52.868311	0.000284	2.837815	0.961478	0.000114
 489	4.8556e+01	19.4385	52.997499	0.000324	3.243218	1.098832	0.000130
 490	4.8656e+01	19.4770	53.090354	0.000233	2.331063	0.789785	0.000093
 491	4.8755e+01	19.5203	53.203393	0.000284	2.837815	0.961478	0.000114
 492	4.8855e+01	19.5604	53.280099	0.000193	1.925660	0.652431	0.000077
 493	4.8954e+01	19.6037	53.453696	0.000436	4.358074	1.476555	0.000174
 494	4.9053e+01	19.6454	53.590958	0.000345	3.445919	1.167509	0.000138
 495	4.9153e+01	19.6775	53.728221	0.000345	3.445919	1.167509	0.000138
 496	4.9252e+01	19.7256	53.764555	0.000091	0.912155	0.309046	0.000037
 497	4.9352e+01	19.7609	53.857409	0.000233	2.331063	0.789785	0.000093
 498	4.9452e+01	19.8026	53.994672	0.000345	3.445919	1.167509	0.000138
 499	4.9551e+01	19.8395	54.071378	0.000193	1.925660	0.652431	0.000077
 500	4.9651e+01	19.8748	54.208640	0.000345	3.445919	1.167509	0.000138
 501	4.9750e+01	19.9117	54.321680	0.000284	2.837815	0.961478	0.000114
 502	4.9849e+01	19.9486	54.446831	0.000314	3.141867	1.064493	0.000126
 503	4.9949e+01	19.9968	54.563908	0.000294	2.939166	0.995816	0.000118
 504	5.0048e+01	19.9583	54.458943	0.000264	2.635114	0.892801	-0.000105
 505	5.0148e+01	19.9117	54.378200	0.000203	2.027011	0.686770	-0.000081
 506	5.0248e+01	19.8764	54.309569	0.000172	1.722959	0.583754	-0.000069
 507	5.0347e+01	19.8363	54.184417	0.000314	3.141867	1.064493	-0.000126
 508	5.0447e+01	19.7898	54.148083	0.000091	0.912155	0.309046	-0.000037
 509	5.0546e+01	19.7593	54.010820	0.000345	3.445919	1.167509	-0.000138
 510	5.0645e+01	19.7240	53.905855	0.000264	2.635114	0.892801	-0.000105
 511	5.0745e+01	19.6775	53.808964	0.000243	2.432413	0.824124	-0.000097
 512	5.0844e+01	19.6294	53.792815	0.000041	0.405402	0.137354	-0.000016
 513	5.0944e+01	19.5941	53.675738	0.000294	2.939166	0.995816	-0.000118
 514	5.1044e+01	19.5556	53.566736	0.000274	2.736465	0.927139	-0.000110
 515	5.1143e+01	19.5203	53.445621	0.000304	3.040516	1.030155	-0.000122
 516	5.1242e+01	19.4834	53.348730	0.000243	2.432413	0.824124	-0.000097
 517	5.1342e+01	19.4401	53.235690	0.000284	2.837815	0.961478	-0.000114
 518	5.1441e+01	19.3952	53.146873	0.000223	2.229712	0.755447	-0.000089
 519	5.1541e+01	19.3567	53.029796	0.000294	2.939166	0.995816	-0.000118
 520	5.1641e+01	19.3278	52.953091	0.000193	1.925660	0.652431	-0.000077
 521	5.1740e+01	19.2781	52.836014	0.000294	2.939166	0.995816	-0.000118
 522	5.1840e+01	19.2428	52.727011	0.000274	2.736465	0.927139	-0.000110
 523	5.1939e+01	19.1995	52.638194	0.000223	2.229712	0.755447	-0.000089
 524	5.2038e+01	19.1626	52.577637	0.000152	1.520258	0.515077	-0.000061
 525	5.2138e+01	19.1160	52.444412	0.000334	3.344568	1.133170	-0.000134
 526	5.2237e+01	19.0791	52.351558	0.000233	2.331063	0.789785	-0.000093
 527	5.2337e+01	19.0310	52.242555	0.000274	2.736465	0.927139	-0.000110
 528	5.2437e+01	19.0037	52.186035	0.000142	1.418908	0.480739	-0.000057
 529	5.2536e+01	18.9620	52.081070	0.000264	2.635114	0.892801	-0.000105
 530	5.2636e+01	18.9267	51.984178	0.000243	2.432413	0.824124	-0.000097
 531	5.2735e+01	18.8786	51.915547	0.000172	1.722959	0.583754	-0.000069
 532	5.2834e+01	18.8513	51.850953	0.000162	1.621609	0.549416	-0.000065
 533	5.2934e+01	18.7936	51.762136	0.000223	2.229712	0.755447	-0.000089
 534	5.3033e+01	18.7727	51.641022	0.000304	3.040516	1.030155	-0.000122
 535	5.3133e+01	18.7246	51.536056	0.000264	2.635114	0.892801	-0.000105
 536	5.3233e+01	18.6845	51.414942	0.000304	3.040516	1.030155	-0.000122
 537	5.3332e+01	18.6476	51.334199	0.000203	2.027011	0.686770	-0.000081
 538	5.3431e+01	18.5979	51.225197	0.000274	2.736465	0.927139	-0.000110
 539	5.3531e+01	18.5690	51.108120	0.000294	2.939166	0.995816	-0.000118
 540	5.3630e+01	18.5273	51.051600	0.000142	1.418908	0.480739	-0.000057
 541	5.3730e+01	18.4824	50.902226	0.000375	3.749970	1.270524	-0.000150
 542	5.3830e+01	18.4423	50.821483	0.000203	2.027011	0.686770	-0.000081
 543	5.3929e+01	18.4134	50.700369	0.000304	3.040516	1.030155	-0.000122
 544	5.4029e+01	18.3637	50.631738	0.000172	1.722959	0.583754	-0.000069
 545	5.4128e+01	18.3300	50.518698	0.000284	2.837815	0.961478	-0.000114
 546	5.4227e+01	18.2850	50.450067	0.000172	1.722959	0.583754	-0.000069
 547	5.4327e+01	18.2449	50.324916	0.000314	3.141867	1.064493	-0.000126
 548	5.4426e+01	18.2048	50.256284	0.000172	1.722959	0.583754	-0.000069
 549	5.4526e+01	18.1727	50.171504	0.000213	2.128362	0.721108	-0.000085
 550	5.4626e+01	18.1198	50.082687	0.000223	2.229712	0.755447	-0.000089
 551	5.4725e+01	18.0861	50.022130	0.000152	1.520258	0.515077	-0.000061
 552	5.4825e+01	18.0428	49.892942	0.000324	3.243218	1.098832	-0.000130
 553	5.4924e+01	18.0059	49.828348	0.000162	1.621609	0.549416	-0.000065
 554	5.5023e+01	17.9642	49.642640	0.000466	4.662125	1.579571	-0.000187
 555	5.5123e+01	17.9225	49.549785	0.000233	2.331063	0.789785	-0.000093
 556	5.5222e+01	17.8872	49.416560	0.000334	3.344568	1.133170	-0.000134
 557	5.5322e+01	17.8423	49.303520	0.000284	2.837815	0.961478	-0.000114
 558	5.5422e+01	17.7990	49.174332	0.000324	3.243218	1.098832	-0.000130
 559	5.5521e+01	17.7685	49.121849	0.000132	1.317557	0.446400	-0.000053
 560	5.5620e+01	17.7284	48.976512	0.000365	3.648620	1.236186	-0.000146
 561	5.5720e+01	17.6883	48.895769	0.000203	2.027011	0.686770	-0.000081
 562	5.5819e+01	17.6482	48.794841	0.000253	2.533764	0.858462	-0.000101
 563	5.5919e+01	17.6113	48.665653	0.000324	3.243218	1.098832	-0.000130
 564	5.6019e+01	17.5647	48.597021	0.000172	1.722959	0.583754	-0.000069
 565	5.6118e+01	17.5278	48.455722	0.000355	3.547269	1.201847	-0.000142
 566	5.6218e+01	17.4893	48.358830	0.000243	2.432413	0.824124	-0.000097
 567	5.6317e+01	17.4428	48.278088	0.000203	2.027011	0.686770	-0.000081
 568	5.6416e+01	17.4139	48.197345	0.000203	2.027011	0.686770	-0.000081
 569	5.6516e+01	17.3690	48.116602	0.000203	2.027011	0.686770	-0.000081
 570	5.6615e+01	17.3273	48.027785	0.000223	2.229712	0.755447	-0.000089
 571	5.6715e+01	17.2840	47.914746	0.000284	2.837815	0.961478	-0.000114
 572	5.6815e+01	17.2407	47.773446	0.000355	3.547269	1.201847	-0.000142
 573	5.6914e+01	17.2134	47.716926	0.000142	1.418908	0.480739	-0.000057
 574	5.7014e+01	17.1685	47.547366	0.000426	4.256723	1.442217	-0.000170
 575	5.7113e+01	17.1300	47.454512	0.000233	2.331063	0.789785	-0.000093
 576	5.7212e+01	17.0899	47.325324	0.000324	3.243218	1.098832	-0.000130
 577	5.7312e+01	17.0434	47.208247	0.000294	2.939166	0.995816	-0.000118
 578	5.7411e+01	17.0033	47.123467	0.000213	2.128362	0.721108	-0.000085
 579	5.7511e+01	16.9728	46.994279	0.000324	3.243218	1.098832	-0.000130
 580	5.7611e+01	16.9311	46.893350	0.000253	2.533764	0.858462	-0.000101
 581	5.7710e+01	16.8894	46.800496	0.000233	2.331063	0.789785	-0.000093
 582	5.7809e+01	16.8477	46.655159	0.000365	3.648620	1.236186	-0.000146
 583	5.7909e+01	16.8124	46.530008	0.000314	3.141867	1.064493	-0.000126
 584	5.8008e+01	16.7787	46.461377	0.000172	1.722959	0.583754	-0.000069
 585	5.8108e+01	16.7225	46.332188	0.000324	3.243218	1.098832	-0.000130
 586	5.8208e+01	16.6872	46.263557	0.000172	1.722959	0.583754	-0.000069
 587	5.8307e+01	16.6535	46.146480	0.000294	2.939166	0.995816	-0.000118
 588	5.8407e+01	16.6150	46.065737	0.000203	2.027011	0.686770	-0.000081
 589	5.8506e+01	16.5749	46.005180	0.000152	1.520258	0.515077	-0.000061
 590	5.8605e+01	16.5332	45.888103	0.000294	2.939166	0.995816	-0.000118
 591	5.8705e+01	16.4915	45.779101	0.000274	2.736465	0.927139	-0.000110
 592	5.8804e+01	16.4498	45.637801	0.000355	3.547269	1.201847	-0.000142
 593	5.8904e+01	16.4145	45.548984	0.000223	2.229712	0.755447	-0.000089
 594	5.9004e+01	16.3712	45.411721	0.000345	3.445919	1.167509	-0.000138
 595	5.9103e+01	16.3199	45.274459	0.000345	3.445919	1.167509	-0.000138
 596	5.9203e+01	16.2894	45.201790	0.000182	1.824310	0.618093	-0.000073
 597	5.9302e+01	16.2541	45.060491	0.000355	3.547269	1.201847	-0.000142
 598	5.9401e+01	16.2124	44.951488	0.000274	2.736465	0.927139	-0.000110
 599	5.9501e+01	16.1642	44.826337	0.000314	3.141867	1.064493	-0.000126
 600	5.9600e+01	16.1274	44.713297	0.000284	2.837815	0.961478	-0.000114
 601	5.9700e+01	16.0905	44.636591	0.000193	1.925660	0.652431	-0.000077
 602	5.9800e+01	16.0552	44.495292	0.000355	3.547269	1.201847	-0.000142
 603	5.9899e+01	16.0135	44.422623	0.000182	1.824310	0.618093	-0.000073
 604	5.9998e+01	15.9669	44.289398	0.000334	3.344568	1.133170	-0.000134
 605	6.0098e+01	15.9397	44.220766	0.000172	1.722959	0.583754	-0.000069
 606	6.0197e+01	15.8883	44.047169	0.000436	4.358074	1.476555	-0.000174
 607	6.0297e+01	15.8498	43.990650	0.000142	1.418908	0.480739	-0.000057
 608	6.0397e+01	15.8129	43.861461	0.000324	3.243218	1.098832	-0.000130
 609	6.0496e+01	15.7744	43.808978	0.000132	1.317557	0.446400	-0.000053
 610	6.0596e+01	15.7391	43.679790	0.000324	3.243218	1.098832	-0.000130
 611	6.0695e+01	15.6926	43.586936	0.000233	2.331063	0.789785	-0.000093
 612	6.0794e+01	15.6573	43.441599	0.000365	3.648620	1.236186	-0.000146
 613	6.0894e+01	15.6156	43.312411	0.000324	3.243218	1.098832	-0.000130
 614	6.0993e+01	15.5755	43.211482	0.000253	2.533764	0.858462	-0.000101
 615	6.1093e+01	15.5322	43.074220	0.000345	3.445919	1.167509	-0.000138
 616	6.1193e+01	15.4857	42.924846	0.000375	3.749970	1.270524	-0.000150
 617	6.1292e+01	15.4568	42.840066	0.000213	2.128362	0.721108	-0.000085
 618	6.1392e+01	15.4167	42.718952	0.000304	3.040516	1.030155	-0.000122
 619	6.1491e+01	15.3766	42.593801	0.000314	3.141867	1.064493	-0.000126
 620	6.1590e+01	15.3284	42.464612	0.000324	3.243218	1.098832	-0.000130
 621	6.1690e+01	15.2980	42.371758	0.000233	2.331063	0.789785	-0.000093
 622	6.1789e+01	15.2530	42.254681	0.000294	2.939166	0.995816	-0.000118
 623	6.1889e+01	15.2194	42.145679	0.000274	2.736465	0.927139	-0.000110
 624	6.1989e+01	15.1680	42.004379	0.000355	3.547269	1.201847	-0.000142
 625	6.2088e+01	15.1391	41.915562	0.000223	2.229712	0.755447	-0.000089
 626	6.2188e+01	15.0926	41.855005	0.000152	1.520258	0.515077	-0.000061
 627	6.2287e+01	15.0541	41.750039	0.000264	2.635114	0.892801	-0.000105
 628	6.2386e+01	15.0140	41.632962	0.000294	2.939166	0.995816	-0.000118
 629	6.2486e+01	14.9771	41.527997	0.000264	2.635114	0.892801	-0.000105
 630	6.2586e+01	14.9290	41.414957	0.000284	2.837815	0.961478	-0.000114
 631	6.2685e+01	14.8985	41.277694	0.000345	3.445919	1.167509	-0.000138
 632	6.2785e+01	14.8568	41.180803	0.000243	2.432413	0.824124	-0.000097
 633	6.2884e+01	14.8167	41.087949	0.000233	2.331063	0.789785	-0.000093
 634	6.2983e+01	14.7830	40.991058	0.000243	2.432413	0.824124	-0.000097
 635	6.3083e+01	14.7381	40.841684	0.000375	3.749970	1.270524	-0.000150
 636	6.3182e+01	14.7060	40.664050	0.000446	4.459424	1.510894	-0.000179
 637	6.3282e+01	14.6499	40.538899	0.000314	3.141867	1.064493	-0.000126
 638	6.3382e+01	14.6146	40.470267	0.000172	1.722959	0.583754	-0.000069
 639	6.3481e+01	14.5745	40.312819	0.000395	3.952671	1.339201	-0.000158
 640	6.3581e+01	14.5327	40.244188	0.000172	1.722959	0.583754	-0.000069
 641	6.3680e+01	14.4878	40.123074	0.000304	3.040516	1.030155	-0.000122
 642	6.3779e+01	14.4606	40.054442	0.000172	1.722959	0.583754	-0.000069
 643	6.3879e+01	14.4156	39.876808	0.000446	4.459424	1.510894	-0.000179
 644	6.3978e+01	14.3771	39.787991	0.000223	2.229712	0.755447	-0.000089
 645	6.4078e+01	14.3450	39.767806	0.000051	0.506753	0.171692	-0.000020
 646	6.4177e+01	14.2953	39.654766	0.000284	2.837815	0.961478	-0.000114
 647	6.4277e+01	14.2648	39.525577	0.000324	3.243218	1.098832	-0.000130
 648	6.4376e+01	14.2135	39.384278	0.000355	3.547269	1.201847	-0.000142
 649	6.4476e+01	14.1814	39.303535	0.000203	2.027011	0.686770	-0.000081
 650	6.4576e+01	14.1477	39.198569	0.000264	2.635114	0.892801	-0.000105
 651	6.4675e+01	14.1044	39.109752	0.000223	2.229712	0.755447	-0.000089
 652	6.4775e+01	14.0531	38.996713	0.000284	2.837815	0.961478	-0.000114
 653	6.4874e+01	14.0194	38.924044	0.000182	1.824310	0.618093	-0.000073
 654	6.4974e+01	13.9889	38.738336	0.000466	4.662125	1.579571	-0.000187
 655	6.5073e+01	13.9456	38.613185	0.000314	3.141867	1.064493	-0.000126
 656	6.5172e+01	13.8943	38.492071	0.000304	3.040516	1.030155	-0.000122
 657	6.5272e+01	13.8654	38.391142	0.000253	2.533764	0.858462	-0.000101
 658	6.5371e+01	13.8269	38.253880	0.000345	3.445919	1.167509	-0.000138
 659	6.5471e+01	13.7836	38.189286	0.000162	1.621609	0.549416	-0.000065
 660	6.5570e+01	13.7354	38.060097	0.000324	3.243218	1.098832	-0.000130
 661	6.5670e+01	13.7001	37.938983	0.000304	3.040516	1.030155	-0.000122
 662	6.5769e+01	13.6552	37.825943	0.000284	2.837815	0.961478	-0.000114
 663	6.5869e+01	13.6167	37.737126	0.000223	2.229712	0.755447	-0.000089
 664	6.5969e+01	13.5766	37.632161	0.000264	2.635114	0.892801	-0.000105
 665	6.6068e+01	13.5413	37.575641	0.000142	1.418908	0.480739	-0.000057
 666	6.6168e+01	13.4948	37.462601	0.000284	2.837815	0.961478	-0.000114
 667	6.6267e+01	13.4595	37.377821	0.000213	2.128362	0.721108	-0.000085
 668	6.6367e+01	13.4210	37.224410	0.000385	3.851321	1.304863	-0.000154
 669	6.6466e+01	13.3825	37.151742	0.000182	1.824310	0.618093	-0.000073
 670	6.6566e+01	13.3392	37.038702	0.000284	2.837815	0.961478	-0.000114
 671	6.6665e+01	13.3007	36.937773	0.000253	2.533764	0.858462	-0.000101
 672	6.6764e+01	13.2622	36.800511	0.000345	3.445919	1.167509	-0.000138
 673	6.6864e+01	13.2157	36.683434	0.000294	2.939166	0.995816	-0.000118
 674	6.6963e+01	13.1900	36.574431	0.000274	2.736465	0.927139	-0.000110
 675	6.7063e+01	13.1419	36.445243	0.000324	3.243218	1.098832	-0.000130
 676	6.7162e+01	13.1002	36.303943	0.000355	3.547269	1.201847	-0.000142
 677	6.7262e+01	13.0617	36.203015	0.000253	2.533764	0.858462	-0.000101
 678	6.7362e+01	13.0248	36.057678	0.000365	3.648620	1.236186	-0.000146
 679	6.7461e+01	12.9766	35.960787	0.000243	2.432413	0.824124	-0.000097
 680	6.7561e+01	12.9526	35.867932	0.000233	2.331063	0.789785	-0.000093
 681	6.7660e+01	12.9028	35.758930	0.000274	2.736465	0.927139	-0.000110
 682	6.7760e+01	12.8531	35.649927	0.000274	2.736465	0.927139	-0.000110
 683	6.7859e+01	12.8226	35.577259	0.000182	1.824310	0.618093	-0.000073
 684	6.7959e+01	12.7938	35.488442	0.000223	2.229712	0.755447	-0.000089
 685	6.8058e+01	12.7440	35.355216	0.000334	3.344568	1.133170	-0.000134
 686	6.8157e+01	12.7151	35.286585	0.000172	1.722959	0.583754	-0.000069
 687	6.8257e+01	12.6686	35.173545	0.000284	2.837815	0.961478	-0.000114
 688	6.8356e+01	12.6349	35.056468	0.000294	2.939166	0.995816	-0.000118
 689	6.8456e+01	12.5820	34.971688	0.000213	2.128362	0.721108	-0.000085
 690	6.8555e+01	12.5323	34.854611	0.000294	2.939166	0.995816	-0.000118
 691	6.8655e+01	12.5082	34.713312	0.000355	3.547269	1.201847	-0.000142
 692	6.8754e+01	12.4681	34.628532	0.000213	2.128362	0.721108	-0.000085
 693	6.8854e+01	12.4312	34.527603	0.000253	2.533764	0.858462	-0.000101
 694	6.8954e+01	12.3895	34.349969	0.000446	4.459424	1.510894	-0.000179
 695	6.9053e+01	12.3574	34.269227	0.000203	2.027011	0.686770	-0.000081
 696	6.9153e+01	12.3173	34.148113	0.000304	3.040516	1.030155	-0.000122
 697	6.9252e+01	12.2692	34.043147	0.000264	2.635114	0.892801	-0.000105
 698	6.9352e+01	12.2307	33.926070	0.000294	2.939166	0.995816	-0.000118
 699	6.9451e+01	12.1841	33.829179	0.000243	2.432413	0.824124	-0.000097
 700	6.9550e+01	12.1473	33.695953	0.000334	3.344568	1.133170	-0.000134
 701	6.9650e+01	12.1152	33.603099	0.000233	2.331063	0.789785	-0.000093
 702	6.9749e+01	12.0767	33.546579	0.000142	1.418908	0.480739	-0.000057
 703	6.9849e+01	12.0253	33.437577	0.000274	2.736465	0.927139	-0.000110
 704	6.9948e+01	11.9852	33.336648	0.000253	2.533764	0.858462	-0.000101
 705	7.0048e+01	11.9547	33.251869	0.000213	2.128362	0.721108	-0.000085
 706	7.0147e+01	11.9098	33.110569	0.000355	3.547269	1.201847	-0.000142
 707	7.0247e+01	11.8729	33.050012	0.000152	1.520258	0.515077	-0.000061
 708	7.0347e+01	11.8296	32.924861	0.000314	3.141867	1.064493	-0.000126
 709	7.0446e+01	11.7879	32.840081	0.000213	2.128362	0.721108	-0.000085
 710	7.0546e+01	11.7382	32.702818	0.000345	3.445919	1.167509	-0.000138
 711	7.0645e+01	11.7077	32.601890	0.000253	2.533764	0.858462	-0.000101
 712	7.0745e+01	11.6676	32.472701	0.000324	3.243218	1.098832	-0.000130
 713	7.0844e+01	11.6355	32.351587	0.000304	3.040516	1.030155	-0.000122
 714	7.0944e+01	11.5842	32.190102	0.000405	4.054022	1.373540	-0.000162
 715	7.1043e+01	11.5569	32.117433	0.000182	1.824310	0.618093	-0.000073
 716	7.1142e+01	11.5104	31.968059	0.000375	3.749970	1.270524	-0.000150
 717	7.1242e+01	11.4847	31.850982	0.000294	2.939166	0.995816	-0.000118
 718	7.1341e+01	11.4270	31.746017	0.000264	2.635114	0.892801	-0.000105
 719	7.1441e+01	11.3933	31.665274	0.000203	2.027011	0.686770	-0.000081
 720	7.1540e+01	11.3580	31.580494	0.000213	2.128362	0.721108	-0.000085
 721	7.1640e+01	11.3163	31.435157	0.000365	3.648620	1.236186	-0.000146
 722	7.1740e+01	11.2729	31.318080	0.000294	2.939166	0.995816	-0.000118
 723	7.1839e+01	11.2328	31.229264	0.000223	2.229712	0.755447	-0.000089
 724	7.1939e+01	11.1943	31.148521	0.000203	2.027011	0.686770	-0.000081
 725	7.2038e+01	11.1590	31.043555	0.000264	2.635114	0.892801	-0.000105
 726	7.2138e+01	11.1093	30.926478	0.000294	2.939166	0.995816	-0.000118
 727	7.2237e+01	11.0772	30.813439	0.000284	2.837815	0.961478	-0.000114
 728	7.2337e+01	11.0355	30.688287	0.000314	3.141867	1.064493	-0.000126
 729	7.2436e+01	10.9986	30.587359	0.000253	2.533764	0.858462	-0.000101
 730	7.2535e+01	10.9537	30.482393	0.000264	2.635114	0.892801	-0.000105
 731	7.2635e+01	10.9088	30.361279	0.000304	3.040516	1.030155	-0.000122
 732	7.2734e+01	10.8831	30.219980	0.000355	3.547269	1.201847	-0.000142
 733	7.2834e+01	10.8334	30.078680	0.000355	3.547269	1.201847	-0.000142
 734	7.2933e+01	10.7981	29.981789	0.000243	2.432413	0.824124	-0.000097
 735	7.3033e+01	10.7516	29.848563	0.000334	3.344568	1.133170	-0.000134
 736	7.3132e+01	10.7179	29.719375	0.000324	3.243218	1.098832	-0.000130
 737	7.3232e+01	10.6730	29.638632	0.000203	2.027011	0.686770	-0.000081
 738	7.3332e+01	10.6393	29.460998	0.000446	4.459424	1.510894	-0.000179
 739	7.3431e+01	10.5927	29.424664	0.000091	0.912155	0.309046	-0.000037
 740	7.3531e+01	10.5575	29.275290	0.000375	3.749970	1.270524	-0.000150
 741	7.3630e+01	10.5141	29.166287	0.000274	2.736465	0.927139	-0.000110
 742	7.3730e+01	10.4740	29.093619	0.000182	1.824310	0.618093	-0.000073
 743	7.3829e+01	10.4436	28.980579	0.000284	2.837815	0.961478	-0.000114
 744	7.3928e+01	10.4051	28.851391	0.000324	3.243218	1.098832	-0.000130
 745	7.4028e+01	10.3569	28.738351	0.000284	2.837815	0.961478	-0.000114
 746	7.4127e+01	10.3152	28.685868	0.000132	1.317557	0.446400	-0.000053
 747	7.4227e+01	10.2831	28.520345	0.000416	4.155373	1.407878	-0.000166
 748	7.4326e+01	10.2334	28.423454	0.000243	2.432413	0.824124	-0.000097
 749	7.4426e+01	10.1965	28.282154	0.000355	3.547269	1.201847	-0.000142
 750	7.4525e+01	10.1500	28.173152	0.000274	2.736465	0.927139	-0.000110
 751	7.4625e+01	10.1115	28.031852	0.000355	3.547269	1.201847	-0.000142
 752	7.4725e+01	10.0762	27.947072	0.000213	2.128362	0.721108	-0.000085
 753	7.4824e+01	10.0361	27.793661	0.000385	3.851321	1.304863	-0.000154
 754	7.4924e+01	9.9976	27.636213	0.000395	3.952671	1.339201	-0.000158
 755	7.5023e+01	9.9623	27.539321	0.000243	2.432413	0.824124	-0.000097
 756	7.5123e+01	9.9190	27.377836	0.000405	4.054022	1.373540	-0.000162
 757	7.5222e+01	9.8821	27.276908	0.000253	2.533764	0.858462	-0.000101
 758	7.5322e+01	9.8356	27.184053	0.000233	2.331063	0.789785	-0.000093
 759	7.5421e+01	9.8083	27.071014	0.000284	2.837815	0.961478	-0.000114
 760	7.5520e+01	9.7521	26.949900	0.000304	3.040516	1.030155	-0.000122
 761	7.5620e+01	9.7200	26.861083	0.000223	2.229712	0.755447	-0.000089
 762	7.5719e+01	9.6783	26.760154	0.000253	2.533764	0.858462	-0.000101
 763	7.5819e+01	9.6366	26.655189	0.000264	2.635114	0.892801	-0.000105
 764	7.5918e+01	9.6045	26.538112	0.000294	2.939166	0.995816	-0.000118
 765	7.6018e+01	9.5580	26.421035	0.000294	2.939166	0.995816	-0.000118
 766	7.6118e+01	9.5195	26.275698	0.000365	3.648620	1.236186	-0.000146
 767	7.6217e+01	9.4874	26.166695	0.000274	2.736465	0.927139	-0.000110
 768	7.6317e+01	9.4441	26.053655	0.000284	2.837815	0.961478	-0.000114
 769	7.6416e+01	9.4008	25.916393	0.000345	3.445919	1.167509	-0.000138
 770	7.6516e+01	9.3591	25.823539	0.000233	2.331063	0.789785	-0.000093
 771	7.6615e+01	9.3126	25.718573	0.000264	2.635114	0.892801	-0.000105
 772	7.6715e+01	9.2837	25.613608	0.000264	2.635114	0.892801	-0.000105
 773	7.6814e+01	9.2500	25.456159	0.000395	3.952671	1.339201	-0.000158
 774	7.6913e+01	9.2067	25.310823	0.000365	3.648620	1.236186	-0.000146
 775	7.7013e+01	9.1650	25.201820	0.000274	2.736465	0.927139	-0.000110
 776	7.7112e+01	9.1185	25.024186	0.000446	4.459424	1.510894	-0.000179
 777	7.7212e+01	9.0816	24.911146	0.000284	2.837815	0.961478	-0.000114
 778	7.7311e+01	9.0399	24.781958	0.000324	3.243218	1.098832	-0.000130
 779	7.7411e+01	8.9997	24.717364	0.000162	1.621609	0.549416	-0.000065
 780	7.7510e+01	8.9532	24.620472	0.000243	2.432413	0.824124	-0.000097
 781	7.7610e+01	8.9211	24.487247	0.000334	3.344568	1.133170	-0.000134
 782	7.7710e+01	8.8858	24.414578	0.000182	1.824310	0.618093	-0.000073
 783	7.7809e+01	8.8313	24.265204	0.000375	3.749970	1.270524	-0.000150
 784	7.7909e+01	8.8104	24.127942	0.000345	3.445919	1.167509	-0.000138
 785	7.8008e+01	8.7559	24.006828	0.000304	3.040516	1.030155	-0.000122
 786	7.8108e+01	8.7270	23.897825	0.000274	2.736465	0.927139	-0.000110
 787	7.8207e+01	8.6869	23.788822	0.000274	2.736465	0.927139	-0.000110
 788	7.8306e+01	8.6420	23.655597	0.000334	3.344568	1.133170	-0.000134
 789	7.8406e+01	8.6035	23.550631	0.000264	2.635114	0.892801	-0.000105
 790	7.8505e+01	8.5538	23.401257	0.000375	3.749970	1.270524	-0.000150
 791	7.8605e+01	8.5169	23.268032	0.000334	3.344568	1.133170	-0.000134
 792	7.8704e+01	8.4880	23.175178	0.000233	2.331063	0.789785	-0.000093
 793	7.8804e+01	8.4463	23.045989	0.000324	3.243218	1.098832	-0.000130
 794	7.8903e+01	8.4078	22.896615	0.000375	3.749970	1.270524	-0.000150
 795	7.9003e+01	8.3613	22.731093	0.000416	4.155373	1.407878	-0.000166
 796	7.9103e+01	8.3276	22.654387	0.000193	1.925660	0.652431	-0.000077
 797	7.9202e+01	8.2778	22.464642	0.000476	4.763476	1.613909	-0.000191
 798	7.9302e+01	8.2361	22.383899	0.000203	2.027011	0.686770	-0.000081
 799	7.9401e+01	8.2057	22.327379	0.000142	1.418908	0.480739	-0.000057
 800	7.9501e+01	8.1704	22.153782	0.000436	4.358074	1.476555	-0.000174
 801	7.9600e+01	8.1222	22.056891	0.000243	2.432413	0.824124	-0.000097
 802	7.9700e+01	8.0773	21.943851	0.000284	2.837815	0.961478	-0.000114
 803	7.9799e+01	8.0436	21.830812	0.000284	2.837815	0.961478	-0.000114
 804	7.9898e+01	8.0083	21.729883	0.000253	2.533764	0.858462	-0.000101
 805	7.9998e+01	7.9698	21.632992	0.000243	2.432413	0.824124	-0.000097
 806	8.0097e+01	7.9201	21.495729	0.000345	3.445919	1.167509	-0.000138
 807	8.0197e+01	7.8912	21.334244	0.000405	4.054022	1.373540	-0.000162
 808	8.0296e+01	7.8511	21.221204	0.000284	2.837815	0.961478	-0.000114
 809	8.0396e+01	7.8142	21.140461	0.000203	2.027011	0.686770	-0.000081
 810	8.0496e+01	7.7613	20.987050	0.000385	3.851321	1.304863	-0.000154
 811	8.0595e+01	7.7212	20.898233	0.000223	2.229712	0.755447	-0.000089
 812	8.0695e+01	7.6811	20.769045	0.000324	3.243218	1.098832	-0.000130
 813	8.0794e+01	7.6570	20.639856	0.000324	3.243218	1.098832	-0.000130
 814	8.0894e+01	7.6025	20.522780	0.000294	2.939166	0.995816	-0.000118
 815	8.0993e+01	7.5656	20.365331	0.000395	3.952671	1.339201	-0.000158
 816	8.1093e+01	7.5303	20.276514	0.000223	2.229712	0.755447	-0.000089
 817	8.1192e+01	7.4950	20.139252	0.000345	3.445919	1.167509	-0.000138
 818	8.1291e+01	7.4468	20.046398	0.000233	2.331063	0.789785	-0.000093
 819	8.1391e+01	7.4035	19.965655	0.000203	2.027011	0.686770	-0.000081
 820	8.1490e+01	7.3602	19.836466	0.000324	3.243218	1.098832	-0.000130
 821	8.1590e+01	7.3153	19.735538	0.000253	2.533764	0.858462	-0.000101
 822	8.1689e+01	7.2864	19.662870	0.000182	1.824310	0.618093	-0.000073
 823	8.1789e+01	7.2463	19.509458	0.000385	3.851321	1.304863	-0.000154
 824	8.1888e+01	7.2046	19.356047	0.000385	3.851321	1.304863	-0.000154
 825	8.1988e+01	7.1597	19.255119	0.000253	2.533764	0.858462	-0.000101
 826	8.2088e+01	7.1308	19.134005	0.000304	3.040516	1.030155	-0.000122
 827	8.2187e+01	7.0923	19.020965	0.000284	2.837815	0.961478	-0.000114
 828	8.2287e+01	7.0442	18.907925	0.000284	2.837815	0.961478	-0.000114
 829	8.2386e+01	7.0089	18.778737	0.000324	3.243218	1.098832	-0.000130
 830	8.2486e+01	6.9608	18.681846	0.000243	2.432413	0.824124	-0.000097
 831	8.2585e+01	6.9223	18.593029	0.000223	2.229712	0.755447	-0.000089
 832	8.2684e+01	6.8870	18.455766	0.000345	3.445919	1.167509	-0.000138
 833	8.2784e+01	6.8453	18.330615	0.000314	3.141867	1.064493	-0.000126
 834	8.2883e+01	6.8180	18.177204	0.000385	3.851321	1.304863	-0.000154
 835	8.2983e+01	6.7683	18.068201	0.000274	2.736465	0.927139	-0.000110
 836	8.3082e+01	6.7314	17.939013	0.000324	3.243218	1.098832	-0.000130
 837	8.3182e+01	6.6897	17.890567	0.000122	1.216207	0.412062	-0.000049
 838	8.3281e+01	6.6528	17.781564	0.000274	2.736465	0.927139	-0.000110
 839	8.3381e+01	6.6062	17.668525	0.000284	2.837815	0.961478	-0.000114
 840	8.3481e+01	6.5790	17.531262	0.000345	3.445919	1.167509	-0.000138
 841	8.3580e+01	6.5324	17.402074	0.000324	3.243218	1.098832	-0.000130
 842	8.3680e+01	6.4843	17.272885	0.000324	3.243218	1.098832	-0.000130
 843	8.3779e+01	6.4570	17.184068	0.000223	2.229712	0.755447	-0.000089
 844	8.3879e+01	6.4137	17.046806	0.000345	3.445919	1.167509	-0.000138
 845	8.3978e+01	6.3784	16.949914	0.000243	2.432413	0.824124	-0.000097
 846	8.4078e+01	6.3335	16.844949	0.000264	2.635114	0.892801	-0.000105
 847	8.4177e+01	6.2918	16.687501	0.000395	3.952671	1.339201	-0.000158
 848	8.4276e+01	6.2517	16.610795	0.000193	1.925660	0.652431	-0.000077
 849	8.4376e+01	6.2212	16.505829	0.000264	2.635114	0.892801	-0.000105
 850	8.4475e+01	6.1763	16.352418	0.000385	3.851321	1.304863	-0.000154
 851	8.4575e+01	6.1346	16.259564	0.000233	2.331063	0.789785	-0.000093
 852	8.4674e+01	6.0993	16.122302	0.000345	3.445919	1.167509	-0.000138
 853	8.4774e+01	6.0672	15.960816	0.000405	4.054022	1.373540	-0.000162
 854	8.4874e+01	6.0207	15.859888	0.000253	2.533764	0.858462	-0.000101
 855	8.4973e+01	5.9758	15.767034	0.000233	2.331063	0.789785	-0.000093
 856	8.5073e+01	5.9389	15.629771	0.000345	3.445919	1.167509	-0.000138
 857	8.5172e+01	5.8907	15.540954	0.000223	2.229712	0.755447	-0.000089
 858	8.5272e+01	5.8571	15.431951	0.000274	2.736465	0.927139	-0.000110
 859	8.5371e+01	5.8057	15.290652	0.000355	3.547269	1.201847	-0.000142
 860	8.5471e+01	5.7833	15.189723	0.000253	2.533764	0.858462	-0.000101
 861	8.5570e+01	5.7415	15.084758	0.000264	2.635114	0.892801	-0.000105
 862	8.5669e+01	5.6982	14.967681	0.000294	2.939166	0.995816	-0.000118
 863	8.5769e+01	5.6597	14.842530	0.000314	3.141867	1.064493	-0.000126
 864	8.5868e+01	5.6132	14.721415	0.000304	3.040516	1.030155	-0.000122
 865	8.5968e+01	5.5779	14.636636	0.000213	2.128362	0.721108	-0.000085
 866	8.6067e+01	5.5362	14.527633	0.000274	2.736465	0.927139	-0.000110
 867	8.6167e+01	5.4993	14.422667	0.000264	2.635114	0.892801	-0.000105
 868	8.6266e+01	5.4544	14.281368	0.000355	3.547269	1.201847	-0.000142
 869	8.6366e+01	5.4159	14.176402	0.000264	2.635114	0.892801	-0.000105
 870	8.6466e+01	5.3742	14.051251	0.000314	3.141867	1.064493	-0.000126
 871	8.6565e+01	5.3421	13.946285	0.000264	2.635114	0.892801	-0.000105
 872	8.6665e+01	5.3020	13.813060	0.000334	3.344568	1.133170	-0.000134
 873	8.6764e+01	5.2635	13.704057	0.000274	2.736465	0.927139	-0.000110
 874	8.6864e+01	5.2122	13.615240	0.000223	2.229712	0.755447	-0.000089
 875	8.6963e+01	5.1833	13.518349	0.000243	2.432413	0.824124	-0.000097
 876	8.7063e+01	5.1368	13.373012	0.000365	3.648620	1.236186	-0.000146
 877	8.7162e+01	5.0902	13.259972	0.000284	2.837815	0.961478	-0.000114
 878	8.7261e+01	5.0614	13.175192	0.000213	2.128362	0.721108	-0.000085
 879	8.7361e+01	5.0196	13.078301	0.000243	2.432413	0.824124	-0.000097
 880	8.7460e+01	4.9892	12.957187	0.000304	3.040516	1.030155	-0.000122
 881	8.7560e+01	4.9442	12.827999	0.000324	3.243218	1.098832	-0.000130
 882	8.7659e+01	4.9025	12.727070	0.000253	2.533764	0.858462	-0.000101
 883	8.7759e+01	4.8640	12.585771	0.000355	3.547269	1.201847	-0.000142
 884	8.7859e+01	4.8143	12.500991	0.000213	2.128362	0.721108	-0.000085
 885	8.7958e+01	4.7758	12.375840	0.000314	3.141867	1.064493	-0.000126
 886	8.8058e+01	4.7389	12.198206	0.000446	4.459424	1.510894	-0.000179
 887	8.8157e+01	4.6972	12.121500	0.000193	1.925660	0.652431	-0.000077
 888	8.8257e+01	4.6587	11.968089	0.000385	3.851321	1.304863	-0.000154
 889	8.8356e+01	4.6186	11.846975	0.000304	3.040516	1.030155	-0.000122
 890	8.8456e+01	4.5769	11.709712	0.000345	3.445919	1.167509	-0.000138
 891	8.8555e+01	4.5432	11.576487	0.000334	3.344568	1.133170	-0.000134
 892	8.8654e+01	4.5015	11.519967	0.000142	1.418908	0.480739	-0.000057
 893	8.8754e+01	4.4598	11.419038	0.000253	2.533764	0.858462	-0.000101
 894	8.8853e+01	4.4197	11.305999	0.000284	2.837815	0.961478	-0.000114
 895	8.8953e+01	4.3796	11.168736	0.000345	3.445919	1.167509	-0.000138
 896	8.9052e+01	4.3443	11.079919	0.000223	2.229712	0.755447	-0.000089
 897	8.9152e+01	4.3026	10.934582	0.000365	3.648620	1.236186	-0.000146
 898	8.9251e+01	4.2673	10.845765	0.000223	2.229712	0.755447	-0.000089
 899	8.9351e+01	4.2272	10.696391	0.000375	3.749970	1.270524	-0.000150
 900	8.9451e+01	4.1742	10.591426	0.000264	2.635114	0.892801	-0.000105
 901	8.9550e+01	4.1405	10.474349	0.000294	2.939166	0.995816	-0.000118
 902	8.9650e+01	4.1004	10.341123	0.000334	3.344568	1.133170	-0.000134
 903	8.9749e+01	4.0635	10.244232	0.000243	2.432413	0.824124	-0.000097
 904	8.9849e+01	4.0218	10.123118	0.000304	3.040516	1.030155	-0.000122
 905	8.9948e+01	3.9817	9.993930	0.000324	3.243218	1.098832	-0.000130
 906	9.0047e+01	3.9528	9.860704	0.000334	3.344568	1.133170	-0.000134
 907	9.0147e+01	3.9015	9.747664	0.000284	2.837815	0.961478	-0.000114
 908	9.0246e+01	3.8694	9.578105	0.000426	4.256723	1.442217	-0.000170
 909	9.0346e+01	3.8197	9.461028	0.000294	2.939166	0.995816	-0.000118
 910	9.0445e+01	3.7812	9.352025	0.000274	2.736465	0.927139	-0.000110
 911	9.0545e+01	3.7427	9.214762	0.000345	3.445919	1.167509	-0.000138
 912	9.0644e+01	3.7026	9.117871	0.000243	2.432413	0.824124	-0.000097
 913	9.0744e+01	3.6528	9.033091	0.000213	2.128362	0.721108	-0.000085
 914	9.0844e+01	3.6240	8.911977	0.000304	3.040516	1.030155	-0.000122
 915	9.0943e+01	3.5887	8.758566	0.000385	3.851321	1.304863	-0.000154
 916	9.1043e+01	3.5421	8.641489	0.000294	2.939166	0.995816	-0.000118
 917	9.1142e+01	3.4972	8.564783	0.000193	1.925660	0.652431	-0.000077
 918	9.1242e+01	3.4748	8.435595	0.000324	3.243218	1.098832	-0.000130
 919	9.1341e+01	3.4234	8.278147	0.000395	3.952671	1.339201	-0.000158
 920	9.1441e+01	3.3849	8.157033	0.000304	3.040516	1.030155	-0.000122
 921	9.1540e+01	3.3480	8.064179	0.000233	2.331063	0.789785	-0.000093
 922	9.1639e+01	3.3111	7.983436	0.000203	2.027011	0.686770	-0.000081
 923	9.1739e+01	3.2646	7.846173	0.000345	3.445919	1.167509	-0.000138
 924	9.1838e+01	3.2229	7.696799	0.000375	3.749970	1.270524	-0.000150
 925	9.1938e+01	3.1892	7.571648	0.000314	3.141867	1.064493	-0.000126
 926	9.2037e+01	3.1539	7.434385	0.000345	3.445919	1.167509	-0.000138
 927	9.2137e+01	3.1058	7.309234	0.000314	3.141867	1.064493	-0.000126
 928	9.2237e+01	3.0673	7.123526	0.000466	4.662125	1.579571	-0.000187
 929	9.2336e+01	3.0240	7.087192	0.000091	0.912155	0.309046	-0.000037
 930	9.2436e+01	2.9935	6.941855	0.000365	3.648620	1.236186	-0.000146
 931	9.2535e+01	2.9534	6.828815	0.000284	2.837815	0.961478	-0.000114
 932	9.2635e+01	2.9101	6.739998	0.000223	2.229712	0.755447	-0.000089
 933	9.2734e+01	2.8523	6.635033	0.000264	2.635114	0.892801	-0.000105
 934	9.2834e+01	2.8331	6.485659	0.000375	3.749970	1.270524	-0.000150
 935	9.2933e+01	2.7849	6.384730	0.000253	2.533764	0.858462	-0.000101
 936	9.3032e+01	2.7464	6.239393	0.000365	3.648620	1.236186	-0.000146
 937	9.3132e+01	2.7112	6.138465	0.000253	2.533764	0.858462	-0.000101
 938	9.3231e+01	2.6694	6.017351	0.000304	3.040516	1.030155	-0.000122
 939	9.3331e+01	2.6245	5.892200	0.000314	3.141867	1.064493	-0.000126
 940	9.3430e+01	2.5876	5.779160	0.000284	2.837815	0.961478	-0.000114
 941	9.3530e+01	2.5459	5.625749	0.000385	3.851321	1.304863	-0.000154
 942	9.3629e+01	2.5026	5.545006	0.000203	2.027011	0.686770	-0.000081
 943	9.3729e+01	2.4609	5.387558	0.000395	3.952671	1.339201	-0.000158
 944	9.3829e+01	2.4272	5.294704	0.000233	2.331063	0.789785	-0.000093
 945	9.3928e+01	2.3871	5.157441	0.000345	3.445919	1.167509	-0.000138
 946	9.4028e+01	2.3470	4.991918	0.000416	4.155373	1.407878	-0.000166
 947	9.4127e+01	2.3181	4.850619	0.000355	3.547269	1.201847	-0.000142
 948	9.4227e+01	2.2748	4.709319	0.000355	3.547269	1.201847	-0.000142
 949	9.4326e+01	2.2219	4.664910	0.000111	1.114856	0.377723	-0.000045
 950	9.4425e+01	2.1866	4.539759	0.000314	3.141867	1.064493	-0.000126
 951	9.4525e+01	2.1513	4.398459	0.000355	3.547269	1.201847	-0.000142
 952	9.4624e+01	2.0983	4.265234	0.000334	3.344568	1.133170	-0.000134
 953	9.4724e+01	2.0711	4.148157	0.000294	2.939166	0.995816	-0.000118
 954	9.4823e+01	2.0294	4.051266	0.000243	2.432413	0.824124	-0.000097
 955	9.4923e+01	1.9909	3.922077	0.000324	3.243218	1.098832	-0.000130
 956	9.5022e+01	1.9556	3.768666	0.000385	3.851321	1.304863	-0.000154
 957	9.5122e+01	1.9138	3.619292	0.000375	3.749970	1.270524	-0.000150
 958	9.5222e+01	1.8673	3.558735	0.000152	1.520258	0.515077	-0.000061
 959	9.5321e+01	1.8368	3.413398	0.000365	3.648620	1.236186	-0.000146
 960	9.5421e+01	1.7999	3.280173	0.000334	3.344568	1.133170	-0.000134
 961	9.5520e+01	1.7518	3.114650	0.000416	4.155373	1.407878	-0.000166
 962	9.5620e+01	1.7149	3.013722	0.000253	2.533764	0.858462	-0.000101
 963	9.5719e+01	1.6716	2.892608	0.000304	3.040516	1.030155	-0.000122
 964	9.5819e+01	1.6315	2.743234	0.000375	3.749970	1.270524	-0.000150
 965	9.5918e+01	1.6010	2.610008	0.000334	3.344568	1.133170	-0.000134
 966	9.6017e+01	1.5561	2.484857	0.000314	3.141867	1.064493	-0.000126
 967	9.6117e+01	1.5192	2.379892	0.000264	2.635114	0.892801	-0.000105
 968	9.6216e+01	1.4743	2.315297	0.000162	1.621609	0.549416	-0.000065
 969	9.6316e+01	1.4310	2.165923	0.000375	3.749970	1.270524	-0.000150
 970	9.6415e+01	1.3957	2.056921	0.000274	2.736465	0.927139	-0.000110
 971	9.6515e+01	1.3524	1.955992	0.000253	2.533764	0.858462	-0.000101
 972	9.6615e+01	1.3074	1.806618	0.000375	3.749970	1.270524	-0.000150
 973	9.6714e+01	1.2754	1.685504	0.000304	3.040516	1.030155	-0.000122
 974	9.6814e+01	1.2256	1.572464	0.000284	2.837815	0.961478	-0.000114
 975	9.6913e+01	1.1903	1.467499	0.000264	2.635114	0.892801	-0.000105
 976	9.7013e+01	1.1599	1.382719	0.000213	2.128362	0.721108	-0.000085
 977	9.7112e+01	1.1053	1.233345	0.000375	3.749970	1.270524	-0.000150
 978	9.7212e+01	1.0764	1.088008	0.000365	3.648620	1.236186	-0.000146
 979	9.7311e+01	1.0315	0.987080	0.000253	2.533764	0.858462	-0.000101
 980	9.7410e+01	0.9962	0.894226	0.000233	2.331063	0.789785	-0.000093
 981	9.7510e+01	0.9561	0.756963	0.000345	3.445919	1.167509	-0.000138
 982	9.7609e+01	0.9192	0.639886	0.000294	2.939166	0.995816	-0.000118
 983	9.7709e+01	0.8839	0.514735	0.000314	3.141867	1.064493	-0.000126
 984	9.7808e+01	0.8535	0.369398	0.000365	3.648620	1.236186	-0.000146
 985	9.7908e+01	0.7941	0.228098	0.000355	3.547269	1.201847	-0.000142
 986	9.8007e+01	0.7620	0.143318	0.000213	2.128362	0.721108	-0.000085
 987	9.8107e+01	0.7123	0.046427	0.000243	2.432413	0.824124	-0.000097
 988	9.8207e+01	0.6674	-0.090836	0.000345	3.445919	1.167509	-0.000138
 989	9.8306e+01	0.6353	-0.171578	0.000203	2.027011	0.686770	-0.000081
 990	9.8406e+01	0.5904	-0.324989	0.000385	3.851321	1.304863	-0.000154
 991	9.8505e+01	0.5486	-0.413806	0.000223	2.229712	0.755447	-0.000089
 992	9.8605e+01	0.5166	-0.563180	0.000375	3.749970	1.270524	-0.000150
 993	9.8704e+01	0.4797	-0.664109	0.000253	2.533764	0.858462	-0.000101
 994	9.8803e+01	0.4299	-0.761000	0.000243	2.432413	0.824124	-0.000097
 995	9.8903e+01	0.3882	-0.910374	0.000375	3.749970	1.270524	-0.000150
 996	9.9002e+01	0.3561	-1.007265	0.000243	2.432413	0.824124	-0.000097
 997	9.9102e+01	0.3112	-1.136454	0.000324	3.243218	1.098832	-0.000130
 998	9.9201e+01	0.2743	-1.249494	0.000284	2.837815	0.961478	-0.000114
 999	9.9301e+01	0.2294	-1.362533	0.000284	2.837815	0.961478	-0.000114
1000	9.9400e+01	0.1893	-1.443276	0.000203	2.027011	0.686770	-0.000081
1001	9.9500e+01	0.1540	-1.592650	0.000375	3.749970	1.270524	-0.000150
1002	9.9600e+01	0.1219	-1.701653	0.000274	2.736465	0.927139	-0.000110
1003	9.9699e+01	0.0802	-1.871212	0.000426	4.256723	1.442217	-0.000170
1004	9.9799e+01	0.0401	-1.976178	0.000264	2.635114	0.892801	-0.000105
1005	9.9898e+01	0.0080	-2.077106	0.000253	2.533764	0.858462	-0.000101
1006	9.9998e+01	-0.0369	-2.161886	0.000213	2.128362	0.721108	-0.000085
1007	1.0010e+02	-0.0770	-2.254740	0.000233	2.331063	0.789785	-0.000093
1008	1.0020e+02	-0.1091	-2.383929	0.000324	3.243218	1.098832	-0.000130
1009	1.0030e+02	-0.1492	-2.513117	0.000324	3.243218	1.098832	-0.000130
1010	1.0040e+02	-0.1877	-2.650380	0.000345	3.445919	1.167509	-0.000138
1011	1.0050e+02	-0.2390	-2.739197	0.000223	2.229712	0.755447	-0.000089
1012	1.0059e+02	-0.2711	-2.840125	0.000253	2.533764	0.858462	-0.000101
1013	1.0069e+02	-0.3112	-2.965276	0.000314	3.141867	1.064493	-0.000126
1014	1.0079e+02	-0.3513	-3.102539	0.000345	3.445919	1.167509	-0.000138
1015	1.0089e+02	-0.3930	-3.195393	0.000233	2.331063	0.789785	-0.000093
1016	1.0099e+02	-0.4444	-3.316507	0.000304	3.040516	1.030155	-0.000122
1017	1.0109e+02	-0.4765	-3.429547	0.000284	2.837815	0.961478	-0.000114
1018	1.0119e+02	-0.5214	-3.550661	0.000304	3.040516	1.030155	-0.000122
1019	1.0129e+02	-0.5583	-3.639478	0.000223	2.229712	0.755447	-0.000089
1020	1.0139e+02	-0.5920	-3.800963	0.000405	4.054022	1.373540	-0.000162
1021	1.0149e+02	-0.6337	-3.901892	0.000253	2.533764	0.858462	-0.000101
1022	1.0159e+02	-0.6770	-4.006857	0.000264	2.635114	0.892801	-0.000105
1023	1.0169e+02	-0.7155	-4.152194	0.000365	3.648620	1.236186	-0.000146
1024	1.0179e+02	-0.7556	-4.236974	0.000213	2.128362	0.721108	-0.000085
1025	1.0189e+02	-0.7925	-4.341939	0.000264	2.635114	0.892801	-0.000105
1026	1.0199e+02	-0.8262	-4.487276	0.000365	3.648620	1.236186	-0.000146
1027	1.0209e+02	-0.8743	-4.596279	0.000274	2.736465	0.927139	-0.000110
1028	1.0219e+02	-0.9048	-4.693170	0.000243	2.432413	0.824124	-0.000097
1029	1.0229e+02	-0.9545	-4.826396	0.000334	3.344568	1.133170	-0.000134
1030	1.0239e+02	-0.9914	-4.890990	0.000162	1.621609	0.549416	-0.000065
1031	1.0248e+02	-1.0379	-5.008067	0.000294	2.939166	0.995816	-0.000118
1032	1.0258e+02	-1.0748	-5.137255	0.000324	3.243218	1.098832	-0.000130
1033	1.0268e+02	-1.1069	-5.258369	0.000304	3.040516	1.030155	-0.000122
1034	1.0278e+02	-1.1518	-5.387558	0.000324	3.243218	1.098832	-0.000130
1035	1.0288e+02	-1.1919	-5.464263	0.000193	1.925660	0.652431	-0.000077
1036	1.0298e+02	-1.2272	-5.593452	0.000324	3.243218	1.098832	-0.000130
1037	1.0308e+02	-1.2673	-5.654009	0.000152	1.520258	0.515077	-0.000061
1038	1.0318e+02	-1.3107	-5.795308	0.000355	3.547269	1.201847	-0.000142
1039	1.0328e+02	-1.3620	-5.904311	0.000274	2.736465	0.927139	-0.000110
1040	1.0338e+02	-1.3973	-5.997165	0.000233	2.331063	0.789785	-0.000093
1041	1.0348e+02	-1.4262	-6.146539	0.000375	3.749970	1.270524	-0.000150
1042	1.0358e+02	-1.4663	-6.316099	0.000426	4.256723	1.442217	-0.000170
1043	1.0368e+02	-1.5128	-6.364544	0.000122	1.216207	0.412062	-0.000049
1044	1.0378e+02	-1.5369	-6.497770	0.000334	3.344568	1.133170	-0.000134
1045	1.0388e+02	-1.5914	-6.562364	0.000162	1.621609	0.549416	-0.000065
1046	1.0398e+02	-1.6347	-6.671367	0.000274	2.736465	0.927139	-0.000110
1047	1.0408e+02	-1.6700	-6.824778	0.000385	3.851321	1.304863	-0.000154
1048	1.0418e+02	-1.7053	-6.889372	0.000162	1.621609	0.549416	-0.000065
1049	1.0428e+02	-1.7502	-7.018560	0.000324	3.243218	1.098832	-0.000130
1050	1.0438e+02	-1.7887	-7.127563	0.000274	2.736465	0.927139	-0.000110
1051	1.0447e+02	-1.8385	-7.248677	0.000304	3.040516	1.030155	-0.000122
1052	1.0457e+02	-1.8721	-7.361717	0.000284	2.837815	0.961478	-0.000114
1053	1.0467e+02	-1.9074	-7.515128	0.000385	3.851321	1.304863	-0.000154
1054	1.0477e+02	-1.9443	-7.567611	0.000132	1.317557	0.446400	-0.000053
1055	1.0487e+02	-1.9925	-7.692762	0.000314	3.141867	1.064493	-0.000126
1056	1.0497e+02	-2.0326	-7.801765	0.000274	2.736465	0.927139	-0.000110
1057	1.0507e+02	-2.0630	-7.922879	0.000304	3.040516	1.030155	-0.000122
1058	1.0517e+02	-2.1112	-8.064179	0.000355	3.547269	1.201847	-0.000142
1059	1.0527e+02	-2.1449	-8.173181	0.000274	2.736465	0.927139	-0.000110
1060	1.0537e+02	-2.1882	-8.330630	0.000395	3.952671	1.339201	-0.000158
1061	1.0547e+02	-2.2299	-8.451744	0.000304	3.040516	1.030155	-0.000122
1062	1.0557e+02	-2.2668	-8.556709	0.000264	2.635114	0.892801	-0.000105
1063	1.0567e+02	-2.3005	-8.613229	0.000142	1.418908	0.480739	-0.000057
1064	1.0577e+02	-2.3422	-8.746455	0.000334	3.344568	1.133170	-0.000134
1065	1.0587e+02	-2.3775	-8.863532	0.000294	2.939166	0.995816	-0.000118
1066	1.0597e+02	-2.4336	-8.976571	0.000284	2.837815	0.961478	-0.000114
1067	1.0607e+02	-2.4593	-9.081537	0.000264	2.635114	0.892801	-0.000105
1068	1.0617e+02	-2.5090	-9.230911	0.000375	3.749970	1.270524	-0.000150
1069	1.0627e+02	-2.5427	-9.339914	0.000274	2.736465	0.927139	-0.000110
1070	1.0637e+02	-2.5860	-9.473139	0.000334	3.344568	1.133170	-0.000134
1071	1.0647e+02	-2.6181	-9.549845	0.000193	1.925660	0.652431	-0.000077
1072	1.0656e+02	-2.6630	-9.679033	0.000324	3.243218	1.098832	-0.000130
1073	1.0666e+02	-2.7079	-9.788036	0.000274	2.736465	0.927139	-0.000110
1074	1.0676e+02	-2.7481	-9.897038	0.000274	2.736465	0.927139	-0.000110
1075	1.0686e+02	-2.7930	-10.006041	0.000274	2.736465	0.927139	-0.000110
1076	1.0696e+02	-2.8154	-10.147341	0.000355	3.547269	1.201847	-0.000142
1077	1.0706e+02	-2.8636	-10.232121	0.000213	2.128362	0.721108	-0.000085
1078	1.0716e+02	-2.9021	-10.413792	0.000456	4.560775	1.545232	-0.000183
1079	1.0726e+02	-2.9438	-10.494534	0.000203	2.027011	0.686770	-0.000081
1080	1.0736e+02	-2.9807	-10.635834	0.000355	3.547269	1.201847	-0.000142
1081	1.0746e+02	-3.0224	-10.756948	0.000304	3.040516	1.030155	-0.000122
1082	1.0756e+02	-3.0625	-10.817505	0.000152	1.520258	0.515077	-0.000061
1083	1.0766e+02	-3.1042	-10.954768	0.000345	3.445919	1.167509	-0.000138
1084	1.0776e+02	-3.1443	-11.075882	0.000304	3.040516	1.030155	-0.000122
1085	1.0786e+02	-3.1796	-11.152587	0.000193	1.925660	0.652431	-0.000077
1086	1.0796e+02	-3.2245	-11.297924	0.000365	3.648620	1.236186	-0.000146
1087	1.0806e+02	-3.2582	-11.427113	0.000324	3.243218	1.098832	-0.000130
1088	1.0816e+02	-3.3063	-11.515930	0.000223	2.229712	0.755447	-0.000089
1089	1.0826e+02	-3.3368	-11.637044	0.000304	3.040516	1.030155	-0.000122
1090	1.0836e+02	-3.3833	-11.725861	0.000223	2.229712	0.755447	-0.000089
1091	1.0845e+02	-3.4202	-11.871198	0.000365	3.648620	1.236186	-0.000146
1092	1.0855e+02	-3.4587	-12.008460	0.000345	3.445919	1.167509	-0.000138
1093	1.0865e+02	-3.5052	-12.125537	0.000294	2.939166	0.995816	-0.000118
1094	1.0875e+02	-3.5421	-12.218391	0.000233	2.331063	0.789785	-0.000093
1095	1.0885e+02	-3.5823	-12.339505	0.000304	3.040516	1.030155	-0.000122
1096	1.0895e+02	-3.6159	-12.460619	0.000304	3.040516	1.030155	-0.000122
1097	1.0905e+02	-3.6577	-12.622105	0.000405	4.054022	1.373540	-0.000162
1098	1.0915e+02	-3.6913	-12.723033	0.000253	2.533764	0.858462	-0.000101
1099	1.0925e+02	-3.7395	-12.860296	0.000345	3.445919	1.167509	-0.000138
1100	1.0935e+02	-3.7780	-12.949113	0.000223	2.229712	0.755447	-0.000089
1101	1.0945e+02	-3.8149	-13.025818	0.000193	1.925660	0.652431	-0.000077
1102	1.0955e+02	-3.8646	-13.142895	0.000294	2.939166	0.995816	-0.000118
1103	1.0965e+02	-3.8887	-13.231712	0.000223	2.229712	0.755447	-0.000089
1104	1.0975e+02	-3.9496	-13.393198	0.000405	4.054022	1.373540	-0.000162
1105	1.0985e+02	-3.9721	-13.490089	0.000243	2.432413	0.824124	-0.000097
1106	1.0995e+02	-4.0218	-13.603129	0.000284	2.837815	0.961478	-0.000114
1107	1.1005e+02	-4.0699	-13.724243	0.000304	3.040516	1.030155	-0.000122
1108	1.1015e+02	-4.1036	-13.837283	0.000284	2.837815	0.961478	-0.000114
1109	1.1025e+02	-4.1357	-13.938211	0.000253	2.533764	0.858462	-0.000101
1110	1.1035e+02	-4.1790	-14.043177	0.000264	2.635114	0.892801	-0.000105
1111	1.1044e+02	-4.2175	-14.176402	0.000334	3.344568	1.133170	-0.000134
1112	1.1054e+02	-4.2608	-14.297516	0.000304	3.040516	1.030155	-0.000122
1113	1.1064e+02	-4.3026	-14.430742	0.000334	3.344568	1.133170	-0.000134
1114	1.1074e+02	-4.3346	-14.568004	0.000345	3.445919	1.167509	-0.000138
1115	1.1084e+02	-4.3683	-14.664896	0.000243	2.432413	0.824124	-0.000097
1116	1.1094e+02	-4.4213	-14.846567	0.000456	4.560775	1.545232	-0.000183
1117	1.1104e+02	-4.4550	-14.931347	0.000213	2.128362	0.721108	-0.000085
1118	1.1114e+02	-4.4983	-15.084758	0.000385	3.851321	1.304863	-0.000154
1119	1.1124e+02	-4.5384	-15.173575	0.000223	2.229712	0.755447	-0.000089
1120	1.1134e+02	-4.5817	-15.250280	0.000193	1.925660	0.652431	-0.000077
1121	1.1144e+02	-4.6218	-15.387543	0.000345	3.445919	1.167509	-0.000138
1122	1.1154e+02	-4.6523	-15.468286	0.000203	2.027011	0.686770	-0.000081
1123	1.1164e+02	-4.6876	-15.613622	0.000365	3.648620	1.236186	-0.000146
1124	1.1174e+02	-4.7453	-15.718588	0.000264	2.635114	0.892801	-0.000105
1125	1.1184e+02	-4.7758	-15.827591	0.000274	2.736465	0.927139	-0.000110
1126	1.1194e+02	-4.8175	-15.968890	0.000355	3.547269	1.201847	-0.000142
1127	1.1204e+02	-4.8560	-16.057707	0.000223	2.229712	0.755447	-0.000089
1128	1.1214e+02	-4.8929	-16.190933	0.000334	3.344568	1.133170	-0.000134
1129	1.1224e+02	-4.9362	-16.291861	0.000253	2.533764	0.858462	-0.000101
1130	1.1234e+02	-4.9779	-16.421050	0.000324	3.243218	1.098832	-0.000130
1131	1.1244e+02	-5.0164	-16.594646	0.000436	4.358074	1.476555	-0.000174
1132	1.1253e+02	-5.0421	-16.679426	0.000213	2.128362	0.721108	-0.000085
1133	1.1263e+02	-5.0999	-16.796503	0.000294	2.939166	0.995816	-0.000118
1134	1.1273e+02	-5.1319	-16.917617	0.000304	3.040516	1.030155	-0.000122
1135	1.1283e+02	-5.1672	-17.079103	0.000405	4.054022	1.373540	-0.000162
1136	1.1293e+02	-5.2105	-17.180031	0.000253	2.533764	0.858462	-0.000101
1137	1.1303e+02	-5.2571	-17.216365	0.000091	0.912155	0.309046	-0.000037
1138	1.1313e+02	-5.2908	-17.361702	0.000365	3.648620	1.236186	-0.000146
1139	1.1323e+02	-5.3341	-17.498965	0.000345	3.445919	1.167509	-0.000138
1140	1.1333e+02	-5.3726	-17.563559	0.000162	1.621609	0.549416	-0.000065
1141	1.1343e+02	-5.4175	-17.684673	0.000304	3.040516	1.030155	-0.000122
1142	1.1353e+02	-5.4544	-17.781564	0.000243	2.432413	0.824124	-0.000097
1143	1.1363e+02	-5.4897	-17.918827	0.000345	3.445919	1.167509	-0.000138
1144	1.1373e+02	-5.5346	-18.019755	0.000253	2.533764	0.858462	-0.000101
1145	1.1383e+02	-5.5747	-18.148944	0.000324	3.243218	1.098832	-0.000130
1146	1.1393e+02	-5.6196	-18.233724	0.000213	2.128362	0.721108	-0.000085
1147	1.1403e+02	-5.6597	-18.346763	0.000284	2.837815	0.961478	-0.000114
1148	1.1413e+02	-5.6998	-18.488063	0.000355	3.547269	1.201847	-0.000142
1149	1.1423e+02	-5.7335	-18.564769	0.000193	1.925660	0.652431	-0.000077
1150	1.1433e+02	-5.7704	-18.677808	0.000284	2.837815	0.961478	-0.000114
1151	1.1442e+02	-5.8073	-18.819108	0.000355	3.547269	1.201847	-0.000142
1152	1.1452e+02	-5.8699	-18.911962	0.000233	2.331063	0.789785	-0.000093
1153	1.1462e+02	-5.8907	-19.089596	0.000446	4.459424	1.510894	-0.000179
1154	1.1472e+02	-5.9357	-19.166302	0.000193	1.925660	0.652431	-0.000077
1155	1.1482e+02	-5.9661	-19.271267	0.000264	2.635114	0.892801	-0.000105
1156	1.1492e+02	-6.0062	-19.380270	0.000274	2.736465	0.927139	-0.000110
1157	1.1502e+02	-6.0480	-19.469087	0.000223	2.229712	0.755447	-0.000089
1158	1.1512e+02	-6.0929	-19.561941	0.000233	2.331063	0.789785	-0.000093
1159	1.1522e+02	-6.1378	-19.674981	0.000284	2.837815	0.961478	-0.000114
1160	1.1532e+02	-6.1731	-19.775909	0.000253	2.533764	0.858462	-0.000101
1161	1.1542e+02	-6.2116	-19.876838	0.000253	2.533764	0.858462	-0.000101
1162	1.1552e+02	-6.2469	-20.026212	0.000375	3.749970	1.270524	-0.000150
1163	1.1562e+02	-6.2998	-20.098880	0.000182	1.824310	0.618093	-0.000073
1164	1.1572e+02	-6.3303	-20.224031	0.000314	3.141867	1.064493	-0.000126
1165	1.1582e+02	-6.3688	-20.324960	0.000253	2.533764	0.858462	-0.000101
1166	1.1592e+02	-6.4121	-20.438000	0.000284	2.837815	0.961478	-0.000114
1167	1.1602e+02	-6.4506	-20.522780	0.000213	2.128362	0.721108	-0.000085
1168	1.1612e+02	-6.4955	-20.643894	0.000304	3.040516	1.030155	-0.000122
1169	1.1622e+02	-6.5308	-20.760971	0.000294	2.939166	0.995816	-0.000118
1170	1.1632e+02	-6.5677	-20.861899	0.000253	2.533764	0.858462	-0.000101
1171	1.1642e+02	-6.6062	-20.987050	0.000314	3.141867	1.064493	-0.000126
1172	1.1651e+02	-6.6495	-21.100090	0.000284	2.837815	0.961478	-0.000114
1173	1.1661e+02	-6.6816	-21.249464	0.000375	3.749970	1.270524	-0.000150
1174	1.1671e+02	-6.7185	-21.310021	0.000152	1.520258	0.515077	-0.000061
1175	1.1681e+02	-6.7747	-21.419024	0.000274	2.736465	0.927139	-0.000110
1176	1.1691e+02	-6.8036	-21.544175	0.000314	3.141867	1.064493	-0.000126
1177	1.1701e+02	-6.8404	-21.608769	0.000162	1.621609	0.549416	-0.000065
1178	1.1711e+02	-6.8886	-21.713735	0.000264	2.635114	0.892801	-0.000105
1179	1.1721e+02	-6.9239	-21.770254	0.000142	1.418908	0.480739	-0.000057
1180	1.1731e+02	-6.9752	-21.903480	0.000334	3.344568	1.133170	-0.000134
1181	1.1741e+02	-6.9977	-22.048817	0.000365	3.648620	1.236186	-0.000146
1182	1.1751e+02	-7.0490	-22.125522	0.000193	1.925660	0.652431	-0.000077
1183	1.1761e+02	-7.0923	-22.250674	0.000314	3.141867	1.064493	-0.000126
1184	1.1771e+02	-7.1228	-22.355639	0.000264	2.635114	0.892801	-0.000105
1185	1.1781e+02	-7.1693	-22.480790	0.000314	3.141867	1.064493	-0.000126
1186	1.1791e+02	-7.2078	-22.593830	0.000284	2.837815	0.961478	-0.000114
1187	1.1801e+02	-7.2431	-22.702833	0.000274	2.736465	0.927139	-0.000110
1188	1.1811e+02	-7.2944	-22.779538	0.000193	1.925660	0.652431	-0.000077
1189	1.1821e+02	-7.3297	-22.852207	0.000182	1.824310	0.618093	-0.000073
1190	1.1831e+02	-7.3586	-23.033878	0.000456	4.560775	1.545232	-0.000183
1191	1.1841e+02	-7.4051	-23.154992	0.000304	3.040516	1.030155	-0.000122
1192	1.1850e+02	-7.4404	-23.235735	0.000203	2.027011	0.686770	-0.000081
1193	1.1860e+02	-7.4854	-23.401257	0.000416	4.155373	1.407878	-0.000166
1194	1.1870e+02	-7.5158	-23.441629	0.000101	1.013505	0.343385	-0.000041
1195	1.1880e+02	-7.5672	-23.522371	0.000203	2.027011	0.686770	-0.000081
1196	1.1890e+02	-7.6025	-23.611188	0.000223	2.229712	0.755447	-0.000089
1197	1.1900e+02	-7.6378	-23.732302	0.000304	3.040516	1.030155	-0.000122
1198	1.1910e+02	-7.6827	-23.792859	0.000152	1.520258	0.515077	-0.000061
1199	1.1920e+02	-7.7260	-23.913974	0.000304	3.040516	1.030155	-0.000122
1200	1.1930e+02	-7.7533	-24.039125	0.000314	3.141867	1.064493	-0.000126
1201	1.1940e+02	-7.8030	-24.107756	0.000172	1.722959	0.583754	-0.000069
1202	1.1950e+02	-7.8463	-24.216759	0.000274	2.736465	0.927139	-0.000110
1203	1.1960e+02	-7.8912	-24.321724	0.000264	2.635114	0.892801	-0.000105
1204	1.1970e+02	-7.9185	-24.446875	0.000314	3.141867	1.064493	-0.000126
1205	1.1980e+02	-7.9650	-24.511470	0.000162	1.621609	0.549416	-0.000065
1206	1.1990e+02	-7.9987	-24.664881	0.000385	3.851321	1.304863	-0.000154
1207	1.2000e+02	-8.0420	-24.717364	0.000132	1.317557	0.446400	-0.000053
1208	1.2010e+02	-8.0757	-24.814255	0.000243	2.432413	0.824124	-0.000097
1209	1.2020e+02	-8.1206	-24.967666	0.000385	3.851321	1.304863	-0.000154
1210	1.2030e+02	-8.1623	-25.084743	0.000294	2.939166	0.995816	-0.000118
1211	1.2039e+02	-8.1992	-25.197783	0.000284	2.837815	0.961478	-0.000114
1212	1.2049e+02	-8.2329	-25.298711	0.000253	2.533764	0.858462	-0.000101
1213	1.2059e+02	-8.2810	-25.399639	0.000253	2.533764	0.858462	-0.000101
1214	1.2069e+02	-8.3163	-25.460197	0.000152	1.520258	0.515077	-0.000061
1215	1.2079e+02	-8.3581	-25.549014	0.000223	2.229712	0.755447	-0.000089
1216	1.2089e+02	-8.4046	-25.662053	0.000284	2.837815	0.961478	-0.000114
1217	1.2099e+02	-8.4367	-25.754907	0.000233	2.331063	0.789785	-0.000093
1218	1.2109e+02	-8.4816	-25.815464	0.000152	1.520258	0.515077	-0.000061
1219	1.2119e+02	-8.5265	-25.968876	0.000385	3.851321	1.304863	-0.000154
1220	1.2129e+02	-8.5666	-26.089990	0.000304	3.040516	1.030155	-0.000122
1221	1.2139e+02	-8.6035	-26.174770	0.000213	2.128362	0.721108	-0.000085
1222	1.2149e+02	-8.6404	-26.279735	0.000264	2.635114	0.892801	-0.000105
1223	1.2159e+02	-8.6853	-26.360478	0.000203	2.027011	0.686770	-0.000081
1224	1.2169e+02	-8.7190	-26.509852	0.000375	3.749970	1.270524	-0.000150
1225	1.2179e+02	-8.7575	-26.602706	0.000233	2.331063	0.789785	-0.000093
1226	1.2189e+02	-8.7976	-26.719783	0.000294	2.939166	0.995816	-0.000118
1227	1.2199e+02	-8.8313	-26.768229	0.000122	1.216207	0.412062	-0.000049
1228	1.2209e+02	-8.8794	-26.941825	0.000436	4.358074	1.476555	-0.000174
1229	1.2219e+02	-8.9099	-27.046791	0.000264	2.635114	0.892801	-0.000105
1230	1.2229e+02	-8.9564	-27.208276	0.000405	4.054022	1.373540	-0.000162
1231	1.2239e+02	-8.9997	-27.260759	0.000132	1.317557	0.446400	-0.000053
1232	1.2248e+02	-9.0366	-27.369762	0.000274	2.736465	0.927139	-0.000110
1233	1.2258e+02	-9.0767	-27.470690	0.000253	2.533764	0.858462	-0.000101
1234	1.2268e+02	-9.1153	-27.571619	0.000253	2.533764	0.858462	-0.000101
1235	1.2278e+02	-9.1586	-27.656398	0.000213	2.128362	0.721108	-0.000085
1236	1.2288e+02	-9.1939	-27.749252	0.000233	2.331063	0.789785	-0.000093
1237	1.2298e+02	-9.2404	-27.854218	0.000264	2.635114	0.892801	-0.000105
1238	1.2308e+02	-9.2741	-27.955146	0.000253	2.533764	0.858462	-0.000101
1239	1.2318e+02	-9.3190	-28.084335	0.000324	3.243218	1.098832	-0.000130
1240	1.2328e+02	-9.3495	-28.165077	0.000203	2.027011	0.686770	-0.000081
1241	1.2338e+02	-9.3928	-28.266006	0.000253	2.533764	0.858462	-0.000101
1242	1.2348e+02	-9.4345	-28.354823	0.000223	2.229712	0.755447	-0.000089
1243	1.2358e+02	-9.4810	-28.492085	0.000345	3.445919	1.167509	-0.000138
1244	1.2368e+02	-9.5163	-28.609162	0.000294	2.939166	0.995816	-0.000118
1245	1.2378e+02	-9.5564	-28.766611	0.000395	3.952671	1.339201	-0.000158
1246	1.2388e+02	-9.5965	-28.823131	0.000142	1.418908	0.480739	-0.000057
1247	1.2398e+02	-9.6318	-28.899836	0.000193	1.925660	0.652431	-0.000077
1248	1.2408e+02	-9.6639	-29.045173	0.000365	3.648620	1.236186	-0.000146
1249	1.2418e+02	-9.7136	-29.158213	0.000284	2.837815	0.961478	-0.000114
1250	1.2428e+02	-9.7553	-29.279327	0.000304	3.040516	1.030155	-0.000122
1251	1.2438e+02	-9.7906	-29.408515	0.000324	3.243218	1.098832	-0.000130
1252	1.2447e+02	-9.8259	-29.473109	0.000162	1.621609	0.549416	-0.000065
1253	1.2457e+02	-9.8724	-29.594224	0.000304	3.040516	1.030155	-0.000122
1254	1.2467e+02	-9.9126	-29.683041	0.000223	2.229712	0.755447	-0.000089
1255	1.2477e+02	-9.9478	-29.755709	0.000182	1.824310	0.618093	-0.000073
1256	1.2487e+02	-9.9960	-29.852600	0.000243	2.432413	0.824124	-0.000097
1257	1.2497e+02	-10.0425	-29.973714	0.000304	3.040516	1.030155	-0.000122
1258	1.2507e+02	-10.0778	-30.026197	0.000132	1.317557	0.446400	-0.000053
1259	1.2517e+02	-10.1051	-30.195757	0.000426	4.256723	1.442217	-0.000170
1260	1.2527e+02	-10.1580	-30.300722	0.000264	2.635114	0.892801	-0.000105
1261	1.2537e+02	-10.1901	-30.353205	0.000132	1.317557	0.446400	-0.000053
1262	1.2547e+02	-10.2350	-30.498542	0.000365	3.648620	1.236186	-0.000146
1263	1.2557e+02	-10.2783	-30.599470	0.000253	2.533764	0.858462	-0.000101
1264	1.2567e+02	-10.3152	-30.756919	0.000395	3.952671	1.339201	-0.000158
1265	1.2577e+02	-10.3553	-30.841698	0.000213	2.128362	0.721108	-0.000085
1266	1.2587e+02	-10.3922	-30.962813	0.000304	3.040516	1.030155	-0.000122
1267	1.2597e+02	-10.4259	-31.051630	0.000223	2.229712	0.755447	-0.000089
1268	1.2607e+02	-10.4724	-31.184855	0.000334	3.344568	1.133170	-0.000134
1269	1.2617e+02	-10.5029	-31.265598	0.000203	2.027011	0.686770	-0.000081
1270	1.2627e+02	-10.5462	-31.431120	0.000416	4.155373	1.407878	-0.000166
1271	1.2636e+02	-10.5960	-31.475529	0.000111	1.114856	0.377723	-0.000045
1272	1.2646e+02	-10.6345	-31.568383	0.000233	2.331063	0.789785	-0.000093
1273	1.2656e+02	-10.6681	-31.653163	0.000213	2.128362	0.721108	-0.000085
1274	1.2666e+02	-10.7099	-31.754091	0.000253	2.533764	0.858462	-0.000101
1275	1.2676e+02	-10.7500	-31.822722	0.000172	1.722959	0.583754	-0.000069
1276	1.2686e+02	-10.7965	-31.959985	0.000345	3.445919	1.167509	-0.000138
1277	1.2696e+02	-10.8334	-32.048802	0.000223	2.229712	0.755447	-0.000089
1278	1.2706e+02	-10.8767	-32.186065	0.000345	3.445919	1.167509	-0.000138
1279	1.2716e+02	-10.9072	-32.282956	0.000243	2.432413	0.824124	-0.000097
1280	1.2726e+02	-10.9585	-32.387921	0.000264	2.635114	0.892801	-0.000105
1281	1.2736e+02	-10.9874	-32.488850	0.000253	2.533764	0.858462	-0.000101
1282	1.2746e+02	-11.0339	-32.658410	0.000426	4.256723	1.442217	-0.000170
1283	1.2756e+02	-11.0644	-32.759338	0.000253	2.533764	0.858462	-0.000101
1284	1.2766e+02	-11.1061	-32.876415	0.000294	2.939166	0.995816	-0.000118
1285	1.2776e+02	-11.1430	-32.981380	0.000264	2.635114	0.892801	-0.000105
1286	1.2786e+02	-11.1959	-33.098457	0.000294	2.939166	0.995816	-0.000118
1287	1.2796e+02	-11.2312	-33.163052	0.000162	1.621609	0.549416	-0.000065
1288	1.2806e+02	-11.2633	-33.300314	0.000345	3.445919	1.167509	-0.000138
1289	1.2816e+02	-11.3050	-33.368945	0.000172	1.722959	0.583754	-0.000069
1290	1.2826e+02	-11.3564	-33.502171	0.000334	3.344568	1.133170	-0.000134
1291	1.2835e+02	-11.3949	-33.546579	0.000111	1.114856	0.377723	-0.000045
1292	1.2845e+02	-11.4350	-33.695953	0.000375	3.749970	1.270524	-0.000150
1293	1.2855e+02	-11.4638	-33.772659	0.000193	1.925660	0.652431	-0.000077
1294	1.2865e+02	-11.5136	-33.926070	0.000385	3.851321	1.304863	-0.000154
1295	1.2875e+02	-11.5425	-33.978553	0.000132	1.317557	0.446400	-0.000053
1296	1.2885e+02	-11.5874	-34.115816	0.000345	3.445919	1.167509	-0.000138
1297	1.2895e+02	-11.6259	-34.184447	0.000172	1.722959	0.583754	-0.000069
1298	1.2905e+02	-11.6724	-34.301524	0.000294	2.939166	0.995816	-0.000118
1299	1.2915e+02	-11.7045	-34.394378	0.000233	2.331063	0.789785	-0.000093
1300	1.2925e+02	-11.7414	-34.543752	0.000375	3.749970	1.270524	-0.000150
1301	1.2935e+02	-11.7847	-34.693126	0.000375	3.749970	1.270524	-0.000150
1302	1.2945e+02	-11.8216	-34.798091	0.000264	2.635114	0.892801	-0.000105
1303	1.2955e+02	-11.8681	-34.882871	0.000213	2.128362	0.721108	-0.000085
1304	1.2965e+02	-11.9034	-35.024171	0.000355	3.547269	1.201847	-0.000142
1305	1.2975e+02	-11.9499	-35.088765	0.000162	1.621609	0.549416	-0.000065
1306	1.2985e+02	-11.9804	-35.213916	0.000314	3.141867	1.064493	-0.000126
1307	1.2995e+02	-12.0269	-35.318882	0.000264	2.635114	0.892801	-0.000105
1308	1.3005e+02	-12.0622	-35.371365	0.000132	1.317557	0.446400	-0.000053
1309	1.3015e+02	-12.1104	-35.508627	0.000345	3.445919	1.167509	-0.000138
1310	1.3025e+02	-12.1456	-35.524776	0.000041	0.405402	0.137354	-0.000016
1311	1.3034e+02	-12.1825	-35.682224	0.000395	3.952671	1.339201	-0.000158
1312	1.3044e+02	-12.2210	-35.750856	0.000172	1.722959	0.583754	-0.000069
1313	1.3054e+02	-12.2692	-35.811413	0.000152	1.520258	0.515077	-0.000061
1314	1.3064e+02	-12.3077	-35.948675	0.000345	3.445919	1.167509	-0.000138
1315	1.3074e+02	-12.3494	-36.049604	0.000253	2.533764	0.858462	-0.000101
1316	1.3084e+02	-12.3927	-36.150532	0.000253	2.533764	0.858462	-0.000101
1317	1.3094e+02	-12.4280	-36.211089	0.000152	1.520258	0.515077	-0.000061
1318	1.3104e+02	-12.4505	-36.380649	0.000426	4.256723	1.442217	-0.000170
1319	1.3114e+02	-12.5018	-36.501763	0.000304	3.040516	1.030155	-0.000122
1320	1.3124e+02	-12.5451	-36.614803	0.000284	2.837815	0.961478	-0.000114
1321	1.3134e+02	-12.5756	-36.707657	0.000233	2.331063	0.789785	-0.000093
1322	1.3144e+02	-12.6301	-36.780325	0.000182	1.824310	0.618093	-0.000073
1323	1.3154e+02	-12.6654	-36.877216	0.000243	2.432413	0.824124	-0.000097
1324	1.3164e+02	-12.7023	-37.010442	0.000334	3.344568	1.133170	-0.000134
1325	1.3174e+02	-12.7424	-37.107333	0.000243	2.432413	0.824124	-0.000097
1326	1.3184e+02	-12.7745	-37.228447	0.000304	3.040516	1.030155	-0.000122
1327	1.3194e+02	-12.8146	-37.305153	0.000193	1.925660	0.652431	-0.000077
1328	1.3204e+02	-12.8676	-37.373784	0.000172	1.722959	0.583754	-0.000069
1329	1.3214e+02	-12.9077	-37.454527	0.000203	2.027011	0.686770	-0.000081
1330	1.3224e+02	-12.9397	-37.535270	0.000203	2.027011	0.686770	-0.000081
1331	1.3234e+02	-12.9847	-37.603901	0.000172	1.722959	0.583754	-0.000069
1332	1.3243e+02	-13.0119	-37.704829	0.000253	2.533764	0.858462	-0.000101
1333	1.3253e+02	-13.0569	-37.797683	0.000233	2.331063	0.789785	-0.000093
1334	1.3263e+02	-13.0986	-37.890537	0.000233	2.331063	0.789785	-0.000093
1335	1.3273e+02	-13.1467	-38.027800	0.000345	3.445919	1.167509	-0.000138
1336	1.3283e+02	-13.1740	-38.152951	0.000314	3.141867	1.064493	-0.000126
1337	1.3293e+02	-13.2205	-38.237731	0.000213	2.128362	0.721108	-0.000085
1338	1.3303e+02	-13.2574	-38.399217	0.000405	4.054022	1.373540	-0.000162
1339	1.3313e+02	-13.3023	-38.435551	0.000091	0.912155	0.309046	-0.000037
1340	1.3323e+02	-13.3392	-38.552628	0.000294	2.939166	0.995816	-0.000118
1341	1.3333e+02	-13.3761	-38.641445	0.000223	2.229712	0.755447	-0.000089
1342	1.3343e+02	-13.4274	-38.762559	0.000304	3.040516	1.030155	-0.000122
1343	1.3353e+02	-13.4675	-38.815042	0.000132	1.317557	0.446400	-0.000053
1344	1.3363e+02	-13.4916	-38.928081	0.000284	2.837815	0.961478	-0.000114
1345	1.3373e+02	-13.5365	-39.020935	0.000233	2.331063	0.789785	-0.000093
1346	1.3383e+02	-13.5814	-39.121864	0.000253	2.533764	0.858462	-0.000101
1347	1.3393e+02	-13.6215	-39.210681	0.000223	2.229712	0.755447	-0.000089
1348	1.3403e+02	-13.6616	-39.319684	0.000274	2.736465	0.927139	-0.000110
1349	1.3413e+02	-13.7001	-39.372166	0.000132	1.317557	0.446400	-0.000053
1350	1.3423e+02	-13.7435	-39.456946	0.000213	2.128362	0.721108	-0.000085
1351	1.3432e+02	-13.7804	-39.561912	0.000264	2.635114	0.892801	-0.000105
1352	1.3442e+02	-13.8189	-39.618432	0.000142	1.418908	0.480739	-0.000057
1353	1.3452e+02	-13.8542	-39.735509	0.000294	2.939166	0.995816	-0.000118
1354	1.3462e+02	-13.8911	-39.856623	0.000304	3.040516	1.030155	-0.000122
1355	1.3472e+02	-13.9312	-39.993885	0.000345	3.445919	1.167509	-0.000138
1356	1.3482e+02	-13.9745	-40.086739	0.000233	2.331063	0.789785	-0.000093
1357	1.3492e+02	-14.0162	-40.187668	0.000253	2.533764	0.858462	-0.000101
1358	1.3502e+02	-14.0531	-40.256299	0.000172	1.722959	0.583754	-0.000069
1359	1.3512e+02	-14.0948	-40.385487	0.000324	3.243218	1.098832	-0.000130
1360	1.3522e+02	-14.1381	-40.462193	0.000193	1.925660	0.652431	-0.000077
1361	1.3532e+02	-14.1750	-40.567158	0.000264	2.635114	0.892801	-0.000105
1362	1.3542e+02	-14.2151	-40.655975	0.000223	2.229712	0.755447	-0.000089
1363	1.3552e+02	-14.2552	-40.756904	0.000253	2.533764	0.858462	-0.000101
1364	1.3562e+02	-14.2937	-40.853795	0.000243	2.432413	0.824124	-0.000097
1365	1.3572e+02	-14.3242	-40.906278	0.000132	1.317557	0.446400	-0.000053
1366	1.3582e+02	-14.3739	-40.987021	0.000203	2.027011	0.686770	-0.000081
1367	1.3592e+02	-14.4108	-41.112172	0.000314	3.141867	1.064493	-0.000126
1368	1.3602e+02	-14.4590	-41.168692	0.000142	1.418908	0.480739	-0.000057
1369	1.3612e+02	-14.5007	-41.213100	0.000111	1.114856	0.377723	-0.000045
1370	1.3622e+02	-14.5392	-41.322103	0.000274	2.736465	0.927139	-0.000110
1371	1.3631e+02	-14.5712	-41.390734	0.000172	1.722959	0.583754	-0.000069
1372	1.3641e+02	-14.6049	-41.499737	0.000274	2.736465	0.927139	-0.000110
1373	1.3651e+02	-14.6547	-41.636999	0.000345	3.445919	1.167509	-0.000138
1374	1.3661e+02	-14.6916	-41.725816	0.000223	2.229712	0.755447	-0.000089
1375	1.3671e+02	-14.7317	-41.798485	0.000182	1.824310	0.618093	-0.000073
1376	1.3681e+02	-14.7686	-41.931710	0.000334	3.344568	1.133170	-0.000134
1377	1.3691e+02	-14.8151	-42.020527	0.000223	2.229712	0.755447	-0.000089
1378	1.3701e+02	-14.8536	-42.121456	0.000253	2.533764	0.858462	-0.000101
1379	1.3711e+02	-14.8905	-42.210273	0.000223	2.229712	0.755447	-0.000089
1380	1.3721e+02	-14.9354	-42.299090	0.000223	2.229712	0.755447	-0.000089
1381	1.3731e+02	-14.9755	-42.371758	0.000182	1.824310	0.618093	-0.000073
1382	1.3741e+02	-15.0172	-42.472687	0.000253	2.533764	0.858462	-0.000101
1383	1.3751e+02	-15.0493	-42.581689	0.000274	2.736465	0.927139	-0.000110
1384	1.3761e+02	-15.0910	-42.650321	0.000172	1.722959	0.583754	-0.000069
1385	1.3771e+02	-15.1295	-42.731063	0.000203	2.027011	0.686770	-0.000081
1386	1.3781e+02	-15.1696	-42.783546	0.000132	1.317557	0.446400	-0.000053
1387	1.3791e+02	-15.2033	-42.916771	0.000334	3.344568	1.133170	-0.000134
1388	1.3801e+02	-15.2546	-42.985403	0.000172	1.722959	0.583754	-0.000069
1389	1.3811e+02	-15.2980	-43.118628	0.000334	3.344568	1.133170	-0.000134
1390	1.3821e+02	-15.3188	-43.183222	0.000162	1.621609	0.549416	-0.000065
1391	1.3831e+02	-15.3573	-43.320485	0.000345	3.445919	1.167509	-0.000138
1392	1.3840e+02	-15.4119	-43.413339	0.000233	2.331063	0.789785	-0.000093
1393	1.3850e+02	-15.4456	-43.510230	0.000243	2.432413	0.824124	-0.000097
1394	1.3860e+02	-15.4937	-43.586936	0.000193	1.925660	0.652431	-0.000077
1395	1.3870e+02	-15.5338	-43.695939	0.000274	2.736465	0.927139	-0.000110
1396	1.3880e+02	-15.5819	-43.784756	0.000223	2.229712	0.755447	-0.000089
1397	1.3890e+02	-15.6156	-43.889721	0.000264	2.635114	0.892801	-0.000105
1398	1.3900e+02	-15.6493	-43.982575	0.000233	2.331063	0.789785	-0.000093
1399	1.3910e+02	-15.6878	-44.119838	0.000345	3.445919	1.167509	-0.000138
1400	1.3920e+02	-15.7231	-44.188469	0.000172	1.722959	0.583754	-0.000069
1401	1.3930e+02	-15.7648	-44.269212	0.000203	2.027011	0.686770	-0.000081
1402	1.3940e+02	-15.8145	-44.366103	0.000243	2.432413	0.824124	-0.000097
1403	1.3950e+02	-15.8530	-44.462994	0.000243	2.432413	0.824124	-0.000097
1404	1.3960e+02	-15.8899	-44.555849	0.000233	2.331063	0.789785	-0.000093
1405	1.3970e+02	-15.9300	-44.640628	0.000213	2.128362	0.721108	-0.000085
1406	1.3980e+02	-15.9637	-44.701185	0.000152	1.520258	0.515077	-0.000061
1407	1.3990e+02	-15.9990	-44.777891	0.000193	1.925660	0.652431	-0.000077
1408	1.4000e+02	-16.0487	-44.890931	0.000284	2.837815	0.961478	-0.000114
1409	1.4010e+02	-16.0792	-45.008008	0.000294	2.939166	0.995816	-0.000118
1410	1.4020e+02	-16.1097	-45.117010	0.000274	2.736465	0.927139	-0.000110
1411	1.4029e+02	-16.1691	-45.242162	0.000314	3.141867	1.064493	-0.000126
1412	1.4039e+02	-16.2060	-45.335016	0.000233	2.331063	0.789785	-0.000093
1413	1.4049e+02	-16.2445	-45.423833	0.000223	2.229712	0.755447	-0.000089
1414	1.4059e+02	-16.2798	-45.488427	0.000162	1.621609	0.549416	-0.000065
1415	1.4069e+02	-16.3263	-45.629727	0.000355	3.547269	1.201847	-0.000142
1416	1.4079e+02	-16.3680	-45.698358	0.000172	1.722959	0.583754	-0.000069
1417	1.4089e+02	-16.4065	-45.803324	0.000264	2.635114	0.892801	-0.000105
1418	1.4099e+02	-16.4482	-45.892141	0.000223	2.229712	0.755447	-0.000089
1419	1.4109e+02	-16.4867	-46.001143	0.000274	2.736465	0.927139	-0.000110
1420	1.4119e+02	-16.5348	-46.041515	0.000101	1.013505	0.343385	-0.000041
1421	1.4129e+02	-16.5621	-46.194926	0.000385	3.851321	1.304863	-0.000154
1422	1.4139e+02	-16.6150	-46.283743	0.000223	2.229712	0.755447	-0.000089
1423	1.4149e+02	-16.6487	-46.376597	0.000233	2.331063	0.789785	-0.000093
1424	1.4159e+02	-16.6920	-46.485599	0.000274	2.736465	0.927139	-0.000110
1425	1.4169e+02	-16.7338	-46.509822	0.000061	0.608103	0.206031	-0.000024
1426	1.4179e+02	-16.7787	-46.647085	0.000345	3.445919	1.167509	-0.000138
1427	1.4189e+02	-16.8027	-46.743976	0.000243	2.432413	0.824124	-0.000097
1428	1.4199e+02	-16.8364	-46.865090	0.000304	3.040516	1.030155	-0.000122
1429	1.4209e+02	-16.8910	-46.949870	0.000213	2.128362	0.721108	-0.000085
1430	1.4219e+02	-16.9263	-47.050798	0.000253	2.533764	0.858462	-0.000101
1431	1.4228e+02	-16.9664	-47.147690	0.000243	2.432413	0.824124	-0.000097
1432	1.4238e+02	-17.0001	-47.280915	0.000334	3.344568	1.133170	-0.000134
1433	1.4248e+02	-17.0482	-47.373769	0.000233	2.331063	0.789785	-0.000093
1434	1.4258e+02	-17.0819	-47.494883	0.000304	3.040516	1.030155	-0.000122
1435	1.4268e+02	-17.1156	-47.539292	0.000111	1.114856	0.377723	-0.000045
1436	1.4278e+02	-17.1573	-47.624072	0.000213	2.128362	0.721108	-0.000085
1437	1.4288e+02	-17.2006	-47.749223	0.000314	3.141867	1.064493	-0.000126
1438	1.4298e+02	-17.2423	-47.801706	0.000132	1.317557	0.446400	-0.000053
1439	1.4308e+02	-17.2840	-47.934931	0.000334	3.344568	1.133170	-0.000134
1440	1.4318e+02	-17.3209	-48.019711	0.000213	2.128362	0.721108	-0.000085
1441	1.4328e+02	-17.3706	-48.116602	0.000243	2.432413	0.824124	-0.000097
1442	1.4338e+02	-17.4075	-48.221568	0.000264	2.635114	0.892801	-0.000105
1443	1.4348e+02	-17.4412	-48.294236	0.000182	1.824310	0.618093	-0.000073
1444	1.4358e+02	-17.4877	-48.379016	0.000213	2.128362	0.721108	-0.000085
1445	1.4368e+02	-17.5166	-48.483982	0.000264	2.635114	0.892801	-0.000105
1446	1.4378e+02	-17.5680	-48.601059	0.000294	2.939166	0.995816	-0.000118
1447	1.4388e+02	-17.6081	-48.710061	0.000274	2.736465	0.927139	-0.000110
1448	1.4398e+02	-17.6353	-48.802915	0.000233	2.331063	0.789785	-0.000093
1449	1.4408e+02	-17.6819	-48.915955	0.000284	2.837815	0.961478	-0.000114
1450	1.4418e+02	-17.7236	-48.956327	0.000101	1.013505	0.343385	-0.000041
1451	1.4428e+02	-17.7637	-49.093589	0.000345	3.445919	1.167509	-0.000138
1452	1.4437e+02	-17.7958	-49.194518	0.000253	2.533764	0.858462	-0.000101
1453	1.4447e+02	-17.8455	-49.291409	0.000243	2.432413	0.824124	-0.000097
1454	1.4457e+02	-17.8776	-49.424634	0.000334	3.344568	1.133170	-0.000134
1455	1.4467e+02	-17.9193	-49.513451	0.000223	2.229712	0.755447	-0.000089
1456	1.4477e+02	-17.9578	-49.574008	0.000152	1.520258	0.515077	-0.000061
1457	1.4487e+02	-18.0075	-49.707234	0.000334	3.344568	1.133170	-0.000134
1458	1.4497e+02	-18.0428	-49.800088	0.000233	2.331063	0.789785	-0.000093
1459	1.4507e+02	-18.0925	-49.896979	0.000243	2.432413	0.824124	-0.000097
1460	1.4517e+02	-18.1166	-49.973685	0.000193	1.925660	0.652431	-0.000077
1461	1.4527e+02	-18.1647	-50.058465	0.000213	2.128362	0.721108	-0.000085
1462	1.4537e+02	-18.2080	-50.187653	0.000324	3.243218	1.098832	-0.000130
1463	1.4547e+02	-18.2337	-50.276470	0.000223	2.229712	0.755447	-0.000089
1464	1.4557e+02	-18.2738	-50.373361	0.000243	2.432413	0.824124	-0.000097
1465	1.4567e+02	-18.3252	-50.510624	0.000345	3.445919	1.167509	-0.000138
1466	1.4577e+02	-18.3653	-50.583292	0.000182	1.824310	0.618093	-0.000073
1467	1.4587e+02	-18.4054	-50.672109	0.000223	2.229712	0.755447	-0.000089
1468	1.4597e+02	-18.4358	-50.797260	0.000314	3.141867	1.064493	-0.000126
1469	1.4607e+02	-18.4776	-50.898189	0.000253	2.533764	0.858462	-0.000101
1470	1.4617e+02	-18.5209	-50.970857	0.000182	1.824310	0.618093	-0.000073
1471	1.4626e+02	-18.5738	-51.075823	0.000264	2.635114	0.892801	-0.000105
1472	1.4636e+02	-18.5995	-51.168677	0.000233	2.331063	0.789785	-0.000093
1473	1.4646e+02	-18.6396	-51.281717	0.000284	2.837815	0.961478	-0.000114
1474	1.4656e+02	-18.6861	-51.386682	0.000264	2.635114	0.892801	-0.000105
1475	1.4666e+02	-18.7214	-51.459351	0.000182	1.824310	0.618093	-0.000073
1476	1.4676e+02	-18.7615	-51.572390	0.000284	2.837815	0.961478	-0.000114
1477	1.4686e+02	-18.7968	-51.649096	0.000193	1.925660	0.652431	-0.000077
1478	1.4696e+02	-18.8369	-51.786359	0.000345	3.445919	1.167509	-0.000138
1479	1.4706e+02	-18.8834	-51.838841	0.000132	1.317557	0.446400	-0.000053
1480	1.4716e+02	-18.9235	-51.980141	0.000355	3.547269	1.201847	-0.000142
1481	1.4726e+02	-18.9524	-52.060884	0.000203	2.027011	0.686770	-0.000081
1482	1.4736e+02	-18.9845	-52.101255	0.000101	1.013505	0.343385	-0.000041
1483	1.4746e+02	-19.0278	-52.242555	0.000355	3.547269	1.201847	-0.000142
1484	1.4756e+02	-19.0791	-52.315223	0.000182	1.824310	0.618093	-0.000073
1485	1.4766e+02	-19.1144	-52.412115	0.000243	2.432413	0.824124	-0.000097
1486	1.4776e+02	-19.1561	-52.484783	0.000182	1.824310	0.618093	-0.000073
1487	1.4786e+02	-19.1930	-52.642231	0.000395	3.952671	1.339201	-0.000158
1488	1.4796e+02	-19.2331	-52.706826	0.000162	1.621609	0.549416	-0.000065
1489	1.4806e+02	-19.2716	-52.852163	0.000365	3.648620	1.236186	-0.000146
1490	1.4816e+02	-19.3214	-52.932905	0.000203	2.027011	0.686770	-0.000081
1491	1.4825e+02	-19.3519	-53.041908	0.000274	2.736465	0.927139	-0.000110
1492	1.4835e+02	-19.3984	-53.126688	0.000213	2.128362	0.721108	-0.000085
1493	1.4845e+02	-19.4401	-53.187245	0.000152	1.520258	0.515077	-0.000061
1494	1.4855e+02	-19.4818	-53.360842	0.000436	4.358074	1.476555	-0.000174
1495	1.4865e+02	-19.5251	-53.389102	0.000071	0.709454	0.240369	-0.000028
1496	1.4875e+02	-19.5604	-53.514253	0.000314	3.141867	1.064493	-0.000126
1497	1.4885e+02	-19.6053	-53.623255	0.000274	2.736465	0.927139	-0.000110
1498	1.4895e+02	-19.6342	-53.720147	0.000243	2.432413	0.824124	-0.000097
1499	1.4905e+02	-19.6679	-53.825112	0.000264	2.635114	0.892801	-0.000105
1500	1.4915e+02	-19.7144	-53.926041	0.000253	2.533764	0.858462	-0.000101
1501	1.4925e+02	-19.7465	-53.994672	0.000172	1.722959	0.583754	-0.000069
1502	1.4935e+02	-19.7898	-54.091563	0.000243	2.432413	0.824124	-0.000097
1503	1.4945e+02	-19.8331	-54.196529	0.000264	2.635114	0.892801	-0.000105
1504	1.4955e+02	-19.8652	-54.313606	0.000294	2.939166	0.995816	-0.000118
1505	1.4965e+02	-19.9117	-54.394348	0.000203	2.027011	0.686770	-0.000081
1506	1.4975e+02	-19.9438	-54.483165	0.000223	2.229712	0.755447	-0.000089
1507	1.4985e+02	-19.9952	-54.563908	0.000203	2.027011	0.686770	-0.000081
1508	1.4995e+02	-19.9567	-54.543722	0.000051	0.506753	0.171692	0.000020
1509	1.5005e+02	-19.9262	-54.475091	0.000172	1.722959	0.583754	0.000069
1510	1.5015e+02	-19.8716	-54.446831	0.000071	0.709454	0.240369	0.000028
1511	1.5025e+02	-19.8347	-54.333791	0.000284	2.837815	0.961478	0.000114
1512	1.5034e+02	-19.7930	-54.289383	0.000111	1.114856	0.377723	0.000045
1513	1.5044e+02	-19.7593	-54.204603	0.000213	2.128362	0.721108	0.000085
1514	1.5054e+02	-19.7096	-54.164232	0.000101	1.013505	0.343385	0.000041
1515	1.5064e+02	-19.6759	-54.087526	0.000193	1.925660	0.652431	0.000077
1516	1.5074e+02	-19.6422	-54.031006	0.000142	1.418908	0.480739	0.000057
1517	1.5084e+02	-19.5893	-53.934115	0.000243	2.432413	0.824124	0.000097
1518	1.5094e+02	-19.5428	-53.893744	0.000101	1.013505	0.343385	0.000041
1519	1.5104e+02	-19.5059	-53.853372	0.000101	1.013505	0.343385	0.000041
1520	1.5114e+02	-19.4770	-53.748407	0.000264	2.635114	0.892801	0.000105
1521	1.5124e+02	-19.4337	-53.683812	0.000162	1.621609	0.549416	0.000065
1522	1.5134e+02	-19.3904	-53.611144	0.000182	1.824310	0.618093	0.000073
1523	1.5144e+02	-19.3503	-53.530401	0.000203	2.027011	0.686770	0.000081
1524	1.5154e+02	-19.3134	-53.433510	0.000243	2.432413	0.824124	0.000097
1525	1.5164e+02	-19.2781	-53.393139	0.000101	1.013505	0.343385	0.000041
1526	1.5174e+02	-19.2364	-53.300285	0.000233	2.331063	0.789785	0.000093
1527	1.5184e+02	-19.1946	-53.211468	0.000223	2.229712	0.755447	0.000089
1528	1.5194e+02	-19.1626	-53.142836	0.000172	1.722959	0.583754	0.000069
1529	1.5204e+02	-19.1176	-53.078242	0.000162	1.621609	0.549416	0.000065
1530	1.5214e+02	-19.0791	-52.953091	0.000314	3.141867	1.064493	0.000126
1531	1.5224e+02	-19.0422	-52.884460	0.000172	1.722959	0.583754	0.000069
1532	1.5233e+02	-18.9989	-52.840051	0.000111	1.114856	0.377723	0.000045
1533	1.5243e+02	-18.9572	-52.739123	0.000253	2.533764	0.858462	0.000101
1534	1.5253e+02	-18.9251	-52.666454	0.000182	1.824310	0.618093	0.000073
1535	1.5263e+02	-18.8738	-52.605897	0.000152	1.520258	0.515077	0.000061
1536	1.5273e+02	-18.8417	-52.480746	0.000314	3.141867	1.064493	0.000126
1537	1.5283e+02	-18.7872	-52.464597	0.000041	0.405402	0.137354	0.000016
1538	1.5293e+02	-18.7599	-52.371743	0.000233	2.331063	0.789785	0.000093
1539	1.5303e+02	-18.7102	-52.311186	0.000152	1.520258	0.515077	0.000061
1540	1.5313e+02	-18.6845	-52.181998	0.000324	3.243218	1.098832	0.000130
1541	1.5323e+02	-18.6428	-52.040698	0.000355	3.547269	1.201847	0.000142
1542	1.5333e+02	-18.5931	-51.984178	0.000142	1.418908	0.480739	0.000057
1543	1.5343e+02	-18.5658	-51.859027	0.000314	3.141867	1.064493	0.000126
1544	1.5353e+02	-18.5305	-51.822693	0.000091	0.912155	0.309046	0.000037
1545	1.5363e+02	-18.4711	-51.741950	0.000203	2.027011	0.686770	0.000081
1546	1.5373e+02	-18.4471	-51.665245	0.000193	1.925660	0.652431	0.000077
1547	1.5383e+02	-18.3989	-51.596613	0.000172	1.722959	0.583754	0.000069
1548	1.5393e+02	-18.3620	-51.475499	0.000304	3.040516	1.030155	0.000122
1549	1.5403e+02	-18.3187	-51.406868	0.000172	1.722959	0.583754	0.000069
1550	1.5413e+02	-18.2690	-51.330162	0.000193	1.925660	0.652431	0.000077
1551	1.5422e+02	-18.2449	-51.265568	0.000162	1.621609	0.549416	0.000065
1552	1.5432e+02	-18.2113	-51.148491	0.000294	2.939166	0.995816	0.000118
1553	1.5442e+02	-18.1695	-51.051600	0.000243	2.432413	0.824124	0.000097
1554	1.5452e+02	-18.1214	-51.023340	0.000071	0.709454	0.240369	0.000028
1555	1.5462e+02	-18.0717	-50.962783	0.000152	1.520258	0.515077	0.000061
1556	1.5472e+02	-18.0412	-50.910300	0.000132	1.317557	0.446400	0.000053
1557	1.5482e+02	-18.0011	-50.793223	0.000294	2.939166	0.995816	0.000118
1558	1.5492e+02	-17.9578	-50.720555	0.000182	1.824310	0.618093	0.000073
1559	1.5502e+02	-17.9177	-50.546958	0.000436	4.358074	1.476555	0.000174
1560	1.5512e+02	-17.8904	-50.470252	0.000193	1.925660	0.652431	0.000077
1561	1.5522e+02	-17.8278	-50.429881	0.000101	1.013505	0.343385	0.000041
1562	1.5532e+02	-17.7958	-50.324916	0.000264	2.635114	0.892801	0.000105
1563	1.5542e+02	-17.7653	-50.223987	0.000253	2.533764	0.858462	0.000101
1564	1.5552e+02	-17.7252	-50.171504	0.000132	1.317557	0.446400	0.000053
1565	1.5562e+02	-17.6802	-50.082687	0.000223	2.229712	0.755447	0.000089
1566	1.5572e+02	-17.6385	-49.969648	0.000284	2.837815	0.961478	0.000114
1567	1.5582e+02	-17.6032	-49.925239	0.000111	1.114856	0.377723	0.000045
1568	1.5592e+02	-17.5631	-49.840459	0.000213	2.128362	0.721108	0.000085
1569	1.5602e+02	-17.5295	-49.779902	0.000152	1.520258	0.515077	0.000061
1570	1.5612e+02	-17.4861	-49.674937	0.000264	2.635114	0.892801	0.000105
1571	1.5622e+02	-17.4476	-49.598231	0.000193	1.925660	0.652431	0.000077
1572	1.5631e+02	-17.3979	-49.513451	0.000213	2.128362	0.721108	0.000085
1573	1.5641e+02	-17.3578	-49.460968	0.000132	1.317557	0.446400	0.000053
1574	1.5651e+02	-17.3225	-49.372152	0.000223	2.229712	0.755447	0.000089
1575	1.5661e+02	-17.2776	-49.307557	0.000162	1.621609	0.549416	0.000065
1576	1.5671e+02	-17.2407	-49.242963	0.000162	1.621609	0.549416	0.000065
1577	1.5681e+02	-17.2022	-49.125886	0.000294	2.939166	0.995816	0.000118
1578	1.5691e+02	-17.1669	-49.033032	0.000233	2.331063	0.789785	0.000093
1579	1.5701e+02	-17.1348	-48.948252	0.000213	2.128362	0.721108	0.000085
1580	1.5711e+02	-17.0915	-48.883658	0.000162	1.621609	0.549416	0.000065
1581	1.5721e+02	-17.0337	-48.766581	0.000294	2.939166	0.995816	0.000118
1582	1.5731e+02	-16.9968	-48.685838	0.000203	2.027011	0.686770	0.000081
1583	1.5741e+02	-16.9664	-48.601059	0.000213	2.128362	0.721108	0.000085
1584	1.5751e+02	-16.9231	-48.516279	0.000213	2.128362	0.721108	0.000085
1585	1.5761e+02	-16.8910	-48.403239	0.000284	2.837815	0.961478	0.000114
1586	1.5771e+02	-16.8364	-48.362868	0.000101	1.013505	0.343385	0.000041
1587	1.5781e+02	-16.7963	-48.274051	0.000223	2.229712	0.755447	0.000089
1588	1.5791e+02	-16.7755	-48.156974	0.000294	2.939166	0.995816	0.000118
1589	1.5801e+02	-16.7273	-48.084305	0.000182	1.824310	0.618093	0.000073
1590	1.5811e+02	-16.6872	-48.019711	0.000162	1.621609	0.549416	0.000065
1591	1.5821e+02	-16.6439	-47.963191	0.000142	1.418908	0.480739	0.000057
1592	1.5830e+02	-16.6022	-47.926857	0.000091	0.912155	0.309046	0.000037
1593	1.5840e+02	-16.5717	-47.789594	0.000345	3.445919	1.167509	0.000138
1594	1.5850e+02	-16.5300	-47.773446	0.000041	0.405402	0.137354	0.000016
1595	1.5860e+02	-16.4851	-47.668480	0.000264	2.635114	0.892801	0.000105
1596	1.5870e+02	-16.4466	-47.551403	0.000294	2.939166	0.995816	0.000118
1597	1.5880e+02	-16.4065	-47.466623	0.000213	2.128362	0.721108	0.000085
1598	1.5890e+02	-16.3680	-47.365695	0.000253	2.533764	0.858462	0.000101
1599	1.5900e+02	-16.3279	-47.244581	0.000304	3.040516	1.030155	0.000122
1600	1.5910e+02	-16.2846	-47.139615	0.000264	2.635114	0.892801	0.000105
1601	1.5920e+02	-16.2477	-47.087133	0.000132	1.317557	0.446400	0.000053
1602	1.5930e+02	-16.2140	-47.022539	0.000162	1.621609	0.549416	0.000065
1603	1.5940e+02	-16.1610	-46.937759	0.000213	2.128362	0.721108	0.000085
1604	1.5950e+02	-16.1306	-46.836830	0.000253	2.533764	0.858462	0.000101
1605	1.5960e+02	-16.0808	-46.772236	0.000162	1.621609	0.549416	0.000065
1606	1.5970e+02	-16.0600	-46.663233	0.000274	2.736465	0.927139	0.000110
1607	1.5980e+02	-16.0183	-46.598639	0.000162	1.621609	0.549416	0.000065
1608	1.5990e+02	-15.9685	-46.469451	0.000324	3.243218	1.098832	0.000130
1609	1.6000e+02	-15.9220	-46.412931	0.000142	1.418908	0.480739	0.000057
1610	1.6010e+02	-15.8851	-46.344300	0.000172	1.722959	0.583754	0.000069
1611	1.6019e+02	-15.8482	-46.312003	0.000081	0.810804	0.274708	0.000032
1612	1.6029e+02	-15.8065	-46.203000	0.000274	2.736465	0.927139	0.000110
1613	1.6039e+02	-15.7648	-46.146480	0.000142	1.418908	0.480739	0.000057
1614	1.6049e+02	-15.7279	-46.041515	0.000264	2.635114	0.892801	0.000105
1615	1.6059e+02	-15.6862	-45.968846	0.000182	1.824310	0.618093	0.000073
1616	1.6069e+02	-15.6493	-45.851769	0.000294	2.939166	0.995816	0.000118
1617	1.6079e+02	-15.6076	-45.762952	0.000223	2.229712	0.755447	0.000089
1618	1.6089e+02	-15.5707	-45.690284	0.000182	1.824310	0.618093	0.000073
1619	1.6099e+02	-15.5338	-45.544947	0.000365	3.648620	1.236186	0.000146
1620	1.6109e+02	-15.4857	-45.484390	0.000152	1.520258	0.515077	0.000061
1621	1.6119e+02	-15.4600	-45.448056	0.000091	0.912155	0.309046	0.000037
1622	1.6129e+02	-15.4119	-45.359239	0.000223	2.229712	0.755447	0.000089
1623	1.6139e+02	-15.3766	-45.226013	0.000334	3.344568	1.133170	0.000134
1624	1.6149e+02	-15.3429	-45.181605	0.000111	1.114856	0.377723	0.000045
1625	1.6159e+02	-15.2980	-45.088750	0.000233	2.331063	0.789785	0.000093
1626	1.6169e+02	-15.2498	-45.016082	0.000182	1.824310	0.618093	0.000073
1627	1.6179e+02	-15.2145	-44.943414	0.000182	1.824310	0.618093	0.000073
1628	1.6189e+02	-15.1664	-44.886894	0.000142	1.418908	0.480739	0.000057
1629	1.6199e+02	-15.1231	-44.794040	0.000233	2.331063	0.789785	0.000093
1630	1.6209e+02	-15.0926	-44.729445	0.000162	1.621609	0.549416	0.000065
1631	1.6219e+02	-15.0525	-44.640628	0.000223	2.229712	0.755447	0.000089
1632	1.6228e+02	-15.0060	-44.584109	0.000142	1.418908	0.480739	0.000057
1633	1.6238e+02	-14.9643	-44.471069	0.000284	2.837815	0.961478	0.000114
1634	1.6248e+02	-14.9338	-44.386289	0.000213	2.128362	0.721108	0.000085
1635	1.6258e+02	-14.8905	-44.261138	0.000314	3.141867	1.064493	0.000126
1636	1.6268e+02	-14.8552	-44.164246	0.000243	2.432413	0.824124	0.000097
1637	1.6278e+02	-14.8135	-44.043132	0.000304	3.040516	1.030155	0.000122
1638	1.6288e+02	-14.7734	-43.990650	0.000132	1.317557	0.446400	0.000053
1639	1.6298e+02	-14.7317	-43.889721	0.000253	2.533764	0.858462	0.000101
1640	1.6308e+02	-14.7060	-43.804941	0.000213	2.128362	0.721108	0.000085
1641	1.6318e+02	-14.6563	-43.708050	0.000243	2.432413	0.824124	0.000097
1642	1.6328e+02	-14.6081	-43.615196	0.000233	2.331063	0.789785	0.000093
1643	1.6338e+02	-14.5745	-43.558676	0.000142	1.418908	0.480739	0.000057
1644	1.6348e+02	-14.5392	-43.445636	0.000284	2.837815	0.961478	0.000114
1645	1.6358e+02	-14.4991	-43.377005	0.000172	1.722959	0.583754	0.000069
1646	1.6368e+02	-14.4654	-43.300299	0.000193	1.925660	0.652431	0.000077
1647	1.6378e+02	-14.4108	-43.203408	0.000243	2.432413	0.824124	0.000097
1648	1.6388e+02	-14.3691	-43.130740	0.000182	1.824310	0.618093	0.000073
1649	1.6398e+02	-14.3322	-43.066145	0.000162	1.621609	0.549416	0.000065
1650	1.6408e+02	-14.3001	-42.953106	0.000284	2.837815	0.961478	0.000114
1651	1.6418e+02	-14.2536	-42.856214	0.000243	2.432413	0.824124	0.000097
1652	1.6427e+02	-14.2039	-42.771435	0.000213	2.128362	0.721108	0.000085
1653	1.6437e+02	-14.1782	-42.670506	0.000253	2.533764	0.858462	0.000101
1654	1.6447e+02	-14.1349	-42.593801	0.000193	1.925660	0.652431	0.000077
1655	1.6457e+02	-14.0868	-42.492872	0.000253	2.533764	0.858462	0.000101
1656	1.6467e+02	-14.0611	-42.383870	0.000274	2.736465	0.927139	0.000110
1657	1.6477e+02	-14.0258	-42.270830	0.000284	2.837815	0.961478	0.000114
1658	1.6487e+02	-13.9777	-42.125493	0.000365	3.648620	1.236186	0.000146
1659	1.6497e+02	-13.9392	-42.056862	0.000172	1.722959	0.583754	0.000069
1660	1.6507e+02	-13.8991	-41.988230	0.000172	1.722959	0.583754	0.000069
1661	1.6517e+02	-13.8526	-41.879228	0.000274	2.736465	0.927139	0.000110
1662	1.6527e+02	-13.8221	-41.810596	0.000172	1.722959	0.583754	0.000069
1663	1.6537e+02	-13.7836	-41.689482	0.000304	3.040516	1.030155	0.000122
1664	1.6547e+02	-13.7435	-41.653148	0.000091	0.912155	0.309046	0.000037
1665	1.6557e+02	-13.6889	-41.552220	0.000253	2.533764	0.858462	0.000101
1666	1.6567e+02	-13.6584	-41.475514	0.000193	1.925660	0.652431	0.000077
1667	1.6577e+02	-13.6151	-41.386697	0.000223	2.229712	0.755447	0.000089
1668	1.6587e+02	-13.5782	-41.293843	0.000233	2.331063	0.789785	0.000093
1669	1.6597e+02	-13.5413	-41.200989	0.000233	2.331063	0.789785	0.000093
1670	1.6607e+02	-13.5028	-41.156580	0.000111	1.114856	0.377723	0.000045
1671	1.6616e+02	-13.4499	-41.007206	0.000375	3.749970	1.270524	0.000150
1672	1.6626e+02	-13.4130	-40.914352	0.000233	2.331063	0.789785	0.000093
1673	1.6636e+02	-13.3809	-40.781127	0.000334	3.344568	1.133170	0.000134
1674	1.6646e+02	-13.3328	-40.688273	0.000233	2.331063	0.789785	0.000093
1675	1.6656e+02	-13.3007	-40.615604	0.000182	1.824310	0.618093	0.000073
1676	1.6666e+02	-13.2654	-40.478341	0.000345	3.445919	1.167509	0.000138
1677	1.6676e+02	-13.2237	-40.361265	0.000294	2.939166	0.995816	0.000118
1678	1.6686e+02	-13.1900	-40.284559	0.000193	1.925660	0.652431	0.000077
1679	1.6696e+02	-13.1483	-40.191705	0.000233	2.331063	0.789785	0.000093
1680	1.6706e+02	-13.0970	-40.082702	0.000274	2.736465	0.927139	0.000110
1681	1.6716e+02	-13.0617	-40.005997	0.000193	1.925660	0.652431	0.000077
1682	1.6726e+02	-13.0264	-39.921217	0.000213	2.128362	0.721108	0.000085
1683	1.6736e+02	-12.9766	-39.816251	0.000264	2.635114	0.892801	0.000105
1684	1.6746e+02	-12.9333	-39.767806	0.000122	1.216207	0.412062	0.000049
1685	1.6756e+02	-12.9061	-39.691100	0.000193	1.925660	0.652431	0.000077
1686	1.6766e+02	-12.8676	-39.634580	0.000142	1.418908	0.480739	0.000057
1687	1.6776e+02	-12.8194	-39.489243	0.000365	3.648620	1.236186	0.000146
1688	1.6786e+02	-12.7809	-39.408501	0.000203	2.027011	0.686770	0.000081
1689	1.6796e+02	-12.7392	-39.291424	0.000294	2.939166	0.995816	0.000118
1690	1.6806e+02	-12.7007	-39.206644	0.000213	2.128362	0.721108	0.000085
1691	1.6816e+02	-12.6606	-39.121864	0.000213	2.128362	0.721108	0.000085
1692	1.6825e+02	-12.6205	-38.968453	0.000385	3.851321	1.304863	0.000154
1693	1.6835e+02	-12.5820	-38.879636	0.000223	2.229712	0.755447	0.000089
1694	1.6845e+02	-12.5403	-38.746410	0.000334	3.344568	1.133170	0.000134
1695	1.6855e+02	-12.5082	-38.689890	0.000142	1.418908	0.480739	0.000057
1696	1.6865e+02	-12.4601	-38.556665	0.000334	3.344568	1.133170	0.000134
1697	1.6875e+02	-12.4344	-38.512256	0.000111	1.114856	0.377723	0.000045
1698	1.6885e+02	-12.3863	-38.366919	0.000365	3.648620	1.236186	0.000146
1699	1.6895e+02	-12.3382	-38.278103	0.000223	2.229712	0.755447	0.000089
1700	1.6905e+02	-12.3157	-38.173137	0.000264	2.635114	0.892801	0.000105
1701	1.6915e+02	-12.2628	-38.072209	0.000253	2.533764	0.858462	0.000101
1702	1.6925e+02	-12.2307	-37.987429	0.000213	2.128362	0.721108	0.000085
1703	1.6935e+02	-12.1777	-37.930909	0.000142	1.418908	0.480739	0.000057
1704	1.6945e+02	-12.1392	-37.825943	0.000264	2.635114	0.892801	0.000105
1705	1.6955e+02	-12.1087	-37.712903	0.000284	2.837815	0.961478	0.000114
1706	1.6965e+02	-12.0590	-37.636198	0.000193	1.925660	0.652431	0.000077
1707	1.6975e+02	-12.0205	-37.527195	0.000274	2.736465	0.927139	0.000110
1708	1.6985e+02	-11.9804	-37.438378	0.000223	2.229712	0.755447	0.000089
1709	1.6995e+02	-11.9483	-37.305153	0.000334	3.344568	1.133170	0.000134
1710	1.7005e+02	-11.8986	-37.171927	0.000334	3.344568	1.133170	0.000134
1711	1.7015e+02	-11.8713	-37.050813	0.000304	3.040516	1.030155	0.000122
1712	1.7024e+02	-11.8168	-36.945848	0.000264	2.635114	0.892801	0.000105
1713	1.7034e+02	-11.7863	-36.844919	0.000253	2.533764	0.858462	0.000101
1714	1.7044e+02	-11.7430	-36.723805	0.000304	3.040516	1.030155	0.000122
1715	1.7054e+02	-11.7077	-36.663248	0.000152	1.520258	0.515077	0.000061
1716	1.7064e+02	-11.6612	-36.550208	0.000284	2.837815	0.961478	0.000114
1717	1.7074e+02	-11.6243	-36.433131	0.000294	2.939166	0.995816	0.000118
1718	1.7084e+02	-11.5890	-36.312017	0.000304	3.040516	1.030155	0.000122
1719	1.7094e+02	-11.5505	-36.283757	0.000071	0.709454	0.240369	0.000028
1720	1.7104e+02	-11.5120	-36.146495	0.000345	3.445919	1.167509	0.000138
1721	1.7114e+02	-11.4606	-36.106123	0.000101	1.013505	0.343385	0.000041
1722	1.7124e+02	-11.4173	-35.997121	0.000274	2.736465	0.927139	0.000110
1723	1.7134e+02	-11.3820	-35.908304	0.000223	2.229712	0.755447	0.000089
1724	1.7144e+02	-11.3483	-35.835635	0.000182	1.824310	0.618093	0.000073
1725	1.7154e+02	-11.3114	-35.758930	0.000193	1.925660	0.652431	0.000077
1726	1.7164e+02	-11.2601	-35.649927	0.000274	2.736465	0.927139	0.000110
1727	1.7174e+02	-11.2280	-35.597444	0.000132	1.317557	0.446400	0.000053
1728	1.7184e+02	-11.1879	-35.431922	0.000416	4.155373	1.407878	0.000166
1729	1.7194e+02	-11.1430	-35.343105	0.000223	2.229712	0.755447	0.000089
1730	1.7204e+02	-11.1093	-35.209879	0.000334	3.344568	1.133170	0.000134
1731	1.7213e+02	-11.0692	-35.125099	0.000213	2.128362	0.721108	0.000085
1732	1.7223e+02	-11.0307	-34.955540	0.000426	4.256723	1.442217	0.000170
1733	1.7233e+02	-10.9858	-34.919206	0.000091	0.912155	0.309046	0.000037
1734	1.7243e+02	-10.9473	-34.785980	0.000334	3.344568	1.133170	0.000134
1735	1.7253e+02	-10.9104	-34.705237	0.000203	2.027011	0.686770	0.000081
1736	1.7263e+02	-10.8767	-34.576049	0.000324	3.243218	1.098832	0.000130
1737	1.7273e+02	-10.8334	-34.450898	0.000314	3.141867	1.064493	0.000126
1738	1.7283e+02	-10.7981	-34.370155	0.000203	2.027011	0.686770	0.000081
1739	1.7293e+02	-10.7564	-34.309598	0.000152	1.520258	0.515077	0.000061
1740	1.7303e+02	-10.7034	-34.208670	0.000253	2.533764	0.858462	0.000101
1741	1.7313e+02	-10.6730	-34.188484	0.000051	0.506753	0.171692	0.000020
1742	1.7323e+02	-10.6313	-34.075444	0.000284	2.837815	0.961478	0.000114
1743	1.7333e+02	-10.5911	-33.998739	0.000193	1.925660	0.652431	0.000077
1744	1.7343e+02	-10.5494	-33.865513	0.000334	3.344568	1.133170	0.000134
1745	1.7353e+02	-10.5109	-33.792845	0.000182	1.824310	0.618093	0.000073
1746	1.7363e+02	-10.4708	-33.695953	0.000243	2.432413	0.824124	0.000097
1747	1.7373e+02	-10.4243	-33.558691	0.000345	3.445919	1.167509	0.000138
1748	1.7383e+02	-10.3954	-33.481985	0.000193	1.925660	0.652431	0.000077
1749	1.7393e+02	-10.3553	-33.368945	0.000284	2.837815	0.961478	0.000114
1750	1.7403e+02	-10.3104	-33.223609	0.000365	3.648620	1.236186	0.000146
1751	1.7413e+02	-10.2639	-33.130754	0.000233	2.331063	0.789785	0.000093
1752	1.7422e+02	-10.2286	-32.997529	0.000334	3.344568	1.133170	0.000134
1753	1.7432e+02	-10.1917	-32.945046	0.000132	1.317557	0.446400	0.000053
1754	1.7442e+02	-10.1628	-32.807784	0.000345	3.445919	1.167509	0.000138
1755	1.7452e+02	-10.1179	-32.735115	0.000182	1.824310	0.618093	0.000073
1756	1.7462e+02	-10.0762	-32.642261	0.000233	2.331063	0.789785	0.000093
1757	1.7472e+02	-10.0313	-32.537295	0.000264	2.635114	0.892801	0.000105
1758	1.7482e+02	-10.0024	-32.472701	0.000162	1.621609	0.549416	0.000065
1759	1.7492e+02	-9.9495	-32.375810	0.000243	2.432413	0.824124	0.000097
1760	1.7502e+02	-9.9158	-32.258733	0.000294	2.939166	0.995816	0.000118
1761	1.7512e+02	-9.8805	-32.177990	0.000203	2.027011	0.686770	0.000081
1762	1.7522e+02	-9.8259	-32.121470	0.000142	1.418908	0.480739	0.000057
1763	1.7532e+02	-9.8003	-32.032654	0.000223	2.229712	0.755447	0.000089
1764	1.7542e+02	-9.7521	-31.923651	0.000274	2.736465	0.927139	0.000110
1765	1.7552e+02	-9.7200	-31.818685	0.000264	2.635114	0.892801	0.000105
1766	1.7562e+02	-9.6719	-31.713720	0.000264	2.635114	0.892801	0.000105
1767	1.7572e+02	-9.6222	-31.616829	0.000243	2.432413	0.824124	0.000097
1768	1.7582e+02	-9.5885	-31.455343	0.000405	4.054022	1.373540	0.000162
1769	1.7592e+02	-9.5628	-31.366526	0.000223	2.229712	0.755447	0.000089
1770	1.7602e+02	-9.5179	-31.249449	0.000294	2.939166	0.995816	0.000118
1771	1.7612e+02	-9.4778	-31.148521	0.000253	2.533764	0.858462	0.000101
1772	1.7621e+02	-9.4409	-31.047592	0.000253	2.533764	0.858462	0.000101
1773	1.7631e+02	-9.3992	-30.982998	0.000162	1.621609	0.549416	0.000065
1774	1.7641e+02	-9.3623	-30.857847	0.000314	3.141867	1.064493	0.000126
1775	1.7651e+02	-9.3270	-30.756919	0.000253	2.533764	0.858462	0.000101
1776	1.7661e+02	-9.2741	-30.668102	0.000223	2.229712	0.755447	0.000089
1777	1.7671e+02	-9.2356	-30.615619	0.000132	1.317557	0.446400	0.000053
1778	1.7681e+02	-9.2051	-30.542950	0.000182	1.824310	0.618093	0.000073
1779	1.7691e+02	-9.1618	-30.405688	0.000345	3.445919	1.167509	0.000138
1780	1.7701e+02	-9.1136	-30.353205	0.000132	1.317557	0.446400	0.000053
1781	1.7711e+02	-9.0767	-30.228054	0.000314	3.141867	1.064493	0.000126
1782	1.7721e+02	-9.0447	-30.143274	0.000213	2.128362	0.721108	0.000085
1783	1.7731e+02	-8.9965	-30.034271	0.000274	2.736465	0.927139	0.000110
1784	1.7741e+02	-8.9484	-29.941417	0.000233	2.331063	0.789785	0.000093
1785	1.7751e+02	-8.9163	-29.832415	0.000274	2.736465	0.927139	0.000110
1786	1.7761e+02	-8.8746	-29.763783	0.000172	1.722959	0.583754	0.000069
1787	1.7771e+02	-8.8377	-29.626521	0.000345	3.445919	1.167509	0.000138
1788	1.7781e+02	-8.8040	-29.509444	0.000294	2.939166	0.995816	0.000118
1789	1.7791e+02	-8.7543	-29.416590	0.000233	2.331063	0.789785	0.000093
1790	1.7801e+02	-8.7238	-29.287401	0.000324	3.243218	1.098832	0.000130
1791	1.7810e+02	-8.6725	-29.190510	0.000243	2.432413	0.824124	0.000097
1792	1.7820e+02	-8.6372	-29.113804	0.000193	1.925660	0.652431	0.000077
1793	1.7830e+02	-8.5891	-29.012876	0.000253	2.533764	0.858462	0.000101
1794	1.7840e+02	-8.5634	-28.932133	0.000203	2.027011	0.686770	0.000081
1795	1.7850e+02	-8.5105	-28.839279	0.000233	2.331063	0.789785	0.000093
1796	1.7860e+02	-8.4752	-28.774685	0.000162	1.621609	0.549416	0.000065
1797	1.7870e+02	-8.4367	-28.673757	0.000253	2.533764	0.858462	0.000101
1798	1.7880e+02	-8.4014	-28.601088	0.000182	1.824310	0.618093	0.000073
1799	1.7890e+02	-8.3613	-28.508234	0.000233	2.331063	0.789785	0.000093
1800	1.7900e+02	-8.3179	-28.391157	0.000294	2.939166	0.995816	0.000118
1801	1.7910e+02	-8.2714	-28.306377	0.000213	2.128362	0.721108	0.000085
1802	1.7920e+02	-8.2442	-28.225635	0.000203	2.027011	0.686770	0.000081
1803	1.7930e+02	-8.2089	-28.088372	0.000345	3.445919	1.167509	0.000138
1804	1.7940e+02	-8.1559	-27.963221	0.000314	3.141867	1.064493	0.000126
1805	1.7950e+02	-8.1142	-27.878441	0.000213	2.128362	0.721108	0.000085
1806	1.7960e+02	-8.0950	-27.737141	0.000355	3.547269	1.201847	0.000142
1807	1.7970e+02	-8.0420	-27.652361	0.000213	2.128362	0.721108	0.000085
1808	1.7980e+02	-8.0051	-27.535284	0.000294	2.939166	0.995816	0.000118
1809	1.7990e+02	-7.9650	-27.454542	0.000203	2.027011	0.686770	0.000081
1810	1.8000e+02	-7.9201	-27.313242	0.000355	3.547269	1.201847	0.000142
1811	1.8009e+02	-7.8816	-27.252685	0.000152	1.520258	0.515077	0.000061
1812	1.8019e+02	-7.8415	-27.131571	0.000304	3.040516	1.030155	0.000122
1813	1.8029e+02	-7.8030	-27.014494	0.000294	2.939166	0.995816	0.000118
1814	1.8039e+02	-7.7613	-26.925677	0.000223	2.229712	0.755447	0.000089
1815	1.8049e+02	-7.7228	-26.828786	0.000243	2.432413	0.824124	0.000097
1816	1.8059e+02	-7.6779	-26.760154	0.000172	1.722959	0.583754	0.000069
1817	1.8069e+02	-7.6474	-26.643077	0.000294	2.939166	0.995816	0.000118
1818	1.8079e+02	-7.6041	-26.602706	0.000101	1.013505	0.343385	0.000041
1819	1.8089e+02	-7.5559	-26.449295	0.000385	3.851321	1.304863	0.000154
1820	1.8099e+02	-7.5239	-26.368552	0.000203	2.027011	0.686770	0.000081
1821	1.8109e+02	-7.4854	-26.247438	0.000304	3.040516	1.030155	0.000122
1822	1.8119e+02	-7.4372	-26.126324	0.000304	3.040516	1.030155	0.000122
1823	1.8129e+02	-7.4051	-26.025396	0.000253	2.533764	0.858462	0.000101
1824	1.8139e+02	-7.3650	-25.892170	0.000334	3.344568	1.133170	0.000134
1825	1.8149e+02	-7.3297	-25.767019	0.000314	3.141867	1.064493	0.000126
1826	1.8159e+02	-7.2816	-25.666090	0.000253	2.533764	0.858462	0.000101
1827	1.8169e+02	-7.2431	-25.512679	0.000385	3.851321	1.304863	0.000154
1828	1.8179e+02	-7.2014	-25.423862	0.000223	2.229712	0.755447	0.000089
1829	1.8189e+02	-7.1629	-25.326971	0.000243	2.432413	0.824124	0.000097
1830	1.8199e+02	-7.1228	-25.226043	0.000253	2.533764	0.858462	0.000101
1831	1.8209e+02	-7.0923	-25.129151	0.000243	2.432413	0.824124	0.000097
1832	1.8218e+02	-7.0426	-25.016112	0.000284	2.837815	0.961478	0.000114
1833	1.8228e+02	-6.9961	-24.931332	0.000213	2.128362	0.721108	0.000085
1834	1.8238e+02	-6.9656	-24.858663	0.000182	1.824310	0.618093	0.000073
1835	1.8248e+02	-6.9207	-24.781958	0.000193	1.925660	0.652431	0.000077
1836	1.8258e+02	-6.8806	-24.656807	0.000314	3.141867	1.064493	0.000126
1837	1.8268e+02	-6.8469	-24.547804	0.000274	2.736465	0.927139	0.000110
1838	1.8278e+02	-6.8068	-24.454950	0.000233	2.331063	0.789785	0.000093
1839	1.8288e+02	-6.7618	-24.317687	0.000345	3.445919	1.167509	0.000138
1840	1.8298e+02	-6.7282	-24.220796	0.000243	2.432413	0.824124	0.000097
1841	1.8308e+02	-6.6768	-24.123905	0.000243	2.432413	0.824124	0.000097
1842	1.8318e+02	-6.6463	-23.990679	0.000334	3.344568	1.133170	0.000134
1843	1.8328e+02	-6.6062	-23.809008	0.000456	4.560775	1.545232	0.000183
1844	1.8338e+02	-6.5758	-23.740377	0.000172	1.722959	0.583754	0.000069
1845	1.8348e+02	-6.5356	-23.615225	0.000314	3.141867	1.064493	0.000126
1846	1.8358e+02	-6.4859	-23.494111	0.000304	3.040516	1.030155	0.000122
1847	1.8368e+02	-6.4458	-23.409332	0.000213	2.128362	0.721108	0.000085
1848	1.8378e+02	-6.4137	-23.352812	0.000142	1.418908	0.480739	0.000057
1849	1.8388e+02	-6.3752	-23.154992	0.000497	4.966177	1.682586	0.000199
1850	1.8398e+02	-6.3399	-23.102509	0.000132	1.317557	0.446400	0.000053
1851	1.8407e+02	-6.2902	-22.961210	0.000355	3.547269	1.201847	0.000142
1852	1.8417e+02	-6.2437	-22.965247	-0.000010	-0.101351	-0.034338	-0.000004
1853	1.8427e+02	-6.2100	-22.811835	0.000385	3.851321	1.304863	0.000154
1854	1.8437e+02	-6.1699	-22.714944	0.000243	2.432413	0.824124	0.000097
1855	1.8447e+02	-6.1185	-22.589793	0.000314	3.141867	1.064493	0.000126
1856	1.8457e+02	-6.0913	-22.505013	0.000213	2.128362	0.721108	0.000085
1857	1.8467e+02	-6.0592	-22.391973	0.000284	2.837815	0.961478	0.000114
1858	1.8477e+02	-6.0127	-22.266822	0.000314	3.141867	1.064493	0.000126
1859	1.8487e+02	-5.9726	-22.169931	0.000243	2.432413	0.824124	0.000097
1860	1.8497e+02	-5.9325	-22.040743	0.000324	3.243218	1.098832	0.000130
1861	1.8507e+02	-5.8907	-21.935777	0.000264	2.635114	0.892801	0.000105
1862	1.8517e+02	-5.8554	-21.782366	0.000385	3.851321	1.304863	0.000154
1863	1.8527e+02	-5.8073	-21.637029	0.000365	3.648620	1.236186	0.000146
1864	1.8537e+02	-5.7704	-21.528026	0.000274	2.736465	0.927139	0.000110
1865	1.8547e+02	-5.7255	-21.431135	0.000243	2.432413	0.824124	0.000097
1866	1.8557e+02	-5.6966	-21.297910	0.000334	3.344568	1.133170	0.000134
1867	1.8567e+02	-5.6533	-21.209093	0.000223	2.229712	0.755447	0.000089
1868	1.8577e+02	-5.6052	-21.152573	0.000142	1.418908	0.480739	0.000057
1869	1.8587e+02	-5.5731	-21.015310	0.000345	3.445919	1.167509	0.000138
1870	1.8597e+02	-5.5266	-20.918419	0.000243	2.432413	0.824124	0.000097
1871	1.8606e+02	-5.4961	-20.809416	0.000274	2.736465	0.927139	0.000110
1872	1.8616e+02	-5.4464	-20.712525	0.000243	2.432413	0.824124	0.000097
1873	1.8626e+02	-5.4143	-20.575262	0.000345	3.445919	1.167509	0.000138
1874	1.8636e+02	-5.3726	-20.478371	0.000243	2.432413	0.824124	0.000097
1875	1.8646e+02	-5.3261	-20.361294	0.000294	2.939166	0.995816	0.000118
1876	1.8656e+02	-5.2876	-20.244217	0.000294	2.939166	0.995816	0.000118
1877	1.8666e+02	-5.2555	-20.131177	0.000284	2.837815	0.961478	0.000114
1878	1.8676e+02	-5.2234	-20.014100	0.000294	2.939166	0.995816	0.000118
1879	1.8686e+02	-5.1704	-19.929321	0.000213	2.128362	0.721108	0.000085
1880	1.8696e+02	-5.1384	-19.751687	0.000446	4.459424	1.510894	0.000179
1881	1.8706e+02	-5.0966	-19.642684	0.000274	2.736465	0.927139	0.000110
1882	1.8716e+02	-5.0549	-19.521570	0.000304	3.040516	1.030155	0.000122
1883	1.8726e+02	-5.0180	-19.384307	0.000345	3.445919	1.167509	0.000138
1884	1.8736e+02	-4.9731	-19.283379	0.000253	2.533764	0.858462	0.000101
1885	1.8746e+02	-4.9314	-19.129968	0.000385	3.851321	1.304863	0.000154
1886	1.8756e+02	-4.8993	-19.073448	0.000142	1.418908	0.480739	0.000057
1887	1.8766e+02	-4.8544	-18.928111	0.000365	3.648620	1.236186	0.000146
1888	1.8776e+02	-4.8175	-18.831220	0.000243	2.432413	0.824124	0.000097
1889	1.8786e+02	-4.7822	-18.770663	0.000152	1.520258	0.515077	0.000061
1890	1.8796e+02	-4.7341	-18.637437	0.000334	3.344568	1.133170	0.000134
1891	1.8806e+02	-4.6972	-18.572843	0.000162	1.621609	0.549416	0.000065
1892	1.8815e+02	-4.6571	-18.439617	0.000334	3.344568	1.133170	0.000134
1893	1.8825e+02	-4.6170	-18.298318	0.000355	3.547269	1.201847	0.000142
1894	1.8835e+02	-4.5801	-18.221612	0.000193	1.925660	0.652431	0.000077
1895	1.8845e+02	-4.5432	-18.152981	0.000172	1.722959	0.583754	0.000069
1896	1.8855e+02	-4.4919	-18.011681	0.000355	3.547269	1.201847	0.000142
1897	1.8865e+02	-4.4678	-17.862307	0.000375	3.749970	1.270524	0.000150
1898	1.8875e+02	-4.4229	-17.749267	0.000284	2.837815	0.961478	0.000114
1899	1.8885e+02	-4.3844	-17.632190	0.000294	2.939166	0.995816	0.000118
1900	1.8895e+02	-4.3411	-17.482816	0.000375	3.749970	1.270524	0.000150
1901	1.8905e+02	-4.3042	-17.365739	0.000294	2.939166	0.995816	0.000118
1902	1.8915e+02	-4.2657	-17.268848	0.000243	2.432413	0.824124	0.000097
1903	1.8925e+02	-4.2207	-17.131586	0.000345	3.445919	1.167509	0.000138
1904	1.8935e+02	-4.1806	-17.034694	0.000243	2.432413	0.824124	0.000097
1905	1.8945e+02	-4.1405	-16.929729	0.000264	2.635114	0.892801	0.000105
1906	1.8955e+02	-4.0988	-16.836875	0.000233	2.331063	0.789785	0.000093
1907	1.8965e+02	-4.0555	-16.772280	0.000162	1.621609	0.549416	0.000065
1908	1.8975e+02	-4.0250	-16.651166	0.000304	3.040516	1.030155	0.000122
1909	1.8985e+02	-3.9785	-16.566387	0.000213	2.128362	0.721108	0.000085
1910	1.8995e+02	-3.9432	-16.404901	0.000405	4.054022	1.373540	0.000162
1911	1.9004e+02	-3.8935	-16.364530	0.000101	1.013505	0.343385	0.000041
1912	1.9014e+02	-3.8534	-16.223230	0.000355	3.547269	1.201847	0.000142
1913	1.9024e+02	-3.8229	-16.134413	0.000223	2.229712	0.755447	0.000089
1914	1.9034e+02	-3.7796	-15.972928	0.000405	4.054022	1.373540	0.000162
1915	1.9044e+02	-3.7491	-15.908333	0.000162	1.621609	0.549416	0.000065
1916	1.9054e+02	-3.6929	-15.734737	0.000436	4.358074	1.476555	0.000174
1917	1.9064e+02	-3.6721	-15.658031	0.000193	1.925660	0.652431	0.000077
1918	1.9074e+02	-3.6159	-15.476360	0.000456	4.560775	1.545232	0.000183
1919	1.9084e+02	-3.5823	-15.371394	0.000264	2.635114	0.892801	0.000105
1920	1.9094e+02	-3.5421	-15.258355	0.000284	2.837815	0.961478	0.000114
1921	1.9104e+02	-3.5020	-15.161463	0.000243	2.432413	0.824124	0.000097
1922	1.9114e+02	-3.4667	-15.084758	0.000193	1.925660	0.652431	0.000077
1923	1.9124e+02	-3.4315	-14.939421	0.000365	3.648620	1.236186	0.000146
1924	1.9134e+02	-3.3769	-14.850604	0.000223	2.229712	0.755447	0.000089
1925	1.9144e+02	-3.3480	-14.769861	0.000203	2.027011	0.686770	0.000081
1926	1.9154e+02	-3.2999	-14.644710	0.000314	3.141867	1.064493	0.000126
1927	1.9164e+02	-3.2534	-14.543781	0.000253	2.533764	0.858462	0.000101
1928	1.9174e+02	-3.2229	-14.438816	0.000264	2.635114	0.892801	0.000105
1929	1.9184e+02	-3.1876	-14.345962	0.000233	2.331063	0.789785	0.000093
1930	1.9194e+02	-3.1459	-14.236959	0.000274	2.736465	0.927139	0.000110
1931	1.9203e+02	-3.1026	-14.123919	0.000284	2.837815	0.961478	0.000114
1932	1.9213e+02	-3.0673	-13.994731	0.000324	3.243218	1.098832	0.000130
1933	1.9223e+02	-3.0192	-13.918025	0.000193	1.925660	0.652431	0.000077
1934	1.9233e+02	-2.9887	-13.788837	0.000324	3.243218	1.098832	0.000130
1935	1.9243e+02	-2.9454	-13.671760	0.000294	2.939166	0.995816	0.000118
1936	1.9253e+02	-2.8972	-13.526423	0.000365	3.648620	1.236186	0.000146
1937	1.9263e+02	-2.8571	-13.409346	0.000294	2.939166	0.995816	0.000118
1938	1.9273e+02	-2.8186	-13.272084	0.000345	3.445919	1.167509	0.000138
1939	1.9283e+02	-2.7849	-13.138858	0.000334	3.344568	1.133170	0.000134
1940	1.9293e+02	-2.7561	-13.074264	0.000162	1.621609	0.549416	0.000065
1941	1.9303e+02	-2.7015	-12.957187	0.000294	2.939166	0.995816	0.000118
1942	1.9313e+02	-2.6678	-12.872407	0.000213	2.128362	0.721108	0.000085
1943	1.9323e+02	-2.6261	-12.783590	0.000223	2.229712	0.755447	0.000089
1944	1.9333e+02	-2.5796	-12.658439	0.000314	3.141867	1.064493	0.000126
1945	1.9343e+02	-2.5459	-12.553474	0.000264	2.635114	0.892801	0.000105
1946	1.9353e+02	-2.5106	-12.440434	0.000284	2.837815	0.961478	0.000114
1947	1.9363e+02	-2.4641	-12.323357	0.000294	2.939166	0.995816	0.000118
1948	1.9373e+02	-2.4224	-12.214354	0.000274	2.736465	0.927139	0.000110
1949	1.9383e+02	-2.3839	-12.141686	0.000182	1.824310	0.618093	0.000073
1950	1.9393e+02	-2.3470	-12.008460	0.000334	3.344568	1.133170	0.000134
1951	1.9403e+02	-2.3133	-11.923680	0.000213	2.128362	0.721108	0.000085
1952	1.9412e+02	-2.2604	-11.822752	0.000253	2.533764	0.858462	0.000101
1953	1.9422e+02	-2.2219	-11.665304	0.000395	3.952671	1.339201	0.000158
1954	1.9432e+02	-2.1834	-11.548227	0.000294	2.939166	0.995816	0.000118
1955	1.9442e+02	-2.1577	-11.427113	0.000304	3.040516	1.030155	0.000122
1956	1.9452e+02	-2.1112	-11.318110	0.000274	2.736465	0.927139	0.000110
1957	1.9462e+02	-2.0630	-11.192959	0.000314	3.141867	1.064493	0.000126
1958	1.9472e+02	-2.0326	-11.083956	0.000274	2.736465	0.927139	0.000110
1959	1.9482e+02	-1.9892	-10.958805	0.000314	3.141867	1.064493	0.000126
1960	1.9492e+02	-1.9491	-10.837691	0.000304	3.040516	1.030155	0.000122
1961	1.9502e+02	-1.8978	-10.781171	0.000142	1.418908	0.480739	0.000057
1962	1.9512e+02	-1.8609	-10.712540	0.000172	1.722959	0.583754	0.000069
1963	1.9522e+02	-1.8256	-10.587388	0.000314	3.141867	1.064493	0.000126
1964	1.9532e+02	-1.7855	-10.522794	0.000162	1.621609	0.549416	0.000065
1965	1.9542e+02	-1.7534	-10.373420	0.000375	3.749970	1.270524	0.000150
1966	1.9552e+02	-1.7005	-10.276529	0.000243	2.432413	0.824124	0.000097
1967	1.9562e+02	-1.6620	-10.175601	0.000253	2.533764	0.858462	0.000101
1968	1.9572e+02	-1.6331	-10.070635	0.000264	2.635114	0.892801	0.000105
1969	1.9582e+02	-1.5930	-9.933372	0.000345	3.445919	1.167509	0.000138
1970	1.9592e+02	-1.5529	-9.828407	0.000264	2.635114	0.892801	0.000105
1971	1.9601e+02	-1.5080	-9.711330	0.000294	2.939166	0.995816	0.000118
1972	1.9611e+02	-1.4743	-9.606364	0.000264	2.635114	0.892801	0.000105
1973	1.9621e+02	-1.4390	-9.420656	0.000466	4.662125	1.579571	0.000187
1974	1.9631e+02	-1.3989	-9.331839	0.000223	2.229712	0.755447	0.000089
1975	1.9641e+02	-1.3572	-9.222837	0.000274	2.736465	0.927139	0.000110
1976	1.9651e+02	-1.2994	-9.121908	0.000253	2.533764	0.858462	0.000101
1977	1.9661e+02	-1.2706	-8.968497	0.000385	3.851321	1.304863	0.000154
1978	1.9671e+02	-1.2272	-8.883717	0.000213	2.128362	0.721108	0.000085
1979	1.9681e+02	-1.1855	-8.738380	0.000365	3.648620	1.236186	0.000146
1980	1.9691e+02	-1.1470	-8.685898	0.000132	1.317557	0.446400	0.000053
1981	1.9701e+02	-1.1198	-8.605155	0.000203	2.027011	0.686770	0.000081
1982	1.9711e+02	-1.0716	-8.439632	0.000416	4.155373	1.407878	0.000166
1983	1.9721e+02	-1.0315	-8.362927	0.000193	1.925660	0.652431	0.000077
1984	1.9731e+02	-0.9946	-8.229701	0.000334	3.344568	1.133170	0.000134
1985	1.9741e+02	-0.9529	-8.124736	0.000264	2.635114	0.892801	0.000105
1986	1.9751e+02	-0.9032	-7.995547	0.000324	3.243218	1.098832	0.000130
1987	1.9761e+02	-0.8615	-7.910767	0.000213	2.128362	0.721108	0.000085
1988	1.9771e+02	-0.8294	-7.761393	0.000375	3.749970	1.270524	0.000150
1989	1.9781e+02	-0.7845	-7.656428	0.000264	2.635114	0.892801	0.000105
1990	1.9791e+02	-0.7444	-7.494942	0.000405	4.054022	1.373540	0.000162
1991	1.9800e+02	-0.7123	-7.357680	0.000345	3.445919	1.167509	0.000138
1992	1.9810e+02	-0.6754	-7.285011	0.000182	1.824310	0.618093	0.000073
1993	1.9820e+02	-0.6401	-7.155823	0.000324	3.243218	1.098832	0.000130
1994	1.9830e+02	-0.5888	-7.018560	0.000345	3.445919	1.167509	0.000138
1995	1.9840e+02	-0.5486	-6.893409	0.000314	3.141867	1.064493	0.000126
1996	1.9850e+02	-0.5214	-6.776332	0.000294	2.939166	0.995816	0.000118
1997	1.9860e+02	-0.4668	-6.707701	0.000172	1.722959	0.583754	0.000069
1998	1.9870e+02	-0.4267	-6.610810	0.000243	2.432413	0.824124	0.000097
1999	1.9880e+02	-0.3978	-6.481621	0.000324	3.243218	1.098832	0.000130
2000	1.9890e+02	-0.3417	-6.384730	0.000243	2.432413	0.824124	0.000097
2001	1.9900e+02	-0.3192	-6.215170	0.000426	4.256723	1.442217	0.000170
2002	1.9910e+02	-0.2775	-6.154613	0.000152	1.520258	0.515077	0.000061
2003	1.9920e+02	-0.2310	-6.021388	0.000334	3.344568	1.133170	0.000134
2004	1.9930e+02	-0.1925	-5.888162	0.000334	3.344568	1.133170	0.000134
2005	1.9940e+02	-0.1556	-5.767048	0.000304	3.040516	1.030155	0.000122
2006	1.9950e+02	-0.1187	-5.682269	0.000213	2.128362	0.721108	0.000085
2007	1.9960e+02	-0.0802	-5.496560	0.000466	4.662125	1.579571	0.000187
2008	1.9970e+02	-0.0369	-5.444078	0.000132	1.317557	0.446400	0.000053
2009	1.9980e+02	0.0128	-5.238184	0.000132	1.317557	0.446400	0.000207

PMax (uC/cm2):	5.82e+01
Pr (uC/cm2):	1.58e+00
-Pr (uC/cm2):	-1.57e+00
PLoss (uC/cm2):	-1.54e+00
-Vc:	-5.64e-01
C (Max-Eff) (nF):	2.91e-01
K (Eff):	9.87e+02
Vert. (+/-Pr) Shift (uC/cm2):	2.52e-03
Offset (uC/cm2):	3.67e+00

A (Loop Area - uC/cm2·Volts):	2.79e-02



Hysteresis Version: 5.48.1 - Radiant Technologies, Inc., 1999 - 9/12/24

