»»»»»»»»»»»»»»»»»»»»»»»»»»»»»»»»»»»» Hysteresis ««««««««««««««««««««««««««««««««««««
»»»  Executed Version:	5.48.1
»»»  Vision Version:	5.48.4 (R)
»»»  Vision Compiled:	9/18/24
»»»  Driver Version:	5.47.0
»»»  Windows Version:	Windows 8 or 8.1
»»»  Processor Information:	x86 (AMD or Intel) - 32 Processors
»»»  Tester Name:	PMF21124-494 (100V)
»»»  Tester S/N:	PMF21124-494
»»»  Internal Amp Type:	100V RevK 270k
»»»  Internal Amp S/N:	iAB2-596/K     
»»»  Execution Count:	1
»»»»»»»»»»»»»»»»»»»»»»»»»»»»»»»»»»»»»»»»»»««««««««««««««««««««««««««««««««««««««««««

Stored:	6/19/2025 - 17:5:29
Configured:	06/19/25 10:04:32 AM
Executed:	06/19/25 05:05:05 PM

»»»»»»»»»»»»»»»»»»»»»»»»»»»»»»»»»»» Sample Info ««««««««««««««««««««««««««««««««««««
Sample Name:	
Lot Name:	
Wafer Name:	
Die Row/Column:	0/0
Capacitor Number:	0
Sample Area (cm2):	1.00e-04
Sample Thickness (microns):	3.00e-01

Amplifier:	Internal

»»»»»»»»»»»»»»»»»»»»»»»»»»»»»»»»»»» Tester Info «««««««««««««««««««««««««««««««««««
Tester Name:	PMF21124-494 (100V)
Tester Serial Number:	PMF21124-494
Return Signal Amp. Level:	0.19 [Index: 3]

»»»»»»»»»»»»»»»»»»»»»»»»»»»»»»»» Hysteresis Info ««««««««««««««««««««««««««««««««««
Task Name:	Hyst-1168
Volts:	20.00
Field:	666.67 (kV/cm)
DCBias:	0.00
DCField:	0.00 (kV/cm)
Hysteresis Period (ms):	2.00e+02
Preset:	Enabled
Preset Delay (ms):	1.00e+03
Profile:	Standard Bipolar

»»»»»»»»»»»»»»»»»»»»»»»»»»»»»»»»»»»»»» Data «««««««««««««««««««««««««««««««««««««««
Points:	2009

Valid Data

Point	Time (ms)	Drive Voltage	Measured Polarization (uC/cm2)	Capacitance (uF)	Normalized Capacitance (uF/cm2)	Dielectric Constant	Instantaneous Current (mA)
   1	0.0000e+00	0.0080	-3.780778	0.000152	1.520197	0.515057	0.000061
   2	9.9500e-02	0.0417	-3.720221	0.000152	1.520197	0.515057	0.000061
   3	1.9900e-01	0.0770	-3.603144	0.000294	2.939048	0.995776	0.000118
   4	2.9850e-01	0.1235	-3.502215	0.000253	2.533662	0.858428	0.000101
   5	3.9800e-01	0.1684	-3.368990	0.000334	3.344434	1.133125	0.000134
   6	4.9750e-01	0.1941	-3.255950	0.000284	2.837702	0.961439	0.000114
   7	5.9700e-01	0.2406	-3.142910	0.000284	2.837702	0.961439	0.000114
   8	6.9650e-01	0.2711	-2.997573	0.000365	3.648473	1.236136	0.000146
   9	7.9600e-01	0.3192	-2.896645	0.000253	2.533662	0.858428	0.000101
  10	8.9550e-01	0.3610	-2.787642	0.000274	2.736355	0.927102	0.000110
  11	9.9500e-01	0.3930	-2.646342	0.000355	3.547127	1.201799	0.000142
  12	1.0945e+00	0.4492	-2.521191	0.000314	3.141741	1.064451	0.000126
  13	1.1940e+00	0.4797	-2.460634	0.000152	1.520197	0.515057	0.000061
  14	1.2935e+00	0.5150	-2.299149	0.000405	4.053859	1.373485	0.000162
  15	1.3930e+00	0.5519	-2.210332	0.000223	2.229623	0.755417	0.000089
  16	1.4925e+00	0.5952	-2.024624	0.000466	4.661938	1.579507	0.000187
  17	1.5920e+00	0.6337	-1.951955	0.000182	1.824237	0.618068	0.000073
  18	1.6915e+00	0.6722	-1.846990	0.000264	2.635009	0.892765	0.000105
  19	1.7910e+00	0.7139	-1.689541	0.000395	3.952513	1.339148	0.000158
  20	1.8905e+00	0.7540	-1.592650	0.000243	2.432316	0.824091	0.000097
  21	1.9900e+00	0.7877	-1.443276	0.000375	3.749820	1.270473	0.000150
  22	2.0895e+00	0.8438	-1.342348	0.000253	2.533662	0.858428	0.000101
  23	2.1890e+00	0.8775	-1.245456	0.000243	2.432316	0.824091	0.000097
  24	2.2885e+00	0.9224	-1.100119	0.000365	3.648473	1.236136	0.000146
  25	2.3880e+00	0.9513	-1.003228	0.000243	2.432316	0.824091	0.000097
  26	2.4875e+00	0.9898	-0.857891	0.000365	3.648473	1.236136	0.000146
  27	2.5870e+00	1.0331	-0.740814	0.000294	2.939048	0.995776	0.000118
  28	2.6865e+00	1.0732	-0.643923	0.000243	2.432316	0.824091	0.000097
  29	2.7860e+00	1.1165	-0.486475	0.000395	3.952513	1.339148	0.000158
  30	2.8855e+00	1.1567	-0.393621	0.000233	2.330969	0.789754	0.000093
  31	2.9850e+00	1.1935	-0.276544	0.000294	2.939048	0.995776	0.000118
  32	3.0845e+00	1.2353	-0.155430	0.000304	3.040395	1.030114	0.000122
  33	3.1840e+00	1.2738	-0.014130	0.000355	3.547127	1.201799	0.000142
  34	3.2835e+00	1.3139	0.070650	0.000213	2.128276	0.721079	0.000085
  35	3.3830e+00	1.3476	0.195801	0.000314	3.141741	1.064451	0.000126
  36	3.4825e+00	1.3957	0.345175	0.000375	3.749820	1.270473	0.000150
  37	3.5820e+00	1.4390	0.466289	0.000304	3.040395	1.030114	0.000122
  38	3.6815e+00	1.4775	0.595478	0.000324	3.243087	1.098788	0.000130
  39	3.7810e+00	1.5208	0.692369	0.000243	2.432316	0.824091	0.000097
  40	3.8805e+00	1.5529	0.825594	0.000334	3.344434	1.133125	0.000134
  41	3.9800e+00	1.5850	0.930560	0.000264	2.635009	0.892765	0.000105
  42	4.0795e+00	1.6331	1.035525	0.000264	2.635009	0.892765	0.000105
  43	4.1790e+00	1.6764	1.172788	0.000345	3.445780	1.167462	0.000138
  44	4.2785e+00	1.7053	1.318125	0.000365	3.648473	1.236136	0.000146
  45	4.3780e+00	1.7566	1.423090	0.000264	2.635009	0.892765	0.000105
  46	4.4775e+00	1.7903	1.552279	0.000324	3.243087	1.098788	0.000130
  47	4.5770e+00	1.8272	1.653207	0.000253	2.533662	0.858428	0.000101
  48	4.6765e+00	1.8593	1.786433	0.000334	3.344434	1.133125	0.000134
  49	4.7760e+00	1.9138	1.911584	0.000314	3.141741	1.064451	0.000126
  50	4.8755e+00	1.9459	2.020586	0.000274	2.736355	0.927102	0.000110
  51	4.9750e+00	1.9941	2.186109	0.000416	4.155206	1.407822	0.000166
  52	5.0745e+00	2.0261	2.307223	0.000304	3.040395	1.030114	0.000122
  53	5.1740e+00	2.0695	2.396040	0.000223	2.229623	0.755417	0.000089
  54	5.2735e+00	2.1128	2.573674	0.000446	4.459245	1.510833	0.000179
  55	5.3730e+00	2.1449	2.694788	0.000304	3.040395	1.030114	0.000122
  56	5.4725e+00	2.1882	2.783605	0.000223	2.229623	0.755417	0.000089
  57	5.5720e+00	2.2267	2.924905	0.000355	3.547127	1.201799	0.000142
  58	5.6715e+00	2.2732	3.058130	0.000334	3.344434	1.133125	0.000134
  59	5.7710e+00	2.3069	3.150984	0.000233	2.330969	0.789754	0.000093
  60	5.8705e+00	2.3534	3.276136	0.000314	3.141741	1.064451	0.000126
  61	5.9700e+00	2.3951	3.421473	0.000365	3.648473	1.236136	0.000146
  62	6.0695e+00	2.4304	3.591032	0.000426	4.256552	1.442159	0.000170
  63	6.1690e+00	2.4657	3.651589	0.000152	1.520197	0.515057	0.000061
  64	6.2685e+00	2.5186	3.784815	0.000334	3.344434	1.133125	0.000134
  65	6.3680e+00	2.5491	3.885743	0.000253	2.533662	0.858428	0.000101
  66	6.4675e+00	2.5860	4.051266	0.000416	4.155206	1.407822	0.000166
  67	6.5670e+00	2.6213	4.132008	0.000203	2.026930	0.686742	0.000081
  68	6.6665e+00	2.6662	4.297531	0.000416	4.155206	1.407822	0.000166
  69	6.7660e+00	2.6999	4.422682	0.000314	3.141741	1.064451	0.000126
  70	6.8655e+00	2.7529	4.559945	0.000345	3.445780	1.167462	0.000138
  71	6.9650e+00	2.7882	4.620502	0.000152	1.520197	0.515057	0.000061
  72	7.0645e+00	2.8218	4.753727	0.000334	3.344434	1.133125	0.000134
  73	7.1640e+00	2.8668	4.907138	0.000385	3.851166	1.304810	0.000154
  74	7.2635e+00	2.9101	5.008067	0.000253	2.533662	0.858428	0.000101
  75	7.3630e+00	2.9390	5.157441	0.000375	3.749820	1.270473	0.000150
  76	7.4625e+00	2.9887	5.266444	0.000274	2.736355	0.927102	0.000110
  77	7.5620e+00	3.0240	5.363335	0.000243	2.432316	0.824091	0.000097
  78	7.6615e+00	3.0689	5.524820	0.000405	4.053859	1.373485	0.000162
  79	7.7610e+00	3.1170	5.662083	0.000345	3.445780	1.167462	0.000138
  80	7.8605e+00	3.1427	5.799345	0.000345	3.445780	1.167462	0.000138
  81	7.9600e+00	3.1796	5.916422	0.000294	2.939048	0.995776	0.000118
  82	8.0595e+00	3.2229	6.025425	0.000274	2.736355	0.927102	0.000110
  83	8.1590e+00	3.2662	6.130391	0.000264	2.635009	0.892765	0.000105
  84	8.2585e+00	3.3111	6.259579	0.000324	3.243087	1.098788	0.000130
  85	8.3580e+00	3.3448	6.400879	0.000355	3.547127	1.201799	0.000142
  86	8.4575e+00	3.3913	6.509881	0.000274	2.736355	0.927102	0.000110
  87	8.5570e+00	3.4202	6.647144	0.000345	3.445780	1.167462	0.000138
  88	8.6565e+00	3.4571	6.739998	0.000233	2.330969	0.789754	0.000093
  89	8.7560e+00	3.4972	6.901484	0.000405	4.053859	1.373485	0.000162
  90	8.8555e+00	3.5438	7.030672	0.000324	3.243087	1.098788	0.000130
  91	8.9550e+00	3.5871	7.131600	0.000253	2.533662	0.858428	0.000101
  92	9.0545e+00	3.6288	7.264826	0.000334	3.344434	1.133125	0.000134
  93	9.1540e+00	3.6657	7.394014	0.000324	3.243087	1.098788	0.000130
  94	9.2535e+00	3.6945	7.547425	0.000385	3.851166	1.304810	0.000154
  95	9.3530e+00	3.7539	7.668539	0.000304	3.040395	1.030114	0.000122
  96	9.4525e+00	3.7780	7.741208	0.000182	1.824237	0.618068	0.000073
  97	9.5520e+00	3.8261	7.894619	0.000385	3.851166	1.304810	0.000154
  98	9.6515e+00	3.8598	8.019770	0.000314	3.141741	1.064451	0.000126
  99	9.7510e+00	3.9111	8.173181	0.000385	3.851166	1.304810	0.000154
 100	9.8505e+00	3.9496	8.249887	0.000193	1.925583	0.652405	0.000077
 101	9.9500e+00	3.9785	8.391187	0.000355	3.547127	1.201799	0.000142
 102	1.0050e+01	4.0218	8.528449	0.000345	3.445780	1.167462	0.000138
 103	1.0149e+01	4.0635	8.661675	0.000334	3.344434	1.133125	0.000134
 104	1.0248e+01	4.1052	8.770677	0.000274	2.736355	0.927102	0.000110
 105	1.0348e+01	4.1405	8.907940	0.000345	3.445780	1.167462	0.000138
 106	1.0447e+01	4.1838	8.996757	0.000223	2.229623	0.755417	0.000089
 107	1.0547e+01	4.2191	9.146131	0.000375	3.749820	1.270473	0.000150
 108	1.0646e+01	4.2689	9.271282	0.000314	3.141741	1.064451	0.000126
 109	1.0746e+01	4.2929	9.400471	0.000324	3.243087	1.098788	0.000130
 110	1.0845e+01	4.3443	9.513510	0.000284	2.837702	0.961439	0.000114
 111	1.0945e+01	4.3892	9.658847	0.000365	3.648473	1.236136	0.000146
 112	1.1044e+01	4.4309	9.755739	0.000243	2.432316	0.824091	0.000097
 113	1.1144e+01	4.4662	9.868778	0.000284	2.837702	0.961439	0.000114
 114	1.1243e+01	4.5047	10.026227	0.000395	3.952513	1.339148	0.000158
 115	1.1343e+01	4.5416	10.151378	0.000314	3.141741	1.064451	0.000126
 116	1.1443e+01	4.5865	10.260380	0.000274	2.736355	0.927102	0.000110
 117	1.1542e+01	4.6170	10.421866	0.000405	4.053859	1.373485	0.000162
 118	1.1642e+01	4.6571	10.538943	0.000294	2.939048	0.995776	0.000118
 119	1.1741e+01	4.7068	10.656020	0.000294	2.939048	0.995776	0.000118
 120	1.1841e+01	4.7469	10.777134	0.000304	3.040395	1.030114	0.000122
 121	1.1940e+01	4.7726	10.894211	0.000294	2.939048	0.995776	0.000118
 122	1.2040e+01	4.8143	11.059733	0.000416	4.155206	1.407822	0.000166
 123	1.2139e+01	4.8592	11.152587	0.000233	2.330969	0.789754	0.000093
 124	1.2239e+01	4.9009	11.326184	0.000436	4.357899	1.476496	0.000174
 125	1.2338e+01	4.9378	11.382704	0.000142	1.418851	0.480720	0.000057
 126	1.2438e+01	4.9795	11.532078	0.000375	3.749820	1.270473	0.000150
 127	1.2537e+01	5.0212	11.681452	0.000375	3.749820	1.270473	0.000150
 128	1.2636e+01	5.0662	11.786418	0.000264	2.635009	0.892765	0.000105
 129	1.2736e+01	5.1127	11.903495	0.000294	2.939048	0.995776	0.000118
 130	1.2835e+01	5.1335	12.032683	0.000324	3.243087	1.098788	0.000130
 131	1.2935e+01	5.1785	12.173983	0.000355	3.547127	1.201799	0.000142
 132	1.3034e+01	5.2202	12.287023	0.000284	2.837702	0.961439	0.000114
 133	1.3134e+01	5.2587	12.404100	0.000294	2.939048	0.995776	0.000118
 134	1.3233e+01	5.2940	12.561548	0.000395	3.952513	1.339148	0.000158
 135	1.3333e+01	5.3389	12.638253	0.000193	1.925583	0.652405	0.000077
 136	1.3432e+01	5.3758	12.787627	0.000375	3.749820	1.270473	0.000150
 137	1.3532e+01	5.4079	12.900667	0.000284	2.837702	0.961439	0.000114
 138	1.3632e+01	5.4544	13.062153	0.000405	4.053859	1.373485	0.000162
 139	1.3731e+01	5.5057	13.146933	0.000213	2.128276	0.721079	0.000085
 140	1.3831e+01	5.5314	13.264009	0.000294	2.939048	0.995776	0.000118
 141	1.3930e+01	5.5795	13.409346	0.000365	3.648473	1.236136	0.000146
 142	1.4030e+01	5.6148	13.506238	0.000243	2.432316	0.824091	0.000097
 143	1.4129e+01	5.6581	13.655612	0.000375	3.749820	1.270473	0.000150
 144	1.4229e+01	5.7030	13.804986	0.000375	3.749820	1.270473	0.000150
 145	1.4328e+01	5.7383	13.873617	0.000172	1.722890	0.583731	0.000069
 146	1.4428e+01	5.7849	14.039140	0.000416	4.155206	1.407822	0.000166
 147	1.4527e+01	5.8105	14.148142	0.000274	2.736355	0.927102	0.000110
 148	1.4627e+01	5.8587	14.273293	0.000314	3.141741	1.064451	0.000126
 149	1.4726e+01	5.9020	14.434779	0.000405	4.053859	1.373485	0.000162
 150	1.4825e+01	5.9421	14.543781	0.000274	2.736355	0.927102	0.000110
 151	1.4925e+01	5.9742	14.624524	0.000203	2.026930	0.686742	0.000081
 152	1.5024e+01	6.0239	14.765824	0.000355	3.547127	1.201799	0.000142
 153	1.5124e+01	6.0592	14.919235	0.000385	3.851166	1.304810	0.000154
 154	1.5223e+01	6.0945	15.056498	0.000345	3.445780	1.167462	0.000138
 155	1.5323e+01	6.1410	15.137240	0.000203	2.026930	0.686742	0.000081
 156	1.5422e+01	6.1763	15.294689	0.000395	3.952513	1.339148	0.000158
 157	1.5522e+01	6.2196	15.415803	0.000304	3.040395	1.030114	0.000122
 158	1.5621e+01	6.2581	15.557103	0.000355	3.547127	1.201799	0.000142
 159	1.5721e+01	6.2998	15.645920	0.000223	2.229623	0.755417	0.000089
 160	1.5820e+01	6.3415	15.734737	0.000223	2.229623	0.755417	0.000089
 161	1.5920e+01	6.3704	15.880073	0.000365	3.648473	1.236136	0.000146
 162	1.6020e+01	6.4153	16.033485	0.000385	3.851166	1.304810	0.000154
 163	1.6119e+01	6.4522	16.150562	0.000294	2.939048	0.995776	0.000118
 164	1.6218e+01	6.4875	16.291861	0.000355	3.547127	1.201799	0.000142
 165	1.6318e+01	6.5340	16.408938	0.000294	2.939048	0.995776	0.000118
 166	1.6418e+01	6.5758	16.513904	0.000264	2.635009	0.892765	0.000105
 167	1.6517e+01	6.6207	16.687501	0.000436	4.357899	1.476496	0.000174
 168	1.6616e+01	6.6544	16.768243	0.000203	2.026930	0.686742	0.000081
 169	1.6716e+01	6.6945	16.889357	0.000304	3.040395	1.030114	0.000122
 170	1.6816e+01	6.7298	17.054880	0.000416	4.155206	1.407822	0.000166
 171	1.6915e+01	6.7715	17.131586	0.000193	1.925583	0.652405	0.000077
 172	1.7015e+01	6.8132	17.284997	0.000385	3.851166	1.304810	0.000154
 173	1.7114e+01	6.8549	17.398036	0.000284	2.837702	0.961439	0.000114
 174	1.7213e+01	6.8886	17.515113	0.000294	2.939048	0.995776	0.000118
 175	1.7313e+01	6.9223	17.652376	0.000345	3.445780	1.167462	0.000138
 176	1.7413e+01	6.9672	17.761379	0.000274	2.736355	0.927102	0.000110
 177	1.7512e+01	7.0105	17.894604	0.000334	3.344434	1.133125	0.000134
 178	1.7611e+01	7.0522	18.011681	0.000294	2.939048	0.995776	0.000118
 179	1.7711e+01	7.0923	18.148944	0.000345	3.445780	1.167462	0.000138
 180	1.7811e+01	7.1260	18.306392	0.000395	3.952513	1.339148	0.000158
 181	1.7910e+01	7.1709	18.395209	0.000223	2.229623	0.755417	0.000089
 182	1.8009e+01	7.2190	18.528434	0.000334	3.344434	1.133125	0.000134
 183	1.8109e+01	7.2383	18.653586	0.000314	3.141741	1.064451	0.000126
 184	1.8209e+01	7.2864	18.774700	0.000304	3.040395	1.030114	0.000122
 185	1.8308e+01	7.3329	18.920037	0.000365	3.648473	1.236136	0.000146
 186	1.8407e+01	7.3650	19.025002	0.000264	2.635009	0.892765	0.000105
 187	1.8507e+01	7.4116	19.142079	0.000294	2.939048	0.995776	0.000118
 188	1.8607e+01	7.4549	19.275305	0.000334	3.344434	1.133125	0.000134
 189	1.8706e+01	7.4902	19.416604	0.000355	3.547127	1.201799	0.000142
 190	1.8805e+01	7.5271	19.541756	0.000314	3.141741	1.064451	0.000126
 191	1.8905e+01	7.5688	19.683055	0.000355	3.547127	1.201799	0.000142
 192	1.9005e+01	7.6041	19.796095	0.000284	2.837702	0.961439	0.000114
 193	1.9104e+01	7.6522	19.909135	0.000284	2.837702	0.961439	0.000114
 194	1.9203e+01	7.6859	20.050435	0.000355	3.547127	1.201799	0.000142
 195	1.9303e+01	7.7260	20.155400	0.000264	2.635009	0.892765	0.000105
 196	1.9402e+01	7.7629	20.272477	0.000294	2.939048	0.995776	0.000118
 197	1.9502e+01	7.8094	20.389554	0.000294	2.939048	0.995776	0.000118
 198	1.9602e+01	7.8607	20.547002	0.000395	3.952513	1.339148	0.000158
 199	1.9701e+01	7.8848	20.627745	0.000203	2.026930	0.686742	0.000081
 200	1.9800e+01	7.9185	20.769045	0.000355	3.547127	1.201799	0.000142
 201	1.9900e+01	7.9650	20.926493	0.000395	3.952513	1.339148	0.000158
 202	2.0000e+01	8.0099	21.023384	0.000243	2.432316	0.824091	0.000097
 203	2.0099e+01	8.0516	21.156610	0.000334	3.344434	1.133125	0.000134
 204	2.0198e+01	8.0885	21.245427	0.000223	2.229623	0.755417	0.000089
 205	2.0298e+01	8.1383	21.374615	0.000324	3.243087	1.098788	0.000130
 206	2.0398e+01	8.1671	21.564361	0.000476	4.763285	1.613845	0.000191
 207	2.0497e+01	8.2105	21.624918	0.000152	1.520197	0.515057	0.000061
 208	2.0596e+01	8.2393	21.725846	0.000253	2.533662	0.858428	0.000101
 209	2.0696e+01	8.2827	21.838886	0.000284	2.837702	0.961439	0.000114
 210	2.0796e+01	8.3292	22.036705	0.000497	4.965978	1.682519	0.000199
 211	2.0895e+01	8.3613	22.161857	0.000314	3.141741	1.064451	0.000126
 212	2.0994e+01	8.4014	22.274896	0.000284	2.837702	0.961439	0.000114
 213	2.1094e+01	8.4383	22.379862	0.000264	2.635009	0.892765	0.000105
 214	2.1194e+01	8.4816	22.517125	0.000345	3.445780	1.167462	0.000138
 215	2.1293e+01	8.5201	22.642276	0.000314	3.141741	1.064451	0.000126
 216	2.1392e+01	8.5570	22.763390	0.000304	3.040395	1.030114	0.000122
 217	2.1492e+01	8.6003	22.896615	0.000334	3.344434	1.133125	0.000134
 218	2.1591e+01	8.6484	23.017729	0.000304	3.040395	1.030114	0.000122
 219	2.1691e+01	8.6821	23.130769	0.000284	2.837702	0.961439	0.000114
 220	2.1791e+01	8.7190	23.268032	0.000345	3.445780	1.167462	0.000138
 221	2.1890e+01	8.7671	23.409332	0.000355	3.547127	1.201799	0.000142
 222	2.1989e+01	8.8024	23.530446	0.000304	3.040395	1.030114	0.000122
 223	2.2089e+01	8.8361	23.663671	0.000334	3.344434	1.133125	0.000134
 224	2.2189e+01	8.8810	23.748451	0.000213	2.128276	0.721079	0.000085
 225	2.2288e+01	8.9227	23.913974	0.000416	4.155206	1.407822	0.000166
 226	2.2387e+01	8.9612	24.039125	0.000314	3.141741	1.064451	0.000126
 227	2.2487e+01	9.0062	24.131979	0.000233	2.330969	0.789754	0.000093
 228	2.2587e+01	9.0270	24.305576	0.000436	4.357899	1.476496	0.000174
 229	2.2686e+01	9.0800	24.402467	0.000243	2.432316	0.824091	0.000097
 230	2.2785e+01	9.1233	24.535692	0.000334	3.344434	1.133125	0.000134
 231	2.2885e+01	9.1570	24.705252	0.000426	4.256552	1.442159	0.000170
 232	2.2985e+01	9.1858	24.790032	0.000213	2.128276	0.721079	0.000085
 233	2.3084e+01	9.2436	24.923257	0.000334	3.344434	1.133125	0.000134
 234	2.3183e+01	9.2853	25.020149	0.000243	2.432316	0.824091	0.000097
 235	2.3283e+01	9.3222	25.173560	0.000385	3.851166	1.304810	0.000154
 236	2.3383e+01	9.3607	25.282563	0.000274	2.736355	0.927102	0.000110
 237	2.3482e+01	9.4072	25.395602	0.000284	2.837702	0.961439	0.000114
 238	2.3581e+01	9.4473	25.484419	0.000223	2.229623	0.755417	0.000089
 239	2.3681e+01	9.4746	25.645905	0.000405	4.053859	1.373485	0.000162
 240	2.3780e+01	9.5227	25.787205	0.000355	3.547127	1.201799	0.000142
 241	2.3880e+01	9.5676	25.884096	0.000243	2.432316	0.824091	0.000097
 242	2.3980e+01	9.6061	26.029433	0.000365	3.648473	1.236136	0.000146
 243	2.4079e+01	9.6366	26.182844	0.000385	3.851166	1.304810	0.000154
 244	2.4178e+01	9.6799	26.283772	0.000253	2.533662	0.858428	0.000101
 245	2.4278e+01	9.7184	26.408923	0.000314	3.141741	1.064451	0.000126
 246	2.4378e+01	9.7602	26.521963	0.000284	2.837702	0.961439	0.000114
 247	2.4477e+01	9.7890	26.630966	0.000274	2.736355	0.927102	0.000110
 248	2.4576e+01	9.8388	26.800526	0.000426	4.256552	1.442159	0.000170
 249	2.4676e+01	9.8757	26.873194	0.000182	1.824237	0.618068	0.000073
 250	2.4776e+01	9.9126	27.038717	0.000416	4.155206	1.407822	0.000166
 251	2.4875e+01	9.9559	27.135608	0.000243	2.432316	0.824091	0.000097
 252	2.4974e+01	9.9912	27.268833	0.000334	3.344434	1.133125	0.000134
 253	2.5074e+01	10.0297	27.353613	0.000213	2.128276	0.721079	0.000085
 254	2.5174e+01	10.0874	27.523173	0.000426	4.256552	1.442159	0.000170
 255	2.5273e+01	10.1259	27.624101	0.000253	2.533662	0.858428	0.000101
 256	2.5372e+01	10.1532	27.725030	0.000253	2.533662	0.858428	0.000101
 257	2.5472e+01	10.1917	27.894589	0.000426	4.256552	1.442159	0.000170
 258	2.5572e+01	10.2366	28.015703	0.000304	3.040395	1.030114	0.000122
 259	2.5671e+01	10.2719	28.112595	0.000243	2.432316	0.824091	0.000097
 260	2.5770e+01	10.3216	28.274080	0.000405	4.053859	1.373485	0.000162
 261	2.5870e+01	10.3601	28.379046	0.000264	2.635009	0.892765	0.000105
 262	2.5970e+01	10.3986	28.479974	0.000253	2.533662	0.858428	0.000101
 263	2.6069e+01	10.4323	28.613200	0.000334	3.344434	1.133125	0.000134
 264	2.6169e+01	10.4788	28.754499	0.000355	3.547127	1.201799	0.000142
 265	2.6268e+01	10.5125	28.867539	0.000284	2.837702	0.961439	0.000114
 266	2.6367e+01	10.5494	29.000765	0.000334	3.344434	1.133125	0.000134
 267	2.6467e+01	10.5879	29.142064	0.000355	3.547127	1.201799	0.000142
 268	2.6567e+01	10.6457	29.247030	0.000264	2.635009	0.892765	0.000105
 269	2.6666e+01	10.6778	29.396404	0.000375	3.749820	1.270473	0.000150
 270	2.6765e+01	10.7099	29.513481	0.000294	2.939048	0.995776	0.000118
 271	2.6865e+01	10.7548	29.650743	0.000345	3.445780	1.167462	0.000138
 272	2.6965e+01	10.7965	29.715338	0.000162	1.621544	0.549394	0.000065
 273	2.7064e+01	10.8318	29.888934	0.000436	4.357899	1.476496	0.000174
 274	2.7163e+01	10.8703	30.001974	0.000284	2.837702	0.961439	0.000114
 275	2.7263e+01	10.9136	30.139237	0.000345	3.445780	1.167462	0.000138
 276	2.7363e+01	10.9537	30.232091	0.000233	2.330969	0.789754	0.000093
 277	2.7462e+01	10.9938	30.369354	0.000345	3.445780	1.167462	0.000138
 278	2.7561e+01	11.0371	30.502579	0.000334	3.344434	1.133125	0.000134
 279	2.7661e+01	11.0804	30.583322	0.000203	2.026930	0.686742	0.000081
 280	2.7761e+01	11.1109	30.716547	0.000334	3.344434	1.133125	0.000134
 281	2.7860e+01	11.1446	30.878033	0.000405	4.053859	1.373485	0.000162
 282	2.7959e+01	11.1943	30.938590	0.000152	1.520197	0.515057	0.000061
 283	2.8059e+01	11.2377	31.124298	0.000466	4.661938	1.579507	0.000187
 284	2.8159e+01	11.2794	31.245412	0.000304	3.040395	1.030114	0.000122
 285	2.8258e+01	11.3114	31.362489	0.000294	2.939048	0.995776	0.000118
 286	2.8358e+01	11.3467	31.471492	0.000274	2.736355	0.927102	0.000110
 287	2.8457e+01	11.3965	31.600680	0.000324	3.243087	1.098788	0.000130
 288	2.8556e+01	11.4382	31.693534	0.000233	2.330969	0.789754	0.000093
 289	2.8656e+01	11.4751	31.834834	0.000355	3.547127	1.201799	0.000142
 290	2.8756e+01	11.5104	31.943837	0.000274	2.736355	0.927102	0.000110
 291	2.8855e+01	11.5569	32.060913	0.000294	2.939048	0.995776	0.000118
 292	2.8954e+01	11.5922	32.214325	0.000385	3.851166	1.304810	0.000154
 293	2.9054e+01	11.6339	32.343513	0.000324	3.243087	1.098788	0.000130
 294	2.9154e+01	11.6708	32.488850	0.000365	3.648473	1.236136	0.000146
 295	2.9253e+01	11.7093	32.577667	0.000223	2.229623	0.755417	0.000089
 296	2.9352e+01	11.7494	32.698781	0.000304	3.040395	1.030114	0.000122
 297	2.9452e+01	11.7895	32.836044	0.000345	3.445780	1.167462	0.000138
 298	2.9552e+01	11.8328	32.936972	0.000253	2.533662	0.858428	0.000101
 299	2.9651e+01	11.8617	33.094420	0.000395	3.952513	1.339148	0.000158
 300	2.9750e+01	11.9227	33.235720	0.000355	3.547127	1.201799	0.000142
 301	2.9850e+01	11.9515	33.308388	0.000182	1.824237	0.618068	0.000073
 302	2.9950e+01	11.9852	33.437577	0.000324	3.243087	1.098788	0.000130
 303	3.0049e+01	12.0269	33.554654	0.000294	2.939048	0.995776	0.000118
 304	3.0148e+01	12.0799	33.659619	0.000264	2.635009	0.892765	0.000105
 305	3.0248e+01	12.1071	33.800919	0.000355	3.547127	1.201799	0.000142
 306	3.0348e+01	12.1553	33.893773	0.000233	2.330969	0.789754	0.000093
 307	3.0447e+01	12.1906	34.047184	0.000385	3.851166	1.304810	0.000154
 308	3.0547e+01	12.2323	34.148113	0.000253	2.533662	0.858428	0.000101
 309	3.0646e+01	12.2708	34.265190	0.000294	2.939048	0.995776	0.000118
 310	3.0745e+01	12.3013	34.406489	0.000355	3.547127	1.201799	0.000142
 311	3.0845e+01	12.3590	34.515492	0.000274	2.736355	0.927102	0.000110
 312	3.0945e+01	12.3847	34.640643	0.000314	3.141741	1.064451	0.000126
 313	3.1044e+01	12.4248	34.773869	0.000334	3.344434	1.133125	0.000134
 314	3.1143e+01	12.4697	34.878834	0.000264	2.635009	0.892765	0.000105
 315	3.1243e+01	12.5146	34.983800	0.000264	2.635009	0.892765	0.000105
 316	3.1343e+01	12.5467	35.137211	0.000385	3.851166	1.304810	0.000154
 317	3.1442e+01	12.5932	35.278511	0.000355	3.547127	1.201799	0.000142
 318	3.1541e+01	12.6301	35.363290	0.000213	2.128276	0.721079	0.000085
 319	3.1641e+01	12.6686	35.496516	0.000334	3.344434	1.133125	0.000134
 320	3.1741e+01	12.7023	35.589370	0.000233	2.330969	0.789754	0.000093
 321	3.1840e+01	12.7504	35.670113	0.000203	2.026930	0.686742	0.000081
 322	3.1939e+01	12.8002	35.859858	0.000476	4.763285	1.613845	0.000191
 323	3.2039e+01	12.8178	35.980972	0.000304	3.040395	1.030114	0.000122
 324	3.2139e+01	12.8708	36.110161	0.000324	3.243087	1.098788	0.000130
 325	3.2238e+01	12.9157	36.211089	0.000253	2.533662	0.858428	0.000101
 326	3.2337e+01	12.9542	36.328166	0.000294	2.939048	0.995776	0.000118
 327	3.2437e+01	12.9879	36.437169	0.000274	2.736355	0.927102	0.000110
 328	3.2536e+01	13.0264	36.594617	0.000395	3.952513	1.339148	0.000158
 329	3.2636e+01	13.0601	36.655174	0.000152	1.520197	0.515057	0.000061
 330	3.2736e+01	13.1114	36.824734	0.000426	4.256552	1.442159	0.000170
 331	3.2835e+01	13.1483	36.925662	0.000253	2.533662	0.858428	0.000101
 332	3.2934e+01	13.1884	37.034665	0.000274	2.736355	0.927102	0.000110
 333	3.3034e+01	13.2221	37.184039	0.000375	3.749820	1.270473	0.000150
 334	3.3133e+01	13.2670	37.284967	0.000253	2.533662	0.858428	0.000101
 335	3.3233e+01	13.2975	37.398007	0.000284	2.837702	0.961439	0.000114
 336	3.3333e+01	13.3392	37.563529	0.000416	4.155206	1.407822	0.000166
 337	3.3432e+01	13.3841	37.692718	0.000324	3.243087	1.098788	0.000130
 338	3.3532e+01	13.4194	37.777498	0.000213	2.128276	0.721079	0.000085
 339	3.3631e+01	13.4659	37.894575	0.000294	2.939048	0.995776	0.000118
 340	3.3730e+01	13.4964	38.031837	0.000345	3.445780	1.167462	0.000138
 341	3.3830e+01	13.5494	38.120654	0.000223	2.229623	0.755417	0.000089
 342	3.3929e+01	13.5766	38.237731	0.000294	2.939048	0.995776	0.000118
 343	3.4029e+01	13.6215	38.391142	0.000385	3.851166	1.304810	0.000154
 344	3.4129e+01	13.6616	38.492071	0.000253	2.533662	0.858428	0.000101
 345	3.4228e+01	13.7066	38.601073	0.000274	2.736355	0.927102	0.000110
 346	3.4328e+01	13.7467	38.702002	0.000253	2.533662	0.858428	0.000101
 347	3.4427e+01	13.7932	38.851376	0.000375	3.749820	1.270473	0.000150
 348	3.4526e+01	13.8173	38.936156	0.000213	2.128276	0.721079	0.000085
 349	3.4626e+01	13.8670	39.113790	0.000446	4.459245	1.510833	0.000179
 350	3.4725e+01	13.8943	39.247015	0.000334	3.344434	1.133125	0.000134
 351	3.4825e+01	13.9408	39.360055	0.000284	2.837702	0.961439	0.000114
 352	3.4925e+01	13.9793	39.469058	0.000274	2.736355	0.927102	0.000110
 353	3.5024e+01	14.0162	39.578060	0.000274	2.736355	0.927102	0.000110
 354	3.5123e+01	14.0579	39.715323	0.000345	3.445780	1.167462	0.000138
 355	3.5223e+01	14.1012	39.832400	0.000294	2.939048	0.995776	0.000118
 356	3.5322e+01	14.1429	39.921217	0.000223	2.229623	0.755417	0.000089
 357	3.5422e+01	14.1878	40.086739	0.000416	4.155206	1.407822	0.000166
 358	3.5522e+01	14.2215	40.224002	0.000345	3.445780	1.167462	0.000138
 359	3.5621e+01	14.2568	40.304745	0.000203	2.026930	0.686742	0.000081
 360	3.5721e+01	14.2953	40.421822	0.000294	2.939048	0.995776	0.000118
 361	3.5820e+01	14.3450	40.571196	0.000375	3.749820	1.270473	0.000150
 362	3.5919e+01	14.3803	40.651938	0.000203	2.026930	0.686742	0.000081
 363	3.6019e+01	14.4221	40.760941	0.000274	2.736355	0.927102	0.000110
 364	3.6118e+01	14.4509	40.906278	0.000365	3.648473	1.236136	0.000146
 365	3.6218e+01	14.5039	41.051615	0.000365	3.648473	1.236136	0.000146
 366	3.6318e+01	14.5504	41.144469	0.000233	2.330969	0.789754	0.000093
 367	3.6417e+01	14.5729	41.249434	0.000264	2.635009	0.892765	0.000105
 368	3.6517e+01	14.6178	41.374586	0.000314	3.141741	1.064451	0.000126
 369	3.6616e+01	14.6547	41.503774	0.000324	3.243087	1.098788	0.000130
 370	3.6715e+01	14.6964	41.596628	0.000233	2.330969	0.789754	0.000093
 371	3.6815e+01	14.7349	41.717742	0.000304	3.040395	1.030114	0.000122
 372	3.6914e+01	14.7718	41.842893	0.000314	3.141741	1.064451	0.000126
 373	3.7014e+01	14.8215	41.959970	0.000294	2.939048	0.995776	0.000118
 374	3.7114e+01	14.8696	42.109344	0.000375	3.749820	1.270473	0.000150
 375	3.7213e+01	14.8937	42.202198	0.000233	2.330969	0.789754	0.000093
 376	3.7313e+01	14.9402	42.323313	0.000304	3.040395	1.030114	0.000122
 377	3.7412e+01	14.9755	42.440389	0.000294	2.939048	0.995776	0.000118
 378	3.7511e+01	15.0156	42.557466	0.000294	2.939048	0.995776	0.000118
 379	3.7611e+01	15.0605	42.662432	0.000264	2.635009	0.892765	0.000105
 380	3.7711e+01	15.0990	42.815843	0.000385	3.851166	1.304810	0.000154
 381	3.7810e+01	15.1391	42.908697	0.000233	2.330969	0.789754	0.000093
 382	3.7910e+01	15.1809	43.029811	0.000304	3.040395	1.030114	0.000122
 383	3.8009e+01	15.2226	43.171111	0.000355	3.547127	1.201799	0.000142
 384	3.8108e+01	15.2546	43.268002	0.000243	2.432316	0.824091	0.000097
 385	3.8208e+01	15.2867	43.409302	0.000355	3.547127	1.201799	0.000142
 386	3.8307e+01	15.3381	43.534453	0.000314	3.141741	1.064451	0.000126
 387	3.8407e+01	15.3782	43.623270	0.000223	2.229623	0.755417	0.000089
 388	3.8507e+01	15.4167	43.752459	0.000324	3.243087	1.098788	0.000130
 389	3.8606e+01	15.4568	43.889721	0.000345	3.445780	1.167462	0.000138
 390	3.8706e+01	15.4937	44.010835	0.000304	3.040395	1.030114	0.000122
 391	3.8805e+01	15.5354	44.111764	0.000253	2.533662	0.858428	0.000101
 392	3.8904e+01	15.5819	44.269212	0.000395	3.952513	1.339148	0.000158
 393	3.9004e+01	15.6204	44.370140	0.000253	2.533662	0.858428	0.000101
 394	3.9103e+01	15.6573	44.471069	0.000253	2.533662	0.858428	0.000101
 395	3.9203e+01	15.7006	44.616406	0.000365	3.648473	1.236136	0.000146
 396	3.9303e+01	15.7391	44.737520	0.000304	3.040395	1.030114	0.000122
 397	3.9402e+01	15.7792	44.842485	0.000264	2.635009	0.892765	0.000105
 398	3.9502e+01	15.8113	44.955525	0.000284	2.837702	0.961439	0.000114
 399	3.9601e+01	15.8546	45.088750	0.000334	3.344434	1.133125	0.000134
 400	3.9700e+01	15.8947	45.181605	0.000233	2.330969	0.789754	0.000093
 401	3.9800e+01	15.9284	45.310793	0.000324	3.243087	1.098788	0.000130
 402	3.9900e+01	15.9701	45.444018	0.000334	3.344434	1.133125	0.000134
 403	3.9999e+01	16.0151	45.577244	0.000334	3.344434	1.133125	0.000134
 404	4.0099e+01	16.0503	45.666061	0.000223	2.229623	0.755417	0.000089
 405	4.0198e+01	16.0856	45.795249	0.000324	3.243087	1.098788	0.000130
 406	4.0297e+01	16.1274	45.900215	0.000264	2.635009	0.892765	0.000105
 407	4.0397e+01	16.1787	46.065737	0.000416	4.155206	1.407822	0.000166
 408	4.0496e+01	16.2108	46.142443	0.000193	1.925583	0.652405	0.000077
 409	4.0596e+01	16.2493	46.299891	0.000395	3.952513	1.339148	0.000158
 410	4.0696e+01	16.2942	46.380634	0.000203	2.026930	0.686742	0.000081
 411	4.0795e+01	16.3359	46.513859	0.000334	3.344434	1.133125	0.000134
 412	4.0895e+01	16.3712	46.630936	0.000294	2.939048	0.995776	0.000118
 413	4.0994e+01	16.4129	46.743976	0.000284	2.837702	0.961439	0.000114
 414	4.1093e+01	16.4578	46.889313	0.000365	3.648473	1.236136	0.000146
 415	4.1193e+01	16.4835	46.966019	0.000193	1.925583	0.652405	0.000077
 416	4.1292e+01	16.5316	47.135578	0.000426	4.256552	1.442159	0.000170
 417	4.1392e+01	16.5685	47.220358	0.000213	2.128276	0.721079	0.000085
 418	4.1492e+01	16.6118	47.345509	0.000314	3.141741	1.064451	0.000126
 419	4.1591e+01	16.6471	47.478735	0.000334	3.344434	1.133125	0.000134
 420	4.1691e+01	16.6824	47.571589	0.000233	2.330969	0.789754	0.000093
 421	4.1790e+01	16.7145	47.688666	0.000294	2.939048	0.995776	0.000118
 422	4.1889e+01	16.7739	47.801706	0.000284	2.837702	0.961439	0.000114
 423	4.1989e+01	16.8124	47.926857	0.000314	3.141741	1.064451	0.000126
 424	4.2089e+01	16.8525	48.076231	0.000375	3.749820	1.270473	0.000150
 425	4.2188e+01	16.8862	48.173122	0.000243	2.432316	0.824091	0.000097
 426	4.2288e+01	16.9343	48.314422	0.000355	3.547127	1.201799	0.000142
 427	4.2387e+01	16.9680	48.443610	0.000324	3.243087	1.098788	0.000130
 428	4.2486e+01	17.0177	48.520316	0.000193	1.925583	0.652405	0.000077
 429	4.2586e+01	17.0482	48.641430	0.000304	3.040395	1.030114	0.000122
 430	4.2685e+01	17.0883	48.762544	0.000304	3.040395	1.030114	0.000122
 431	4.2785e+01	17.1300	48.871547	0.000274	2.736355	0.927102	0.000110
 432	4.2885e+01	17.1733	49.012846	0.000355	3.547127	1.201799	0.000142
 433	4.2984e+01	17.2070	49.097626	0.000213	2.128276	0.721079	0.000085
 434	4.3084e+01	17.2391	49.271223	0.000436	4.357899	1.476496	0.000174
 435	4.3183e+01	17.2872	49.380226	0.000274	2.736355	0.927102	0.000110
 436	4.3282e+01	17.3321	49.477117	0.000243	2.432316	0.824091	0.000097
 437	4.3382e+01	17.3706	49.557860	0.000203	2.026930	0.686742	0.000081
 438	4.3481e+01	17.4027	49.751642	0.000486	4.864631	1.648182	0.000195
 439	4.3581e+01	17.4492	49.836422	0.000213	2.128276	0.721079	0.000085
 440	4.3681e+01	17.4797	49.949462	0.000284	2.837702	0.961439	0.000114
 441	4.3780e+01	17.5278	50.066539	0.000294	2.939048	0.995776	0.000118
 442	4.3880e+01	17.5696	50.183616	0.000294	2.939048	0.995776	0.000118
 443	4.3979e+01	17.6113	50.312804	0.000324	3.243087	1.098788	0.000130
 444	4.4078e+01	17.6530	50.429881	0.000294	2.939048	0.995776	0.000118
 445	4.4178e+01	17.6883	50.550995	0.000304	3.040395	1.030114	0.000122
 446	4.4278e+01	17.7204	50.623664	0.000182	1.824237	0.618068	0.000073
 447	4.4377e+01	17.7605	50.764963	0.000355	3.547127	1.201799	0.000142
 448	4.4477e+01	17.8038	50.918374	0.000385	3.851166	1.304810	0.000154
 449	4.4576e+01	17.8487	51.003154	0.000213	2.128276	0.721079	0.000085
 450	4.4675e+01	17.8856	51.132343	0.000324	3.243087	1.098788	0.000130
 451	4.4775e+01	17.9241	51.253457	0.000304	3.040395	1.030114	0.000122
 452	4.4874e+01	17.9626	51.390719	0.000345	3.445780	1.167462	0.000138
 453	4.4974e+01	18.0027	51.507796	0.000294	2.939048	0.995776	0.000118
 454	4.5074e+01	18.0428	51.628910	0.000304	3.040395	1.030114	0.000122
 455	4.5173e+01	18.0829	51.725802	0.000243	2.432316	0.824091	0.000097
 456	4.5273e+01	18.1214	51.846916	0.000304	3.040395	1.030114	0.000122
 457	4.5372e+01	18.1663	51.988215	0.000355	3.547127	1.201799	0.000142
 458	4.5471e+01	18.2048	52.089144	0.000253	2.533662	0.858428	0.000101
 459	4.5571e+01	18.2449	52.210258	0.000304	3.040395	1.030114	0.000122
 460	4.5670e+01	18.2834	52.335409	0.000314	3.141741	1.064451	0.000126
 461	4.5770e+01	18.3235	52.404040	0.000172	1.722890	0.583731	0.000069
 462	4.5870e+01	18.3572	52.565526	0.000405	4.053859	1.373485	0.000162
 463	4.5969e+01	18.4038	52.678566	0.000284	2.837702	0.961439	0.000114
 464	4.6069e+01	18.4503	52.803717	0.000314	3.141741	1.064451	0.000126
 465	4.6168e+01	18.4904	52.888497	0.000213	2.128276	0.721079	0.000085
 466	4.6267e+01	18.5289	53.009611	0.000304	3.040395	1.030114	0.000122
 467	4.6367e+01	18.5626	53.154948	0.000365	3.648473	1.236136	0.000146
 468	4.6467e+01	18.6107	53.259913	0.000264	2.635009	0.892765	0.000105
 469	4.6566e+01	18.6380	53.381027	0.000304	3.040395	1.030114	0.000122
 470	4.6666e+01	18.6797	53.485993	0.000264	2.635009	0.892765	0.000105
 471	4.6765e+01	18.7278	53.590958	0.000264	2.635009	0.892765	0.000105
 472	4.6864e+01	18.7615	53.740332	0.000375	3.749820	1.270473	0.000150
 473	4.6964e+01	18.8016	53.813001	0.000182	1.824237	0.618068	0.000073
 474	4.7063e+01	18.8369	53.934115	0.000304	3.040395	1.030114	0.000122
 475	4.7163e+01	18.8786	54.099637	0.000416	4.155206	1.407822	0.000166
 476	4.7263e+01	18.9203	54.180380	0.000203	2.026930	0.686742	0.000081
 477	4.7362e+01	18.9701	54.313606	0.000334	3.344434	1.133125	0.000134
 478	4.7462e+01	19.0053	54.422608	0.000274	2.736355	0.927102	0.000110
 479	4.7561e+01	19.0374	54.519500	0.000243	2.432316	0.824091	0.000097
 480	4.7660e+01	19.0775	54.640614	0.000304	3.040395	1.030114	0.000122
 481	4.7760e+01	19.1225	54.725393	0.000213	2.128276	0.721079	0.000085
 482	4.7859e+01	19.1626	54.882842	0.000395	3.952513	1.339148	0.000158
 483	4.7959e+01	19.2011	55.007993	0.000314	3.141741	1.064451	0.000126
 484	4.8059e+01	19.2412	55.104884	0.000243	2.432316	0.824091	0.000097
 485	4.8158e+01	19.2749	55.234073	0.000324	3.243087	1.098788	0.000130
 486	4.8258e+01	19.3230	55.359224	0.000314	3.141741	1.064451	0.000126
 487	4.8357e+01	19.3615	55.460152	0.000253	2.533662	0.858428	0.000101
 488	4.8456e+01	19.3936	55.581266	0.000304	3.040395	1.030114	0.000122
 489	4.8556e+01	19.4353	55.722566	0.000355	3.547127	1.201799	0.000142
 490	4.8656e+01	19.4834	55.823494	0.000253	2.533662	0.858428	0.000101
 491	4.8755e+01	19.5219	55.940571	0.000294	2.939048	0.995776	0.000118
 492	4.8855e+01	19.5556	56.057648	0.000294	2.939048	0.995776	0.000118
 493	4.8954e+01	19.6037	56.126280	0.000172	1.722890	0.583731	0.000069
 494	4.9053e+01	19.6374	56.295839	0.000426	4.256552	1.442159	0.000170
 495	4.9153e+01	19.6775	56.412916	0.000294	2.939048	0.995776	0.000118
 496	4.9252e+01	19.7176	56.521919	0.000274	2.736355	0.927102	0.000110
 497	4.9352e+01	19.7545	56.671293	0.000375	3.749820	1.270473	0.000150
 498	4.9452e+01	19.7962	56.743961	0.000182	1.824237	0.618068	0.000073
 499	4.9551e+01	19.8379	56.857001	0.000284	2.837702	0.961439	0.000114
 500	4.9651e+01	19.8797	56.994264	0.000345	3.445780	1.167462	0.000138
 501	4.9750e+01	19.9198	57.095192	0.000253	2.533662	0.858428	0.000101
 502	4.9849e+01	19.9631	57.196121	0.000253	2.533662	0.858428	0.000101
 503	4.9949e+01	20.0048	57.329346	0.000334	3.344434	1.133125	0.000134
 504	5.0048e+01	19.9647	57.220343	0.000274	2.736355	0.927102	-0.000110
 505	5.0148e+01	19.9198	57.151712	0.000172	1.722890	0.583731	-0.000069
 506	5.0248e+01	19.8764	57.022524	0.000324	3.243087	1.098788	-0.000130
 507	5.0347e+01	19.8347	56.941781	0.000203	2.026930	0.686742	-0.000081
 508	5.0447e+01	19.7898	56.865075	0.000193	1.925583	0.652405	-0.000077
 509	5.0546e+01	19.7529	56.731850	0.000334	3.344434	1.133125	-0.000134
 510	5.0645e+01	19.7128	56.643033	0.000223	2.229623	0.755417	-0.000089
 511	5.0745e+01	19.6759	56.525956	0.000294	2.939048	0.995776	-0.000118
 512	5.0844e+01	19.6390	56.465399	0.000152	1.520197	0.515057	-0.000061
 513	5.0944e+01	19.6053	56.368508	0.000243	2.432316	0.824091	-0.000097
 514	5.1044e+01	19.5636	56.235282	0.000334	3.344434	1.133125	-0.000134
 515	5.1143e+01	19.5075	56.166651	0.000172	1.722890	0.583731	-0.000069
 516	5.1242e+01	19.4818	56.041500	0.000314	3.141741	1.064451	-0.000126
 517	5.1342e+01	19.4369	55.948646	0.000233	2.330969	0.789754	-0.000093
 518	5.1441e+01	19.3968	55.807346	0.000355	3.547127	1.201799	-0.000142
 519	5.1541e+01	19.3583	55.758900	0.000122	1.216158	0.412045	-0.000049
 520	5.1641e+01	19.3294	55.609526	0.000375	3.749820	1.270473	-0.000150
 521	5.1740e+01	19.2845	55.496486	0.000284	2.837702	0.961439	-0.000114
 522	5.1840e+01	19.2380	55.435929	0.000152	1.520197	0.515057	-0.000061
 523	5.1939e+01	19.1979	55.351150	0.000213	2.128276	0.721079	-0.000085
 524	5.2038e+01	19.1594	55.246184	0.000264	2.635009	0.892765	-0.000105
 525	5.2138e+01	19.1225	55.084699	0.000405	4.053859	1.373485	-0.000162
 526	5.2237e+01	19.0775	54.999919	0.000213	2.128276	0.721079	-0.000085
 527	5.2337e+01	19.0406	54.894953	0.000264	2.635009	0.892765	-0.000105
 528	5.2437e+01	19.0005	54.794025	0.000253	2.533662	0.858428	-0.000101
 529	5.2536e+01	18.9717	54.676948	0.000294	2.939048	0.995776	-0.000118
 530	5.2636e+01	18.9235	54.580057	0.000243	2.432316	0.824091	-0.000097
 531	5.2735e+01	18.8850	54.491240	0.000223	2.229623	0.755417	-0.000089
 532	5.2834e+01	18.8401	54.394348	0.000243	2.432316	0.824091	-0.000097
 533	5.2934e+01	18.7984	54.253049	0.000355	3.547127	1.201799	-0.000142
 534	5.3033e+01	18.7631	54.168269	0.000213	2.128276	0.721079	-0.000085
 535	5.3133e+01	18.7230	54.051192	0.000294	2.939048	0.995776	-0.000118
 536	5.3233e+01	18.6845	53.901818	0.000375	3.749820	1.270473	-0.000150
 537	5.3332e+01	18.6444	53.825112	0.000193	1.925583	0.652405	-0.000077
 538	5.3431e+01	18.5979	53.708035	0.000294	2.939048	0.995776	-0.000118
 539	5.3531e+01	18.5626	53.647478	0.000152	1.520197	0.515057	-0.000061
 540	5.3630e+01	18.5241	53.518290	0.000324	3.243087	1.098788	-0.000130
 541	5.3730e+01	18.4759	53.413324	0.000264	2.635009	0.892765	-0.000105
 542	5.3830e+01	18.4551	53.304322	0.000274	2.736355	0.927102	-0.000110
 543	5.3929e+01	18.4086	53.183208	0.000304	3.040395	1.030114	-0.000122
 544	5.4029e+01	18.3717	53.102465	0.000203	2.026930	0.686742	-0.000081
 545	5.4128e+01	18.3235	52.969239	0.000334	3.344434	1.133125	-0.000134
 546	5.4227e+01	18.2786	52.884460	0.000213	2.128276	0.721079	-0.000085
 547	5.4327e+01	18.2337	52.779494	0.000264	2.635009	0.892765	-0.000105
 548	5.4426e+01	18.2145	52.658380	0.000304	3.040395	1.030114	-0.000122
 549	5.4526e+01	18.1631	52.561489	0.000243	2.432316	0.824091	-0.000097
 550	5.4626e+01	18.1230	52.424226	0.000345	3.445780	1.167462	-0.000138
 551	5.4725e+01	18.0861	52.335409	0.000223	2.229623	0.755417	-0.000089
 552	5.4825e+01	18.0460	52.254666	0.000203	2.026930	0.686742	-0.000081
 553	5.4924e+01	18.0107	52.117404	0.000345	3.445780	1.167462	-0.000138
 554	5.5023e+01	17.9658	52.020513	0.000243	2.432316	0.824091	-0.000097
 555	5.5123e+01	17.9241	51.935733	0.000213	2.128276	0.721079	-0.000085
 556	5.5222e+01	17.8872	51.814619	0.000304	3.040395	1.030114	-0.000122
 557	5.5322e+01	17.8567	51.717727	0.000243	2.432316	0.824091	-0.000097
 558	5.5422e+01	17.8070	51.604688	0.000284	2.837702	0.961439	-0.000114
 559	5.5521e+01	17.7524	51.491648	0.000284	2.837702	0.961439	-0.000114
 560	5.5620e+01	17.7139	51.374571	0.000294	2.939048	0.995776	-0.000118
 561	5.5720e+01	17.6915	51.261531	0.000284	2.837702	0.961439	-0.000114
 562	5.5819e+01	17.6466	51.192900	0.000172	1.722890	0.583731	-0.000069
 563	5.5919e+01	17.6049	51.096008	0.000243	2.432316	0.824091	-0.000097
 564	5.6019e+01	17.5728	50.962783	0.000334	3.344434	1.133125	-0.000134
 565	5.6118e+01	17.5278	50.849743	0.000284	2.837702	0.961439	-0.000114
 566	5.6218e+01	17.4845	50.748815	0.000253	2.533662	0.858428	-0.000101
 567	5.6317e+01	17.4428	50.651924	0.000243	2.432316	0.824091	-0.000097
 568	5.6416e+01	17.4059	50.494475	0.000395	3.952513	1.339148	-0.000158
 569	5.6516e+01	17.3706	50.425844	0.000172	1.722890	0.583731	-0.000069
 570	5.6615e+01	17.3241	50.312804	0.000284	2.837702	0.961439	-0.000114
 571	5.6715e+01	17.2872	50.211876	0.000253	2.533662	0.858428	-0.000101
 572	5.6815e+01	17.2471	50.086725	0.000314	3.141741	1.064451	-0.000126
 573	5.6914e+01	17.2054	49.993870	0.000233	2.330969	0.789754	-0.000093
 574	5.7014e+01	17.1749	49.840459	0.000385	3.851166	1.304810	-0.000154
 575	5.7113e+01	17.1396	49.775865	0.000162	1.621544	0.549394	-0.000065
 576	5.7212e+01	17.0867	49.670900	0.000264	2.635009	0.892765	-0.000105
 577	5.7312e+01	17.0498	49.553823	0.000294	2.939048	0.995776	-0.000118
 578	5.7411e+01	17.0097	49.432709	0.000304	3.040395	1.030114	-0.000122
 579	5.7511e+01	16.9744	49.315632	0.000294	2.939048	0.995776	-0.000118
 580	5.7611e+01	16.9247	49.218740	0.000243	2.432316	0.824091	-0.000097
 581	5.7710e+01	16.8878	49.121849	0.000243	2.432316	0.824091	-0.000097
 582	5.7809e+01	16.8525	49.028995	0.000233	2.330969	0.789754	-0.000093
 583	5.7909e+01	16.8092	48.907881	0.000304	3.040395	1.030114	-0.000122
 584	5.8008e+01	16.7723	48.798878	0.000274	2.736355	0.927102	-0.000110
 585	5.8108e+01	16.7257	48.673727	0.000314	3.141741	1.064451	-0.000126
 586	5.8208e+01	16.6872	48.576836	0.000243	2.432316	0.824091	-0.000097
 587	5.8307e+01	16.6471	48.443610	0.000334	3.344434	1.133125	-0.000134
 588	5.8407e+01	16.6118	48.330570	0.000284	2.837702	0.961439	-0.000114
 589	5.8506e+01	16.5685	48.257902	0.000182	1.824237	0.618068	-0.000073
 590	5.8605e+01	16.5284	48.136788	0.000304	3.040395	1.030114	-0.000122
 591	5.8705e+01	16.5027	47.987414	0.000375	3.749820	1.270473	-0.000150
 592	5.8804e+01	16.4466	47.902634	0.000213	2.128276	0.721079	-0.000085
 593	5.8904e+01	16.4097	47.777483	0.000314	3.141741	1.064451	-0.000126
 594	5.9004e+01	16.3728	47.692703	0.000213	2.128276	0.721079	-0.000085
 595	5.9103e+01	16.3247	47.607923	0.000213	2.128276	0.721079	-0.000085
 596	5.9203e+01	16.2862	47.450475	0.000395	3.952513	1.339148	-0.000158
 597	5.9302e+01	16.2541	47.337435	0.000284	2.837702	0.961439	-0.000114
 598	5.9401e+01	16.2220	47.236507	0.000253	2.533662	0.858428	-0.000101
 599	5.9501e+01	16.1707	47.139615	0.000243	2.432316	0.824091	-0.000097
 600	5.9600e+01	16.1274	47.034650	0.000264	2.635009	0.892765	-0.000105
 601	5.9700e+01	16.0985	46.909499	0.000314	3.141741	1.064451	-0.000126
 602	5.9800e+01	16.0471	46.796459	0.000284	2.837702	0.961439	-0.000114
 603	5.9899e+01	16.0167	46.683419	0.000284	2.837702	0.961439	-0.000114
 604	5.9998e+01	15.9685	46.586528	0.000243	2.432316	0.824091	-0.000097
 605	6.0098e+01	15.9268	46.445228	0.000355	3.547127	1.201799	-0.000142
 606	6.0197e+01	15.9044	46.364485	0.000203	2.026930	0.686742	-0.000081
 607	6.0297e+01	15.8514	46.263557	0.000253	2.533662	0.858428	-0.000101
 608	6.0397e+01	15.8193	46.110146	0.000385	3.851166	1.304810	-0.000154
 609	6.0496e+01	15.7760	45.997106	0.000284	2.837702	0.961439	-0.000114
 610	6.0596e+01	15.7311	45.867918	0.000324	3.243087	1.098788	-0.000130
 611	6.0695e+01	15.6910	45.791212	0.000193	1.925583	0.652405	-0.000077
 612	6.0794e+01	15.6509	45.666061	0.000314	3.141741	1.064451	-0.000126
 613	6.0894e+01	15.6092	45.613578	0.000132	1.317504	0.446383	-0.000053
 614	6.0993e+01	15.5867	45.415758	0.000497	4.965978	1.682519	-0.000199
 615	6.1093e+01	15.5370	45.359239	0.000142	1.418851	0.480720	-0.000057
 616	6.1193e+01	15.4969	45.234087	0.000314	3.141741	1.064451	-0.000126
 617	6.1292e+01	15.4536	45.137196	0.000243	2.432316	0.824091	-0.000097
 618	6.1392e+01	15.4167	45.020119	0.000294	2.939048	0.995776	-0.000118
 619	6.1491e+01	15.3702	44.955525	0.000162	1.621544	0.549394	-0.000065
 620	6.1590e+01	15.3477	44.826337	0.000324	3.243087	1.098788	-0.000130
 621	6.1690e+01	15.2964	44.664851	0.000405	4.053859	1.373485	-0.000162
 622	6.1789e+01	15.2450	44.576034	0.000223	2.229623	0.755417	-0.000089
 623	6.1889e+01	15.2178	44.467032	0.000274	2.736355	0.927102	-0.000110
 624	6.1989e+01	15.1728	44.353992	0.000284	2.837702	0.961439	-0.000114
 625	6.2088e+01	15.1343	44.228841	0.000314	3.141741	1.064451	-0.000126
 626	6.2188e+01	15.0958	44.119838	0.000274	2.736355	0.927102	-0.000110
 627	6.2287e+01	15.0461	44.018910	0.000253	2.533662	0.858428	-0.000101
 628	6.2386e+01	15.0220	43.909907	0.000274	2.736355	0.927102	-0.000110
 629	6.2486e+01	14.9803	43.772644	0.000345	3.445780	1.167462	-0.000138
 630	6.2586e+01	14.9306	43.655567	0.000294	2.939048	0.995776	-0.000118
 631	6.2685e+01	14.9033	43.554639	0.000253	2.533662	0.858428	-0.000101
 632	6.2785e+01	14.8600	43.441599	0.000284	2.837702	0.961439	-0.000114
 633	6.2884e+01	14.8167	43.324522	0.000294	2.939048	0.995776	-0.000118
 634	6.2983e+01	14.7846	43.223594	0.000253	2.533662	0.858428	-0.000101
 635	6.3083e+01	14.7397	43.102480	0.000304	3.040395	1.030114	-0.000122
 636	6.3182e+01	14.6916	42.993477	0.000274	2.736355	0.927102	-0.000110
 637	6.3282e+01	14.6691	42.892549	0.000253	2.533662	0.858428	-0.000101
 638	6.3382e+01	14.6194	42.739137	0.000385	3.851166	1.304810	-0.000154
 639	6.3481e+01	14.5680	42.666469	0.000182	1.824237	0.618068	-0.000073
 640	6.3581e+01	14.5488	42.549392	0.000294	2.939048	0.995776	-0.000118
 641	6.3680e+01	14.5023	42.420204	0.000324	3.243087	1.098788	-0.000130
 642	6.3779e+01	14.4541	42.299090	0.000304	3.040395	1.030114	-0.000122
 643	6.3879e+01	14.4221	42.177976	0.000304	3.040395	1.030114	-0.000122
 644	6.3978e+01	14.3836	42.073010	0.000264	2.635009	0.892765	-0.000105
 645	6.4078e+01	14.3467	41.959970	0.000284	2.837702	0.961439	-0.000114
 646	6.4177e+01	14.3017	41.830782	0.000324	3.243087	1.098788	-0.000130
 647	6.4277e+01	14.2616	41.754076	0.000193	1.925583	0.652405	-0.000077
 648	6.4376e+01	14.2215	41.616814	0.000345	3.445780	1.167462	-0.000138
 649	6.4476e+01	14.1814	41.507811	0.000274	2.736355	0.927102	-0.000110
 650	6.4576e+01	14.1365	41.374586	0.000334	3.344434	1.133125	-0.000134
 651	6.4675e+01	14.1028	41.285769	0.000223	2.229623	0.755417	-0.000089
 652	6.4775e+01	14.0643	41.164655	0.000304	3.040395	1.030114	-0.000122
 653	6.4874e+01	14.0146	41.015281	0.000375	3.749820	1.270473	-0.000150
 654	6.4974e+01	13.9809	40.946649	0.000172	1.722890	0.583731	-0.000069
 655	6.5073e+01	13.9440	40.833609	0.000284	2.837702	0.961439	-0.000114
 656	6.5172e+01	13.8975	40.716532	0.000294	2.939048	0.995776	-0.000118
 657	6.5272e+01	13.8670	40.587344	0.000324	3.243087	1.098788	-0.000130
 658	6.5371e+01	13.8253	40.462193	0.000314	3.141741	1.064451	-0.000126
 659	6.5471e+01	13.7852	40.341079	0.000304	3.040395	1.030114	-0.000122
 660	6.5570e+01	13.7338	40.240150	0.000253	2.533662	0.858428	-0.000101
 661	6.5670e+01	13.7001	40.139222	0.000253	2.533662	0.858428	-0.000101
 662	6.5769e+01	13.6536	39.993885	0.000365	3.648473	1.236136	-0.000146
 663	6.5869e+01	13.6215	39.941402	0.000132	1.317504	0.446383	-0.000053
 664	6.5969e+01	13.5846	39.796066	0.000365	3.648473	1.236136	-0.000146
 665	6.6068e+01	13.5461	39.662840	0.000334	3.344434	1.133125	-0.000134
 666	6.6168e+01	13.5012	39.545763	0.000294	2.939048	0.995776	-0.000118
 667	6.6267e+01	13.4563	39.436760	0.000274	2.736355	0.927102	-0.000110
 668	6.6367e+01	13.4258	39.311609	0.000314	3.141741	1.064451	-0.000126
 669	6.6466e+01	13.3857	39.202607	0.000274	2.736355	0.927102	-0.000110
 670	6.6566e+01	13.3376	39.085530	0.000294	2.939048	0.995776	-0.000118
 671	6.6665e+01	13.2991	38.944230	0.000355	3.547127	1.201799	-0.000142
 672	6.6764e+01	13.2606	38.863487	0.000203	2.026930	0.686742	-0.000081
 673	6.6864e+01	13.2269	38.734299	0.000324	3.243087	1.098788	-0.000130
 674	6.6963e+01	13.1836	38.609148	0.000314	3.141741	1.064451	-0.000126
 675	6.7063e+01	13.1483	38.508219	0.000253	2.533662	0.858428	-0.000101
 676	6.7162e+01	13.1066	38.370957	0.000345	3.445780	1.167462	-0.000138
 677	6.7262e+01	13.0649	38.261954	0.000274	2.736355	0.927102	-0.000110
 678	6.7362e+01	13.0167	38.116617	0.000365	3.648473	1.236136	-0.000146
 679	6.7461e+01	12.9782	38.064134	0.000132	1.317504	0.446383	-0.000053
 680	6.7561e+01	12.9478	37.910723	0.000385	3.851166	1.304810	-0.000154
 681	6.7660e+01	12.9077	37.793646	0.000294	2.939048	0.995776	-0.000118
 682	6.7760e+01	12.8659	37.676569	0.000294	2.939048	0.995776	-0.000118
 683	6.7859e+01	12.8290	37.571604	0.000264	2.635009	0.892765	-0.000105
 684	6.7959e+01	12.7889	37.494898	0.000193	1.925583	0.652405	-0.000077
 685	6.8058e+01	12.7520	37.337450	0.000395	3.952513	1.339148	-0.000158
 686	6.8157e+01	12.7055	37.212299	0.000314	3.141741	1.064451	-0.000126
 687	6.8257e+01	12.6654	37.147704	0.000162	1.621544	0.549394	-0.000065
 688	6.8356e+01	12.6349	37.026590	0.000304	3.040395	1.030114	-0.000122
 689	6.8456e+01	12.5900	36.901439	0.000314	3.141741	1.064451	-0.000126
 690	6.8555e+01	12.5563	36.727842	0.000436	4.357899	1.476496	-0.000174
 691	6.8655e+01	12.5050	36.667285	0.000152	1.520197	0.515057	-0.000061
 692	6.8754e+01	12.4681	36.530023	0.000345	3.445780	1.167462	-0.000138
 693	6.8854e+01	12.4248	36.412946	0.000294	2.939048	0.995776	-0.000118
 694	6.8954e+01	12.3943	36.316055	0.000243	2.432316	0.824091	-0.000097
 695	6.9053e+01	12.3510	36.198978	0.000294	2.939048	0.995776	-0.000118
 696	6.9153e+01	12.3029	36.085938	0.000284	2.837702	0.961439	-0.000114
 697	6.9252e+01	12.2628	35.948675	0.000345	3.445780	1.167462	-0.000138
 698	6.9352e+01	12.2259	35.843710	0.000264	2.635009	0.892765	-0.000105
 699	6.9451e+01	12.1874	35.738744	0.000264	2.635009	0.892765	-0.000105
 700	6.9550e+01	12.1569	35.633779	0.000264	2.635009	0.892765	-0.000105
 701	6.9650e+01	12.1120	35.492479	0.000355	3.547127	1.201799	-0.000142
 702	6.9749e+01	12.0702	35.363290	0.000324	3.243087	1.098788	-0.000130
 703	6.9849e+01	12.0221	35.238139	0.000314	3.141741	1.064451	-0.000126
 704	6.9948e+01	11.9884	35.141248	0.000243	2.432316	0.824091	-0.000097
 705	7.0048e+01	11.9515	35.036283	0.000264	2.635009	0.892765	-0.000105
 706	7.0147e+01	11.9178	34.870760	0.000416	4.155206	1.407822	-0.000166
 707	7.0247e+01	11.8745	34.757720	0.000284	2.837702	0.961439	-0.000114
 708	7.0347e+01	11.8296	34.640643	0.000294	2.939048	0.995776	-0.000118
 709	7.0446e+01	11.7895	34.563938	0.000193	1.925583	0.652405	-0.000077
 710	7.0546e+01	11.7494	34.410526	0.000385	3.851166	1.304810	-0.000154
 711	7.0645e+01	11.7189	34.277301	0.000334	3.344434	1.133125	-0.000134
 712	7.0745e+01	11.6628	34.180410	0.000243	2.432316	0.824091	-0.000097
 713	7.0844e+01	11.6355	34.083518	0.000243	2.432316	0.824091	-0.000097
 714	7.0944e+01	11.6018	33.938182	0.000365	3.648473	1.236136	-0.000146
 715	7.1043e+01	11.5505	33.853402	0.000213	2.128276	0.721079	-0.000085
 716	7.1142e+01	11.5088	33.716139	0.000345	3.445780	1.167462	-0.000138
 717	7.1242e+01	11.4703	33.607136	0.000274	2.736355	0.927102	-0.000110
 718	7.1341e+01	11.4286	33.473911	0.000334	3.344434	1.133125	-0.000134
 719	7.1441e+01	11.3949	33.344723	0.000324	3.243087	1.098788	-0.000130
 720	7.1540e+01	11.3644	33.227646	0.000294	2.939048	0.995776	-0.000118
 721	7.1640e+01	11.3195	33.126717	0.000253	2.533662	0.858428	-0.000101
 722	7.1740e+01	11.2729	33.021752	0.000264	2.635009	0.892765	-0.000105
 723	7.1839e+01	11.2296	32.932935	0.000223	2.229623	0.755417	-0.000089
 724	7.1939e+01	11.1927	32.775486	0.000395	3.952513	1.339148	-0.000158
 725	7.2038e+01	11.1510	32.670521	0.000264	2.635009	0.892765	-0.000105
 726	7.2138e+01	11.1125	32.589778	0.000203	2.026930	0.686742	-0.000081
 727	7.2237e+01	11.0724	32.444441	0.000365	3.648473	1.236136	-0.000146
 728	7.2337e+01	11.0371	32.343513	0.000253	2.533662	0.858428	-0.000101
 729	7.2436e+01	10.9954	32.206250	0.000345	3.445780	1.167462	-0.000138
 730	7.2535e+01	10.9537	32.085136	0.000304	3.040395	1.030114	-0.000122
 731	7.2635e+01	10.9136	31.992282	0.000233	2.330969	0.789754	-0.000093
 732	7.2734e+01	10.8815	31.879242	0.000284	2.837702	0.961439	-0.000114
 733	7.2834e+01	10.8446	31.717757	0.000405	4.053859	1.373485	-0.000162
 734	7.2933e+01	10.7933	31.596643	0.000304	3.040395	1.030114	-0.000122
 735	7.3033e+01	10.7548	31.503789	0.000233	2.330969	0.789754	-0.000093
 736	7.3132e+01	10.7211	31.382675	0.000304	3.040395	1.030114	-0.000122
 737	7.3232e+01	10.6762	31.261561	0.000304	3.040395	1.030114	-0.000122
 738	7.3332e+01	10.6345	31.148521	0.000284	2.837702	0.961439	-0.000114
 739	7.3431e+01	10.6008	31.019332	0.000324	3.243087	1.098788	-0.000130
 740	7.3531e+01	10.5542	30.942627	0.000193	1.925583	0.652405	-0.000077
 741	7.3630e+01	10.5238	30.785179	0.000395	3.952513	1.339148	-0.000158
 742	7.3730e+01	10.4805	30.688287	0.000243	2.432316	0.824091	-0.000097
 743	7.3829e+01	10.4500	30.538913	0.000375	3.749820	1.270473	-0.000150
 744	7.3928e+01	10.4018	30.425873	0.000284	2.837702	0.961439	-0.000114
 745	7.4028e+01	10.3569	30.304759	0.000304	3.040395	1.030114	-0.000122
 746	7.4127e+01	10.3056	30.219980	0.000213	2.128276	0.721079	-0.000085
 747	7.4227e+01	10.2719	30.074643	0.000365	3.648473	1.236136	-0.000146
 748	7.4326e+01	10.2350	29.957566	0.000294	2.939048	0.995776	-0.000118
 749	7.4426e+01	10.1949	29.840489	0.000294	2.939048	0.995776	-0.000118
 750	7.4525e+01	10.1612	29.711300	0.000324	3.243087	1.098788	-0.000130
 751	7.4625e+01	10.1147	29.594224	0.000294	2.939048	0.995776	-0.000118
 752	7.4725e+01	10.0762	29.452924	0.000355	3.547127	1.201799	-0.000142
 753	7.4824e+01	10.0393	29.351995	0.000253	2.533662	0.858428	-0.000101
 754	7.4924e+01	9.9912	29.251067	0.000253	2.533662	0.858428	-0.000101
 755	7.5023e+01	9.9623	29.129953	0.000304	3.040395	1.030114	-0.000122
 756	7.5123e+01	9.9270	28.988653	0.000355	3.547127	1.201799	-0.000142
 757	7.5222e+01	9.8692	28.867539	0.000304	3.040395	1.030114	-0.000122
 758	7.5322e+01	9.8388	28.819093	0.000122	1.216158	0.412045	-0.000049
 759	7.5421e+01	9.7922	28.649534	0.000426	4.256552	1.442159	-0.000170
 760	7.5520e+01	9.7762	28.520345	0.000324	3.243087	1.098788	-0.000130
 761	7.5620e+01	9.7168	28.366934	0.000385	3.851166	1.304810	-0.000154
 762	7.5719e+01	9.6767	28.306377	0.000152	1.520197	0.515057	-0.000061
 763	7.5819e+01	9.6382	28.161040	0.000365	3.648473	1.236136	-0.000146
 764	7.5918e+01	9.6013	28.043963	0.000294	2.939048	0.995776	-0.000118
 765	7.6018e+01	9.5580	27.914775	0.000324	3.243087	1.098788	-0.000130
 766	7.6118e+01	9.5227	27.793661	0.000304	3.040395	1.030114	-0.000122
 767	7.6217e+01	9.4842	27.712918	0.000203	2.026930	0.686742	-0.000081
 768	7.6317e+01	9.4425	27.571619	0.000355	3.547127	1.201799	-0.000142
 769	7.6416e+01	9.3992	27.442430	0.000324	3.243087	1.098788	-0.000130
 770	7.6516e+01	9.3623	27.341502	0.000253	2.533662	0.858428	-0.000101
 771	7.6615e+01	9.3206	27.188091	0.000385	3.851166	1.304810	-0.000154
 772	7.6715e+01	9.2789	27.099274	0.000223	2.229623	0.755417	-0.000089
 773	7.6814e+01	9.2356	26.970085	0.000324	3.243087	1.098788	-0.000130
 774	7.6913e+01	9.2003	26.840897	0.000324	3.243087	1.098788	-0.000130
 775	7.7013e+01	9.1650	26.719783	0.000304	3.040395	1.030114	-0.000122
 776	7.7112e+01	9.1201	26.618854	0.000253	2.533662	0.858428	-0.000101
 777	7.7212e+01	9.0784	26.473518	0.000365	3.648473	1.236136	-0.000146
 778	7.7311e+01	9.0350	26.356441	0.000294	2.939048	0.995776	-0.000118
 779	7.7411e+01	9.0046	26.239364	0.000294	2.939048	0.995776	-0.000118
 780	7.7510e+01	8.9645	26.150547	0.000223	2.229623	0.755417	-0.000089
 781	7.7610e+01	8.9308	26.009247	0.000355	3.547127	1.201799	-0.000142
 782	7.7710e+01	8.8810	25.871984	0.000345	3.445780	1.167462	-0.000138
 783	7.7809e+01	8.8522	25.754907	0.000294	2.939048	0.995776	-0.000118
 784	7.7909e+01	8.8056	25.649942	0.000264	2.635009	0.892765	-0.000105
 785	7.8008e+01	8.7607	25.549014	0.000253	2.533662	0.858428	-0.000101
 786	7.8108e+01	8.7222	25.415788	0.000334	3.344434	1.133125	-0.000134
 787	7.8207e+01	8.6853	25.310823	0.000264	2.635009	0.892765	-0.000105
 788	7.8306e+01	8.6404	25.169523	0.000355	3.547127	1.201799	-0.000142
 789	7.8406e+01	8.6067	25.068594	0.000253	2.533662	0.858428	-0.000101
 790	7.8505e+01	8.5634	24.931332	0.000345	3.445780	1.167462	-0.000138
 791	7.8605e+01	8.5217	24.781958	0.000375	3.749820	1.270473	-0.000150
 792	7.8704e+01	8.4832	24.705252	0.000193	1.925583	0.652405	-0.000077
 793	7.8804e+01	8.4415	24.547804	0.000395	3.952513	1.339148	-0.000158
 794	7.8903e+01	8.4078	24.467061	0.000203	2.026930	0.686742	-0.000081
 795	7.9003e+01	8.3693	24.333836	0.000334	3.344434	1.133125	-0.000134
 796	7.9103e+01	8.3276	24.184462	0.000375	3.749820	1.270473	-0.000150
 797	7.9202e+01	8.2891	24.103719	0.000203	2.026930	0.686742	-0.000081
 798	7.9302e+01	8.2506	23.938196	0.000416	4.155206	1.407822	-0.000166
 799	7.9401e+01	8.2008	23.837268	0.000253	2.533662	0.858428	-0.000101
 800	7.9501e+01	8.1671	23.740377	0.000243	2.432316	0.824091	-0.000097
 801	7.9600e+01	8.1238	23.619263	0.000304	3.040395	1.030114	-0.000122
 802	7.9700e+01	8.0789	23.461814	0.000395	3.952513	1.339148	-0.000158
 803	7.9799e+01	8.0372	23.356849	0.000264	2.635009	0.892765	-0.000105
 804	7.9898e+01	8.0067	23.219586	0.000345	3.445780	1.167462	-0.000138
 805	7.9998e+01	7.9746	23.090398	0.000324	3.243087	1.098788	-0.000130
 806	8.0097e+01	7.9313	22.945061	0.000365	3.648473	1.236136	-0.000146
 807	8.0197e+01	7.8928	22.819910	0.000314	3.141741	1.064451	-0.000126
 808	8.0296e+01	7.8495	22.702833	0.000294	2.939048	0.995776	-0.000118
 809	8.0396e+01	7.8094	22.609979	0.000233	2.330969	0.789754	-0.000093
 810	8.0496e+01	7.7661	22.472716	0.000345	3.445780	1.167462	-0.000138
 811	8.0595e+01	7.7244	22.363713	0.000274	2.736355	0.927102	-0.000110
 812	8.0695e+01	7.6859	22.238562	0.000314	3.141741	1.064451	-0.000126
 813	8.0794e+01	7.6570	22.093225	0.000365	3.648473	1.236136	-0.000146
 814	8.0894e+01	7.6041	21.976148	0.000294	2.939048	0.995776	-0.000118
 815	8.0993e+01	7.5640	21.846960	0.000324	3.243087	1.098788	-0.000130
 816	8.1093e+01	7.5351	21.737957	0.000274	2.736355	0.927102	-0.000110
 817	8.1192e+01	7.4918	21.645103	0.000233	2.330969	0.789754	-0.000093
 818	8.1291e+01	7.4581	21.507841	0.000345	3.445780	1.167462	-0.000138
 819	8.1391e+01	7.4100	21.386727	0.000304	3.040395	1.030114	-0.000122
 820	8.1490e+01	7.3714	21.257538	0.000324	3.243087	1.098788	-0.000130
 821	8.1590e+01	7.3313	21.148536	0.000274	2.736355	0.927102	-0.000110
 822	8.1689e+01	7.2896	20.999162	0.000375	3.749820	1.270473	-0.000150
 823	8.1789e+01	7.2431	20.853825	0.000365	3.648473	1.236136	-0.000146
 824	8.1888e+01	7.2046	20.756933	0.000243	2.432316	0.824091	-0.000097
 825	8.1988e+01	7.1613	20.676191	0.000203	2.026930	0.686742	-0.000081
 826	8.2088e+01	7.1340	20.486445	0.000476	4.763285	1.613845	-0.000191
 827	8.2187e+01	7.0859	20.429925	0.000142	1.418851	0.480720	-0.000057
 828	8.2287e+01	7.0522	20.240180	0.000476	4.763285	1.613845	-0.000191
 829	8.2386e+01	7.0153	20.175586	0.000162	1.621544	0.549394	-0.000065
 830	8.2486e+01	6.9736	20.022175	0.000385	3.851166	1.304810	-0.000154
 831	8.2585e+01	6.9431	19.917209	0.000264	2.635009	0.892765	-0.000105
 832	8.2684e+01	6.8854	19.800132	0.000294	2.939048	0.995776	-0.000118
 833	8.2784e+01	6.8453	19.662870	0.000345	3.445780	1.167462	-0.000138
 834	8.2883e+01	6.8084	19.525607	0.000345	3.445780	1.167462	-0.000138
 835	8.2983e+01	6.7731	19.396419	0.000324	3.243087	1.098788	-0.000130
 836	8.3082e+01	6.7282	19.275305	0.000304	3.040395	1.030114	-0.000122
 837	8.3182e+01	6.6864	19.142079	0.000334	3.344434	1.133125	-0.000134
 838	8.3281e+01	6.6479	19.073448	0.000172	1.722890	0.583731	-0.000069
 839	8.3381e+01	6.6223	18.936185	0.000345	3.445780	1.167462	-0.000138
 840	8.3481e+01	6.5661	18.790848	0.000365	3.648473	1.236136	-0.000146
 841	8.3580e+01	6.5340	18.681846	0.000274	2.736355	0.927102	-0.000110
 842	8.3680e+01	6.4971	18.512286	0.000426	4.256552	1.442159	-0.000170
 843	8.3779e+01	6.4538	18.439617	0.000182	1.824237	0.618068	-0.000073
 844	8.3879e+01	6.4169	18.314466	0.000314	3.141741	1.064451	-0.000126
 845	8.3978e+01	6.3784	18.189315	0.000314	3.141741	1.064451	-0.000126
 846	8.4078e+01	6.3335	18.052052	0.000345	3.445780	1.167462	-0.000138
 847	8.4177e+01	6.2950	17.934976	0.000294	2.939048	0.995776	-0.000118
 848	8.4276e+01	6.2629	17.842121	0.000233	2.330969	0.789754	-0.000093
 849	8.4376e+01	6.2212	17.684673	0.000395	3.952513	1.339148	-0.000158
 850	8.4475e+01	6.1715	17.579708	0.000264	2.635009	0.892765	-0.000105
 851	8.4575e+01	6.1362	17.442445	0.000345	3.445780	1.167462	-0.000138
 852	8.4674e+01	6.0993	17.301145	0.000355	3.547127	1.201799	-0.000142
 853	8.4774e+01	6.0431	17.196180	0.000264	2.635009	0.892765	-0.000105
 854	8.4874e+01	6.0223	17.062954	0.000334	3.344434	1.133125	-0.000134
 855	8.4973e+01	5.9870	16.937803	0.000314	3.141741	1.064451	-0.000126
 856	8.5073e+01	5.9292	16.816689	0.000304	3.040395	1.030114	-0.000122
 857	8.5172e+01	5.8956	16.667315	0.000375	3.749820	1.270473	-0.000150
 858	8.5272e+01	5.8571	16.594646	0.000182	1.824237	0.618068	-0.000073
 859	8.5371e+01	5.8186	16.445272	0.000375	3.749820	1.270473	-0.000150
 860	8.5471e+01	5.7768	16.295898	0.000375	3.749820	1.270473	-0.000150
 861	8.5570e+01	5.7367	16.199007	0.000243	2.432316	0.824091	-0.000097
 862	8.5669e+01	5.6950	16.077893	0.000304	3.040395	1.030114	-0.000122
 863	8.5769e+01	5.6533	15.968890	0.000274	2.736355	0.927102	-0.000110
 864	8.5868e+01	5.6244	15.839702	0.000324	3.243087	1.098788	-0.000130
 865	8.5968e+01	5.5747	15.690328	0.000375	3.749820	1.270473	-0.000150
 866	8.6067e+01	5.5378	15.589400	0.000253	2.533662	0.858428	-0.000101
 867	8.6167e+01	5.4977	15.476360	0.000284	2.837702	0.961439	-0.000114
 868	8.6266e+01	5.4560	15.347172	0.000324	3.243087	1.098788	-0.000130
 869	8.6366e+01	5.4255	15.165500	0.000456	4.560592	1.545170	-0.000183
 870	8.6466e+01	5.3774	15.076683	0.000223	2.229623	0.755417	-0.000089
 871	8.6565e+01	5.3341	14.967681	0.000274	2.736355	0.927102	-0.000110
 872	8.6665e+01	5.2956	14.802158	0.000416	4.155206	1.407822	-0.000166
 873	8.6764e+01	5.2571	14.709304	0.000233	2.330969	0.789754	-0.000093
 874	8.6864e+01	5.2122	14.572041	0.000345	3.445780	1.167462	-0.000138
 875	8.6963e+01	5.1833	14.422667	0.000375	3.749820	1.270473	-0.000150
 876	8.7063e+01	5.1416	14.313665	0.000274	2.736355	0.927102	-0.000110
 877	8.7162e+01	5.0966	14.208699	0.000264	2.635009	0.892765	-0.000105
 878	8.7261e+01	5.0598	14.067399	0.000355	3.547127	1.201799	-0.000142
 879	8.7361e+01	5.0164	13.978582	0.000223	2.229623	0.755417	-0.000089
 880	8.7460e+01	4.9795	13.809023	0.000426	4.256552	1.442159	-0.000170
 881	8.7560e+01	4.9346	13.683872	0.000314	3.141741	1.064451	-0.000126
 882	8.7659e+01	4.8929	13.574869	0.000274	2.736355	0.927102	-0.000110
 883	8.7759e+01	4.8576	13.437606	0.000345	3.445780	1.167462	-0.000138
 884	8.7859e+01	4.8223	13.316492	0.000304	3.040395	1.030114	-0.000122
 885	8.7958e+01	4.7790	13.215564	0.000253	2.533662	0.858428	-0.000101
 886	8.8058e+01	4.7373	13.066190	0.000375	3.749820	1.270473	-0.000150
 887	8.8157e+01	4.7020	12.920853	0.000365	3.648473	1.236136	-0.000146
 888	8.8257e+01	4.6555	12.836073	0.000213	2.128276	0.721079	-0.000085
 889	8.8356e+01	4.6202	12.690736	0.000365	3.648473	1.236136	-0.000146
 890	8.8456e+01	4.5801	12.601919	0.000223	2.229623	0.755417	-0.000089
 891	8.8555e+01	4.5464	12.448508	0.000385	3.851166	1.304810	-0.000154
 892	8.8654e+01	4.4951	12.343543	0.000264	2.635009	0.892765	-0.000105
 893	8.8754e+01	4.4646	12.210317	0.000334	3.344434	1.133125	-0.000134
 894	8.8853e+01	4.4197	12.129574	0.000203	2.026930	0.686742	-0.000081
 895	8.8953e+01	4.3763	11.964052	0.000416	4.155206	1.407822	-0.000166
 896	8.9052e+01	4.3459	11.855049	0.000274	2.736355	0.927102	-0.000110
 897	8.9152e+01	4.3026	11.725861	0.000324	3.243087	1.098788	-0.000130
 898	8.9251e+01	4.2624	11.588598	0.000345	3.445780	1.167462	-0.000138
 899	8.9351e+01	4.2255	11.463447	0.000314	3.141741	1.064451	-0.000126
 900	8.9451e+01	4.1854	11.358481	0.000264	2.635009	0.892765	-0.000105
 901	8.9550e+01	4.1405	11.241404	0.000294	2.939048	0.995776	-0.000118
 902	8.9650e+01	4.0892	11.100105	0.000355	3.547127	1.201799	-0.000142
 903	8.9749e+01	4.0603	10.966879	0.000334	3.344434	1.133125	-0.000134
 904	8.9849e+01	4.0186	10.853839	0.000284	2.837702	0.961439	-0.000114
 905	8.9948e+01	3.9849	10.724651	0.000324	3.243087	1.098788	-0.000130
 906	9.0047e+01	3.9528	10.599500	0.000314	3.141741	1.064451	-0.000126
 907	9.0147e+01	3.9063	10.470312	0.000324	3.243087	1.098788	-0.000130
 908	9.0246e+01	3.8614	10.361309	0.000274	2.736355	0.927102	-0.000110
 909	9.0346e+01	3.8165	10.228083	0.000334	3.344434	1.133125	-0.000134
 910	9.0445e+01	3.7828	10.102932	0.000314	3.141741	1.064451	-0.000126
 911	9.0545e+01	3.7330	9.977781	0.000314	3.141741	1.064451	-0.000126
 912	9.0644e+01	3.7026	9.880890	0.000243	2.432316	0.824091	-0.000097
 913	9.0744e+01	3.6577	9.727479	0.000385	3.851166	1.304810	-0.000154
 914	9.0844e+01	3.6208	9.606364	0.000304	3.040395	1.030114	-0.000122
 915	9.0943e+01	3.5871	9.529659	0.000193	1.925583	0.652405	-0.000077
 916	9.1043e+01	3.5438	9.352025	0.000446	4.459245	1.510833	-0.000179
 917	9.1142e+01	3.4988	9.243022	0.000274	2.736355	0.927102	-0.000110
 918	9.1242e+01	3.4732	9.117871	0.000314	3.141741	1.064451	-0.000126
 919	9.1341e+01	3.4218	8.988683	0.000324	3.243087	1.098788	-0.000130
 920	9.1441e+01	3.3897	8.887754	0.000253	2.533662	0.858428	-0.000101
 921	9.1540e+01	3.3464	8.774715	0.000284	2.837702	0.961439	-0.000114
 922	9.1639e+01	3.3031	8.641489	0.000334	3.344434	1.133125	-0.000134
 923	9.1739e+01	3.2678	8.532486	0.000274	2.736355	0.927102	-0.000110
 924	9.1838e+01	3.2309	8.383112	0.000375	3.749820	1.270473	-0.000150
 925	9.1938e+01	3.1828	8.221627	0.000405	4.053859	1.373485	-0.000162
 926	9.2037e+01	3.1475	8.120699	0.000253	2.533662	0.858428	-0.000101
 927	9.2137e+01	3.1042	7.995547	0.000314	3.141741	1.064451	-0.000126
 928	9.2237e+01	3.0593	7.842136	0.000385	3.851166	1.304810	-0.000154
 929	9.2336e+01	3.0208	7.729096	0.000284	2.837702	0.961439	-0.000114
 930	9.2436e+01	2.9871	7.624131	0.000264	2.635009	0.892765	-0.000105
 931	9.2535e+01	2.9518	7.462645	0.000405	4.053859	1.373485	-0.000162
 932	9.2635e+01	2.9069	7.402088	0.000152	1.520197	0.515057	-0.000061
 933	9.2734e+01	2.8684	7.244640	0.000395	3.952513	1.339148	-0.000158
 934	9.2834e+01	2.8267	7.123526	0.000304	3.040395	1.030114	-0.000122
 935	9.2933e+01	2.7882	7.006449	0.000294	2.939048	0.995776	-0.000118
 936	9.3032e+01	2.7481	6.869186	0.000345	3.445780	1.167462	-0.000138
 937	9.3132e+01	2.7176	6.748072	0.000304	3.040395	1.030114	-0.000122
 938	9.3231e+01	2.6710	6.626958	0.000304	3.040395	1.030114	-0.000122
 939	9.3331e+01	2.6261	6.497770	0.000324	3.243087	1.098788	-0.000130
 940	9.3430e+01	2.5940	6.348396	0.000375	3.749820	1.270473	-0.000150
 941	9.3530e+01	2.5459	6.219208	0.000324	3.243087	1.098788	-0.000130
 942	9.3629e+01	2.5074	6.098094	0.000304	3.040395	1.030114	-0.000122
 943	9.3729e+01	2.4705	5.976979	0.000304	3.040395	1.030114	-0.000122
 944	9.3829e+01	2.4336	5.851828	0.000314	3.141741	1.064451	-0.000126
 945	9.3928e+01	2.3839	5.742826	0.000274	2.736355	0.927102	-0.000110
 946	9.4028e+01	2.3470	5.609600	0.000334	3.344434	1.133125	-0.000134
 947	9.4127e+01	2.3053	5.488486	0.000304	3.040395	1.030114	-0.000122
 948	9.4227e+01	2.2716	5.371409	0.000294	2.939048	0.995776	-0.000118
 949	9.4326e+01	2.2299	5.205887	0.000416	4.155206	1.407822	-0.000166
 950	9.4425e+01	2.1850	5.133218	0.000182	1.824237	0.618068	-0.000073
 951	9.4525e+01	2.1529	4.995955	0.000345	3.445780	1.167462	-0.000138
 952	9.4624e+01	2.1031	4.899064	0.000243	2.432316	0.824091	-0.000097
 953	9.4724e+01	2.0727	4.725467	0.000436	4.357899	1.476496	-0.000174
 954	9.4823e+01	2.0294	4.644725	0.000203	2.026930	0.686742	-0.000081
 955	9.4923e+01	1.9925	4.487276	0.000395	3.952513	1.339148	-0.000158
 956	9.5022e+01	1.9427	4.394422	0.000233	2.330969	0.789754	-0.000093
 957	9.5122e+01	1.9122	4.249085	0.000365	3.648473	1.236136	-0.000146
 958	9.5222e+01	1.8721	4.160268	0.000223	2.229623	0.755417	-0.000089
 959	9.5321e+01	1.8304	4.010894	0.000375	3.749820	1.270473	-0.000150
 960	9.5421e+01	1.7887	3.893817	0.000294	2.939048	0.995776	-0.000118
 961	9.5520e+01	1.7518	3.809038	0.000213	2.128276	0.721079	-0.000085
 962	9.5620e+01	1.7053	3.603144	0.000517	5.168671	1.751193	-0.000207
 963	9.5719e+01	1.6716	3.494141	0.000274	2.736355	0.927102	-0.000110
 964	9.5819e+01	1.6347	3.425510	0.000172	1.722890	0.583731	-0.000069
 965	9.5918e+01	1.5818	3.247876	0.000446	4.459245	1.510833	-0.000179
 966	9.6017e+01	1.5417	3.179244	0.000172	1.722890	0.583731	-0.000069
 967	9.6117e+01	1.5080	2.993536	0.000466	4.661938	1.579507	-0.000187
 968	9.6216e+01	1.4775	2.880496	0.000284	2.837702	0.961439	-0.000114
 969	9.6316e+01	1.4294	2.803791	0.000193	1.925583	0.652405	-0.000077
 970	9.6415e+01	1.3957	2.662491	0.000355	3.547127	1.201799	-0.000142
 971	9.6515e+01	1.3460	2.468709	0.000486	4.864631	1.648182	-0.000195
 972	9.6615e+01	1.3139	2.392003	0.000193	1.925583	0.652405	-0.000077
 973	9.6714e+01	1.2706	2.254740	0.000345	3.445780	1.167462	-0.000138
 974	9.6814e+01	1.2353	2.069032	0.000466	4.661938	1.579507	-0.000187
 975	9.6913e+01	1.1984	2.024624	0.000111	1.114811	0.377708	-0.000045
 976	9.7013e+01	1.1599	1.875250	0.000375	3.749820	1.270473	-0.000150
 977	9.7112e+01	1.1214	1.778358	0.000243	2.432316	0.824091	-0.000097
 978	9.7212e+01	1.0780	1.604761	0.000436	4.357899	1.476496	-0.000174
 979	9.7311e+01	1.0331	1.503833	0.000253	2.533662	0.858428	-0.000101
 980	9.7410e+01	0.9866	1.386756	0.000294	2.939048	0.995776	-0.000118
 981	9.7510e+01	0.9577	1.229308	0.000395	3.952513	1.339148	-0.000158
 982	9.7609e+01	0.9192	1.067822	0.000405	4.053859	1.373485	-0.000162
 983	9.7709e+01	0.8775	1.003228	0.000162	1.621544	0.549394	-0.000065
 984	9.7808e+01	0.8438	0.857891	0.000365	3.648473	1.236136	-0.000146
 985	9.7908e+01	0.7861	0.704480	0.000385	3.851166	1.304810	-0.000154
 986	9.8007e+01	0.7492	0.603552	0.000253	2.533662	0.858428	-0.000101
 987	9.8107e+01	0.7203	0.478401	0.000314	3.141741	1.064451	-0.000126
 988	9.8207e+01	0.6754	0.381509	0.000243	2.432316	0.824091	-0.000097
 989	9.8306e+01	0.6385	0.207912	0.000436	4.357899	1.476496	-0.000174
 990	9.8406e+01	0.5888	0.119096	0.000223	2.229623	0.755417	-0.000089
 991	9.8505e+01	0.5567	-0.010093	0.000324	3.243087	1.098788	-0.000130
 992	9.8605e+01	0.5166	-0.143318	0.000334	3.344434	1.133125	-0.000134
 993	9.8704e+01	0.4797	-0.256358	0.000284	2.837702	0.961439	-0.000114
 994	9.8803e+01	0.4315	-0.393621	0.000345	3.445780	1.167462	-0.000138
 995	9.8903e+01	0.3882	-0.510698	0.000294	2.939048	0.995776	-0.000118
 996	9.9002e+01	0.3577	-0.660072	0.000375	3.749820	1.270473	-0.000150
 997	9.9102e+01	0.3176	-0.736777	0.000193	1.925583	0.652405	-0.000077
 998	9.9201e+01	0.2759	-0.922486	0.000466	4.661938	1.579507	-0.000187
 999	9.9301e+01	0.2374	-1.031488	0.000274	2.736355	0.927102	-0.000110
1000	9.9400e+01	0.1925	-1.152602	0.000304	3.040395	1.030114	-0.000122
1001	9.9500e+01	0.1636	-1.261605	0.000274	2.736355	0.927102	-0.000110
1002	9.9600e+01	0.1251	-1.451350	0.000476	4.763285	1.613845	-0.000191
1003	9.9699e+01	0.0834	-1.515944	0.000162	1.621544	0.549394	-0.000065
1004	9.9799e+01	0.0337	-1.612836	0.000243	2.432316	0.824091	-0.000097
1005	9.9898e+01	0.0112	-1.758173	0.000365	3.648473	1.236136	-0.000146
1006	9.9998e+01	-0.0337	-1.875250	0.000294	2.939048	0.995776	-0.000118
1007	1.0010e+02	-0.0786	-1.992326	0.000294	2.939048	0.995776	-0.000118
1008	1.0020e+02	-0.1251	-2.145738	0.000385	3.851166	1.304810	-0.000154
1009	1.0030e+02	-0.1524	-2.230517	0.000213	2.128276	0.721079	-0.000085
1010	1.0040e+02	-0.1925	-2.379892	0.000375	3.749820	1.270473	-0.000150
1011	1.0050e+02	-0.2342	-2.521191	0.000355	3.547127	1.201799	-0.000142
1012	1.0059e+02	-0.2663	-2.589823	0.000172	1.722890	0.583731	-0.000069
1013	1.0069e+02	-0.3241	-2.739197	0.000375	3.749820	1.270473	-0.000150
1014	1.0079e+02	-0.3497	-2.892608	0.000385	3.851166	1.304810	-0.000154
1015	1.0089e+02	-0.3914	-3.025833	0.000334	3.344434	1.133125	-0.000134
1016	1.0099e+02	-0.4299	-3.130799	0.000264	2.635009	0.892765	-0.000105
1017	1.0109e+02	-0.4716	-3.239801	0.000274	2.736355	0.927102	-0.000110
1018	1.0119e+02	-0.5134	-3.389175	0.000375	3.749820	1.270473	-0.000150
1019	1.0129e+02	-0.5438	-3.477992	0.000223	2.229623	0.755417	-0.000089
1020	1.0139e+02	-0.5968	-3.623329	0.000365	3.648473	1.236136	-0.000146
1021	1.0149e+02	-0.6305	-3.695998	0.000182	1.824237	0.618068	-0.000073
1022	1.0159e+02	-0.6690	-3.853446	0.000395	3.952513	1.339148	-0.000158
1023	1.0169e+02	-0.6994	-4.014931	0.000405	4.053859	1.373485	-0.000162
1024	1.0179e+02	-0.7492	-4.079526	0.000162	1.621544	0.549394	-0.000065
1025	1.0189e+02	-0.7973	-4.212751	0.000334	3.344434	1.133125	-0.000134
1026	1.0199e+02	-0.8342	-4.362125	0.000375	3.749820	1.270473	-0.000150
1027	1.0209e+02	-0.8679	-4.511499	0.000375	3.749820	1.270473	-0.000150
1028	1.0219e+02	-0.9160	-4.592242	0.000203	2.026930	0.686742	-0.000081
1029	1.0229e+02	-0.9545	-4.721430	0.000324	3.243087	1.098788	-0.000130
1030	1.0239e+02	-0.9850	-4.854656	0.000334	3.344434	1.133125	-0.000134
1031	1.0248e+02	-1.0347	-4.963658	0.000274	2.736355	0.927102	-0.000110
1032	1.0258e+02	-1.0716	-5.068624	0.000264	2.635009	0.892765	-0.000105
1033	1.0268e+02	-1.1149	-5.213961	0.000365	3.648473	1.236136	-0.000146
1034	1.0278e+02	-1.1534	-5.343149	0.000324	3.243087	1.098788	-0.000130
1035	1.0288e+02	-1.1855	-5.500597	0.000395	3.952513	1.339148	-0.000158
1036	1.0298e+02	-1.2256	-5.605563	0.000264	2.635009	0.892765	-0.000105
1037	1.0308e+02	-1.2657	-5.726677	0.000304	3.040395	1.030114	-0.000122
1038	1.0318e+02	-1.3155	-5.843754	0.000294	2.939048	0.995776	-0.000118
1039	1.0328e+02	-1.3508	-6.001202	0.000395	3.952513	1.339148	-0.000158
1040	1.0338e+02	-1.3893	-6.126353	0.000314	3.141741	1.064451	-0.000126
1041	1.0348e+02	-1.4358	-6.247468	0.000304	3.040395	1.030114	-0.000122
1042	1.0358e+02	-1.4711	-6.356470	0.000274	2.736355	0.927102	-0.000110
1043	1.0368e+02	-1.5048	-6.477584	0.000304	3.040395	1.030114	-0.000122
1044	1.0378e+02	-1.5529	-6.574476	0.000243	2.432316	0.824091	-0.000097
1045	1.0388e+02	-1.5914	-6.695590	0.000304	3.040395	1.030114	-0.000122
1046	1.0398e+02	-1.6235	-6.849001	0.000385	3.851166	1.304810	-0.000154
1047	1.0408e+02	-1.6732	-6.970115	0.000304	3.040395	1.030114	-0.000122
1048	1.0418e+02	-1.7069	-7.054895	0.000213	2.128276	0.721079	-0.000085
1049	1.0428e+02	-1.7582	-7.240603	0.000466	4.661938	1.579507	-0.000187
1050	1.0438e+02	-1.7887	-7.325383	0.000213	2.128276	0.721079	-0.000085
1051	1.0447e+02	-1.8192	-7.450534	0.000314	3.141741	1.064451	-0.000126
1052	1.0457e+02	-1.8657	-7.563574	0.000284	2.837702	0.961439	-0.000114
1053	1.0467e+02	-1.9138	-7.704874	0.000355	3.547127	1.201799	-0.000142
1054	1.0477e+02	-1.9540	-7.854248	0.000375	3.749820	1.270473	-0.000150
1055	1.0487e+02	-1.9780	-7.914805	0.000152	1.520197	0.515057	-0.000061
1056	1.0497e+02	-2.0197	-8.080327	0.000416	4.155206	1.407822	-0.000166
1057	1.0507e+02	-2.0663	-8.189330	0.000274	2.736355	0.927102	-0.000110
1058	1.0517e+02	-2.1096	-8.306407	0.000294	2.939048	0.995776	-0.000118
1059	1.0527e+02	-2.1400	-8.407335	0.000253	2.533662	0.858428	-0.000101
1060	1.0537e+02	-2.1930	-8.544598	0.000345	3.445780	1.167462	-0.000138
1061	1.0547e+02	-2.2219	-8.649563	0.000264	2.635009	0.892765	-0.000105
1062	1.0557e+02	-2.2636	-8.770677	0.000304	3.040395	1.030114	-0.000122
1063	1.0567e+02	-2.3037	-8.891791	0.000304	3.040395	1.030114	-0.000122
1064	1.0577e+02	-2.3518	-9.053277	0.000405	4.053859	1.373485	-0.000162
1065	1.0587e+02	-2.3887	-9.121908	0.000172	1.722890	0.583731	-0.000069
1066	1.0597e+02	-2.4208	-9.251097	0.000324	3.243087	1.098788	-0.000130
1067	1.0607e+02	-2.4657	-9.400471	0.000375	3.749820	1.270473	-0.000150
1068	1.0617e+02	-2.5042	-9.517548	0.000294	2.939048	0.995776	-0.000118
1069	1.0627e+02	-2.5443	-9.630587	0.000284	2.837702	0.961439	-0.000114
1070	1.0637e+02	-2.5828	-9.775924	0.000365	3.648473	1.236136	-0.000146
1071	1.0647e+02	-2.6229	-9.917224	0.000355	3.547127	1.201799	-0.000142
1072	1.0656e+02	-2.6662	-9.981818	0.000162	1.621544	0.549394	-0.000065
1073	1.0666e+02	-2.7015	-10.135229	0.000385	3.851166	1.304810	-0.000154
1074	1.0676e+02	-2.7464	-10.264418	0.000324	3.243087	1.098788	-0.000130
1075	1.0686e+02	-2.7769	-10.341123	0.000193	1.925583	0.652405	-0.000077
1076	1.0696e+02	-2.8186	-10.518757	0.000446	4.459245	1.510833	-0.000179
1077	1.0706e+02	-2.8652	-10.587388	0.000172	1.722890	0.583731	-0.000069
1078	1.0716e+02	-2.8988	-10.756948	0.000426	4.256552	1.442159	-0.000170
1079	1.0726e+02	-2.9438	-10.829617	0.000182	1.824237	0.618068	-0.000073
1080	1.0736e+02	-2.9791	-10.966879	0.000345	3.445780	1.167462	-0.000138
1081	1.0746e+02	-3.0352	-11.083956	0.000294	2.939048	0.995776	-0.000118
1082	1.0756e+02	-3.0641	-11.192959	0.000274	2.736355	0.927102	-0.000110
1083	1.0766e+02	-3.1122	-11.338296	0.000365	3.648473	1.236136	-0.000146
1084	1.0776e+02	-3.1379	-11.487670	0.000375	3.749820	1.270473	-0.000150
1085	1.0786e+02	-3.1796	-11.588598	0.000253	2.533662	0.858428	-0.000101
1086	1.0796e+02	-3.2277	-11.729898	0.000355	3.547127	1.201799	-0.000142
1087	1.0806e+02	-3.2550	-11.834863	0.000264	2.635009	0.892765	-0.000105
1088	1.0816e+02	-3.2999	-11.887346	0.000132	1.317504	0.446383	-0.000053
1089	1.0826e+02	-3.3400	-12.052869	0.000416	4.155206	1.407822	-0.000166
1090	1.0836e+02	-3.3817	-12.133611	0.000203	2.026930	0.686742	-0.000081
1091	1.0845e+02	-3.4170	-12.287023	0.000385	3.851166	1.304810	-0.000154
1092	1.0855e+02	-3.4555	-12.400062	0.000284	2.837702	0.961439	-0.000114
1093	1.0865e+02	-3.4876	-12.553474	0.000385	3.851166	1.304810	-0.000154
1094	1.0875e+02	-3.5421	-12.710922	0.000395	3.952513	1.339148	-0.000158
1095	1.0885e+02	-3.5758	-12.771479	0.000152	1.520197	0.515057	-0.000061
1096	1.0895e+02	-3.6224	-12.892593	0.000304	3.040395	1.030114	-0.000122
1097	1.0905e+02	-3.6609	-12.993521	0.000253	2.533662	0.858428	-0.000101
1098	1.0915e+02	-3.6962	-13.114635	0.000304	3.040395	1.030114	-0.000122
1099	1.0925e+02	-3.7475	-13.231712	0.000294	2.939048	0.995776	-0.000118
1100	1.0935e+02	-3.7812	-13.360901	0.000324	3.243087	1.098788	-0.000130
1101	1.0945e+02	-3.8229	-13.498163	0.000345	3.445780	1.167462	-0.000138
1102	1.0955e+02	-3.8614	-13.635426	0.000345	3.445780	1.167462	-0.000138
1103	1.0965e+02	-3.8967	-13.736354	0.000253	2.533662	0.858428	-0.000101
1104	1.0975e+02	-3.9464	-13.877654	0.000355	3.547127	1.201799	-0.000142
1105	1.0985e+02	-3.9801	-13.978582	0.000253	2.533662	0.858428	-0.000101
1106	1.0995e+02	-4.0218	-14.071437	0.000233	2.330969	0.789754	-0.000093
1107	1.1005e+02	-4.0603	-14.164291	0.000233	2.330969	0.789754	-0.000093
1108	1.1015e+02	-4.0956	-14.333850	0.000426	4.256552	1.442159	-0.000170
1109	1.1025e+02	-4.1389	-14.434779	0.000253	2.533662	0.858428	-0.000101
1110	1.1035e+02	-4.1822	-14.580116	0.000365	3.648473	1.236136	-0.000146
1111	1.1044e+02	-4.2095	-14.717378	0.000345	3.445780	1.167462	-0.000138
1112	1.1054e+02	-4.2592	-14.761787	0.000111	1.114811	0.377708	-0.000045
1113	1.1064e+02	-4.2929	-14.939421	0.000446	4.459245	1.510833	-0.000179
1114	1.1074e+02	-4.3362	-15.036312	0.000243	2.432316	0.824091	-0.000097
1115	1.1084e+02	-4.3780	-15.169538	0.000334	3.344434	1.133125	-0.000134
1116	1.1094e+02	-4.4197	-15.282577	0.000284	2.837702	0.961439	-0.000114
1117	1.1104e+02	-4.4582	-15.387543	0.000264	2.635009	0.892765	-0.000105
1118	1.1114e+02	-4.4983	-15.512694	0.000314	3.141741	1.064451	-0.000126
1119	1.1124e+02	-4.5416	-15.633808	0.000304	3.040395	1.030114	-0.000122
1120	1.1134e+02	-4.5769	-15.750885	0.000294	2.939048	0.995776	-0.000118
1121	1.1144e+02	-4.6122	-15.819516	0.000172	1.722890	0.583731	-0.000069
1122	1.1154e+02	-4.6555	-15.968890	0.000375	3.749820	1.270473	-0.000150
1123	1.1164e+02	-4.7004	-16.085967	0.000294	2.939048	0.995776	-0.000118
1124	1.1174e+02	-4.7421	-16.223230	0.000345	3.445780	1.167462	-0.000138
1125	1.1184e+02	-4.7790	-16.324158	0.000253	2.533662	0.858428	-0.000101
1126	1.1194e+02	-4.8175	-16.493718	0.000426	4.256552	1.442159	-0.000170
1127	1.1204e+02	-4.8576	-16.574461	0.000203	2.026930	0.686742	-0.000081
1128	1.1214e+02	-4.8897	-16.683463	0.000274	2.736355	0.927102	-0.000110
1129	1.1224e+02	-4.9314	-16.808615	0.000314	3.141741	1.064451	-0.000126
1130	1.1234e+02	-4.9731	-16.913580	0.000264	2.635009	0.892765	-0.000105
1131	1.1244e+02	-5.0196	-17.046806	0.000334	3.344434	1.133125	-0.000134
1132	1.1253e+02	-5.0581	-17.151771	0.000264	2.635009	0.892765	-0.000105
1133	1.1263e+02	-5.0950	-17.256737	0.000264	2.635009	0.892765	-0.000105
1134	1.1273e+02	-5.1384	-17.426296	0.000426	4.256552	1.442159	-0.000170
1135	1.1283e+02	-5.1737	-17.527225	0.000253	2.533662	0.858428	-0.000101
1136	1.1293e+02	-5.2138	-17.616042	0.000223	2.229623	0.755417	-0.000089
1137	1.1303e+02	-5.2507	-17.729082	0.000284	2.837702	0.961439	-0.000114
1138	1.1313e+02	-5.2908	-17.870381	0.000355	3.547127	1.201799	-0.000142
1139	1.1323e+02	-5.3244	-18.015718	0.000365	3.648473	1.236136	-0.000146
1140	1.1333e+02	-5.3726	-18.108572	0.000233	2.330969	0.789754	-0.000093
1141	1.1343e+02	-5.4207	-18.253909	0.000365	3.648473	1.236136	-0.000146
1142	1.1353e+02	-5.4576	-18.383098	0.000324	3.243087	1.098788	-0.000130
1143	1.1363e+02	-5.4993	-18.455766	0.000182	1.824237	0.618068	-0.000073
1144	1.1373e+02	-5.5362	-18.593029	0.000345	3.445780	1.167462	-0.000138
1145	1.1383e+02	-5.5827	-18.730291	0.000345	3.445780	1.167462	-0.000138
1146	1.1393e+02	-5.6148	-18.831220	0.000253	2.533662	0.858428	-0.000101
1147	1.1403e+02	-5.6533	-18.956371	0.000314	3.141741	1.064451	-0.000126
1148	1.1413e+02	-5.6854	-19.073448	0.000294	2.939048	0.995776	-0.000118
1149	1.1423e+02	-5.7287	-19.166302	0.000233	2.330969	0.789754	-0.000093
1150	1.1433e+02	-5.7752	-19.263193	0.000243	2.432316	0.824091	-0.000097
1151	1.1442e+02	-5.8121	-19.400456	0.000345	3.445780	1.167462	-0.000138
1152	1.1452e+02	-5.8522	-19.533681	0.000334	3.344434	1.133125	-0.000134
1153	1.1462e+02	-5.8972	-19.614424	0.000203	2.026930	0.686742	-0.000081
1154	1.1472e+02	-5.9325	-19.775909	0.000405	4.053859	1.373485	-0.000162
1155	1.1482e+02	-5.9726	-19.897023	0.000304	3.040395	1.030114	-0.000122
1156	1.1492e+02	-6.0079	-20.001989	0.000264	2.635009	0.892765	-0.000105
1157	1.1502e+02	-6.0447	-20.106955	0.000264	2.635009	0.892765	-0.000105
1158	1.1512e+02	-6.0913	-20.248254	0.000355	3.547127	1.201799	-0.000142
1159	1.1522e+02	-6.1362	-20.328997	0.000203	2.026930	0.686742	-0.000081
1160	1.1532e+02	-6.1667	-20.450111	0.000304	3.040395	1.030114	-0.000122
1161	1.1542e+02	-6.2084	-20.623708	0.000436	4.357899	1.476496	-0.000174
1162	1.1552e+02	-6.2469	-20.688302	0.000162	1.621544	0.549394	-0.000065
1163	1.1562e+02	-6.2822	-20.821528	0.000334	3.344434	1.133125	-0.000134
1164	1.1572e+02	-6.3223	-20.918419	0.000243	2.432316	0.824091	-0.000097
1165	1.1582e+02	-6.3656	-21.043570	0.000314	3.141741	1.064451	-0.000126
1166	1.1592e+02	-6.4089	-21.176796	0.000334	3.344434	1.133125	-0.000134
1167	1.1602e+02	-6.4538	-21.249464	0.000182	1.824237	0.618068	-0.000073
1168	1.1612e+02	-6.4795	-21.382689	0.000334	3.344434	1.133125	-0.000134
1169	1.1622e+02	-6.5292	-21.475544	0.000233	2.330969	0.789754	-0.000093
1170	1.1632e+02	-6.5645	-21.608769	0.000334	3.344434	1.133125	-0.000134
1171	1.1642e+02	-6.6046	-21.741995	0.000334	3.344434	1.133125	-0.000134
1172	1.1651e+02	-6.6528	-21.887331	0.000365	3.648473	1.236136	-0.000146
1173	1.1661e+02	-6.6848	-21.939814	0.000132	1.317504	0.446383	-0.000053
1174	1.1671e+02	-6.7249	-22.085151	0.000365	3.648473	1.236136	-0.000146
1175	1.1681e+02	-6.7522	-22.198191	0.000284	2.837702	0.961439	-0.000114
1176	1.1691e+02	-6.8068	-22.311231	0.000284	2.837702	0.961439	-0.000114
1177	1.1701e+02	-6.8453	-22.432345	0.000304	3.040395	1.030114	-0.000122
1178	1.1711e+02	-6.8870	-22.549422	0.000294	2.939048	0.995776	-0.000118
1179	1.1721e+02	-6.9303	-22.658424	0.000274	2.736355	0.927102	-0.000110
1180	1.1731e+02	-6.9640	-22.807798	0.000375	3.749820	1.270473	-0.000150
1181	1.1741e+02	-7.0041	-22.884504	0.000193	1.925583	0.652405	-0.000077
1182	1.1751e+02	-7.0426	-22.997544	0.000284	2.837702	0.961439	-0.000114
1183	1.1761e+02	-7.0875	-23.122695	0.000314	3.141741	1.064451	-0.000126
1184	1.1771e+02	-7.1196	-23.243809	0.000304	3.040395	1.030114	-0.000122
1185	1.1781e+02	-7.1661	-23.340700	0.000243	2.432316	0.824091	-0.000097
1186	1.1791e+02	-7.1950	-23.441629	0.000253	2.533662	0.858428	-0.000101
1187	1.1801e+02	-7.2431	-23.582928	0.000355	3.547127	1.201799	-0.000142
1188	1.1811e+02	-7.2784	-23.704042	0.000304	3.040395	1.030114	-0.000122
1189	1.1821e+02	-7.3265	-23.776711	0.000182	1.824237	0.618068	-0.000073
1190	1.1831e+02	-7.3731	-23.885714	0.000274	2.736355	0.927102	-0.000110
1191	1.1841e+02	-7.3987	-24.010865	0.000314	3.141741	1.064451	-0.000126
1192	1.1850e+02	-7.4436	-24.176387	0.000416	4.155206	1.407822	-0.000166
1193	1.1860e+02	-7.4902	-24.249056	0.000182	1.824237	0.618068	-0.000073
1194	1.1870e+02	-7.5271	-24.366133	0.000294	2.939048	0.995776	-0.000118
1195	1.1880e+02	-7.5656	-24.483210	0.000294	2.939048	0.995776	-0.000118
1196	1.1890e+02	-7.6025	-24.576064	0.000233	2.330969	0.789754	-0.000093
1197	1.1900e+02	-7.6394	-24.705252	0.000324	3.243087	1.098788	-0.000130
1198	1.1910e+02	-7.6811	-24.846552	0.000355	3.547127	1.201799	-0.000142
1199	1.1920e+02	-7.7228	-24.886923	0.000101	1.013465	0.343371	-0.000041
1200	1.1930e+02	-7.7677	-25.036297	0.000375	3.749820	1.270473	-0.000150
1201	1.1940e+02	-7.8046	-25.125114	0.000223	2.229623	0.755417	-0.000089
1202	1.1950e+02	-7.8383	-25.331008	0.000517	5.168671	1.751193	-0.000207
1203	1.1960e+02	-7.8848	-25.391565	0.000152	1.520197	0.515057	-0.000061
1204	1.1970e+02	-7.9265	-25.516716	0.000314	3.141741	1.064451	-0.000126
1205	1.1980e+02	-7.9650	-25.601496	0.000213	2.128276	0.721079	-0.000085
1206	1.1990e+02	-7.9971	-25.726647	0.000314	3.141741	1.064451	-0.000126
1207	1.2000e+02	-8.0340	-25.839687	0.000284	2.837702	0.961439	-0.000114
1208	1.2010e+02	-8.0757	-25.944653	0.000264	2.635009	0.892765	-0.000105
1209	1.2020e+02	-8.1303	-26.089990	0.000365	3.648473	1.236136	-0.000146
1210	1.2030e+02	-8.1559	-26.186881	0.000243	2.432316	0.824091	-0.000097
1211	1.2039e+02	-8.1960	-26.263587	0.000193	1.925583	0.652405	-0.000077
1212	1.2049e+02	-8.2329	-26.408923	0.000365	3.648473	1.236136	-0.000146
1213	1.2059e+02	-8.2810	-26.554260	0.000365	3.648473	1.236136	-0.000146
1214	1.2069e+02	-8.3276	-26.635003	0.000203	2.026930	0.686742	-0.000081
1215	1.2079e+02	-8.3581	-26.744006	0.000274	2.736355	0.927102	-0.000110
1216	1.2089e+02	-8.3982	-26.869157	0.000314	3.141741	1.064451	-0.000126
1217	1.2099e+02	-8.4463	-26.998345	0.000324	3.243087	1.098788	-0.000130
1218	1.2109e+02	-8.4816	-27.099274	0.000253	2.533662	0.858428	-0.000101
1219	1.2119e+02	-8.5185	-27.180016	0.000203	2.026930	0.686742	-0.000081
1220	1.2129e+02	-8.5618	-27.297093	0.000294	2.939048	0.995776	-0.000118
1221	1.2139e+02	-8.6035	-27.410133	0.000284	2.837702	0.961439	-0.000114
1222	1.2149e+02	-8.6308	-27.527210	0.000294	2.939048	0.995776	-0.000118
1223	1.2159e+02	-8.6805	-27.640250	0.000284	2.837702	0.961439	-0.000114
1224	1.2169e+02	-8.7142	-27.765401	0.000314	3.141741	1.064451	-0.000126
1225	1.2179e+02	-8.7623	-27.870367	0.000264	2.635009	0.892765	-0.000105
1226	1.2189e+02	-8.7976	-27.971295	0.000253	2.533662	0.858428	-0.000101
1227	1.2199e+02	-8.8393	-28.039926	0.000172	1.722890	0.583731	-0.000069
1228	1.2209e+02	-8.8778	-28.209486	0.000426	4.256552	1.442159	-0.000170
1229	1.2219e+02	-8.9179	-28.253894	0.000111	1.114811	0.377708	-0.000045
1230	1.2229e+02	-8.9548	-28.411343	0.000395	3.952513	1.339148	-0.000158
1231	1.2239e+02	-8.9997	-28.520345	0.000274	2.736355	0.927102	-0.000110
1232	1.2248e+02	-9.0382	-28.593014	0.000182	1.824237	0.618068	-0.000073
1233	1.2258e+02	-9.0832	-28.673757	0.000203	2.026930	0.686742	-0.000081
1234	1.2268e+02	-9.1153	-28.835242	0.000405	4.053859	1.373485	-0.000162
1235	1.2278e+02	-9.1586	-28.992690	0.000395	3.952513	1.339148	-0.000158
1236	1.2288e+02	-9.1906	-29.045173	0.000132	1.317504	0.446383	-0.000053
1237	1.2298e+02	-9.2324	-29.170324	0.000314	3.141741	1.064451	-0.000126
1238	1.2308e+02	-9.2693	-29.295475	0.000314	3.141741	1.064451	-0.000126
1239	1.2318e+02	-9.3206	-29.412552	0.000294	2.939048	0.995776	-0.000118
1240	1.2328e+02	-9.3511	-29.481184	0.000172	1.722890	0.583731	-0.000069
1241	1.2338e+02	-9.3992	-29.618446	0.000345	3.445780	1.167462	-0.000138
1242	1.2348e+02	-9.4361	-29.703226	0.000213	2.128276	0.721079	-0.000085
1243	1.2358e+02	-9.4714	-29.848563	0.000365	3.648473	1.236136	-0.000146
1244	1.2368e+02	-9.5019	-29.905083	0.000142	1.418851	0.480720	-0.000057
1245	1.2378e+02	-9.5612	-30.038308	0.000334	3.344434	1.133125	-0.000134
1246	1.2388e+02	-9.5965	-30.135200	0.000243	2.432316	0.824091	-0.000097
1247	1.2398e+02	-9.6479	-30.272462	0.000345	3.445780	1.167462	-0.000138
1248	1.2408e+02	-9.6687	-30.345131	0.000182	1.824237	0.618068	-0.000073
1249	1.2418e+02	-9.7120	-30.494505	0.000375	3.749820	1.270473	-0.000150
1250	1.2428e+02	-9.7457	-30.591396	0.000243	2.432316	0.824091	-0.000097
1251	1.2438e+02	-9.8051	-30.692324	0.000253	2.533662	0.858428	-0.000101
1252	1.2447e+02	-9.8291	-30.825550	0.000334	3.344434	1.133125	-0.000134
1253	1.2457e+02	-9.8789	-30.934553	0.000274	2.736355	0.927102	-0.000110
1254	1.2467e+02	-9.9222	-31.003184	0.000172	1.722890	0.583731	-0.000069
1255	1.2477e+02	-9.9575	-31.140447	0.000345	3.445780	1.167462	-0.000138
1256	1.2487e+02	-9.9992	-31.237338	0.000243	2.432316	0.824091	-0.000097
1257	1.2497e+02	-10.0249	-31.358452	0.000304	3.040395	1.030114	-0.000122
1258	1.2507e+02	-10.0730	-31.479566	0.000304	3.040395	1.030114	-0.000122
1259	1.2517e+02	-10.1163	-31.580494	0.000253	2.533662	0.858428	-0.000101
1260	1.2527e+02	-10.1436	-31.653163	0.000182	1.824237	0.618068	-0.000073
1261	1.2537e+02	-10.1965	-31.774277	0.000304	3.040395	1.030114	-0.000122
1262	1.2547e+02	-10.2302	-31.899428	0.000314	3.141741	1.064451	-0.000126
1263	1.2557e+02	-10.2703	-32.028616	0.000324	3.243087	1.098788	-0.000130
1264	1.2567e+02	-10.3104	-32.125508	0.000243	2.432316	0.824091	-0.000097
1265	1.2577e+02	-10.3457	-32.198176	0.000182	1.824237	0.618068	-0.000073
1266	1.2587e+02	-10.3906	-32.282956	0.000213	2.128276	0.721079	-0.000085
1267	1.2597e+02	-10.4291	-32.436367	0.000385	3.851166	1.304810	-0.000154
1268	1.2607e+02	-10.4676	-32.537295	0.000253	2.533662	0.858428	-0.000101
1269	1.2617e+02	-10.5077	-32.666484	0.000324	3.243087	1.098788	-0.000130
1270	1.2627e+02	-10.5575	-32.759338	0.000233	2.330969	0.789754	-0.000093
1271	1.2636e+02	-10.5944	-32.892563	0.000334	3.344434	1.133125	-0.000134
1272	1.2646e+02	-10.6232	-32.949083	0.000142	1.418851	0.480720	-0.000057
1273	1.2656e+02	-10.6681	-33.070197	0.000304	3.040395	1.030114	-0.000122
1274	1.2666e+02	-10.7050	-33.171126	0.000253	2.533662	0.858428	-0.000101
1275	1.2676e+02	-10.7452	-33.276091	0.000264	2.635009	0.892765	-0.000105
1276	1.2686e+02	-10.8013	-33.401243	0.000314	3.141741	1.064451	-0.000126
1277	1.2696e+02	-10.8318	-33.510245	0.000274	2.736355	0.927102	-0.000110
1278	1.2706e+02	-10.8687	-33.578877	0.000172	1.722890	0.583731	-0.000069
1279	1.2716e+02	-10.9120	-33.708065	0.000324	3.243087	1.098788	-0.000130
1280	1.2726e+02	-10.9425	-33.808993	0.000253	2.533662	0.858428	-0.000101
1281	1.2736e+02	-10.9938	-33.986627	0.000446	4.459245	1.510833	-0.000179
1282	1.2746e+02	-11.0323	-34.035073	0.000122	1.216158	0.412045	-0.000049
1283	1.2756e+02	-11.0772	-34.164261	0.000324	3.243087	1.098788	-0.000130
1284	1.2766e+02	-11.1013	-34.240967	0.000193	1.925583	0.652405	-0.000077
1285	1.2776e+02	-11.1462	-34.374192	0.000334	3.344434	1.133125	-0.000134
1286	1.2786e+02	-11.1895	-34.487232	0.000284	2.837702	0.961439	-0.000114
1287	1.2796e+02	-11.2377	-34.559900	0.000182	1.824237	0.618068	-0.000073
1288	1.2806e+02	-11.2649	-34.693126	0.000334	3.344434	1.133125	-0.000134
1289	1.2816e+02	-11.3034	-34.785980	0.000233	2.330969	0.789754	-0.000093
1290	1.2826e+02	-11.3483	-34.886908	0.000253	2.533662	0.858428	-0.000101
1291	1.2835e+02	-11.3852	-34.955540	0.000172	1.722890	0.583731	-0.000069
1292	1.2845e+02	-11.4318	-35.092802	0.000345	3.445780	1.167462	-0.000138
1293	1.2855e+02	-11.4638	-35.205842	0.000284	2.837702	0.961439	-0.000114
1294	1.2865e+02	-11.5072	-35.294659	0.000223	2.229623	0.755417	-0.000089
1295	1.2875e+02	-11.5457	-35.423848	0.000324	3.243087	1.098788	-0.000130
1296	1.2885e+02	-11.5906	-35.544962	0.000304	3.040395	1.030114	-0.000122
1297	1.2895e+02	-11.6291	-35.597444	0.000132	1.317504	0.446383	-0.000053
1298	1.2905e+02	-11.6628	-35.746818	0.000375	3.749820	1.270473	-0.000150
1299	1.2915e+02	-11.7109	-35.847747	0.000253	2.533662	0.858428	-0.000101
1300	1.2925e+02	-11.7526	-35.952712	0.000264	2.635009	0.892765	-0.000105
1301	1.2935e+02	-11.7895	-36.053641	0.000253	2.533662	0.858428	-0.000101
1302	1.2945e+02	-11.8200	-36.134383	0.000203	2.026930	0.686742	-0.000081
1303	1.2955e+02	-11.8665	-36.271646	0.000345	3.445780	1.167462	-0.000138
1304	1.2965e+02	-11.8970	-36.384686	0.000284	2.837702	0.961439	-0.000114
1305	1.2975e+02	-11.9419	-36.481577	0.000243	2.432316	0.824091	-0.000097
1306	1.2985e+02	-11.9772	-36.550208	0.000172	1.722890	0.583731	-0.000069
1307	1.2995e+02	-12.0237	-36.707657	0.000395	3.952513	1.339148	-0.000158
1308	1.3005e+02	-12.0638	-36.816659	0.000274	2.736355	0.927102	-0.000110
1309	1.3015e+02	-12.0991	-36.877216	0.000152	1.520197	0.515057	-0.000061
1310	1.3025e+02	-12.1489	-37.014479	0.000345	3.445780	1.167462	-0.000138
1311	1.3034e+02	-12.1793	-37.095222	0.000203	2.026930	0.686742	-0.000081
1312	1.3044e+02	-12.2210	-37.228447	0.000334	3.344434	1.133125	-0.000134
1313	1.3054e+02	-12.2579	-37.361673	0.000334	3.344434	1.133125	-0.000134
1314	1.3064e+02	-12.3045	-37.414155	0.000132	1.317504	0.446383	-0.000053
1315	1.3074e+02	-12.3430	-37.555455	0.000355	3.547127	1.201799	-0.000142
1316	1.3084e+02	-12.3895	-37.624087	0.000172	1.722890	0.583731	-0.000069
1317	1.3094e+02	-12.4248	-37.733089	0.000274	2.736355	0.927102	-0.000110
1318	1.3104e+02	-12.4633	-37.862278	0.000324	3.243087	1.098788	-0.000130
1319	1.3114e+02	-12.5050	-37.975317	0.000284	2.837702	0.961439	-0.000114
1320	1.3124e+02	-12.5467	-38.112580	0.000345	3.445780	1.167462	-0.000138
1321	1.3134e+02	-12.5788	-38.193323	0.000203	2.026930	0.686742	-0.000081
1322	1.3144e+02	-12.6205	-38.261954	0.000172	1.722890	0.583731	-0.000069
1323	1.3154e+02	-12.6590	-38.395179	0.000334	3.344434	1.133125	-0.000134
1324	1.3164e+02	-12.7023	-38.524368	0.000324	3.243087	1.098788	-0.000130
1325	1.3174e+02	-12.7488	-38.580888	0.000142	1.418851	0.480720	-0.000057
1326	1.3184e+02	-12.7873	-38.669705	0.000223	2.229623	0.755417	-0.000089
1327	1.3194e+02	-12.8323	-38.782744	0.000284	2.837702	0.961439	-0.000114
1328	1.3204e+02	-12.8740	-38.936156	0.000385	3.851166	1.304810	-0.000154
1329	1.3214e+02	-12.9077	-39.033047	0.000243	2.432316	0.824091	-0.000097
1330	1.3224e+02	-12.9462	-39.158198	0.000314	3.141741	1.064451	-0.000126
1331	1.3234e+02	-12.9766	-39.226829	0.000172	1.722890	0.583731	-0.000069
1332	1.3243e+02	-13.0232	-39.307572	0.000203	2.026930	0.686742	-0.000081
1333	1.3253e+02	-13.0552	-39.412538	0.000264	2.635009	0.892765	-0.000105
1334	1.3263e+02	-13.0970	-39.501355	0.000223	2.229623	0.755417	-0.000089
1335	1.3273e+02	-13.1435	-39.630543	0.000324	3.243087	1.098788	-0.000130
1336	1.3283e+02	-13.1788	-39.719360	0.000223	2.229623	0.755417	-0.000089
1337	1.3293e+02	-13.2237	-39.828363	0.000274	2.736355	0.927102	-0.000110
1338	1.3303e+02	-13.2590	-39.977737	0.000375	3.749820	1.270473	-0.000150
1339	1.3313e+02	-13.3007	-40.066554	0.000223	2.229623	0.755417	-0.000089
1340	1.3323e+02	-13.3376	-40.147296	0.000203	2.026930	0.686742	-0.000081
1341	1.3333e+02	-13.3857	-40.264373	0.000294	2.939048	0.995776	-0.000118
1342	1.3343e+02	-13.4194	-40.385487	0.000304	3.040395	1.030114	-0.000122
1343	1.3353e+02	-13.4579	-40.462193	0.000193	1.925583	0.652405	-0.000077
1344	1.3363e+02	-13.4948	-40.583307	0.000304	3.040395	1.030114	-0.000122
1345	1.3373e+02	-13.5365	-40.676161	0.000233	2.330969	0.789754	-0.000093
1346	1.3383e+02	-13.5846	-40.785164	0.000274	2.736355	0.927102	-0.000110
1347	1.3393e+02	-13.6264	-40.902241	0.000294	2.939048	0.995776	-0.000118
1348	1.3403e+02	-13.6552	-40.970872	0.000172	1.722890	0.583731	-0.000069
1349	1.3413e+02	-13.7001	-41.071800	0.000253	2.533662	0.858428	-0.000101
1350	1.3423e+02	-13.7338	-41.184840	0.000284	2.837702	0.961439	-0.000114
1351	1.3432e+02	-13.7820	-41.289806	0.000264	2.635009	0.892765	-0.000105
1352	1.3442e+02	-13.8205	-41.374586	0.000213	2.128276	0.721079	-0.000085
1353	1.3452e+02	-13.8606	-41.495700	0.000304	3.040395	1.030114	-0.000122
1354	1.3462e+02	-13.9007	-41.584517	0.000223	2.229623	0.755417	-0.000089
1355	1.3472e+02	-13.9456	-41.729854	0.000365	3.648473	1.236136	-0.000146
1356	1.3482e+02	-13.9697	-41.802522	0.000182	1.824237	0.618068	-0.000073
1357	1.3492e+02	-14.0194	-41.887302	0.000213	2.128276	0.721079	-0.000085
1358	1.3502e+02	-14.0515	-42.000342	0.000284	2.837702	0.961439	-0.000114
1359	1.3512e+02	-14.0852	-42.089159	0.000223	2.229623	0.755417	-0.000089
1360	1.3522e+02	-14.1317	-42.210273	0.000304	3.040395	1.030114	-0.000122
1361	1.3532e+02	-14.1814	-42.327350	0.000294	2.939048	0.995776	-0.000118
1362	1.3542e+02	-14.2183	-42.428278	0.000253	2.533662	0.858428	-0.000101
1363	1.3552e+02	-14.2552	-42.513058	0.000213	2.128276	0.721079	-0.000085
1364	1.3562e+02	-14.3049	-42.585726	0.000182	1.824237	0.618068	-0.000073
1365	1.3572e+02	-14.3274	-42.743175	0.000395	3.952513	1.339148	-0.000158
1366	1.3582e+02	-14.3755	-42.811806	0.000172	1.722890	0.583731	-0.000069
1367	1.3592e+02	-14.4076	-42.916771	0.000264	2.635009	0.892765	-0.000105
1368	1.3602e+02	-14.4509	-43.045960	0.000324	3.243087	1.098788	-0.000130
1369	1.3612e+02	-14.4958	-43.114591	0.000172	1.722890	0.583731	-0.000069
1370	1.3622e+02	-14.5215	-43.219557	0.000264	2.635009	0.892765	-0.000105
1371	1.3631e+02	-14.5745	-43.324522	0.000264	2.635009	0.892765	-0.000105
1372	1.3641e+02	-14.6081	-43.433525	0.000274	2.736355	0.927102	-0.000110
1373	1.3651e+02	-14.6499	-43.534453	0.000253	2.533662	0.858428	-0.000101
1374	1.3661e+02	-14.6964	-43.643456	0.000274	2.736355	0.927102	-0.000110
1375	1.3671e+02	-14.7317	-43.744384	0.000253	2.533662	0.858428	-0.000101
1376	1.3681e+02	-14.7670	-43.861461	0.000294	2.939048	0.995776	-0.000118
1377	1.3691e+02	-14.8087	-43.942204	0.000203	2.026930	0.686742	-0.000081
1378	1.3701e+02	-14.8536	-44.079467	0.000345	3.445780	1.167462	-0.000138
1379	1.3711e+02	-14.8793	-44.115801	0.000091	0.912118	0.309034	-0.000037
1380	1.3721e+02	-14.9370	-44.261138	0.000365	3.648473	1.236136	-0.000146
1381	1.3731e+02	-14.9691	-44.349955	0.000223	2.229623	0.755417	-0.000089
1382	1.3741e+02	-15.0124	-44.446846	0.000243	2.432316	0.824091	-0.000097
1383	1.3751e+02	-15.0493	-44.543737	0.000243	2.432316	0.824091	-0.000097
1384	1.3761e+02	-15.0910	-44.644666	0.000253	2.533662	0.858428	-0.000101
1385	1.3771e+02	-15.1327	-44.765780	0.000304	3.040395	1.030114	-0.000122
1386	1.3781e+02	-15.1744	-44.874782	0.000274	2.736355	0.927102	-0.000110
1387	1.3791e+02	-15.2065	-44.939376	0.000162	1.621544	0.549394	-0.000065
1388	1.3801e+02	-15.2514	-45.068565	0.000324	3.243087	1.098788	-0.000130
1389	1.3811e+02	-15.2835	-45.149308	0.000203	2.026930	0.686742	-0.000081
1390	1.3821e+02	-15.3268	-45.262347	0.000284	2.837702	0.961439	-0.000114
1391	1.3831e+02	-15.3669	-45.399610	0.000345	3.445780	1.167462	-0.000138
1392	1.3840e+02	-15.4119	-45.448056	0.000122	1.216158	0.412045	-0.000049
1393	1.3850e+02	-15.4568	-45.565133	0.000294	2.939048	0.995776	-0.000118
1394	1.3860e+02	-15.4841	-45.629727	0.000162	1.621544	0.549394	-0.000065
1395	1.3870e+02	-15.5370	-45.734692	0.000264	2.635009	0.892765	-0.000105
1396	1.3880e+02	-15.5723	-45.859843	0.000314	3.141741	1.064451	-0.000126
1397	1.3890e+02	-15.6108	-45.944623	0.000213	2.128276	0.721079	-0.000085
1398	1.3900e+02	-15.6525	-46.057663	0.000284	2.837702	0.961439	-0.000114
1399	1.3910e+02	-15.6958	-46.126294	0.000172	1.722890	0.583731	-0.000069
1400	1.3920e+02	-15.7231	-46.259520	0.000334	3.344434	1.133125	-0.000134
1401	1.3930e+02	-15.7600	-46.348337	0.000223	2.229623	0.755417	-0.000089
1402	1.3940e+02	-15.8017	-46.453302	0.000264	2.635009	0.892765	-0.000105
1403	1.3950e+02	-15.8434	-46.538082	0.000213	2.128276	0.721079	-0.000085
1404	1.3960e+02	-15.8899	-46.647085	0.000274	2.736355	0.927102	-0.000110
1405	1.3970e+02	-15.9284	-46.715716	0.000172	1.722890	0.583731	-0.000069
1406	1.3980e+02	-15.9621	-46.824719	0.000274	2.736355	0.927102	-0.000110
1407	1.3990e+02	-16.0135	-46.933722	0.000274	2.736355	0.927102	-0.000110
1408	1.4000e+02	-16.0552	-47.030613	0.000243	2.432316	0.824091	-0.000097
1409	1.4010e+02	-16.0889	-47.163838	0.000334	3.344434	1.133125	-0.000134
1410	1.4020e+02	-16.1306	-47.248618	0.000213	2.128276	0.721079	-0.000085
1411	1.4029e+02	-16.1707	-47.325324	0.000193	1.925583	0.652405	-0.000077
1412	1.4039e+02	-16.2108	-47.450475	0.000314	3.141741	1.064451	-0.000126
1413	1.4049e+02	-16.2525	-47.551403	0.000253	2.533662	0.858428	-0.000101
1414	1.4059e+02	-16.2862	-47.644257	0.000233	2.330969	0.789754	-0.000093
1415	1.4069e+02	-16.3263	-47.725000	0.000203	2.026930	0.686742	-0.000081
1416	1.4079e+02	-16.3776	-47.829966	0.000264	2.635009	0.892765	-0.000105
1417	1.4089e+02	-16.4113	-47.926857	0.000243	2.432316	0.824091	-0.000097
1418	1.4099e+02	-16.4450	-48.039897	0.000284	2.837702	0.961439	-0.000114
1419	1.4109e+02	-16.4867	-48.136788	0.000243	2.432316	0.824091	-0.000097
1420	1.4119e+02	-16.5220	-48.249828	0.000284	2.837702	0.961439	-0.000114
1421	1.4129e+02	-16.5701	-48.358830	0.000274	2.736355	0.927102	-0.000110
1422	1.4139e+02	-16.5990	-48.423425	0.000162	1.621544	0.549394	-0.000065
1423	1.4149e+02	-16.6407	-48.524353	0.000253	2.533662	0.858428	-0.000101
1424	1.4159e+02	-16.6824	-48.629319	0.000264	2.635009	0.892765	-0.000105
1425	1.4169e+02	-16.7225	-48.718136	0.000223	2.229623	0.755417	-0.000089
1426	1.4179e+02	-16.7658	-48.843287	0.000314	3.141741	1.064451	-0.000126
1427	1.4189e+02	-16.8059	-48.936141	0.000233	2.330969	0.789754	-0.000093
1428	1.4199e+02	-16.8444	-49.024958	0.000223	2.229623	0.755417	-0.000089
1429	1.4209e+02	-16.8829	-49.101663	0.000193	1.925583	0.652405	-0.000077
1430	1.4219e+02	-16.9311	-49.230852	0.000324	3.243087	1.098788	-0.000130
1431	1.4228e+02	-16.9696	-49.315632	0.000213	2.128276	0.721079	-0.000085
1432	1.4238e+02	-17.0081	-49.420597	0.000264	2.635009	0.892765	-0.000105
1433	1.4248e+02	-17.0402	-49.537674	0.000294	2.939048	0.995776	-0.000118
1434	1.4258e+02	-17.0867	-49.654751	0.000294	2.939048	0.995776	-0.000118
1435	1.4268e+02	-17.1284	-49.735494	0.000203	2.026930	0.686742	-0.000081
1436	1.4278e+02	-17.1621	-49.856608	0.000304	3.040395	1.030114	-0.000122
1437	1.4288e+02	-17.1990	-49.965610	0.000274	2.736355	0.927102	-0.000110
1438	1.4298e+02	-17.2455	-50.034242	0.000172	1.722890	0.583731	-0.000069
1439	1.4308e+02	-17.2840	-50.127096	0.000233	2.330969	0.789754	-0.000093
1440	1.4318e+02	-17.3353	-50.240136	0.000284	2.837702	0.961439	-0.000114
1441	1.4328e+02	-17.3594	-50.316841	0.000193	1.925583	0.652405	-0.000077
1442	1.4338e+02	-17.4011	-50.441992	0.000314	3.141741	1.064451	-0.000126
1443	1.4348e+02	-17.4428	-50.526772	0.000213	2.128276	0.721079	-0.000085
1444	1.4358e+02	-17.4813	-50.651924	0.000314	3.141741	1.064451	-0.000126
1445	1.4368e+02	-17.5375	-50.756889	0.000264	2.635009	0.892765	-0.000105
1446	1.4378e+02	-17.5663	-50.845706	0.000223	2.229623	0.755417	-0.000089
1447	1.4388e+02	-17.6129	-50.918374	0.000182	1.824237	0.618068	-0.000073
1448	1.4398e+02	-17.6337	-51.027377	0.000274	2.736355	0.927102	-0.000110
1449	1.4408e+02	-17.6819	-51.140417	0.000284	2.837702	0.961439	-0.000114
1450	1.4418e+02	-17.7220	-51.269605	0.000324	3.243087	1.098788	-0.000130
1451	1.4428e+02	-17.7556	-51.342274	0.000182	1.824237	0.618068	-0.000073
1452	1.4437e+02	-17.8006	-51.439165	0.000243	2.432316	0.824091	-0.000097
1453	1.4447e+02	-17.8407	-51.560279	0.000304	3.040395	1.030114	-0.000122
1454	1.4457e+02	-17.8808	-51.645059	0.000213	2.128276	0.721079	-0.000085
1455	1.4467e+02	-17.9273	-51.745987	0.000253	2.533662	0.858428	-0.000101
1456	1.4477e+02	-17.9578	-51.830767	0.000213	2.128276	0.721079	-0.000085
1457	1.4487e+02	-18.0011	-51.915547	0.000213	2.128276	0.721079	-0.000085
1458	1.4497e+02	-18.0396	-52.028587	0.000284	2.837702	0.961439	-0.000114
1459	1.4507e+02	-18.0877	-52.121441	0.000233	2.330969	0.789754	-0.000093
1460	1.4517e+02	-18.1150	-52.226406	0.000264	2.635009	0.892765	-0.000105
1461	1.4527e+02	-18.1567	-52.319261	0.000233	2.330969	0.789754	-0.000093
1462	1.4537e+02	-18.1952	-52.452486	0.000334	3.344434	1.133125	-0.000134
1463	1.4547e+02	-18.2369	-52.545340	0.000233	2.330969	0.789754	-0.000093
1464	1.4557e+02	-18.2818	-52.626083	0.000203	2.026930	0.686742	-0.000081
1465	1.4567e+02	-18.3139	-52.731048	0.000264	2.635009	0.892765	-0.000105
1466	1.4577e+02	-18.3701	-52.852163	0.000304	3.040395	1.030114	-0.000122
1467	1.4587e+02	-18.3957	-52.953091	0.000253	2.533662	0.858428	-0.000101
1468	1.4597e+02	-18.4407	-53.045945	0.000233	2.330969	0.789754	-0.000093
1469	1.4607e+02	-18.4824	-53.150911	0.000264	2.635009	0.892765	-0.000105
1470	1.4617e+02	-18.5209	-53.284136	0.000334	3.344434	1.133125	-0.000134
1471	1.4626e+02	-18.5610	-53.372953	0.000223	2.229623	0.755417	-0.000089
1472	1.4636e+02	-18.6027	-53.502141	0.000324	3.243087	1.098788	-0.000130
1473	1.4646e+02	-18.6380	-53.542513	0.000101	1.013465	0.343371	-0.000041
1474	1.4656e+02	-18.6717	-53.663627	0.000304	3.040395	1.030114	-0.000122
1475	1.4666e+02	-18.7198	-53.788778	0.000314	3.141741	1.064451	-0.000126
1476	1.4676e+02	-18.7535	-53.897781	0.000274	2.736355	0.927102	-0.000110
1477	1.4686e+02	-18.7920	-54.010820	0.000284	2.837702	0.961439	-0.000114
1478	1.4696e+02	-18.8369	-54.115786	0.000264	2.635009	0.892765	-0.000105
1479	1.4706e+02	-18.8786	-54.196529	0.000203	2.026930	0.686742	-0.000081
1480	1.4716e+02	-18.9123	-54.353977	0.000395	3.952513	1.339148	-0.000158
1481	1.4726e+02	-18.9540	-54.446831	0.000233	2.330969	0.789754	-0.000093
1482	1.4736e+02	-18.9973	-54.555834	0.000274	2.736355	0.927102	-0.000110
1483	1.4746e+02	-19.0422	-54.652725	0.000243	2.432316	0.824091	-0.000097
1484	1.4756e+02	-19.0823	-54.777876	0.000314	3.141741	1.064451	-0.000126
1485	1.4766e+02	-19.1241	-54.870730	0.000233	2.330969	0.789754	-0.000093
1486	1.4776e+02	-19.1545	-54.975696	0.000264	2.635009	0.892765	-0.000105
1487	1.4786e+02	-19.1946	-55.108921	0.000334	3.344434	1.133125	-0.000134
1488	1.4796e+02	-19.2412	-55.161404	0.000132	1.317504	0.446383	-0.000053
1489	1.4806e+02	-19.2781	-55.290593	0.000324	3.243087	1.098788	-0.000130
1490	1.4816e+02	-19.3166	-55.407669	0.000294	2.939048	0.995776	-0.000118
1491	1.4825e+02	-19.3535	-55.532821	0.000314	3.141741	1.064451	-0.000126
1492	1.4835e+02	-19.3936	-55.641823	0.000274	2.736355	0.927102	-0.000110
1493	1.4845e+02	-19.4353	-55.754863	0.000284	2.837702	0.961439	-0.000114
1494	1.4855e+02	-19.4706	-55.871940	0.000294	2.939048	0.995776	-0.000118
1495	1.4865e+02	-19.5219	-55.984980	0.000284	2.837702	0.961439	-0.000114
1496	1.4875e+02	-19.5524	-56.057648	0.000182	1.824237	0.618068	-0.000073
1497	1.4885e+02	-19.5973	-56.194911	0.000345	3.445780	1.167462	-0.000138
1498	1.4895e+02	-19.6310	-56.328136	0.000334	3.344434	1.133125	-0.000134
1499	1.4905e+02	-19.6727	-56.404842	0.000193	1.925583	0.652405	-0.000077
1500	1.4915e+02	-19.7112	-56.534030	0.000324	3.243087	1.098788	-0.000130
1501	1.4925e+02	-19.7529	-56.618810	0.000213	2.128276	0.721079	-0.000085
1502	1.4935e+02	-19.7914	-56.747999	0.000324	3.243087	1.098788	-0.000130
1503	1.4945e+02	-19.8315	-56.865075	0.000294	2.939048	0.995776	-0.000118
1504	1.4955e+02	-19.8652	-56.978115	0.000284	2.837702	0.961439	-0.000114
1505	1.4965e+02	-19.9198	-57.095192	0.000294	2.939048	0.995776	-0.000118
1506	1.4975e+02	-19.9502	-57.212269	0.000294	2.939048	0.995776	-0.000118
1507	1.4985e+02	-19.9871	-57.329346	0.000294	2.939048	0.995776	-0.000118
1508	1.4995e+02	-19.9534	-57.248603	0.000203	2.026930	0.686742	0.000081
1509	1.5005e+02	-19.9117	-57.212269	0.000091	0.912118	0.309034	0.000037
1510	1.5015e+02	-19.8764	-57.175935	0.000091	0.912118	0.309034	0.000037
1511	1.5025e+02	-19.8363	-57.083081	0.000233	2.330969	0.789754	0.000093
1512	1.5034e+02	-19.7802	-57.018487	0.000162	1.621544	0.549394	0.000065
1513	1.5044e+02	-19.7577	-56.966004	0.000132	1.317504	0.446383	0.000053
1514	1.5054e+02	-19.7080	-56.901410	0.000162	1.621544	0.549394	0.000065
1515	1.5064e+02	-19.6695	-56.832778	0.000172	1.722890	0.583731	0.000069
1516	1.5074e+02	-19.6310	-56.804518	0.000071	0.709425	0.240360	0.000028
1517	1.5084e+02	-19.5989	-56.739924	0.000162	1.621544	0.549394	0.000065
1518	1.5094e+02	-19.5540	-56.655144	0.000213	2.128276	0.721079	0.000085
1519	1.5104e+02	-19.5315	-56.570365	0.000213	2.128276	0.721079	0.000085
1520	1.5114e+02	-19.4609	-56.550179	0.000051	0.506732	0.171686	0.000020
1521	1.5124e+02	-19.4305	-56.433102	0.000294	2.939048	0.995776	0.000118
1522	1.5134e+02	-19.3984	-56.396768	0.000091	0.912118	0.309034	0.000037
1523	1.5144e+02	-19.3583	-56.271616	0.000314	3.141741	1.064451	0.000126
1524	1.5154e+02	-19.3118	-56.215097	0.000142	1.418851	0.480720	0.000057
1525	1.5164e+02	-19.2765	-56.130317	0.000213	2.128276	0.721079	0.000085
1526	1.5174e+02	-19.2428	-56.045537	0.000213	2.128276	0.721079	0.000085
1527	1.5184e+02	-19.2027	-55.989017	0.000142	1.418851	0.480720	0.000057
1528	1.5194e+02	-19.1545	-55.859829	0.000324	3.243087	1.098788	0.000130
1529	1.5204e+02	-19.1176	-55.867903	-0.000020	-0.202693	-0.068674	-0.000008
1530	1.5214e+02	-19.0872	-55.754863	0.000284	2.837702	0.961439	0.000114
1531	1.5224e+02	-19.0358	-55.702380	0.000132	1.317504	0.446383	0.000053
1532	1.5233e+02	-19.0053	-55.597415	0.000264	2.635009	0.892765	0.000105
1533	1.5243e+02	-18.9524	-55.524746	0.000182	1.824237	0.618068	0.000073
1534	1.5253e+02	-18.9171	-55.452078	0.000182	1.824237	0.618068	0.000073
1535	1.5263e+02	-18.8802	-55.391521	0.000152	1.520197	0.515057	0.000061
1536	1.5273e+02	-18.8353	-55.310778	0.000203	2.026930	0.686742	0.000081
1537	1.5283e+02	-18.8000	-55.250221	0.000152	1.520197	0.515057	0.000061
1538	1.5293e+02	-18.7599	-55.153330	0.000243	2.432316	0.824091	0.000097
1539	1.5303e+02	-18.7182	-55.068550	0.000213	2.128276	0.721079	0.000085
1540	1.5313e+02	-18.6733	-55.028179	0.000101	1.013465	0.343371	0.000041
1541	1.5323e+02	-18.6428	-54.886879	0.000355	3.547127	1.201799	0.000142
1542	1.5333e+02	-18.5979	-54.846508	0.000101	1.013465	0.343371	0.000041
1543	1.5343e+02	-18.5594	-54.749616	0.000243	2.432316	0.824091	0.000097
1544	1.5353e+02	-18.5128	-54.656762	0.000233	2.330969	0.789754	0.000093
1545	1.5363e+02	-18.4792	-54.616391	0.000101	1.013465	0.343371	0.000041
1546	1.5373e+02	-18.4455	-54.507388	0.000274	2.736355	0.927102	0.000110
1547	1.5383e+02	-18.4054	-54.438757	0.000172	1.722890	0.583731	0.000069
1548	1.5393e+02	-18.3556	-54.362051	0.000193	1.925583	0.652405	0.000077
1549	1.5403e+02	-18.3219	-54.257086	0.000264	2.635009	0.892765	0.000105
1550	1.5413e+02	-18.2738	-54.184417	0.000182	1.824237	0.618068	0.000073
1551	1.5422e+02	-18.2465	-54.103675	0.000203	2.026930	0.686742	0.000081
1552	1.5432e+02	-18.2016	-54.039080	0.000162	1.621544	0.549394	0.000065
1553	1.5442e+02	-18.1535	-53.930078	0.000274	2.736355	0.927102	0.000110
1554	1.5452e+02	-18.1230	-53.849335	0.000203	2.026930	0.686742	0.000081
1555	1.5462e+02	-18.0733	-53.760518	0.000223	2.229623	0.755417	0.000089
1556	1.5472e+02	-18.0364	-53.691887	0.000172	1.722890	0.583731	0.000069
1557	1.5482e+02	-18.0043	-53.582884	0.000274	2.736355	0.927102	0.000110
1558	1.5492e+02	-17.9578	-53.518290	0.000162	1.621544	0.549394	0.000065
1559	1.5502e+02	-17.9225	-53.437547	0.000203	2.026930	0.686742	0.000081
1560	1.5512e+02	-17.8824	-53.332582	0.000264	2.635009	0.892765	0.000105
1561	1.5522e+02	-17.8455	-53.272025	0.000152	1.520197	0.515057	0.000061
1562	1.5532e+02	-17.8070	-53.154948	0.000294	2.939048	0.995776	0.000118
1563	1.5542e+02	-17.7669	-53.086316	0.000172	1.722890	0.583731	0.000069
1564	1.5552e+02	-17.7252	-53.009611	0.000193	1.925583	0.652405	0.000077
1565	1.5562e+02	-17.6867	-52.880422	0.000324	3.243087	1.098788	0.000130
1566	1.5572e+02	-17.6417	-52.823903	0.000142	1.418851	0.480720	0.000057
1567	1.5582e+02	-17.6016	-52.739123	0.000213	2.128276	0.721079	0.000085
1568	1.5592e+02	-17.5647	-52.658380	0.000203	2.026930	0.686742	0.000081
1569	1.5602e+02	-17.5327	-52.569563	0.000223	2.229623	0.755417	0.000089
1570	1.5612e+02	-17.4829	-52.472672	0.000243	2.432316	0.824091	0.000097
1571	1.5622e+02	-17.4428	-52.400003	0.000182	1.824237	0.618068	0.000073
1572	1.5631e+02	-17.4011	-52.282926	0.000294	2.939048	0.995776	0.000118
1573	1.5641e+02	-17.3546	-52.202184	0.000203	2.026930	0.686742	0.000081
1574	1.5651e+02	-17.3241	-52.117404	0.000213	2.128276	0.721079	0.000085
1575	1.5661e+02	-17.2808	-52.085107	0.000081	0.810772	0.274697	0.000032
1576	1.5671e+02	-17.2423	-51.980141	0.000264	2.635009	0.892765	0.000105
1577	1.5681e+02	-17.2038	-51.883250	0.000243	2.432316	0.824091	0.000097
1578	1.5691e+02	-17.1653	-51.782322	0.000253	2.533662	0.858428	0.000101
1579	1.5701e+02	-17.1284	-51.705616	0.000193	1.925583	0.652405	0.000077
1580	1.5711e+02	-17.0851	-51.592576	0.000284	2.837702	0.961439	0.000114
1581	1.5721e+02	-17.0434	-51.519908	0.000182	1.824237	0.618068	0.000073
1582	1.5731e+02	-16.9985	-51.435128	0.000213	2.128276	0.721079	0.000085
1583	1.5741e+02	-16.9599	-51.366497	0.000172	1.722890	0.583731	0.000069
1584	1.5751e+02	-16.9295	-51.281717	0.000213	2.128276	0.721079	0.000085
1585	1.5761e+02	-16.8910	-51.176751	0.000264	2.635009	0.892765	0.000105
1586	1.5771e+02	-16.8444	-51.063711	0.000284	2.837702	0.961439	0.000114
1587	1.5781e+02	-16.8027	-51.019303	0.000111	1.114811	0.377708	0.000045
1588	1.5791e+02	-16.7658	-50.906263	0.000284	2.837702	0.961439	0.000114
1589	1.5801e+02	-16.7273	-50.797260	0.000274	2.736355	0.927102	0.000110
1590	1.5811e+02	-16.6985	-50.740741	0.000142	1.418851	0.480720	0.000057
1591	1.5821e+02	-16.6567	-50.647886	0.000233	2.330969	0.789754	0.000093
1592	1.5830e+02	-16.6038	-50.550995	0.000243	2.432316	0.824091	0.000097
1593	1.5840e+02	-16.5637	-50.433918	0.000294	2.939048	0.995776	0.000118
1594	1.5850e+02	-16.5236	-50.373361	0.000152	1.520197	0.515057	0.000061
1595	1.5860e+02	-16.4867	-50.276470	0.000243	2.432316	0.824091	0.000097
1596	1.5870e+02	-16.4450	-50.232061	0.000111	1.114811	0.377708	0.000045
1597	1.5880e+02	-16.4065	-50.094799	0.000345	3.445780	1.167462	0.000138
1598	1.5890e+02	-16.3632	-50.030205	0.000162	1.621544	0.549394	0.000065
1599	1.5900e+02	-16.3199	-49.941388	0.000223	2.229623	0.755417	0.000089
1600	1.5910e+02	-16.2878	-49.800088	0.000355	3.547127	1.201799	0.000142
1601	1.5920e+02	-16.2509	-49.747605	0.000132	1.317504	0.446383	0.000053
1602	1.5930e+02	-16.2124	-49.707234	0.000101	1.013465	0.343371	0.000041
1603	1.5940e+02	-16.1707	-49.565934	0.000355	3.547127	1.201799	0.000142
1604	1.5950e+02	-16.1322	-49.473080	0.000233	2.330969	0.789754	0.000093
1605	1.5960e+02	-16.0840	-49.372152	0.000253	2.533662	0.858428	0.000101
1606	1.5970e+02	-16.0423	-49.307557	0.000162	1.621544	0.549394	0.000065
1607	1.5980e+02	-16.0054	-49.234889	0.000182	1.824237	0.618068	0.000073
1608	1.5990e+02	-15.9701	-49.093589	0.000355	3.547127	1.201799	0.000142
1609	1.6000e+02	-15.9236	-49.024958	0.000172	1.722890	0.583731	0.000069
1610	1.6010e+02	-15.8947	-48.948252	0.000193	1.925583	0.652405	0.000077
1611	1.6019e+02	-15.8562	-48.867510	0.000203	2.026930	0.686742	0.000081
1612	1.6029e+02	-15.8193	-48.774655	0.000233	2.330969	0.789754	0.000093
1613	1.6039e+02	-15.7712	-48.693913	0.000203	2.026930	0.686742	0.000081
1614	1.6049e+02	-15.7359	-48.572799	0.000304	3.040395	1.030114	0.000122
1615	1.6059e+02	-15.6894	-48.504167	0.000172	1.722890	0.583731	0.000069
1616	1.6069e+02	-15.6493	-48.435536	0.000172	1.722890	0.583731	0.000069
1617	1.6079e+02	-15.6060	-48.302311	0.000334	3.344434	1.133125	0.000134
1618	1.6089e+02	-15.5659	-48.245791	0.000142	1.418851	0.480720	0.000057
1619	1.6099e+02	-15.5306	-48.136788	0.000274	2.736355	0.927102	0.000110
1620	1.6109e+02	-15.4889	-48.027785	0.000274	2.736355	0.927102	0.000110
1621	1.6119e+02	-15.4488	-47.922820	0.000264	2.635009	0.892765	0.000105
1622	1.6129e+02	-15.4135	-47.809780	0.000284	2.837702	0.961439	0.000114
1623	1.6139e+02	-15.3766	-47.761334	0.000122	1.216158	0.412045	0.000049
1624	1.6149e+02	-15.3349	-47.668480	0.000233	2.330969	0.789754	0.000093
1625	1.6159e+02	-15.2899	-47.547366	0.000304	3.040395	1.030114	0.000122
1626	1.6169e+02	-15.2514	-47.450475	0.000243	2.432316	0.824091	0.000097
1627	1.6179e+02	-15.2129	-47.361658	0.000223	2.229623	0.755417	0.000089
1628	1.6189e+02	-15.1664	-47.284952	0.000193	1.925583	0.652405	0.000077
1629	1.6199e+02	-15.1263	-47.204210	0.000203	2.026930	0.686742	0.000081
1630	1.6209e+02	-15.0942	-47.079058	0.000314	3.141741	1.064451	0.000126
1631	1.6219e+02	-15.0557	-46.957944	0.000304	3.040395	1.030114	0.000122
1632	1.6228e+02	-15.0188	-46.889313	0.000172	1.722890	0.583731	0.000069
1633	1.6238e+02	-14.9691	-46.812607	0.000193	1.925583	0.652405	0.000077
1634	1.6248e+02	-14.9274	-46.707642	0.000264	2.635009	0.892765	0.000105
1635	1.6258e+02	-14.8889	-46.639011	0.000172	1.722890	0.583731	0.000069
1636	1.6268e+02	-14.8440	-46.558268	0.000203	2.026930	0.686742	0.000081
1637	1.6278e+02	-14.8119	-46.441191	0.000294	2.939048	0.995776	0.000118
1638	1.6288e+02	-14.7718	-46.356411	0.000213	2.128276	0.721079	0.000085
1639	1.6298e+02	-14.7269	-46.194926	0.000405	4.053859	1.373485	0.000162
1640	1.6308e+02	-14.6980	-46.174740	0.000051	0.506732	0.171686	0.000020
1641	1.6318e+02	-14.6595	-46.081886	0.000233	2.330969	0.789754	0.000093
1642	1.6328e+02	-14.6146	-45.972883	0.000274	2.736355	0.927102	0.000110
1643	1.6338e+02	-14.5841	-45.867918	0.000264	2.635009	0.892765	0.000105
1644	1.6348e+02	-14.5392	-45.827546	0.000101	1.013465	0.343371	0.000041
1645	1.6358e+02	-14.4958	-45.690284	0.000345	3.445780	1.167462	0.000138
1646	1.6368e+02	-14.4654	-45.621652	0.000172	1.722890	0.583731	0.000069
1647	1.6378e+02	-14.4124	-45.536873	0.000213	2.128276	0.721079	0.000085
1648	1.6388e+02	-14.3723	-45.427870	0.000274	2.736355	0.927102	0.000110
1649	1.6398e+02	-14.3434	-45.347127	0.000203	2.026930	0.686742	0.000081
1650	1.6408e+02	-14.2905	-45.242162	0.000264	2.635009	0.892765	0.000105
1651	1.6418e+02	-14.2440	-45.145270	0.000243	2.432316	0.824091	0.000097
1652	1.6427e+02	-14.2135	-45.016082	0.000324	3.243087	1.098788	0.000130
1653	1.6437e+02	-14.1734	-44.923228	0.000233	2.330969	0.789754	0.000093
1654	1.6447e+02	-14.1317	-44.870745	0.000132	1.317504	0.446383	0.000053
1655	1.6457e+02	-14.0996	-44.765780	0.000264	2.635009	0.892765	0.000105
1656	1.6467e+02	-14.0515	-44.672926	0.000233	2.330969	0.789754	0.000093
1657	1.6477e+02	-14.0146	-44.559886	0.000284	2.837702	0.961439	0.000114
1658	1.6487e+02	-13.9793	-44.446846	0.000284	2.837702	0.961439	0.000114
1659	1.6497e+02	-13.9424	-44.398400	0.000122	1.216158	0.412045	0.000049
1660	1.6507e+02	-13.8991	-44.321695	0.000193	1.925583	0.652405	0.000077
1661	1.6517e+02	-13.8542	-44.188469	0.000334	3.344434	1.133125	0.000134
1662	1.6527e+02	-13.8173	-44.099652	0.000223	2.229623	0.755417	0.000089
1663	1.6537e+02	-13.7804	-44.018910	0.000203	2.026930	0.686742	0.000081
1664	1.6547e+02	-13.7370	-43.897795	0.000304	3.040395	1.030114	0.000122
1665	1.6557e+02	-13.7018	-43.796867	0.000253	2.533662	0.858428	0.000101
1666	1.6567e+02	-13.6633	-43.720161	0.000193	1.925583	0.652405	0.000077
1667	1.6577e+02	-13.6135	-43.619233	0.000253	2.533662	0.858428	0.000101
1668	1.6587e+02	-13.5750	-43.546565	0.000182	1.824237	0.618068	0.000073
1669	1.6597e+02	-13.5461	-43.433525	0.000284	2.837702	0.961439	0.000114
1670	1.6607e+02	-13.5012	-43.328559	0.000264	2.635009	0.892765	0.000105
1671	1.6616e+02	-13.4643	-43.227631	0.000253	2.533662	0.858428	0.000101
1672	1.6626e+02	-13.4178	-43.150925	0.000193	1.925583	0.652405	0.000077
1673	1.6636e+02	-13.3921	-43.033848	0.000294	2.939048	0.995776	0.000118
1674	1.6646e+02	-13.3392	-42.924846	0.000274	2.736355	0.927102	0.000110
1675	1.6656e+02	-13.3039	-42.827954	0.000243	2.432316	0.824091	0.000097
1676	1.6666e+02	-13.2606	-42.747212	0.000203	2.026930	0.686742	0.000081
1677	1.6676e+02	-13.2205	-42.654358	0.000233	2.330969	0.789754	0.000093
1678	1.6686e+02	-13.1772	-42.545355	0.000274	2.736355	0.927102	0.000110
1679	1.6696e+02	-13.1419	-42.468649	0.000193	1.925583	0.652405	0.000077
1680	1.6706e+02	-13.1034	-42.371758	0.000243	2.432316	0.824091	0.000097
1681	1.6716e+02	-13.0520	-42.250644	0.000304	3.040395	1.030114	0.000122
1682	1.6726e+02	-13.0264	-42.198161	0.000132	1.317504	0.446383	0.000053
1683	1.6736e+02	-12.9718	-42.064936	0.000334	3.344434	1.133125	0.000134
1684	1.6746e+02	-12.9381	-42.004379	0.000152	1.520197	0.515057	0.000061
1685	1.6756e+02	-12.8996	-41.883265	0.000304	3.040395	1.030114	0.000122
1686	1.6766e+02	-12.8676	-41.774262	0.000274	2.736355	0.927102	0.000110
1687	1.6776e+02	-12.8226	-41.645074	0.000324	3.243087	1.098788	0.000130
1688	1.6786e+02	-12.7825	-41.588554	0.000142	1.418851	0.480720	0.000057
1689	1.6796e+02	-12.7456	-41.463403	0.000314	3.141741	1.064451	0.000126
1690	1.6806e+02	-12.6991	-41.382660	0.000203	2.026930	0.686742	0.000081
1691	1.6816e+02	-12.6606	-41.326140	0.000142	1.418851	0.480720	0.000057
1692	1.6825e+02	-12.6269	-41.188877	0.000345	3.445780	1.167462	0.000138
1693	1.6835e+02	-12.5916	-41.043540	0.000365	3.648473	1.236136	0.000146
1694	1.6845e+02	-12.5467	-41.003169	0.000101	1.013465	0.343371	0.000041
1695	1.6855e+02	-12.5002	-40.878018	0.000314	3.141741	1.064451	0.000126
1696	1.6865e+02	-12.4665	-40.781127	0.000243	2.432316	0.824091	0.000097
1697	1.6875e+02	-12.4264	-40.696347	0.000213	2.128276	0.721079	0.000085
1698	1.6885e+02	-12.3863	-40.587344	0.000274	2.736355	0.927102	0.000110
1699	1.6895e+02	-12.3478	-40.494490	0.000233	2.330969	0.789754	0.000093
1700	1.6905e+02	-12.3013	-40.385487	0.000274	2.736355	0.927102	0.000110
1701	1.6915e+02	-12.2660	-40.308782	0.000193	1.925583	0.652405	0.000077
1702	1.6925e+02	-12.2275	-40.199779	0.000274	2.736355	0.927102	0.000110
1703	1.6935e+02	-12.1906	-40.110962	0.000223	2.229623	0.755417	0.000089
1704	1.6945e+02	-12.1489	-40.042331	0.000172	1.722890	0.583731	0.000069
1705	1.6955e+02	-12.1023	-39.905068	0.000345	3.445780	1.167462	0.000138
1706	1.6965e+02	-12.0767	-39.824325	0.000203	2.026930	0.686742	0.000081
1707	1.6975e+02	-12.0301	-39.687063	0.000345	3.445780	1.167462	0.000138
1708	1.6985e+02	-11.9852	-39.618432	0.000172	1.722890	0.583731	0.000069
1709	1.6995e+02	-11.9467	-39.513466	0.000264	2.635009	0.892765	0.000105
1710	1.7005e+02	-11.9002	-39.440798	0.000182	1.824237	0.618068	0.000073
1711	1.7015e+02	-11.8649	-39.331795	0.000274	2.736355	0.927102	0.000110
1712	1.7024e+02	-11.8280	-39.242978	0.000223	2.229623	0.755417	0.000089
1713	1.7034e+02	-11.7911	-39.146087	0.000243	2.432316	0.824091	0.000097
1714	1.7044e+02	-11.7478	-39.037084	0.000274	2.736355	0.927102	0.000110
1715	1.7054e+02	-11.7077	-38.907896	0.000324	3.243087	1.098788	0.000130
1716	1.7064e+02	-11.6596	-38.815042	0.000233	2.330969	0.789754	0.000093
1717	1.7074e+02	-11.6259	-38.714113	0.000253	2.533662	0.858428	0.000101
1718	1.7084e+02	-11.5858	-38.592999	0.000304	3.040395	1.030114	0.000122
1719	1.7094e+02	-11.5489	-38.488034	0.000264	2.635009	0.892765	0.000105
1720	1.7104e+02	-11.5056	-38.455736	0.000081	0.810772	0.274697	0.000032
1721	1.7114e+02	-11.4655	-38.346734	0.000274	2.736355	0.927102	0.000110
1722	1.7124e+02	-11.4286	-38.213508	0.000334	3.344434	1.133125	0.000134
1723	1.7134e+02	-11.3933	-38.132766	0.000203	2.026930	0.686742	0.000081
1724	1.7144e+02	-11.3451	-38.039911	0.000233	2.330969	0.789754	0.000093
1725	1.7154e+02	-11.3114	-37.938983	0.000253	2.533662	0.858428	0.000101
1726	1.7164e+02	-11.2745	-37.801720	0.000345	3.445780	1.167462	0.000138
1727	1.7174e+02	-11.2248	-37.720978	0.000203	2.026930	0.686742	0.000081
1728	1.7184e+02	-11.1927	-37.611975	0.000274	2.736355	0.927102	0.000110
1729	1.7194e+02	-11.1430	-37.482787	0.000324	3.243087	1.098788	0.000130
1730	1.7204e+02	-11.1061	-37.385896	0.000243	2.432316	0.824091	0.000097
1731	1.7213e+02	-11.0724	-37.252670	0.000334	3.344434	1.133125	0.000134
1732	1.7223e+02	-11.0259	-37.216336	0.000091	0.912118	0.309034	0.000037
1733	1.7233e+02	-10.9874	-37.070999	0.000365	3.648473	1.236136	0.000146
1734	1.7243e+02	-10.9505	-36.961996	0.000274	2.736355	0.927102	0.000110
1735	1.7253e+02	-10.9104	-36.861068	0.000253	2.533662	0.858428	0.000101
1736	1.7263e+02	-10.8703	-36.780325	0.000203	2.026930	0.686742	0.000081
1737	1.7273e+02	-10.8414	-36.707657	0.000182	1.824237	0.618068	0.000073
1738	1.7283e+02	-10.7965	-36.594617	0.000284	2.837702	0.961439	0.000114
1739	1.7293e+02	-10.7484	-36.489651	0.000264	2.635009	0.892765	0.000105
1740	1.7303e+02	-10.7163	-36.400834	0.000223	2.229623	0.755417	0.000089
1741	1.7313e+02	-10.6714	-36.243386	0.000395	3.952513	1.339148	0.000158
1742	1.7323e+02	-10.6200	-36.138421	0.000264	2.635009	0.892765	0.000105
1743	1.7333e+02	-10.5960	-36.053641	0.000213	2.128276	0.721079	0.000085
1744	1.7343e+02	-10.5510	-35.960787	0.000233	2.330969	0.789754	0.000093
1745	1.7353e+02	-10.5029	-35.863895	0.000243	2.432316	0.824091	0.000097
1746	1.7363e+02	-10.4692	-35.738744	0.000314	3.141741	1.064451	0.000126
1747	1.7373e+02	-10.4259	-35.653964	0.000213	2.128276	0.721079	0.000085
1748	1.7383e+02	-10.3890	-35.528813	0.000314	3.141741	1.064451	0.000126
1749	1.7393e+02	-10.3521	-35.415773	0.000284	2.837702	0.961439	0.000114
1750	1.7403e+02	-10.3120	-35.343105	0.000182	1.824237	0.618068	0.000073
1751	1.7413e+02	-10.2783	-35.258325	0.000213	2.128276	0.721079	0.000085
1752	1.7422e+02	-10.2366	-35.137211	0.000304	3.040395	1.030114	0.000122
1753	1.7432e+02	-10.1853	-35.008023	0.000324	3.243087	1.098788	0.000130
1754	1.7442e+02	-10.1564	-34.923243	0.000213	2.128276	0.721079	0.000085
1755	1.7452e+02	-10.1099	-34.834426	0.000223	2.229623	0.755417	0.000089
1756	1.7462e+02	-10.0634	-34.733497	0.000253	2.533662	0.858428	0.000101
1757	1.7472e+02	-10.0361	-34.584123	0.000375	3.749820	1.270473	0.000150
1758	1.7482e+02	-9.9928	-34.471083	0.000284	2.837702	0.961439	0.000114
1759	1.7492e+02	-9.9607	-34.374192	0.000243	2.432316	0.824091	0.000097
1760	1.7502e+02	-9.9142	-34.269227	0.000264	2.635009	0.892765	0.000105
1761	1.7512e+02	-9.8853	-34.192521	0.000193	1.925583	0.652405	0.000077
1762	1.7522e+02	-9.8307	-34.071407	0.000304	3.040395	1.030114	0.000122
1763	1.7532e+02	-9.7922	-33.958367	0.000284	2.837702	0.961439	0.000114
1764	1.7542e+02	-9.7441	-33.869550	0.000223	2.229623	0.755417	0.000089
1765	1.7552e+02	-9.7120	-33.776696	0.000233	2.330969	0.789754	0.000093
1766	1.7562e+02	-9.6719	-33.683842	0.000233	2.330969	0.789754	0.000093
1767	1.7572e+02	-9.6398	-33.558691	0.000314	3.141741	1.064451	0.000126
1768	1.7582e+02	-9.5917	-33.465837	0.000233	2.330969	0.789754	0.000093
1769	1.7592e+02	-9.5644	-33.316463	0.000375	3.749820	1.270473	0.000150
1770	1.7602e+02	-9.5163	-33.235720	0.000203	2.026930	0.686742	0.000081
1771	1.7612e+02	-9.4682	-33.094420	0.000355	3.547127	1.201799	0.000142
1772	1.7621e+02	-9.4329	-33.094420	0.000000	0.000000	0.000000	0.000000
1773	1.7631e+02	-9.3912	-32.941009	0.000385	3.851166	1.304810	0.000154
1774	1.7641e+02	-9.3591	-32.779524	0.000405	4.053859	1.373485	0.000162
1775	1.7651e+02	-9.3206	-32.714929	0.000162	1.621544	0.549394	0.000065
1776	1.7661e+02	-9.2725	-32.589778	0.000314	3.141741	1.064451	0.000126
1777	1.7671e+02	-9.2356	-32.533258	0.000142	1.418851	0.480720	0.000057
1778	1.7681e+02	-9.1971	-32.412144	0.000304	3.040395	1.030114	0.000122
1779	1.7691e+02	-9.1618	-32.303142	0.000274	2.736355	0.927102	0.000110
1780	1.7701e+02	-9.1088	-32.129545	0.000436	4.357899	1.476496	0.000174
1781	1.7711e+02	-9.0896	-32.056876	0.000182	1.824237	0.618068	0.000073
1782	1.7721e+02	-9.0431	-32.020542	0.000091	0.912118	0.309034	0.000037
1783	1.7731e+02	-8.9965	-31.846945	0.000436	4.357899	1.476496	0.000174
1784	1.7741e+02	-8.9612	-31.766203	0.000203	2.026930	0.686742	0.000081
1785	1.7751e+02	-8.9243	-31.612791	0.000385	3.851166	1.304810	0.000154
1786	1.7761e+02	-8.8858	-31.556271	0.000142	1.418851	0.480720	0.000057
1787	1.7771e+02	-8.8345	-31.431120	0.000314	3.141741	1.064451	0.000126
1788	1.7781e+02	-8.8024	-31.354415	0.000193	1.925583	0.652405	0.000077
1789	1.7791e+02	-8.7543	-31.261561	0.000233	2.330969	0.789754	0.000093
1790	1.7801e+02	-8.7254	-31.092001	0.000426	4.256552	1.442159	0.000170
1791	1.7810e+02	-8.6757	-30.991072	0.000253	2.533662	0.858428	0.000101
1792	1.7820e+02	-8.6420	-30.849773	0.000355	3.547127	1.201799	0.000142
1793	1.7830e+02	-8.5955	-30.764993	0.000213	2.128276	0.721079	0.000085
1794	1.7840e+02	-8.5618	-30.724622	0.000101	1.013465	0.343371	0.000041
1795	1.7850e+02	-8.5217	-30.542950	0.000456	4.560592	1.545170	0.000183
1796	1.7860e+02	-8.4800	-30.474319	0.000172	1.722890	0.583731	0.000069
1797	1.7870e+02	-8.4318	-30.337057	0.000345	3.445780	1.167462	0.000138
1798	1.7880e+02	-8.3950	-30.232091	0.000264	2.635009	0.892765	0.000105
1799	1.7890e+02	-8.3597	-30.094828	0.000345	3.445780	1.167462	0.000138
1800	1.7900e+02	-8.3179	-30.018123	0.000193	1.925583	0.652405	0.000077
1801	1.7910e+02	-8.2762	-29.909120	0.000274	2.736355	0.927102	0.000110
1802	1.7920e+02	-8.2409	-29.751672	0.000395	3.952513	1.339148	0.000158
1803	1.7930e+02	-8.1976	-29.727449	0.000061	0.608079	0.206023	0.000024
1804	1.7940e+02	-8.1607	-29.598261	0.000324	3.243087	1.098788	0.000130
1805	1.7950e+02	-8.1206	-29.473109	0.000314	3.141741	1.064451	0.000126
1806	1.7960e+02	-8.0741	-29.396404	0.000193	1.925583	0.652405	0.000077
1807	1.7970e+02	-8.0388	-29.242993	0.000385	3.851166	1.304810	0.000154
1808	1.7980e+02	-8.0051	-29.162250	0.000203	2.026930	0.686742	0.000081
1809	1.7990e+02	-7.9618	-29.049210	0.000284	2.837702	0.961439	0.000114
1810	1.8000e+02	-7.9265	-28.956356	0.000233	2.330969	0.789754	0.000093
1811	1.8009e+02	-7.8864	-28.863502	0.000233	2.330969	0.789754	0.000093
1812	1.8019e+02	-7.8431	-28.742388	0.000304	3.040395	1.030114	0.000122
1813	1.8029e+02	-7.7998	-28.601088	0.000355	3.547127	1.201799	0.000142
1814	1.8039e+02	-7.7645	-28.512271	0.000223	2.229623	0.755417	0.000089
1815	1.8049e+02	-7.7212	-28.415380	0.000243	2.432316	0.824091	0.000097
1816	1.8059e+02	-7.6811	-28.290229	0.000314	3.141741	1.064451	0.000126
1817	1.8069e+02	-7.6378	-28.185263	0.000264	2.635009	0.892765	0.000105
1818	1.8079e+02	-7.5944	-28.064149	0.000304	3.040395	1.030114	0.000122
1819	1.8089e+02	-7.5607	-27.975332	0.000223	2.229623	0.755417	0.000089
1820	1.8099e+02	-7.5271	-27.862292	0.000284	2.837702	0.961439	0.000114
1821	1.8109e+02	-7.4870	-27.785587	0.000193	1.925583	0.652405	0.000077
1822	1.8119e+02	-7.4452	-27.652361	0.000334	3.344434	1.133125	0.000134
1823	1.8129e+02	-7.4035	-27.543359	0.000274	2.736355	0.927102	0.000110
1824	1.8139e+02	-7.3698	-27.446467	0.000243	2.432316	0.824091	0.000097
1825	1.8149e+02	-7.3265	-27.309205	0.000345	3.445780	1.167462	0.000138
1826	1.8159e+02	-7.2944	-27.208276	0.000253	2.533662	0.858428	0.000101
1827	1.8169e+02	-7.2319	-27.107348	0.000253	2.533662	0.858428	0.000101
1828	1.8179e+02	-7.2094	-26.970085	0.000345	3.445780	1.167462	0.000138
1829	1.8189e+02	-7.1693	-26.921640	0.000122	1.216158	0.412045	0.000049
1830	1.8199e+02	-7.1260	-26.752080	0.000426	4.256552	1.442159	0.000170
1831	1.8209e+02	-7.0891	-26.639040	0.000284	2.837702	0.961439	0.000114
1832	1.8218e+02	-7.0522	-26.558297	0.000203	2.026930	0.686742	0.000081
1833	1.8228e+02	-7.0137	-26.445258	0.000284	2.837702	0.961439	0.000114
1834	1.8238e+02	-6.9608	-26.340292	0.000264	2.635009	0.892765	0.000105
1835	1.8248e+02	-6.9255	-26.203030	0.000345	3.445780	1.167462	0.000138
1836	1.8258e+02	-6.8918	-26.110175	0.000233	2.330969	0.789754	0.000093
1837	1.8268e+02	-6.8356	-25.989061	0.000304	3.040395	1.030114	0.000122
1838	1.8278e+02	-6.8068	-25.912356	0.000193	1.925583	0.652405	0.000077
1839	1.8288e+02	-6.7634	-25.762982	0.000375	3.749820	1.270473	0.000150
1840	1.8298e+02	-6.7330	-25.694350	0.000172	1.722890	0.583731	0.000069
1841	1.8308e+02	-6.6913	-25.565162	0.000324	3.243087	1.098788	0.000130
1842	1.8318e+02	-6.6479	-25.423862	0.000355	3.547127	1.201799	0.000142
1843	1.8328e+02	-6.6030	-25.294674	0.000324	3.243087	1.098788	0.000130
1844	1.8338e+02	-6.5709	-25.234117	0.000152	1.520197	0.515057	0.000061
1845	1.8348e+02	-6.5276	-25.117040	0.000294	2.939048	0.995776	0.000118
1846	1.8358e+02	-6.4843	-25.016112	0.000253	2.533662	0.858428	0.000101
1847	1.8368e+02	-6.4426	-24.886923	0.000324	3.243087	1.098788	0.000130
1848	1.8378e+02	-6.4121	-24.798106	0.000223	2.229623	0.755417	0.000089
1849	1.8388e+02	-6.3704	-24.664881	0.000334	3.344434	1.133125	0.000134
1850	1.8398e+02	-6.3319	-24.555878	0.000274	2.736355	0.927102	0.000110
1851	1.8407e+02	-6.2966	-24.434764	0.000304	3.040395	1.030114	0.000122
1852	1.8417e+02	-6.2565	-24.321724	0.000284	2.837702	0.961439	0.000114
1853	1.8427e+02	-6.2132	-24.240982	0.000203	2.026930	0.686742	0.000081
1854	1.8437e+02	-6.1747	-24.099682	0.000355	3.547127	1.201799	0.000142
1855	1.8447e+02	-6.1266	-23.978568	0.000304	3.040395	1.030114	0.000122
1856	1.8457e+02	-6.0833	-23.857454	0.000304	3.040395	1.030114	0.000122
1857	1.8467e+02	-6.0528	-23.784785	0.000182	1.824237	0.618068	0.000073
1858	1.8477e+02	-6.0159	-23.663671	0.000304	3.040395	1.030114	0.000122
1859	1.8487e+02	-5.9677	-23.530446	0.000334	3.344434	1.133125	0.000134
1860	1.8497e+02	-5.9341	-23.449703	0.000203	2.026930	0.686742	0.000081
1861	1.8507e+02	-5.8907	-23.280143	0.000426	4.256552	1.442159	0.000170
1862	1.8517e+02	-5.8538	-23.231698	0.000122	1.216158	0.412045	0.000049
1863	1.8527e+02	-5.8089	-23.098472	0.000334	3.344434	1.133125	0.000134
1864	1.8537e+02	-5.7736	-22.989469	0.000274	2.736355	0.927102	0.000110
1865	1.8547e+02	-5.7351	-22.868355	0.000304	3.040395	1.030114	0.000122
1866	1.8557e+02	-5.6982	-22.759353	0.000274	2.736355	0.927102	0.000110
1867	1.8567e+02	-5.6597	-22.609979	0.000375	3.749820	1.270473	0.000150
1868	1.8577e+02	-5.6100	-22.505013	0.000264	2.635009	0.892765	0.000105
1869	1.8587e+02	-5.5747	-22.383899	0.000304	3.040395	1.030114	0.000122
1870	1.8597e+02	-5.5362	-22.303156	0.000203	2.026930	0.686742	0.000081
1871	1.8606e+02	-5.4881	-22.194154	0.000274	2.736355	0.927102	0.000110
1872	1.8616e+02	-5.4496	-22.028631	0.000416	4.155206	1.407822	0.000166
1873	1.8626e+02	-5.4159	-21.960000	0.000172	1.722890	0.583731	0.000069
1874	1.8636e+02	-5.3710	-21.863109	0.000243	2.432316	0.824091	0.000097
1875	1.8646e+02	-5.3325	-21.729883	0.000334	3.344434	1.133125	0.000134
1876	1.8656e+02	-5.2972	-21.641066	0.000223	2.229623	0.755417	0.000089
1877	1.8666e+02	-5.2490	-21.499766	0.000355	3.547127	1.201799	0.000142
1878	1.8676e+02	-5.2089	-21.435172	0.000162	1.621544	0.549394	0.000065
1879	1.8686e+02	-5.1849	-21.289835	0.000365	3.648473	1.236136	0.000146
1880	1.8696e+02	-5.1335	-21.172758	0.000294	2.939048	0.995776	0.000118
1881	1.8706e+02	-5.0950	-21.079904	0.000233	2.330969	0.789754	0.000093
1882	1.8716e+02	-5.0614	-20.958790	0.000304	3.040395	1.030114	0.000122
1883	1.8726e+02	-5.0116	-20.829602	0.000324	3.243087	1.098788	0.000130
1884	1.8736e+02	-4.9715	-20.688302	0.000355	3.547127	1.201799	0.000142
1885	1.8746e+02	-4.9362	-20.611597	0.000193	1.925583	0.652405	0.000077
1886	1.8756e+02	-4.9009	-20.482408	0.000324	3.243087	1.098788	0.000130
1887	1.8766e+02	-4.8512	-20.361294	0.000304	3.040395	1.030114	0.000122
1888	1.8776e+02	-4.8191	-20.284589	0.000193	1.925583	0.652405	0.000077
1889	1.8786e+02	-4.7678	-20.102917	0.000456	4.560592	1.545170	0.000183
1890	1.8796e+02	-4.7341	-20.010063	0.000233	2.330969	0.789754	0.000093
1891	1.8806e+02	-4.7020	-19.933358	0.000193	1.925583	0.652405	0.000077
1892	1.8815e+02	-4.6667	-19.788021	0.000365	3.648473	1.236136	0.000146
1893	1.8825e+02	-4.6122	-19.650758	0.000345	3.445780	1.167462	0.000138
1894	1.8835e+02	-4.5721	-19.525607	0.000314	3.141741	1.064451	0.000126
1895	1.8845e+02	-4.5352	-19.408530	0.000294	2.939048	0.995776	0.000118
1896	1.8855e+02	-4.5015	-19.291453	0.000294	2.939048	0.995776	0.000118
1897	1.8865e+02	-4.4469	-19.174376	0.000294	2.939048	0.995776	0.000118
1898	1.8875e+02	-4.4084	-19.085559	0.000223	2.229623	0.755417	0.000089
1899	1.8885e+02	-4.3828	-18.956371	0.000324	3.243087	1.098788	0.000130
1900	1.8895e+02	-4.3411	-18.839294	0.000294	2.939048	0.995776	0.000118
1901	1.8905e+02	-4.3026	-18.697994	0.000355	3.547127	1.201799	0.000142
1902	1.8915e+02	-4.2496	-18.609177	0.000223	2.229623	0.755417	0.000089
1903	1.8925e+02	-4.2159	-18.471915	0.000345	3.445780	1.167462	0.000138
1904	1.8935e+02	-4.1758	-18.399246	0.000182	1.824237	0.618068	0.000073
1905	1.8945e+02	-4.1485	-18.257946	0.000355	3.547127	1.201799	0.000142
1906	1.8955e+02	-4.0988	-18.152981	0.000264	2.635009	0.892765	0.000105
1907	1.8965e+02	-4.0635	-18.023793	0.000324	3.243087	1.098788	0.000130
1908	1.8975e+02	-4.0138	-17.898641	0.000314	3.141741	1.064451	0.000126
1909	1.8985e+02	-3.9817	-17.793676	0.000264	2.635009	0.892765	0.000105
1910	1.8995e+02	-3.9464	-17.660450	0.000334	3.344434	1.133125	0.000134
1911	1.9004e+02	-3.9047	-17.531262	0.000324	3.243087	1.098788	0.000130
1912	1.9014e+02	-3.8502	-17.385925	0.000365	3.648473	1.236136	0.000146
1913	1.9024e+02	-3.8181	-17.301145	0.000213	2.128276	0.721079	0.000085
1914	1.9034e+02	-3.7716	-17.216365	0.000213	2.128276	0.721079	0.000085
1915	1.9044e+02	-3.7475	-17.095251	0.000304	3.040395	1.030114	0.000122
1916	1.9054e+02	-3.7074	-16.933766	0.000405	4.053859	1.373485	0.000162
1917	1.9064e+02	-3.6673	-16.836875	0.000243	2.432316	0.824091	0.000097
1918	1.9074e+02	-3.6159	-16.735946	0.000253	2.533662	0.858428	0.000101
1919	1.9084e+02	-3.5823	-16.586572	0.000375	3.749820	1.270473	0.000150
1920	1.9094e+02	-3.5405	-16.465458	0.000304	3.040395	1.030114	0.000122
1921	1.9104e+02	-3.5004	-16.372604	0.000233	2.330969	0.789754	0.000093
1922	1.9114e+02	-3.4571	-16.243416	0.000324	3.243087	1.098788	0.000130
1923	1.9124e+02	-3.4234	-16.114227	0.000324	3.243087	1.098788	0.000130
1924	1.9134e+02	-3.3801	-15.981002	0.000334	3.344434	1.133125	0.000134
1925	1.9144e+02	-3.3464	-15.896222	0.000213	2.128276	0.721079	0.000085
1926	1.9154e+02	-3.2951	-15.795294	0.000253	2.533662	0.858428	0.000101
1927	1.9164e+02	-3.2550	-15.641882	0.000385	3.851166	1.304810	0.000154
1928	1.9174e+02	-3.2277	-15.557103	0.000213	2.128276	0.721079	0.000085
1929	1.9184e+02	-3.1908	-15.363320	0.000486	4.864631	1.648182	0.000195
1930	1.9194e+02	-3.1427	-15.318912	0.000111	1.114811	0.377708	0.000045
1931	1.9203e+02	-3.0930	-15.193760	0.000314	3.141741	1.064451	0.000126
1932	1.9213e+02	-3.0641	-15.024201	0.000426	4.256552	1.442159	0.000170
1933	1.9223e+02	-3.0208	-14.907124	0.000294	2.939048	0.995776	0.000118
1934	1.9233e+02	-2.9839	-14.794084	0.000284	2.837702	0.961439	0.000114
1935	1.9243e+02	-2.9518	-14.668933	0.000314	3.141741	1.064451	0.000126
1936	1.9253e+02	-2.9101	-14.563967	0.000264	2.635009	0.892765	0.000105
1937	1.9263e+02	-2.8587	-14.438816	0.000314	3.141741	1.064451	0.000126
1938	1.9273e+02	-2.8251	-14.321739	0.000294	2.939048	0.995776	0.000118
1939	1.9283e+02	-2.7785	-14.212736	0.000274	2.736355	0.927102	0.000110
1940	1.9293e+02	-2.7416	-14.095659	0.000294	2.939048	0.995776	0.000118
1941	1.9303e+02	-2.6983	-13.982620	0.000284	2.837702	0.961439	0.000114
1942	1.9313e+02	-2.6582	-13.829208	0.000385	3.851166	1.304810	0.000154
1943	1.9323e+02	-2.6293	-13.720206	0.000274	2.736355	0.927102	0.000110
1944	1.9333e+02	-2.5924	-13.627352	0.000233	2.330969	0.789754	0.000093
1945	1.9343e+02	-2.5443	-13.494126	0.000334	3.344434	1.133125	0.000134
1946	1.9353e+02	-2.5122	-13.364938	0.000324	3.243087	1.098788	0.000130
1947	1.9363e+02	-2.4657	-13.243824	0.000304	3.040395	1.030114	0.000122
1948	1.9373e+02	-2.4352	-13.159044	0.000213	2.128276	0.721079	0.000085
1949	1.9383e+02	-2.3839	-13.041967	0.000294	2.939048	0.995776	0.000118
1950	1.9393e+02	-2.3470	-12.892593	0.000375	3.749820	1.270473	0.000150
1951	1.9403e+02	-2.3085	-12.755330	0.000345	3.445780	1.167462	0.000138
1952	1.9412e+02	-2.2636	-12.634216	0.000304	3.040395	1.030114	0.000122
1953	1.9422e+02	-2.2363	-12.500991	0.000334	3.344434	1.133125	0.000134
1954	1.9432e+02	-2.1914	-12.391988	0.000274	2.736355	0.927102	0.000110
1955	1.9442e+02	-2.1384	-12.315283	0.000193	1.925583	0.652405	0.000077
1956	1.9452e+02	-2.0999	-12.157834	0.000395	3.952513	1.339148	0.000158
1957	1.9462e+02	-2.0711	-12.081129	0.000193	1.925583	0.652405	0.000077
1958	1.9472e+02	-2.0310	-11.883309	0.000497	4.965978	1.682519	0.000199
1959	1.9482e+02	-1.9828	-11.782381	0.000253	2.533662	0.858428	0.000101
1960	1.9492e+02	-1.9491	-11.701638	0.000203	2.026930	0.686742	0.000081
1961	1.9502e+02	-1.9074	-11.536115	0.000416	4.155206	1.407822	0.000166
1962	1.9512e+02	-1.8689	-11.410964	0.000314	3.141741	1.064451	0.000126
1963	1.9522e+02	-1.8272	-11.277739	0.000334	3.344434	1.133125	0.000134
1964	1.9532e+02	-1.7823	-11.140476	0.000345	3.445780	1.167462	0.000138
1965	1.9542e+02	-1.7438	-11.055696	0.000213	2.128276	0.721079	0.000085
1966	1.9552e+02	-1.7133	-10.926508	0.000324	3.243087	1.098788	0.000130
1967	1.9562e+02	-1.6732	-10.797320	0.000324	3.243087	1.098788	0.000130
1968	1.9572e+02	-1.6267	-10.736762	0.000152	1.520197	0.515057	0.000061
1969	1.9582e+02	-1.5786	-10.530869	0.000517	5.168671	1.751193	0.000207
1970	1.9592e+02	-1.5545	-10.429940	0.000253	2.533662	0.858428	0.000101
1971	1.9601e+02	-1.5032	-10.300752	0.000324	3.243087	1.098788	0.000130
1972	1.9611e+02	-1.4695	-10.195786	0.000264	2.635009	0.892765	0.000105
1973	1.9621e+02	-1.4262	-10.070635	0.000314	3.141741	1.064451	0.000126
1974	1.9631e+02	-1.3909	-9.937410	0.000334	3.344434	1.133125	0.000134
1975	1.9641e+02	-1.3492	-9.848593	0.000223	2.229623	0.755417	0.000089
1976	1.9651e+02	-1.3107	-9.699219	0.000375	3.749820	1.270473	0.000150
1977	1.9661e+02	-1.2593	-9.574067	0.000314	3.141741	1.064451	0.000126
1978	1.9671e+02	-1.2272	-9.456990	0.000294	2.939048	0.995776	0.000118
1979	1.9681e+02	-1.1903	-9.388359	0.000172	1.722890	0.583731	0.000069
1980	1.9691e+02	-1.1534	-9.214762	0.000436	4.357899	1.476496	0.000174
1981	1.9701e+02	-1.1085	-9.121908	0.000233	2.330969	0.789754	0.000093
1982	1.9711e+02	-1.0604	-8.996757	0.000314	3.141741	1.064451	0.000126
1983	1.9721e+02	-1.0299	-8.911977	0.000213	2.128276	0.721079	0.000085
1984	1.9731e+02	-0.9962	-8.758566	0.000385	3.851166	1.304810	0.000154
1985	1.9741e+02	-0.9513	-8.617266	0.000355	3.547127	1.201799	0.000142
1986	1.9751e+02	-0.9064	-8.504226	0.000284	2.837702	0.961439	0.000114
1987	1.9761e+02	-0.8775	-8.379075	0.000314	3.141741	1.064451	0.000126
1988	1.9771e+02	-0.8294	-8.282184	0.000243	2.432316	0.824091	0.000097
1989	1.9781e+02	-0.7925	-8.165107	0.000294	2.939048	0.995776	0.000118
1990	1.9791e+02	-0.7492	-8.019770	0.000365	3.648473	1.236136	0.000146
1991	1.9800e+02	-0.7091	-7.902693	0.000294	2.939048	0.995776	0.000118
1992	1.9810e+02	-0.6786	-7.781579	0.000304	3.040395	1.030114	0.000122
1993	1.9820e+02	-0.6353	-7.660465	0.000304	3.040395	1.030114	0.000122
1994	1.9830e+02	-0.5936	-7.547425	0.000284	2.837702	0.961439	0.000114
1995	1.9840e+02	-0.5551	-7.422274	0.000314	3.141741	1.064451	0.000126
1996	1.9850e+02	-0.5150	-7.285011	0.000345	3.445780	1.167462	0.000138
1997	1.9860e+02	-0.4716	-7.151786	0.000334	3.344434	1.133125	0.000134
1998	1.9870e+02	-0.4315	-7.046820	0.000264	2.635009	0.892765	0.000105
1999	1.9880e+02	-0.3898	-6.913595	0.000334	3.344434	1.133125	0.000134
2000	1.9890e+02	-0.3545	-6.788444	0.000314	3.141741	1.064451	0.000126
2001	1.9900e+02	-0.3096	-6.643107	0.000365	3.648473	1.236136	0.000146
2002	1.9910e+02	-0.2743	-6.550253	0.000233	2.330969	0.789754	0.000093
2003	1.9920e+02	-0.2326	-6.408953	0.000355	3.547127	1.201799	0.000142
2004	1.9930e+02	-0.1941	-6.332247	0.000193	1.925583	0.652405	0.000077
2005	1.9940e+02	-0.1620	-6.207096	0.000314	3.141741	1.064451	0.000126
2006	1.9950e+02	-0.1171	-6.085982	0.000304	3.040395	1.030114	0.000122
2007	1.9960e+02	-0.0770	-5.932571	0.000385	3.851166	1.304810	0.000154
2008	1.9970e+02	-0.0337	-5.827605	0.000264	2.635009	0.892765	0.000105
2009	1.9980e+02	0.0128	-5.690343	0.000264	2.635009	0.892765	0.000138

PMax (uC/cm2):	6.11e+01
Pr (uC/cm2):	2.01e+00
-Pr (uC/cm2):	-1.89e+00
PLoss (uC/cm2):	-1.91e+00
-Vc:	-6.56e-01
C (Max-Eff) (nF):	3.06e-01
K (Eff):	1.04e+03
Vert. (+/-Pr) Shift (uC/cm2):	6.21e-02
Offset (uC/cm2):	3.80e+00

A (Loop Area - uC/cm2·Volts):	9.70e-03



Hysteresis Version: 5.48.1 - Radiant Technologies, Inc., 1999 - 9/12/24

