»»»»»»»»»»»»»»»»»»»»»»»»»»»»»»»»»»»» Hysteresis ««««««««««««««««««««««««««««««««««««
»»»  Executed Version:	5.48.1
»»»  Vision Version:	5.48.4 (R)
»»»  Vision Compiled:	9/18/24
»»»  Driver Version:	5.47.0
»»»  Windows Version:	Windows 8 or 8.1
»»»  Processor Information:	x86 (AMD or Intel) - 32 Processors
»»»  Tester Name:	PMF21124-494 (100V)
»»»  Tester S/N:	PMF21124-494
»»»  Internal Amp Type:	100V RevK 270k
»»»  Internal Amp S/N:	iAB2-596/K     
»»»  Execution Count:	1
»»»»»»»»»»»»»»»»»»»»»»»»»»»»»»»»»»»»»»»»»»««««««««««««««««««««««««««««««««««««««««««

Stored:	6/19/2025 - 17:16:50
Configured:	06/19/25 10:04:32 AM
Executed:	06/19/25 05:15:50 PM

»»»»»»»»»»»»»»»»»»»»»»»»»»»»»»»»»»» Sample Info ««««««««««««««««««««««««««««««««««««
Sample Name:	
Lot Name:	
Wafer Name:	
Die Row/Column:	0/0
Capacitor Number:	0
Sample Area (cm2):	1.00e-04
Sample Thickness (microns):	3.00e-01

Amplifier:	Internal

»»»»»»»»»»»»»»»»»»»»»»»»»»»»»»»»»»» Tester Info «««««««««««««««««««««««««««««««««««
Tester Name:	PMF21124-494 (100V)
Tester Serial Number:	PMF21124-494
Return Signal Amp. Level:	0.19 [Index: 3]

»»»»»»»»»»»»»»»»»»»»»»»»»»»»»»»» Hysteresis Info ««««««««««««««««««««««««««««««««««
Task Name:	Hyst-1168
Volts:	20.00
Field:	666.67 (kV/cm)
DCBias:	0.00
DCField:	0.00 (kV/cm)
Hysteresis Period (ms):	2.00e+02
Preset:	Enabled
Preset Delay (ms):	1.00e+03
Profile:	Standard Bipolar

»»»»»»»»»»»»»»»»»»»»»»»»»»»»»»»»»»»»»» Data «««««««««««««««««««««««««««««««««««««««
Points:	2009

Valid Data

Point	Time (ms)	Drive Voltage	Measured Polarization (uC/cm2)	Capacitance (uF)	Normalized Capacitance (uF/cm2)	Dielectric Constant	Instantaneous Current (mA)
   1	0.0000e+00	0.0160	-3.522401	0.000071	0.709824	0.240495	0.000028
   2	9.9500e-02	0.0513	-3.494141	0.000071	0.709824	0.240495	0.000028
   3	1.9900e-01	0.0770	-3.518364	-0.000061	-0.608421	-0.206138	-0.000024
   4	2.9850e-01	0.1155	-3.461844	0.000142	1.419648	0.480990	0.000057
   5	3.9800e-01	0.1620	-3.425510	0.000091	0.912631	0.309208	0.000037
   6	4.9750e-01	0.2005	-3.405324	0.000051	0.507017	0.171782	0.000020
   7	5.9700e-01	0.2342	-3.393213	0.000030	0.304210	0.103069	0.000012
   8	6.9650e-01	0.2759	-3.356878	0.000091	0.912631	0.309208	0.000037
   9	7.9600e-01	0.3144	-3.292284	0.000162	1.622455	0.549703	0.000065
  10	8.9550e-01	0.3626	-3.239801	0.000132	1.318245	0.446633	0.000053
  11	9.9500e-01	0.3914	-3.223653	0.000041	0.405614	0.137426	0.000016
  12	1.0945e+00	0.4460	-3.118687	0.000264	2.636489	0.893267	0.000105
  13	1.1940e+00	0.4797	-3.054093	0.000162	1.622455	0.549703	0.000065
  14	1.2935e+00	0.5198	-2.981425	0.000183	1.825262	0.618415	0.000073
  15	1.3930e+00	0.5519	-2.904719	0.000193	1.926665	0.652772	0.000077
  16	1.4925e+00	0.5952	-2.856274	0.000122	1.216841	0.412277	0.000049
  17	1.5920e+00	0.6337	-2.791679	0.000162	1.622455	0.549703	0.000065
  18	1.6915e+00	0.6786	-2.694788	0.000243	2.433682	0.824554	0.000097
  19	1.7910e+00	0.7155	-2.561563	0.000335	3.346313	1.133762	0.000134
  20	1.8905e+00	0.7572	-2.513117	0.000122	1.216841	0.412277	0.000049
  21	1.9900e+00	0.7973	-2.396040	0.000294	2.940699	0.996336	0.000118
  22	2.0895e+00	0.8310	-2.303186	0.000233	2.332279	0.790197	0.000093
  23	2.1890e+00	0.8775	-2.218406	0.000213	2.129472	0.721485	0.000085
  24	2.2885e+00	0.9208	-2.097292	0.000304	3.042103	1.030692	0.000122
  25	2.3880e+00	0.9609	-1.992326	0.000264	2.636489	0.893267	0.000105
  26	2.4875e+00	0.9978	-1.879287	0.000284	2.839296	0.961980	0.000114
  27	2.5870e+00	1.0347	-1.782395	0.000243	2.433682	0.824554	0.000097
  28	2.6865e+00	1.0668	-1.677430	0.000264	2.636489	0.893267	0.000105
  29	2.7860e+00	1.1230	-1.564390	0.000284	2.839296	0.961980	0.000114
  30	2.8855e+00	1.1599	-1.479610	0.000213	2.129472	0.721485	0.000085
  31	2.9850e+00	1.1903	-1.366570	0.000284	2.839296	0.961980	0.000114
  32	3.0845e+00	1.2288	-1.245456	0.000304	3.042103	1.030692	0.000122
  33	3.1840e+00	1.2706	-1.152602	0.000233	2.332279	0.790197	0.000093
  34	3.2835e+00	1.3123	-1.019377	0.000335	3.346313	1.133762	0.000134
  35	3.3830e+00	1.3508	-0.918448	0.000254	2.535086	0.858910	0.000101
  36	3.4825e+00	1.3877	-0.765037	0.000385	3.853330	1.305544	0.000154
  37	3.5820e+00	1.4358	-0.672183	0.000233	2.332279	0.790197	0.000093
  38	3.6815e+00	1.4791	-0.575292	0.000243	2.433682	0.824554	0.000097
  39	3.7810e+00	1.5080	-0.458215	0.000294	2.940699	0.996336	0.000118
  40	3.8805e+00	1.5513	-0.361324	0.000243	2.433682	0.824554	0.000097
  41	3.9800e+00	1.5946	-0.264432	0.000243	2.433682	0.824554	0.000097
  42	4.0795e+00	1.6267	-0.098910	0.000416	4.157541	1.408613	0.000166
  43	4.1790e+00	1.6716	-0.014130	0.000213	2.129472	0.721485	0.000085
  44	4.2785e+00	1.7133	0.151393	0.000416	4.157541	1.408613	0.000166
  45	4.3780e+00	1.7534	0.220024	0.000172	1.723858	0.584059	0.000069
  46	4.4775e+00	1.7887	0.385546	0.000416	4.157541	1.408613	0.000166
  47	4.5770e+00	1.8320	0.470326	0.000213	2.129472	0.721485	0.000085
  48	4.6765e+00	1.8689	0.591440	0.000304	3.042103	1.030692	0.000122
  49	4.7760e+00	1.9171	0.688332	0.000243	2.433682	0.824554	0.000097
  50	4.8755e+00	1.9459	0.829631	0.000355	3.549120	1.202474	0.000142
  51	4.9750e+00	1.9876	0.938634	0.000274	2.737893	0.927623	0.000110
  52	5.0745e+00	2.0278	1.047637	0.000274	2.737893	0.927623	0.000110
  53	5.1740e+00	2.0743	1.132417	0.000213	2.129472	0.721485	0.000085
  54	5.2735e+00	2.1144	1.269679	0.000345	3.447717	1.168118	0.000138
  55	5.3730e+00	2.1465	1.398868	0.000324	3.244910	1.099405	0.000130
  56	5.4725e+00	2.1898	1.507870	0.000274	2.737893	0.927623	0.000110
  57	5.5720e+00	2.2267	1.608799	0.000254	2.535086	0.858910	0.000101
  58	5.6715e+00	2.2732	1.754135	0.000365	3.650523	1.236831	0.000146
  59	5.7710e+00	2.3069	1.859101	0.000264	2.636489	0.893267	0.000105
  60	5.8705e+00	2.3470	1.992326	0.000335	3.346313	1.133762	0.000134
  61	5.9700e+00	2.3855	2.052884	0.000152	1.521051	0.515346	0.000061
  62	6.0695e+00	2.4256	2.194183	0.000355	3.549120	1.202474	0.000142
  63	6.1690e+00	2.4705	2.299149	0.000264	2.636489	0.893267	0.000105
  64	6.2685e+00	2.5154	2.452560	0.000385	3.853330	1.305544	0.000154
  65	6.3680e+00	2.5539	2.553488	0.000254	2.535086	0.858910	0.000101
  66	6.4675e+00	2.5860	2.694788	0.000355	3.549120	1.202474	0.000142
  67	6.5670e+00	2.6293	2.783605	0.000223	2.230875	0.755841	0.000089
  68	6.6665e+00	2.6727	2.932979	0.000375	3.751927	1.271187	0.000150
  69	6.7660e+00	2.7095	3.017759	0.000213	2.129472	0.721485	0.000085
  70	6.8655e+00	2.7513	3.142910	0.000314	3.143506	1.065049	0.000126
  71	6.9650e+00	2.7898	3.268061	0.000314	3.143506	1.065049	0.000126
  72	7.0645e+00	2.8315	3.417435	0.000375	3.751927	1.271187	0.000150
  73	7.1640e+00	2.8668	3.453770	0.000091	0.912631	0.309208	0.000037
  74	7.2635e+00	2.9053	3.607181	0.000385	3.853330	1.305544	0.000154
  75	7.3630e+00	2.9550	3.756555	0.000375	3.751927	1.271187	0.000150
  76	7.4625e+00	2.9839	3.857483	0.000254	2.535086	0.858910	0.000101
  77	7.5620e+00	3.0288	3.978597	0.000304	3.042103	1.030692	0.000122
  78	7.6615e+00	3.0705	4.107786	0.000324	3.244910	1.099405	0.000130
  79	7.7610e+00	3.1122	4.216788	0.000274	2.737893	0.927623	0.000110
  80	7.8605e+00	3.1379	4.337902	0.000304	3.042103	1.030692	0.000122
  81	7.9600e+00	3.1812	4.479202	0.000355	3.549120	1.202474	0.000142
  82	8.0595e+00	3.2309	4.568019	0.000223	2.230875	0.755841	0.000089
  83	8.1590e+00	3.2726	4.701245	0.000335	3.346313	1.133762	0.000134
  84	8.2585e+00	3.3015	4.806210	0.000264	2.636489	0.893267	0.000105
  85	8.3580e+00	3.3400	4.943473	0.000345	3.447717	1.168118	0.000138
  86	8.4575e+00	3.3913	5.088810	0.000365	3.650523	1.236831	0.000146
  87	8.5570e+00	3.4250	5.201849	0.000284	2.839296	0.961980	0.000114
  88	8.6565e+00	3.4635	5.290666	0.000223	2.230875	0.755841	0.000089
  89	8.7560e+00	3.5036	5.415818	0.000314	3.143506	1.065049	0.000126
  90	8.8555e+00	3.5421	5.536932	0.000304	3.042103	1.030692	0.000122
  91	8.9550e+00	3.5935	5.678231	0.000355	3.549120	1.202474	0.000142
  92	9.0545e+00	3.6208	5.791271	0.000284	2.839296	0.961980	0.000114
  93	9.1540e+00	3.6721	5.928534	0.000345	3.447717	1.168118	0.000138
  94	9.2535e+00	3.6994	6.021388	0.000233	2.332279	0.790197	0.000093
  95	9.3530e+00	3.7411	6.142502	0.000304	3.042103	1.030692	0.000122
  96	9.4525e+00	3.7924	6.243430	0.000254	2.535086	0.858910	0.000101
  97	9.5520e+00	3.8197	6.364544	0.000304	3.042103	1.030692	0.000122
  98	9.6515e+00	3.8598	6.485659	0.000304	3.042103	1.030692	0.000122
  99	9.7510e+00	3.8935	6.618884	0.000335	3.346313	1.133762	0.000134
 100	9.8505e+00	3.9384	6.727887	0.000274	2.737893	0.927623	0.000110
 101	9.9500e+00	3.9753	6.812667	0.000213	2.129472	0.721485	0.000085
 102	1.0050e+01	4.0282	6.941855	0.000324	3.244910	1.099405	0.000130
 103	1.0149e+01	4.0571	7.083155	0.000355	3.549120	1.202474	0.000142
 104	1.0248e+01	4.0972	7.192157	0.000274	2.737893	0.927623	0.000110
 105	1.0348e+01	4.1502	7.276937	0.000213	2.129472	0.721485	0.000085
 106	1.0447e+01	4.1854	7.430348	0.000385	3.853330	1.305544	0.000154
 107	1.0547e+01	4.2255	7.571648	0.000355	3.549120	1.202474	0.000142
 108	1.0646e+01	4.2673	7.688725	0.000294	2.940699	0.996336	0.000118
 109	1.0746e+01	4.2961	7.769468	0.000203	2.028069	0.687128	0.000081
 110	1.0845e+01	4.3459	7.894619	0.000314	3.143506	1.065049	0.000126
 111	1.0945e+01	4.3908	8.011696	0.000294	2.940699	0.996336	0.000118
 112	1.1044e+01	4.4197	8.197404	0.000466	4.664558	1.580395	0.000187
 113	1.1144e+01	4.4534	8.257961	0.000152	1.521051	0.515346	0.000061
 114	1.1243e+01	4.4999	8.387149	0.000324	3.244910	1.099405	0.000130
 115	1.1343e+01	4.5496	8.504226	0.000294	2.940699	0.996336	0.000118
 116	1.1443e+01	4.5785	8.593043	0.000223	2.230875	0.755841	0.000089
 117	1.1542e+01	4.6138	8.698009	0.000264	2.636489	0.893267	0.000105
 118	1.1642e+01	4.6507	8.811049	0.000284	2.839296	0.961980	0.000114
 119	1.1741e+01	4.7004	8.952348	0.000355	3.549120	1.202474	0.000142
 120	1.1841e+01	4.7437	9.069425	0.000294	2.940699	0.996336	0.000118
 121	1.1940e+01	4.7806	9.178428	0.000274	2.737893	0.927623	0.000110
 122	1.2040e+01	4.8191	9.255134	0.000193	1.926665	0.652772	0.000077
 123	1.2139e+01	4.8608	9.416619	0.000406	4.056137	1.374256	0.000162
 124	1.2239e+01	4.9041	9.545807	0.000324	3.244910	1.099405	0.000130
 125	1.2338e+01	4.9314	9.626550	0.000203	2.028069	0.687128	0.000081
 126	1.2438e+01	4.9844	9.771887	0.000365	3.650523	1.236831	0.000146
 127	1.2537e+01	5.0309	9.872815	0.000254	2.535086	0.858910	0.000101
 128	1.2636e+01	5.0614	9.965670	0.000233	2.332279	0.790197	0.000093
 129	1.2736e+01	5.0950	10.115044	0.000375	3.751927	1.271187	0.000150
 130	1.2835e+01	5.1384	10.244232	0.000324	3.244910	1.099405	0.000130
 131	1.2935e+01	5.1785	10.353235	0.000274	2.737893	0.927623	0.000110
 132	1.3034e+01	5.2105	10.502609	0.000375	3.751927	1.271187	0.000150
 133	1.3134e+01	5.2555	10.635834	0.000335	3.346313	1.133762	0.000134
 134	1.3233e+01	5.3068	10.728688	0.000233	2.332279	0.790197	0.000093
 135	1.3333e+01	5.3421	10.878062	0.000375	3.751927	1.271187	0.000150
 136	1.3432e+01	5.3790	10.938619	0.000152	1.521051	0.515346	0.000061
 137	1.3532e+01	5.4159	11.079919	0.000355	3.549120	1.202474	0.000142
 138	1.3632e+01	5.4480	11.196996	0.000294	2.940699	0.996336	0.000118
 139	1.3731e+01	5.4977	11.338296	0.000355	3.549120	1.202474	0.000142
 140	1.3831e+01	5.5410	11.467484	0.000324	3.244910	1.099405	0.000130
 141	1.3930e+01	5.5715	11.552264	0.000213	2.129472	0.721485	0.000085
 142	1.4030e+01	5.6180	11.717786	0.000416	4.157541	1.408613	0.000166
 143	1.4129e+01	5.6517	11.855049	0.000345	3.447717	1.168118	0.000138
 144	1.4229e+01	5.7030	11.943866	0.000223	2.230875	0.755841	0.000089
 145	1.4328e+01	5.7367	12.036720	0.000233	2.332279	0.790197	0.000093
 146	1.4428e+01	5.7784	12.190131	0.000385	3.853330	1.305544	0.000154
 147	1.4527e+01	5.8202	12.274911	0.000213	2.129472	0.721485	0.000085
 148	1.4627e+01	5.8587	12.400062	0.000314	3.143506	1.065049	0.000126
 149	1.4726e+01	5.9004	12.488879	0.000223	2.230875	0.755841	0.000089
 150	1.4825e+01	5.9389	12.650365	0.000406	4.056137	1.374256	0.000162
 151	1.4925e+01	5.9758	12.767442	0.000294	2.940699	0.996336	0.000118
 152	1.5024e+01	6.0111	12.896630	0.000324	3.244910	1.099405	0.000130
 153	1.5124e+01	6.0560	13.005633	0.000274	2.737893	0.927623	0.000110
 154	1.5223e+01	6.0913	13.134821	0.000324	3.244910	1.099405	0.000130
 155	1.5323e+01	6.1378	13.264009	0.000324	3.244910	1.099405	0.000130
 156	1.5422e+01	6.1763	13.352826	0.000223	2.230875	0.755841	0.000089
 157	1.5522e+01	6.2148	13.522386	0.000426	4.258944	1.442969	0.000170
 158	1.5621e+01	6.2533	13.566795	0.000112	1.115438	0.377921	0.000045
 159	1.5721e+01	6.2950	13.728280	0.000406	4.056137	1.374256	0.000162
 160	1.5820e+01	6.3367	13.825171	0.000243	2.433682	0.824554	0.000097
 161	1.5920e+01	6.3752	13.966471	0.000355	3.549120	1.202474	0.000142
 162	1.6020e+01	6.4105	14.091622	0.000314	3.143506	1.065049	0.000126
 163	1.6119e+01	6.4538	14.240996	0.000375	3.751927	1.271187	0.000150
 164	1.6218e+01	6.4971	14.337888	0.000243	2.433682	0.824554	0.000097
 165	1.6318e+01	6.5212	14.479187	0.000355	3.549120	1.202474	0.000142
 166	1.6418e+01	6.5661	14.584153	0.000264	2.636489	0.893267	0.000105
 167	1.6517e+01	6.6159	14.664896	0.000203	2.028069	0.687128	0.000081
 168	1.6616e+01	6.6463	14.802158	0.000345	3.447717	1.168118	0.000138
 169	1.6716e+01	6.6832	14.915198	0.000284	2.839296	0.961980	0.000114
 170	1.6816e+01	6.7298	15.040349	0.000314	3.143506	1.065049	0.000126
 171	1.6915e+01	6.7683	15.185686	0.000365	3.650523	1.236831	0.000146
 172	1.7015e+01	6.8068	15.274503	0.000223	2.230875	0.755841	0.000089
 173	1.7114e+01	6.8485	15.419840	0.000365	3.650523	1.236831	0.000146
 174	1.7213e+01	6.8934	15.544991	0.000314	3.143506	1.065049	0.000126
 175	1.7313e+01	6.9223	15.645920	0.000254	2.535086	0.858910	0.000101
 176	1.7413e+01	6.9688	15.767034	0.000304	3.042103	1.030692	0.000122
 177	1.7512e+01	7.0057	15.888148	0.000304	3.042103	1.030692	0.000122
 178	1.7611e+01	7.0586	16.005225	0.000294	2.940699	0.996336	0.000118
 179	1.7711e+01	7.0907	16.142487	0.000345	3.447717	1.168118	0.000138
 180	1.7811e+01	7.1404	16.283787	0.000355	3.549120	1.202474	0.000142
 181	1.7910e+01	7.1725	16.404901	0.000304	3.042103	1.030692	0.000122
 182	1.8009e+01	7.2094	16.493718	0.000223	2.230875	0.755841	0.000089
 183	1.8109e+01	7.2543	16.635018	0.000355	3.549120	1.202474	0.000142
 184	1.8209e+01	7.2944	16.768243	0.000335	3.346313	1.133762	0.000134
 185	1.8308e+01	7.3410	16.853023	0.000213	2.129472	0.721485	0.000085
 186	1.8407e+01	7.3682	16.986249	0.000335	3.346313	1.133762	0.000134
 187	1.8507e+01	7.4067	17.127548	0.000355	3.549120	1.202474	0.000142
 188	1.8607e+01	7.4517	17.252700	0.000314	3.143506	1.065049	0.000126
 189	1.8706e+01	7.4773	17.369777	0.000294	2.940699	0.996336	0.000118
 190	1.8805e+01	7.5335	17.482816	0.000284	2.839296	0.961980	0.000114
 191	1.8905e+01	7.5688	17.616042	0.000335	3.346313	1.133762	0.000134
 192	1.9005e+01	7.6057	17.737156	0.000304	3.042103	1.030692	0.000122
 193	1.9104e+01	7.6474	17.866344	0.000324	3.244910	1.099405	0.000130
 194	1.9203e+01	7.6795	17.983421	0.000294	2.940699	0.996336	0.000118
 195	1.9303e+01	7.7260	18.084350	0.000254	2.535086	0.858910	0.000101
 196	1.9402e+01	7.7533	18.266021	0.000456	4.563154	1.546039	0.000183
 197	1.9502e+01	7.7998	18.358875	0.000233	2.332279	0.790197	0.000093
 198	1.9602e+01	7.8527	18.488063	0.000324	3.244910	1.099405	0.000130
 199	1.9701e+01	7.8992	18.576880	0.000223	2.230875	0.755841	0.000089
 200	1.9800e+01	7.9297	18.742403	0.000416	4.157541	1.408613	0.000166
 201	1.9900e+01	7.9762	18.887740	0.000365	3.650523	1.236831	0.000146
 202	2.0000e+01	8.0115	19.000779	0.000284	2.839296	0.961980	0.000114
 203	2.0099e+01	8.0549	19.129968	0.000324	3.244910	1.099405	0.000130
 204	2.0198e+01	8.0837	19.226859	0.000243	2.433682	0.824554	0.000097
 205	2.0298e+01	8.1319	19.380270	0.000385	3.853330	1.305544	0.000154
 206	2.0398e+01	8.1671	19.469087	0.000223	2.230875	0.755841	0.000089
 207	2.0497e+01	8.2040	19.614424	0.000365	3.650523	1.236831	0.000146
 208	2.0596e+01	8.2522	19.751687	0.000345	3.447717	1.168118	0.000138
 209	2.0696e+01	8.2778	19.876838	0.000314	3.143506	1.065049	0.000126
 210	2.0796e+01	8.3308	20.034286	0.000395	3.954734	1.339900	0.000158
 211	2.0895e+01	8.3773	20.123103	0.000223	2.230875	0.755841	0.000089
 212	2.0994e+01	8.4110	20.244217	0.000304	3.042103	1.030692	0.000122
 213	2.1094e+01	8.4527	20.381480	0.000345	3.447717	1.168118	0.000138
 214	2.1194e+01	8.4928	20.510668	0.000324	3.244910	1.099405	0.000130
 215	2.1293e+01	8.5233	20.615634	0.000264	2.636489	0.893267	0.000105
 216	2.1392e+01	8.5650	20.740785	0.000314	3.143506	1.065049	0.000126
 217	2.1492e+01	8.6019	20.874010	0.000335	3.346313	1.133762	0.000134
 218	2.1591e+01	8.6484	21.011273	0.000345	3.447717	1.168118	0.000138
 219	2.1691e+01	8.6869	21.124313	0.000284	2.839296	0.961980	0.000114
 220	2.1791e+01	8.7254	21.221204	0.000243	2.433682	0.824554	0.000097
 221	2.1890e+01	8.7559	21.366541	0.000365	3.650523	1.236831	0.000146
 222	2.1989e+01	8.8024	21.479581	0.000284	2.839296	0.961980	0.000114
 223	2.2089e+01	8.8393	21.612806	0.000335	3.346313	1.133762	0.000134
 224	2.2189e+01	8.8874	21.725846	0.000284	2.839296	0.961980	0.000114
 225	2.2288e+01	8.9243	21.867146	0.000355	3.549120	1.202474	0.000142
 226	2.2387e+01	8.9645	21.939814	0.000183	1.825262	0.618415	0.000073
 227	2.2487e+01	9.0030	22.097262	0.000395	3.954734	1.339900	0.000158
 228	2.2587e+01	9.0350	22.194154	0.000243	2.433682	0.824554	0.000097
 229	2.2686e+01	9.0784	22.355639	0.000406	4.056137	1.374256	0.000162
 230	2.2785e+01	9.1169	22.488865	0.000335	3.346313	1.133762	0.000134
 231	2.2885e+01	9.1650	22.573644	0.000213	2.129472	0.721485	0.000085
 232	2.2985e+01	9.1939	22.706870	0.000335	3.346313	1.133762	0.000134
 233	2.3084e+01	9.2404	22.819910	0.000284	2.839296	0.961980	0.000114
 234	2.3183e+01	9.2773	22.941024	0.000304	3.042103	1.030692	0.000122
 235	2.3283e+01	9.3238	23.098472	0.000395	3.954734	1.339900	0.000158
 236	2.3383e+01	9.3543	23.219586	0.000304	3.042103	1.030692	0.000122
 237	2.3482e+01	9.3912	23.340700	0.000304	3.042103	1.030692	0.000122
 238	2.3581e+01	9.4393	23.429517	0.000223	2.230875	0.755841	0.000089
 239	2.3681e+01	9.4730	23.550631	0.000304	3.042103	1.030692	0.000122
 240	2.3780e+01	9.5163	23.683857	0.000335	3.346313	1.133762	0.000134
 241	2.3880e+01	9.5564	23.809008	0.000314	3.143506	1.065049	0.000126
 242	2.3980e+01	9.5997	23.938196	0.000324	3.244910	1.099405	0.000130
 243	2.4079e+01	9.6446	24.099682	0.000406	4.056137	1.374256	0.000162
 244	2.4178e+01	9.6783	24.192536	0.000233	2.332279	0.790197	0.000093
 245	2.4278e+01	9.7217	24.277316	0.000213	2.129472	0.721485	0.000085
 246	2.4378e+01	9.7634	24.446875	0.000426	4.258944	1.442969	0.000170
 247	2.4477e+01	9.8003	24.511470	0.000162	1.622455	0.549703	0.000065
 248	2.4576e+01	9.8420	24.701215	0.000477	4.765961	1.614751	0.000191
 249	2.4676e+01	9.8837	24.830403	0.000324	3.244910	1.099405	0.000130
 250	2.4776e+01	9.9206	24.931332	0.000254	2.535086	0.858910	0.000101
 251	2.4875e+01	9.9575	25.076669	0.000365	3.650523	1.236831	0.000146
 252	2.4974e+01	9.9944	25.149337	0.000183	1.825262	0.618415	0.000073
 253	2.5074e+01	10.0297	25.294674	0.000365	3.650523	1.236831	0.000146
 254	2.5174e+01	10.0762	25.419825	0.000314	3.143506	1.065049	0.000126
 255	2.5273e+01	10.1195	25.516716	0.000243	2.433682	0.824554	0.000097
 256	2.5372e+01	10.1500	25.666090	0.000375	3.751927	1.271187	0.000150
 257	2.5472e+01	10.1965	25.779130	0.000284	2.839296	0.961980	0.000114
 258	2.5572e+01	10.2270	25.948690	0.000426	4.258944	1.442969	0.000170
 259	2.5671e+01	10.2879	26.061730	0.000284	2.839296	0.961980	0.000114
 260	2.5770e+01	10.3184	26.114213	0.000132	1.318245	0.446633	0.000053
 261	2.5870e+01	10.3553	26.299921	0.000466	4.664558	1.580395	0.000187
 262	2.5970e+01	10.3874	26.408923	0.000274	2.737893	0.927623	0.000110
 263	2.6069e+01	10.4355	26.497740	0.000223	2.230875	0.755841	0.000089
 264	2.6169e+01	10.4724	26.643077	0.000365	3.650523	1.236831	0.000146
 265	2.6268e+01	10.5286	26.788414	0.000365	3.650523	1.236831	0.000146
 266	2.6367e+01	10.5510	26.897417	0.000274	2.737893	0.927623	0.000110
 267	2.6467e+01	10.5895	27.006420	0.000274	2.737893	0.927623	0.000110
 268	2.6567e+01	10.6441	27.107348	0.000254	2.535086	0.858910	0.000101
 269	2.6666e+01	10.6714	27.236536	0.000324	3.244910	1.099405	0.000130
 270	2.6765e+01	10.7195	27.361687	0.000314	3.143506	1.065049	0.000126
 271	2.6865e+01	10.7580	27.454542	0.000233	2.332279	0.790197	0.000093
 272	2.6965e+01	10.7981	27.628138	0.000436	4.360347	1.477326	0.000174
 273	2.7064e+01	10.8350	27.741178	0.000284	2.839296	0.961980	0.000114
 274	2.7163e+01	10.8735	27.866329	0.000314	3.143506	1.065049	0.000126
 275	2.7263e+01	10.9104	27.967258	0.000254	2.535086	0.858910	0.000101
 276	2.7363e+01	10.9633	28.084335	0.000294	2.940699	0.996336	0.000118
 277	2.7462e+01	10.9906	28.225635	0.000355	3.549120	1.202474	0.000142
 278	2.7561e+01	11.0419	28.314451	0.000223	2.230875	0.755841	0.000089
 279	2.7661e+01	11.0692	28.423454	0.000274	2.737893	0.927623	0.000110
 280	2.7761e+01	11.1125	28.552643	0.000324	3.244910	1.099405	0.000130
 281	2.7860e+01	11.1462	28.657608	0.000264	2.636489	0.893267	0.000105
 282	2.7959e+01	11.1927	28.754499	0.000243	2.433682	0.824554	0.000097
 283	2.8059e+01	11.2328	28.879651	0.000314	3.143506	1.065049	0.000126
 284	2.8159e+01	11.2745	28.984616	0.000264	2.636489	0.893267	0.000105
 285	2.8258e+01	11.3130	29.125916	0.000355	3.549120	1.202474	0.000142
 286	2.8358e+01	11.3548	29.218770	0.000233	2.332279	0.790197	0.000093
 287	2.8457e+01	11.4013	29.356033	0.000345	3.447717	1.168118	0.000138
 288	2.8556e+01	11.4350	29.481184	0.000314	3.143506	1.065049	0.000126
 289	2.8656e+01	11.4719	29.590186	0.000274	2.737893	0.927623	0.000110
 290	2.8756e+01	11.5152	29.731486	0.000355	3.549120	1.202474	0.000142
 291	2.8855e+01	11.5505	29.852600	0.000304	3.042103	1.030692	0.000122
 292	2.8954e+01	11.5906	29.965640	0.000284	2.839296	0.961980	0.000114
 293	2.9054e+01	11.6339	30.066568	0.000254	2.535086	0.858910	0.000101
 294	2.9154e+01	11.6660	30.175571	0.000274	2.737893	0.927623	0.000110
 295	2.9253e+01	11.7157	30.320908	0.000365	3.650523	1.236831	0.000146
 296	2.9352e+01	11.7558	30.433948	0.000284	2.839296	0.961980	0.000114
 297	2.9452e+01	11.7895	30.551025	0.000294	2.940699	0.996336	0.000118
 298	2.9552e+01	11.8296	30.647916	0.000243	2.433682	0.824554	0.000097
 299	2.9651e+01	11.8681	30.748844	0.000254	2.535086	0.858910	0.000101
 300	2.9750e+01	11.9082	30.918404	0.000426	4.258944	1.442969	0.000170
 301	2.9850e+01	11.9547	31.007221	0.000223	2.230875	0.755841	0.000089
 302	2.9950e+01	11.9948	31.132372	0.000314	3.143506	1.065049	0.000126
 303	3.0049e+01	12.0414	31.261561	0.000324	3.244910	1.099405	0.000130
 304	3.0148e+01	12.0670	31.366526	0.000264	2.636489	0.893267	0.000105
 305	3.0248e+01	12.1087	31.495714	0.000324	3.244910	1.099405	0.000130
 306	3.0348e+01	12.1505	31.608754	0.000284	2.839296	0.961980	0.000114
 307	3.0447e+01	12.1906	31.737943	0.000324	3.244910	1.099405	0.000130
 308	3.0547e+01	12.2291	31.867131	0.000324	3.244910	1.099405	0.000130
 309	3.0646e+01	12.2628	31.931725	0.000162	1.622455	0.549703	0.000065
 310	3.0745e+01	12.3045	32.081099	0.000375	3.751927	1.271187	0.000150
 311	3.0845e+01	12.3462	32.230473	0.000375	3.751927	1.271187	0.000150
 312	3.0945e+01	12.3975	32.323327	0.000233	2.332279	0.790197	0.000093
 313	3.1044e+01	12.4328	32.460590	0.000345	3.447717	1.168118	0.000138
 314	3.1143e+01	12.4745	32.549407	0.000223	2.230875	0.755841	0.000089
 315	3.1243e+01	12.5114	32.674558	0.000314	3.143506	1.065049	0.000126
 316	3.1343e+01	12.5579	32.864303	0.000477	4.765961	1.614751	0.000191
 317	3.1442e+01	12.5948	32.936972	0.000183	1.825262	0.618415	0.000073
 318	3.1541e+01	12.6349	33.058086	0.000304	3.042103	1.030692	0.000122
 319	3.1641e+01	12.6702	33.175163	0.000294	2.940699	0.996336	0.000118
 320	3.1741e+01	12.7087	33.272054	0.000243	2.433682	0.824554	0.000097
 321	3.1840e+01	12.7488	33.405280	0.000335	3.346313	1.133762	0.000134
 322	3.1939e+01	12.7857	33.522357	0.000294	2.940699	0.996336	0.000118
 323	3.2039e+01	12.8226	33.655582	0.000335	3.346313	1.133762	0.000134
 324	3.2139e+01	12.8724	33.732288	0.000193	1.926665	0.652772	0.000077
 325	3.2238e+01	12.9093	33.873587	0.000355	3.549120	1.202474	0.000142
 326	3.2337e+01	12.9365	33.978553	0.000264	2.636489	0.893267	0.000105
 327	3.2437e+01	12.9863	34.111778	0.000335	3.346313	1.133762	0.000134
 328	3.2536e+01	13.0264	34.216744	0.000264	2.636489	0.893267	0.000105
 329	3.2636e+01	13.0697	34.349969	0.000335	3.346313	1.133762	0.000134
 330	3.2736e+01	13.1034	34.475121	0.000314	3.143506	1.065049	0.000126
 331	3.2835e+01	13.1483	34.612383	0.000345	3.447717	1.168118	0.000138
 332	3.2934e+01	13.1836	34.725423	0.000284	2.839296	0.961980	0.000114
 333	3.3034e+01	13.2317	34.834426	0.000274	2.737893	0.927623	0.000110
 334	3.3133e+01	13.2574	34.923243	0.000223	2.230875	0.755841	0.000089
 335	3.3233e+01	13.3007	35.064542	0.000355	3.549120	1.202474	0.000142
 336	3.3333e+01	13.3376	35.137211	0.000183	1.825262	0.618415	0.000073
 337	3.3432e+01	13.3841	35.278511	0.000355	3.549120	1.202474	0.000142
 338	3.3532e+01	13.4194	35.395588	0.000294	2.940699	0.996336	0.000118
 339	3.3631e+01	13.4643	35.512665	0.000294	2.940699	0.996336	0.000118
 340	3.3730e+01	13.4996	35.645890	0.000335	3.346313	1.133762	0.000134
 341	3.3830e+01	13.5429	35.734707	0.000223	2.230875	0.755841	0.000089
 342	3.3929e+01	13.5702	35.876007	0.000355	3.549120	1.202474	0.000142
 343	3.4029e+01	13.6199	36.005195	0.000324	3.244910	1.099405	0.000130
 344	3.4129e+01	13.6697	36.089975	0.000213	2.129472	0.721485	0.000085
 345	3.4228e+01	13.7066	36.198978	0.000274	2.737893	0.927623	0.000110
 346	3.4328e+01	13.7435	36.316055	0.000294	2.940699	0.996336	0.000118
 347	3.4427e+01	13.7852	36.445243	0.000324	3.244910	1.099405	0.000130
 348	3.4526e+01	13.8221	36.574431	0.000324	3.244910	1.099405	0.000130
 349	3.4626e+01	13.8558	36.687471	0.000284	2.839296	0.961980	0.000114
 350	3.4725e+01	13.9055	36.788399	0.000254	2.535086	0.858910	0.000101
 351	3.4825e+01	13.9392	36.889328	0.000254	2.535086	0.858910	0.000101
 352	3.4925e+01	13.9777	37.022553	0.000335	3.346313	1.133762	0.000134
 353	3.5024e+01	14.0098	37.196150	0.000436	4.360347	1.477326	0.000174
 354	3.5123e+01	14.0595	37.252670	0.000142	1.419648	0.480990	0.000057
 355	3.5223e+01	14.0964	37.426267	0.000436	4.360347	1.477326	0.000174
 356	3.5322e+01	14.1349	37.531232	0.000264	2.636489	0.893267	0.000105
 357	3.5422e+01	14.1814	37.640235	0.000274	2.737893	0.927623	0.000110
 358	3.5522e+01	14.2199	37.793646	0.000385	3.853330	1.305544	0.000154
 359	3.5621e+01	14.2584	37.850166	0.000142	1.419648	0.480990	0.000057
 360	3.5721e+01	14.2985	38.015689	0.000416	4.157541	1.408613	0.000166
 361	3.5820e+01	14.3450	38.124691	0.000274	2.737893	0.927623	0.000110
 362	3.5919e+01	14.3884	38.249843	0.000314	3.143506	1.065049	0.000126
 363	3.6019e+01	14.4237	38.374994	0.000314	3.143506	1.065049	0.000126
 364	3.6118e+01	14.4622	38.475922	0.000254	2.535086	0.858910	0.000101
 365	3.6218e+01	14.4975	38.601073	0.000314	3.143506	1.065049	0.000126
 366	3.6318e+01	14.5311	38.710076	0.000274	2.737893	0.927623	0.000110
 367	3.6417e+01	14.5825	38.827153	0.000294	2.940699	0.996336	0.000118
 368	3.6517e+01	14.6178	38.960378	0.000335	3.346313	1.133762	0.000134
 369	3.6616e+01	14.6579	39.097641	0.000345	3.447717	1.168118	0.000138
 370	3.6715e+01	14.6948	39.238941	0.000355	3.549120	1.202474	0.000142
 371	3.6815e+01	14.7381	39.347943	0.000274	2.737893	0.927623	0.000110
 372	3.6914e+01	14.7750	39.485206	0.000345	3.447717	1.168118	0.000138
 373	3.7014e+01	14.8231	39.590172	0.000264	2.636489	0.893267	0.000105
 374	3.7114e+01	14.8632	39.711286	0.000304	3.042103	1.030692	0.000122
 375	3.7213e+01	14.8889	39.824325	0.000284	2.839296	0.961980	0.000114
 376	3.7313e+01	14.9402	39.933328	0.000274	2.737893	0.927623	0.000110
 377	3.7412e+01	14.9675	40.066554	0.000335	3.346313	1.133762	0.000134
 378	3.7511e+01	15.0236	40.159408	0.000233	2.332279	0.790197	0.000093
 379	3.7611e+01	15.0589	40.272448	0.000284	2.839296	0.961980	0.000114
 380	3.7711e+01	15.0990	40.437970	0.000416	4.157541	1.408613	0.000166
 381	3.7810e+01	15.1343	40.559084	0.000304	3.042103	1.030692	0.000122
 382	3.7910e+01	15.1744	40.680198	0.000304	3.042103	1.030692	0.000122
 383	3.8009e+01	15.2258	40.813424	0.000335	3.346313	1.133762	0.000134
 384	3.8108e+01	15.2450	40.906278	0.000233	2.332279	0.790197	0.000093
 385	3.8208e+01	15.2915	41.027392	0.000304	3.042103	1.030692	0.000122
 386	3.8307e+01	15.3461	41.144469	0.000294	2.940699	0.996336	0.000118
 387	3.8407e+01	15.3814	41.253472	0.000274	2.737893	0.927623	0.000110
 388	3.8507e+01	15.4199	41.374586	0.000304	3.042103	1.030692	0.000122
 389	3.8606e+01	15.4472	41.483588	0.000274	2.737893	0.927623	0.000110
 390	3.8706e+01	15.4937	41.641037	0.000395	3.954734	1.339900	0.000158
 391	3.8805e+01	15.5338	41.709668	0.000172	1.723858	0.584059	0.000069
 392	3.8904e+01	15.5803	41.879228	0.000426	4.258944	1.442969	0.000170
 393	3.9004e+01	15.6060	41.968045	0.000223	2.230875	0.755841	0.000089
 394	3.9103e+01	15.6509	42.081084	0.000284	2.839296	0.961980	0.000114
 395	3.9203e+01	15.6814	42.234496	0.000385	3.853330	1.305544	0.000154
 396	3.9303e+01	15.7327	42.319275	0.000213	2.129472	0.721485	0.000085
 397	3.9402e+01	15.7840	42.432315	0.000284	2.839296	0.961980	0.000114
 398	3.9502e+01	15.8129	42.529206	0.000243	2.433682	0.824554	0.000097
 399	3.9601e+01	15.8434	42.686655	0.000395	3.954734	1.339900	0.000158
 400	3.9700e+01	15.8915	42.807769	0.000304	3.042103	1.030692	0.000122
 401	3.9800e+01	15.9316	42.908697	0.000254	2.535086	0.858910	0.000101
 402	3.9900e+01	15.9685	43.037886	0.000324	3.244910	1.099405	0.000130
 403	3.9999e+01	16.0086	43.114591	0.000193	1.926665	0.652772	0.000077
 404	4.0099e+01	16.0552	43.259928	0.000365	3.650523	1.236831	0.000146
 405	4.0198e+01	16.0905	43.332596	0.000183	1.825262	0.618415	0.000073
 406	4.0297e+01	16.1370	43.502156	0.000426	4.258944	1.442969	0.000170
 407	4.0397e+01	16.1707	43.595010	0.000233	2.332279	0.790197	0.000093
 408	4.0496e+01	16.2092	43.712087	0.000294	2.940699	0.996336	0.000118
 409	4.0596e+01	16.2445	43.865498	0.000385	3.853330	1.305544	0.000154
 410	4.0696e+01	16.2910	43.954315	0.000223	2.230875	0.755841	0.000089
 411	4.0795e+01	16.3343	44.079467	0.000314	3.143506	1.065049	0.000126
 412	4.0895e+01	16.3648	44.200581	0.000304	3.042103	1.030692	0.000122
 413	4.0994e+01	16.4129	44.313620	0.000284	2.839296	0.961980	0.000114
 414	4.1093e+01	16.4498	44.442809	0.000324	3.244910	1.099405	0.000130
 415	4.1193e+01	16.4915	44.543737	0.000254	2.535086	0.858910	0.000101
 416	4.1292e+01	16.5268	44.685037	0.000355	3.549120	1.202474	0.000142
 417	4.1392e+01	16.5669	44.773854	0.000223	2.230875	0.755841	0.000089
 418	4.1492e+01	16.6118	44.899005	0.000314	3.143506	1.065049	0.000126
 419	4.1591e+01	16.6503	45.040305	0.000355	3.549120	1.202474	0.000142
 420	4.1691e+01	16.6920	45.173530	0.000335	3.346313	1.133762	0.000134
 421	4.1790e+01	16.7354	45.262347	0.000223	2.230875	0.755841	0.000089
 422	4.1889e+01	16.7642	45.375387	0.000284	2.839296	0.961980	0.000114
 423	4.1989e+01	16.8172	45.484390	0.000274	2.737893	0.927623	0.000110
 424	4.2089e+01	16.8477	45.617615	0.000335	3.346313	1.133762	0.000134
 425	4.2188e+01	16.8878	45.710469	0.000233	2.332279	0.790197	0.000093
 426	4.2288e+01	16.9311	45.835621	0.000314	3.143506	1.065049	0.000126
 427	4.2387e+01	16.9712	45.980957	0.000365	3.650523	1.236831	0.000146
 428	4.2486e+01	17.0049	46.069774	0.000223	2.230875	0.755841	0.000089
 429	4.2586e+01	17.0450	46.203000	0.000335	3.346313	1.133762	0.000134
 430	4.2685e+01	17.0867	46.291817	0.000223	2.230875	0.755841	0.000089
 431	4.2785e+01	17.1380	46.437154	0.000365	3.650523	1.236831	0.000146
 432	4.2885e+01	17.1717	46.550194	0.000284	2.839296	0.961980	0.000114
 433	4.2984e+01	17.2006	46.659196	0.000274	2.737893	0.927623	0.000110
 434	4.3084e+01	17.2455	46.768199	0.000274	2.737893	0.927623	0.000110
 435	4.3183e+01	17.2920	46.905462	0.000345	3.447717	1.168118	0.000138
 436	4.3282e+01	17.3353	46.986204	0.000203	2.028069	0.687128	0.000081
 437	4.3382e+01	17.3626	47.095207	0.000274	2.737893	0.927623	0.000110
 438	4.3481e+01	17.4123	47.216321	0.000304	3.042103	1.030692	0.000122
 439	4.3581e+01	17.4476	47.349547	0.000335	3.346313	1.133762	0.000134
 440	4.3681e+01	17.4926	47.466623	0.000294	2.940699	0.996336	0.000118
 441	4.3780e+01	17.5278	47.527180	0.000152	1.521051	0.515346	0.000061
 442	4.3880e+01	17.5728	47.680592	0.000385	3.853330	1.305544	0.000154
 443	4.3979e+01	17.6049	47.789594	0.000274	2.737893	0.927623	0.000110
 444	4.4078e+01	17.6530	47.886486	0.000243	2.433682	0.824554	0.000097
 445	4.4178e+01	17.6851	47.987414	0.000254	2.535086	0.858910	0.000101
 446	4.4278e+01	17.7348	48.128714	0.000355	3.549120	1.202474	0.000142
 447	4.4377e+01	17.7669	48.241754	0.000284	2.839296	0.961980	0.000114
 448	4.4477e+01	17.8038	48.338645	0.000243	2.433682	0.824554	0.000097
 449	4.4576e+01	17.8471	48.459759	0.000304	3.042103	1.030692	0.000122
 450	4.4675e+01	17.8904	48.564724	0.000264	2.636489	0.893267	0.000105
 451	4.4775e+01	17.9289	48.665653	0.000254	2.535086	0.858910	0.000101
 452	4.4874e+01	17.9546	48.778693	0.000284	2.839296	0.961980	0.000114
 453	4.4974e+01	18.0075	48.895769	0.000294	2.940699	0.996336	0.000118
 454	4.5074e+01	18.0444	49.020921	0.000314	3.143506	1.065049	0.000126
 455	4.5173e+01	18.0733	49.121849	0.000254	2.535086	0.858910	0.000101
 456	4.5273e+01	18.1262	49.190480	0.000172	1.723858	0.584059	0.000069
 457	4.5372e+01	18.1663	49.323706	0.000335	3.346313	1.133762	0.000134
 458	4.5471e+01	18.2032	49.465006	0.000355	3.549120	1.202474	0.000142
 459	4.5571e+01	18.2481	49.545748	0.000203	2.028069	0.687128	0.000081
 460	4.5670e+01	18.2883	49.674937	0.000324	3.244910	1.099405	0.000130
 461	4.5770e+01	18.3268	49.771828	0.000243	2.433682	0.824554	0.000097
 462	4.5870e+01	18.3653	49.925239	0.000385	3.853330	1.305544	0.000154
 463	4.5969e+01	18.4038	50.038279	0.000284	2.839296	0.961980	0.000114
 464	4.6069e+01	18.4374	50.110947	0.000183	1.825262	0.618415	0.000073
 465	4.6168e+01	18.4872	50.236099	0.000314	3.143506	1.065049	0.000126
 466	4.6267e+01	18.5193	50.341064	0.000264	2.636489	0.893267	0.000105
 467	4.6367e+01	18.5658	50.478327	0.000345	3.447717	1.168118	0.000138
 468	4.6467e+01	18.6075	50.583292	0.000264	2.636489	0.893267	0.000105
 469	4.6566e+01	18.6444	50.708443	0.000314	3.143506	1.065049	0.000126
 470	4.6666e+01	18.6797	50.837632	0.000324	3.244910	1.099405	0.000130
 471	4.6765e+01	18.7262	50.938560	0.000254	2.535086	0.858910	0.000101
 472	4.6864e+01	18.7663	51.031414	0.000233	2.332279	0.790197	0.000093
 473	4.6964e+01	18.8016	51.156566	0.000314	3.143506	1.065049	0.000126
 474	4.7063e+01	18.8481	51.277680	0.000304	3.042103	1.030692	0.000122
 475	4.7163e+01	18.8738	51.374571	0.000243	2.433682	0.824554	0.000097
 476	4.7263e+01	18.9219	51.499722	0.000314	3.143506	1.065049	0.000126
 477	4.7362e+01	18.9572	51.608725	0.000274	2.737893	0.927623	0.000110
 478	4.7462e+01	18.9989	51.693505	0.000213	2.129472	0.721485	0.000085
 479	4.7561e+01	19.0390	51.867101	0.000436	4.360347	1.477326	0.000174
 480	4.7660e+01	19.0807	51.959956	0.000233	2.332279	0.790197	0.000093
 481	4.7760e+01	19.1209	52.077032	0.000294	2.940699	0.996336	0.000118
 482	4.7859e+01	19.1674	52.169887	0.000233	2.332279	0.790197	0.000093
 483	4.7959e+01	19.2027	52.262741	0.000233	2.332279	0.790197	0.000093
 484	4.8059e+01	19.2444	52.367706	0.000264	2.636489	0.893267	0.000105
 485	4.8158e+01	19.2829	52.496895	0.000324	3.244910	1.099405	0.000130
 486	4.8258e+01	19.3262	52.630120	0.000335	3.346313	1.133762	0.000134
 487	4.8357e+01	19.3551	52.763346	0.000335	3.346313	1.133762	0.000134
 488	4.8456e+01	19.3920	52.852163	0.000223	2.230875	0.755841	0.000089
 489	4.8556e+01	19.4513	52.989425	0.000345	3.447717	1.168118	0.000138
 490	4.8656e+01	19.4738	53.098428	0.000274	2.737893	0.927623	0.000110
 491	4.8755e+01	19.5171	53.199356	0.000254	2.535086	0.858910	0.000101
 492	4.8855e+01	19.5604	53.267987	0.000172	1.723858	0.584059	0.000069
 493	4.8954e+01	19.5973	53.413324	0.000365	3.650523	1.236831	0.000146
 494	4.9053e+01	19.6310	53.554624	0.000355	3.549120	1.202474	0.000142
 495	4.9153e+01	19.6759	53.615181	0.000152	1.521051	0.515346	0.000061
 496	4.9252e+01	19.7321	53.760518	0.000365	3.650523	1.236831	0.000146
 497	4.9352e+01	19.7625	53.833186	0.000183	1.825262	0.618415	0.000073
 498	4.9452e+01	19.7898	53.974486	0.000355	3.549120	1.202474	0.000142
 499	4.9551e+01	19.8347	54.067340	0.000233	2.332279	0.790197	0.000093
 500	4.9651e+01	19.8732	54.180380	0.000284	2.839296	0.961980	0.000114
 501	4.9750e+01	19.9230	54.317643	0.000345	3.447717	1.168118	0.000138
 502	4.9849e+01	19.9615	54.430683	0.000284	2.839296	0.961980	0.000114
 503	4.9949e+01	19.9871	54.487202	0.000142	1.419648	0.480990	0.000057
 504	5.0048e+01	19.9615	54.596205	-0.000274	-2.737893	-0.927623	0.000110
 505	5.0148e+01	19.9182	54.713282	-0.000294	-2.940699	-0.996336	0.000118
 506	5.0248e+01	19.8829	54.717319	-0.000010	-0.101403	-0.034356	0.000004
 507	5.0347e+01	19.8347	54.777876	-0.000152	-1.521051	-0.515346	0.000061
 508	5.0447e+01	19.7930	54.777876	-0.000000	-0.000000	-0.000000	0.000000
 509	5.0546e+01	19.7593	54.838433	-0.000152	-1.521051	-0.515346	0.000061
 510	5.0645e+01	19.7289	54.834396	0.000010	0.101403	0.034356	-0.000004
 511	5.0745e+01	19.6759	54.882842	-0.000122	-1.216841	-0.412277	0.000049
 512	5.0844e+01	19.6326	54.854582	0.000071	0.709824	0.240495	-0.000028
 513	5.0944e+01	19.6005	54.850545	0.000010	0.101403	0.034356	-0.000004
 514	5.1044e+01	19.5636	54.818248	0.000081	0.811227	0.274851	-0.000032
 515	5.1143e+01	19.5251	54.842470	-0.000061	-0.608421	-0.206138	0.000024
 516	5.1242e+01	19.4802	54.781913	0.000152	1.521051	0.515346	-0.000061
 517	5.1342e+01	19.4337	54.769802	0.000030	0.304210	0.103069	-0.000012
 518	5.1441e+01	19.3904	54.725393	0.000112	1.115438	0.377921	-0.000045
 519	5.1541e+01	19.3599	54.737505	-0.000030	-0.304210	-0.103069	0.000012
 520	5.1641e+01	19.3166	54.652725	0.000213	2.129472	0.721485	-0.000085
 521	5.1740e+01	19.2733	54.576019	0.000193	1.926665	0.652772	-0.000077
 522	5.1840e+01	19.2412	54.576019	-0.000000	-0.000000	-0.000000	0.000000
 523	5.1939e+01	19.2075	54.471054	0.000264	2.636489	0.893267	-0.000105
 524	5.2038e+01	19.1610	54.374163	0.000243	2.433682	0.824554	-0.000097
 525	5.2138e+01	19.1257	54.382237	-0.000020	-0.202807	-0.068713	0.000008
 526	5.2237e+01	19.0823	54.289383	0.000233	2.332279	0.790197	-0.000093
 527	5.2337e+01	19.0390	54.208640	0.000203	2.028069	0.687128	-0.000081
 528	5.2437e+01	18.9957	54.115786	0.000233	2.332279	0.790197	-0.000093
 529	5.2536e+01	18.9492	54.031006	0.000213	2.129472	0.721485	-0.000085
 530	5.2636e+01	18.9203	53.990635	0.000101	1.014034	0.343564	-0.000041
 531	5.2735e+01	18.8850	53.861446	0.000324	3.244910	1.099405	-0.000130
 532	5.2834e+01	18.8417	53.833186	0.000071	0.709824	0.240495	-0.000028
 533	5.2934e+01	18.8048	53.708035	0.000314	3.143506	1.065049	-0.000126
 534	5.3033e+01	18.7631	53.594995	0.000284	2.839296	0.961980	-0.000114
 535	5.3133e+01	18.7166	53.518290	0.000193	1.926665	0.652772	-0.000077
 536	5.3233e+01	18.6893	53.449659	0.000172	1.723858	0.584059	-0.000069
 537	5.3332e+01	18.6460	53.364879	0.000213	2.129472	0.721485	-0.000085
 538	5.3431e+01	18.6075	53.235690	0.000324	3.244910	1.099405	-0.000130
 539	5.3531e+01	18.5674	53.175133	0.000152	1.521051	0.515346	-0.000061
 540	5.3630e+01	18.5337	53.033834	0.000355	3.549120	1.202474	-0.000142
 541	5.3730e+01	18.4872	52.977314	0.000142	1.419648	0.480990	-0.000057
 542	5.3830e+01	18.4455	52.872348	0.000264	2.636489	0.893267	-0.000105
 543	5.3929e+01	18.4054	52.771420	0.000254	2.535086	0.858910	-0.000101
 544	5.4029e+01	18.3701	52.694714	0.000193	1.926665	0.652772	-0.000077
 545	5.4128e+01	18.3268	52.569563	0.000314	3.143506	1.065049	-0.000126
 546	5.4227e+01	18.2883	52.472672	0.000243	2.433682	0.824554	-0.000097
 547	5.4327e+01	18.2481	52.391929	0.000203	2.028069	0.687128	-0.000081
 548	5.4426e+01	18.2000	52.291001	0.000254	2.535086	0.858910	-0.000101
 549	5.4526e+01	18.1679	52.161812	0.000324	3.244910	1.099405	-0.000130
 550	5.4626e+01	18.1150	52.097218	0.000162	1.622455	0.549703	-0.000065
 551	5.4725e+01	18.0893	51.959956	0.000345	3.447717	1.168118	-0.000138
 552	5.4825e+01	18.0428	51.887287	0.000183	1.825262	0.618415	-0.000073
 553	5.4924e+01	18.0059	51.802507	0.000213	2.129472	0.721485	-0.000085
 554	5.5023e+01	17.9754	51.689467	0.000284	2.839296	0.961980	-0.000114
 555	5.5123e+01	17.9273	51.576428	0.000284	2.839296	0.961980	-0.000114
 556	5.5222e+01	17.8872	51.479536	0.000243	2.433682	0.824554	-0.000097
 557	5.5322e+01	17.8567	51.370534	0.000274	2.737893	0.927623	-0.000110
 558	5.5422e+01	17.8054	51.293828	0.000193	1.926665	0.652772	-0.000077
 559	5.5521e+01	17.7621	51.172714	0.000304	3.042103	1.030692	-0.000122
 560	5.5620e+01	17.7220	51.043526	0.000324	3.244910	1.099405	-0.000130
 561	5.5720e+01	17.6722	50.970857	0.000183	1.825262	0.618415	-0.000073
 562	5.5819e+01	17.6434	50.865892	0.000264	2.636489	0.893267	-0.000105
 563	5.5919e+01	17.6145	50.773038	0.000233	2.332279	0.790197	-0.000093
 564	5.6019e+01	17.5599	50.659998	0.000284	2.839296	0.961980	-0.000114
 565	5.6118e+01	17.5246	50.550995	0.000274	2.737893	0.927623	-0.000110
 566	5.6218e+01	17.4910	50.478327	0.000183	1.825262	0.618415	-0.000073
 567	5.6317e+01	17.4524	50.349138	0.000324	3.244910	1.099405	-0.000130
 568	5.6416e+01	17.4204	50.264359	0.000213	2.129472	0.721485	-0.000085
 569	5.6516e+01	17.3658	50.163430	0.000254	2.535086	0.858910	-0.000101
 570	5.6615e+01	17.3177	50.074613	0.000223	2.230875	0.755841	-0.000089
 571	5.6715e+01	17.2936	49.953499	0.000304	3.042103	1.030692	-0.000122
 572	5.6815e+01	17.2519	49.852571	0.000254	2.535086	0.858910	-0.000101
 573	5.6914e+01	17.2054	49.731457	0.000304	3.042103	1.030692	-0.000122
 574	5.7014e+01	17.1733	49.590157	0.000355	3.549120	1.202474	-0.000142
 575	5.7113e+01	17.1332	49.565934	0.000061	0.608421	0.206138	-0.000024
 576	5.7212e+01	17.0867	49.396374	0.000426	4.258944	1.442969	-0.000170
 577	5.7312e+01	17.0562	49.311594	0.000213	2.129472	0.721485	-0.000085
 578	5.7411e+01	17.0033	49.251037	0.000152	1.521051	0.515346	-0.000061
 579	5.7511e+01	16.9728	49.129923	0.000304	3.042103	1.030692	-0.000122
 580	5.7611e+01	16.9359	49.020921	0.000274	2.737893	0.927623	-0.000110
 581	5.7710e+01	16.8846	48.915955	0.000264	2.636489	0.893267	-0.000105
 582	5.7809e+01	16.8525	48.815027	0.000254	2.535086	0.858910	-0.000101
 583	5.7909e+01	16.8124	48.685838	0.000324	3.244910	1.099405	-0.000130
 584	5.8008e+01	16.7594	48.605096	0.000203	2.028069	0.687128	-0.000081
 585	5.8108e+01	16.7321	48.528390	0.000193	1.926665	0.652772	-0.000077
 586	5.8208e+01	16.6936	48.370942	0.000395	3.954734	1.339900	-0.000158
 587	5.8307e+01	16.6471	48.294236	0.000193	1.926665	0.652772	-0.000077
 588	5.8407e+01	16.6070	48.193308	0.000254	2.535086	0.858910	-0.000101
 589	5.8506e+01	16.5701	48.100454	0.000233	2.332279	0.790197	-0.000093
 590	5.8605e+01	16.5252	47.991451	0.000274	2.737893	0.927623	-0.000110
 591	5.8705e+01	16.4931	47.866300	0.000314	3.143506	1.065049	-0.000126
 592	5.8804e+01	16.4482	47.749223	0.000294	2.940699	0.996336	-0.000118
 593	5.8904e+01	16.4065	47.636183	0.000284	2.839296	0.961980	-0.000114
 594	5.9004e+01	16.3728	47.563515	0.000183	1.825262	0.618415	-0.000073
 595	5.9103e+01	16.3311	47.418178	0.000365	3.650523	1.236831	-0.000146
 596	5.9203e+01	16.2910	47.317249	0.000254	2.535086	0.858910	-0.000101
 597	5.9302e+01	16.2525	47.204210	0.000284	2.839296	0.961980	-0.000114
 598	5.9401e+01	16.2108	47.135578	0.000172	1.723858	0.584059	-0.000069
 599	5.9501e+01	16.1707	46.990241	0.000365	3.650523	1.236831	-0.000146
 600	5.9600e+01	16.1241	46.921610	0.000172	1.723858	0.584059	-0.000069
 601	5.9700e+01	16.0969	46.812607	0.000274	2.737893	0.927623	-0.000110
 602	5.9800e+01	16.0503	46.727828	0.000213	2.129472	0.721485	-0.000085
 603	5.9899e+01	16.0102	46.550194	0.000446	4.461751	1.511682	-0.000179
 604	5.9998e+01	15.9653	46.441191	0.000274	2.737893	0.927623	-0.000110
 605	6.0098e+01	15.9397	46.348337	0.000233	2.332279	0.790197	-0.000093
 606	6.0197e+01	15.8931	46.295854	0.000132	1.318245	0.446633	-0.000053
 607	6.0297e+01	15.8450	46.158591	0.000345	3.447717	1.168118	-0.000138
 608	6.0397e+01	15.8065	46.021329	0.000345	3.447717	1.168118	-0.000138
 609	6.0496e+01	15.7728	45.952698	0.000172	1.723858	0.584059	-0.000069
 610	6.0596e+01	15.7311	45.815435	0.000345	3.447717	1.168118	-0.000138
 611	6.0695e+01	15.6958	45.698358	0.000294	2.940699	0.996336	-0.000118
 612	6.0794e+01	15.6605	45.577244	0.000304	3.042103	1.030692	-0.000122
 613	6.0894e+01	15.6060	45.500538	0.000193	1.926665	0.652772	-0.000077
 614	6.0993e+01	15.5595	45.363276	0.000345	3.447717	1.168118	-0.000138
 615	6.1093e+01	15.5386	45.310793	0.000132	1.318245	0.446633	-0.000053
 616	6.1193e+01	15.4905	45.165456	0.000365	3.650523	1.236831	-0.000146
 617	6.1292e+01	15.4552	45.032231	0.000335	3.346313	1.133762	-0.000134
 618	6.1392e+01	15.4199	44.935339	0.000243	2.433682	0.824554	-0.000097
 619	6.1491e+01	15.3782	44.810188	0.000314	3.143506	1.065049	-0.000126
 620	6.1590e+01	15.3413	44.681000	0.000324	3.244910	1.099405	-0.000130
 621	6.1690e+01	15.2980	44.612368	0.000172	1.723858	0.584059	-0.000069
 622	6.1789e+01	15.2546	44.467032	0.000365	3.650523	1.236831	-0.000146
 623	6.1889e+01	15.2113	44.374177	0.000233	2.332279	0.790197	-0.000093
 624	6.1989e+01	15.1760	44.253063	0.000304	3.042103	1.030692	-0.000122
 625	6.2088e+01	15.1343	44.156172	0.000243	2.433682	0.824554	-0.000097
 626	6.2188e+01	15.0894	44.067355	0.000223	2.230875	0.755841	-0.000089
 627	6.2287e+01	15.0541	43.946241	0.000304	3.042103	1.030692	-0.000122
 628	6.2386e+01	15.0220	43.829164	0.000294	2.940699	0.996336	-0.000118
 629	6.2486e+01	14.9755	43.695939	0.000335	3.346313	1.133762	-0.000134
 630	6.2586e+01	14.9338	43.603085	0.000233	2.332279	0.790197	-0.000093
 631	6.2685e+01	14.8953	43.473896	0.000324	3.244910	1.099405	-0.000130
 632	6.2785e+01	14.8616	43.393153	0.000203	2.028069	0.687128	-0.000081
 633	6.2884e+01	14.8087	43.272039	0.000304	3.042103	1.030692	-0.000122
 634	6.2983e+01	14.7782	43.171111	0.000254	2.535086	0.858910	-0.000101
 635	6.3083e+01	14.7349	43.029811	0.000355	3.549120	1.202474	-0.000142
 636	6.3182e+01	14.6948	42.916771	0.000284	2.839296	0.961980	-0.000114
 637	6.3282e+01	14.6595	42.827954	0.000223	2.230875	0.755841	-0.000089
 638	6.3382e+01	14.6146	42.694729	0.000335	3.346313	1.133762	-0.000134
 639	6.3481e+01	14.5777	42.577652	0.000294	2.940699	0.996336	-0.000118
 640	6.3581e+01	14.5327	42.488835	0.000223	2.230875	0.755841	-0.000089
 641	6.3680e+01	14.4942	42.375795	0.000284	2.839296	0.961980	-0.000114
 642	6.3779e+01	14.4557	42.291015	0.000213	2.129472	0.721485	-0.000085
 643	6.3879e+01	14.4204	42.161827	0.000324	3.244910	1.099405	-0.000130
 644	6.3978e+01	14.3787	42.060899	0.000254	2.535086	0.858910	-0.000101
 645	6.4078e+01	14.3354	41.964007	0.000243	2.433682	0.824554	-0.000097
 646	6.4177e+01	14.3033	41.814633	0.000375	3.751927	1.271187	-0.000150
 647	6.4277e+01	14.2632	41.705631	0.000274	2.737893	0.927623	-0.000110
 648	6.4376e+01	14.2167	41.568368	0.000345	3.447717	1.168118	-0.000138
 649	6.4476e+01	14.1814	41.499737	0.000172	1.723858	0.584059	-0.000069
 650	6.4576e+01	14.1413	41.382660	0.000294	2.940699	0.996336	-0.000118
 651	6.4675e+01	14.1044	41.257509	0.000314	3.143506	1.065049	-0.000126
 652	6.4775e+01	14.0675	41.156580	0.000254	2.535086	0.858910	-0.000101
 653	6.4874e+01	14.0226	41.055652	0.000254	2.535086	0.858910	-0.000101
 654	6.4974e+01	13.9777	40.926464	0.000324	3.244910	1.099405	-0.000130
 655	6.5073e+01	13.9376	40.849758	0.000193	1.926665	0.652772	-0.000077
 656	6.5172e+01	13.8943	40.724607	0.000314	3.143506	1.065049	-0.000126
 657	6.5272e+01	13.8574	40.571196	0.000385	3.853330	1.305544	-0.000154
 658	6.5371e+01	13.8173	40.506601	0.000162	1.622455	0.549703	-0.000065
 659	6.5471e+01	13.7852	40.369339	0.000345	3.447717	1.168118	-0.000138
 660	6.5570e+01	13.7515	40.268410	0.000254	2.535086	0.858910	-0.000101
 661	6.5670e+01	13.7034	40.183631	0.000213	2.129472	0.721485	-0.000085
 662	6.5769e+01	13.6584	40.018108	0.000416	4.157541	1.408613	-0.000166
 663	6.5869e+01	13.6199	39.925254	0.000233	2.332279	0.790197	-0.000093
 664	6.5969e+01	13.5862	39.800103	0.000314	3.143506	1.065049	-0.000126
 665	6.6068e+01	13.5349	39.695137	0.000264	2.636489	0.893267	-0.000105
 666	6.6168e+01	13.4964	39.574023	0.000304	3.042103	1.030692	-0.000122
 667	6.6267e+01	13.4643	39.448872	0.000314	3.143506	1.065049	-0.000126
 668	6.6367e+01	13.4242	39.343906	0.000264	2.636489	0.893267	-0.000105
 669	6.6466e+01	13.3905	39.242978	0.000254	2.535086	0.858910	-0.000101
 670	6.6566e+01	13.3360	39.133975	0.000274	2.737893	0.927623	-0.000110
 671	6.6665e+01	13.3007	38.984601	0.000375	3.751927	1.271187	-0.000150
 672	6.6764e+01	13.2670	38.895784	0.000223	2.230875	0.755841	-0.000089
 673	6.6864e+01	13.2285	38.798893	0.000243	2.433682	0.824554	-0.000097
 674	6.6963e+01	13.1964	38.693927	0.000264	2.636489	0.893267	-0.000105
 675	6.7063e+01	13.1435	38.560702	0.000335	3.346313	1.133762	-0.000134
 676	6.7162e+01	13.1050	38.447662	0.000284	2.839296	0.961980	-0.000114
 677	6.7262e+01	13.0585	38.314437	0.000335	3.346313	1.133762	-0.000134
 678	6.7362e+01	13.0232	38.249843	0.000162	1.622455	0.549703	-0.000065
 679	6.7461e+01	12.9863	38.120654	0.000324	3.244910	1.099405	-0.000130
 680	6.7561e+01	12.9381	37.991466	0.000324	3.244910	1.099405	-0.000130
 681	6.7660e+01	12.9028	37.910723	0.000203	2.028069	0.687128	-0.000081
 682	6.7760e+01	12.8659	37.773461	0.000345	3.447717	1.168118	-0.000138
 683	6.7859e+01	12.8290	37.668495	0.000264	2.636489	0.893267	-0.000105
 684	6.7959e+01	12.7905	37.543344	0.000314	3.143506	1.065049	-0.000126
 685	6.8058e+01	12.7456	37.446453	0.000243	2.433682	0.824554	-0.000097
 686	6.8157e+01	12.7103	37.337450	0.000274	2.737893	0.927623	-0.000110
 687	6.8257e+01	12.6702	37.224410	0.000284	2.839296	0.961980	-0.000114
 688	6.8356e+01	12.6317	37.139630	0.000213	2.129472	0.721485	-0.000085
 689	6.8456e+01	12.5884	37.022553	0.000294	2.940699	0.996336	-0.000118
 690	6.8555e+01	12.5595	36.893365	0.000324	3.244910	1.099405	-0.000130
 691	6.8655e+01	12.5050	36.776288	0.000294	2.940699	0.996336	-0.000118
 692	6.8754e+01	12.4681	36.679397	0.000243	2.433682	0.824554	-0.000097
 693	6.8854e+01	12.4344	36.542134	0.000345	3.447717	1.168118	-0.000138
 694	6.8954e+01	12.3927	36.400834	0.000355	3.549120	1.202474	-0.000142
 695	6.9053e+01	12.3526	36.380649	0.000051	0.507017	0.171782	-0.000020
 696	6.9153e+01	12.3029	36.235312	0.000365	3.650523	1.236831	-0.000146
 697	6.9252e+01	12.2740	36.106123	0.000324	3.244910	1.099405	-0.000130
 698	6.9352e+01	12.2387	35.993084	0.000284	2.839296	0.961980	-0.000114
 699	6.9451e+01	12.1922	35.892155	0.000254	2.535086	0.858910	-0.000101
 700	6.9550e+01	12.1553	35.775078	0.000294	2.940699	0.996336	-0.000118
 701	6.9650e+01	12.1055	35.653964	0.000304	3.042103	1.030692	-0.000122
 702	6.9749e+01	12.0735	35.561110	0.000233	2.332279	0.790197	-0.000093
 703	6.9849e+01	12.0382	35.444033	0.000294	2.940699	0.996336	-0.000118
 704	6.9948e+01	11.9916	35.351179	0.000233	2.332279	0.790197	-0.000093
 705	7.0048e+01	11.9531	35.221991	0.000324	3.244910	1.099405	-0.000130
 706	7.0147e+01	11.9162	35.108951	0.000284	2.839296	0.961980	-0.000114
 707	7.0247e+01	11.8826	35.048394	0.000152	1.521051	0.515346	-0.000061
 708	7.0347e+01	11.8344	34.923243	0.000314	3.143506	1.065049	-0.000126
 709	7.0446e+01	11.7943	34.785980	0.000345	3.447717	1.168118	-0.000138
 710	7.0546e+01	11.7494	34.749646	0.000091	0.912631	0.309208	-0.000037
 711	7.0645e+01	11.7077	34.596235	0.000385	3.853330	1.305544	-0.000154
 712	7.0745e+01	11.6724	34.475121	0.000304	3.042103	1.030692	-0.000122
 713	7.0844e+01	11.6323	34.341895	0.000335	3.346313	1.133762	-0.000134
 714	7.0944e+01	11.5986	34.257115	0.000213	2.129472	0.721485	-0.000085
 715	7.1043e+01	11.5553	34.127927	0.000324	3.244910	1.099405	-0.000130
 716	7.1142e+01	11.5152	34.039110	0.000223	2.230875	0.755841	-0.000089
 717	7.1242e+01	11.4799	33.905884	0.000335	3.346313	1.133762	-0.000134
 718	7.1341e+01	11.4334	33.808993	0.000243	2.433682	0.824554	-0.000097
 719	7.1441e+01	11.3981	33.699991	0.000274	2.737893	0.927623	-0.000110
 720	7.1540e+01	11.3644	33.595025	0.000264	2.636489	0.893267	-0.000105
 721	7.1640e+01	11.3163	33.433540	0.000406	4.056137	1.374256	-0.000162
 722	7.1740e+01	11.2762	33.340685	0.000233	2.332279	0.790197	-0.000093
 723	7.1839e+01	11.2409	33.251869	0.000223	2.230875	0.755841	-0.000089
 724	7.1939e+01	11.1991	33.150940	0.000254	2.535086	0.858910	-0.000101
 725	7.2038e+01	11.1494	33.005603	0.000365	3.650523	1.236831	-0.000146
 726	7.2138e+01	11.1173	32.884489	0.000304	3.042103	1.030692	-0.000122
 727	7.2237e+01	11.0724	32.787598	0.000243	2.433682	0.824554	-0.000097
 728	7.2337e+01	11.0419	32.650335	0.000345	3.447717	1.168118	-0.000138
 729	7.2436e+01	10.9906	32.557481	0.000233	2.332279	0.790197	-0.000093
 730	7.2535e+01	10.9649	32.387921	0.000426	4.258944	1.442969	-0.000170
 731	7.2635e+01	10.9168	32.311216	0.000193	1.926665	0.652772	-0.000077
 732	7.2734e+01	10.8719	32.182028	0.000324	3.244910	1.099405	-0.000130
 733	7.2834e+01	10.8334	32.089173	0.000233	2.332279	0.790197	-0.000093
 734	7.2933e+01	10.7997	31.976134	0.000284	2.839296	0.961980	-0.000114
 735	7.3033e+01	10.7564	31.850982	0.000314	3.143506	1.065049	-0.000126
 736	7.3132e+01	10.7115	31.733905	0.000294	2.940699	0.996336	-0.000118
 737	7.3232e+01	10.6698	31.608754	0.000314	3.143506	1.065049	-0.000126
 738	7.3332e+01	10.6264	31.515900	0.000233	2.332279	0.790197	-0.000093
 739	7.3431e+01	10.5879	31.455343	0.000152	1.521051	0.515346	-0.000061
 740	7.3531e+01	10.5559	31.297895	0.000395	3.954734	1.339900	-0.000158
 741	7.3630e+01	10.5190	31.156595	0.000355	3.549120	1.202474	-0.000142
 742	7.3730e+01	10.4772	31.043555	0.000284	2.839296	0.961980	-0.000114
 743	7.3829e+01	10.4436	31.003184	0.000101	1.014034	0.343564	-0.000041
 744	7.3928e+01	10.3970	30.857847	0.000365	3.650523	1.236831	-0.000146
 745	7.4028e+01	10.3505	30.764993	0.000233	2.332279	0.790197	-0.000093
 746	7.4127e+01	10.3136	30.627730	0.000345	3.447717	1.168118	-0.000138
 747	7.4227e+01	10.2767	30.514690	0.000284	2.839296	0.961980	-0.000114
 748	7.4326e+01	10.2398	30.421836	0.000233	2.332279	0.790197	-0.000093
 749	7.4426e+01	10.2045	30.284574	0.000345	3.447717	1.168118	-0.000138
 750	7.4525e+01	10.1612	30.191720	0.000233	2.332279	0.790197	-0.000093
 751	7.4625e+01	10.1067	30.034271	0.000395	3.954734	1.339900	-0.000158
 752	7.4725e+01	10.0842	29.961603	0.000183	1.825262	0.618415	-0.000073
 753	7.4824e+01	10.0393	29.812229	0.000375	3.751927	1.271187	-0.000150
 754	7.4924e+01	10.0008	29.711300	0.000254	2.535086	0.858910	-0.000101
 755	7.5023e+01	9.9607	29.574038	0.000345	3.447717	1.168118	-0.000138
 756	7.5123e+01	9.9174	29.505407	0.000172	1.723858	0.584059	-0.000069
 757	7.5222e+01	9.8773	29.364107	0.000355	3.549120	1.202474	-0.000142
 758	7.5322e+01	9.8275	29.271253	0.000233	2.332279	0.790197	-0.000093
 759	7.5421e+01	9.8051	29.121879	0.000375	3.751927	1.271187	-0.000150
 760	7.5520e+01	9.7602	29.029025	0.000233	2.332279	0.790197	-0.000093
 761	7.5620e+01	9.7184	28.956356	0.000183	1.825262	0.618415	-0.000073
 762	7.5719e+01	9.6719	28.802945	0.000385	3.853330	1.305544	-0.000154
 763	7.5819e+01	9.6430	28.629348	0.000436	4.360347	1.477326	-0.000174
 764	7.5918e+01	9.6045	28.564754	0.000162	1.622455	0.549703	-0.000065
 765	7.6018e+01	9.5676	28.439603	0.000314	3.143506	1.065049	-0.000126
 766	7.6118e+01	9.5195	28.322526	0.000294	2.940699	0.996336	-0.000118
 767	7.6217e+01	9.4826	28.169115	0.000385	3.853330	1.305544	-0.000154
 768	7.6317e+01	9.4377	28.080298	0.000223	2.230875	0.755841	-0.000089
 769	7.6416e+01	9.3976	27.943035	0.000345	3.447717	1.168118	-0.000138
 770	7.6516e+01	9.3639	27.870367	0.000183	1.825262	0.618415	-0.000073
 771	7.6615e+01	9.3222	27.725030	0.000365	3.650523	1.236831	-0.000146
 772	7.6715e+01	9.2901	27.611990	0.000284	2.839296	0.961980	-0.000114
 773	7.6814e+01	9.2388	27.478764	0.000335	3.346313	1.133762	-0.000134
 774	7.6913e+01	9.2035	27.365725	0.000284	2.839296	0.961980	-0.000114
 775	7.7013e+01	9.1634	27.264796	0.000254	2.535086	0.858910	-0.000101
 776	7.7112e+01	9.1249	27.123496	0.000355	3.549120	1.202474	-0.000142
 777	7.7212e+01	9.0880	27.006420	0.000294	2.940699	0.996336	-0.000118
 778	7.7311e+01	9.0495	26.905491	0.000254	2.535086	0.858910	-0.000101
 779	7.7411e+01	8.9981	26.748043	0.000395	3.954734	1.339900	-0.000158
 780	7.7510e+01	8.9612	26.659226	0.000223	2.230875	0.755841	-0.000089
 781	7.7610e+01	8.9211	26.542149	0.000294	2.940699	0.996336	-0.000118
 782	7.7710e+01	8.8955	26.433146	0.000274	2.737893	0.927623	-0.000110
 783	7.7809e+01	8.8441	26.328181	0.000264	2.636489	0.893267	-0.000105
 784	7.7909e+01	8.8056	26.154584	0.000436	4.360347	1.477326	-0.000174
 785	7.8008e+01	8.7607	26.049618	0.000264	2.636489	0.893267	-0.000105
 786	7.8108e+01	8.7238	25.916393	0.000335	3.346313	1.133762	-0.000134
 787	7.8207e+01	8.6885	25.811427	0.000264	2.636489	0.893267	-0.000105
 788	7.8306e+01	8.6468	25.674165	0.000345	3.447717	1.168118	-0.000138
 789	7.8406e+01	8.6019	25.577273	0.000243	2.433682	0.824554	-0.000097
 790	7.8505e+01	8.5698	25.448085	0.000324	3.244910	1.099405	-0.000130
 791	7.8605e+01	8.5281	25.314860	0.000335	3.346313	1.133762	-0.000134
 792	7.8704e+01	8.4816	25.242191	0.000183	1.825262	0.618415	-0.000073
 793	7.8804e+01	8.4511	25.100891	0.000355	3.549120	1.202474	-0.000142
 794	7.8903e+01	8.4094	24.979777	0.000304	3.042103	1.030692	-0.000122
 795	7.9003e+01	8.3661	24.878849	0.000254	2.535086	0.858910	-0.000101
 796	7.9103e+01	8.3196	24.729475	0.000375	3.751927	1.271187	-0.000150
 797	7.9202e+01	8.2794	24.636621	0.000233	2.332279	0.790197	-0.000093
 798	7.9302e+01	8.2538	24.487247	0.000375	3.751927	1.271187	-0.000150
 799	7.9401e+01	8.2040	24.390356	0.000243	2.433682	0.824554	-0.000097
 800	7.9501e+01	8.1671	24.277316	0.000284	2.839296	0.961980	-0.000114
 801	7.9600e+01	8.1303	24.111793	0.000416	4.157541	1.408613	-0.000166
 802	7.9700e+01	8.0773	24.067385	0.000112	1.115438	0.377921	-0.000045
 803	7.9799e+01	8.0516	23.901862	0.000416	4.157541	1.408613	-0.000166
 804	7.9898e+01	8.0244	23.804971	0.000243	2.433682	0.824554	-0.000097
 805	7.9998e+01	7.9650	23.695968	0.000274	2.737893	0.927623	-0.000110
 806	8.0097e+01	7.9345	23.526409	0.000426	4.258944	1.442969	-0.000170
 807	8.0197e+01	7.8832	23.421443	0.000264	2.636489	0.893267	-0.000105
 808	8.0296e+01	7.8543	23.324552	0.000243	2.433682	0.824554	-0.000097
 809	8.0396e+01	7.8110	23.191326	0.000335	3.346313	1.133762	-0.000134
 810	8.0496e+01	7.7725	23.070212	0.000304	3.042103	1.030692	-0.000122
 811	8.0595e+01	7.7260	22.969284	0.000254	2.535086	0.858910	-0.000101
 812	8.0695e+01	7.6859	22.840095	0.000324	3.244910	1.099405	-0.000130
 813	8.0794e+01	7.6490	22.727056	0.000284	2.839296	0.961980	-0.000114
 814	8.0894e+01	7.6041	22.634202	0.000233	2.332279	0.790197	-0.000093
 815	8.0993e+01	7.5656	22.464642	0.000426	4.258944	1.442969	-0.000170
 816	8.1093e+01	7.5239	22.335453	0.000324	3.244910	1.099405	-0.000130
 817	8.1192e+01	7.4902	22.230488	0.000264	2.636489	0.893267	-0.000105
 818	8.1291e+01	7.4485	22.117448	0.000284	2.839296	0.961980	-0.000114
 819	8.1391e+01	7.4132	22.000371	0.000294	2.940699	0.996336	-0.000118
 820	8.1490e+01	7.3666	21.887331	0.000284	2.839296	0.961980	-0.000114
 821	8.1590e+01	7.3329	21.758143	0.000324	3.244910	1.099405	-0.000130
 822	8.1689e+01	7.2800	21.616843	0.000355	3.549120	1.202474	-0.000142
 823	8.1789e+01	7.2383	21.483618	0.000335	3.346313	1.133762	-0.000134
 824	8.1888e+01	7.2110	21.374615	0.000274	2.737893	0.927623	-0.000110
 825	8.1988e+01	7.1693	21.253501	0.000304	3.042103	1.030692	-0.000122
 826	8.2088e+01	7.1324	21.176796	0.000193	1.926665	0.652772	-0.000077
 827	8.2187e+01	7.0891	21.027421	0.000375	3.751927	1.271187	-0.000150
 828	8.2287e+01	7.0538	20.914382	0.000284	2.839296	0.961980	-0.000114
 829	8.2386e+01	7.0121	20.785193	0.000324	3.244910	1.099405	-0.000130
 830	8.2486e+01	6.9704	20.664079	0.000304	3.042103	1.030692	-0.000122
 831	8.2585e+01	6.9207	20.526817	0.000345	3.447717	1.168118	-0.000138
 832	8.2684e+01	6.8854	20.438000	0.000223	2.230875	0.755841	-0.000089
 833	8.2784e+01	6.8597	20.304774	0.000335	3.346313	1.133762	-0.000134
 834	8.2883e+01	6.8164	20.143289	0.000406	4.056137	1.374256	-0.000162
 835	8.2983e+01	6.7747	20.018138	0.000314	3.143506	1.065049	-0.000126
 836	8.3082e+01	6.7378	19.925283	0.000233	2.332279	0.790197	-0.000093
 837	8.3182e+01	6.6864	19.828392	0.000243	2.433682	0.824554	-0.000097
 838	8.3281e+01	6.6608	19.679018	0.000375	3.751927	1.271187	-0.000150
 839	8.3381e+01	6.6175	19.561941	0.000294	2.940699	0.996336	-0.000118
 840	8.3481e+01	6.5645	19.408530	0.000385	3.853330	1.305544	-0.000154
 841	8.3580e+01	6.5405	19.319713	0.000223	2.230875	0.755841	-0.000089
 842	8.3680e+01	6.4859	19.154191	0.000416	4.157541	1.408613	-0.000166
 843	8.3779e+01	6.4522	19.057299	0.000243	2.433682	0.824554	-0.000097
 844	8.3879e+01	6.4121	18.960408	0.000243	2.433682	0.824554	-0.000097
 845	8.3978e+01	6.3672	18.851405	0.000274	2.737893	0.927623	-0.000110
 846	8.4078e+01	6.3335	18.730291	0.000304	3.042103	1.030692	-0.000122
 847	8.4177e+01	6.3014	18.572843	0.000395	3.954734	1.339900	-0.000158
 848	8.4276e+01	6.2533	18.488063	0.000213	2.129472	0.721485	-0.000085
 849	8.4376e+01	6.2196	18.370986	0.000294	2.940699	0.996336	-0.000118
 850	8.4475e+01	6.1811	18.270058	0.000254	2.535086	0.858910	-0.000101
 851	8.4575e+01	6.1426	18.132795	0.000345	3.447717	1.168118	-0.000138
 852	8.4674e+01	6.0881	18.015718	0.000294	2.940699	0.996336	-0.000118
 853	8.4774e+01	6.0544	17.898641	0.000294	2.940699	0.996336	-0.000118
 854	8.4874e+01	6.0127	17.753304	0.000365	3.650523	1.236831	-0.000146
 855	8.4973e+01	5.9806	17.652376	0.000254	2.535086	0.858910	-0.000101
 856	8.5073e+01	5.9373	17.535299	0.000294	2.940699	0.996336	-0.000118
 857	8.5172e+01	5.8875	17.418222	0.000294	2.940699	0.996336	-0.000118
 858	8.5272e+01	5.8554	17.309219	0.000274	2.737893	0.927623	-0.000110
 859	8.5371e+01	5.8153	17.163883	0.000365	3.650523	1.236831	-0.000146
 860	8.5471e+01	5.7801	17.071028	0.000233	2.332279	0.790197	-0.000093
 861	8.5570e+01	5.7367	16.945877	0.000314	3.143506	1.065049	-0.000126
 862	8.5669e+01	5.6950	16.804578	0.000355	3.549120	1.202474	-0.000142
 863	8.5769e+01	5.6597	16.695575	0.000274	2.737893	0.927623	-0.000110
 864	8.5868e+01	5.6180	16.578498	0.000294	2.940699	0.996336	-0.000118
 865	8.5968e+01	5.5779	16.465458	0.000284	2.839296	0.961980	-0.000114
 866	8.6067e+01	5.5346	16.336270	0.000324	3.244910	1.099405	-0.000130
 867	8.6167e+01	5.5041	16.239379	0.000243	2.433682	0.824554	-0.000097
 868	8.6266e+01	5.4576	16.106153	0.000335	3.346313	1.133762	-0.000134
 869	8.6366e+01	5.4159	15.997150	0.000274	2.737893	0.927623	-0.000110
 870	8.6466e+01	5.3806	15.896222	0.000254	2.535086	0.858910	-0.000101
 871	8.6565e+01	5.3357	15.819516	0.000193	1.926665	0.652772	-0.000077
 872	8.6665e+01	5.2940	15.678217	0.000355	3.549120	1.202474	-0.000142
 873	8.6764e+01	5.2587	15.536917	0.000355	3.549120	1.202474	-0.000142
 874	8.6864e+01	5.2202	15.456174	0.000203	2.028069	0.687128	-0.000081
 875	8.6963e+01	5.1769	15.290652	0.000416	4.157541	1.408613	-0.000166
 876	8.7063e+01	5.1432	15.185686	0.000264	2.636489	0.893267	-0.000105
 877	8.7162e+01	5.0918	15.088795	0.000243	2.433682	0.824554	-0.000097
 878	8.7261e+01	5.0630	14.947495	0.000355	3.549120	1.202474	-0.000142
 879	8.7361e+01	5.0164	14.858678	0.000223	2.230875	0.755841	-0.000089
 880	8.7460e+01	4.9795	14.709304	0.000375	3.751927	1.271187	-0.000150
 881	8.7560e+01	4.9394	14.612413	0.000243	2.433682	0.824554	-0.000097
 882	8.7659e+01	4.8945	14.515522	0.000243	2.433682	0.824554	-0.000097
 883	8.7759e+01	4.8624	14.386333	0.000324	3.244910	1.099405	-0.000130
 884	8.7859e+01	4.8255	14.228885	0.000395	3.954734	1.339900	-0.000158
 885	8.7958e+01	4.7806	14.103734	0.000314	3.143506	1.065049	-0.000126
 886	8.8058e+01	4.7357	14.002805	0.000254	2.535086	0.858910	-0.000101
 887	8.8157e+01	4.7036	13.909951	0.000233	2.332279	0.790197	-0.000093
 888	8.8257e+01	4.6587	13.788837	0.000304	3.042103	1.030692	-0.000122
 889	8.8356e+01	4.6170	13.651574	0.000345	3.447717	1.168118	-0.000138
 890	8.8456e+01	4.5929	13.514312	0.000345	3.447717	1.168118	-0.000138
 891	8.8555e+01	4.5416	13.413383	0.000254	2.535086	0.858910	-0.000101
 892	8.8654e+01	4.5047	13.300344	0.000284	2.839296	0.961980	-0.000114
 893	8.8754e+01	4.4582	13.191341	0.000274	2.737893	0.927623	-0.000110
 894	8.8853e+01	4.4213	13.001596	0.000477	4.765961	1.614751	-0.000191
 895	8.8953e+01	4.3796	12.896630	0.000264	2.636489	0.893267	-0.000105
 896	8.9052e+01	4.3411	12.799739	0.000243	2.433682	0.824554	-0.000097
 897	8.9152e+01	4.3026	12.702848	0.000243	2.433682	0.824554	-0.000097
 898	8.9251e+01	4.2657	12.581734	0.000304	3.042103	1.030692	-0.000122
 899	8.9351e+01	4.2352	12.432360	0.000375	3.751927	1.271187	-0.000150
 900	8.9451e+01	4.1838	12.347580	0.000213	2.129472	0.721485	-0.000085
 901	8.9550e+01	4.1453	12.186094	0.000406	4.056137	1.374256	-0.000162
 902	8.9650e+01	4.0908	12.040757	0.000365	3.650523	1.236831	-0.000146
 903	8.9749e+01	4.0619	11.955977	0.000213	2.129472	0.721485	-0.000085
 904	8.9849e+01	4.0138	11.842938	0.000284	2.839296	0.961980	-0.000114
 905	8.9948e+01	3.9849	11.693564	0.000375	3.751927	1.271187	-0.000150
 906	9.0047e+01	3.9448	11.576487	0.000294	2.940699	0.996336	-0.000118
 907	9.0147e+01	3.9063	11.467484	0.000274	2.737893	0.927623	-0.000110
 908	9.0246e+01	3.8630	11.334259	0.000335	3.346313	1.133762	-0.000134
 909	9.0346e+01	3.8197	11.229293	0.000264	2.636489	0.893267	-0.000105
 910	9.0445e+01	3.7860	11.087993	0.000355	3.549120	1.202474	-0.000142
 911	9.0545e+01	3.7475	11.035511	0.000132	1.318245	0.446633	-0.000053
 912	9.0644e+01	3.6994	10.849802	0.000466	4.664558	1.580395	-0.000187
 913	9.0744e+01	3.6609	10.744837	0.000264	2.636489	0.893267	-0.000105
 914	9.0844e+01	3.6224	10.635834	0.000274	2.737893	0.927623	-0.000110
 915	9.0943e+01	3.5855	10.490497	0.000365	3.650523	1.236831	-0.000146
 916	9.1043e+01	3.5454	10.401680	0.000223	2.230875	0.755841	-0.000089
 917	9.1142e+01	3.5052	10.272492	0.000324	3.244910	1.099405	-0.000130
 918	9.1242e+01	3.4603	10.171563	0.000254	2.535086	0.858910	-0.000101
 919	9.1341e+01	3.4266	10.030264	0.000355	3.549120	1.202474	-0.000142
 920	9.1441e+01	3.3897	9.905113	0.000314	3.143506	1.065049	-0.000126
 921	9.1540e+01	3.3448	9.788036	0.000294	2.940699	0.996336	-0.000118
 922	9.1639e+01	3.3079	9.662884	0.000314	3.143506	1.065049	-0.000126
 923	9.1739e+01	3.2630	9.537733	0.000314	3.143506	1.065049	-0.000126
 924	9.1838e+01	3.2261	9.444879	0.000233	2.332279	0.790197	-0.000093
 925	9.1938e+01	3.1892	9.327802	0.000294	2.940699	0.996336	-0.000118
 926	9.2037e+01	3.1395	9.194577	0.000335	3.346313	1.133762	-0.000134
 927	9.2137e+01	3.1106	9.085574	0.000274	2.737893	0.927623	-0.000110
 928	9.2237e+01	3.0705	8.956386	0.000324	3.244910	1.099405	-0.000130
 929	9.2336e+01	3.0208	8.839309	0.000294	2.940699	0.996336	-0.000118
 930	9.2436e+01	2.9823	8.722232	0.000294	2.940699	0.996336	-0.000118
 931	9.2535e+01	2.9438	8.589006	0.000335	3.346313	1.133762	-0.000134
 932	9.2635e+01	2.9133	8.463855	0.000314	3.143506	1.065049	-0.000126
 933	9.2734e+01	2.8684	8.346778	0.000294	2.940699	0.996336	-0.000118
 934	9.2834e+01	2.8347	8.209516	0.000345	3.447717	1.168118	-0.000138
 935	9.2933e+01	2.7914	8.076290	0.000335	3.346313	1.133762	-0.000134
 936	9.3032e+01	2.7513	7.983436	0.000233	2.332279	0.790197	-0.000093
 937	9.3132e+01	2.7095	7.834062	0.000375	3.751927	1.271187	-0.000150
 938	9.3231e+01	2.6598	7.721022	0.000284	2.839296	0.961980	-0.000114
 939	9.3331e+01	2.6229	7.607982	0.000284	2.839296	0.961980	-0.000114
 940	9.3430e+01	2.5892	7.474757	0.000335	3.346313	1.133762	-0.000134
 941	9.3530e+01	2.5459	7.349606	0.000314	3.143506	1.065049	-0.000126
 942	9.3629e+01	2.5138	7.212343	0.000345	3.447717	1.168118	-0.000138
 943	9.3729e+01	2.4705	7.099303	0.000284	2.839296	0.961980	-0.000114
 944	9.3829e+01	2.4384	6.994338	0.000264	2.636489	0.893267	-0.000105
 945	9.3928e+01	2.3919	6.873224	0.000304	3.042103	1.030692	-0.000122
 946	9.4028e+01	2.3566	6.739998	0.000335	3.346313	1.133762	-0.000134
 947	9.4127e+01	2.3101	6.602735	0.000345	3.447717	1.168118	-0.000138
 948	9.4227e+01	2.2684	6.505844	0.000243	2.433682	0.824554	-0.000097
 949	9.4326e+01	2.2267	6.392804	0.000284	2.839296	0.961980	-0.000114
 950	9.4425e+01	2.1850	6.231319	0.000406	4.056137	1.374256	-0.000162
 951	9.4525e+01	2.1417	6.146539	0.000213	2.129472	0.721485	-0.000085
 952	9.4624e+01	2.1128	6.013314	0.000335	3.346313	1.133762	-0.000134
 953	9.4724e+01	2.0759	5.839717	0.000436	4.360347	1.477326	-0.000174
 954	9.4823e+01	2.0278	5.767048	0.000183	1.825262	0.618415	-0.000073
 955	9.4923e+01	1.9780	5.597489	0.000426	4.258944	1.442969	-0.000170
 956	9.5022e+01	1.9507	5.492523	0.000264	2.636489	0.893267	-0.000105
 957	9.5122e+01	1.9155	5.391595	0.000254	2.535086	0.858910	-0.000101
 958	9.5222e+01	1.8705	5.242221	0.000375	3.751927	1.271187	-0.000150
 959	9.5321e+01	1.8352	5.104958	0.000345	3.447717	1.168118	-0.000138
 960	9.5421e+01	1.7919	5.016141	0.000223	2.230875	0.755841	-0.000089
 961	9.5520e+01	1.7470	4.882916	0.000335	3.346313	1.133762	-0.000134
 962	9.5620e+01	1.7069	4.733542	0.000375	3.751927	1.271187	-0.000150
 963	9.5719e+01	1.6716	4.636650	0.000243	2.433682	0.824554	-0.000097
 964	9.5819e+01	1.6283	4.503425	0.000335	3.346313	1.133762	-0.000134
 965	9.5918e+01	1.5850	4.341939	0.000406	4.056137	1.374256	-0.000162
 966	9.6017e+01	1.5497	4.232937	0.000274	2.737893	0.927623	-0.000110
 967	9.6117e+01	1.5096	4.140083	0.000233	2.332279	0.790197	-0.000093
 968	9.6216e+01	1.4647	4.031080	0.000274	2.737893	0.927623	-0.000110
 969	9.6316e+01	1.4230	3.897855	0.000335	3.346313	1.133762	-0.000134
 970	9.6415e+01	1.3893	3.764629	0.000335	3.346313	1.133762	-0.000134
 971	9.6515e+01	1.3443	3.643515	0.000304	3.042103	1.030692	-0.000122
 972	9.6615e+01	1.3107	3.498178	0.000365	3.650523	1.236831	-0.000146
 973	9.6714e+01	1.2722	3.356878	0.000355	3.549120	1.202474	-0.000142
 974	9.6814e+01	1.2321	3.268061	0.000223	2.230875	0.755841	-0.000089
 975	9.6913e+01	1.2032	3.146947	0.000304	3.042103	1.030692	-0.000122
 976	9.7013e+01	1.1550	3.058130	0.000223	2.230875	0.755841	-0.000089
 977	9.7112e+01	1.1069	2.924905	0.000335	3.346313	1.133762	-0.000134
 978	9.7212e+01	1.0684	2.771494	0.000385	3.853330	1.305544	-0.000154
 979	9.7311e+01	1.0363	2.670565	0.000254	2.535086	0.858910	-0.000101
 980	9.7410e+01	0.9866	2.569637	0.000254	2.535086	0.858910	-0.000101
 981	9.7510e+01	0.9625	2.400077	0.000426	4.258944	1.442969	-0.000170
 982	9.7609e+01	0.9112	2.283000	0.000294	2.940699	0.996336	-0.000118
 983	9.7709e+01	0.8759	2.186109	0.000243	2.433682	0.824554	-0.000097
 984	9.7808e+01	0.8422	2.056921	0.000324	3.244910	1.099405	-0.000130
 985	9.7908e+01	0.7957	1.951955	0.000264	2.636489	0.893267	-0.000105
 986	9.8007e+01	0.7588	1.830841	0.000304	3.042103	1.030692	-0.000122
 987	9.8107e+01	0.7171	1.689541	0.000355	3.549120	1.202474	-0.000142
 988	9.8207e+01	0.6658	1.568427	0.000304	3.042103	1.030692	-0.000122
 989	9.8306e+01	0.6385	1.423090	0.000365	3.650523	1.236831	-0.000146
 990	9.8406e+01	0.5952	1.318125	0.000264	2.636489	0.893267	-0.000105
 991	9.8505e+01	0.5567	1.192974	0.000314	3.143506	1.065049	-0.000126
 992	9.8605e+01	0.5134	1.039562	0.000385	3.853330	1.305544	-0.000154
 993	9.8704e+01	0.4813	0.958820	0.000203	2.028069	0.687128	-0.000081
 994	9.8803e+01	0.4444	0.841743	0.000294	2.940699	0.996336	-0.000118
 995	9.8903e+01	0.3930	0.692369	0.000375	3.751927	1.271187	-0.000150
 996	9.9002e+01	0.3593	0.563180	0.000324	3.244910	1.099405	-0.000130
 997	9.9102e+01	0.3160	0.429955	0.000335	3.346313	1.133762	-0.000134
 998	9.9201e+01	0.2791	0.337101	0.000233	2.332279	0.790197	-0.000093
 999	9.9301e+01	0.2310	0.211950	0.000314	3.143506	1.065049	-0.000126
1000	9.9400e+01	0.1989	0.078724	0.000335	3.346313	1.133762	-0.000134
1001	9.9500e+01	0.1604	-0.034316	0.000284	2.839296	0.961980	-0.000114
1002	9.9600e+01	0.1187	-0.167541	0.000335	3.346313	1.133762	-0.000134
1003	9.9699e+01	0.0802	-0.292692	0.000314	3.143506	1.065049	-0.000126
1004	9.9799e+01	0.0369	-0.393621	0.000254	2.535086	0.858910	-0.000101
1005	9.9898e+01	0.0144	-0.555106	0.000406	4.056137	1.374256	-0.000162
1006	9.9998e+01	-0.0337	-0.635849	0.000203	2.028069	0.687128	-0.000081
1007	1.0010e+02	-0.0706	-0.769074	0.000335	3.346313	1.133762	-0.000134
1008	1.0020e+02	-0.1203	-0.865966	0.000243	2.433682	0.824554	-0.000097
1009	1.0030e+02	-0.1508	-0.991117	0.000314	3.143506	1.065049	-0.000126
1010	1.0040e+02	-0.1941	-1.144528	0.000385	3.853330	1.305544	-0.000154
1011	1.0050e+02	-0.2342	-1.253531	0.000274	2.737893	0.927623	-0.000110
1012	1.0059e+02	-0.2695	-1.382719	0.000324	3.244910	1.099405	-0.000130
1013	1.0069e+02	-0.3176	-1.487685	0.000264	2.636489	0.893267	-0.000105
1014	1.0079e+02	-0.3529	-1.633021	0.000365	3.650523	1.236831	-0.000146
1015	1.0089e+02	-0.3834	-1.742024	0.000274	2.737893	0.927623	-0.000110
1016	1.0099e+02	-0.4396	-1.834878	0.000233	2.332279	0.790197	-0.000093
1017	1.0109e+02	-0.4749	-1.976178	0.000355	3.549120	1.202474	-0.000142
1018	1.0119e+02	-0.5246	-2.081143	0.000264	2.636489	0.893267	-0.000105
1019	1.0129e+02	-0.5486	-2.206295	0.000314	3.143506	1.065049	-0.000126
1020	1.0139e+02	-0.5904	-2.355669	0.000375	3.751927	1.271187	-0.000150
1021	1.0149e+02	-0.6289	-2.460634	0.000264	2.636489	0.893267	-0.000105
1022	1.0159e+02	-0.6770	-2.557525	0.000243	2.433682	0.824554	-0.000097
1023	1.0169e+02	-0.7123	-2.727085	0.000426	4.258944	1.442969	-0.000170
1024	1.0179e+02	-0.7540	-2.803791	0.000193	1.926665	0.652772	-0.000077
1025	1.0189e+02	-0.7909	-2.937016	0.000335	3.346313	1.133762	-0.000134
1026	1.0199e+02	-0.8358	-3.041982	0.000264	2.636489	0.893267	-0.000105
1027	1.0209e+02	-0.8695	-3.146947	0.000264	2.636489	0.893267	-0.000105
1028	1.0219e+02	-0.9064	-3.268061	0.000304	3.042103	1.030692	-0.000122
1029	1.0229e+02	-0.9513	-3.413398	0.000365	3.650523	1.236831	-0.000146
1030	1.0239e+02	-0.9850	-3.494141	0.000203	2.028069	0.687128	-0.000081
1031	1.0248e+02	-1.0251	-3.631404	0.000345	3.447717	1.168118	-0.000138
1032	1.0258e+02	-1.0780	-3.724258	0.000233	2.332279	0.790197	-0.000093
1033	1.0268e+02	-1.1085	-3.849409	0.000314	3.143506	1.065049	-0.000126
1034	1.0278e+02	-1.1470	-3.954374	0.000264	2.636489	0.893267	-0.000105
1035	1.0288e+02	-1.1903	-4.071451	0.000294	2.940699	0.996336	-0.000118
1036	1.0298e+02	-1.2321	-4.224863	0.000385	3.853330	1.305544	-0.000154
1037	1.0308e+02	-1.2689	-4.309642	0.000213	2.129472	0.721485	-0.000085
1038	1.0318e+02	-1.3123	-4.410571	0.000254	2.535086	0.858910	-0.000101
1039	1.0328e+02	-1.3492	-4.559945	0.000375	3.751927	1.271187	-0.000150
1040	1.0338e+02	-1.3909	-4.664910	0.000264	2.636489	0.893267	-0.000105
1041	1.0348e+02	-1.4262	-4.777950	0.000284	2.839296	0.961980	-0.000114
1042	1.0358e+02	-1.4663	-4.866767	0.000223	2.230875	0.755841	-0.000089
1043	1.0368e+02	-1.5016	-5.024215	0.000395	3.954734	1.339900	-0.000158
1044	1.0378e+02	-1.5449	-5.117070	0.000233	2.332279	0.790197	-0.000093
1045	1.0388e+02	-1.5898	-5.290666	0.000436	4.360347	1.477326	-0.000174
1046	1.0398e+02	-1.6283	-5.387558	0.000243	2.433682	0.824554	-0.000097
1047	1.0408e+02	-1.6732	-5.472337	0.000213	2.129472	0.721485	-0.000085
1048	1.0418e+02	-1.7133	-5.593452	0.000304	3.042103	1.030692	-0.000122
1049	1.0428e+02	-1.7438	-5.710529	0.000294	2.940699	0.996336	-0.000118
1050	1.0438e+02	-1.7903	-5.855865	0.000365	3.650523	1.236831	-0.000146
1051	1.0447e+02	-1.8224	-5.952757	0.000243	2.433682	0.824554	-0.000097
1052	1.0457e+02	-1.8689	-6.057722	0.000264	2.636489	0.893267	-0.000105
1053	1.0467e+02	-1.9122	-6.199022	0.000355	3.549120	1.202474	-0.000142
1054	1.0477e+02	-1.9475	-6.295913	0.000243	2.433682	0.824554	-0.000097
1055	1.0487e+02	-1.9876	-6.473547	0.000446	4.461751	1.511682	-0.000179
1056	1.0497e+02	-2.0326	-6.550253	0.000193	1.926665	0.652772	-0.000077
1057	1.0507e+02	-2.0679	-6.663293	0.000284	2.839296	0.961980	-0.000114
1058	1.0517e+02	-2.1064	-6.760184	0.000243	2.433682	0.824554	-0.000097
1059	1.0527e+02	-2.1449	-6.881298	0.000304	3.042103	1.030692	-0.000122
1060	1.0537e+02	-2.1914	-7.010486	0.000324	3.244910	1.099405	-0.000130
1061	1.0547e+02	-2.2235	-7.167935	0.000395	3.954734	1.339900	-0.000158
1062	1.0557e+02	-2.2684	-7.240603	0.000183	1.825262	0.618415	-0.000073
1063	1.0567e+02	-2.3005	-7.369791	0.000324	3.244910	1.099405	-0.000130
1064	1.0577e+02	-2.3502	-7.523202	0.000385	3.853330	1.305544	-0.000154
1065	1.0587e+02	-2.3775	-7.571648	0.000122	1.216841	0.412277	-0.000049
1066	1.0597e+02	-2.4208	-7.688725	0.000294	2.940699	0.996336	-0.000118
1067	1.0607e+02	-2.4705	-7.821950	0.000335	3.346313	1.133762	-0.000134
1068	1.0617e+02	-2.5058	-7.934990	0.000284	2.839296	0.961980	-0.000114
1069	1.0627e+02	-2.5459	-8.064179	0.000324	3.244910	1.099405	-0.000130
1070	1.0637e+02	-2.5876	-8.165107	0.000254	2.535086	0.858910	-0.000101
1071	1.0647e+02	-2.6245	-8.302370	0.000345	3.447717	1.168118	-0.000138
1072	1.0656e+02	-2.6678	-8.407335	0.000264	2.636489	0.893267	-0.000105
1073	1.0666e+02	-2.6935	-8.532486	0.000314	3.143506	1.065049	-0.000126
1074	1.0676e+02	-2.7432	-8.645526	0.000284	2.839296	0.961980	-0.000114
1075	1.0686e+02	-2.7833	-8.790863	0.000365	3.650523	1.236831	-0.000146
1076	1.0696e+02	-2.8218	-8.875643	0.000213	2.129472	0.721485	-0.000085
1077	1.0706e+02	-2.8555	-9.049240	0.000436	4.360347	1.477326	-0.000174
1078	1.0716e+02	-2.8988	-9.093648	0.000112	1.115438	0.377921	-0.000045
1079	1.0726e+02	-2.9422	-9.247059	0.000385	3.853330	1.305544	-0.000154
1080	1.0736e+02	-2.9807	-9.356062	0.000274	2.737893	0.927623	-0.000110
1081	1.0746e+02	-3.0304	-9.473139	0.000294	2.940699	0.996336	-0.000118
1082	1.0756e+02	-3.0593	-9.590216	0.000294	2.940699	0.996336	-0.000118
1083	1.0766e+02	-3.1010	-9.715367	0.000314	3.143506	1.065049	-0.000126
1084	1.0776e+02	-3.1491	-9.812258	0.000243	2.433682	0.824554	-0.000097
1085	1.0786e+02	-3.1796	-9.941447	0.000324	3.244910	1.099405	-0.000130
1086	1.0796e+02	-3.2197	-10.038338	0.000243	2.433682	0.824554	-0.000097
1087	1.0806e+02	-3.2598	-10.139266	0.000254	2.535086	0.858910	-0.000101
1088	1.0816e+02	-3.3047	-10.284603	0.000365	3.650523	1.236831	-0.000146
1089	1.0826e+02	-3.3384	-10.393606	0.000274	2.737893	0.927623	-0.000110
1090	1.0836e+02	-3.3769	-10.514720	0.000304	3.042103	1.030692	-0.000122
1091	1.0845e+02	-3.4202	-10.611611	0.000243	2.433682	0.824554	-0.000097
1092	1.0855e+02	-3.4555	-10.740800	0.000324	3.244910	1.099405	-0.000130
1093	1.0865e+02	-3.5085	-10.857877	0.000294	2.940699	0.996336	-0.000118
1094	1.0875e+02	-3.5373	-11.003213	0.000365	3.650523	1.236831	-0.000146
1095	1.0885e+02	-3.5742	-11.116253	0.000284	2.839296	0.961980	-0.000114
1096	1.0895e+02	-3.6224	-11.205070	0.000223	2.230875	0.755841	-0.000089
1097	1.0905e+02	-3.6560	-11.350407	0.000365	3.650523	1.236831	-0.000146
1098	1.0915e+02	-3.7010	-11.419038	0.000172	1.723858	0.584059	-0.000069
1099	1.0925e+02	-3.7427	-11.580524	0.000406	4.056137	1.374256	-0.000162
1100	1.0935e+02	-3.7828	-11.673378	0.000233	2.332279	0.790197	-0.000093
1101	1.0945e+02	-3.8229	-11.802566	0.000324	3.244910	1.099405	-0.000130
1102	1.0955e+02	-3.8502	-11.960015	0.000395	3.954734	1.339900	-0.000158
1103	1.0965e+02	-3.8999	-12.048832	0.000223	2.230875	0.755841	-0.000089
1104	1.0975e+02	-3.9480	-12.169946	0.000304	3.042103	1.030692	-0.000122
1105	1.0985e+02	-3.9865	-12.282985	0.000284	2.839296	0.961980	-0.000114
1106	1.0995e+02	-4.0218	-12.404100	0.000304	3.042103	1.030692	-0.000122
1107	1.1005e+02	-4.0619	-12.529251	0.000314	3.143506	1.065049	-0.000126
1108	1.1015e+02	-4.0956	-12.650365	0.000304	3.042103	1.030692	-0.000122
1109	1.1025e+02	-4.1485	-12.771479	0.000304	3.042103	1.030692	-0.000122
1110	1.1035e+02	-4.1806	-12.872407	0.000254	2.535086	0.858910	-0.000101
1111	1.1044e+02	-4.2175	-13.037930	0.000416	4.157541	1.408613	-0.000166
1112	1.1054e+02	-4.2592	-13.146933	0.000274	2.737893	0.927623	-0.000110
1113	1.1064e+02	-4.2945	-13.223638	0.000193	1.926665	0.652772	-0.000077
1114	1.1074e+02	-4.3362	-13.340715	0.000294	2.940699	0.996336	-0.000118
1115	1.1084e+02	-4.3763	-13.477978	0.000345	3.447717	1.168118	-0.000138
1116	1.1094e+02	-4.4197	-13.574869	0.000243	2.433682	0.824554	-0.000097
1117	1.1104e+02	-4.4614	-13.716169	0.000355	3.549120	1.202474	-0.000142
1118	1.1114e+02	-4.4999	-13.837283	0.000304	3.042103	1.030692	-0.000122
1119	1.1124e+02	-4.5320	-13.942248	0.000264	2.636489	0.893267	-0.000105
1120	1.1134e+02	-4.5737	-14.067399	0.000314	3.143506	1.065049	-0.000126
1121	1.1144e+02	-4.6218	-14.168328	0.000254	2.535086	0.858910	-0.000101
1122	1.1154e+02	-4.6651	-14.301553	0.000335	3.346313	1.133762	-0.000134
1123	1.1164e+02	-4.6956	-14.430742	0.000324	3.244910	1.099405	-0.000130
1124	1.1174e+02	-4.7277	-14.519559	0.000223	2.230875	0.755841	-0.000089
1125	1.1184e+02	-4.7726	-14.636636	0.000294	2.940699	0.996336	-0.000118
1126	1.1194e+02	-4.8191	-14.749675	0.000284	2.839296	0.961980	-0.000114
1127	1.1204e+02	-4.8656	-14.911161	0.000406	4.056137	1.374256	-0.000162
1128	1.1214e+02	-4.8945	-14.999978	0.000223	2.230875	0.755841	-0.000089
1129	1.1224e+02	-4.9394	-15.149352	0.000375	3.751927	1.271187	-0.000150
1130	1.1234e+02	-4.9763	-15.246243	0.000243	2.433682	0.824554	-0.000097
1131	1.1244e+02	-5.0212	-15.383506	0.000345	3.447717	1.168118	-0.000138
1132	1.1253e+02	-5.0614	-15.484434	0.000254	2.535086	0.858910	-0.000101
1133	1.1263e+02	-5.1015	-15.585363	0.000254	2.535086	0.858910	-0.000101
1134	1.1273e+02	-5.1303	-15.734737	0.000375	3.751927	1.271187	-0.000150
1135	1.1283e+02	-5.1785	-15.811442	0.000193	1.926665	0.652772	-0.000077
1136	1.1293e+02	-5.2250	-15.960816	0.000375	3.751927	1.271187	-0.000150
1137	1.1303e+02	-5.2507	-16.029447	0.000172	1.723858	0.584059	-0.000069
1138	1.1313e+02	-5.2908	-16.170747	0.000355	3.549120	1.202474	-0.000142
1139	1.1323e+02	-5.3309	-16.308010	0.000345	3.447717	1.168118	-0.000138
1140	1.1333e+02	-5.3758	-16.417012	0.000274	2.737893	0.927623	-0.000110
1141	1.1343e+02	-5.4143	-16.554275	0.000345	3.447717	1.168118	-0.000138
1142	1.1353e+02	-5.4480	-16.626944	0.000183	1.825262	0.618415	-0.000073
1143	1.1363e+02	-5.4961	-16.764206	0.000345	3.447717	1.168118	-0.000138
1144	1.1373e+02	-5.5394	-16.848986	0.000213	2.129472	0.721485	-0.000085
1145	1.1383e+02	-5.5731	-16.978174	0.000324	3.244910	1.099405	-0.000130
1146	1.1393e+02	-5.6068	-17.103326	0.000314	3.143506	1.065049	-0.000126
1147	1.1403e+02	-5.6485	-17.171957	0.000172	1.723858	0.584059	-0.000069
1148	1.1413e+02	-5.6902	-17.325368	0.000385	3.853330	1.305544	-0.000154
1149	1.1423e+02	-5.7367	-17.406111	0.000203	2.028069	0.687128	-0.000081
1150	1.1433e+02	-5.7672	-17.567596	0.000406	4.056137	1.374256	-0.000162
1151	1.1442e+02	-5.8105	-17.676599	0.000274	2.737893	0.927623	-0.000110
1152	1.1452e+02	-5.8506	-17.773490	0.000243	2.433682	0.824554	-0.000097
1153	1.1462e+02	-5.8972	-17.882493	0.000274	2.737893	0.927623	-0.000110
1154	1.1472e+02	-5.9292	-18.035904	0.000385	3.853330	1.305544	-0.000154
1155	1.1482e+02	-5.9710	-18.108572	0.000183	1.825262	0.618415	-0.000073
1156	1.1492e+02	-6.0095	-18.237761	0.000324	3.244910	1.099405	-0.000130
1157	1.1502e+02	-6.0496	-18.346763	0.000274	2.737893	0.927623	-0.000110
1158	1.1512e+02	-6.0929	-18.455766	0.000274	2.737893	0.927623	-0.000110
1159	1.1522e+02	-6.1282	-18.576880	0.000304	3.042103	1.030692	-0.000122
1160	1.1532e+02	-6.1603	-18.710106	0.000335	3.346313	1.133762	-0.000134
1161	1.1542e+02	-6.2052	-18.815071	0.000264	2.636489	0.893267	-0.000105
1162	1.1552e+02	-6.2517	-18.976557	0.000406	4.056137	1.374256	-0.000162
1163	1.1562e+02	-6.2854	-19.065374	0.000223	2.230875	0.755841	-0.000089
1164	1.1572e+02	-6.3351	-19.202636	0.000345	3.447717	1.168118	-0.000138
1165	1.1582e+02	-6.3688	-19.307602	0.000264	2.636489	0.893267	-0.000105
1166	1.1592e+02	-6.4121	-19.432753	0.000314	3.143506	1.065049	-0.000126
1167	1.1602e+02	-6.4522	-19.570015	0.000345	3.447717	1.168118	-0.000138
1168	1.1612e+02	-6.5036	-19.646721	0.000193	1.926665	0.652772	-0.000077
1169	1.1622e+02	-6.5324	-19.788021	0.000355	3.549120	1.202474	-0.000142
1170	1.1632e+02	-6.5661	-19.888949	0.000254	2.535086	0.858910	-0.000101
1171	1.1642e+02	-6.5982	-19.989878	0.000254	2.535086	0.858910	-0.000101
1172	1.1651e+02	-6.6415	-20.102917	0.000284	2.839296	0.961980	-0.000114
1173	1.1661e+02	-6.6816	-20.244217	0.000355	3.549120	1.202474	-0.000142
1174	1.1671e+02	-6.7217	-20.357257	0.000284	2.839296	0.961980	-0.000114
1175	1.1681e+02	-6.7506	-20.454148	0.000243	2.433682	0.824554	-0.000097
1176	1.1691e+02	-6.8084	-20.563151	0.000274	2.737893	0.927623	-0.000110
1177	1.1701e+02	-6.8453	-20.692339	0.000324	3.244910	1.099405	-0.000130
1178	1.1711e+02	-6.8918	-20.797305	0.000264	2.636489	0.893267	-0.000105
1179	1.1721e+02	-6.9223	-20.918419	0.000304	3.042103	1.030692	-0.000122
1180	1.1731e+02	-6.9640	-20.999162	0.000203	2.028069	0.687128	-0.000081
1181	1.1741e+02	-7.0057	-21.144498	0.000365	3.650523	1.236831	-0.000146
1182	1.1751e+02	-7.0506	-21.241390	0.000243	2.433682	0.824554	-0.000097
1183	1.1761e+02	-7.0795	-21.350392	0.000274	2.737893	0.927623	-0.000110
1184	1.1771e+02	-7.1292	-21.467469	0.000294	2.940699	0.996336	-0.000118
1185	1.1781e+02	-7.1661	-21.580509	0.000284	2.839296	0.961980	-0.000114
1186	1.1791e+02	-7.1950	-21.689512	0.000274	2.737893	0.927623	-0.000110
1187	1.1801e+02	-7.2383	-21.774292	0.000213	2.129472	0.721485	-0.000085
1188	1.1811e+02	-7.2752	-21.903480	0.000324	3.244910	1.099405	-0.000130
1189	1.1821e+02	-7.3362	-22.024594	0.000304	3.042103	1.030692	-0.000122
1190	1.1831e+02	-7.3634	-22.157819	0.000335	3.346313	1.133762	-0.000134
1191	1.1841e+02	-7.3923	-22.250674	0.000233	2.332279	0.790197	-0.000093
1192	1.1850e+02	-7.4372	-22.327379	0.000193	1.926665	0.652772	-0.000077
1193	1.1860e+02	-7.4789	-22.472716	0.000365	3.650523	1.236831	-0.000146
1194	1.1870e+02	-7.5271	-22.573644	0.000254	2.535086	0.858910	-0.000101
1195	1.1880e+02	-7.5607	-22.710907	0.000345	3.447717	1.168118	-0.000138
1196	1.1890e+02	-7.6089	-22.807798	0.000243	2.433682	0.824554	-0.000097
1197	1.1900e+02	-7.6458	-22.860281	0.000132	1.318245	0.446633	-0.000053
1198	1.1910e+02	-7.6746	-23.029841	0.000426	4.258944	1.442969	-0.000170
1199	1.1920e+02	-7.7180	-23.106546	0.000193	1.926665	0.652772	-0.000077
1200	1.1930e+02	-7.7661	-23.211512	0.000264	2.636489	0.893267	-0.000105
1201	1.1940e+02	-7.8046	-23.308403	0.000243	2.433682	0.824554	-0.000097
1202	1.1950e+02	-7.8415	-23.437592	0.000324	3.244910	1.099405	-0.000130
1203	1.1960e+02	-7.8784	-23.542557	0.000264	2.636489	0.893267	-0.000105
1204	1.1970e+02	-7.9297	-23.651560	0.000274	2.737893	0.927623	-0.000110
1205	1.1980e+02	-7.9602	-23.768637	0.000294	2.940699	0.996336	-0.000118
1206	1.1990e+02	-8.0019	-23.877639	0.000274	2.737893	0.927623	-0.000110
1207	1.2000e+02	-8.0404	-23.966456	0.000223	2.230875	0.755841	-0.000089
1208	1.2010e+02	-8.0693	-24.051236	0.000213	2.129472	0.721485	-0.000085
1209	1.2020e+02	-8.1286	-24.156202	0.000264	2.636489	0.893267	-0.000105
1210	1.2030e+02	-8.1559	-24.305576	0.000375	3.751927	1.271187	-0.000150
1211	1.2039e+02	-8.2073	-24.382281	0.000193	1.926665	0.652772	-0.000077
1212	1.2049e+02	-8.2393	-24.491284	0.000274	2.737893	0.927623	-0.000110
1213	1.2059e+02	-8.2810	-24.628547	0.000345	3.447717	1.168118	-0.000138
1214	1.2069e+02	-8.3276	-24.729475	0.000254	2.535086	0.858910	-0.000101
1215	1.2079e+02	-8.3645	-24.818292	0.000223	2.230875	0.755841	-0.000089
1216	1.2089e+02	-8.3982	-24.907109	0.000223	2.230875	0.755841	-0.000089
1217	1.2099e+02	-8.4335	-25.032260	0.000314	3.143506	1.065049	-0.000126
1218	1.2109e+02	-8.4768	-25.153374	0.000304	3.042103	1.030692	-0.000122
1219	1.2119e+02	-8.5153	-25.254303	0.000254	2.535086	0.858910	-0.000101
1220	1.2129e+02	-8.5522	-25.335045	0.000203	2.028069	0.687128	-0.000081
1221	1.2139e+02	-8.5971	-25.496531	0.000406	4.056137	1.374256	-0.000162
1222	1.2149e+02	-8.6420	-25.549014	0.000132	1.318245	0.446633	-0.000053
1223	1.2159e+02	-8.6741	-25.698388	0.000375	3.751927	1.271187	-0.000150
1224	1.2169e+02	-8.7110	-25.811427	0.000284	2.839296	0.961980	-0.000114
1225	1.2179e+02	-8.7559	-25.920430	0.000274	2.737893	0.927623	-0.000110
1226	1.2189e+02	-8.7976	-25.976950	0.000142	1.419648	0.480990	-0.000057
1227	1.2199e+02	-8.8409	-26.057693	0.000203	2.028069	0.687128	-0.000081
1228	1.2209e+02	-8.8746	-26.259549	0.000507	5.070171	1.717821	-0.000203
1229	1.2219e+02	-8.9227	-26.332218	0.000183	1.825262	0.618415	-0.000073
1230	1.2229e+02	-8.9548	-26.425072	0.000233	2.332279	0.790197	-0.000093
1231	1.2239e+02	-8.9949	-26.546186	0.000304	3.042103	1.030692	-0.000122
1232	1.2248e+02	-9.0350	-26.622892	0.000193	1.926665	0.652772	-0.000077
1233	1.2258e+02	-9.0751	-26.735931	0.000284	2.839296	0.961980	-0.000114
1234	1.2268e+02	-9.1185	-26.861083	0.000314	3.143506	1.065049	-0.000126
1235	1.2278e+02	-9.1602	-26.978160	0.000294	2.940699	0.996336	-0.000118
1236	1.2288e+02	-9.1939	-27.087162	0.000274	2.737893	0.927623	-0.000110
1237	1.2298e+02	-9.2436	-27.167905	0.000203	2.028069	0.687128	-0.000081
1238	1.2308e+02	-9.2837	-27.313242	0.000365	3.650523	1.236831	-0.000146
1239	1.2318e+02	-9.3142	-27.414170	0.000254	2.535086	0.858910	-0.000101
1240	1.2328e+02	-9.3463	-27.502987	0.000223	2.230875	0.755841	-0.000089
1241	1.2338e+02	-9.3864	-27.632176	0.000324	3.244910	1.099405	-0.000130
1242	1.2348e+02	-9.4345	-27.720993	0.000223	2.230875	0.755841	-0.000089
1243	1.2358e+02	-9.4682	-27.854218	0.000335	3.346313	1.133762	-0.000134
1244	1.2368e+02	-9.5147	-27.926886	0.000183	1.825262	0.618415	-0.000073
1245	1.2378e+02	-9.5580	-28.064149	0.000345	3.447717	1.168118	-0.000138
1246	1.2388e+02	-9.5901	-28.157003	0.000233	2.332279	0.790197	-0.000093
1247	1.2398e+02	-9.6334	-28.270043	0.000284	2.839296	0.961980	-0.000114
1248	1.2408e+02	-9.6735	-28.403268	0.000335	3.346313	1.133762	-0.000134
1249	1.2418e+02	-9.7056	-28.459788	0.000142	1.419648	0.480990	-0.000057
1250	1.2428e+02	-9.7489	-28.576865	0.000294	2.940699	0.996336	-0.000118
1251	1.2438e+02	-9.7922	-28.673757	0.000243	2.433682	0.824554	-0.000097
1252	1.2447e+02	-9.8307	-28.754499	0.000203	2.028069	0.687128	-0.000081
1253	1.2457e+02	-9.8757	-28.895799	0.000355	3.549120	1.202474	-0.000142
1254	1.2467e+02	-9.9142	-28.992690	0.000243	2.433682	0.824554	-0.000097
1255	1.2477e+02	-9.9591	-29.073433	0.000203	2.028069	0.687128	-0.000081
1256	1.2487e+02	-9.9896	-29.226844	0.000385	3.853330	1.305544	-0.000154
1257	1.2497e+02	-10.0265	-29.307587	0.000203	2.028069	0.687128	-0.000081
1258	1.2507e+02	-10.0650	-29.420627	0.000284	2.839296	0.961980	-0.000114
1259	1.2517e+02	-10.1163	-29.513481	0.000233	2.332279	0.790197	-0.000093
1260	1.2527e+02	-10.1500	-29.630558	0.000294	2.940699	0.996336	-0.000118
1261	1.2537e+02	-10.1869	-29.719375	0.000223	2.230875	0.755841	-0.000089
1262	1.2547e+02	-10.2286	-29.828377	0.000274	2.737893	0.927623	-0.000110
1263	1.2557e+02	-10.2687	-29.937380	0.000274	2.737893	0.927623	-0.000110
1264	1.2567e+02	-10.3104	-30.054457	0.000294	2.940699	0.996336	-0.000118
1265	1.2577e+02	-10.3489	-30.147311	0.000233	2.332279	0.790197	-0.000093
1266	1.2587e+02	-10.3874	-30.248240	0.000254	2.535086	0.858910	-0.000101
1267	1.2597e+02	-10.4195	-30.361279	0.000284	2.839296	0.961980	-0.000114
1268	1.2607e+02	-10.4708	-30.437985	0.000193	1.926665	0.652772	-0.000077
1269	1.2617e+02	-10.5061	-30.587359	0.000375	3.751927	1.271187	-0.000150
1270	1.2627e+02	-10.5575	-30.668102	0.000203	2.028069	0.687128	-0.000081
1271	1.2636e+02	-10.5879	-30.821513	0.000385	3.853330	1.305544	-0.000154
1272	1.2646e+02	-10.6280	-30.906293	0.000213	2.129472	0.721485	-0.000085
1273	1.2656e+02	-10.6714	-30.999147	0.000233	2.332279	0.790197	-0.000093
1274	1.2666e+02	-10.7083	-31.116224	0.000294	2.940699	0.996336	-0.000118
1275	1.2676e+02	-10.7500	-31.225226	0.000274	2.737893	0.927623	-0.000110
1276	1.2686e+02	-10.7853	-31.305969	0.000203	2.028069	0.687128	-0.000081
1277	1.2696e+02	-10.8366	-31.435157	0.000324	3.244910	1.099405	-0.000130
1278	1.2706e+02	-10.8735	-31.540123	0.000264	2.636489	0.893267	-0.000105
1279	1.2716e+02	-10.9072	-31.669311	0.000324	3.244910	1.099405	-0.000130
1280	1.2726e+02	-10.9489	-31.786388	0.000294	2.940699	0.996336	-0.000118
1281	1.2736e+02	-10.9922	-31.846945	0.000152	1.521051	0.515346	-0.000061
1282	1.2746e+02	-11.0227	-32.000356	0.000385	3.853330	1.305544	-0.000154
1283	1.2756e+02	-11.0756	-32.109359	0.000274	2.737893	0.927623	-0.000110
1284	1.2766e+02	-11.1077	-32.194139	0.000213	2.129472	0.721485	-0.000085
1285	1.2776e+02	-11.1574	-32.286993	0.000233	2.332279	0.790197	-0.000093
1286	1.2786e+02	-11.1863	-32.420219	0.000335	3.346313	1.133762	-0.000134
1287	1.2796e+02	-11.2409	-32.476738	0.000142	1.419648	0.480990	-0.000057
1288	1.2806e+02	-11.2681	-32.630150	0.000385	3.853330	1.305544	-0.000154
1289	1.2816e+02	-11.3034	-32.747227	0.000294	2.940699	0.996336	-0.000118
1290	1.2826e+02	-11.3419	-32.856229	0.000274	2.737893	0.927623	-0.000110
1291	1.2835e+02	-11.3884	-32.916786	0.000152	1.521051	0.515346	-0.000061
1292	1.2845e+02	-11.4253	-33.045975	0.000324	3.244910	1.099405	-0.000130
1293	1.2855e+02	-11.4590	-33.171126	0.000314	3.143506	1.065049	-0.000126
1294	1.2865e+02	-11.5007	-33.292240	0.000304	3.042103	1.030692	-0.000122
1295	1.2875e+02	-11.5425	-33.368945	0.000193	1.926665	0.652772	-0.000077
1296	1.2885e+02	-11.5890	-33.510245	0.000355	3.549120	1.202474	-0.000142
1297	1.2895e+02	-11.6243	-33.615211	0.000264	2.636489	0.893267	-0.000105
1298	1.2905e+02	-11.6692	-33.712102	0.000243	2.433682	0.824554	-0.000097
1299	1.2915e+02	-11.7045	-33.784770	0.000183	1.825262	0.618415	-0.000073
1300	1.2925e+02	-11.7382	-33.946256	0.000406	4.056137	1.374256	-0.000162
1301	1.2935e+02	-11.7959	-34.039110	0.000233	2.332279	0.790197	-0.000093
1302	1.2945e+02	-11.8296	-34.140038	0.000254	2.535086	0.858910	-0.000101
1303	1.2955e+02	-11.8585	-34.216744	0.000193	1.926665	0.652772	-0.000077
1304	1.2965e+02	-11.9066	-34.333821	0.000294	2.940699	0.996336	-0.000118
1305	1.2975e+02	-11.9419	-34.434749	0.000254	2.535086	0.858910	-0.000101
1306	1.2985e+02	-11.9708	-34.547789	0.000284	2.839296	0.961980	-0.000114
1307	1.2995e+02	-12.0269	-34.644680	0.000243	2.433682	0.824554	-0.000097
1308	1.3005e+02	-12.0638	-34.749646	0.000264	2.636489	0.893267	-0.000105
1309	1.3015e+02	-12.1136	-34.834426	0.000213	2.129472	0.721485	-0.000085
1310	1.3025e+02	-12.1440	-34.979763	0.000365	3.650523	1.236831	-0.000146
1311	1.3034e+02	-12.1858	-35.068580	0.000223	2.230875	0.755841	-0.000089
1312	1.3044e+02	-12.2307	-35.185657	0.000294	2.940699	0.996336	-0.000118
1313	1.3054e+02	-12.2708	-35.250251	0.000162	1.622455	0.549703	-0.000065
1314	1.3064e+02	-12.3029	-35.363290	0.000284	2.839296	0.961980	-0.000114
1315	1.3074e+02	-12.3382	-35.460182	0.000243	2.433682	0.824554	-0.000097
1316	1.3084e+02	-12.3847	-35.621667	0.000406	4.056137	1.374256	-0.000162
1317	1.3094e+02	-12.4264	-35.678187	0.000142	1.419648	0.480990	-0.000057
1318	1.3104e+02	-12.4633	-35.811413	0.000335	3.346313	1.133762	-0.000134
1319	1.3114e+02	-12.5034	-35.892155	0.000203	2.028069	0.687128	-0.000081
1320	1.3124e+02	-12.5419	-36.025381	0.000335	3.346313	1.133762	-0.000134
1321	1.3134e+02	-12.5740	-36.122272	0.000243	2.433682	0.824554	-0.000097
1322	1.3144e+02	-12.6189	-36.158606	0.000091	0.912631	0.309208	-0.000037
1323	1.3154e+02	-12.6606	-36.287795	0.000324	3.244910	1.099405	-0.000130
1324	1.3164e+02	-12.7119	-36.396797	0.000274	2.737893	0.927623	-0.000110
1325	1.3174e+02	-12.7408	-36.501763	0.000264	2.636489	0.893267	-0.000105
1326	1.3184e+02	-12.7857	-36.626914	0.000314	3.143506	1.065049	-0.000126
1327	1.3194e+02	-12.8242	-36.727842	0.000254	2.535086	0.858910	-0.000101
1328	1.3204e+02	-12.8547	-36.796474	0.000172	1.723858	0.584059	-0.000069
1329	1.3214e+02	-12.9093	-36.921625	0.000314	3.143506	1.065049	-0.000126
1330	1.3224e+02	-12.9413	-37.034665	0.000284	2.839296	0.961980	-0.000114
1331	1.3234e+02	-12.9815	-37.083110	0.000122	1.216841	0.412277	-0.000049
1332	1.3243e+02	-13.0167	-37.236521	0.000385	3.853330	1.305544	-0.000154
1333	1.3253e+02	-13.0633	-37.325338	0.000223	2.230875	0.755841	-0.000089
1334	1.3263e+02	-13.0954	-37.458564	0.000335	3.346313	1.133762	-0.000134
1335	1.3273e+02	-13.1419	-37.555455	0.000243	2.433682	0.824554	-0.000097
1336	1.3283e+02	-13.1836	-37.644272	0.000223	2.230875	0.755841	-0.000089
1337	1.3293e+02	-13.2205	-37.741163	0.000243	2.433682	0.824554	-0.000097
1338	1.3303e+02	-13.2542	-37.821906	0.000203	2.028069	0.687128	-0.000081
1339	1.3313e+02	-13.3055	-37.975317	0.000385	3.853330	1.305544	-0.000154
1340	1.3323e+02	-13.3424	-38.080283	0.000264	2.636489	0.893267	-0.000105
1341	1.3333e+02	-13.3809	-38.156988	0.000193	1.926665	0.652772	-0.000077
1342	1.3343e+02	-13.4290	-38.274065	0.000294	2.940699	0.996336	-0.000118
1343	1.3353e+02	-13.4563	-38.387105	0.000284	2.839296	0.961980	-0.000114
1344	1.3363e+02	-13.4996	-38.483996	0.000243	2.433682	0.824554	-0.000097
1345	1.3373e+02	-13.5381	-38.613185	0.000324	3.244910	1.099405	-0.000130
1346	1.3383e+02	-13.5734	-38.693927	0.000203	2.028069	0.687128	-0.000081
1347	1.3393e+02	-13.6247	-38.774670	0.000203	2.028069	0.687128	-0.000081
1348	1.3403e+02	-13.6584	-38.907896	0.000335	3.346313	1.133762	-0.000134
1349	1.3413e+02	-13.7082	-38.956341	0.000122	1.216841	0.412277	-0.000049
1350	1.3423e+02	-13.7370	-39.101678	0.000365	3.650523	1.236831	-0.000146
1351	1.3432e+02	-13.7739	-39.162235	0.000152	1.521051	0.515346	-0.000061
1352	1.3442e+02	-13.8157	-39.287386	0.000314	3.143506	1.065049	-0.000126
1353	1.3452e+02	-13.8493	-39.388315	0.000254	2.535086	0.858910	-0.000101
1354	1.3462e+02	-13.8894	-39.469058	0.000203	2.028069	0.687128	-0.000081
1355	1.3472e+02	-13.9408	-39.606320	0.000345	3.447717	1.168118	-0.000138
1356	1.3482e+02	-13.9841	-39.683026	0.000193	1.926665	0.652772	-0.000077
1357	1.3492e+02	-14.0162	-39.800103	0.000294	2.940699	0.996336	-0.000118
1358	1.3502e+02	-14.0499	-39.888920	0.000223	2.230875	0.755841	-0.000089
1359	1.3512e+02	-14.0948	-39.993885	0.000264	2.636489	0.893267	-0.000105
1360	1.3522e+02	-14.1365	-40.086739	0.000233	2.332279	0.790197	-0.000093
1361	1.3532e+02	-14.1798	-40.195742	0.000274	2.737893	0.927623	-0.000110
1362	1.3542e+02	-14.2103	-40.300708	0.000264	2.636489	0.893267	-0.000105
1363	1.3552e+02	-14.2536	-40.373376	0.000183	1.825262	0.618415	-0.000073
1364	1.3562e+02	-14.2905	-40.466230	0.000233	2.332279	0.790197	-0.000093
1365	1.3572e+02	-14.3354	-40.599456	0.000335	3.346313	1.133762	-0.000134
1366	1.3582e+02	-14.3723	-40.720570	0.000304	3.042103	1.030692	-0.000122
1367	1.3592e+02	-14.4124	-40.773052	0.000132	1.318245	0.446633	-0.000053
1368	1.3602e+02	-14.4590	-40.853795	0.000203	2.028069	0.687128	-0.000081
1369	1.3612e+02	-14.4991	-40.950686	0.000243	2.433682	0.824554	-0.000097
1370	1.3622e+02	-14.5392	-41.043540	0.000233	2.332279	0.790197	-0.000093
1371	1.3631e+02	-14.5841	-41.136395	0.000233	2.332279	0.790197	-0.000093
1372	1.3641e+02	-14.6049	-41.209063	0.000183	1.825262	0.618415	-0.000073
1373	1.3651e+02	-14.6547	-41.326140	0.000294	2.940699	0.996336	-0.000118
1374	1.3661e+02	-14.6948	-41.427068	0.000254	2.535086	0.858910	-0.000101
1375	1.3671e+02	-14.7349	-41.515885	0.000223	2.230875	0.755841	-0.000089
1376	1.3681e+02	-14.7734	-41.632962	0.000294	2.940699	0.996336	-0.000118
1377	1.3691e+02	-14.8151	-41.685445	0.000132	1.318245	0.446633	-0.000053
1378	1.3701e+02	-14.8536	-41.806559	0.000304	3.042103	1.030692	-0.000122
1379	1.3711e+02	-14.8937	-41.915562	0.000274	2.737893	0.927623	-0.000110
1380	1.3721e+02	-14.9258	-42.028602	0.000284	2.839296	0.961980	-0.000114
1381	1.3731e+02	-14.9819	-42.129530	0.000254	2.535086	0.858910	-0.000101
1382	1.3741e+02	-15.0060	-42.186050	0.000142	1.419648	0.480990	-0.000057
1383	1.3751e+02	-15.0477	-42.315238	0.000324	3.244910	1.099405	-0.000130
1384	1.3761e+02	-15.0926	-42.416167	0.000254	2.535086	0.858910	-0.000101
1385	1.3771e+02	-15.1311	-42.464612	0.000122	1.216841	0.412277	-0.000049
1386	1.3781e+02	-15.1680	-42.585726	0.000304	3.042103	1.030692	-0.000122
1387	1.3791e+02	-15.2097	-42.678580	0.000233	2.332279	0.790197	-0.000093
1388	1.3801e+02	-15.2466	-42.771435	0.000233	2.332279	0.790197	-0.000093
1389	1.3811e+02	-15.2964	-42.860252	0.000223	2.230875	0.755841	-0.000089
1390	1.3821e+02	-15.3381	-42.965217	0.000264	2.636489	0.893267	-0.000105
1391	1.3831e+02	-15.3702	-43.094405	0.000324	3.244910	1.099405	-0.000130
1392	1.3840e+02	-15.4071	-43.142851	0.000122	1.216841	0.412277	-0.000049
1393	1.3850e+02	-15.4504	-43.292225	0.000375	3.751927	1.271187	-0.000150
1394	1.3860e+02	-15.4921	-43.364894	0.000183	1.825262	0.618415	-0.000073
1395	1.3870e+02	-15.5402	-43.465822	0.000254	2.535086	0.858910	-0.000101
1396	1.3880e+02	-15.5771	-43.566750	0.000254	2.535086	0.858910	-0.000101
1397	1.3890e+02	-15.6028	-43.639419	0.000183	1.825262	0.618415	-0.000073
1398	1.3900e+02	-15.6525	-43.732273	0.000233	2.332279	0.790197	-0.000093
1399	1.3910e+02	-15.6878	-43.845313	0.000284	2.839296	0.961980	-0.000114
1400	1.3920e+02	-15.7423	-43.934130	0.000223	2.230875	0.755841	-0.000089
1401	1.3930e+02	-15.7760	-44.035058	0.000254	2.535086	0.858910	-0.000101
1402	1.3940e+02	-15.8049	-44.127912	0.000233	2.332279	0.790197	-0.000093
1403	1.3950e+02	-15.8530	-44.244989	0.000294	2.940699	0.996336	-0.000118
1404	1.3960e+02	-15.8915	-44.313620	0.000172	1.723858	0.584059	-0.000069
1405	1.3970e+02	-15.9332	-44.434735	0.000304	3.042103	1.030692	-0.000122
1406	1.3980e+02	-15.9621	-44.511440	0.000193	1.926665	0.652772	-0.000077
1407	1.3990e+02	-16.0102	-44.640628	0.000324	3.244910	1.099405	-0.000130
1408	1.4000e+02	-16.0503	-44.717334	0.000193	1.926665	0.652772	-0.000077
1409	1.4010e+02	-16.0760	-44.798077	0.000203	2.028069	0.687128	-0.000081
1410	1.4020e+02	-16.1274	-44.882857	0.000213	2.129472	0.721485	-0.000085
1411	1.4029e+02	-16.1626	-44.999934	0.000294	2.940699	0.996336	-0.000118
1412	1.4039e+02	-16.2044	-45.092788	0.000233	2.332279	0.790197	-0.000093
1413	1.4049e+02	-16.2429	-45.185642	0.000233	2.332279	0.790197	-0.000093
1414	1.4059e+02	-16.2910	-45.302719	0.000294	2.940699	0.996336	-0.000118
1415	1.4069e+02	-16.3327	-45.367313	0.000162	1.622455	0.549703	-0.000065
1416	1.4079e+02	-16.3776	-45.407684	0.000101	1.014034	0.343564	-0.000041
1417	1.4089e+02	-16.3921	-45.565133	0.000395	3.954734	1.339900	-0.000158
1418	1.4099e+02	-16.4466	-45.690284	0.000314	3.143506	1.065049	-0.000126
1419	1.4109e+02	-16.4883	-45.771026	0.000203	2.028069	0.687128	-0.000081
1420	1.4119e+02	-16.5316	-45.839658	0.000172	1.723858	0.584059	-0.000069
1421	1.4129e+02	-16.5589	-45.976920	0.000345	3.447717	1.168118	-0.000138
1422	1.4139e+02	-16.6134	-46.057663	0.000203	2.028069	0.687128	-0.000081
1423	1.4149e+02	-16.6407	-46.138406	0.000203	2.028069	0.687128	-0.000081
1424	1.4159e+02	-16.6856	-46.255483	0.000294	2.940699	0.996336	-0.000118
1425	1.4169e+02	-16.7193	-46.360448	0.000264	2.636489	0.893267	-0.000105
1426	1.4179e+02	-16.7739	-46.433117	0.000183	1.825262	0.618415	-0.000073
1427	1.4189e+02	-16.8075	-46.509822	0.000193	1.926665	0.652772	-0.000077
1428	1.4199e+02	-16.8444	-46.606714	0.000243	2.433682	0.824554	-0.000097
1429	1.4209e+02	-16.8813	-46.703605	0.000243	2.433682	0.824554	-0.000097
1430	1.4219e+02	-16.9231	-46.800496	0.000243	2.433682	0.824554	-0.000097
1431	1.4228e+02	-16.9632	-46.881239	0.000203	2.028069	0.687128	-0.000081
1432	1.4238e+02	-17.0081	-47.026576	0.000365	3.650523	1.236831	-0.000146
1433	1.4248e+02	-17.0514	-47.075021	0.000122	1.216841	0.412277	-0.000049
1434	1.4258e+02	-17.0883	-47.159801	0.000213	2.129472	0.721485	-0.000085
1435	1.4268e+02	-17.1204	-47.276878	0.000294	2.940699	0.996336	-0.000118
1436	1.4278e+02	-17.1653	-47.365695	0.000223	2.230875	0.755841	-0.000089
1437	1.4288e+02	-17.2022	-47.470661	0.000264	2.636489	0.893267	-0.000105
1438	1.4298e+02	-17.2503	-47.559478	0.000223	2.230875	0.755841	-0.000089
1439	1.4308e+02	-17.2776	-47.676554	0.000294	2.940699	0.996336	-0.000118
1440	1.4318e+02	-17.3225	-47.765371	0.000223	2.230875	0.755841	-0.000089
1441	1.4328e+02	-17.3626	-47.862263	0.000243	2.433682	0.824554	-0.000097
1442	1.4338e+02	-17.4027	-47.930894	0.000172	1.723858	0.584059	-0.000069
1443	1.4348e+02	-17.4412	-48.060082	0.000324	3.244910	1.099405	-0.000130
1444	1.4358e+02	-17.4942	-48.197345	0.000345	3.447717	1.168118	-0.000138
1445	1.4368e+02	-17.5214	-48.282125	0.000213	2.129472	0.721485	-0.000085
1446	1.4378e+02	-17.5631	-48.387090	0.000264	2.636489	0.893267	-0.000105
1447	1.4388e+02	-17.6032	-48.459759	0.000183	1.825262	0.618415	-0.000073
1448	1.4398e+02	-17.6385	-48.564724	0.000264	2.636489	0.893267	-0.000105
1449	1.4408e+02	-17.6802	-48.637393	0.000183	1.825262	0.618415	-0.000073
1450	1.4418e+02	-17.7252	-48.786767	0.000375	3.751927	1.271187	-0.000150
1451	1.4428e+02	-17.7701	-48.859435	0.000183	1.825262	0.618415	-0.000073
1452	1.4437e+02	-17.8022	-48.976512	0.000294	2.940699	0.996336	-0.000118
1453	1.4447e+02	-17.8407	-49.053218	0.000193	1.926665	0.652772	-0.000077
1454	1.4457e+02	-17.8856	-49.154146	0.000254	2.535086	0.858910	-0.000101
1455	1.4467e+02	-17.9241	-49.259112	0.000264	2.636489	0.893267	-0.000105
1456	1.4477e+02	-17.9610	-49.335817	0.000193	1.926665	0.652772	-0.000077
1457	1.4487e+02	-18.0027	-49.469043	0.000335	3.346313	1.133762	-0.000134
1458	1.4497e+02	-18.0348	-49.598231	0.000324	3.244910	1.099405	-0.000130
1459	1.4507e+02	-18.0749	-49.646677	0.000122	1.216841	0.412277	-0.000049
1460	1.4517e+02	-18.1214	-49.796051	0.000375	3.751927	1.271187	-0.000150
1461	1.4527e+02	-18.1647	-49.856608	0.000152	1.521051	0.515346	-0.000061
1462	1.4537e+02	-18.2032	-49.929276	0.000183	1.825262	0.618415	-0.000073
1463	1.4547e+02	-18.2337	-50.078650	0.000375	3.751927	1.271187	-0.000150
1464	1.4557e+02	-18.2850	-50.187653	0.000274	2.737893	0.927623	-0.000110
1465	1.4567e+02	-18.3139	-50.268396	0.000203	2.028069	0.687128	-0.000081
1466	1.4577e+02	-18.3604	-50.357213	0.000223	2.230875	0.755841	-0.000089
1467	1.4587e+02	-18.3909	-50.462178	0.000264	2.636489	0.893267	-0.000105
1468	1.4597e+02	-18.4407	-50.559069	0.000243	2.433682	0.824554	-0.000097
1469	1.4607e+02	-18.4808	-50.647886	0.000223	2.230875	0.755841	-0.000089
1470	1.4617e+02	-18.5257	-50.769000	0.000304	3.042103	1.030692	-0.000122
1471	1.4626e+02	-18.5610	-50.869929	0.000254	2.535086	0.858910	-0.000101
1472	1.4636e+02	-18.6059	-50.946634	0.000193	1.926665	0.652772	-0.000077
1473	1.4646e+02	-18.6428	-51.031414	0.000213	2.129472	0.721485	-0.000085
1474	1.4656e+02	-18.6829	-51.124268	0.000233	2.332279	0.790197	-0.000093
1475	1.4666e+02	-18.7182	-51.249420	0.000314	3.143506	1.065049	-0.000126
1476	1.4676e+02	-18.7647	-51.342274	0.000233	2.332279	0.790197	-0.000093
1477	1.4686e+02	-18.7824	-51.455314	0.000284	2.839296	0.961980	-0.000114
1478	1.4696e+02	-18.8353	-51.515871	0.000152	1.521051	0.515346	-0.000061
1479	1.4706e+02	-18.8722	-51.645059	0.000324	3.244910	1.099405	-0.000130
1480	1.4716e+02	-18.9155	-51.754062	0.000274	2.737893	0.927623	-0.000110
1481	1.4726e+02	-18.9588	-51.826730	0.000183	1.825262	0.618415	-0.000073
1482	1.4736e+02	-19.0005	-51.955918	0.000324	3.244910	1.099405	-0.000130
1483	1.4746e+02	-19.0358	-52.097218	0.000355	3.549120	1.202474	-0.000142
1484	1.4756e+02	-19.0888	-52.165849	0.000172	1.723858	0.584059	-0.000069
1485	1.4766e+02	-19.1160	-52.242555	0.000193	1.926665	0.652772	-0.000077
1486	1.4776e+02	-19.1545	-52.335409	0.000233	2.332279	0.790197	-0.000093
1487	1.4786e+02	-19.1898	-52.444412	0.000274	2.737893	0.927623	-0.000110
1488	1.4796e+02	-19.2444	-52.573600	0.000324	3.244910	1.099405	-0.000130
1489	1.4806e+02	-19.2781	-52.646269	0.000183	1.825262	0.618415	-0.000073
1490	1.4816e+02	-19.3102	-52.759308	0.000284	2.839296	0.961980	-0.000114
1491	1.4825e+02	-19.3551	-52.819865	0.000152	1.521051	0.515346	-0.000061
1492	1.4835e+02	-19.4032	-52.949054	0.000324	3.244910	1.099405	-0.000130
1493	1.4845e+02	-19.4385	-53.054019	0.000264	2.636489	0.893267	-0.000105
1494	1.4855e+02	-19.4690	-53.154948	0.000254	2.535086	0.858910	-0.000101
1495	1.4865e+02	-19.5123	-53.292210	0.000345	3.447717	1.168118	-0.000138
1496	1.4875e+02	-19.5524	-53.405250	0.000284	2.839296	0.961980	-0.000114
1497	1.4885e+02	-19.6037	-53.485993	0.000203	2.028069	0.687128	-0.000081
1498	1.4895e+02	-19.6278	-53.631330	0.000365	3.650523	1.236831	-0.000146
1499	1.4905e+02	-19.6711	-53.655553	0.000061	0.608421	0.206138	-0.000024
1500	1.4915e+02	-19.7064	-53.796852	0.000355	3.549120	1.202474	-0.000142
1501	1.4925e+02	-19.7577	-53.942189	0.000365	3.650523	1.236831	-0.000146
1502	1.4935e+02	-19.7946	-54.018895	0.000193	1.926665	0.652772	-0.000077
1503	1.4945e+02	-19.8444	-54.107712	0.000223	2.230875	0.755841	-0.000089
1504	1.4955e+02	-19.8684	-54.257086	0.000375	3.751927	1.271187	-0.000150
1505	1.4965e+02	-19.9214	-54.341866	0.000213	2.129472	0.721485	-0.000085
1506	1.4975e+02	-19.9551	-54.495277	0.000385	3.853330	1.305544	-0.000154
1507	1.4985e+02	-19.9903	-54.551797	0.000142	1.419648	0.480990	-0.000057
1508	1.4995e+02	-19.9454	-54.676948	-0.000314	-3.143506	-1.065049	-0.000126
1509	1.5005e+02	-19.9053	-54.701171	-0.000061	-0.608421	-0.206138	-0.000024
1510	1.5015e+02	-19.8620	-54.749616	-0.000122	-1.216841	-0.412277	-0.000049
1511	1.5025e+02	-19.8363	-54.769802	-0.000051	-0.507017	-0.171782	-0.000020
1512	1.5034e+02	-19.7914	-54.830359	-0.000152	-1.521051	-0.515346	-0.000061
1513	1.5044e+02	-19.7513	-54.846508	-0.000041	-0.405614	-0.137426	-0.000016
1514	1.5054e+02	-19.7096	-54.822285	0.000061	0.608421	0.206138	0.000024
1515	1.5064e+02	-19.6695	-54.882842	-0.000152	-1.521051	-0.515346	-0.000061
1516	1.5074e+02	-19.6358	-54.814210	0.000172	1.723858	0.584059	0.000069
1517	1.5084e+02	-19.6005	-54.874768	-0.000152	-1.521051	-0.515346	-0.000061
1518	1.5094e+02	-19.5588	-54.846508	0.000071	0.709824	0.240495	0.000028
1519	1.5104e+02	-19.5123	-54.757691	0.000223	2.230875	0.755841	0.000089
1520	1.5114e+02	-19.4706	-54.785951	-0.000071	-0.709824	-0.240495	-0.000028
1521	1.5124e+02	-19.4321	-54.773839	0.000030	0.304210	0.103069	0.000012
1522	1.5134e+02	-19.4016	-54.737505	0.000091	0.912631	0.309208	0.000037
1523	1.5144e+02	-19.3503	-54.685022	0.000132	1.318245	0.446633	0.000053
1524	1.5154e+02	-19.3150	-54.668874	0.000041	0.405614	0.137426	0.000016
1525	1.5164e+02	-19.2813	-54.644651	0.000061	0.608421	0.206138	0.000024
1526	1.5174e+02	-19.2331	-54.571982	0.000183	1.825262	0.618415	0.000073
1527	1.5184e+02	-19.2043	-54.555834	0.000041	0.405614	0.137426	0.000016
1528	1.5194e+02	-19.1545	-54.483165	0.000183	1.825262	0.618415	0.000073
1529	1.5204e+02	-19.1128	-54.475091	0.000020	0.202807	0.068713	0.000008
1530	1.5214e+02	-19.0743	-54.406460	0.000172	1.723858	0.584059	0.000069
1531	1.5224e+02	-19.0455	-54.370126	0.000091	0.912631	0.309208	0.000037
1532	1.5233e+02	-19.0021	-54.301494	0.000172	1.723858	0.584059	0.000069
1533	1.5243e+02	-18.9588	-54.249011	0.000132	1.318245	0.446633	0.000053
1534	1.5253e+02	-18.9219	-54.160194	0.000223	2.230875	0.755841	0.000089
1535	1.5263e+02	-18.8738	-54.152120	0.000020	0.202807	0.068713	0.000008
1536	1.5273e+02	-18.8401	-54.014858	0.000345	3.447717	1.168118	0.000138
1537	1.5283e+02	-18.8064	-54.014858	0.000000	0.000000	0.000000	0.000000
1538	1.5293e+02	-18.7599	-53.942189	0.000183	1.825262	0.618415	0.000073
1539	1.5303e+02	-18.7150	-53.837224	0.000264	2.636489	0.893267	0.000105
1540	1.5313e+02	-18.6765	-53.792815	0.000112	1.115438	0.377921	0.000045
1541	1.5323e+02	-18.6251	-53.728221	0.000162	1.622455	0.549703	0.000065
1542	1.5333e+02	-18.5995	-53.647478	0.000203	2.028069	0.687128	0.000081
1543	1.5343e+02	-18.5642	-53.570773	0.000193	1.926665	0.652772	0.000077
1544	1.5353e+02	-18.5193	-53.534438	0.000091	0.912631	0.309208	0.000037
1545	1.5363e+02	-18.4840	-53.433510	0.000254	2.535086	0.858910	0.000101
1546	1.5373e+02	-18.4374	-53.393139	0.000101	1.014034	0.343564	0.000041
1547	1.5383e+02	-18.4054	-53.296247	0.000243	2.433682	0.824554	0.000097
1548	1.5393e+02	-18.3556	-53.239728	0.000142	1.419648	0.480990	0.000057
1549	1.5403e+02	-18.3219	-53.175133	0.000162	1.622455	0.549703	0.000065
1550	1.5413e+02	-18.2738	-53.118613	0.000142	1.419648	0.480990	0.000057
1551	1.5422e+02	-18.2401	-53.037871	0.000203	2.028069	0.687128	0.000081
1552	1.5432e+02	-18.1952	-52.940980	0.000243	2.433682	0.824554	0.000097
1553	1.5442e+02	-18.1599	-52.856200	0.000213	2.129472	0.721485	0.000085
1554	1.5452e+02	-18.1182	-52.771420	0.000213	2.129472	0.721485	0.000085
1555	1.5462e+02	-18.0781	-52.714900	0.000142	1.419648	0.480990	0.000057
1556	1.5472e+02	-18.0396	-52.654343	0.000152	1.521051	0.515346	0.000061
1557	1.5482e+02	-17.9979	-52.541303	0.000284	2.839296	0.961980	0.000114
1558	1.5492e+02	-17.9658	-52.476709	0.000162	1.622455	0.549703	0.000065
1559	1.5502e+02	-17.9321	-52.379818	0.000243	2.433682	0.824554	0.000097
1560	1.5512e+02	-17.8712	-52.307149	0.000183	1.825262	0.618415	0.000073
1561	1.5522e+02	-17.8471	-52.246592	0.000152	1.521051	0.515346	0.000061
1562	1.5532e+02	-17.8054	-52.181998	0.000162	1.622455	0.549703	0.000065
1563	1.5542e+02	-17.7573	-52.077032	0.000264	2.636489	0.893267	0.000105
1564	1.5552e+02	-17.7220	-52.040698	0.000091	0.912631	0.309208	0.000037
1565	1.5562e+02	-17.6851	-51.939770	0.000254	2.535086	0.858910	0.000101
1566	1.5572e+02	-17.6385	-51.842879	0.000243	2.433682	0.824554	0.000097
1567	1.5582e+02	-17.6097	-51.794433	0.000122	1.216841	0.412277	0.000049
1568	1.5592e+02	-17.5663	-51.717727	0.000193	1.926665	0.652772	0.000077
1569	1.5602e+02	-17.5262	-51.649096	0.000172	1.723858	0.584059	0.000069
1570	1.5612e+02	-17.4861	-51.588539	0.000152	1.521051	0.515346	0.000061
1571	1.5622e+02	-17.4428	-51.487611	0.000254	2.535086	0.858910	0.000101
1572	1.5631e+02	-17.4091	-51.374571	0.000284	2.839296	0.961980	0.000114
1573	1.5641e+02	-17.3642	-51.318051	0.000142	1.419648	0.480990	0.000057
1574	1.5651e+02	-17.3337	-51.188863	0.000324	3.244910	1.099405	0.000130
1575	1.5661e+02	-17.2840	-51.144454	0.000112	1.115438	0.377921	0.000045
1576	1.5671e+02	-17.2359	-51.063711	0.000203	2.028069	0.687128	0.000081
1577	1.5681e+02	-17.2086	-50.991043	0.000183	1.825262	0.618415	0.000073
1578	1.5691e+02	-17.1669	-50.914337	0.000193	1.926665	0.652772	0.000077
1579	1.5701e+02	-17.1268	-50.809372	0.000264	2.636489	0.893267	0.000105
1580	1.5711e+02	-17.0803	-50.728629	0.000203	2.028069	0.687128	0.000081
1581	1.5721e+02	-17.0482	-50.651924	0.000193	1.926665	0.652772	0.000077
1582	1.5731e+02	-17.0065	-50.563107	0.000223	2.230875	0.755841	0.000089
1583	1.5741e+02	-16.9696	-50.522735	0.000101	1.014034	0.343564	0.000041
1584	1.5751e+02	-16.9247	-50.401621	0.000304	3.042103	1.030692	0.000122
1585	1.5761e+02	-16.8781	-50.316841	0.000213	2.129472	0.721485	0.000085
1586	1.5771e+02	-16.8493	-50.272433	0.000112	1.115438	0.377921	0.000045
1587	1.5781e+02	-16.8043	-50.123059	0.000375	3.751927	1.271187	0.000150
1588	1.5791e+02	-16.7626	-50.110947	0.000030	0.304210	0.103069	0.000012
1589	1.5801e+02	-16.7241	-49.961573	0.000375	3.751927	1.271187	0.000150
1590	1.5811e+02	-16.6985	-49.884868	0.000193	1.926665	0.652772	0.000077
1591	1.5821e+02	-16.6535	-49.836422	0.000122	1.216841	0.412277	0.000049
1592	1.5830e+02	-16.6054	-49.735494	0.000254	2.535086	0.858910	0.000101
1593	1.5840e+02	-16.5637	-49.642640	0.000233	2.332279	0.790197	0.000093
1594	1.5850e+02	-16.5252	-49.574008	0.000172	1.723858	0.584059	0.000069
1595	1.5860e+02	-16.4835	-49.493266	0.000203	2.028069	0.687128	0.000081
1596	1.5870e+02	-16.4466	-49.412523	0.000203	2.028069	0.687128	0.000081
1597	1.5880e+02	-16.4097	-49.295446	0.000294	2.940699	0.996336	0.000118
1598	1.5890e+02	-16.3632	-49.206629	0.000223	2.230875	0.755841	0.000089
1599	1.5900e+02	-16.3311	-49.117812	0.000223	2.230875	0.755841	0.000089
1600	1.5910e+02	-16.2878	-49.024958	0.000233	2.332279	0.790197	0.000093
1601	1.5920e+02	-16.2509	-49.004772	0.000051	0.507017	0.171782	0.000020
1602	1.5930e+02	-16.2092	-48.899807	0.000264	2.636489	0.893267	0.000105
1603	1.5940e+02	-16.1626	-48.798878	0.000254	2.535086	0.858910	0.000101
1604	1.5950e+02	-16.1241	-48.701987	0.000243	2.433682	0.824554	0.000097
1605	1.5960e+02	-16.0985	-48.625281	0.000193	1.926665	0.652772	0.000077
1606	1.5970e+02	-16.0503	-48.556650	0.000172	1.723858	0.584059	0.000069
1607	1.5980e+02	-16.0183	-48.496093	0.000152	1.521051	0.515346	0.000061
1608	1.5990e+02	-15.9717	-48.415350	0.000203	2.028069	0.687128	0.000081
1609	1.6000e+02	-15.9268	-48.294236	0.000304	3.042103	1.030692	0.000122
1610	1.6010e+02	-15.8883	-48.237716	0.000142	1.419648	0.480990	0.000057
1611	1.6019e+02	-15.8466	-48.148899	0.000223	2.230875	0.755841	0.000089
1612	1.6029e+02	-15.8097	-48.019711	0.000324	3.244910	1.099405	0.000130
1613	1.6039e+02	-15.7728	-47.955117	0.000162	1.622455	0.549703	0.000065
1614	1.6049e+02	-15.7295	-47.866300	0.000223	2.230875	0.755841	0.000089
1615	1.6059e+02	-15.7022	-47.817854	0.000122	1.216841	0.412277	0.000049
1616	1.6069e+02	-15.6541	-47.696740	0.000304	3.042103	1.030692	0.000122
1617	1.6079e+02	-15.6172	-47.567552	0.000324	3.244910	1.099405	0.000130
1618	1.6089e+02	-15.5675	-47.543329	0.000061	0.608421	0.206138	0.000024
1619	1.6099e+02	-15.5354	-47.450475	0.000233	2.332279	0.790197	0.000093
1620	1.6109e+02	-15.4937	-47.385881	0.000162	1.622455	0.549703	0.000065
1621	1.6119e+02	-15.4552	-47.288989	0.000243	2.433682	0.824554	0.000097
1622	1.6129e+02	-15.4167	-47.228432	0.000152	1.521051	0.515346	0.000061
1623	1.6139e+02	-15.3766	-47.119430	0.000274	2.737893	0.927623	0.000110
1624	1.6149e+02	-15.3268	-47.050798	0.000172	1.723858	0.584059	0.000069
1625	1.6159e+02	-15.2964	-46.933722	0.000294	2.940699	0.996336	0.000118
1626	1.6169e+02	-15.2530	-46.844905	0.000223	2.230875	0.755841	0.000089
1627	1.6179e+02	-15.2129	-46.796459	0.000122	1.216841	0.412277	0.000049
1628	1.6189e+02	-15.1760	-46.707642	0.000223	2.230875	0.755841	0.000089
1629	1.6199e+02	-15.1279	-46.614788	0.000233	2.332279	0.790197	0.000093
1630	1.6209e+02	-15.0878	-46.542119	0.000183	1.825262	0.618415	0.000073
1631	1.6219e+02	-15.0541	-46.441191	0.000254	2.535086	0.858910	0.000101
1632	1.6228e+02	-15.0124	-46.372560	0.000172	1.723858	0.584059	0.000069
1633	1.6238e+02	-14.9675	-46.255483	0.000294	2.940699	0.996336	0.000118
1634	1.6248e+02	-14.9306	-46.223186	0.000081	0.811227	0.274851	0.000032
1635	1.6258e+02	-14.8889	-46.110146	0.000284	2.839296	0.961980	0.000114
1636	1.6268e+02	-14.8456	-46.001143	0.000274	2.737893	0.927623	0.000110
1637	1.6278e+02	-14.8087	-45.916363	0.000213	2.129472	0.721485	0.000085
1638	1.6288e+02	-14.7670	-45.839658	0.000193	1.926665	0.652772	0.000077
1639	1.6298e+02	-14.7269	-45.811398	0.000071	0.709824	0.240495	0.000028
1640	1.6308e+02	-14.7044	-45.690284	0.000304	3.042103	1.030692	0.000122
1641	1.6318e+02	-14.6499	-45.589355	0.000254	2.535086	0.858910	0.000101
1642	1.6328e+02	-14.6258	-45.512650	0.000193	1.926665	0.652772	0.000077
1643	1.6338e+02	-14.5712	-45.387499	0.000314	3.143506	1.065049	0.000126
1644	1.6348e+02	-14.5360	-45.335016	0.000132	1.318245	0.446633	0.000053
1645	1.6358e+02	-14.4942	-45.238125	0.000243	2.433682	0.824554	0.000097
1646	1.6368e+02	-14.4525	-45.133159	0.000264	2.636489	0.893267	0.000105
1647	1.6378e+02	-14.4092	-45.052416	0.000203	2.028069	0.687128	0.000081
1648	1.6388e+02	-14.3739	-44.991859	0.000152	1.521051	0.515346	0.000061
1649	1.6398e+02	-14.3322	-44.862671	0.000324	3.244910	1.099405	0.000130
1650	1.6408e+02	-14.2889	-44.798077	0.000162	1.622455	0.549703	0.000065
1651	1.6418e+02	-14.2504	-44.701185	0.000243	2.433682	0.824554	0.000097
1652	1.6427e+02	-14.2167	-44.632554	0.000172	1.723858	0.584059	0.000069
1653	1.6437e+02	-14.1734	-44.503366	0.000324	3.244910	1.099405	0.000130
1654	1.6447e+02	-14.1349	-44.458957	0.000112	1.115438	0.377921	0.000045
1655	1.6457e+02	-14.0964	-44.333806	0.000314	3.143506	1.065049	0.000126
1656	1.6467e+02	-14.0579	-44.277286	0.000142	1.419648	0.480990	0.000057
1657	1.6477e+02	-14.0162	-44.172321	0.000264	2.636489	0.893267	0.000105
1658	1.6487e+02	-13.9761	-44.063318	0.000274	2.737893	0.927623	0.000110
1659	1.6497e+02	-13.9360	-43.942204	0.000304	3.042103	1.030692	0.000122
1660	1.6507e+02	-13.8862	-43.942204	0.000000	0.000000	0.000000	0.000000
1661	1.6517e+02	-13.8606	-43.833201	0.000274	2.737893	0.927623	0.000110
1662	1.6527e+02	-13.8237	-43.691902	0.000355	3.549120	1.202474	0.000142
1663	1.6537e+02	-13.7788	-43.679790	0.000030	0.304210	0.103069	0.000012
1664	1.6547e+02	-13.7354	-43.570787	0.000274	2.737893	0.927623	0.000110
1665	1.6557e+02	-13.7050	-43.473896	0.000243	2.433682	0.824554	0.000097
1666	1.6567e+02	-13.6600	-43.385079	0.000223	2.230875	0.755841	0.000089
1667	1.6577e+02	-13.6167	-43.268002	0.000294	2.940699	0.996336	0.000118
1668	1.6587e+02	-13.5766	-43.223594	0.000112	1.115438	0.377921	0.000045
1669	1.6597e+02	-13.5397	-43.118628	0.000264	2.636489	0.893267	0.000105
1670	1.6607e+02	-13.4996	-43.021737	0.000243	2.433682	0.824554	0.000097
1671	1.6616e+02	-13.4595	-42.912734	0.000274	2.737893	0.927623	0.000110
1672	1.6626e+02	-13.4210	-42.831992	0.000203	2.028069	0.687128	0.000081
1673	1.6636e+02	-13.3761	-42.694729	0.000345	3.447717	1.168118	0.000138
1674	1.6646e+02	-13.3424	-42.626098	0.000172	1.723858	0.584059	0.000069
1675	1.6656e+02	-13.2991	-42.557466	0.000172	1.723858	0.584059	0.000069
1676	1.6666e+02	-13.2526	-42.444427	0.000284	2.839296	0.961980	0.000114
1677	1.6676e+02	-13.2269	-42.400018	0.000112	1.115438	0.377921	0.000045
1678	1.6686e+02	-13.1724	-42.299090	0.000254	2.535086	0.858910	0.000101
1679	1.6696e+02	-13.1258	-42.173938	0.000314	3.143506	1.065049	0.000126
1680	1.6706e+02	-13.1034	-42.137604	0.000091	0.912631	0.309208	0.000037
1681	1.6716e+02	-13.0665	-42.028602	0.000274	2.737893	0.927623	0.000110
1682	1.6726e+02	-13.0248	-41.911525	0.000294	2.940699	0.996336	0.000118
1683	1.6736e+02	-12.9702	-41.790411	0.000304	3.042103	1.030692	0.000122
1684	1.6746e+02	-12.9446	-41.709668	0.000203	2.028069	0.687128	0.000081
1685	1.6756e+02	-12.9028	-41.669297	0.000101	1.014034	0.343564	0.000041
1686	1.6766e+02	-12.8579	-41.556257	0.000284	2.839296	0.961980	0.000114
1687	1.6776e+02	-12.8194	-41.467440	0.000223	2.230875	0.755841	0.000089
1688	1.6786e+02	-12.7841	-41.398808	0.000172	1.723858	0.584059	0.000069
1689	1.6796e+02	-12.7456	-41.237323	0.000406	4.056137	1.374256	0.000162
1690	1.6806e+02	-12.7055	-41.184840	0.000132	1.318245	0.446633	0.000053
1691	1.6816e+02	-12.6590	-41.096023	0.000223	2.230875	0.755841	0.000089
1692	1.6825e+02	-12.6237	-40.991058	0.000264	2.636489	0.893267	0.000105
1693	1.6835e+02	-12.5916	-40.869944	0.000304	3.042103	1.030692	0.000122
1694	1.6845e+02	-12.5419	-40.793238	0.000193	1.926665	0.652772	0.000077
1695	1.6855e+02	-12.5098	-40.712495	0.000203	2.028069	0.687128	0.000081
1696	1.6865e+02	-12.4569	-40.587344	0.000314	3.143506	1.065049	0.000126
1697	1.6875e+02	-12.4296	-40.482379	0.000264	2.636489	0.893267	0.000105
1698	1.6885e+02	-12.3831	-40.417784	0.000162	1.622455	0.549703	0.000065
1699	1.6895e+02	-12.3430	-40.312819	0.000264	2.636489	0.893267	0.000105
1700	1.6905e+02	-12.3013	-40.211891	0.000254	2.535086	0.858910	0.000101
1701	1.6915e+02	-12.2660	-40.082702	0.000324	3.244910	1.099405	0.000130
1702	1.6925e+02	-12.2130	-40.026182	0.000142	1.419648	0.480990	0.000057
1703	1.6935e+02	-12.1906	-39.905068	0.000304	3.042103	1.030692	0.000122
1704	1.6945e+02	-12.1328	-39.820288	0.000213	2.129472	0.721485	0.000085
1705	1.6955e+02	-12.1152	-39.715323	0.000264	2.636489	0.893267	0.000105
1706	1.6965e+02	-12.0638	-39.618432	0.000243	2.433682	0.824554	0.000097
1707	1.6975e+02	-12.0269	-39.529615	0.000223	2.230875	0.755841	0.000089
1708	1.6985e+02	-11.9756	-39.436760	0.000233	2.332279	0.790197	0.000093
1709	1.6995e+02	-11.9451	-39.327758	0.000274	2.737893	0.927623	0.000110
1710	1.7005e+02	-11.9002	-39.226829	0.000254	2.535086	0.858910	0.000101
1711	1.7015e+02	-11.8617	-39.133975	0.000233	2.332279	0.790197	0.000093
1712	1.7024e+02	-11.8248	-39.057270	0.000193	1.926665	0.652772	0.000077
1713	1.7034e+02	-11.7895	-38.948267	0.000274	2.737893	0.927623	0.000110
1714	1.7044e+02	-11.7462	-38.815042	0.000335	3.346313	1.133762	0.000134
1715	1.7054e+02	-11.7077	-38.742373	0.000183	1.825262	0.618415	0.000073
1716	1.7064e+02	-11.6628	-38.649519	0.000233	2.332279	0.790197	0.000093
1717	1.7074e+02	-11.6227	-38.580888	0.000172	1.723858	0.584059	0.000069
1718	1.7084e+02	-11.5858	-38.467848	0.000284	2.839296	0.961980	0.000114
1719	1.7094e+02	-11.5392	-38.354808	0.000284	2.839296	0.961980	0.000114
1720	1.7104e+02	-11.4975	-38.298288	0.000142	1.419648	0.480990	0.000057
1721	1.7114e+02	-11.4638	-38.161026	0.000345	3.447717	1.168118	0.000138
1722	1.7124e+02	-11.4205	-38.080283	0.000203	2.028069	0.687128	0.000081
1723	1.7134e+02	-11.3917	-37.955132	0.000314	3.143506	1.065049	0.000126
1724	1.7144e+02	-11.3483	-37.870352	0.000213	2.129472	0.721485	0.000085
1725	1.7154e+02	-11.3130	-37.753275	0.000294	2.940699	0.996336	0.000118
1726	1.7164e+02	-11.2713	-37.668495	0.000213	2.129472	0.721485	0.000085
1727	1.7174e+02	-11.2344	-37.599864	0.000172	1.723858	0.584059	0.000069
1728	1.7184e+02	-11.1927	-37.482787	0.000294	2.940699	0.996336	0.000118
1729	1.7194e+02	-11.1510	-37.361673	0.000304	3.042103	1.030692	0.000122
1730	1.7204e+02	-11.1045	-37.289004	0.000183	1.825262	0.618415	0.000073
1731	1.7213e+02	-11.0644	-37.184039	0.000264	2.636489	0.893267	0.000105
1732	1.7223e+02	-11.0275	-37.083110	0.000254	2.535086	0.858910	0.000101
1733	1.7233e+02	-10.9922	-36.986219	0.000243	2.433682	0.824554	0.000097
1734	1.7243e+02	-10.9505	-36.873179	0.000284	2.839296	0.961980	0.000114
1735	1.7253e+02	-10.9072	-36.796474	0.000193	1.926665	0.652772	0.000077
1736	1.7263e+02	-10.8623	-36.659211	0.000345	3.447717	1.168118	0.000138
1737	1.7273e+02	-10.8238	-36.590580	0.000172	1.723858	0.584059	0.000069
1738	1.7283e+02	-10.8013	-36.473503	0.000294	2.940699	0.996336	0.000118
1739	1.7293e+02	-10.7532	-36.388723	0.000213	2.129472	0.721485	0.000085
1740	1.7303e+02	-10.7163	-36.267609	0.000304	3.042103	1.030692	0.000122
1741	1.7313e+02	-10.6649	-36.194940	0.000183	1.825262	0.618415	0.000073
1742	1.7323e+02	-10.6280	-36.114198	0.000203	2.028069	0.687128	0.000081
1743	1.7333e+02	-10.5895	-36.001158	0.000284	2.839296	0.961980	0.000114
1744	1.7343e+02	-10.5478	-35.876007	0.000314	3.143506	1.065049	0.000126
1745	1.7353e+02	-10.5093	-35.767004	0.000274	2.737893	0.927623	0.000110
1746	1.7363e+02	-10.4644	-35.694336	0.000183	1.825262	0.618415	0.000073
1747	1.7373e+02	-10.4355	-35.621667	0.000183	1.825262	0.618415	0.000073
1748	1.7383e+02	-10.3938	-35.504590	0.000294	2.940699	0.996336	0.000118
1749	1.7393e+02	-10.3489	-35.387513	0.000294	2.940699	0.996336	0.000118
1750	1.7403e+02	-10.3056	-35.290622	0.000243	2.433682	0.824554	0.000097
1751	1.7413e+02	-10.2751	-35.197768	0.000233	2.332279	0.790197	0.000093
1752	1.7422e+02	-10.2334	-35.096840	0.000254	2.535086	0.858910	0.000101
1753	1.7432e+02	-10.1933	-34.979763	0.000294	2.940699	0.996336	0.000118
1754	1.7442e+02	-10.1516	-34.927280	0.000132	1.318245	0.446633	0.000053
1755	1.7452e+02	-10.1147	-34.781943	0.000365	3.650523	1.236831	0.000146
1756	1.7462e+02	-10.0650	-34.656792	0.000314	3.143506	1.065049	0.000126
1757	1.7472e+02	-10.0345	-34.580086	0.000193	1.926665	0.652772	0.000077
1758	1.7482e+02	-9.9928	-34.523566	0.000142	1.419648	0.480990	0.000057
1759	1.7492e+02	-9.9543	-34.394378	0.000324	3.244910	1.099405	0.000130
1760	1.7502e+02	-9.9158	-34.249041	0.000365	3.650523	1.236831	0.000146
1761	1.7512e+02	-9.8773	-34.168298	0.000203	2.028069	0.687128	0.000081
1762	1.7522e+02	-9.8179	-34.063333	0.000264	2.636489	0.893267	0.000105
1763	1.7532e+02	-9.7970	-34.010850	0.000132	1.318245	0.446633	0.000053
1764	1.7542e+02	-9.7425	-33.857439	0.000385	3.853330	1.305544	0.000154
1765	1.7552e+02	-9.7233	-33.808993	0.000122	1.216841	0.412277	0.000049
1766	1.7562e+02	-9.6719	-33.671731	0.000345	3.447717	1.168118	0.000138
1767	1.7572e+02	-9.6479	-33.558691	0.000284	2.839296	0.961980	0.000114
1768	1.7582e+02	-9.5885	-33.477948	0.000203	2.028069	0.687128	0.000081
1769	1.7592e+02	-9.5500	-33.377020	0.000254	2.535086	0.858910	0.000101
1770	1.7602e+02	-9.5131	-33.296277	0.000203	2.028069	0.687128	0.000081
1771	1.7612e+02	-9.4714	-33.130754	0.000416	4.157541	1.408613	0.000166
1772	1.7621e+02	-9.4233	-33.090383	0.000101	1.014034	0.343564	0.000041
1773	1.7631e+02	-9.3896	-32.961195	0.000324	3.244910	1.099405	0.000130
1774	1.7641e+02	-9.3495	-32.864303	0.000243	2.433682	0.824554	0.000097
1775	1.7651e+02	-9.3094	-32.763375	0.000254	2.535086	0.858910	0.000101
1776	1.7661e+02	-9.2773	-32.678595	0.000213	2.129472	0.721485	0.000085
1777	1.7671e+02	-9.2388	-32.601890	0.000193	1.926665	0.652772	0.000077
1778	1.7681e+02	-9.1971	-32.460590	0.000355	3.549120	1.202474	0.000142
1779	1.7691e+02	-9.1602	-32.355624	0.000264	2.636489	0.893267	0.000105
1780	1.7701e+02	-9.1217	-32.299104	0.000142	1.419648	0.480990	0.000057
1781	1.7711e+02	-9.0784	-32.198176	0.000254	2.535086	0.858910	0.000101
1782	1.7721e+02	-9.0302	-32.085136	0.000284	2.839296	0.961980	0.000114
1783	1.7731e+02	-8.9949	-31.996319	0.000223	2.230875	0.755841	0.000089
1784	1.7741e+02	-8.9564	-31.907502	0.000223	2.230875	0.755841	0.000089
1785	1.7751e+02	-8.9227	-31.762165	0.000365	3.650523	1.236831	0.000146
1786	1.7761e+02	-8.8618	-31.681423	0.000203	2.028069	0.687128	0.000081
1787	1.7771e+02	-8.8297	-31.568383	0.000284	2.839296	0.961980	0.000114
1788	1.7781e+02	-8.8008	-31.511863	0.000142	1.419648	0.480990	0.000057
1789	1.7791e+02	-8.7607	-31.378638	0.000335	3.346313	1.133762	0.000134
1790	1.7801e+02	-8.7094	-31.289821	0.000223	2.230875	0.755841	0.000089
1791	1.7810e+02	-8.6757	-31.188892	0.000254	2.535086	0.858910	0.000101
1792	1.7820e+02	-8.6372	-31.120261	0.000172	1.723858	0.584059	0.000069
1793	1.7830e+02	-8.5987	-31.011258	0.000274	2.737893	0.927623	0.000110
1794	1.7840e+02	-8.5554	-30.857847	0.000385	3.853330	1.305544	0.000154
1795	1.7850e+02	-8.5201	-30.813439	0.000112	1.115438	0.377921	0.000045
1796	1.7860e+02	-8.4816	-30.696362	0.000294	2.940699	0.996336	0.000118
1797	1.7870e+02	-8.4367	-30.627730	0.000172	1.723858	0.584059	0.000069
1798	1.7880e+02	-8.4110	-30.522765	0.000264	2.636489	0.893267	0.000105
1799	1.7890e+02	-8.3629	-30.389539	0.000335	3.346313	1.133762	0.000134
1800	1.7900e+02	-8.3179	-30.316871	0.000183	1.825262	0.618415	0.000073
1801	1.7910e+02	-8.2650	-30.211905	0.000264	2.636489	0.893267	0.000105
1802	1.7920e+02	-8.2442	-30.094828	0.000294	2.940699	0.996336	0.000118
1803	1.7930e+02	-8.2008	-30.006011	0.000223	2.230875	0.755841	0.000089
1804	1.7940e+02	-8.1591	-29.892972	0.000284	2.839296	0.961980	0.000114
1805	1.7950e+02	-8.1190	-29.800117	0.000233	2.332279	0.790197	0.000093
1806	1.7960e+02	-8.0821	-29.699189	0.000254	2.535086	0.858910	0.000101
1807	1.7970e+02	-8.0436	-29.610372	0.000223	2.230875	0.755841	0.000089
1808	1.7980e+02	-8.0035	-29.481184	0.000324	3.244910	1.099405	0.000130
1809	1.7990e+02	-7.9554	-29.392367	0.000223	2.230875	0.755841	0.000089
1810	1.8000e+02	-7.9169	-29.287401	0.000264	2.636489	0.893267	0.000105
1811	1.8009e+02	-7.8832	-29.190510	0.000243	2.433682	0.824554	0.000097
1812	1.8019e+02	-7.8399	-29.081507	0.000274	2.737893	0.927623	0.000110
1813	1.8029e+02	-7.8078	-28.988653	0.000233	2.332279	0.790197	0.000093
1814	1.8039e+02	-7.7581	-28.859465	0.000324	3.244910	1.099405	0.000130
1815	1.8049e+02	-7.7308	-28.778722	0.000203	2.028069	0.687128	0.000081
1816	1.8059e+02	-7.6795	-28.633385	0.000365	3.650523	1.236831	0.000146
1817	1.8069e+02	-7.6442	-28.556680	0.000193	1.926665	0.652772	0.000077
1818	1.8079e+02	-7.6041	-28.471900	0.000213	2.129472	0.721485	0.000085
1819	1.8089e+02	-7.5575	-28.375009	0.000243	2.433682	0.824554	0.000097
1820	1.8099e+02	-7.5190	-28.245820	0.000324	3.244910	1.099405	0.000130
1821	1.8109e+02	-7.4966	-28.185263	0.000152	1.521051	0.515346	0.000061
1822	1.8119e+02	-7.4452	-28.023778	0.000406	4.056137	1.374256	0.000162
1823	1.8129e+02	-7.4067	-27.898627	0.000314	3.143506	1.065049	0.000126
1824	1.8139e+02	-7.3618	-27.842107	0.000142	1.419648	0.480990	0.000057
1825	1.8149e+02	-7.3249	-27.741178	0.000254	2.535086	0.858910	0.000101
1826	1.8159e+02	-7.2848	-27.636213	0.000264	2.636489	0.893267	0.000105
1827	1.8169e+02	-7.2495	-27.515099	0.000304	3.042103	1.030692	0.000122
1828	1.8179e+02	-7.2062	-27.442430	0.000183	1.825262	0.618415	0.000073
1829	1.8189e+02	-7.1725	-27.301130	0.000355	3.549120	1.202474	0.000142
1830	1.8199e+02	-7.1292	-27.212313	0.000223	2.230875	0.755841	0.000089
1831	1.8209e+02	-7.0859	-27.131571	0.000203	2.028069	0.687128	0.000081
1832	1.8218e+02	-7.0474	-26.974122	0.000395	3.954734	1.339900	0.000158
1833	1.8228e+02	-7.0025	-26.921640	0.000132	1.318245	0.446633	0.000053
1834	1.8238e+02	-6.9624	-26.812637	0.000274	2.737893	0.927623	0.000110
1835	1.8248e+02	-6.9158	-26.707671	0.000264	2.636489	0.893267	0.000105
1836	1.8258e+02	-6.8886	-26.606743	0.000254	2.535086	0.858910	0.000101
1837	1.8268e+02	-6.8437	-26.485629	0.000304	3.042103	1.030692	0.000122
1838	1.8278e+02	-6.8036	-26.400849	0.000213	2.129472	0.721485	0.000085
1839	1.8288e+02	-6.7634	-26.291846	0.000274	2.737893	0.927623	0.000110
1840	1.8298e+02	-6.7185	-26.166695	0.000314	3.143506	1.065049	0.000126
1841	1.8308e+02	-6.6880	-26.073841	0.000233	2.332279	0.790197	0.000093
1842	1.8318e+02	-6.6447	-25.964838	0.000274	2.737893	0.927623	0.000110
1843	1.8328e+02	-6.5950	-25.851799	0.000284	2.839296	0.961980	0.000114
1844	1.8338e+02	-6.5677	-25.750870	0.000254	2.535086	0.858910	0.000101
1845	1.8348e+02	-6.5244	-25.658016	0.000233	2.332279	0.790197	0.000093
1846	1.8358e+02	-6.4891	-25.544976	0.000284	2.839296	0.961980	0.000114
1847	1.8368e+02	-6.4458	-25.431937	0.000284	2.839296	0.961980	0.000114
1848	1.8378e+02	-6.4169	-25.326971	0.000264	2.636489	0.893267	0.000105
1849	1.8388e+02	-6.3672	-25.213931	0.000284	2.839296	0.961980	0.000114
1850	1.8398e+02	-6.3271	-25.117040	0.000243	2.433682	0.824554	0.000097
1851	1.8407e+02	-6.2902	-25.024186	0.000233	2.332279	0.790197	0.000093
1852	1.8417e+02	-6.2565	-24.955555	0.000172	1.723858	0.584059	0.000069
1853	1.8427e+02	-6.2084	-24.802143	0.000385	3.853330	1.305544	0.000154
1854	1.8437e+02	-6.1619	-24.697178	0.000264	2.636489	0.893267	0.000105
1855	1.8447e+02	-6.1346	-24.592212	0.000264	2.636489	0.893267	0.000105
1856	1.8457e+02	-6.0913	-24.454950	0.000345	3.447717	1.168118	0.000138
1857	1.8467e+02	-6.0576	-24.394393	0.000152	1.521051	0.515346	0.000061
1858	1.8477e+02	-6.0159	-24.249056	0.000365	3.650523	1.236831	0.000146
1859	1.8487e+02	-5.9710	-24.192536	0.000142	1.419648	0.480990	0.000057
1860	1.8497e+02	-5.9341	-24.027013	0.000416	4.157541	1.408613	0.000166
1861	1.8507e+02	-5.8972	-23.881676	0.000365	3.650523	1.236831	0.000146
1862	1.8517e+02	-5.8490	-23.857454	0.000061	0.608421	0.206138	0.000024
1863	1.8527e+02	-5.8041	-23.708080	0.000375	3.751927	1.271187	0.000150
1864	1.8537e+02	-5.7704	-23.582928	0.000314	3.143506	1.065049	0.000126
1865	1.8547e+02	-5.7255	-23.482000	0.000254	2.535086	0.858910	0.000101
1866	1.8557e+02	-5.6902	-23.352812	0.000324	3.244910	1.099405	0.000130
1867	1.8567e+02	-5.6533	-23.259958	0.000233	2.332279	0.790197	0.000093
1868	1.8577e+02	-5.6132	-23.179215	0.000203	2.028069	0.687128	0.000081
1869	1.8587e+02	-5.5859	-23.058101	0.000304	3.042103	1.030692	0.000122
1870	1.8597e+02	-5.5298	-22.924875	0.000335	3.346313	1.133762	0.000134
1871	1.8606e+02	-5.4897	-22.807798	0.000294	2.940699	0.996336	0.000118
1872	1.8616e+02	-5.4464	-22.674573	0.000335	3.346313	1.133762	0.000134
1873	1.8626e+02	-5.4111	-22.589793	0.000213	2.129472	0.721485	0.000085
1874	1.8636e+02	-5.3790	-22.496939	0.000233	2.332279	0.790197	0.000093
1875	1.8646e+02	-5.3293	-22.355639	0.000355	3.549120	1.202474	0.000142
1876	1.8656e+02	-5.2908	-22.238562	0.000294	2.940699	0.996336	0.000118
1877	1.8666e+02	-5.2539	-22.121485	0.000294	2.940699	0.996336	0.000118
1878	1.8676e+02	-5.2122	-22.032668	0.000223	2.230875	0.755841	0.000089
1879	1.8686e+02	-5.1704	-21.911554	0.000304	3.042103	1.030692	0.000122
1880	1.8696e+02	-5.1319	-21.826774	0.000213	2.129472	0.721485	0.000085
1881	1.8706e+02	-5.0966	-21.681437	0.000365	3.650523	1.236831	0.000146
1882	1.8716e+02	-5.0517	-21.588583	0.000233	2.332279	0.790197	0.000093
1883	1.8726e+02	-5.0132	-21.471506	0.000294	2.940699	0.996336	0.000118
1884	1.8736e+02	-4.9715	-21.334244	0.000345	3.447717	1.168118	0.000138
1885	1.8746e+02	-4.9266	-21.253501	0.000203	2.028069	0.687128	0.000081
1886	1.8756e+02	-4.8961	-21.132387	0.000304	3.042103	1.030692	0.000122
1887	1.8766e+02	-4.8512	-20.999162	0.000335	3.346313	1.133762	0.000134
1888	1.8776e+02	-4.8127	-20.914382	0.000213	2.129472	0.721485	0.000085
1889	1.8786e+02	-4.7758	-20.813453	0.000254	2.535086	0.858910	0.000101
1890	1.8796e+02	-4.7341	-20.692339	0.000304	3.042103	1.030692	0.000122
1891	1.8806e+02	-4.7036	-20.547002	0.000365	3.650523	1.236831	0.000146
1892	1.8815e+02	-4.6587	-20.442037	0.000264	2.636489	0.893267	0.000105
1893	1.8825e+02	-4.6074	-20.328997	0.000284	2.839296	0.961980	0.000114
1894	1.8835e+02	-4.5737	-20.224031	0.000264	2.636489	0.893267	0.000105
1895	1.8845e+02	-4.5416	-20.110992	0.000284	2.839296	0.961980	0.000114
1896	1.8855e+02	-4.4967	-20.034286	0.000193	1.926665	0.652772	0.000077
1897	1.8865e+02	-4.4550	-19.884912	0.000375	3.751927	1.271187	0.000150
1898	1.8875e+02	-4.4036	-19.788021	0.000243	2.433682	0.824554	0.000097
1899	1.8885e+02	-4.3860	-19.666907	0.000304	3.042103	1.030692	0.000122
1900	1.8895e+02	-4.3378	-19.537718	0.000324	3.244910	1.099405	0.000130
1901	1.8905e+02	-4.3009	-19.440827	0.000243	2.433682	0.824554	0.000097
1902	1.8915e+02	-4.2512	-19.315676	0.000314	3.143506	1.065049	0.000126
1903	1.8925e+02	-4.2207	-19.247045	0.000172	1.723858	0.584059	0.000069
1904	1.8935e+02	-4.1790	-19.097671	0.000375	3.751927	1.271187	0.000150
1905	1.8945e+02	-4.1357	-19.008854	0.000223	2.230875	0.755841	0.000089
1906	1.8955e+02	-4.0940	-18.895814	0.000284	2.839296	0.961980	0.000114
1907	1.8965e+02	-4.0587	-18.790848	0.000264	2.636489	0.893267	0.000105
1908	1.8975e+02	-4.0298	-18.677808	0.000284	2.839296	0.961980	0.000114
1909	1.8985e+02	-3.9801	-18.593029	0.000213	2.129472	0.721485	0.000085
1910	1.8995e+02	-3.9432	-18.419432	0.000436	4.360347	1.477326	0.000174
1911	1.9004e+02	-3.8967	-18.346763	0.000183	1.825262	0.618415	0.000073
1912	1.9014e+02	-3.8582	-18.209501	0.000345	3.447717	1.168118	0.000138
1913	1.9024e+02	-3.8165	-18.039941	0.000426	4.258944	1.442969	0.000170
1914	1.9034e+02	-3.7780	-17.959198	0.000203	2.028069	0.687128	0.000081
1915	1.9044e+02	-3.7491	-17.878456	0.000203	2.028069	0.687128	0.000081
1916	1.9054e+02	-3.6962	-17.781564	0.000243	2.433682	0.824554	0.000097
1917	1.9064e+02	-3.6609	-17.648339	0.000335	3.346313	1.133762	0.000134
1918	1.9074e+02	-3.6127	-17.519151	0.000324	3.244910	1.099405	0.000130
1919	1.9084e+02	-3.5823	-17.414185	0.000264	2.636489	0.893267	0.000105
1920	1.9094e+02	-3.5486	-17.313257	0.000254	2.535086	0.858910	0.000101
1921	1.9104e+02	-3.5052	-17.171957	0.000355	3.549120	1.202474	0.000142
1922	1.9114e+02	-3.4507	-17.115437	0.000142	1.419648	0.480990	0.000057
1923	1.9124e+02	-3.4218	-16.941840	0.000436	4.360347	1.477326	0.000174
1924	1.9134e+02	-3.3849	-16.869172	0.000183	1.825262	0.618415	0.000073
1925	1.9144e+02	-3.3352	-16.744020	0.000314	3.143506	1.065049	0.000126
1926	1.9154e+02	-3.3159	-16.586572	0.000395	3.954734	1.339900	0.000158
1927	1.9164e+02	-3.2630	-16.497755	0.000223	2.230875	0.755841	0.000089
1928	1.9174e+02	-3.2181	-16.396827	0.000254	2.535086	0.858910	0.000101
1929	1.9184e+02	-3.1940	-16.275713	0.000304	3.042103	1.030692	0.000122
1930	1.9194e+02	-3.1395	-16.142487	0.000335	3.346313	1.133762	0.000134
1931	1.9203e+02	-3.1138	-16.017336	0.000314	3.143506	1.065049	0.000126
1932	1.9213e+02	-3.0609	-15.888148	0.000324	3.244910	1.099405	0.000130
1933	1.9223e+02	-3.0272	-15.815479	0.000183	1.825262	0.618415	0.000073
1934	1.9233e+02	-2.9823	-15.690328	0.000314	3.143506	1.065049	0.000126
1935	1.9243e+02	-2.9406	-15.573251	0.000294	2.940699	0.996336	0.000118
1936	1.9253e+02	-2.9053	-15.440026	0.000335	3.346313	1.133762	0.000134
1937	1.9263e+02	-2.8636	-15.355246	0.000213	2.129472	0.721485	0.000085
1938	1.9273e+02	-2.8202	-15.226057	0.000324	3.244910	1.099405	0.000130
1939	1.9283e+02	-2.7866	-15.137240	0.000223	2.230875	0.755841	0.000089
1940	1.9293e+02	-2.7352	-14.967681	0.000426	4.258944	1.442969	0.000170
1941	1.9303e+02	-2.7047	-14.911161	0.000142	1.419648	0.480990	0.000057
1942	1.9313e+02	-2.6678	-14.781973	0.000324	3.244910	1.099405	0.000130
1943	1.9323e+02	-2.6165	-14.677007	0.000264	2.636489	0.893267	0.000105
1944	1.9333e+02	-2.5860	-14.519559	0.000395	3.954734	1.339900	0.000158
1945	1.9343e+02	-2.5491	-14.467076	0.000132	1.318245	0.446633	0.000053
1946	1.9353e+02	-2.4994	-14.309628	0.000395	3.954734	1.339900	0.000158
1947	1.9363e+02	-2.4609	-14.228885	0.000203	2.028069	0.687128	0.000081
1948	1.9373e+02	-2.4224	-14.079511	0.000375	3.751927	1.271187	0.000150
1949	1.9383e+02	-2.3871	-14.002805	0.000193	1.926665	0.652772	0.000077
1950	1.9393e+02	-2.3358	-13.889766	0.000284	2.839296	0.961980	0.000114
1951	1.9403e+02	-2.3037	-13.776726	0.000284	2.839296	0.961980	0.000114
1952	1.9412e+02	-2.2700	-13.659649	0.000294	2.940699	0.996336	0.000118
1953	1.9422e+02	-2.2235	-13.558720	0.000254	2.535086	0.858910	0.000101
1954	1.9432e+02	-2.1866	-13.421458	0.000345	3.447717	1.168118	0.000138
1955	1.9442e+02	-2.1497	-13.296307	0.000314	3.143506	1.065049	0.000126
1956	1.9452e+02	-2.1144	-13.199415	0.000243	2.433682	0.824554	0.000097
1957	1.9462e+02	-2.0727	-13.098487	0.000254	2.535086	0.858910	0.000101
1958	1.9472e+02	-2.0278	-12.961224	0.000345	3.447717	1.168118	0.000138
1959	1.9482e+02	-1.9876	-12.852222	0.000274	2.737893	0.927623	0.000110
1960	1.9492e+02	-1.9411	-12.771479	0.000203	2.028069	0.687128	0.000081
1961	1.9502e+02	-1.9026	-12.614031	0.000395	3.954734	1.339900	0.000158
1962	1.9512e+02	-1.8641	-12.533288	0.000203	2.028069	0.687128	0.000081
1963	1.9522e+02	-1.8336	-12.412174	0.000304	3.042103	1.030692	0.000122
1964	1.9532e+02	-1.7855	-12.287023	0.000314	3.143506	1.065049	0.000126
1965	1.9542e+02	-1.7502	-12.182057	0.000264	2.636489	0.893267	0.000105
1966	1.9552e+02	-1.7005	-12.101314	0.000203	2.028069	0.687128	0.000081
1967	1.9562e+02	-1.6636	-11.964052	0.000345	3.447717	1.168118	0.000138
1968	1.9572e+02	-1.6219	-11.838901	0.000314	3.143506	1.065049	0.000126
1969	1.9582e+02	-1.5946	-11.746046	0.000233	2.332279	0.790197	0.000093
1970	1.9592e+02	-1.5481	-11.588598	0.000395	3.954734	1.339900	0.000158
1971	1.9601e+02	-1.5080	-11.528041	0.000152	1.521051	0.515346	0.000061
1972	1.9611e+02	-1.4647	-11.386741	0.000355	3.549120	1.202474	0.000142
1973	1.9621e+02	-1.4214	-11.285813	0.000254	2.535086	0.858910	0.000101
1974	1.9631e+02	-1.3957	-11.213145	0.000183	1.825262	0.618415	0.000073
1975	1.9641e+02	-1.3460	-11.079919	0.000335	3.346313	1.133762	0.000134
1976	1.9651e+02	-1.3123	-10.934582	0.000365	3.650523	1.236831	0.000146
1977	1.9661e+02	-1.2673	-10.817505	0.000294	2.940699	0.996336	0.000118
1978	1.9671e+02	-1.2240	-10.684280	0.000335	3.346313	1.133762	0.000134
1979	1.9681e+02	-1.1871	-10.599500	0.000213	2.129472	0.721485	0.000085
1980	1.9691e+02	-1.1470	-10.494534	0.000264	2.636489	0.893267	0.000105
1981	1.9701e+02	-1.1165	-10.345160	0.000375	3.751927	1.271187	0.000150
1982	1.9711e+02	-1.0716	-10.232121	0.000284	2.839296	0.961980	0.000114
1983	1.9721e+02	-1.0315	-10.086784	0.000365	3.650523	1.236831	0.000146
1984	1.9731e+02	-0.9946	-10.010078	0.000193	1.926665	0.652772	0.000077
1985	1.9741e+02	-0.9641	-9.909150	0.000254	2.535086	0.858910	0.000101
1986	1.9751e+02	-0.9144	-9.783998	0.000314	3.143506	1.065049	0.000126
1987	1.9761e+02	-0.8679	-9.614439	0.000426	4.258944	1.442969	0.000170
1988	1.9771e+02	-0.8358	-9.537733	0.000193	1.926665	0.652772	0.000077
1989	1.9781e+02	-0.7973	-9.444879	0.000233	2.332279	0.790197	0.000093
1990	1.9791e+02	-0.7492	-9.327802	0.000294	2.940699	0.996336	0.000118
1991	1.9800e+02	-0.7091	-9.178428	0.000375	3.751927	1.271187	0.000150
1992	1.9810e+02	-0.6690	-9.057314	0.000304	3.042103	1.030692	0.000122
1993	1.9820e+02	-0.6257	-8.948311	0.000274	2.737893	0.927623	0.000110
1994	1.9830e+02	-0.5936	-8.823160	0.000314	3.143506	1.065049	0.000126
1995	1.9840e+02	-0.5503	-8.734343	0.000223	2.230875	0.755841	0.000089
1996	1.9850e+02	-0.5118	-8.593043	0.000355	3.549120	1.202474	0.000142
1997	1.9860e+02	-0.4684	-8.532486	0.000152	1.521051	0.515346	0.000061
1998	1.9870e+02	-0.4299	-8.362927	0.000426	4.258944	1.442969	0.000170
1999	1.9880e+02	-0.3866	-8.257961	0.000264	2.636489	0.893267	0.000105
2000	1.9890e+02	-0.3593	-8.132810	0.000314	3.143506	1.065049	0.000126
2001	1.9900e+02	-0.3160	-8.048030	0.000213	2.129472	0.721485	0.000085
2002	1.9910e+02	-0.2759	-7.947102	0.000254	2.535086	0.858910	0.000101
2003	1.9920e+02	-0.2294	-7.821950	0.000314	3.143506	1.065049	0.000126
2004	1.9930e+02	-0.1989	-7.668539	0.000385	3.853330	1.305544	0.000154
2005	1.9940e+02	-0.1556	-7.555500	0.000284	2.839296	0.961980	0.000114
2006	1.9950e+02	-0.1139	-7.482831	0.000183	1.825262	0.618415	0.000073
2007	1.9960e+02	-0.0690	-7.329420	0.000385	3.853330	1.305544	0.000154
2008	1.9970e+02	-0.0289	-7.228492	0.000254	2.535086	0.858910	0.000101
2009	1.9980e+02	0.0048	-7.095266	0.000254	2.535086	0.858910	0.000134

PMax (uC/cm2):	5.80e+01
Pr (uC/cm2):	2.91e+00
-Pr (uC/cm2):	-3.61e+00
PLoss (uC/cm2):	-3.57e+00
-Vc:	-9.83e-01
C (Max-Eff) (nF):	2.90e-01
K (Eff):	9.83e+02
Vert. (+/-Pr) Shift (uC/cm2):	-3.47e-01
Offset (uC/cm2):	3.49e+00

A (Loop Area - uC/cm2·Volts):	-5.23e-02



Hysteresis Version: 5.48.1 - Radiant Technologies, Inc., 1999 - 9/12/24

