»»»»»»»»»»»»»»»»»»»»»»»»»»»»»»»»»»»» Hysteresis ««««««««««««««««««««««««««««««««««««
»»»  Executed Version:	5.48.1
»»»  Vision Version:	5.48.4 (R)
»»»  Vision Compiled:	9/18/24
»»»  Driver Version:	5.47.0
»»»  Windows Version:	Windows 8 or 8.1
»»»  Processor Information:	x86 (AMD or Intel) - 32 Processors
»»»  Tester Name:	PMF21124-494 (100V)
»»»  Tester S/N:	PMF21124-494
»»»  Internal Amp Type:	100V RevK 270k
»»»  Internal Amp S/N:	iAB2-596/K     
»»»  Execution Count:	1
»»»»»»»»»»»»»»»»»»»»»»»»»»»»»»»»»»»»»»»»»»««««««««««««««««««««««««««««««««««««««««««

Stored:	6/19/2025 - 17:43:56
Configured:	06/19/25 10:04:32 AM
Executed:	06/19/25 05:43:25 PM

»»»»»»»»»»»»»»»»»»»»»»»»»»»»»»»»»»» Sample Info ««««««««««««««««««««««««««««««««««««
Sample Name:	
Lot Name:	
Wafer Name:	
Die Row/Column:	0/0
Capacitor Number:	0
Sample Area (cm2):	1.00e-04
Sample Thickness (microns):	3.00e-01

Amplifier:	Internal

»»»»»»»»»»»»»»»»»»»»»»»»»»»»»»»»»»» Tester Info «««««««««««««««««««««««««««««««««««
Tester Name:	PMF21124-494 (100V)
Tester Serial Number:	PMF21124-494
Return Signal Amp. Level:	0.19 [Index: 3]

»»»»»»»»»»»»»»»»»»»»»»»»»»»»»»»» Hysteresis Info ««««««««««««««««««««««««««««««««««
Task Name:	Hyst-1168
Volts:	20.00
Field:	666.67 (kV/cm)
DCBias:	0.00
DCField:	0.00 (kV/cm)
Hysteresis Period (ms):	2.00e+02
Preset:	Enabled
Preset Delay (ms):	1.00e+03
Profile:	Standard Bipolar

»»»»»»»»»»»»»»»»»»»»»»»»»»»»»»»»»»»»»» Data «««««««««««««««««««««««««««««««««««««««
Points:	2009

Valid Data

Point	Time (ms)	Drive Voltage	Measured Polarization (uC/cm2)	Capacitance (uF)	Normalized Capacitance (uF/cm2)	Dielectric Constant	Instantaneous Current (mA)
   1	0.0000e+00	0.0016	-4.446905	0.000264	2.635590	0.892962	0.000105
   2	9.9500e-02	0.0337	-4.341939	0.000264	2.635590	0.892962	0.000105
   3	1.9900e-01	0.0802	-4.277345	0.000162	1.621902	0.549515	0.000065
   4	2.9850e-01	0.1171	-4.148157	0.000324	3.243803	1.099030	0.000130
   5	3.9800e-01	0.1572	-4.023006	0.000314	3.142434	1.064686	0.000126
   6	4.9750e-01	0.2021	-3.869595	0.000385	3.852016	1.305098	0.000154
   7	5.9700e-01	0.2278	-3.724258	0.000365	3.649279	1.236409	0.000146
   8	6.9650e-01	0.2823	-3.595069	0.000324	3.243803	1.099030	0.000130
   9	7.9600e-01	0.3208	-3.506252	0.000223	2.230115	0.755583	0.000089
  10	8.9550e-01	0.3497	-3.360916	0.000365	3.649279	1.236409	0.000146
  11	9.9500e-01	0.3930	-3.215579	0.000365	3.649279	1.236409	0.000146
  12	1.0945e+00	0.4251	-3.134836	0.000203	2.027377	0.686894	0.000081
  13	1.1940e+00	0.4732	-2.985462	0.000375	3.750647	1.270754	0.000150
  14	1.2935e+00	0.5198	-2.876459	0.000274	2.736959	0.927307	0.000110
  15	1.3930e+00	0.5503	-2.719011	0.000395	3.953385	1.339443	0.000158
  16	1.4925e+00	0.5968	-2.626157	0.000233	2.331483	0.789928	0.000093
  17	1.5920e+00	0.6369	-2.517154	0.000274	2.736959	0.927307	0.000110
  18	1.6915e+00	0.6770	-2.375854	0.000355	3.547910	1.202064	0.000142
  19	1.7910e+00	0.7187	-2.327409	0.000122	1.216426	0.412136	0.000049
  20	1.8905e+00	0.7476	-2.169960	0.000395	3.953385	1.339443	0.000158
  21	1.9900e+00	0.8005	-2.089218	0.000203	2.027377	0.686894	0.000081
  22	2.0895e+00	0.8342	-1.927732	0.000405	4.054754	1.373788	0.000162
  23	2.1890e+00	0.8791	-1.794507	0.000335	3.345172	1.133375	0.000134
  24	2.2885e+00	0.9144	-1.685504	0.000274	2.736959	0.927307	0.000110
  25	2.3880e+00	0.9561	-1.507870	0.000446	4.460229	1.511167	0.000179
  26	2.4875e+00	0.9994	-1.358496	0.000375	3.750647	1.270754	0.000150
  27	2.5870e+00	1.0331	-1.237382	0.000304	3.041065	1.030341	0.000122
  28	2.6865e+00	1.0813	-1.156639	0.000203	2.027377	0.686894	0.000081
  29	2.7860e+00	1.1053	-1.007265	0.000375	3.750647	1.270754	0.000150
  30	2.8855e+00	1.1583	-0.870003	0.000345	3.446541	1.167720	0.000138
  31	2.9850e+00	1.1968	-0.728703	0.000355	3.547910	1.202064	0.000142
  32	3.0845e+00	1.2208	-0.611626	0.000294	2.939697	0.995996	0.000118
  33	3.1840e+00	1.2625	-0.470326	0.000355	3.547910	1.202064	0.000142
  34	3.2835e+00	1.3042	-0.349212	0.000304	3.041065	1.030341	0.000122
  35	3.3830e+00	1.3556	-0.236172	0.000284	2.838328	0.961651	0.000114
  36	3.4825e+00	1.4021	-0.111021	0.000314	3.142434	1.064686	0.000126
  37	3.5820e+00	1.4374	-0.002019	0.000274	2.736959	0.927307	0.000110
  38	3.6815e+00	1.4759	0.106984	0.000274	2.736959	0.927307	0.000110
  39	3.7810e+00	1.5128	0.215987	0.000274	2.736959	0.927307	0.000110
  40	3.8805e+00	1.5497	0.316915	0.000253	2.534221	0.858617	0.000101
  41	3.9800e+00	1.5930	0.474363	0.000395	3.953385	1.339443	0.000158
  42	4.0795e+00	1.6331	0.571255	0.000243	2.432852	0.824273	0.000097
  43	4.1790e+00	1.6700	0.752926	0.000456	4.561598	1.545511	0.000183
  44	4.2785e+00	1.7101	0.894226	0.000355	3.547910	1.202064	0.000142
  45	4.3780e+00	1.7550	1.043600	0.000375	3.750647	1.270754	0.000150
  46	4.4775e+00	1.8016	1.180862	0.000345	3.446541	1.167720	0.000138
  47	4.5770e+00	1.8224	1.322162	0.000355	3.547910	1.202064	0.000142
  48	4.6765e+00	1.8737	1.443276	0.000304	3.041065	1.030341	0.000122
  49	4.7760e+00	1.9122	1.580539	0.000345	3.446541	1.167720	0.000138
  50	4.8755e+00	1.9491	1.697616	0.000294	2.939697	0.995996	0.000118
  51	4.9750e+00	1.9876	1.814693	0.000294	2.939697	0.995996	0.000118
  52	5.0745e+00	2.0358	1.947918	0.000335	3.345172	1.133375	0.000134
  53	5.1740e+00	2.0695	2.101329	0.000385	3.852016	1.305098	0.000154
  54	5.2735e+00	2.1128	2.214369	0.000284	2.838328	0.961651	0.000114
  55	5.3730e+00	2.1497	2.323372	0.000274	2.736959	0.927307	0.000110
  56	5.4725e+00	2.2010	2.456597	0.000335	3.345172	1.133375	0.000134
  57	5.5720e+00	2.2235	2.585785	0.000324	3.243803	1.099030	0.000130
  58	5.6715e+00	2.2732	2.694788	0.000274	2.736959	0.927307	0.000110
  59	5.7710e+00	2.3069	2.807828	0.000284	2.838328	0.961651	0.000114
  60	5.8705e+00	2.3550	2.961239	0.000385	3.852016	1.305098	0.000154
  61	5.9700e+00	2.3935	3.066205	0.000264	2.635590	0.892962	0.000105
  62	6.0695e+00	2.4272	3.268061	0.000507	5.068442	1.717235	0.000203
  63	6.1690e+00	2.4673	3.385138	0.000294	2.939697	0.995996	0.000118
  64	6.2685e+00	2.5058	3.530475	0.000365	3.649279	1.236409	0.000146
  65	6.3680e+00	2.5395	3.675812	0.000365	3.649279	1.236409	0.000146
  66	6.4675e+00	2.5892	3.800963	0.000314	3.142434	1.064686	0.000126
  67	6.5670e+00	2.6229	3.946300	0.000365	3.649279	1.236409	0.000146
  68	6.6665e+00	2.6710	4.091637	0.000365	3.649279	1.236409	0.000146
  69	6.7660e+00	2.7095	4.204677	0.000284	2.838328	0.961651	0.000114
  70	6.8655e+00	2.7432	4.341939	0.000345	3.446541	1.167720	0.000138
  71	6.9650e+00	2.7962	4.442868	0.000253	2.534221	0.858617	0.000101
  72	7.0645e+00	2.8299	4.584168	0.000355	3.547910	1.202064	0.000142
  73	7.1640e+00	2.8684	4.745653	0.000405	4.054754	1.373788	0.000162
  74	7.2635e+00	2.9133	4.846581	0.000253	2.534221	0.858617	0.000101
  75	7.3630e+00	2.9534	4.987881	0.000355	3.547910	1.202064	0.000142
  76	7.4625e+00	2.9855	5.072661	0.000213	2.128746	0.721239	0.000085
  77	7.5620e+00	3.0288	5.217998	0.000365	3.649279	1.236409	0.000146
  78	7.6615e+00	3.0641	5.347186	0.000324	3.243803	1.099030	0.000130
  79	7.7610e+00	3.1106	5.440040	0.000233	2.331483	0.789928	0.000093
  80	7.8605e+00	3.1475	5.581340	0.000355	3.547910	1.202064	0.000142
  81	7.9600e+00	3.1876	5.750900	0.000426	4.257492	1.442477	0.000170
  82	8.0595e+00	3.2197	5.912385	0.000405	4.054754	1.373788	0.000162
  83	8.1590e+00	3.2758	6.073871	0.000405	4.054754	1.373788	0.000162
  84	8.2585e+00	3.3031	6.215170	0.000355	3.547910	1.202064	0.000142
  85	8.3580e+00	3.3432	6.332247	0.000294	2.939697	0.995996	0.000118
  86	8.4575e+00	3.3801	6.441250	0.000274	2.736959	0.927307	0.000110
  87	8.5570e+00	3.4298	6.606773	0.000416	4.156123	1.408133	0.000166
  88	8.6565e+00	3.4684	6.707701	0.000253	2.534221	0.858617	0.000101
  89	8.7560e+00	3.5036	6.849001	0.000355	3.547910	1.202064	0.000142
  90	8.8555e+00	3.5341	6.962041	0.000284	2.838328	0.961651	0.000114
  91	8.9550e+00	3.5871	7.123526	0.000405	4.054754	1.373788	0.000162
  92	9.0545e+00	3.6224	7.240603	0.000294	2.939697	0.995996	0.000118
  93	9.1540e+00	3.6641	7.406126	0.000416	4.156123	1.408133	0.000166
  94	9.2535e+00	3.6978	7.490905	0.000213	2.128746	0.721239	0.000085
  95	9.3530e+00	3.7395	7.575685	0.000213	2.128746	0.721239	0.000085
  96	9.4525e+00	3.7844	7.716985	0.000355	3.547910	1.202064	0.000142
  97	9.5520e+00	3.8373	7.858285	0.000355	3.547910	1.202064	0.000142
  98	9.6515e+00	3.8630	7.947102	0.000223	2.230115	0.755583	0.000089
  99	9.7510e+00	3.9047	8.128773	0.000456	4.561598	1.545511	0.000183
 100	9.8505e+00	3.9512	8.274110	0.000365	3.649279	1.236409	0.000146
 101	9.9500e+00	3.9817	8.455781	0.000456	4.561598	1.545511	0.000183
 102	1.0050e+01	4.0234	8.556709	0.000253	2.534221	0.858617	0.000101
 103	1.0149e+01	4.0587	8.714157	0.000395	3.953385	1.339443	0.000158
 104	1.0248e+01	4.1004	8.843346	0.000324	3.243803	1.099030	0.000130
 105	1.0348e+01	4.1469	8.948311	0.000264	2.635590	0.892962	0.000105
 106	1.0447e+01	4.1742	9.065388	0.000294	2.939697	0.995996	0.000118
 107	1.0547e+01	4.2239	9.210725	0.000365	3.649279	1.236409	0.000146
 108	1.0646e+01	4.2592	9.376248	0.000416	4.156123	1.408133	0.000166
 109	1.0746e+01	4.2977	9.493325	0.000294	2.939697	0.995996	0.000118
 110	1.0845e+01	4.3427	9.606364	0.000284	2.838328	0.961651	0.000114
 111	1.0945e+01	4.3796	9.751701	0.000365	3.649279	1.236409	0.000146
 112	1.1044e+01	4.4197	9.840518	0.000223	2.230115	0.755583	0.000089
 113	1.1144e+01	4.4646	9.957595	0.000294	2.939697	0.995996	0.000118
 114	1.1243e+01	4.4967	10.102932	0.000365	3.649279	1.236409	0.000146
 115	1.1343e+01	4.5432	10.203861	0.000253	2.534221	0.858617	0.000101
 116	1.1443e+01	4.5769	10.357272	0.000385	3.852016	1.305098	0.000154
 117	1.1542e+01	4.6138	10.458200	0.000253	2.534221	0.858617	0.000101
 118	1.1642e+01	4.6603	10.631797	0.000436	4.358860	1.476822	0.000174
 119	1.1741e+01	4.7020	10.785208	0.000385	3.852016	1.305098	0.000154
 120	1.1841e+01	4.7437	10.878062	0.000233	2.331483	0.789928	0.000093
 121	1.1940e+01	4.7870	11.035511	0.000395	3.953385	1.339443	0.000158
 122	1.2040e+01	4.8175	11.180847	0.000365	3.649279	1.236409	0.000146
 123	1.2139e+01	4.8672	11.301961	0.000304	3.041065	1.030341	0.000122
 124	1.2239e+01	4.9025	11.415001	0.000284	2.838328	0.961651	0.000114
 125	1.2338e+01	4.9378	11.580524	0.000416	4.156123	1.408133	0.000166
 126	1.2438e+01	4.9779	11.665304	0.000213	2.128746	0.721239	0.000085
 127	1.2537e+01	5.0100	11.802566	0.000345	3.446541	1.167720	0.000138
 128	1.2636e+01	5.0630	11.939829	0.000345	3.446541	1.167720	0.000138
 129	1.2736e+01	5.0999	12.073054	0.000335	3.345172	1.133375	0.000134
 130	1.2835e+01	5.1351	12.157834	0.000213	2.128746	0.721239	0.000085
 131	1.2935e+01	5.1688	12.311245	0.000385	3.852016	1.305098	0.000154
 132	1.3034e+01	5.2234	12.464657	0.000385	3.852016	1.305098	0.000154
 133	1.3134e+01	5.2587	12.525214	0.000152	1.520533	0.515170	0.000061
 134	1.3233e+01	5.3004	12.678625	0.000385	3.852016	1.305098	0.000154
 135	1.3333e+01	5.3437	12.791665	0.000284	2.838328	0.961651	0.000114
 136	1.3432e+01	5.3790	12.949113	0.000395	3.953385	1.339443	0.000158
 137	1.3532e+01	5.4255	13.074264	0.000314	3.142434	1.064686	0.000126
 138	1.3632e+01	5.4592	13.239787	0.000416	4.156123	1.408133	0.000166
 139	1.3731e+01	5.5009	13.381086	0.000355	3.547910	1.202064	0.000142
 140	1.3831e+01	5.5346	13.494126	0.000284	2.838328	0.961651	0.000114
 141	1.3930e+01	5.5763	13.582943	0.000223	2.230115	0.755583	0.000089
 142	1.4030e+01	5.6132	13.720206	0.000345	3.446541	1.167720	0.000138
 143	1.4129e+01	5.6453	13.877654	0.000395	3.953385	1.339443	0.000158
 144	1.4229e+01	5.6982	13.986657	0.000274	2.736959	0.927307	0.000110
 145	1.4328e+01	5.7415	14.127957	0.000355	3.547910	1.202064	0.000142
 146	1.4428e+01	5.7752	14.240996	0.000284	2.838328	0.961651	0.000114
 147	1.4527e+01	5.8073	14.430742	0.000476	4.764336	1.614201	0.000191
 148	1.4627e+01	5.8571	14.527633	0.000243	2.432852	0.824273	0.000097
 149	1.4726e+01	5.9004	14.648747	0.000304	3.041065	1.030341	0.000122
 150	1.4825e+01	5.9292	14.794084	0.000365	3.649279	1.236409	0.000146
 151	1.4925e+01	5.9726	14.870789	0.000193	1.926008	0.652549	0.000077
 152	1.5024e+01	6.0223	14.995941	0.000314	3.142434	1.064686	0.000126
 153	1.5124e+01	6.0528	15.121092	0.000314	3.142434	1.064686	0.000126
 154	1.5223e+01	6.0977	15.222020	0.000253	2.534221	0.858617	0.000101
 155	1.5323e+01	6.1346	15.343134	0.000304	3.041065	1.030341	0.000122
 156	1.5422e+01	6.1779	15.456174	0.000284	2.838328	0.961651	0.000114
 157	1.5522e+01	6.2228	15.666105	0.000527	5.271180	1.785924	0.000211
 158	1.5621e+01	6.2501	15.750885	0.000213	2.128746	0.721239	0.000085
 159	1.5721e+01	6.2982	15.924482	0.000436	4.358860	1.476822	0.000174
 160	1.5820e+01	6.3255	16.057707	0.000335	3.345172	1.133375	0.000134
 161	1.5920e+01	6.3720	16.186896	0.000324	3.243803	1.099030	0.000130
 162	1.6020e+01	6.4233	16.320121	0.000335	3.345172	1.133375	0.000134
 163	1.6119e+01	6.4538	16.437198	0.000294	2.939697	0.995996	0.000118
 164	1.6218e+01	6.4923	16.538127	0.000253	2.534221	0.858617	0.000101
 165	1.6318e+01	6.5421	16.687501	0.000375	3.750647	1.270754	0.000150
 166	1.6418e+01	6.5677	16.832837	0.000365	3.649279	1.236409	0.000146
 167	1.6517e+01	6.6143	16.905506	0.000182	1.824639	0.618205	0.000073
 168	1.6616e+01	6.6560	17.050843	0.000365	3.649279	1.236409	0.000146
 169	1.6716e+01	6.6848	17.143697	0.000233	2.331483	0.789928	0.000093
 170	1.6816e+01	6.7346	17.284997	0.000355	3.547910	1.202064	0.000142
 171	1.6915e+01	6.7715	17.377851	0.000233	2.331483	0.789928	0.000093
 172	1.7015e+01	6.8019	17.486853	0.000274	2.736959	0.927307	0.000110
 173	1.7114e+01	6.8421	17.676599	0.000476	4.764336	1.614201	0.000191
 174	1.7213e+01	6.8982	17.769453	0.000233	2.331483	0.789928	0.000093
 175	1.7313e+01	6.9367	17.926901	0.000395	3.953385	1.339443	0.000158
 176	1.7413e+01	6.9640	18.076275	0.000375	3.750647	1.270754	0.000150
 177	1.7512e+01	7.0169	18.213538	0.000345	3.446541	1.167720	0.000138
 178	1.7611e+01	7.0554	18.318503	0.000264	2.635590	0.892962	0.000105
 179	1.7711e+01	7.0907	18.467877	0.000375	3.750647	1.270754	0.000150
 180	1.7811e+01	7.1292	18.621289	0.000385	3.852016	1.305098	0.000154
 181	1.7910e+01	7.1693	18.754514	0.000335	3.345172	1.133375	0.000134
 182	1.8009e+01	7.2158	18.863517	0.000274	2.736959	0.927307	0.000110
 183	1.8109e+01	7.2479	18.988668	0.000314	3.142434	1.064686	0.000126
 184	1.8209e+01	7.2880	19.097671	0.000274	2.736959	0.927307	0.000110
 185	1.8308e+01	7.3313	19.243007	0.000365	3.649279	1.236409	0.000146
 186	1.8407e+01	7.3634	19.400456	0.000395	3.953385	1.339443	0.000158
 187	1.8507e+01	7.4083	19.493310	0.000233	2.331483	0.789928	0.000093
 188	1.8607e+01	7.4501	19.634610	0.000355	3.547910	1.202064	0.000142
 189	1.8706e+01	7.4870	19.759761	0.000314	3.142434	1.064686	0.000126
 190	1.8805e+01	7.5255	19.848578	0.000223	2.230115	0.755583	0.000089
 191	1.8905e+01	7.5672	19.937395	0.000223	2.230115	0.755583	0.000089
 192	1.9005e+01	7.6089	20.102917	0.000416	4.156123	1.408133	0.000166
 193	1.9104e+01	7.6554	20.244217	0.000355	3.547910	1.202064	0.000142
 194	1.9203e+01	7.6811	20.385517	0.000355	3.547910	1.202064	0.000142
 195	1.9303e+01	7.7212	20.547002	0.000405	4.054754	1.373788	0.000162
 196	1.9402e+01	7.7645	20.660042	0.000284	2.838328	0.961651	0.000114
 197	1.9502e+01	7.8142	20.829602	0.000426	4.257492	1.442477	0.000170
 198	1.9602e+01	7.8543	20.934567	0.000264	2.635590	0.892962	0.000105
 199	1.9701e+01	7.8880	21.087979	0.000385	3.852016	1.305098	0.000154
 200	1.9800e+01	7.9281	21.205055	0.000294	2.939697	0.995996	0.000118
 201	1.9900e+01	7.9650	21.330207	0.000314	3.142434	1.064686	0.000126
 202	2.0000e+01	8.0019	21.467469	0.000345	3.446541	1.167720	0.000138
 203	2.0099e+01	8.0468	21.596658	0.000324	3.243803	1.099030	0.000130
 204	2.0198e+01	8.0901	21.717772	0.000304	3.041065	1.030341	0.000122
 205	2.0298e+01	8.1222	21.863109	0.000365	3.649279	1.236409	0.000146
 206	2.0398e+01	8.1623	21.980186	0.000294	2.939697	0.995996	0.000118
 207	2.0497e+01	8.2121	22.153782	0.000436	4.358860	1.476822	0.000174
 208	2.0596e+01	8.2442	22.230488	0.000193	1.926008	0.652549	0.000077
 209	2.0696e+01	8.2843	22.307194	0.000193	1.926008	0.652549	0.000077
 210	2.0796e+01	8.3372	22.432345	0.000314	3.142434	1.064686	0.000126
 211	2.0895e+01	8.3581	22.609979	0.000446	4.460229	1.511167	0.000179
 212	2.0994e+01	8.4062	22.694759	0.000213	2.128746	0.721239	0.000085
 213	2.1094e+01	8.4447	22.848170	0.000385	3.852016	1.305098	0.000154
 214	2.1194e+01	8.4848	23.005618	0.000395	3.953385	1.339443	0.000158
 215	2.1293e+01	8.5281	23.171141	0.000416	4.156123	1.408133	0.000166
 216	2.1392e+01	8.5634	23.284180	0.000284	2.838328	0.961651	0.000114
 217	2.1492e+01	8.5987	23.417406	0.000335	3.345172	1.133375	0.000134
 218	2.1591e+01	8.6404	23.562743	0.000365	3.649279	1.236409	0.000146
 219	2.1691e+01	8.6837	23.720191	0.000395	3.953385	1.339443	0.000158
 220	2.1791e+01	8.7254	23.861491	0.000355	3.547910	1.202064	0.000142
 221	2.1890e+01	8.7591	23.970493	0.000274	2.736959	0.927307	0.000110
 222	2.1989e+01	8.8008	24.111793	0.000355	3.547910	1.202064	0.000142
 223	2.2089e+01	8.8457	24.220796	0.000274	2.736959	0.927307	0.000110
 224	2.2189e+01	8.8842	24.378244	0.000395	3.953385	1.339443	0.000158
 225	2.2288e+01	8.9243	24.515507	0.000345	3.446541	1.167720	0.000138
 226	2.2387e+01	8.9612	24.636621	0.000304	3.041065	1.030341	0.000122
 227	2.2487e+01	8.9965	24.729475	0.000233	2.331483	0.789928	0.000093
 228	2.2587e+01	9.0382	24.862700	0.000335	3.345172	1.133375	0.000134
 229	2.2686e+01	9.0848	24.927295	0.000162	1.621902	0.549515	0.000065
 230	2.2785e+01	9.1217	25.084743	0.000395	3.953385	1.339443	0.000158
 231	2.2885e+01	9.1602	25.242191	0.000395	3.953385	1.339443	0.000158
 232	2.2985e+01	9.2051	25.371380	0.000324	3.243803	1.099030	0.000130
 233	2.3084e+01	9.2372	25.508642	0.000345	3.446541	1.167720	0.000138
 234	2.3183e+01	9.2741	25.674165	0.000416	4.156123	1.408133	0.000166
 235	2.3283e+01	9.3254	25.815464	0.000355	3.547910	1.202064	0.000142
 236	2.3383e+01	9.3623	25.980987	0.000416	4.156123	1.408133	0.000166
 237	2.3482e+01	9.4024	26.094027	0.000284	2.838328	0.961651	0.000114
 238	2.3581e+01	9.4361	26.231289	0.000345	3.446541	1.167720	0.000138
 239	2.3681e+01	9.4746	26.380663	0.000375	3.750647	1.270754	0.000150
 240	2.3780e+01	9.5291	26.465443	0.000213	2.128746	0.721239	0.000085
 241	2.3880e+01	9.5580	26.639040	0.000436	4.358860	1.476822	0.000174
 242	2.3980e+01	9.6045	26.739969	0.000253	2.534221	0.858617	0.000101
 243	2.4079e+01	9.6414	26.885305	0.000365	3.649279	1.236409	0.000146
 244	2.4178e+01	9.6831	27.030642	0.000365	3.649279	1.236409	0.000146
 245	2.4278e+01	9.7200	27.139645	0.000274	2.736959	0.927307	0.000110
 246	2.4378e+01	9.7618	27.232499	0.000233	2.331483	0.789928	0.000093
 247	2.4477e+01	9.7938	27.329390	0.000243	2.432852	0.824273	0.000097
 248	2.4576e+01	9.8307	27.478764	0.000375	3.750647	1.270754	0.000150
 249	2.4676e+01	9.8805	27.583730	0.000264	2.635590	0.892962	0.000105
 250	2.4776e+01	9.9206	27.741178	0.000395	3.953385	1.339443	0.000158
 251	2.4875e+01	9.9623	27.894589	0.000385	3.852016	1.305098	0.000154
 252	2.4974e+01	9.9976	28.011666	0.000294	2.939697	0.995996	0.000118
 253	2.5074e+01	10.0409	28.161040	0.000375	3.750647	1.270754	0.000150
 254	2.5174e+01	10.0794	28.318489	0.000395	3.953385	1.339443	0.000158
 255	2.5273e+01	10.1259	28.459788	0.000355	3.547910	1.202064	0.000142
 256	2.5372e+01	10.1596	28.597051	0.000345	3.446541	1.167720	0.000138
 257	2.5472e+01	10.2029	28.714128	0.000294	2.939697	0.995996	0.000118
 258	2.5572e+01	10.2334	28.875613	0.000405	4.054754	1.373788	0.000162
 259	2.5671e+01	10.2783	28.996727	0.000304	3.041065	1.030341	0.000122
 260	2.5770e+01	10.3184	29.105730	0.000274	2.736959	0.927307	0.000110
 261	2.5870e+01	10.3505	29.218770	0.000284	2.838328	0.961651	0.000114
 262	2.5970e+01	10.3890	29.432738	0.000537	5.372549	1.820269	0.000215
 263	2.6069e+01	10.4339	29.517518	0.000213	2.128746	0.721239	0.000085
 264	2.6169e+01	10.4756	29.630558	0.000284	2.838328	0.961651	0.000114
 265	2.6268e+01	10.5141	29.763783	0.000335	3.345172	1.133375	0.000134
 266	2.6367e+01	10.5575	29.860674	0.000243	2.432852	0.824273	0.000097
 267	2.6467e+01	10.5911	29.949491	0.000223	2.230115	0.755583	0.000089
 268	2.6567e+01	10.6425	30.086754	0.000345	3.446541	1.167720	0.000138
 269	2.6666e+01	10.6794	30.224017	0.000345	3.446541	1.167720	0.000138
 270	2.6765e+01	10.7147	30.333019	0.000274	2.736959	0.927307	0.000110
 271	2.6865e+01	10.7484	30.526802	0.000487	4.865705	1.648545	0.000195
 272	2.6965e+01	10.7917	30.615619	0.000223	2.230115	0.755583	0.000089
 273	2.7064e+01	10.8302	30.821513	0.000517	5.169811	1.751579	0.000207
 274	2.7163e+01	10.8783	30.914367	0.000233	2.331483	0.789928	0.000093
 275	2.7263e+01	10.9088	31.087964	0.000436	4.358860	1.476822	0.000174
 276	2.7363e+01	10.9569	31.168706	0.000203	2.027377	0.686894	0.000081
 277	2.7462e+01	10.9922	31.265598	0.000243	2.432852	0.824273	0.000097
 278	2.7561e+01	11.0323	31.447269	0.000456	4.561598	1.545511	0.000183
 279	2.7661e+01	11.0740	31.532049	0.000213	2.128746	0.721239	0.000085
 280	2.7761e+01	11.1238	31.685460	0.000385	3.852016	1.305098	0.000154
 281	2.7860e+01	11.1462	31.766203	0.000203	2.027377	0.686894	0.000081
 282	2.7959e+01	11.2008	31.935762	0.000426	4.257492	1.442477	0.000170
 283	2.8059e+01	11.2312	32.056876	0.000304	3.041065	1.030341	0.000122
 284	2.8159e+01	11.2778	32.198176	0.000355	3.547910	1.202064	0.000142
 285	2.8258e+01	11.3211	32.278919	0.000203	2.027377	0.686894	0.000081
 286	2.8358e+01	11.3532	32.383884	0.000264	2.635590	0.892962	0.000105
 287	2.8457e+01	11.3884	32.517110	0.000335	3.345172	1.133375	0.000134
 288	2.8556e+01	11.4334	32.614001	0.000243	2.432852	0.824273	0.000097
 289	2.8656e+01	11.4751	32.759338	0.000365	3.649279	1.236409	0.000146
 290	2.8756e+01	11.5072	32.888526	0.000324	3.243803	1.099030	0.000130
 291	2.8855e+01	11.5505	33.082309	0.000487	4.865705	1.648545	0.000195
 292	2.8954e+01	11.5906	33.211497	0.000324	3.243803	1.099030	0.000130
 293	2.9054e+01	11.6339	33.328574	0.000294	2.939697	0.995996	0.000118
 294	2.9154e+01	11.6676	33.481985	0.000385	3.852016	1.305098	0.000154
 295	2.9253e+01	11.7141	33.554654	0.000182	1.824639	0.618205	0.000073
 296	2.9352e+01	11.7510	33.675768	0.000304	3.041065	1.030341	0.000122
 297	2.9452e+01	11.7943	33.817068	0.000355	3.547910	1.202064	0.000142
 298	2.9552e+01	11.8376	33.934144	0.000294	2.939697	0.995996	0.000118
 299	2.9651e+01	11.8745	34.051221	0.000294	2.939697	0.995996	0.000118
 300	2.9750e+01	11.9082	34.220781	0.000426	4.257492	1.442477	0.000170
 301	2.9850e+01	11.9483	34.305561	0.000213	2.128746	0.721239	0.000085
 302	2.9950e+01	11.9916	34.458972	0.000385	3.852016	1.305098	0.000154
 303	3.0049e+01	12.0398	34.555863	0.000243	2.432852	0.824273	0.000097
 304	3.0148e+01	12.0670	34.668903	0.000284	2.838328	0.961651	0.000114
 305	3.0248e+01	12.1104	34.781943	0.000284	2.838328	0.961651	0.000114
 306	3.0348e+01	12.1537	34.878834	0.000243	2.432852	0.824273	0.000097
 307	3.0447e+01	12.1890	34.987837	0.000274	2.736959	0.927307	0.000110
 308	3.0547e+01	12.2291	35.161434	0.000436	4.358860	1.476822	0.000174
 309	3.0646e+01	12.2676	35.302733	0.000355	3.547910	1.202064	0.000142
 310	3.0745e+01	12.3093	35.399625	0.000243	2.432852	0.824273	0.000097
 311	3.0845e+01	12.3478	35.512665	0.000284	2.838328	0.961651	0.000114
 312	3.0945e+01	12.3975	35.718558	0.000517	5.169811	1.751579	0.000207
 313	3.1044e+01	12.4328	35.807375	0.000223	2.230115	0.755583	0.000089
 314	3.1143e+01	12.4601	35.952712	0.000365	3.649279	1.236409	0.000146
 315	3.1243e+01	12.5050	36.073826	0.000304	3.041065	1.030341	0.000122
 316	3.1343e+01	12.5515	36.182829	0.000274	2.736959	0.927307	0.000110
 317	3.1442e+01	12.5932	36.316055	0.000335	3.345172	1.133375	0.000134
 318	3.1541e+01	12.6285	36.429094	0.000284	2.838328	0.961651	0.000114
 319	3.1641e+01	12.6750	36.534060	0.000264	2.635590	0.892962	0.000105
 320	3.1741e+01	12.7103	36.675360	0.000355	3.547910	1.202064	0.000142
 321	3.1840e+01	12.7424	36.784362	0.000274	2.736959	0.927307	0.000110
 322	3.1939e+01	12.7922	36.909513	0.000314	3.142434	1.064686	0.000126
 323	3.2039e+01	12.8274	37.034665	0.000314	3.142434	1.064686	0.000126
 324	3.2139e+01	12.8788	37.115407	0.000203	2.027377	0.686894	0.000081
 325	3.2238e+01	12.9109	37.196150	0.000203	2.027377	0.686894	0.000081
 326	3.2337e+01	12.9478	37.305153	0.000274	2.736959	0.927307	0.000110
 327	3.2437e+01	12.9831	37.474712	0.000426	4.257492	1.442477	0.000170
 328	3.2536e+01	13.0216	37.607938	0.000335	3.345172	1.133375	0.000134
 329	3.2636e+01	13.0681	37.761349	0.000385	3.852016	1.305098	0.000154
 330	3.2736e+01	13.1194	37.862278	0.000253	2.534221	0.858617	0.000101
 331	3.2835e+01	13.1483	37.995503	0.000335	3.345172	1.133375	0.000134
 332	3.2934e+01	13.1788	38.100469	0.000264	2.635590	0.892962	0.000105
 333	3.3034e+01	13.2125	38.221583	0.000304	3.041065	1.030341	0.000122
 334	3.3133e+01	13.2686	38.346734	0.000314	3.142434	1.064686	0.000126
 335	3.3233e+01	13.3087	38.479959	0.000335	3.345172	1.133375	0.000134
 336	3.3333e+01	13.3440	38.597036	0.000294	2.939697	0.995996	0.000118
 337	3.3432e+01	13.3809	38.738336	0.000355	3.547910	1.202064	0.000142
 338	3.3532e+01	13.4306	38.827153	0.000223	2.230115	0.755583	0.000089
 339	3.3631e+01	13.4547	38.960378	0.000335	3.345172	1.133375	0.000134
 340	3.3730e+01	13.5028	39.093604	0.000335	3.345172	1.133375	0.000134
 341	3.3830e+01	13.5397	39.186458	0.000233	2.331483	0.789928	0.000093
 342	3.3929e+01	13.5782	39.291424	0.000264	2.635590	0.892962	0.000105
 343	3.4029e+01	13.6199	39.416575	0.000314	3.142434	1.064686	0.000126
 344	3.4129e+01	13.6600	39.521540	0.000264	2.635590	0.892962	0.000105
 345	3.4228e+01	13.7018	39.634580	0.000284	2.838328	0.961651	0.000114
 346	3.4328e+01	13.7354	39.804140	0.000426	4.257492	1.442477	0.000170
 347	3.4427e+01	13.7723	39.937365	0.000335	3.345172	1.133375	0.000134
 348	3.4526e+01	13.8285	40.066554	0.000324	3.243803	1.099030	0.000130
 349	3.4626e+01	13.8606	40.203816	0.000345	3.446541	1.167720	0.000138
 350	3.4725e+01	13.8991	40.324930	0.000304	3.041065	1.030341	0.000122
 351	3.4825e+01	13.9408	40.450082	0.000314	3.142434	1.064686	0.000126
 352	3.4925e+01	13.9729	40.563121	0.000284	2.838328	0.961651	0.000114
 353	3.5024e+01	14.0242	40.740755	0.000446	4.460229	1.511167	0.000179
 354	3.5123e+01	14.0659	40.789201	0.000122	1.216426	0.412136	0.000049
 355	3.5223e+01	14.1076	40.918389	0.000324	3.243803	1.099030	0.000130
 356	3.5322e+01	14.1413	41.043540	0.000314	3.142434	1.064686	0.000126
 357	3.5422e+01	14.1814	41.136395	0.000233	2.331483	0.789928	0.000093
 358	3.5522e+01	14.2103	41.305954	0.000426	4.257492	1.442477	0.000170
 359	3.5621e+01	14.2552	41.406883	0.000253	2.534221	0.858617	0.000101
 360	3.5721e+01	14.3033	41.548182	0.000355	3.547910	1.202064	0.000142
 361	3.5820e+01	14.3450	41.645074	0.000243	2.432852	0.824273	0.000097
 362	3.5919e+01	14.3803	41.741965	0.000243	2.432852	0.824273	0.000097
 363	3.6019e+01	14.4253	41.875190	0.000335	3.345172	1.133375	0.000134
 364	3.6118e+01	14.4590	42.024564	0.000375	3.750647	1.270754	0.000150
 365	3.6218e+01	14.5039	42.141641	0.000294	2.939697	0.995996	0.000118
 366	3.6318e+01	14.5408	42.295053	0.000385	3.852016	1.305098	0.000154
 367	3.6417e+01	14.5696	42.400018	0.000264	2.635590	0.892962	0.000105
 368	3.6517e+01	14.6146	42.541318	0.000355	3.547910	1.202064	0.000142
 369	3.6616e+01	14.6547	42.670506	0.000324	3.243803	1.099030	0.000130
 370	3.6715e+01	14.6996	42.815843	0.000365	3.649279	1.236409	0.000146
 371	3.6815e+01	14.7429	42.932920	0.000294	2.939697	0.995996	0.000118
 372	3.6914e+01	14.7782	43.049997	0.000294	2.939697	0.995996	0.000118
 373	3.7014e+01	14.8135	43.159000	0.000274	2.736959	0.927307	0.000110
 374	3.7114e+01	14.8680	43.276077	0.000294	2.939697	0.995996	0.000118
 375	3.7213e+01	14.8969	43.461785	0.000466	4.662967	1.579856	0.000187
 376	3.7313e+01	14.9402	43.566750	0.000264	2.635590	0.892962	0.000105
 377	3.7412e+01	14.9723	43.704013	0.000345	3.446541	1.167720	0.000138
 378	3.7511e+01	15.0236	43.792830	0.000223	2.230115	0.755583	0.000089
 379	3.7611e+01	15.0461	43.926055	0.000335	3.345172	1.133375	0.000134
 380	3.7711e+01	15.1006	44.010835	0.000213	2.128746	0.721239	0.000085
 381	3.7810e+01	15.1472	44.115801	0.000264	2.635590	0.892962	0.000105
 382	3.7910e+01	15.1744	44.253063	0.000345	3.446541	1.167720	0.000138
 383	3.8009e+01	15.2161	44.410512	0.000395	3.953385	1.339443	0.000158
 384	3.8108e+01	15.2611	44.543737	0.000335	3.345172	1.133375	0.000134
 385	3.8208e+01	15.2899	44.644666	0.000253	2.534221	0.858617	0.000101
 386	3.8307e+01	15.3397	44.818262	0.000436	4.358860	1.476822	0.000174
 387	3.8407e+01	15.3750	44.935339	0.000294	2.939697	0.995996	0.000118
 388	3.8507e+01	15.4087	45.052416	0.000294	2.939697	0.995996	0.000118
 389	3.8606e+01	15.4536	45.165456	0.000284	2.838328	0.961651	0.000114
 390	3.8706e+01	15.4937	45.274459	0.000274	2.736959	0.927307	0.000110
 391	3.8805e+01	15.5370	45.423833	0.000375	3.750647	1.270754	0.000150
 392	3.8904e+01	15.5755	45.561095	0.000345	3.446541	1.167720	0.000138
 393	3.9004e+01	15.6076	45.674135	0.000284	2.838328	0.961651	0.000114
 394	3.9103e+01	15.6573	45.799286	0.000314	3.142434	1.064686	0.000126
 395	3.9203e+01	15.6894	45.956735	0.000395	3.953385	1.339443	0.000158
 396	3.9303e+01	15.7391	46.061700	0.000264	2.635590	0.892962	0.000105
 397	3.9402e+01	15.7760	46.182814	0.000304	3.041065	1.030341	0.000122
 398	3.9502e+01	15.8001	46.332188	0.000375	3.750647	1.270754	0.000150
 399	3.9601e+01	15.8482	46.392745	0.000152	1.520533	0.515170	0.000061
 400	3.9700e+01	15.8899	46.530008	0.000345	3.446541	1.167720	0.000138
 401	3.9800e+01	15.9397	46.679382	0.000375	3.750647	1.270754	0.000150
 402	3.9900e+01	15.9685	46.772236	0.000233	2.331483	0.789928	0.000093
 403	3.9999e+01	16.0151	46.957944	0.000466	4.662967	1.579856	0.000187
 404	4.0099e+01	16.0536	47.066947	0.000274	2.736959	0.927307	0.000110
 405	4.0198e+01	16.0872	47.208247	0.000355	3.547910	1.202064	0.000142
 406	4.0297e+01	16.1354	47.313212	0.000264	2.635590	0.892962	0.000105
 407	4.0397e+01	16.1755	47.462586	0.000375	3.750647	1.270754	0.000150
 408	4.0496e+01	16.2076	47.555440	0.000233	2.331483	0.789928	0.000093
 409	4.0596e+01	16.2509	47.720963	0.000416	4.156123	1.408133	0.000166
 410	4.0696e+01	16.2830	47.829966	0.000274	2.736959	0.927307	0.000110
 411	4.0795e+01	16.3279	47.934931	0.000264	2.635590	0.892962	0.000105
 412	4.0895e+01	16.3664	48.092379	0.000395	3.953385	1.339443	0.000158
 413	4.0994e+01	16.4145	48.205419	0.000284	2.838328	0.961651	0.000114
 414	4.1093e+01	16.4562	48.314422	0.000274	2.736959	0.927307	0.000110
 415	4.1193e+01	16.4899	48.443610	0.000324	3.243803	1.099030	0.000130
 416	4.1292e+01	16.5412	48.564724	0.000304	3.041065	1.030341	0.000122
 417	4.1392e+01	16.5701	48.689876	0.000314	3.142434	1.064686	0.000126
 418	4.1492e+01	16.6150	48.790804	0.000253	2.534221	0.858617	0.000101
 419	4.1591e+01	16.6487	48.903844	0.000284	2.838328	0.961651	0.000114
 420	4.1691e+01	16.6856	49.057255	0.000385	3.852016	1.305098	0.000154
 421	4.1790e+01	16.7241	49.170295	0.000284	2.838328	0.961651	0.000114
 422	4.1889e+01	16.7658	49.319669	0.000375	3.750647	1.270754	0.000150
 423	4.1989e+01	16.8092	49.469043	0.000375	3.750647	1.270754	0.000150
 424	4.2089e+01	16.8477	49.561897	0.000233	2.331483	0.789928	0.000093
 425	4.2188e+01	16.8926	49.719345	0.000395	3.953385	1.339443	0.000158
 426	4.2288e+01	16.9214	49.844496	0.000314	3.142434	1.064686	0.000126
 427	4.2387e+01	16.9664	49.973685	0.000324	3.243803	1.099030	0.000130
 428	4.2486e+01	17.0081	50.090762	0.000294	2.939697	0.995996	0.000118
 429	4.2586e+01	17.0482	50.187653	0.000243	2.432852	0.824273	0.000097
 430	4.2685e+01	17.0867	50.349138	0.000405	4.054754	1.373788	0.000162
 431	4.2785e+01	17.1268	50.466215	0.000294	2.939697	0.995996	0.000118
 432	4.2885e+01	17.1733	50.607515	0.000355	3.547910	1.202064	0.000142
 433	4.2984e+01	17.2006	50.740741	0.000335	3.345172	1.133375	0.000134
 434	4.3084e+01	17.2407	50.813409	0.000182	1.824639	0.618205	0.000073
 435	4.3183e+01	17.2920	50.995080	0.000456	4.561598	1.545511	0.000183
 436	4.3282e+01	17.3289	51.051600	0.000142	1.419164	0.480826	0.000057
 437	4.3382e+01	17.3706	51.164640	0.000284	2.838328	0.961651	0.000114
 438	4.3481e+01	17.4059	51.241345	0.000193	1.926008	0.652549	0.000077
 439	4.3581e+01	17.4380	51.447239	0.000517	5.169811	1.751579	0.000207
 440	4.3681e+01	17.4974	51.576428	0.000324	3.243803	1.099030	0.000130
 441	4.3780e+01	17.5391	51.705616	0.000324	3.243803	1.099030	0.000130
 442	4.3880e+01	17.5728	51.814619	0.000274	2.736959	0.927307	0.000110
 443	4.3979e+01	17.5984	51.955918	0.000355	3.547910	1.202064	0.000142
 444	4.4078e+01	17.6466	52.068958	0.000284	2.838328	0.961651	0.000114
 445	4.4178e+01	17.6947	52.165849	0.000243	2.432852	0.824273	0.000097
 446	4.4278e+01	17.7332	52.307149	0.000355	3.547910	1.202064	0.000142
 447	4.4377e+01	17.7749	52.440375	0.000335	3.345172	1.133375	0.000134
 448	4.4477e+01	17.8118	52.541303	0.000253	2.534221	0.858617	0.000101
 449	4.4576e+01	17.8503	52.686640	0.000365	3.649279	1.236409	0.000146
 450	4.4675e+01	17.8904	52.807754	0.000304	3.041065	1.030341	0.000122
 451	4.4775e+01	17.9321	52.888497	0.000203	2.027377	0.686894	0.000081
 452	4.4874e+01	17.9674	52.989425	0.000253	2.534221	0.858617	0.000101
 453	4.4974e+01	18.0043	53.150911	0.000405	4.054754	1.373788	0.000162
 454	4.5074e+01	18.0476	53.284136	0.000335	3.345172	1.133375	0.000134
 455	4.5173e+01	18.0925	53.385064	0.000253	2.534221	0.858617	0.000101
 456	4.5273e+01	18.1262	53.473881	0.000223	2.230115	0.755583	0.000089
 457	4.5372e+01	18.1679	53.558661	0.000213	2.128746	0.721239	0.000085
 458	4.5471e+01	18.2064	53.712072	0.000385	3.852016	1.305098	0.000154
 459	4.5571e+01	18.2433	53.853372	0.000355	3.547910	1.202064	0.000142
 460	4.5670e+01	18.2818	53.990635	0.000345	3.446541	1.167720	0.000138
 461	4.5770e+01	18.3396	54.135972	0.000365	3.649279	1.236409	0.000146
 462	4.5870e+01	18.3653	54.269197	0.000335	3.345172	1.133375	0.000134
 463	4.5969e+01	18.4086	54.349940	0.000203	2.027377	0.686894	0.000081
 464	4.6069e+01	18.4455	54.511425	0.000405	4.054754	1.373788	0.000162
 465	4.6168e+01	18.4824	54.640614	0.000324	3.243803	1.099030	0.000130
 466	4.6267e+01	18.5273	54.713282	0.000182	1.824639	0.618205	0.000073
 467	4.6367e+01	18.5674	54.846508	0.000335	3.345172	1.133375	0.000134
 468	4.6467e+01	18.6027	54.995882	0.000375	3.750647	1.270754	0.000150
 469	4.6566e+01	18.6492	55.068550	0.000182	1.824639	0.618205	0.000073
 470	4.6666e+01	18.6797	55.213887	0.000365	3.649279	1.236409	0.000146
 471	4.6765e+01	18.7262	55.335001	0.000304	3.041065	1.030341	0.000122
 472	4.6864e+01	18.7535	55.435929	0.000253	2.534221	0.858617	0.000101
 473	4.6964e+01	18.8048	55.512635	0.000193	1.926008	0.652549	0.000077
 474	4.7063e+01	18.8401	55.662009	0.000375	3.750647	1.270754	0.000150
 475	4.7163e+01	18.8786	55.754863	0.000233	2.331483	0.789928	0.000093
 476	4.7263e+01	18.9219	55.847717	0.000233	2.331483	0.789928	0.000093
 477	4.7362e+01	18.9572	55.989017	0.000355	3.547910	1.202064	0.000142
 478	4.7462e+01	19.0086	56.122242	0.000335	3.345172	1.133375	0.000134
 479	4.7561e+01	19.0390	56.259505	0.000345	3.446541	1.167720	0.000138
 480	4.7660e+01	19.0856	56.408879	0.000375	3.750647	1.270754	0.000150
 481	4.7760e+01	19.1289	56.473473	0.000162	1.621902	0.549515	0.000065
 482	4.7859e+01	19.1706	56.630922	0.000395	3.953385	1.339443	0.000158
 483	4.7959e+01	19.1979	56.691479	0.000152	1.520533	0.515170	0.000061
 484	4.8059e+01	19.2444	56.869113	0.000446	4.460229	1.511167	0.000179
 485	4.8158e+01	19.2700	56.970041	0.000253	2.534221	0.858617	0.000101
 486	4.8258e+01	19.3198	57.066932	0.000243	2.432852	0.824273	0.000097
 487	4.8357e+01	19.3583	57.208232	0.000355	3.547910	1.202064	0.000142
 488	4.8456e+01	19.4000	57.329346	0.000304	3.041065	1.030341	0.000122
 489	4.8556e+01	19.4353	57.418163	0.000223	2.230115	0.755583	0.000089
 490	4.8656e+01	19.4818	57.559463	0.000355	3.547910	1.202064	0.000142
 491	4.8755e+01	19.5251	57.644243	0.000213	2.128746	0.721239	0.000085
 492	4.8855e+01	19.5572	57.769394	0.000314	3.142434	1.064686	0.000126
 493	4.8954e+01	19.5989	57.886471	0.000294	2.939697	0.995996	0.000118
 494	4.9053e+01	19.6406	57.983362	0.000243	2.432852	0.824273	0.000097
 495	4.9153e+01	19.6775	58.076216	0.000233	2.331483	0.789928	0.000093
 496	4.9252e+01	19.7176	58.229627	0.000385	3.852016	1.305098	0.000154
 497	4.9352e+01	19.7609	58.366890	0.000345	3.446541	1.167720	0.000138
 498	4.9452e+01	19.7914	58.496078	0.000324	3.243803	1.099030	0.000130
 499	4.9551e+01	19.8347	58.605081	0.000274	2.736959	0.927307	0.000110
 500	4.9651e+01	19.8813	58.730232	0.000314	3.142434	1.064686	0.000126
 501	4.9750e+01	19.9182	58.867495	0.000345	3.446541	1.167720	0.000138
 502	4.9849e+01	19.9583	58.960349	0.000233	2.331483	0.789928	0.000093
 503	4.9949e+01	19.9936	59.077426	0.000294	2.939697	0.995996	0.000118
 504	5.0048e+01	19.9551	59.028980	0.000122	1.216426	0.412136	-0.000049
 505	5.0148e+01	19.9166	58.887680	0.000355	3.547910	1.202064	-0.000142
 506	5.0248e+01	19.8797	58.778678	0.000274	2.736959	0.927307	-0.000110
 507	5.0347e+01	19.8379	58.669675	0.000274	2.736959	0.927307	-0.000110
 508	5.0447e+01	19.7994	58.580858	0.000223	2.230115	0.755583	-0.000089
 509	5.0546e+01	19.7577	58.492041	0.000223	2.230115	0.755583	-0.000089
 510	5.0645e+01	19.7256	58.350741	0.000355	3.547910	1.202064	-0.000142
 511	5.0745e+01	19.6711	58.265962	0.000213	2.128746	0.721239	-0.000085
 512	5.0844e+01	19.6374	58.112550	0.000385	3.852016	1.305098	-0.000154
 513	5.0944e+01	19.6005	57.983362	0.000324	3.243803	1.099030	-0.000130
 514	5.1044e+01	19.5620	57.878397	0.000264	2.635590	0.892962	-0.000105
 515	5.1143e+01	19.5235	57.817839	0.000152	1.520533	0.515170	-0.000061
 516	5.1242e+01	19.4738	57.720948	0.000243	2.432852	0.824273	-0.000097
 517	5.1342e+01	19.4385	57.636168	0.000213	2.128746	0.721239	-0.000085
 518	5.1441e+01	19.4032	57.494869	0.000355	3.547910	1.202064	-0.000142
 519	5.1541e+01	19.3599	57.418163	0.000193	1.926008	0.652549	-0.000077
 520	5.1641e+01	19.3214	57.333383	0.000213	2.128746	0.721239	-0.000085
 521	5.1740e+01	19.2668	57.224381	0.000274	2.736959	0.927307	-0.000110
 522	5.1840e+01	19.2396	57.123452	0.000253	2.534221	0.858617	-0.000101
 523	5.1939e+01	19.2043	57.018487	0.000264	2.635590	0.892962	-0.000105
 524	5.2038e+01	19.1626	56.897373	0.000304	3.041065	1.030341	-0.000122
 525	5.2138e+01	19.1080	56.796444	0.000253	2.534221	0.858617	-0.000101
 526	5.2237e+01	19.0840	56.683404	0.000284	2.838328	0.961651	-0.000114
 527	5.2337e+01	19.0471	56.594587	0.000223	2.230115	0.755583	-0.000089
 528	5.2437e+01	19.0021	56.481548	0.000284	2.838328	0.961651	-0.000114
 529	5.2536e+01	18.9604	56.388693	0.000233	2.331483	0.789928	-0.000093
 530	5.2636e+01	18.9219	56.275654	0.000284	2.838328	0.961651	-0.000114
 531	5.2735e+01	18.8834	56.154540	0.000304	3.041065	1.030341	-0.000122
 532	5.2834e+01	18.8417	56.025351	0.000324	3.243803	1.099030	-0.000130
 533	5.2934e+01	18.8032	55.884051	0.000355	3.547910	1.202064	-0.000142
 534	5.3033e+01	18.7615	55.799272	0.000213	2.128746	0.721239	-0.000085
 535	5.3133e+01	18.7214	55.742752	0.000142	1.419164	0.480826	-0.000057
 536	5.3233e+01	18.6749	55.617600	0.000314	3.142434	1.064686	-0.000126
 537	5.3332e+01	18.6396	55.516672	0.000253	2.534221	0.858617	-0.000101
 538	5.3431e+01	18.6091	55.411707	0.000264	2.635590	0.892962	-0.000105
 539	5.3531e+01	18.5562	55.318852	0.000233	2.331483	0.789928	-0.000093
 540	5.3630e+01	18.5225	55.185627	0.000335	3.345172	1.133375	-0.000134
 541	5.3730e+01	18.4808	55.092773	0.000233	2.331483	0.789928	-0.000093
 542	5.3830e+01	18.4326	54.955510	0.000345	3.446541	1.167720	-0.000138
 543	5.3929e+01	18.4054	54.898990	0.000142	1.419164	0.480826	-0.000057
 544	5.4029e+01	18.3653	54.769802	0.000324	3.243803	1.099030	-0.000130
 545	5.4128e+01	18.3235	54.648688	0.000304	3.041065	1.030341	-0.000122
 546	5.4227e+01	18.2866	54.527574	0.000304	3.041065	1.030341	-0.000122
 547	5.4327e+01	18.2369	54.446831	0.000203	2.027377	0.686894	-0.000081
 548	5.4426e+01	18.2032	54.341866	0.000264	2.635590	0.892962	-0.000105
 549	5.4526e+01	18.1695	54.212677	0.000324	3.243803	1.099030	-0.000130
 550	5.4626e+01	18.1310	54.115786	0.000243	2.432852	0.824273	-0.000097
 551	5.4725e+01	18.0877	53.938152	0.000446	4.460229	1.511167	-0.000179
 552	5.4825e+01	18.0492	53.877595	0.000152	1.520533	0.515170	-0.000061
 553	5.4924e+01	18.0027	53.804927	0.000182	1.824639	0.618205	-0.000073
 554	5.5023e+01	17.9722	53.679775	0.000314	3.142434	1.064686	-0.000126
 555	5.5123e+01	17.9289	53.599033	0.000203	2.027377	0.686894	-0.000081
 556	5.5222e+01	17.8872	53.473881	0.000314	3.142434	1.064686	-0.000126
 557	5.5322e+01	17.8455	53.356804	0.000294	2.939697	0.995996	-0.000118
 558	5.5422e+01	17.7990	53.272025	0.000213	2.128746	0.721239	-0.000085
 559	5.5521e+01	17.7669	53.191282	0.000203	2.027377	0.686894	-0.000081
 560	5.5620e+01	17.7236	53.058056	0.000335	3.345172	1.133375	-0.000134
 561	5.5720e+01	17.6915	52.961165	0.000243	2.432852	0.824273	-0.000097
 562	5.5819e+01	17.6482	52.836014	0.000314	3.142434	1.064686	-0.000126
 563	5.5919e+01	17.6113	52.743160	0.000233	2.331483	0.789928	-0.000093
 564	5.6019e+01	17.5696	52.650306	0.000233	2.331483	0.789928	-0.000093
 565	5.6118e+01	17.5327	52.549377	0.000253	2.534221	0.858617	-0.000101
 566	5.6218e+01	17.4813	52.383855	0.000416	4.156123	1.408133	-0.000166
 567	5.6317e+01	17.4412	52.307149	0.000193	1.926008	0.652549	-0.000077
 568	5.6416e+01	17.4107	52.218332	0.000223	2.230115	0.755583	-0.000089
 569	5.6516e+01	17.3738	52.048773	0.000426	4.257492	1.442477	-0.000170
 570	5.6615e+01	17.3305	51.947844	0.000253	2.534221	0.858617	-0.000101
 571	5.6715e+01	17.2824	51.802507	0.000365	3.649279	1.236409	-0.000146
 572	5.6815e+01	17.2439	51.729839	0.000182	1.824639	0.618205	-0.000073
 573	5.6914e+01	17.2086	51.616799	0.000284	2.838328	0.961651	-0.000114
 574	5.7014e+01	17.1733	51.568353	0.000122	1.216426	0.412136	-0.000049
 575	5.7113e+01	17.1268	51.431091	0.000345	3.446541	1.167720	-0.000138
 576	5.7212e+01	17.0883	51.330162	0.000253	2.534221	0.858617	-0.000101
 577	5.7312e+01	17.0482	51.225197	0.000264	2.635590	0.892962	-0.000105
 578	5.7411e+01	17.0129	51.120231	0.000264	2.635590	0.892962	-0.000105
 579	5.7511e+01	16.9648	51.003154	0.000294	2.939697	0.995996	-0.000118
 580	5.7611e+01	16.9295	50.865892	0.000345	3.446541	1.167720	-0.000138
 581	5.7710e+01	16.8862	50.777075	0.000223	2.230115	0.755583	-0.000089
 582	5.7809e+01	16.8380	50.643849	0.000335	3.345172	1.133375	-0.000134
 583	5.7909e+01	16.8075	50.571181	0.000182	1.824639	0.618205	-0.000073
 584	5.8008e+01	16.7658	50.486401	0.000213	2.128746	0.721239	-0.000085
 585	5.8108e+01	16.7338	50.328953	0.000395	3.953385	1.339443	-0.000158
 586	5.8208e+01	16.6953	50.248210	0.000203	2.027377	0.686894	-0.000081
 587	5.8307e+01	16.6648	50.135170	0.000284	2.838328	0.961651	-0.000114
 588	5.8407e+01	16.6199	49.981759	0.000385	3.852016	1.305098	-0.000154
 589	5.8506e+01	16.5653	49.905053	0.000193	1.926008	0.652549	-0.000077
 590	5.8605e+01	16.5316	49.792014	0.000284	2.838328	0.961651	-0.000114
 591	5.8705e+01	16.4835	49.638602	0.000385	3.852016	1.305098	-0.000154
 592	5.8804e+01	16.4594	49.513451	0.000314	3.142434	1.064686	-0.000126
 593	5.8904e+01	16.4177	49.481154	0.000081	0.810951	0.274758	-0.000032
 594	5.9004e+01	16.3632	49.364077	0.000294	2.939697	0.995996	-0.000118
 595	5.9103e+01	16.3295	49.222777	0.000355	3.547910	1.202064	-0.000142
 596	5.9203e+01	16.3006	49.097626	0.000314	3.142434	1.064686	-0.000126
 597	5.9302e+01	16.2557	49.041106	0.000142	1.419164	0.480826	-0.000057
 598	5.9401e+01	16.2156	48.915955	0.000314	3.142434	1.064686	-0.000126
 599	5.9501e+01	16.1691	48.823101	0.000233	2.331483	0.789928	-0.000093
 600	5.9600e+01	16.1306	48.706024	0.000294	2.939697	0.995996	-0.000118
 601	5.9700e+01	16.0905	48.564724	0.000355	3.547910	1.202064	-0.000142
 602	5.9800e+01	16.0568	48.455722	0.000274	2.736959	0.927307	-0.000110
 603	5.9899e+01	16.0135	48.366905	0.000223	2.230115	0.755583	-0.000089
 604	5.9998e+01	15.9733	48.245791	0.000304	3.041065	1.030341	-0.000122
 605	6.0098e+01	15.9397	48.108528	0.000345	3.446541	1.167720	-0.000138
 606	6.0197e+01	15.8883	48.027785	0.000203	2.027377	0.686894	-0.000081
 607	6.0297e+01	15.8594	47.882448	0.000365	3.649279	1.236409	-0.000146
 608	6.0397e+01	15.8097	47.817854	0.000162	1.621902	0.549515	-0.000065
 609	6.0496e+01	15.7824	47.668480	0.000375	3.750647	1.270754	-0.000150
 610	6.0596e+01	15.7391	47.527180	0.000355	3.547910	1.202064	-0.000142
 611	6.0695e+01	15.6958	47.393955	0.000335	3.345172	1.133375	-0.000134
 612	6.0794e+01	15.6605	47.305138	0.000223	2.230115	0.755583	-0.000089
 613	6.0894e+01	15.6124	47.232470	0.000182	1.824639	0.618205	-0.000073
 614	6.0993e+01	15.5771	47.075021	0.000395	3.953385	1.339443	-0.000158
 615	6.1093e+01	15.5418	46.990241	0.000213	2.128746	0.721239	-0.000085
 616	6.1193e+01	15.5001	46.897387	0.000233	2.331483	0.789928	-0.000093
 617	6.1292e+01	15.4520	46.731865	0.000416	4.156123	1.408133	-0.000166
 618	6.1392e+01	15.4199	46.639011	0.000233	2.331483	0.789928	-0.000093
 619	6.1491e+01	15.3798	46.538082	0.000253	2.534221	0.858617	-0.000101
 620	6.1590e+01	15.3397	46.388708	0.000375	3.750647	1.270754	-0.000150
 621	6.1690e+01	15.2915	46.271631	0.000294	2.939697	0.995996	-0.000118
 622	6.1789e+01	15.2546	46.178777	0.000233	2.331483	0.789928	-0.000093
 623	6.1889e+01	15.2145	46.037477	0.000355	3.547910	1.202064	-0.000142
 624	6.1989e+01	15.1696	45.960772	0.000193	1.926008	0.652549	-0.000077
 625	6.2088e+01	15.1295	45.803324	0.000395	3.953385	1.339443	-0.000158
 626	6.2188e+01	15.0926	45.690284	0.000284	2.838328	0.961651	-0.000114
 627	6.2287e+01	15.0557	45.617615	0.000182	1.824639	0.618205	-0.000073
 628	6.2386e+01	15.0124	45.464204	0.000385	3.852016	1.305098	-0.000154
 629	6.2486e+01	14.9851	45.306756	0.000395	3.953385	1.339443	-0.000158
 630	6.2586e+01	14.9354	45.161419	0.000365	3.649279	1.236409	-0.000146
 631	6.2685e+01	14.8905	45.088750	0.000182	1.824639	0.618205	-0.000073
 632	6.2785e+01	14.8616	45.032231	0.000142	1.419164	0.480826	-0.000057
 633	6.2884e+01	14.8135	44.878819	0.000385	3.852016	1.305098	-0.000154
 634	6.2983e+01	14.7702	44.781928	0.000243	2.432852	0.824273	-0.000097
 635	6.3083e+01	14.7349	44.624480	0.000395	3.953385	1.339443	-0.000158
 636	6.3182e+01	14.6900	44.519514	0.000264	2.635590	0.892962	-0.000105
 637	6.3282e+01	14.6579	44.390326	0.000324	3.243803	1.099030	-0.000130
 638	6.3382e+01	14.6130	44.317658	0.000182	1.824639	0.618205	-0.000073
 639	6.3481e+01	14.5825	44.196543	0.000304	3.041065	1.030341	-0.000122
 640	6.3581e+01	14.5456	44.075429	0.000304	3.041065	1.030341	-0.000122
 641	6.3680e+01	14.4991	43.934130	0.000355	3.547910	1.202064	-0.000142
 642	6.3779e+01	14.4573	43.845313	0.000223	2.230115	0.755583	-0.000089
 643	6.3879e+01	14.4108	43.699976	0.000365	3.649279	1.236409	-0.000146
 644	6.3978e+01	14.3771	43.542528	0.000395	3.953385	1.339443	-0.000158
 645	6.4078e+01	14.3386	43.425451	0.000294	2.939697	0.995996	-0.000118
 646	6.4177e+01	14.3017	43.348745	0.000193	1.926008	0.652549	-0.000077
 647	6.4277e+01	14.2632	43.203408	0.000365	3.649279	1.236409	-0.000146
 648	6.4376e+01	14.2135	43.090368	0.000284	2.838328	0.961651	-0.000114
 649	6.4476e+01	14.1766	42.945031	0.000365	3.649279	1.236409	-0.000146
 650	6.4576e+01	14.1445	42.856214	0.000223	2.230115	0.755583	-0.000089
 651	6.4675e+01	14.1012	42.739137	0.000294	2.939697	0.995996	-0.000118
 652	6.4775e+01	14.0563	42.601875	0.000345	3.446541	1.167720	-0.000138
 653	6.4874e+01	14.0258	42.472687	0.000324	3.243803	1.099030	-0.000130
 654	6.4974e+01	13.9889	42.371758	0.000253	2.534221	0.858617	-0.000101
 655	6.5073e+01	13.9440	42.238533	0.000335	3.345172	1.133375	-0.000134
 656	6.5172e+01	13.9023	42.129530	0.000274	2.736959	0.927307	-0.000110
 657	6.5272e+01	13.8574	42.064936	0.000162	1.621902	0.549515	-0.000065
 658	6.5371e+01	13.8221	41.871153	0.000487	4.865705	1.648545	-0.000195
 659	6.5471e+01	13.7852	41.798485	0.000182	1.824639	0.618205	-0.000073
 660	6.5570e+01	13.7435	41.669297	0.000324	3.243803	1.099030	-0.000130
 661	6.5670e+01	13.7034	41.552220	0.000294	2.939697	0.995996	-0.000118
 662	6.5769e+01	13.6633	41.390734	0.000405	4.054754	1.373788	-0.000162
 663	6.5869e+01	13.6231	41.297880	0.000233	2.331483	0.789928	-0.000093
 664	6.5969e+01	13.5879	41.176766	0.000304	3.041065	1.030341	-0.000122
 665	6.6068e+01	13.5429	41.059689	0.000294	2.939697	0.995996	-0.000118
 666	6.6168e+01	13.4996	40.926464	0.000335	3.345172	1.133375	-0.000134
 667	6.6267e+01	13.4691	40.813424	0.000284	2.838328	0.961651	-0.000114
 668	6.6367e+01	13.4242	40.696347	0.000294	2.939697	0.995996	-0.000118
 669	6.6466e+01	13.3841	40.538899	0.000395	3.953385	1.339443	-0.000158
 670	6.6566e+01	13.3376	40.454119	0.000213	2.128746	0.721239	-0.000085
 671	6.6665e+01	13.2959	40.308782	0.000365	3.649279	1.236409	-0.000146
 672	6.6764e+01	13.2622	40.183631	0.000314	3.142434	1.064686	-0.000126
 673	6.6864e+01	13.2157	40.098851	0.000213	2.128746	0.721239	-0.000085
 674	6.6963e+01	13.1868	39.957551	0.000355	3.547910	1.202064	-0.000142
 675	6.7063e+01	13.1419	39.852585	0.000264	2.635590	0.892962	-0.000105
 676	6.7162e+01	13.1082	39.743583	0.000274	2.736959	0.927307	-0.000110
 677	6.7262e+01	13.0585	39.582097	0.000405	4.054754	1.373788	-0.000162
 678	6.7362e+01	13.0151	39.489243	0.000233	2.331483	0.789928	-0.000093
 679	6.7461e+01	12.9863	39.347943	0.000355	3.547910	1.202064	-0.000142
 680	6.7561e+01	12.9381	39.226829	0.000304	3.041065	1.030341	-0.000122
 681	6.7660e+01	12.9109	39.085530	0.000355	3.547910	1.202064	-0.000142
 682	6.7760e+01	12.8692	38.964416	0.000304	3.041065	1.030341	-0.000122
 683	6.7859e+01	12.8307	38.847339	0.000294	2.939697	0.995996	-0.000118
 684	6.7959e+01	12.7889	38.718150	0.000324	3.243803	1.099030	-0.000130
 685	6.8058e+01	12.7280	38.617222	0.000253	2.534221	0.858617	-0.000101
 686	6.8157e+01	12.7103	38.532442	0.000213	2.128746	0.721239	-0.000085
 687	6.8257e+01	12.6654	38.431514	0.000253	2.534221	0.858617	-0.000101
 688	6.8356e+01	12.6173	38.286177	0.000365	3.649279	1.236409	-0.000146
 689	6.8456e+01	12.5884	38.132766	0.000385	3.852016	1.305098	-0.000154
 690	6.8555e+01	12.5483	38.052023	0.000203	2.027377	0.686894	-0.000081
 691	6.8655e+01	12.5082	37.894575	0.000395	3.953385	1.339443	-0.000158
 692	6.8754e+01	12.4665	37.785572	0.000274	2.736959	0.927307	-0.000110
 693	6.8854e+01	12.4264	37.672532	0.000284	2.838328	0.961651	-0.000114
 694	6.8954e+01	12.3863	37.523158	0.000375	3.750647	1.270754	-0.000150
 695	6.9053e+01	12.3462	37.430304	0.000233	2.331483	0.789928	-0.000093
 696	6.9153e+01	12.3045	37.293041	0.000345	3.446541	1.167720	-0.000138
 697	6.9252e+01	12.2740	37.171927	0.000304	3.041065	1.030341	-0.000122
 698	6.9352e+01	12.2307	37.079073	0.000233	2.331483	0.789928	-0.000093
 699	6.9451e+01	12.1841	36.961996	0.000294	2.939697	0.995996	-0.000118
 700	6.9550e+01	12.1537	36.844919	0.000294	2.939697	0.995996	-0.000118
 701	6.9650e+01	12.1071	36.699582	0.000365	3.649279	1.236409	-0.000146
 702	6.9749e+01	12.0815	36.614803	0.000213	2.128746	0.721239	-0.000085
 703	6.9849e+01	12.0285	36.469466	0.000365	3.649279	1.236409	-0.000146
 704	6.9948e+01	11.9884	36.400834	0.000172	1.723270	0.583860	-0.000069
 705	7.0048e+01	11.9467	36.231275	0.000426	4.257492	1.442477	-0.000170
 706	7.0147e+01	11.9130	36.154569	0.000193	1.926008	0.652549	-0.000077
 707	7.0247e+01	11.8649	35.997121	0.000395	3.953385	1.339443	-0.000158
 708	7.0347e+01	11.8264	35.880044	0.000294	2.939697	0.995996	-0.000118
 709	7.0446e+01	11.7831	35.771041	0.000274	2.736959	0.927307	-0.000110
 710	7.0546e+01	11.7414	35.629741	0.000355	3.547910	1.202064	-0.000142
 711	7.0645e+01	11.7205	35.532850	0.000243	2.432852	0.824273	-0.000097
 712	7.0745e+01	11.6804	35.431922	0.000253	2.534221	0.858617	-0.000101
 713	7.0844e+01	11.6307	35.286585	0.000365	3.649279	1.236409	-0.000146
 714	7.0944e+01	11.5874	35.157397	0.000324	3.243803	1.099030	-0.000130
 715	7.1043e+01	11.5537	35.048394	0.000274	2.736959	0.927307	-0.000110
 716	7.1142e+01	11.5007	34.927280	0.000304	3.041065	1.030341	-0.000122
 717	7.1242e+01	11.4719	34.822314	0.000264	2.635590	0.892962	-0.000105
 718	7.1341e+01	11.4398	34.689089	0.000335	3.345172	1.133375	-0.000134
 719	7.1441e+01	11.3917	34.584123	0.000264	2.635590	0.892962	-0.000105
 720	7.1540e+01	11.3516	34.467046	0.000294	2.939697	0.995996	-0.000118
 721	7.1640e+01	11.3179	34.313635	0.000385	3.852016	1.305098	-0.000154
 722	7.1740e+01	11.2665	34.228855	0.000213	2.128746	0.721239	-0.000085
 723	7.1839e+01	11.2360	34.099667	0.000324	3.243803	1.099030	-0.000130
 724	7.1939e+01	11.1943	33.950293	0.000375	3.750647	1.270754	-0.000150
 725	7.2038e+01	11.1526	33.849365	0.000253	2.534221	0.858617	-0.000101
 726	7.2138e+01	11.1109	33.748436	0.000253	2.534221	0.858617	-0.000101
 727	7.2237e+01	11.0612	33.631359	0.000294	2.939697	0.995996	-0.000118
 728	7.2337e+01	11.0339	33.526394	0.000264	2.635590	0.892962	-0.000105
 729	7.2436e+01	10.9938	33.377020	0.000375	3.750647	1.270754	-0.000150
 730	7.2535e+01	10.9505	33.255906	0.000304	3.041065	1.030341	-0.000122
 731	7.2635e+01	10.9184	33.134792	0.000304	3.041065	1.030341	-0.000122
 732	7.2734e+01	10.8783	33.054049	0.000203	2.027377	0.686894	-0.000081
 733	7.2834e+01	10.8366	32.949083	0.000264	2.635590	0.892962	-0.000105
 734	7.2933e+01	10.7949	32.823932	0.000314	3.142434	1.064686	-0.000126
 735	7.3033e+01	10.7500	32.682632	0.000355	3.547910	1.202064	-0.000142
 736	7.3132e+01	10.7083	32.557481	0.000314	3.142434	1.064686	-0.000126
 737	7.3232e+01	10.6810	32.456553	0.000253	2.534221	0.858617	-0.000101
 738	7.3332e+01	10.6393	32.359662	0.000243	2.432852	0.824273	-0.000097
 739	7.3431e+01	10.6008	32.226436	0.000335	3.345172	1.133375	-0.000134
 740	7.3531e+01	10.5526	32.105322	0.000304	3.041065	1.030341	-0.000122
 741	7.3630e+01	10.5157	31.947874	0.000395	3.953385	1.339443	-0.000158
 742	7.3730e+01	10.4788	31.846945	0.000253	2.534221	0.858617	-0.000101
 743	7.3829e+01	10.4307	31.721794	0.000314	3.142434	1.064686	-0.000126
 744	7.3928e+01	10.4018	31.568383	0.000385	3.852016	1.305098	-0.000154
 745	7.4028e+01	10.3569	31.451306	0.000294	2.939697	0.995996	-0.000118
 746	7.4127e+01	10.3281	31.374600	0.000193	1.926008	0.652549	-0.000077
 747	7.4227e+01	10.2815	31.277709	0.000243	2.432852	0.824273	-0.000097
 748	7.4326e+01	10.2366	31.104112	0.000436	4.358860	1.476822	-0.000174
 749	7.4426e+01	10.1949	30.995110	0.000274	2.736959	0.927307	-0.000110
 750	7.4525e+01	10.1548	30.890144	0.000264	2.635590	0.892962	-0.000105
 751	7.4625e+01	10.1163	30.777104	0.000284	2.838328	0.961651	-0.000114
 752	7.4725e+01	10.0762	30.639842	0.000345	3.446541	1.167720	-0.000138
 753	7.4824e+01	10.0361	30.542950	0.000243	2.432852	0.824273	-0.000097
 754	7.4924e+01	9.9928	30.425873	0.000294	2.939697	0.995996	-0.000118
 755	7.5023e+01	9.9591	30.304759	0.000304	3.041065	1.030341	-0.000122
 756	7.5123e+01	9.9158	30.191720	0.000284	2.838328	0.961651	-0.000114
 757	7.5222e+01	9.8724	30.054457	0.000345	3.446541	1.167720	-0.000138
 758	7.5322e+01	9.8388	29.917194	0.000345	3.446541	1.167720	-0.000138
 759	7.5421e+01	9.7954	29.800117	0.000294	2.939697	0.995996	-0.000118
 760	7.5520e+01	9.7650	29.711300	0.000223	2.230115	0.755583	-0.000089
 761	7.5620e+01	9.7249	29.578075	0.000335	3.345172	1.133375	-0.000134
 762	7.5719e+01	9.6719	29.436775	0.000355	3.547910	1.202064	-0.000142
 763	7.5819e+01	9.6430	29.347958	0.000223	2.230115	0.755583	-0.000089
 764	7.5918e+01	9.6045	29.206658	0.000355	3.547910	1.202064	-0.000142
 765	7.6018e+01	9.5628	29.073433	0.000335	3.345172	1.133375	-0.000134
 766	7.6118e+01	9.5195	28.956356	0.000294	2.939697	0.995996	-0.000118
 767	7.6217e+01	9.4906	28.815056	0.000355	3.547910	1.202064	-0.000142
 768	7.6317e+01	9.4457	28.730276	0.000213	2.128746	0.721239	-0.000085
 769	7.6416e+01	9.4040	28.601088	0.000324	3.243803	1.099030	-0.000130
 770	7.6516e+01	9.3639	28.455751	0.000365	3.649279	1.236409	-0.000146
 771	7.6615e+01	9.3270	28.322526	0.000335	3.345172	1.133375	-0.000134
 772	7.6715e+01	9.2757	28.237746	0.000213	2.128746	0.721239	-0.000085
 773	7.6814e+01	9.2404	28.088372	0.000375	3.750647	1.270754	-0.000150
 774	7.6913e+01	9.2051	27.979369	0.000274	2.736959	0.927307	-0.000110
 775	7.7013e+01	9.1554	27.906701	0.000182	1.824639	0.618205	-0.000073
 776	7.7112e+01	9.1169	27.741178	0.000416	4.156123	1.408133	-0.000166
 777	7.7212e+01	9.0848	27.587767	0.000385	3.852016	1.305098	-0.000154
 778	7.7311e+01	9.0350	27.511061	0.000193	1.926008	0.652549	-0.000077
 779	7.7411e+01	9.0014	27.349576	0.000405	4.054754	1.373788	-0.000162
 780	7.7510e+01	8.9628	27.236536	0.000284	2.838328	0.961651	-0.000114
 781	7.7610e+01	8.9195	27.099274	0.000345	3.446541	1.167720	-0.000138
 782	7.7710e+01	8.8907	26.953937	0.000365	3.649279	1.236409	-0.000146
 783	7.7809e+01	8.8425	26.861083	0.000233	2.331483	0.789928	-0.000093
 784	7.7909e+01	8.8056	26.719783	0.000355	3.547910	1.202064	-0.000142
 785	7.8008e+01	8.7591	26.655189	0.000162	1.621902	0.549515	-0.000065
 786	7.8108e+01	8.7302	26.509852	0.000365	3.649279	1.236409	-0.000146
 787	7.8207e+01	8.6853	26.344329	0.000416	4.156123	1.408133	-0.000166
 788	7.8306e+01	8.6484	26.198992	0.000365	3.649279	1.236409	-0.000146
 789	7.8406e+01	8.5955	26.118250	0.000203	2.027377	0.686894	-0.000081
 790	7.8505e+01	8.5746	26.021358	0.000243	2.432852	0.824273	-0.000097
 791	7.8605e+01	8.5217	25.843724	0.000446	4.460229	1.511167	-0.000179
 792	7.8704e+01	8.4800	25.714536	0.000324	3.243803	1.099030	-0.000130
 793	7.8804e+01	8.4415	25.625719	0.000223	2.230115	0.755583	-0.000089
 794	7.8903e+01	8.4062	25.452122	0.000436	4.358860	1.476822	-0.000174
 795	7.9003e+01	8.3677	25.351194	0.000253	2.534221	0.858617	-0.000101
 796	7.9103e+01	8.3212	25.213931	0.000345	3.446541	1.167720	-0.000138
 797	7.9202e+01	8.2827	25.092817	0.000304	3.041065	1.030341	-0.000122
 798	7.9302e+01	8.2442	24.959592	0.000335	3.345172	1.133375	-0.000134
 799	7.9401e+01	8.2073	24.862700	0.000243	2.432852	0.824273	-0.000097
 800	7.9501e+01	8.1623	24.721401	0.000355	3.547910	1.202064	-0.000142
 801	7.9600e+01	8.1351	24.527618	0.000487	4.865705	1.648545	-0.000195
 802	7.9700e+01	8.0773	24.422653	0.000264	2.635590	0.892962	-0.000105
 803	7.9799e+01	8.0549	24.366133	0.000142	1.419164	0.480826	-0.000057
 804	7.9898e+01	8.0099	24.224833	0.000355	3.547910	1.202064	-0.000142
 805	7.9998e+01	7.9634	24.111793	0.000284	2.838328	0.961651	-0.000114
 806	8.0097e+01	7.9265	23.946271	0.000416	4.156123	1.408133	-0.000166
 807	8.0197e+01	7.8816	23.829194	0.000294	2.939697	0.995996	-0.000118
 808	8.0296e+01	7.8527	23.700005	0.000324	3.243803	1.099030	-0.000130
 809	8.0396e+01	7.7950	23.562743	0.000345	3.446541	1.167720	-0.000138
 810	8.0496e+01	7.7693	23.437592	0.000314	3.142434	1.064686	-0.000126
 811	8.0595e+01	7.7196	23.316477	0.000304	3.041065	1.030341	-0.000122
 812	8.0695e+01	7.6843	23.187289	0.000324	3.243803	1.099030	-0.000130
 813	8.0794e+01	7.6506	23.074249	0.000284	2.838328	0.961651	-0.000114
 814	8.0894e+01	7.6041	22.941024	0.000335	3.345172	1.133375	-0.000134
 815	8.0993e+01	7.5736	22.771464	0.000426	4.257492	1.442477	-0.000170
 816	8.1093e+01	7.5319	22.686684	0.000213	2.128746	0.721239	-0.000085
 817	8.1192e+01	7.4918	22.545385	0.000355	3.547910	1.202064	-0.000142
 818	8.1291e+01	7.4468	22.379862	0.000416	4.156123	1.408133	-0.000166
 819	8.1391e+01	7.4067	22.262785	0.000294	2.939697	0.995996	-0.000118
 820	8.1490e+01	7.3698	22.109374	0.000385	3.852016	1.305098	-0.000154
 821	8.1590e+01	7.3249	21.988260	0.000304	3.041065	1.030341	-0.000122
 822	8.1689e+01	7.2961	21.891369	0.000243	2.432852	0.824273	-0.000097
 823	8.1789e+01	7.2543	21.762180	0.000324	3.243803	1.099030	-0.000130
 824	8.1888e+01	7.2158	21.608769	0.000385	3.852016	1.305098	-0.000154
 825	8.1988e+01	7.1629	21.503804	0.000264	2.635590	0.892962	-0.000105
 826	8.2088e+01	7.1308	21.362504	0.000355	3.547910	1.202064	-0.000142
 827	8.2187e+01	7.0891	21.225241	0.000345	3.446541	1.167720	-0.000138
 828	8.2287e+01	7.0410	21.108164	0.000294	2.939697	0.995996	-0.000118
 829	8.2386e+01	7.0153	20.987050	0.000304	3.041065	1.030341	-0.000122
 830	8.2486e+01	6.9736	20.841713	0.000365	3.649279	1.236409	-0.000146
 831	8.2585e+01	6.9287	20.732711	0.000274	2.736959	0.927307	-0.000110
 832	8.2684e+01	6.8902	20.599485	0.000335	3.345172	1.133375	-0.000134
 833	8.2784e+01	6.8437	20.442037	0.000395	3.953385	1.339443	-0.000158
 834	8.2883e+01	6.8100	20.308811	0.000335	3.345172	1.133375	-0.000134
 835	8.2983e+01	6.7683	20.187697	0.000304	3.041065	1.030341	-0.000122
 836	8.3082e+01	6.7217	20.058509	0.000324	3.243803	1.099030	-0.000130
 837	8.3182e+01	6.6961	19.929321	0.000324	3.243803	1.099030	-0.000130
 838	8.3281e+01	6.6560	19.816281	0.000284	2.838328	0.961651	-0.000114
 839	8.3381e+01	6.6078	19.650758	0.000416	4.156123	1.408133	-0.000166
 840	8.3481e+01	6.5741	19.549830	0.000253	2.534221	0.858617	-0.000101
 841	8.3580e+01	6.5196	19.432753	0.000294	2.939697	0.995996	-0.000118
 842	8.3680e+01	6.4955	19.299527	0.000335	3.345172	1.133375	-0.000134
 843	8.3779e+01	6.4618	19.150153	0.000375	3.750647	1.270754	-0.000150
 844	8.3879e+01	6.4185	19.057299	0.000233	2.331483	0.789928	-0.000093
 845	8.3978e+01	6.3704	18.903888	0.000385	3.852016	1.305098	-0.000154
 846	8.4078e+01	6.3303	18.746440	0.000395	3.953385	1.339443	-0.000158
 847	8.4177e+01	6.2950	18.665697	0.000203	2.027377	0.686894	-0.000081
 848	8.4276e+01	6.2629	18.492100	0.000436	4.358860	1.476822	-0.000174
 849	8.4376e+01	6.2132	18.391172	0.000253	2.534221	0.858617	-0.000101
 850	8.4475e+01	6.1747	18.233724	0.000395	3.953385	1.339443	-0.000158
 851	8.4575e+01	6.1298	18.088387	0.000365	3.649279	1.236409	-0.000146
 852	8.4674e+01	6.0897	18.003607	0.000213	2.128746	0.721239	-0.000085
 853	8.4774e+01	6.0512	17.870381	0.000335	3.345172	1.133375	-0.000134
 854	8.4874e+01	6.0111	17.725044	0.000365	3.649279	1.236409	-0.000146
 855	8.4973e+01	5.9806	17.628153	0.000243	2.432852	0.824273	-0.000097
 856	8.5073e+01	5.9341	17.523188	0.000264	2.635590	0.892962	-0.000105
 857	8.5172e+01	5.9004	17.321331	0.000507	5.068442	1.717235	-0.000203
 858	8.5272e+01	5.8587	17.188105	0.000335	3.345172	1.133375	-0.000134
 859	8.5371e+01	5.8121	17.099288	0.000223	2.230115	0.755583	-0.000089
 860	8.5471e+01	5.7801	16.982211	0.000294	2.939697	0.995996	-0.000118
 861	8.5570e+01	5.7448	16.832837	0.000375	3.750647	1.270754	-0.000150
 862	8.5669e+01	5.6838	16.699612	0.000335	3.345172	1.133375	-0.000134
 863	8.5769e+01	5.6597	16.590609	0.000274	2.736959	0.927307	-0.000110
 864	8.5868e+01	5.6116	16.437198	0.000385	3.852016	1.305098	-0.000154
 865	8.5968e+01	5.5747	16.316084	0.000304	3.041065	1.030341	-0.000122
 866	8.6067e+01	5.5282	16.182859	0.000335	3.345172	1.133375	-0.000134
 867	8.6167e+01	5.4929	16.098079	0.000213	2.128746	0.721239	-0.000085
 868	8.6266e+01	5.4576	15.928519	0.000426	4.257492	1.442477	-0.000170
 869	8.6366e+01	5.4159	15.819516	0.000274	2.736959	0.927307	-0.000110
 870	8.6466e+01	5.3790	15.682254	0.000345	3.446541	1.167720	-0.000138
 871	8.6565e+01	5.3325	15.573251	0.000274	2.736959	0.927307	-0.000110
 872	8.6665e+01	5.2972	15.407729	0.000416	4.156123	1.408133	-0.000166
 873	8.6764e+01	5.2587	15.290652	0.000294	2.939697	0.995996	-0.000118
 874	8.6864e+01	5.2154	15.177612	0.000284	2.838328	0.961651	-0.000114
 875	8.6963e+01	5.1769	15.028238	0.000375	3.750647	1.270754	-0.000150
 876	8.7063e+01	5.1432	14.955569	0.000182	1.824639	0.618205	-0.000073
 877	8.7162e+01	5.0999	14.781973	0.000436	4.358860	1.476822	-0.000174
 878	8.7261e+01	5.0565	14.660858	0.000304	3.041065	1.030341	-0.000122
 879	8.7361e+01	5.0180	14.547819	0.000284	2.838328	0.961651	-0.000114
 880	8.7460e+01	4.9827	14.426705	0.000304	3.041065	1.030341	-0.000122
 881	8.7560e+01	4.9314	14.285405	0.000355	3.547910	1.202064	-0.000142
 882	8.7659e+01	4.9057	14.164291	0.000304	3.041065	1.030341	-0.000122
 883	8.7759e+01	4.8608	14.027028	0.000345	3.446541	1.167720	-0.000138
 884	8.7859e+01	4.8271	13.889766	0.000345	3.446541	1.167720	-0.000138
 885	8.7958e+01	4.7774	13.780763	0.000274	2.736959	0.927307	-0.000110
 886	8.8058e+01	4.7341	13.675797	0.000264	2.635590	0.892962	-0.000105
 887	8.8157e+01	4.7004	13.506238	0.000426	4.257492	1.442477	-0.000170
 888	8.8257e+01	4.6667	13.377049	0.000324	3.243803	1.099030	-0.000130
 889	8.8356e+01	4.6234	13.251898	0.000314	3.142434	1.064686	-0.000126
 890	8.8456e+01	4.5817	13.130784	0.000304	3.041065	1.030341	-0.000122
 891	8.8555e+01	4.5496	13.025818	0.000264	2.635590	0.892962	-0.000105
 892	8.8654e+01	4.4983	12.920853	0.000264	2.635590	0.892962	-0.000105
 893	8.8754e+01	4.4550	12.763405	0.000395	3.953385	1.339443	-0.000158
 894	8.8853e+01	4.4100	12.634216	0.000324	3.243803	1.099030	-0.000130
 895	8.8953e+01	4.3812	12.488879	0.000365	3.649279	1.236409	-0.000146
 896	8.9052e+01	4.3507	12.335468	0.000385	3.852016	1.305098	-0.000154
 897	8.9152e+01	4.3026	12.218391	0.000294	2.939697	0.995996	-0.000118
 898	8.9251e+01	4.2592	12.113426	0.000264	2.635590	0.892962	-0.000105
 899	8.9351e+01	4.2207	12.016535	0.000243	2.432852	0.824273	-0.000097
 900	8.9451e+01	4.1870	11.855049	0.000405	4.054754	1.373788	-0.000162
 901	8.9550e+01	4.1389	11.766232	0.000223	2.230115	0.755583	-0.000089
 902	8.9650e+01	4.1084	11.620895	0.000365	3.649279	1.236409	-0.000146
 903	8.9749e+01	4.0635	11.487670	0.000335	3.345172	1.133375	-0.000134
 904	8.9849e+01	4.0218	11.358481	0.000324	3.243803	1.099030	-0.000130
 905	8.9948e+01	3.9881	11.265627	0.000233	2.331483	0.789928	-0.000093
 906	9.0047e+01	3.9304	11.100105	0.000416	4.156123	1.408133	-0.000166
 907	9.0147e+01	3.8951	11.011288	0.000223	2.230115	0.755583	-0.000089
 908	9.0246e+01	3.8614	10.857877	0.000385	3.852016	1.305098	-0.000154
 909	9.0346e+01	3.8293	10.708503	0.000375	3.750647	1.270754	-0.000150
 910	9.0445e+01	3.7828	10.595463	0.000284	2.838328	0.961651	-0.000114
 911	9.0545e+01	3.7459	10.478386	0.000294	2.939697	0.995996	-0.000118
 912	9.0644e+01	3.7042	10.365346	0.000284	2.838328	0.961651	-0.000114
 913	9.0744e+01	3.6657	10.187712	0.000446	4.460229	1.511167	-0.000179
 914	9.0844e+01	3.6272	10.074672	0.000284	2.838328	0.961651	-0.000114
 915	9.0943e+01	3.5839	9.945484	0.000324	3.243803	1.099030	-0.000130
 916	9.1043e+01	3.5438	9.832444	0.000284	2.838328	0.961651	-0.000114
 917	9.1142e+01	3.5101	9.723441	0.000274	2.736959	0.927307	-0.000110
 918	9.1242e+01	3.4651	9.602327	0.000304	3.041065	1.030341	-0.000122
 919	9.1341e+01	3.4266	9.489288	0.000284	2.838328	0.961651	-0.000114
 920	9.1441e+01	3.3930	9.380285	0.000274	2.736959	0.927307	-0.000110
 921	9.1540e+01	3.3416	9.210725	0.000426	4.257492	1.442477	-0.000170
 922	9.1639e+01	3.3015	9.105760	0.000264	2.635590	0.892962	-0.000105
 923	9.1739e+01	3.2678	8.980608	0.000314	3.142434	1.064686	-0.000126
 924	9.1838e+01	3.2245	8.875643	0.000264	2.635590	0.892962	-0.000105
 925	9.1938e+01	3.1892	8.730306	0.000365	3.649279	1.236409	-0.000146
 926	9.2037e+01	3.1491	8.653600	0.000193	1.926008	0.652549	-0.000077
 927	9.2137e+01	3.1090	8.500189	0.000385	3.852016	1.305098	-0.000154
 928	9.2237e+01	3.0625	8.346778	0.000385	3.852016	1.305098	-0.000154
 929	9.2336e+01	3.0256	8.205478	0.000355	3.547910	1.202064	-0.000142
 930	9.2436e+01	2.9775	8.064179	0.000355	3.547910	1.202064	-0.000142
 931	9.2535e+01	2.9486	7.955176	0.000274	2.736959	0.927307	-0.000110
 932	9.2635e+01	2.9037	7.821950	0.000335	3.345172	1.133375	-0.000134
 933	9.2734e+01	2.8732	7.668539	0.000385	3.852016	1.305098	-0.000154
 934	9.2834e+01	2.8315	7.543388	0.000314	3.142434	1.064686	-0.000126
 935	9.2933e+01	2.7833	7.430348	0.000284	2.838328	0.961651	-0.000114
 936	9.3032e+01	2.7384	7.325383	0.000264	2.635590	0.892962	-0.000105
 937	9.3132e+01	2.7128	7.163897	0.000405	4.054754	1.373788	-0.000162
 938	9.3231e+01	2.6710	7.038746	0.000314	3.142434	1.064686	-0.000126
 939	9.3331e+01	2.6406	6.913595	0.000314	3.142434	1.064686	-0.000126
 940	9.3430e+01	2.5973	6.800555	0.000284	2.838328	0.961651	-0.000114
 941	9.3530e+01	2.5379	6.679441	0.000304	3.041065	1.030341	-0.000122
 942	9.3629e+01	2.5138	6.558327	0.000304	3.041065	1.030341	-0.000122
 943	9.3729e+01	2.4657	6.376656	0.000456	4.561598	1.545511	-0.000183
 944	9.3829e+01	2.4288	6.275728	0.000253	2.534221	0.858617	-0.000101
 945	9.3928e+01	2.3871	6.146539	0.000324	3.243803	1.099030	-0.000130
 946	9.4028e+01	2.3454	6.037536	0.000274	2.736959	0.927307	-0.000110
 947	9.4127e+01	2.3133	5.867977	0.000426	4.257492	1.442477	-0.000170
 948	9.4227e+01	2.2604	5.767048	0.000253	2.534221	0.858617	-0.000101
 949	9.4326e+01	2.2299	5.617674	0.000375	3.750647	1.270754	-0.000150
 950	9.4425e+01	2.1914	5.528857	0.000223	2.230115	0.755583	-0.000089
 951	9.4525e+01	2.1465	5.363335	0.000416	4.156123	1.408133	-0.000166
 952	9.4624e+01	2.1128	5.189738	0.000436	4.358860	1.476822	-0.000174
 953	9.4724e+01	2.0711	5.068624	0.000304	3.041065	1.030341	-0.000122
 954	9.4823e+01	2.0310	4.967696	0.000253	2.534221	0.858617	-0.000101
 955	9.4923e+01	1.9876	4.858693	0.000274	2.736959	0.927307	-0.000110
 956	9.5022e+01	1.9507	4.705282	0.000385	3.852016	1.305098	-0.000154
 957	9.5122e+01	1.9155	4.580130	0.000314	3.142434	1.064686	-0.000126
 958	9.5222e+01	1.8721	4.430756	0.000375	3.750647	1.270754	-0.000150
 959	9.5321e+01	1.8352	4.313680	0.000294	2.939697	0.995996	-0.000118
 960	9.5421e+01	1.7903	4.168343	0.000365	3.649279	1.236409	-0.000146
 961	9.5520e+01	1.7486	4.039154	0.000324	3.243803	1.099030	-0.000130
 962	9.5620e+01	1.7133	3.893817	0.000365	3.649279	1.236409	-0.000146
 963	9.5719e+01	1.6684	3.784815	0.000274	2.736959	0.927307	-0.000110
 964	9.5819e+01	1.6299	3.679849	0.000264	2.635590	0.892962	-0.000105
 965	9.5918e+01	1.5946	3.534512	0.000365	3.649279	1.236409	-0.000146
 966	9.6017e+01	1.5481	3.397250	0.000345	3.446541	1.167720	-0.000138
 967	9.6117e+01	1.5144	3.280173	0.000294	2.939697	0.995996	-0.000118
 968	9.6216e+01	1.4711	3.138873	0.000355	3.547910	1.202064	-0.000142
 969	9.6316e+01	1.4358	3.001610	0.000345	3.446541	1.167720	-0.000138
 970	9.6415e+01	1.3941	2.868385	0.000335	3.345172	1.133375	-0.000134
 971	9.6515e+01	1.3508	2.710937	0.000395	3.953385	1.339443	-0.000158
 972	9.6615e+01	1.3251	2.601934	0.000274	2.736959	0.927307	-0.000110
 973	9.6714e+01	1.2770	2.448523	0.000385	3.852016	1.305098	-0.000154
 974	9.6814e+01	1.2272	2.355669	0.000233	2.331483	0.789928	-0.000093
 975	9.6913e+01	1.1952	2.178035	0.000446	4.460229	1.511167	-0.000179
 976	9.7013e+01	1.1534	2.101329	0.000193	1.926008	0.652549	-0.000077
 977	9.7112e+01	1.1085	1.951955	0.000375	3.750647	1.270754	-0.000150
 978	9.7212e+01	1.0764	1.786433	0.000416	4.156123	1.408133	-0.000166
 979	9.7311e+01	1.0299	1.693578	0.000233	2.331483	0.789928	-0.000093
 980	9.7410e+01	0.9898	1.532093	0.000405	4.054754	1.373788	-0.000162
 981	9.7510e+01	0.9529	1.423090	0.000274	2.736959	0.927307	-0.000110
 982	9.7609e+01	0.9064	1.269679	0.000385	3.852016	1.305098	-0.000154
 983	9.7709e+01	0.8711	1.160677	0.000274	2.736959	0.927307	-0.000110
 984	9.7808e+01	0.8294	1.023414	0.000345	3.446541	1.167720	-0.000138
 985	9.7908e+01	0.7845	0.910374	0.000284	2.838328	0.961651	-0.000114
 986	9.8007e+01	0.7556	0.765037	0.000365	3.649279	1.236409	-0.000146
 987	9.8107e+01	0.7123	0.603552	0.000405	4.054754	1.373788	-0.000162
 988	9.8207e+01	0.6738	0.474363	0.000324	3.243803	1.099030	-0.000130
 989	9.8306e+01	0.6401	0.349212	0.000314	3.142434	1.064686	-0.000126
 990	9.8406e+01	0.6016	0.175615	0.000436	4.358860	1.476822	-0.000174
 991	9.8505e+01	0.5599	0.042390	0.000335	3.345172	1.133375	-0.000134
 992	9.8605e+01	0.5101	-0.082761	0.000314	3.142434	1.064686	-0.000126
 993	9.8704e+01	0.4716	-0.195801	0.000284	2.838328	0.961651	-0.000114
 994	9.8803e+01	0.4396	-0.357287	0.000405	4.054754	1.373788	-0.000162
 995	9.8903e+01	0.3946	-0.466289	0.000274	2.736959	0.927307	-0.000110
 996	9.9002e+01	0.3545	-0.607589	0.000355	3.547910	1.202064	-0.000142
 997	9.9102e+01	0.3160	-0.724666	0.000294	2.939697	0.995996	-0.000118
 998	9.9201e+01	0.2856	-0.857891	0.000335	3.345172	1.133375	-0.000134
 999	9.9301e+01	0.2422	-1.007265	0.000375	3.750647	1.270754	-0.000150
1000	9.9400e+01	0.1973	-1.120305	0.000284	2.838328	0.961651	-0.000114
1001	9.9500e+01	0.1556	-1.253531	0.000335	3.345172	1.133375	-0.000134
1002	9.9600e+01	0.1107	-1.386756	0.000335	3.345172	1.133375	-0.000134
1003	9.9699e+01	0.0738	-1.499796	0.000284	2.838328	0.961651	-0.000114
1004	9.9799e+01	0.0385	-1.661281	0.000405	4.054754	1.373788	-0.000162
1005	9.9898e+01	-0.0016	-1.782395	0.000304	3.041065	1.030341	-0.000122
1006	9.9998e+01	-0.0337	-1.903510	0.000304	3.041065	1.030341	-0.000122
1007	1.0010e+02	-0.0594	-2.056921	0.000385	3.852016	1.305098	-0.000154
1008	1.0020e+02	-0.1091	-2.182072	0.000314	3.142434	1.064686	-0.000126
1009	1.0030e+02	-0.1508	-2.319334	0.000345	3.446541	1.167720	-0.000138
1010	1.0040e+02	-0.1973	-2.428337	0.000274	2.736959	0.927307	-0.000110
1011	1.0050e+02	-0.2310	-2.533303	0.000264	2.635590	0.892962	-0.000105
1012	1.0059e+02	-0.2791	-2.686714	0.000385	3.852016	1.305098	-0.000154
1013	1.0069e+02	-0.3176	-2.848199	0.000405	4.054754	1.373788	-0.000162
1014	1.0079e+02	-0.3529	-2.973350	0.000314	3.142434	1.064686	-0.000126
1015	1.0089e+02	-0.3930	-3.090427	0.000294	2.939697	0.995996	-0.000118
1016	1.0099e+02	-0.4331	-3.239801	0.000375	3.750647	1.270754	-0.000150
1017	1.0109e+02	-0.4829	-3.352841	0.000284	2.838328	0.961651	-0.000114
1018	1.0119e+02	-0.5069	-3.502215	0.000375	3.750647	1.270754	-0.000150
1019	1.0129e+02	-0.5551	-3.631404	0.000324	3.243803	1.099030	-0.000130
1020	1.0139e+02	-0.5904	-3.736369	0.000264	2.635590	0.892962	-0.000105
1021	1.0149e+02	-0.6385	-3.873632	0.000345	3.446541	1.167720	-0.000138
1022	1.0159e+02	-0.6770	-4.014931	0.000355	3.547910	1.202064	-0.000142
1023	1.0169e+02	-0.7155	-4.099711	0.000213	2.128746	0.721239	-0.000085
1024	1.0179e+02	-0.7540	-4.253123	0.000385	3.852016	1.305098	-0.000154
1025	1.0189e+02	-0.8005	-4.386348	0.000335	3.345172	1.133375	-0.000134
1026	1.0199e+02	-0.8326	-4.499388	0.000284	2.838328	0.961651	-0.000114
1027	1.0209e+02	-0.8727	-4.652799	0.000385	3.852016	1.305098	-0.000154
1028	1.0219e+02	-0.9128	-4.794099	0.000355	3.547910	1.202064	-0.000142
1029	1.0229e+02	-0.9449	-4.895027	0.000253	2.534221	0.858617	-0.000101
1030	1.0239e+02	-0.9802	-5.036327	0.000355	3.547910	1.202064	-0.000142
1031	1.0248e+02	-1.0315	-5.157441	0.000304	3.041065	1.030341	-0.000122
1032	1.0258e+02	-1.0620	-5.327001	0.000426	4.257492	1.442477	-0.000170
1033	1.0268e+02	-1.1085	-5.419855	0.000233	2.331483	0.789928	-0.000093
1034	1.0278e+02	-1.1550	-5.553080	0.000335	3.345172	1.133375	-0.000134
1035	1.0288e+02	-1.1839	-5.694380	0.000355	3.547910	1.202064	-0.000142
1036	1.0298e+02	-1.2272	-5.779160	0.000213	2.128746	0.721239	-0.000085
1037	1.0308e+02	-1.2738	-5.896237	0.000294	2.939697	0.995996	-0.000118
1038	1.0318e+02	-1.3107	-6.069834	0.000436	4.358860	1.476822	-0.000174
1039	1.0328e+02	-1.3443	-6.211133	0.000355	3.547910	1.202064	-0.000142
1040	1.0338e+02	-1.3893	-6.340322	0.000324	3.243803	1.099030	-0.000130
1041	1.0348e+02	-1.4214	-6.453361	0.000284	2.838328	0.961651	-0.000114
1042	1.0358e+02	-1.4775	-6.570438	0.000294	2.939697	0.995996	-0.000118
1043	1.0368e+02	-1.5160	-6.671367	0.000253	2.534221	0.858617	-0.000101
1044	1.0378e+02	-1.5465	-6.812667	0.000355	3.547910	1.202064	-0.000142
1045	1.0388e+02	-1.5850	-6.945892	0.000335	3.345172	1.133375	-0.000134
1046	1.0398e+02	-1.6235	-7.083155	0.000345	3.446541	1.167720	-0.000138
1047	1.0408e+02	-1.6636	-7.180046	0.000243	2.432852	0.824273	-0.000097
1048	1.0418e+02	-1.7053	-7.313271	0.000335	3.345172	1.133375	-0.000134
1049	1.0428e+02	-1.7438	-7.466683	0.000385	3.852016	1.305098	-0.000154
1050	1.0438e+02	-1.7919	-7.587797	0.000304	3.041065	1.030341	-0.000122
1051	1.0447e+02	-1.8336	-7.712948	0.000314	3.142434	1.064686	-0.000126
1052	1.0457e+02	-1.8673	-7.817913	0.000264	2.635590	0.892962	-0.000105
1053	1.0467e+02	-1.9074	-7.943065	0.000314	3.142434	1.064686	-0.000126
1054	1.0477e+02	-1.9475	-8.080327	0.000345	3.446541	1.167720	-0.000138
1055	1.0487e+02	-1.9876	-8.221627	0.000355	3.547910	1.202064	-0.000142
1056	1.0497e+02	-2.0326	-8.342741	0.000304	3.041065	1.030341	-0.000122
1057	1.0507e+02	-2.0695	-8.471929	0.000324	3.243803	1.099030	-0.000130
1058	1.0517e+02	-2.1015	-8.568821	0.000243	2.432852	0.824273	-0.000097
1059	1.0527e+02	-2.1465	-8.685898	0.000294	2.939697	0.995996	-0.000118
1060	1.0537e+02	-2.1898	-8.847383	0.000405	4.054754	1.373788	-0.000162
1061	1.0547e+02	-2.2251	-8.976571	0.000324	3.243803	1.099030	-0.000130
1062	1.0557e+02	-2.2748	-9.081537	0.000264	2.635590	0.892962	-0.000105
1063	1.0567e+02	-2.3085	-9.247059	0.000416	4.156123	1.408133	-0.000166
1064	1.0577e+02	-2.3502	-9.315691	0.000172	1.723270	0.583860	-0.000069
1065	1.0587e+02	-2.3871	-9.456990	0.000355	3.547910	1.202064	-0.000142
1066	1.0597e+02	-2.4256	-9.586179	0.000324	3.243803	1.099030	-0.000130
1067	1.0607e+02	-2.4641	-9.763813	0.000446	4.460229	1.511167	-0.000179
1068	1.0617e+02	-2.5106	-9.860704	0.000243	2.432852	0.824273	-0.000097
1069	1.0627e+02	-2.5491	-9.977781	0.000294	2.939697	0.995996	-0.000118
1070	1.0637e+02	-2.5844	-10.066598	0.000223	2.230115	0.755583	-0.000089
1071	1.0647e+02	-2.6229	-10.179638	0.000284	2.838328	0.961651	-0.000114
1072	1.0656e+02	-2.6630	-10.316900	0.000345	3.446541	1.167720	-0.000138
1073	1.0666e+02	-2.7128	-10.433977	0.000294	2.939697	0.995996	-0.000118
1074	1.0676e+02	-2.7464	-10.551054	0.000294	2.939697	0.995996	-0.000118
1075	1.0686e+02	-2.7866	-10.684280	0.000335	3.345172	1.133375	-0.000134
1076	1.0696e+02	-2.8283	-10.797320	0.000284	2.838328	0.961651	-0.000114
1077	1.0706e+02	-2.8603	-10.918434	0.000304	3.041065	1.030341	-0.000122
1078	1.0716e+02	-2.9005	-11.083956	0.000416	4.156123	1.408133	-0.000166
1079	1.0726e+02	-2.9470	-11.188922	0.000264	2.635590	0.892962	-0.000105
1080	1.0736e+02	-2.9887	-11.289850	0.000253	2.534221	0.858617	-0.000101
1081	1.0746e+02	-3.0272	-11.431150	0.000355	3.547910	1.202064	-0.000142
1082	1.0756e+02	-3.0657	-11.548227	0.000294	2.939697	0.995996	-0.000118
1083	1.0766e+02	-3.1026	-11.709712	0.000405	4.054754	1.373788	-0.000162
1084	1.0776e+02	-3.1491	-11.810641	0.000253	2.534221	0.858617	-0.000101
1085	1.0786e+02	-3.1764	-11.939829	0.000324	3.243803	1.099030	-0.000130
1086	1.0796e+02	-3.2165	-12.048832	0.000274	2.736959	0.927307	-0.000110
1087	1.0806e+02	-3.2550	-12.198206	0.000375	3.750647	1.270754	-0.000150
1088	1.0816e+02	-3.3031	-12.282985	0.000213	2.128746	0.721239	-0.000085
1089	1.0826e+02	-3.3400	-12.412174	0.000324	3.243803	1.099030	-0.000130
1090	1.0836e+02	-3.3769	-12.525214	0.000284	2.838328	0.961651	-0.000114
1091	1.0845e+02	-3.4186	-12.646328	0.000304	3.041065	1.030341	-0.000122
1092	1.0855e+02	-3.4603	-12.815887	0.000426	4.257492	1.442477	-0.000170
1093	1.0865e+02	-3.5036	-12.884519	0.000172	1.723270	0.583860	-0.000069
1094	1.0875e+02	-3.5405	-13.074264	0.000476	4.764336	1.614201	-0.000191
1095	1.0885e+02	-3.5855	-13.175192	0.000253	2.534221	0.858617	-0.000101
1096	1.0895e+02	-3.6288	-13.247861	0.000182	1.824639	0.618205	-0.000073
1097	1.0905e+02	-3.6625	-13.397235	0.000375	3.750647	1.270754	-0.000150
1098	1.0915e+02	-3.7026	-13.494126	0.000243	2.432852	0.824273	-0.000097
1099	1.0925e+02	-3.7379	-13.627352	0.000335	3.345172	1.133375	-0.000134
1100	1.0935e+02	-3.7812	-13.740391	0.000284	2.838328	0.961651	-0.000114
1101	1.0945e+02	-3.8277	-13.877654	0.000345	3.446541	1.167720	-0.000138
1102	1.0955e+02	-3.8598	-13.974545	0.000243	2.432852	0.824273	-0.000097
1103	1.0965e+02	-3.9079	-14.063362	0.000223	2.230115	0.755583	-0.000089
1104	1.0975e+02	-3.9384	-14.232922	0.000426	4.257492	1.442477	-0.000170
1105	1.0985e+02	-3.9801	-14.382296	0.000375	3.750647	1.270754	-0.000150
1106	1.0995e+02	-4.0122	-14.535707	0.000385	3.852016	1.305098	-0.000154
1107	1.1005e+02	-4.0571	-14.624524	0.000223	2.230115	0.755583	-0.000089
1108	1.1015e+02	-4.0940	-14.757750	0.000335	3.345172	1.133375	-0.000134
1109	1.1025e+02	-4.1389	-14.870789	0.000284	2.838328	0.961651	-0.000114
1110	1.1035e+02	-4.1758	-14.995941	0.000314	3.142434	1.064686	-0.000126
1111	1.1044e+02	-4.2159	-15.161463	0.000416	4.156123	1.408133	-0.000166
1112	1.1054e+02	-4.2641	-15.222020	0.000152	1.520533	0.515170	-0.000061
1113	1.1064e+02	-4.2929	-15.399654	0.000446	4.460229	1.511167	-0.000179
1114	1.1074e+02	-4.3378	-15.492508	0.000233	2.331483	0.789928	-0.000093
1115	1.1084e+02	-4.3747	-15.625734	0.000335	3.345172	1.133375	-0.000134
1116	1.1094e+02	-4.4181	-15.754922	0.000324	3.243803	1.099030	-0.000130
1117	1.1104e+02	-4.4566	-15.851813	0.000243	2.432852	0.824273	-0.000097
1118	1.1114e+02	-4.5015	-15.993113	0.000355	3.547910	1.202064	-0.000142
1119	1.1124e+02	-4.5384	-16.118264	0.000314	3.142434	1.064686	-0.000126
1120	1.1134e+02	-4.5865	-16.170747	0.000132	1.317795	0.446481	-0.000053
1121	1.1144e+02	-4.6186	-16.295898	0.000314	3.142434	1.064686	-0.000126
1122	1.1154e+02	-4.6555	-16.433161	0.000345	3.446541	1.167720	-0.000138
1123	1.1164e+02	-4.6940	-16.562349	0.000324	3.243803	1.099030	-0.000130
1124	1.1174e+02	-4.7325	-16.739983	0.000446	4.460229	1.511167	-0.000179
1125	1.1184e+02	-4.7758	-16.853023	0.000284	2.838328	0.961651	-0.000114
1126	1.1194e+02	-4.8095	-16.990286	0.000345	3.446541	1.167720	-0.000138
1127	1.1204e+02	-4.8576	-17.127548	0.000345	3.446541	1.167720	-0.000138
1128	1.1214e+02	-4.8913	-17.220402	0.000233	2.331483	0.789928	-0.000093
1129	1.1224e+02	-4.9426	-17.341517	0.000304	3.041065	1.030341	-0.000122
1130	1.1234e+02	-4.9683	-17.486853	0.000365	3.649279	1.236409	-0.000146
1131	1.1244e+02	-5.0261	-17.599893	0.000284	2.838328	0.961651	-0.000114
1132	1.1253e+02	-5.0598	-17.773490	0.000436	4.358860	1.476822	-0.000174
1133	1.1263e+02	-5.0918	-17.882493	0.000274	2.736959	0.927307	-0.000110
1134	1.1273e+02	-5.1351	-17.967273	0.000213	2.128746	0.721239	-0.000085
1135	1.1283e+02	-5.1753	-18.096461	0.000324	3.243803	1.099030	-0.000130
1136	1.1293e+02	-5.2154	-18.237761	0.000355	3.547910	1.202064	-0.000142
1137	1.1303e+02	-5.2571	-18.358875	0.000304	3.041065	1.030341	-0.000122
1138	1.1313e+02	-5.2988	-18.439617	0.000203	2.027377	0.686894	-0.000081
1139	1.1323e+02	-5.3373	-18.576880	0.000345	3.446541	1.167720	-0.000138
1140	1.1333e+02	-5.3742	-18.665697	0.000223	2.230115	0.755583	-0.000089
1141	1.1343e+02	-5.4127	-18.790848	0.000314	3.142434	1.064686	-0.000126
1142	1.1353e+02	-5.4416	-18.907925	0.000294	2.939697	0.995996	-0.000118
1143	1.1363e+02	-5.4897	-19.049225	0.000355	3.547910	1.202064	-0.000142
1144	1.1373e+02	-5.5234	-19.210710	0.000405	4.054754	1.373788	-0.000162
1145	1.1383e+02	-5.5779	-19.343936	0.000335	3.345172	1.133375	-0.000134
1146	1.1393e+02	-5.6132	-19.473124	0.000324	3.243803	1.099030	-0.000130
1147	1.1403e+02	-5.6565	-19.598275	0.000314	3.142434	1.064686	-0.000126
1148	1.1413e+02	-5.6934	-19.687092	0.000223	2.230115	0.755583	-0.000089
1149	1.1423e+02	-5.7399	-19.844541	0.000395	3.953385	1.339443	-0.000158
1150	1.1433e+02	-5.7672	-19.981803	0.000345	3.446541	1.167720	-0.000138
1151	1.1442e+02	-5.8025	-20.086769	0.000264	2.635590	0.892962	-0.000105
1152	1.1452e+02	-5.8490	-20.219994	0.000335	3.345172	1.133375	-0.000134
1153	1.1462e+02	-5.9004	-20.341108	0.000304	3.041065	1.030341	-0.000122
1154	1.1472e+02	-5.9325	-20.446074	0.000264	2.635590	0.892962	-0.000105
1155	1.1482e+02	-5.9742	-20.583337	0.000345	3.446541	1.167720	-0.000138
1156	1.1492e+02	-6.0223	-20.688302	0.000264	2.635590	0.892962	-0.000105
1157	1.1502e+02	-6.0464	-20.845750	0.000395	3.953385	1.339443	-0.000158
1158	1.1512e+02	-6.1009	-20.902270	0.000142	1.419164	0.480826	-0.000057
1159	1.1522e+02	-6.1378	-21.027421	0.000314	3.142434	1.064686	-0.000126
1160	1.1532e+02	-6.1731	-21.132387	0.000264	2.635590	0.892962	-0.000105
1161	1.1542e+02	-6.2052	-21.318095	0.000466	4.662967	1.579856	-0.000187
1162	1.1552e+02	-6.2517	-21.447284	0.000324	3.243803	1.099030	-0.000130
1163	1.1562e+02	-6.2886	-21.572435	0.000314	3.142434	1.064686	-0.000126
1164	1.1572e+02	-6.3207	-21.733920	0.000405	4.054754	1.373788	-0.000162
1165	1.1582e+02	-6.3688	-21.822737	0.000223	2.230115	0.755583	-0.000089
1166	1.1592e+02	-6.4089	-21.939814	0.000294	2.939697	0.995996	-0.000118
1167	1.1602e+02	-6.4522	-22.040743	0.000253	2.534221	0.858617	-0.000101
1168	1.1612e+02	-6.4827	-22.133597	0.000233	2.331483	0.789928	-0.000093
1169	1.1622e+02	-6.5196	-22.254711	0.000304	3.041065	1.030341	-0.000122
1170	1.1632e+02	-6.5629	-22.400048	0.000365	3.649279	1.236409	-0.000146
1171	1.1642e+02	-6.6126	-22.525199	0.000314	3.142434	1.064686	-0.000126
1172	1.1651e+02	-6.6479	-22.650350	0.000314	3.142434	1.064686	-0.000126
1173	1.1661e+02	-6.6848	-22.779538	0.000324	3.243803	1.099030	-0.000130
1174	1.1671e+02	-6.7185	-22.888541	0.000274	2.736959	0.927307	-0.000110
1175	1.1681e+02	-6.7618	-22.977358	0.000223	2.230115	0.755583	-0.000089
1176	1.1691e+02	-6.8019	-23.102509	0.000314	3.142434	1.064686	-0.000126
1177	1.1701e+02	-6.8469	-23.203438	0.000253	2.534221	0.858617	-0.000101
1178	1.1711e+02	-6.8870	-23.356849	0.000385	3.852016	1.305098	-0.000154
1179	1.1721e+02	-6.9223	-23.494111	0.000345	3.446541	1.167720	-0.000138
1180	1.1731e+02	-6.9576	-23.623300	0.000324	3.243803	1.099030	-0.000130
1181	1.1741e+02	-7.0025	-23.744414	0.000304	3.041065	1.030341	-0.000122
1182	1.1751e+02	-7.0490	-23.901862	0.000395	3.953385	1.339443	-0.000158
1183	1.1761e+02	-7.0859	-24.002791	0.000253	2.534221	0.858617	-0.000101
1184	1.1771e+02	-7.1212	-24.103719	0.000253	2.534221	0.858617	-0.000101
1185	1.1781e+02	-7.1741	-24.236944	0.000335	3.345172	1.133375	-0.000134
1186	1.1791e+02	-7.2046	-24.378244	0.000355	3.547910	1.202064	-0.000142
1187	1.1801e+02	-7.2431	-24.487247	0.000274	2.736959	0.927307	-0.000110
1188	1.1811e+02	-7.2816	-24.596249	0.000274	2.736959	0.927307	-0.000110
1189	1.1821e+02	-7.3297	-24.717364	0.000304	3.041065	1.030341	-0.000122
1190	1.1831e+02	-7.3570	-24.846552	0.000324	3.243803	1.099030	-0.000130
1191	1.1841e+02	-7.3971	-24.927295	0.000203	2.027377	0.686894	-0.000081
1192	1.1850e+02	-7.4404	-25.092817	0.000416	4.156123	1.408133	-0.000166
1193	1.1860e+02	-7.4805	-25.193746	0.000253	2.534221	0.858617	-0.000101
1194	1.1870e+02	-7.5255	-25.242191	0.000122	1.216426	0.412136	-0.000049
1195	1.1880e+02	-7.5688	-25.367342	0.000314	3.142434	1.064686	-0.000126
1196	1.1890e+02	-7.5880	-25.492494	0.000314	3.142434	1.064686	-0.000126
1197	1.1900e+02	-7.6378	-25.674165	0.000456	4.561598	1.545511	-0.000183
1198	1.1910e+02	-7.6779	-25.791242	0.000294	2.939697	0.995996	-0.000118
1199	1.1920e+02	-7.7196	-25.904281	0.000284	2.838328	0.961651	-0.000114
1200	1.1930e+02	-7.7549	-26.009247	0.000264	2.635590	0.892962	-0.000105
1201	1.1940e+02	-7.7966	-26.110175	0.000253	2.534221	0.858617	-0.000101
1202	1.1950e+02	-7.8399	-26.207067	0.000243	2.432852	0.824273	-0.000097
1203	1.1960e+02	-7.8784	-26.352404	0.000365	3.649279	1.236409	-0.000146
1204	1.1970e+02	-7.9185	-26.449295	0.000243	2.432852	0.824273	-0.000097
1205	1.1980e+02	-7.9554	-26.586557	0.000345	3.446541	1.167720	-0.000138
1206	1.1990e+02	-8.0051	-26.695560	0.000274	2.736959	0.927307	-0.000110
1207	1.2000e+02	-8.0484	-26.828786	0.000335	3.345172	1.133375	-0.000134
1208	1.2010e+02	-8.0741	-26.905491	0.000193	1.926008	0.652549	-0.000077
1209	1.2020e+02	-8.1190	-26.986234	0.000203	2.027377	0.686894	-0.000081
1210	1.2030e+02	-8.1607	-27.127534	0.000355	3.547910	1.202064	-0.000142
1211	1.2039e+02	-8.2089	-27.236536	0.000274	2.736959	0.927307	-0.000110
1212	1.2049e+02	-8.2425	-27.361687	0.000314	3.142434	1.064686	-0.000126
1213	1.2059e+02	-8.2730	-27.458579	0.000243	2.432852	0.824273	-0.000097
1214	1.2069e+02	-8.3244	-27.571619	0.000284	2.838328	0.961651	-0.000114
1215	1.2079e+02	-8.3564	-27.692733	0.000304	3.041065	1.030341	-0.000122
1216	1.2089e+02	-8.4014	-27.809810	0.000294	2.939697	0.995996	-0.000118
1217	1.2099e+02	-8.4495	-27.926886	0.000294	2.939697	0.995996	-0.000118
1218	1.2109e+02	-8.4752	-28.080298	0.000385	3.852016	1.305098	-0.000154
1219	1.2119e+02	-8.5185	-28.169115	0.000223	2.230115	0.755583	-0.000089
1220	1.2129e+02	-8.5602	-28.310414	0.000355	3.547910	1.202064	-0.000142
1221	1.2139e+02	-8.5955	-28.411343	0.000253	2.534221	0.858617	-0.000101
1222	1.2149e+02	-8.6372	-28.528420	0.000294	2.939697	0.995996	-0.000118
1223	1.2159e+02	-8.6821	-28.653571	0.000314	3.142434	1.064686	-0.000126
1224	1.2169e+02	-8.7238	-28.746425	0.000233	2.331483	0.789928	-0.000093
1225	1.2179e+02	-8.7495	-28.851391	0.000264	2.635590	0.892962	-0.000105
1226	1.2189e+02	-8.7928	-28.988653	0.000345	3.446541	1.167720	-0.000138
1227	1.2199e+02	-8.8393	-29.105730	0.000294	2.939697	0.995996	-0.000118
1228	1.2209e+02	-8.8698	-29.202621	0.000243	2.432852	0.824273	-0.000097
1229	1.2219e+02	-8.9211	-29.295475	0.000233	2.331483	0.789928	-0.000093
1230	1.2229e+02	-8.9628	-29.416590	0.000304	3.041065	1.030341	-0.000122
1231	1.2239e+02	-9.0078	-29.509444	0.000233	2.331483	0.789928	-0.000093
1232	1.2248e+02	-9.0431	-29.574038	0.000162	1.621902	0.549515	-0.000065
1233	1.2258e+02	-9.0767	-29.674966	0.000253	2.534221	0.858617	-0.000101
1234	1.2268e+02	-9.1056	-29.808192	0.000335	3.345172	1.133375	-0.000134
1235	1.2278e+02	-9.1602	-29.929306	0.000304	3.041065	1.030341	-0.000122
1236	1.2288e+02	-9.1890	-30.062531	0.000335	3.345172	1.133375	-0.000134
1237	1.2298e+02	-9.2308	-30.203831	0.000355	3.547910	1.202064	-0.000142
1238	1.2308e+02	-9.2741	-30.296685	0.000233	2.331483	0.789928	-0.000093
1239	1.2318e+02	-9.3142	-30.389539	0.000233	2.331483	0.789928	-0.000093
1240	1.2328e+02	-9.3575	-30.538913	0.000375	3.750647	1.270754	-0.000150
1241	1.2338e+02	-9.3960	-30.615619	0.000193	1.926008	0.652549	-0.000077
1242	1.2348e+02	-9.4297	-30.760956	0.000365	3.649279	1.236409	-0.000146
1243	1.2358e+02	-9.4810	-30.873996	0.000284	2.838328	0.961651	-0.000114
1244	1.2368e+02	-9.5131	-30.958775	0.000213	2.128746	0.721239	-0.000085
1245	1.2378e+02	-9.5564	-31.092001	0.000335	3.345172	1.133375	-0.000134
1246	1.2388e+02	-9.5981	-31.176781	0.000213	2.128746	0.721239	-0.000085
1247	1.2398e+02	-9.6366	-31.293858	0.000294	2.939697	0.995996	-0.000118
1248	1.2408e+02	-9.6719	-31.386712	0.000233	2.331483	0.789928	-0.000093
1249	1.2418e+02	-9.7120	-31.483603	0.000243	2.432852	0.824273	-0.000097
1250	1.2428e+02	-9.7585	-31.584531	0.000253	2.534221	0.858617	-0.000101
1251	1.2438e+02	-9.8035	-31.689497	0.000264	2.635590	0.892962	-0.000105
1252	1.2447e+02	-9.8307	-31.806574	0.000294	2.939697	0.995996	-0.000118
1253	1.2457e+02	-9.8724	-31.980171	0.000436	4.358860	1.476822	-0.000174
1254	1.2467e+02	-9.9093	-32.068988	0.000223	2.230115	0.755583	-0.000089
1255	1.2477e+02	-9.9559	-32.190102	0.000304	3.041065	1.030341	-0.000122
1256	1.2487e+02	-9.9928	-32.299104	0.000274	2.736959	0.927307	-0.000110
1257	1.2497e+02	-10.0297	-32.363699	0.000162	1.621902	0.549515	-0.000065
1258	1.2507e+02	-10.0682	-32.472701	0.000274	2.736959	0.927307	-0.000110
1259	1.2517e+02	-10.1131	-32.597853	0.000314	3.142434	1.064686	-0.000126
1260	1.2527e+02	-10.1516	-32.710892	0.000284	2.838328	0.961651	-0.000114
1261	1.2537e+02	-10.1885	-32.815858	0.000264	2.635590	0.892962	-0.000105
1262	1.2547e+02	-10.2414	-32.941009	0.000314	3.142434	1.064686	-0.000126
1263	1.2557e+02	-10.2639	-33.058086	0.000294	2.939697	0.995996	-0.000118
1264	1.2567e+02	-10.3136	-33.150940	0.000233	2.331483	0.789928	-0.000093
1265	1.2577e+02	-10.3393	-33.272054	0.000304	3.041065	1.030341	-0.000122
1266	1.2587e+02	-10.3890	-33.368945	0.000243	2.432852	0.824273	-0.000097
1267	1.2597e+02	-10.4468	-33.449688	0.000203	2.027377	0.686894	-0.000081
1268	1.2607e+02	-10.4837	-33.570802	0.000304	3.041065	1.030341	-0.000122
1269	1.2617e+02	-10.5141	-33.615211	0.000112	1.115057	0.377792	-0.000045
1270	1.2627e+02	-10.5494	-33.796882	0.000456	4.561598	1.545511	-0.000183
1271	1.2636e+02	-10.5879	-33.897810	0.000253	2.534221	0.858617	-0.000101
1272	1.2646e+02	-10.6313	-34.018924	0.000304	3.041065	1.030341	-0.000122
1273	1.2656e+02	-10.6665	-34.119853	0.000253	2.534221	0.858617	-0.000101
1274	1.2666e+02	-10.7163	-34.232892	0.000284	2.838328	0.961651	-0.000114
1275	1.2676e+02	-10.7500	-34.321709	0.000223	2.230115	0.755583	-0.000089
1276	1.2686e+02	-10.7837	-34.463009	0.000355	3.547910	1.202064	-0.000142
1277	1.2696e+02	-10.8334	-34.551826	0.000223	2.230115	0.755583	-0.000089
1278	1.2706e+02	-10.8703	-34.685052	0.000335	3.345172	1.133375	-0.000134
1279	1.2716e+02	-10.9072	-34.814240	0.000324	3.243803	1.099030	-0.000130
1280	1.2726e+02	-10.9585	-34.911131	0.000243	2.432852	0.824273	-0.000097
1281	1.2736e+02	-10.9858	-34.999948	0.000223	2.230115	0.755583	-0.000089
1282	1.2746e+02	-11.0243	-35.125099	0.000314	3.142434	1.064686	-0.000126
1283	1.2756e+02	-11.0724	-35.238139	0.000284	2.838328	0.961651	-0.000114
1284	1.2766e+02	-11.1061	-35.343105	0.000264	2.635590	0.892962	-0.000105
1285	1.2776e+02	-11.1590	-35.468256	0.000314	3.142434	1.064686	-0.000126
1286	1.2786e+02	-11.1783	-35.597444	0.000324	3.243803	1.099030	-0.000130
1287	1.2796e+02	-11.2296	-35.726633	0.000324	3.243803	1.099030	-0.000130
1288	1.2806e+02	-11.2665	-35.791227	0.000162	1.621902	0.549515	-0.000065
1289	1.2816e+02	-11.3082	-35.892155	0.000253	2.534221	0.858617	-0.000101
1290	1.2826e+02	-11.3483	-36.001158	0.000274	2.736959	0.927307	-0.000110
1291	1.2835e+02	-11.3836	-36.102086	0.000253	2.534221	0.858617	-0.000101
1292	1.2845e+02	-11.4270	-36.207052	0.000264	2.635590	0.892962	-0.000105
1293	1.2855e+02	-11.4671	-36.307980	0.000253	2.534221	0.858617	-0.000101
1294	1.2865e+02	-11.5056	-36.433131	0.000314	3.142434	1.064686	-0.000126
1295	1.2875e+02	-11.5505	-36.558283	0.000314	3.142434	1.064686	-0.000126
1296	1.2885e+02	-11.5906	-36.679397	0.000304	3.041065	1.030341	-0.000122
1297	1.2895e+02	-11.6307	-36.788399	0.000274	2.736959	0.927307	-0.000110
1298	1.2905e+02	-11.6676	-36.869142	0.000203	2.027377	0.686894	-0.000081
1299	1.2915e+02	-11.7061	-37.010442	0.000355	3.547910	1.202064	-0.000142
1300	1.2925e+02	-11.7398	-37.087147	0.000193	1.926008	0.652549	-0.000077
1301	1.2935e+02	-11.7847	-37.228447	0.000355	3.547910	1.202064	-0.000142
1302	1.2945e+02	-11.8232	-37.325338	0.000243	2.432852	0.824273	-0.000097
1303	1.2955e+02	-11.8681	-37.402044	0.000193	1.926008	0.652549	-0.000077
1304	1.2965e+02	-11.9066	-37.547381	0.000365	3.649279	1.236409	-0.000146
1305	1.2975e+02	-11.9451	-37.640235	0.000233	2.331483	0.789928	-0.000093
1306	1.2985e+02	-11.9820	-37.761349	0.000304	3.041065	1.030341	-0.000122
1307	1.2995e+02	-12.0285	-37.858240	0.000243	2.432852	0.824273	-0.000097
1308	1.3005e+02	-12.0638	-37.959169	0.000253	2.534221	0.858617	-0.000101
1309	1.3015e+02	-12.1071	-38.124691	0.000416	4.156123	1.408133	-0.000166
1310	1.3025e+02	-12.1489	-38.193323	0.000172	1.723270	0.583860	-0.000069
1311	1.3034e+02	-12.1858	-38.302325	0.000274	2.736959	0.927307	-0.000110
1312	1.3044e+02	-12.2130	-38.459774	0.000395	3.953385	1.339443	-0.000158
1313	1.3054e+02	-12.2531	-38.544553	0.000213	2.128746	0.721239	-0.000085
1314	1.3064e+02	-12.3045	-38.677779	0.000335	3.345172	1.133375	-0.000134
1315	1.3074e+02	-12.3446	-38.746410	0.000172	1.723270	0.583860	-0.000069
1316	1.3084e+02	-12.3927	-38.875599	0.000324	3.243803	1.099030	-0.000130
1317	1.3094e+02	-12.4248	-38.968453	0.000233	2.331483	0.789928	-0.000093
1318	1.3104e+02	-12.4649	-39.101678	0.000335	3.345172	1.133375	-0.000134
1319	1.3114e+02	-12.5098	-39.194532	0.000233	2.331483	0.789928	-0.000093
1320	1.3124e+02	-12.5531	-39.307572	0.000284	2.838328	0.961651	-0.000114
1321	1.3134e+02	-12.5900	-39.424649	0.000294	2.939697	0.995996	-0.000118
1322	1.3144e+02	-12.6221	-39.525577	0.000253	2.534221	0.858617	-0.000101
1323	1.3154e+02	-12.6526	-39.634580	0.000274	2.736959	0.927307	-0.000110
1324	1.3164e+02	-12.6911	-39.747620	0.000284	2.838328	0.961651	-0.000114
1325	1.3174e+02	-12.7424	-39.848548	0.000253	2.534221	0.858617	-0.000101
1326	1.3184e+02	-12.7713	-40.001959	0.000385	3.852016	1.305098	-0.000154
1327	1.3194e+02	-12.8162	-40.110962	0.000274	2.736959	0.927307	-0.000110
1328	1.3204e+02	-12.8595	-40.203816	0.000233	2.331483	0.789928	-0.000093
1329	1.3214e+02	-12.9044	-40.300708	0.000243	2.432852	0.824273	-0.000097
1330	1.3224e+02	-12.9413	-40.389524	0.000223	2.230115	0.755583	-0.000089
1331	1.3234e+02	-12.9702	-40.526787	0.000345	3.446541	1.167720	-0.000138
1332	1.3243e+02	-13.0119	-40.623678	0.000243	2.432852	0.824273	-0.000097
1333	1.3253e+02	-13.0569	-40.700384	0.000193	1.926008	0.652549	-0.000077
1334	1.3263e+02	-13.1066	-40.865907	0.000416	4.156123	1.408133	-0.000166
1335	1.3273e+02	-13.1387	-40.974909	0.000274	2.736959	0.927307	-0.000110
1336	1.3283e+02	-13.1772	-41.100060	0.000314	3.142434	1.064686	-0.000126
1337	1.3293e+02	-13.2125	-41.184840	0.000213	2.128746	0.721239	-0.000085
1338	1.3303e+02	-13.2686	-41.301917	0.000294	2.939697	0.995996	-0.000118
1339	1.3313e+02	-13.3055	-41.394771	0.000233	2.331483	0.789928	-0.000093
1340	1.3323e+02	-13.3280	-41.519922	0.000314	3.142434	1.064686	-0.000126
1341	1.3333e+02	-13.3793	-41.661222	0.000355	3.547910	1.202064	-0.000142
1342	1.3343e+02	-13.4210	-41.741965	0.000203	2.027377	0.686894	-0.000081
1343	1.3353e+02	-13.4627	-41.883265	0.000355	3.547910	1.202064	-0.000142
1344	1.3363e+02	-13.4996	-41.943822	0.000152	1.520533	0.515170	-0.000061
1345	1.3373e+02	-13.5494	-42.056862	0.000284	2.838328	0.961651	-0.000114
1346	1.3383e+02	-13.5702	-42.169901	0.000284	2.838328	0.961651	-0.000114
1347	1.3393e+02	-13.6135	-42.286978	0.000294	2.939697	0.995996	-0.000118
1348	1.3403e+02	-13.6584	-42.408092	0.000304	3.041065	1.030341	-0.000122
1349	1.3413e+02	-13.6937	-42.484798	0.000193	1.926008	0.652549	-0.000077
1350	1.3423e+02	-13.7354	-42.630135	0.000365	3.649279	1.236409	-0.000146
1351	1.3432e+02	-13.7788	-42.702803	0.000182	1.824639	0.618205	-0.000073
1352	1.3442e+02	-13.8173	-42.811806	0.000274	2.736959	0.927307	-0.000110
1353	1.3452e+02	-13.8686	-42.932920	0.000304	3.041065	1.030341	-0.000122
1354	1.3462e+02	-13.9007	-42.993477	0.000152	1.520533	0.515170	-0.000061
1355	1.3472e+02	-13.9296	-43.150925	0.000395	3.953385	1.339443	-0.000158
1356	1.3482e+02	-13.9777	-43.239742	0.000223	2.230115	0.755583	-0.000089
1357	1.3492e+02	-14.0098	-43.360856	0.000304	3.041065	1.030341	-0.000122
1358	1.3502e+02	-14.0547	-43.437562	0.000193	1.926008	0.652549	-0.000077
1359	1.3512e+02	-14.0932	-43.586936	0.000375	3.750647	1.270754	-0.000150
1360	1.3522e+02	-14.1317	-43.708050	0.000304	3.041065	1.030341	-0.000122
1361	1.3532e+02	-14.1702	-43.800904	0.000233	2.331483	0.789928	-0.000093
1362	1.3542e+02	-14.2151	-43.881647	0.000203	2.027377	0.686894	-0.000081
1363	1.3552e+02	-14.2536	-43.962390	0.000203	2.027377	0.686894	-0.000081
1364	1.3562e+02	-14.2905	-44.099652	0.000345	3.446541	1.167720	-0.000138
1365	1.3572e+02	-14.3354	-44.188469	0.000223	2.230115	0.755583	-0.000089
1366	1.3582e+02	-14.3803	-44.253063	0.000162	1.621902	0.549515	-0.000065
1367	1.3592e+02	-14.4140	-44.353992	0.000253	2.534221	0.858617	-0.000101
1368	1.3602e+02	-14.4590	-44.495292	0.000355	3.547910	1.202064	-0.000142
1369	1.3612e+02	-14.4910	-44.600257	0.000264	2.635590	0.892962	-0.000105
1370	1.3622e+02	-14.5408	-44.689074	0.000223	2.230115	0.755583	-0.000089
1371	1.3631e+02	-14.5729	-44.814225	0.000314	3.142434	1.064686	-0.000126
1372	1.3641e+02	-14.6130	-44.870745	0.000142	1.419164	0.480826	-0.000057
1373	1.3651e+02	-14.6531	-45.068565	0.000497	4.967074	1.682890	-0.000199
1374	1.3661e+02	-14.6916	-45.125085	0.000142	1.419164	0.480826	-0.000057
1375	1.3671e+02	-14.7333	-45.234087	0.000274	2.736959	0.927307	-0.000110
1376	1.3681e+02	-14.7782	-45.318867	0.000213	2.128746	0.721239	-0.000085
1377	1.3691e+02	-14.8135	-45.379424	0.000152	1.520533	0.515170	-0.000061
1378	1.3701e+02	-14.8632	-45.553021	0.000436	4.358860	1.476822	-0.000174
1379	1.3711e+02	-14.8969	-45.678172	0.000314	3.142434	1.064686	-0.000126
1380	1.3721e+02	-14.9242	-45.791212	0.000284	2.838328	0.961651	-0.000114
1381	1.3731e+02	-14.9787	-45.863881	0.000182	1.824639	0.618205	-0.000073
1382	1.3741e+02	-15.0188	-45.972883	0.000274	2.736959	0.927307	-0.000110
1383	1.3751e+02	-15.0413	-46.029403	0.000142	1.419164	0.480826	-0.000057
1384	1.3761e+02	-15.0926	-46.134369	0.000264	2.635590	0.892962	-0.000105
1385	1.3771e+02	-15.1311	-46.255483	0.000304	3.041065	1.030341	-0.000122
1386	1.3781e+02	-15.1712	-46.344300	0.000223	2.230115	0.755583	-0.000089
1387	1.3791e+02	-15.2161	-46.457340	0.000284	2.838328	0.961651	-0.000114
1388	1.3801e+02	-15.2514	-46.542119	0.000213	2.128746	0.721239	-0.000085
1389	1.3811e+02	-15.2948	-46.663233	0.000304	3.041065	1.030341	-0.000122
1390	1.3821e+02	-15.3413	-46.756088	0.000233	2.331483	0.789928	-0.000093
1391	1.3831e+02	-15.3782	-46.861053	0.000264	2.635590	0.892962	-0.000105
1392	1.3840e+02	-15.4119	-46.925647	0.000162	1.621902	0.549515	-0.000065
1393	1.3850e+02	-15.4536	-47.115393	0.000476	4.764336	1.614201	-0.000191
1394	1.3860e+02	-15.4953	-47.184024	0.000172	1.723270	0.583860	-0.000069
1395	1.3870e+02	-15.5354	-47.256692	0.000182	1.824639	0.618205	-0.000073
1396	1.3880e+02	-15.5739	-47.373769	0.000294	2.939697	0.995996	-0.000118
1397	1.3890e+02	-15.6188	-47.531218	0.000395	3.953385	1.339443	-0.000158
1398	1.3900e+02	-15.6493	-47.611960	0.000203	2.027377	0.686894	-0.000081
1399	1.3910e+02	-15.6926	-47.725000	0.000284	2.838328	0.961651	-0.000114
1400	1.3920e+02	-15.7375	-47.813817	0.000223	2.230115	0.755583	-0.000089
1401	1.3930e+02	-15.7680	-47.870337	0.000142	1.419164	0.480826	-0.000057
1402	1.3940e+02	-15.8097	-47.951080	0.000203	2.027377	0.686894	-0.000081
1403	1.3950e+02	-15.8482	-48.068157	0.000294	2.939697	0.995996	-0.000118
1404	1.3960e+02	-15.8883	-48.193308	0.000314	3.142434	1.064686	-0.000126
1405	1.3970e+02	-15.9316	-48.265976	0.000182	1.824639	0.618205	-0.000073
1406	1.3980e+02	-15.9701	-48.350756	0.000213	2.128746	0.721239	-0.000085
1407	1.3990e+02	-16.0070	-48.447647	0.000243	2.432852	0.824273	-0.000097
1408	1.4000e+02	-16.0471	-48.588947	0.000355	3.547910	1.202064	-0.000142
1409	1.4010e+02	-16.0872	-48.665653	0.000193	1.926008	0.652549	-0.000077
1410	1.4020e+02	-16.1306	-48.782730	0.000294	2.939697	0.995996	-0.000118
1411	1.4029e+02	-16.1562	-48.855398	0.000182	1.824639	0.618205	-0.000073
1412	1.4039e+02	-16.2124	-48.948252	0.000233	2.331483	0.789928	-0.000093
1413	1.4049e+02	-16.2509	-49.045144	0.000243	2.432852	0.824273	-0.000097
1414	1.4059e+02	-16.2894	-49.178369	0.000335	3.345172	1.133375	-0.000134
1415	1.4069e+02	-16.3150	-49.230852	0.000132	1.317795	0.446481	-0.000053
1416	1.4079e+02	-16.3616	-49.412523	0.000456	4.561598	1.545511	-0.000183
1417	1.4089e+02	-16.4049	-49.509414	0.000243	2.432852	0.824273	-0.000097
1418	1.4099e+02	-16.4578	-49.582083	0.000182	1.824639	0.618205	-0.000073
1419	1.4109e+02	-16.4899	-49.735494	0.000385	3.852016	1.305098	-0.000154
1420	1.4119e+02	-16.5316	-49.739531	0.000010	0.101369	0.034345	-0.000004
1421	1.4129e+02	-16.5733	-49.860645	0.000304	3.041065	1.030341	-0.000122
1422	1.4139e+02	-16.6102	-49.949462	0.000223	2.230115	0.755583	-0.000089
1423	1.4149e+02	-16.6487	-50.042316	0.000233	2.331483	0.789928	-0.000093
1424	1.4159e+02	-16.6840	-50.167467	0.000314	3.142434	1.064686	-0.000126
1425	1.4169e+02	-16.7321	-50.223987	0.000142	1.419164	0.480826	-0.000057
1426	1.4179e+02	-16.7658	-50.349138	0.000314	3.142434	1.064686	-0.000126
1427	1.4189e+02	-16.8011	-50.450067	0.000253	2.534221	0.858617	-0.000101
1428	1.4199e+02	-16.8396	-50.591367	0.000355	3.547910	1.202064	-0.000142
1429	1.4209e+02	-16.8846	-50.664035	0.000182	1.824639	0.618205	-0.000073
1430	1.4219e+02	-16.9214	-50.756889	0.000233	2.331483	0.789928	-0.000093
1431	1.4228e+02	-16.9712	-50.861855	0.000264	2.635590	0.892962	-0.000105
1432	1.4238e+02	-17.0065	-50.978932	0.000294	2.939697	0.995996	-0.000118
1433	1.4248e+02	-17.0402	-51.039489	0.000152	1.520533	0.515170	-0.000061
1434	1.4258e+02	-17.0883	-51.209048	0.000426	4.257492	1.442477	-0.000170
1435	1.4268e+02	-17.1220	-51.265568	0.000142	1.419164	0.480826	-0.000057
1436	1.4278e+02	-17.1669	-51.386682	0.000304	3.041065	1.030341	-0.000122
1437	1.4288e+02	-17.2054	-51.479536	0.000233	2.331483	0.789928	-0.000093
1438	1.4298e+02	-17.2391	-51.608725	0.000324	3.243803	1.099030	-0.000130
1439	1.4308e+02	-17.2792	-51.677356	0.000172	1.723270	0.583860	-0.000069
1440	1.4318e+02	-17.3305	-51.729839	0.000132	1.317795	0.446481	-0.000053
1441	1.4328e+02	-17.3626	-51.875176	0.000365	3.649279	1.236409	-0.000146
1442	1.4338e+02	-17.4059	-51.947844	0.000182	1.824639	0.618205	-0.000073
1443	1.4348e+02	-17.4492	-52.048773	0.000253	2.534221	0.858617	-0.000101
1444	1.4358e+02	-17.4942	-52.153738	0.000264	2.635590	0.892962	-0.000105
1445	1.4368e+02	-17.5182	-52.274852	0.000304	3.041065	1.030341	-0.000122
1446	1.4378e+02	-17.5599	-52.347521	0.000182	1.824639	0.618205	-0.000073
1447	1.4388e+02	-17.6049	-52.436338	0.000223	2.230115	0.755583	-0.000089
1448	1.4398e+02	-17.6482	-52.549377	0.000284	2.838328	0.961651	-0.000114
1449	1.4408e+02	-17.6899	-52.690677	0.000355	3.547910	1.202064	-0.000142
1450	1.4418e+02	-17.7188	-52.755271	0.000162	1.621902	0.549515	-0.000065
1451	1.4428e+02	-17.7589	-52.916757	0.000405	4.054754	1.373788	-0.000162
1452	1.4437e+02	-17.7958	-53.029796	0.000284	2.838328	0.961651	-0.000114
1453	1.4447e+02	-17.8407	-53.138799	0.000274	2.736959	0.927307	-0.000110
1454	1.4457e+02	-17.8728	-53.235690	0.000243	2.432852	0.824273	-0.000097
1455	1.4467e+02	-17.9241	-53.372953	0.000345	3.446541	1.167720	-0.000138
1456	1.4477e+02	-17.9626	-53.445621	0.000182	1.824639	0.618205	-0.000073
1457	1.4487e+02	-18.0011	-53.542513	0.000243	2.432852	0.824273	-0.000097
1458	1.4497e+02	-18.0332	-53.631330	0.000223	2.230115	0.755583	-0.000089
1459	1.4507e+02	-18.0797	-53.728221	0.000243	2.432852	0.824273	-0.000097
1460	1.4517e+02	-18.1310	-53.821075	0.000233	2.331483	0.789928	-0.000093
1461	1.4527e+02	-18.1631	-53.942189	0.000304	3.041065	1.030341	-0.000122
1462	1.4537e+02	-18.2048	-54.039080	0.000243	2.432852	0.824273	-0.000097
1463	1.4547e+02	-18.2353	-54.140009	0.000253	2.534221	0.858617	-0.000101
1464	1.4557e+02	-18.2770	-54.232863	0.000233	2.331483	0.789928	-0.000093
1465	1.4567e+02	-18.3171	-54.313606	0.000203	2.027377	0.686894	-0.000081
1466	1.4577e+02	-18.3572	-54.467017	0.000385	3.852016	1.305098	-0.000154
1467	1.4587e+02	-18.4022	-54.571982	0.000264	2.635590	0.892962	-0.000105
1468	1.4597e+02	-18.4455	-54.680985	0.000274	2.736959	0.927307	-0.000110
1469	1.4607e+02	-18.4776	-54.830359	0.000375	3.750647	1.270754	-0.000150
1470	1.4617e+02	-18.5193	-54.931287	0.000253	2.534221	0.858617	-0.000101
1471	1.4626e+02	-18.5513	-55.056439	0.000314	3.142434	1.064686	-0.000126
1472	1.4636e+02	-18.5995	-55.129107	0.000182	1.824639	0.618205	-0.000073
1473	1.4646e+02	-18.6412	-55.262333	0.000335	3.345172	1.133375	-0.000134
1474	1.4656e+02	-18.6797	-55.383447	0.000304	3.041065	1.030341	-0.000122
1475	1.4666e+02	-18.7262	-55.492449	0.000274	2.736959	0.927307	-0.000110
1476	1.4676e+02	-18.7503	-55.553006	0.000152	1.520533	0.515170	-0.000061
1477	1.4686e+02	-18.7936	-55.633749	0.000203	2.027377	0.686894	-0.000081
1478	1.4696e+02	-18.8369	-55.734677	0.000253	2.534221	0.858617	-0.000101
1479	1.4706e+02	-18.8866	-55.863866	0.000324	3.243803	1.099030	-0.000130
1480	1.4716e+02	-18.9171	-55.956720	0.000233	2.331483	0.789928	-0.000093
1481	1.4726e+02	-18.9604	-56.073797	0.000294	2.939697	0.995996	-0.000118
1482	1.4736e+02	-19.0021	-56.178762	0.000264	2.635590	0.892962	-0.000105
1483	1.4746e+02	-19.0406	-56.295839	0.000294	2.939697	0.995996	-0.000118
1484	1.4756e+02	-19.0711	-56.376582	0.000203	2.027377	0.686894	-0.000081
1485	1.4766e+02	-19.1225	-56.546142	0.000426	4.257492	1.442477	-0.000170
1486	1.4776e+02	-19.1561	-56.647070	0.000253	2.534221	0.858617	-0.000101
1487	1.4786e+02	-19.1979	-56.804518	0.000395	3.953385	1.339443	-0.000158
1488	1.4796e+02	-19.2364	-56.945818	0.000355	3.547910	1.202064	-0.000142
1489	1.4806e+02	-19.2733	-57.018487	0.000182	1.824639	0.618205	-0.000073
1490	1.4816e+02	-19.3085	-57.131526	0.000284	2.838328	0.961651	-0.000114
1491	1.4825e+02	-19.3567	-57.224381	0.000233	2.331483	0.789928	-0.000093
1492	1.4835e+02	-19.3952	-57.345495	0.000304	3.041065	1.030341	-0.000122
1493	1.4845e+02	-19.4321	-57.466609	0.000304	3.041065	1.030341	-0.000122
1494	1.4855e+02	-19.4706	-57.599834	0.000335	3.345172	1.133375	-0.000134
1495	1.4865e+02	-19.5187	-57.684614	0.000213	2.128746	0.721239	-0.000085
1496	1.4875e+02	-19.5492	-57.745171	0.000152	1.520533	0.515170	-0.000061
1497	1.4885e+02	-19.5941	-57.882434	0.000345	3.446541	1.167720	-0.000138
1498	1.4895e+02	-19.6358	-58.003548	0.000304	3.041065	1.030341	-0.000122
1499	1.4905e+02	-19.6727	-58.072179	0.000172	1.723270	0.583860	-0.000069
1500	1.4915e+02	-19.7192	-58.197330	0.000314	3.142434	1.064686	-0.000126
1501	1.4925e+02	-19.7577	-58.338630	0.000355	3.547910	1.202064	-0.000142
1502	1.4935e+02	-19.7914	-58.463781	0.000314	3.142434	1.064686	-0.000126
1503	1.4945e+02	-19.8331	-58.544524	0.000203	2.027377	0.686894	-0.000081
1504	1.4955e+02	-19.8636	-58.689861	0.000365	3.649279	1.236409	-0.000146
1505	1.4965e+02	-19.9133	-58.827123	0.000345	3.446541	1.167720	-0.000138
1506	1.4975e+02	-19.9534	-58.988609	0.000405	4.054754	1.373788	-0.000162
1507	1.4985e+02	-19.9903	-59.077426	0.000223	2.230115	0.755583	-0.000089
1508	1.4995e+02	-19.9454	-59.045129	0.000081	0.810951	0.274758	0.000032
1509	1.5005e+02	-19.9198	-58.960349	0.000213	2.128746	0.721239	0.000085
1510	1.5015e+02	-19.8668	-58.891718	0.000172	1.723270	0.583860	0.000069
1511	1.5025e+02	-19.8331	-58.903829	-0.000030	-0.304107	-0.103034	-0.000012
1512	1.5034e+02	-19.7898	-58.839235	0.000162	1.621902	0.549515	0.000065
1513	1.5044e+02	-19.7497	-58.718121	0.000304	3.041065	1.030341	0.000122
1514	1.5054e+02	-19.7096	-58.669675	0.000122	1.216426	0.412136	0.000049
1515	1.5064e+02	-19.6695	-58.592970	0.000193	1.926008	0.652549	0.000077
1516	1.5074e+02	-19.6278	-58.483967	0.000274	2.736959	0.927307	0.000110
1517	1.5084e+02	-19.5941	-58.443596	0.000101	1.013688	0.343447	0.000041
1518	1.5094e+02	-19.5540	-58.374964	0.000172	1.723270	0.583860	0.000069
1519	1.5104e+02	-19.5091	-58.326519	0.000122	1.216426	0.412136	0.000049
1520	1.5114e+02	-19.4722	-58.197330	0.000324	3.243803	1.099030	0.000130
1521	1.5124e+02	-19.4385	-58.169070	0.000071	0.709582	0.240413	0.000028
1522	1.5134e+02	-19.4032	-58.124662	0.000112	1.115057	0.377792	0.000045
1523	1.5144e+02	-19.3551	-58.019696	0.000264	2.635590	0.892962	0.000105
1524	1.5154e+02	-19.3198	-58.007585	0.000030	0.304107	0.103034	0.000012
1525	1.5164e+02	-19.2749	-57.959139	0.000122	1.216426	0.412136	0.000049
1526	1.5174e+02	-19.2283	-57.829951	0.000324	3.243803	1.099030	0.000130
1527	1.5184e+02	-19.2011	-57.805728	0.000061	0.608213	0.206068	0.000024
1528	1.5194e+02	-19.1626	-57.704800	0.000253	2.534221	0.858617	0.000101
1529	1.5204e+02	-19.1128	-57.636168	0.000172	1.723270	0.583860	0.000069
1530	1.5214e+02	-19.0791	-57.547351	0.000223	2.230115	0.755583	0.000089
1531	1.5224e+02	-19.0406	-57.515054	0.000081	0.810951	0.274758	0.000032
1532	1.5233e+02	-19.0005	-57.397977	0.000294	2.939697	0.995996	0.000118
1533	1.5243e+02	-18.9604	-57.276863	0.000304	3.041065	1.030341	0.000122
1534	1.5253e+02	-18.9283	-57.188046	0.000223	2.230115	0.755583	0.000089
1535	1.5263e+02	-18.8866	-57.091155	0.000243	2.432852	0.824273	0.000097
1536	1.5273e+02	-18.8417	-57.046747	0.000112	1.115057	0.377792	0.000045
1537	1.5283e+02	-18.8032	-56.957930	0.000223	2.230115	0.755583	0.000089
1538	1.5293e+02	-18.7615	-56.857001	0.000253	2.534221	0.858617	0.000101
1539	1.5303e+02	-18.7326	-56.796444	0.000152	1.520533	0.515170	0.000061
1540	1.5313e+02	-18.6749	-56.703590	0.000233	2.331483	0.789928	0.000093
1541	1.5323e+02	-18.6332	-56.634959	0.000172	1.723270	0.583860	0.000069
1542	1.5333e+02	-18.5979	-56.594587	0.000101	1.013688	0.343447	0.000041
1543	1.5343e+02	-18.5578	-56.529993	0.000162	1.621902	0.549515	0.000065
1544	1.5353e+02	-18.5225	-56.445213	0.000213	2.128746	0.721239	0.000085
1545	1.5363e+02	-18.4743	-56.364471	0.000203	2.027377	0.686894	0.000081
1546	1.5373e+02	-18.4471	-56.275654	0.000223	2.230115	0.755583	0.000089
1547	1.5383e+02	-18.3973	-56.207022	0.000172	1.723270	0.583860	0.000069
1548	1.5393e+02	-18.3653	-56.114168	0.000233	2.331483	0.789928	0.000093
1549	1.5403e+02	-18.3284	-56.045537	0.000172	1.723270	0.583860	0.000069
1550	1.5413e+02	-18.2802	-55.936534	0.000274	2.736959	0.927307	0.000110
1551	1.5422e+02	-18.2449	-55.843680	0.000233	2.331483	0.789928	0.000093
1552	1.5432e+02	-18.2064	-55.750826	0.000233	2.331483	0.789928	0.000093
1553	1.5442e+02	-18.1663	-55.593378	0.000395	3.953385	1.339443	0.000158
1554	1.5452e+02	-18.1278	-55.561081	0.000081	0.810951	0.274758	0.000032
1555	1.5462e+02	-18.0845	-55.472264	0.000223	2.230115	0.755583	0.000089
1556	1.5472e+02	-18.0460	-55.375372	0.000243	2.432852	0.824273	0.000097
1557	1.5482e+02	-18.0011	-55.294630	0.000203	2.027377	0.686894	0.000081
1558	1.5492e+02	-17.9562	-55.213887	0.000203	2.027377	0.686894	0.000081
1559	1.5502e+02	-17.9161	-55.193701	0.000051	0.506844	0.171723	0.000020
1560	1.5512e+02	-17.8728	-55.116996	0.000193	1.926008	0.652549	0.000077
1561	1.5522e+02	-17.8391	-54.975696	0.000355	3.547910	1.202064	0.000142
1562	1.5532e+02	-17.7974	-54.935325	0.000101	1.013688	0.343447	0.000041
1563	1.5542e+02	-17.7637	-54.850545	0.000213	2.128746	0.721239	0.000085
1564	1.5552e+02	-17.7123	-54.725393	0.000314	3.142434	1.064686	0.000126
1565	1.5562e+02	-17.6770	-54.640614	0.000213	2.128746	0.721239	0.000085
1566	1.5572e+02	-17.6369	-54.515462	0.000314	3.142434	1.064686	0.000126
1567	1.5582e+02	-17.6016	-54.483165	0.000081	0.810951	0.274758	0.000032
1568	1.5592e+02	-17.5583	-54.358014	0.000314	3.142434	1.064686	0.000126
1569	1.5602e+02	-17.5198	-54.261123	0.000243	2.432852	0.824273	0.000097
1570	1.5612e+02	-17.4765	-54.200566	0.000152	1.520533	0.515170	0.000061
1571	1.5622e+02	-17.4444	-54.039080	0.000405	4.054754	1.373788	0.000162
1572	1.5631e+02	-17.4091	-53.962375	0.000193	1.926008	0.652549	0.000077
1573	1.5641e+02	-17.3658	-53.865484	0.000243	2.432852	0.824273	0.000097
1574	1.5651e+02	-17.3257	-53.784741	0.000203	2.027377	0.686894	0.000081
1575	1.5661e+02	-17.2824	-53.675738	0.000274	2.736959	0.927307	0.000110
1576	1.5671e+02	-17.2471	-53.643441	0.000081	0.810951	0.274758	0.000032
1577	1.5681e+02	-17.2006	-53.514253	0.000324	3.243803	1.099030	0.000130
1578	1.5691e+02	-17.1653	-53.465807	0.000122	1.216426	0.412136	0.000049
1579	1.5701e+02	-17.1188	-53.389102	0.000193	1.926008	0.652549	0.000077
1580	1.5711e+02	-17.0851	-53.292210	0.000243	2.432852	0.824273	0.000097
1581	1.5721e+02	-17.0450	-53.203393	0.000223	2.230115	0.755583	0.000089
1582	1.5731e+02	-17.0097	-53.171096	0.000081	0.810951	0.274758	0.000032
1583	1.5741e+02	-16.9632	-53.033834	0.000345	3.446541	1.167720	0.000138
1584	1.5751e+02	-16.9214	-52.920794	0.000284	2.838328	0.961651	0.000114
1585	1.5761e+02	-16.8878	-52.827940	0.000233	2.331483	0.789928	0.000093
1586	1.5771e+02	-16.8428	-52.751234	0.000193	1.926008	0.652549	0.000077
1587	1.5781e+02	-16.8059	-52.682603	0.000172	1.723270	0.583860	0.000069
1588	1.5791e+02	-16.7562	-52.553414	0.000324	3.243803	1.099030	0.000130
1589	1.5801e+02	-16.7273	-52.456523	0.000243	2.432852	0.824273	0.000097
1590	1.5811e+02	-16.6856	-52.351558	0.000264	2.635590	0.892962	0.000105
1591	1.5821e+02	-16.6503	-52.266778	0.000213	2.128746	0.721239	0.000085
1592	1.5830e+02	-16.6118	-52.149701	0.000294	2.939697	0.995996	0.000118
1593	1.5840e+02	-16.5685	-52.089144	0.000152	1.520533	0.515170	0.000061
1594	1.5850e+02	-16.5252	-51.963993	0.000314	3.142434	1.064686	0.000126
1595	1.5860e+02	-16.4819	-51.875176	0.000223	2.230115	0.755583	0.000089
1596	1.5870e+02	-16.4402	-51.790396	0.000213	2.128746	0.721239	0.000085
1597	1.5880e+02	-16.4097	-51.713690	0.000193	1.926008	0.652549	0.000077
1598	1.5890e+02	-16.3632	-51.645059	0.000172	1.723270	0.583860	0.000069
1599	1.5900e+02	-16.3183	-51.588539	0.000142	1.419164	0.480826	0.000057
1600	1.5910e+02	-16.2942	-51.475499	0.000284	2.838328	0.961651	0.000114
1601	1.5920e+02	-16.2493	-51.382645	0.000233	2.331483	0.789928	0.000093
1602	1.5930e+02	-16.2011	-51.289791	0.000233	2.331483	0.789928	0.000093
1603	1.5940e+02	-16.1707	-51.188863	0.000253	2.534221	0.858617	0.000101
1604	1.5950e+02	-16.1241	-51.096008	0.000233	2.331483	0.789928	0.000093
1605	1.5960e+02	-16.0889	-51.019303	0.000193	1.926008	0.652549	0.000077
1606	1.5970e+02	-16.0487	-50.906263	0.000284	2.838328	0.961651	0.000114
1607	1.5980e+02	-16.0054	-50.769000	0.000345	3.446541	1.167720	0.000138
1608	1.5990e+02	-15.9750	-50.680183	0.000223	2.230115	0.755583	0.000089
1609	1.6000e+02	-15.9397	-50.627701	0.000132	1.317795	0.446481	0.000053
1610	1.6010e+02	-15.8867	-50.454104	0.000436	4.358860	1.476822	0.000174
1611	1.6019e+02	-15.8562	-50.385473	0.000172	1.723270	0.583860	0.000069
1612	1.6029e+02	-15.8065	-50.308767	0.000193	1.926008	0.652549	0.000077
1613	1.6039e+02	-15.7728	-50.223987	0.000213	2.128746	0.721239	0.000085
1614	1.6049e+02	-15.7279	-50.127096	0.000243	2.432852	0.824273	0.000097
1615	1.6059e+02	-15.6910	-50.078650	0.000122	1.216426	0.412136	0.000049
1616	1.6069e+02	-15.6493	-49.945425	0.000335	3.345172	1.133375	0.000134
1617	1.6079e+02	-15.6108	-49.925239	0.000051	0.506844	0.171723	0.000020
1618	1.6089e+02	-15.5627	-49.800088	0.000314	3.142434	1.064686	0.000126
1619	1.6099e+02	-15.5274	-49.739531	0.000152	1.520533	0.515170	0.000061
1620	1.6109e+02	-15.4889	-49.634565	0.000264	2.635590	0.892962	0.000105
1621	1.6119e+02	-15.4472	-49.557860	0.000193	1.926008	0.652549	0.000077
1622	1.6129e+02	-15.4151	-49.428671	0.000324	3.243803	1.099030	0.000130
1623	1.6139e+02	-15.3637	-49.331780	0.000243	2.432852	0.824273	0.000097
1624	1.6149e+02	-15.3381	-49.238926	0.000233	2.331483	0.789928	0.000093
1625	1.6159e+02	-15.3012	-49.170295	0.000172	1.723270	0.583860	0.000069
1626	1.6169e+02	-15.2530	-49.020921	0.000375	3.750647	1.270754	0.000150
1627	1.6179e+02	-15.2113	-48.907881	0.000284	2.838328	0.961651	0.000114
1628	1.6189e+02	-15.1744	-48.835212	0.000182	1.824639	0.618205	0.000073
1629	1.6199e+02	-15.1311	-48.746395	0.000223	2.230115	0.755583	0.000089
1630	1.6209e+02	-15.0990	-48.633356	0.000284	2.838328	0.961651	0.000114
1631	1.6219e+02	-15.0477	-48.524353	0.000274	2.736959	0.927307	0.000110
1632	1.6228e+02	-15.0172	-48.483982	0.000101	1.013688	0.343447	0.000041
1633	1.6238e+02	-14.9595	-48.407276	0.000193	1.926008	0.652549	0.000077
1634	1.6248e+02	-14.9338	-48.330570	0.000193	1.926008	0.652549	0.000077
1635	1.6258e+02	-14.8905	-48.261939	0.000172	1.723270	0.583860	0.000069
1636	1.6268e+02	-14.8568	-48.100454	0.000405	4.054754	1.373788	0.000162
1637	1.6278e+02	-14.8071	-48.060082	0.000101	1.013688	0.343447	0.000041
1638	1.6288e+02	-14.7782	-47.967228	0.000233	2.331483	0.789928	0.000093
1639	1.6298e+02	-14.7349	-47.862263	0.000264	2.635590	0.892962	0.000105
1640	1.6308e+02	-14.6948	-47.749223	0.000284	2.838328	0.961651	0.000114
1641	1.6318e+02	-14.6579	-47.672517	0.000193	1.926008	0.652549	0.000077
1642	1.6328e+02	-14.6114	-47.567552	0.000264	2.635590	0.892962	0.000105
1643	1.6338e+02	-14.5696	-47.478735	0.000223	2.230115	0.755583	0.000089
1644	1.6348e+02	-14.5392	-47.353584	0.000314	3.142434	1.064686	0.000126
1645	1.6358e+02	-14.4958	-47.272841	0.000203	2.027377	0.686894	0.000081
1646	1.6368e+02	-14.4590	-47.171913	0.000253	2.534221	0.858617	0.000101
1647	1.6378e+02	-14.4253	-47.058873	0.000284	2.838328	0.961651	0.000114
1648	1.6388e+02	-14.3803	-46.974093	0.000213	2.128746	0.721239	0.000085
1649	1.6398e+02	-14.3354	-46.913536	0.000152	1.520533	0.515170	0.000061
1650	1.6408e+02	-14.2953	-46.804533	0.000274	2.736959	0.927307	0.000110
1651	1.6418e+02	-14.2536	-46.731865	0.000182	1.824639	0.618205	0.000073
1652	1.6427e+02	-14.2231	-46.630936	0.000253	2.534221	0.858617	0.000101
1653	1.6437e+02	-14.1846	-46.586528	0.000112	1.115057	0.377792	0.000045
1654	1.6447e+02	-14.1365	-46.469451	0.000294	2.939697	0.995996	0.000118
1655	1.6457e+02	-14.1012	-46.364485	0.000264	2.635590	0.892962	0.000105
1656	1.6467e+02	-14.0515	-46.328151	0.000091	0.912320	0.309102	0.000037
1657	1.6477e+02	-14.0114	-46.259520	0.000172	1.723270	0.583860	0.000069
1658	1.6487e+02	-13.9761	-46.134369	0.000314	3.142434	1.064686	0.000126
1659	1.6497e+02	-13.9328	-46.077849	0.000142	1.419164	0.480826	0.000057
1660	1.6507e+02	-13.9023	-45.916363	0.000405	4.054754	1.373788	0.000162
1661	1.6517e+02	-13.8574	-45.851769	0.000162	1.621902	0.549515	0.000065
1662	1.6527e+02	-13.8173	-45.694321	0.000395	3.953385	1.339443	0.000158
1663	1.6537e+02	-13.7723	-45.617615	0.000193	1.926008	0.652549	0.000077
1664	1.6547e+02	-13.7386	-45.480353	0.000345	3.446541	1.167720	0.000138
1665	1.6557e+02	-13.6937	-45.415758	0.000162	1.621902	0.549515	0.000065
1666	1.6567e+02	-13.6616	-45.314830	0.000253	2.534221	0.858617	0.000101
1667	1.6577e+02	-13.6151	-45.209865	0.000264	2.635590	0.892962	0.000105
1668	1.6587e+02	-13.5718	-45.133159	0.000193	1.926008	0.652549	0.000077
1669	1.6597e+02	-13.5333	-45.068565	0.000162	1.621902	0.549515	0.000065
1670	1.6607e+02	-13.4900	-44.983785	0.000213	2.128746	0.721239	0.000085
1671	1.6616e+02	-13.4547	-44.899005	0.000213	2.128746	0.721239	0.000085
1672	1.6626e+02	-13.4114	-44.769817	0.000324	3.243803	1.099030	0.000130
1673	1.6636e+02	-13.3793	-44.685037	0.000213	2.128746	0.721239	0.000085
1674	1.6646e+02	-13.3440	-44.604294	0.000203	2.027377	0.686894	0.000081
1675	1.6656e+02	-13.2959	-44.535663	0.000172	1.723270	0.583860	0.000069
1676	1.6666e+02	-13.2590	-44.430697	0.000264	2.635590	0.892962	0.000105
1677	1.6676e+02	-13.2205	-44.333806	0.000243	2.432852	0.824273	0.000097
1678	1.6686e+02	-13.1820	-44.244989	0.000223	2.230115	0.755583	0.000089
1679	1.6696e+02	-13.1451	-44.131949	0.000284	2.838328	0.961651	0.000114
1680	1.6706e+02	-13.0905	-44.035058	0.000243	2.432852	0.824273	0.000097
1681	1.6716e+02	-13.0633	-43.934130	0.000253	2.534221	0.858617	0.000101
1682	1.6726e+02	-13.0200	-43.829164	0.000264	2.635590	0.892962	0.000105
1683	1.6736e+02	-12.9815	-43.704013	0.000314	3.142434	1.064686	0.000126
1684	1.6746e+02	-12.9510	-43.590973	0.000284	2.838328	0.961651	0.000114
1685	1.6756e+02	-12.8980	-43.481970	0.000274	2.736959	0.927307	0.000110
1686	1.6766e+02	-12.8611	-43.441599	0.000101	1.013688	0.343447	0.000041
1687	1.6776e+02	-12.8162	-43.308374	0.000335	3.345172	1.133375	0.000134
1688	1.6786e+02	-12.7857	-43.268002	0.000101	1.013688	0.343447	0.000041
1689	1.6796e+02	-12.7488	-43.154962	0.000284	2.838328	0.961651	0.000114
1690	1.6806e+02	-12.7071	-43.094405	0.000152	1.520533	0.515170	0.000061
1691	1.6816e+02	-12.6638	-42.993477	0.000253	2.534221	0.858617	0.000101
1692	1.6825e+02	-12.6157	-42.864289	0.000324	3.243803	1.099030	0.000130
1693	1.6835e+02	-12.5804	-42.771435	0.000233	2.331483	0.789928	0.000093
1694	1.6845e+02	-12.5451	-42.698766	0.000182	1.824639	0.618205	0.000073
1695	1.6855e+02	-12.4986	-42.577652	0.000304	3.041065	1.030341	0.000122
1696	1.6865e+02	-12.4633	-42.448464	0.000324	3.243803	1.099030	0.000130
1697	1.6875e+02	-12.4328	-42.363684	0.000213	2.128746	0.721239	0.000085
1698	1.6885e+02	-12.3895	-42.286978	0.000193	1.926008	0.652549	0.000077
1699	1.6895e+02	-12.3478	-42.177976	0.000274	2.736959	0.927307	0.000110
1700	1.6905e+02	-12.3109	-42.012453	0.000416	4.156123	1.408133	0.000166
1701	1.6915e+02	-12.2660	-41.907488	0.000264	2.635590	0.892962	0.000105
1702	1.6925e+02	-12.2291	-41.846930	0.000152	1.520533	0.515170	0.000061
1703	1.6935e+02	-12.1890	-41.705631	0.000355	3.547910	1.202064	0.000142
1704	1.6945e+02	-12.1408	-41.645074	0.000152	1.520533	0.515170	0.000061
1705	1.6955e+02	-12.0991	-41.548182	0.000243	2.432852	0.824273	0.000097
1706	1.6965e+02	-12.0719	-41.459365	0.000223	2.230115	0.755583	0.000089
1707	1.6975e+02	-12.0269	-41.338251	0.000304	3.041065	1.030341	0.000122
1708	1.6985e+02	-11.9772	-41.261546	0.000193	1.926008	0.652549	0.000077
1709	1.6995e+02	-11.9531	-41.180803	0.000203	2.027377	0.686894	0.000081
1710	1.7005e+02	-11.8938	-41.087949	0.000233	2.331483	0.789928	0.000093
1711	1.7015e+02	-11.8713	-40.970872	0.000294	2.939697	0.995996	0.000118
1712	1.7024e+02	-11.8296	-40.886092	0.000213	2.128746	0.721239	0.000085
1713	1.7034e+02	-11.7911	-40.769015	0.000294	2.939697	0.995996	0.000118
1714	1.7044e+02	-11.7526	-40.627715	0.000355	3.547910	1.202064	0.000142
1715	1.7054e+02	-11.7093	-40.546973	0.000203	2.027377	0.686894	0.000081
1716	1.7064e+02	-11.6740	-40.446044	0.000253	2.534221	0.858617	0.000101
1717	1.7074e+02	-11.6275	-40.320893	0.000314	3.142434	1.064686	0.000126
1718	1.7084e+02	-11.5906	-40.232076	0.000223	2.230115	0.755583	0.000089
1719	1.7094e+02	-11.5425	-40.090776	0.000355	3.547910	1.202064	0.000142
1720	1.7104e+02	-11.5088	-39.957551	0.000335	3.345172	1.133375	0.000134
1721	1.7114e+02	-11.4719	-39.876808	0.000203	2.027377	0.686894	0.000081
1722	1.7124e+02	-11.4237	-39.759731	0.000294	2.939697	0.995996	0.000118
1723	1.7134e+02	-11.3965	-39.699174	0.000152	1.520533	0.515170	0.000061
1724	1.7144e+02	-11.3467	-39.561912	0.000345	3.446541	1.167720	0.000138
1725	1.7154e+02	-11.3034	-39.477132	0.000213	2.128746	0.721239	0.000085
1726	1.7164e+02	-11.2633	-39.416575	0.000152	1.520533	0.515170	0.000061
1727	1.7174e+02	-11.2344	-39.303535	0.000284	2.838328	0.961651	0.000114
1728	1.7184e+02	-11.1879	-39.194532	0.000274	2.736959	0.927307	0.000110
1729	1.7194e+02	-11.1478	-39.101678	0.000233	2.331483	0.789928	0.000093
1730	1.7204e+02	-11.1045	-38.984601	0.000294	2.939697	0.995996	0.000118
1731	1.7213e+02	-11.0628	-38.887710	0.000243	2.432852	0.824273	0.000097
1732	1.7223e+02	-11.0323	-38.774670	0.000284	2.838328	0.961651	0.000114
1733	1.7233e+02	-10.9906	-38.649519	0.000314	3.142434	1.064686	0.000126
1734	1.7243e+02	-10.9473	-38.516294	0.000335	3.345172	1.133375	0.000134
1735	1.7253e+02	-10.9200	-38.447662	0.000172	1.723270	0.583860	0.000069
1736	1.7263e+02	-10.8703	-38.265991	0.000456	4.561598	1.545511	0.000183
1737	1.7273e+02	-10.8270	-38.185248	0.000203	2.027377	0.686894	0.000081
1738	1.7283e+02	-10.7933	-38.052023	0.000335	3.345172	1.133375	0.000134
1739	1.7293e+02	-10.7580	-37.979354	0.000182	1.824639	0.618205	0.000073
1740	1.7303e+02	-10.7195	-37.854203	0.000314	3.142434	1.064686	0.000126
1741	1.7313e+02	-10.6762	-37.761349	0.000233	2.331483	0.789928	0.000093
1742	1.7323e+02	-10.6296	-37.668495	0.000233	2.331483	0.789928	0.000093
1743	1.7333e+02	-10.5976	-37.579678	0.000223	2.230115	0.755583	0.000089
1744	1.7343e+02	-10.5462	-37.466638	0.000284	2.838328	0.961651	0.000114
1745	1.7353e+02	-10.5061	-37.369747	0.000243	2.432852	0.824273	0.000097
1746	1.7363e+02	-10.4676	-37.220373	0.000375	3.750647	1.270754	0.000150
1747	1.7373e+02	-10.4291	-37.135593	0.000213	2.128746	0.721239	0.000085
1748	1.7383e+02	-10.3970	-37.079073	0.000142	1.419164	0.480826	0.000057
1749	1.7393e+02	-10.3441	-36.921625	0.000395	3.953385	1.339443	0.000158
1750	1.7403e+02	-10.3152	-36.792437	0.000324	3.243803	1.099030	0.000130
1751	1.7413e+02	-10.2719	-36.691508	0.000253	2.534221	0.858617	0.000101
1752	1.7422e+02	-10.2366	-36.590580	0.000253	2.534221	0.858617	0.000101
1753	1.7432e+02	-10.1917	-36.509837	0.000203	2.027377	0.686894	0.000081
1754	1.7442e+02	-10.1516	-36.356426	0.000385	3.852016	1.305098	0.000154
1755	1.7452e+02	-10.1163	-36.235312	0.000304	3.041065	1.030341	0.000122
1756	1.7462e+02	-10.0730	-36.130346	0.000264	2.635590	0.892962	0.000105
1757	1.7472e+02	-10.0297	-36.005195	0.000314	3.142434	1.064686	0.000126
1758	1.7482e+02	-9.9863	-35.888118	0.000294	2.939697	0.995996	0.000118
1759	1.7492e+02	-9.9462	-35.855821	0.000081	0.810951	0.274758	0.000032
1760	1.7502e+02	-9.9061	-35.690298	0.000416	4.156123	1.408133	0.000166
1761	1.7512e+02	-9.8628	-35.621667	0.000172	1.723270	0.583860	0.000069
1762	1.7522e+02	-9.8259	-35.496516	0.000314	3.142434	1.064686	0.000126
1763	1.7532e+02	-9.7954	-35.419810	0.000193	1.926008	0.652549	0.000077
1764	1.7542e+02	-9.7553	-35.318882	0.000253	2.534221	0.858617	0.000101
1765	1.7552e+02	-9.7200	-35.165471	0.000385	3.852016	1.305098	0.000154
1766	1.7562e+02	-9.6703	-35.072617	0.000233	2.331483	0.789928	0.000093
1767	1.7572e+02	-9.6334	-34.955540	0.000294	2.939697	0.995996	0.000118
1768	1.7582e+02	-9.6013	-34.866723	0.000223	2.230115	0.755583	0.000089
1769	1.7592e+02	-9.5564	-34.717349	0.000375	3.750647	1.270754	0.000150
1770	1.7602e+02	-9.5131	-34.636606	0.000203	2.027377	0.686894	0.000081
1771	1.7612e+02	-9.4762	-34.535678	0.000253	2.534221	0.858617	0.000101
1772	1.7621e+02	-9.4361	-34.402452	0.000335	3.345172	1.133375	0.000134
1773	1.7631e+02	-9.4072	-34.269227	0.000335	3.345172	1.133375	0.000134
1774	1.7641e+02	-9.3575	-34.156187	0.000284	2.838328	0.961651	0.000114
1775	1.7651e+02	-9.3238	-34.006813	0.000375	3.750647	1.270754	0.000150
1776	1.7661e+02	-9.2725	-33.942219	0.000162	1.621902	0.549515	0.000065
1777	1.7671e+02	-9.2340	-33.833216	0.000274	2.736959	0.927307	0.000110
1778	1.7681e+02	-9.2035	-33.760548	0.000182	1.824639	0.618205	0.000073
1779	1.7691e+02	-9.1554	-33.663656	0.000243	2.432852	0.824273	0.000097
1780	1.7701e+02	-9.1153	-33.498134	0.000416	4.156123	1.408133	0.000166
1781	1.7711e+02	-9.0767	-33.441614	0.000142	1.419164	0.480826	0.000057
1782	1.7721e+02	-9.0302	-33.352797	0.000223	2.230115	0.755583	0.000089
1783	1.7731e+02	-8.9901	-33.183237	0.000426	4.257492	1.442477	0.000170
1784	1.7741e+02	-8.9548	-33.094420	0.000223	2.230115	0.755583	0.000089
1785	1.7751e+02	-8.9179	-32.973306	0.000304	3.041065	1.030341	0.000122
1786	1.7761e+02	-8.8810	-32.908712	0.000162	1.621902	0.549515	0.000065
1787	1.7771e+02	-8.8361	-32.771449	0.000345	3.446541	1.167720	0.000138
1788	1.7781e+02	-8.8024	-32.630150	0.000355	3.547910	1.202064	0.000142
1789	1.7791e+02	-8.7591	-32.504998	0.000314	3.142434	1.064686	0.000126
1790	1.7801e+02	-8.7126	-32.464627	0.000101	1.013688	0.343447	0.000041
1791	1.7810e+02	-8.6629	-32.355624	0.000274	2.736959	0.927307	0.000110
1792	1.7820e+02	-8.6388	-32.202213	0.000385	3.852016	1.305098	0.000154
1793	1.7830e+02	-8.5987	-32.085136	0.000294	2.939697	0.995996	0.000118
1794	1.7840e+02	-8.5602	-31.980171	0.000264	2.635590	0.892962	0.000105
1795	1.7850e+02	-8.5185	-31.895391	0.000213	2.128746	0.721239	0.000085
1796	1.7860e+02	-8.4800	-31.762165	0.000335	3.345172	1.133375	0.000134
1797	1.7870e+02	-8.4415	-31.673348	0.000223	2.230115	0.755583	0.000089
1798	1.7880e+02	-8.4014	-31.564346	0.000274	2.736959	0.927307	0.000110
1799	1.7890e+02	-8.3500	-31.511863	0.000132	1.317795	0.446481	0.000053
1800	1.7900e+02	-8.3131	-31.342303	0.000426	4.257492	1.442477	0.000170
1801	1.7910e+02	-8.2843	-31.225226	0.000294	2.939697	0.995996	0.000118
1802	1.7920e+02	-8.2393	-31.132372	0.000233	2.331483	0.789928	0.000093
1803	1.7930e+02	-8.1976	-31.015295	0.000294	2.939697	0.995996	0.000118
1804	1.7940e+02	-8.1607	-30.938590	0.000193	1.926008	0.652549	0.000077
1805	1.7950e+02	-8.1254	-30.833624	0.000264	2.635590	0.892962	0.000105
1806	1.7960e+02	-8.0789	-30.700399	0.000335	3.345172	1.133375	0.000134
1807	1.7970e+02	-8.0500	-30.575248	0.000314	3.142434	1.064686	0.000126
1808	1.7980e+02	-8.0003	-30.470282	0.000264	2.635590	0.892962	0.000105
1809	1.7990e+02	-7.9666	-30.337057	0.000335	3.345172	1.133375	0.000134
1810	1.8000e+02	-7.9249	-30.264388	0.000182	1.824639	0.618205	0.000073
1811	1.8009e+02	-7.8848	-30.098865	0.000416	4.156123	1.408133	0.000166
1812	1.8019e+02	-7.8399	-30.001974	0.000243	2.432852	0.824273	0.000097
1813	1.8029e+02	-7.7918	-29.921232	0.000203	2.027377	0.686894	0.000081
1814	1.8039e+02	-7.7549	-29.828377	0.000233	2.331483	0.789928	0.000093
1815	1.8049e+02	-7.7196	-29.715338	0.000284	2.838328	0.961651	0.000114
1816	1.8059e+02	-7.6811	-29.582112	0.000335	3.345172	1.133375	0.000134
1817	1.8069e+02	-7.6442	-29.493295	0.000223	2.230115	0.755583	0.000089
1818	1.8079e+02	-7.5928	-29.392367	0.000253	2.534221	0.858617	0.000101
1819	1.8089e+02	-7.5559	-29.315661	0.000193	1.926008	0.652549	0.000077
1820	1.8099e+02	-7.5190	-29.146101	0.000426	4.257492	1.442477	0.000170
1821	1.8109e+02	-7.4789	-29.097656	0.000122	1.216426	0.412136	0.000049
1822	1.8119e+02	-7.4436	-28.968467	0.000324	3.243803	1.099030	0.000130
1823	1.8129e+02	-7.4148	-28.831205	0.000345	3.446541	1.167720	0.000138
1824	1.8139e+02	-7.3602	-28.710091	0.000304	3.041065	1.030341	0.000122
1825	1.8149e+02	-7.3201	-28.633385	0.000193	1.926008	0.652549	0.000077
1826	1.8159e+02	-7.2880	-28.520345	0.000284	2.838328	0.961651	0.000114
1827	1.8169e+02	-7.2511	-28.419417	0.000253	2.534221	0.858617	0.000101
1828	1.8179e+02	-7.2174	-28.310414	0.000274	2.736959	0.927307	0.000110
1829	1.8189e+02	-7.1645	-28.169115	0.000355	3.547910	1.202064	0.000142
1830	1.8199e+02	-7.1244	-28.084335	0.000213	2.128746	0.721239	0.000085
1831	1.8209e+02	-7.0923	-27.975332	0.000274	2.736959	0.927307	0.000110
1832	1.8218e+02	-7.0474	-27.866329	0.000274	2.736959	0.927307	0.000110
1833	1.8228e+02	-7.0041	-27.761364	0.000264	2.635590	0.892962	0.000105
1834	1.8238e+02	-6.9672	-27.660436	0.000253	2.534221	0.858617	0.000101
1835	1.8248e+02	-6.9287	-27.515099	0.000365	3.649279	1.236409	0.000146
1836	1.8258e+02	-6.8838	-27.414170	0.000253	2.534221	0.858617	0.000101
1837	1.8268e+02	-6.8485	-27.268833	0.000365	3.649279	1.236409	0.000146
1838	1.8278e+02	-6.8132	-27.171942	0.000243	2.432852	0.824273	0.000097
1839	1.8288e+02	-6.7650	-27.071014	0.000253	2.534221	0.858617	0.000101
1840	1.8298e+02	-6.7298	-26.982197	0.000223	2.230115	0.755583	0.000089
1841	1.8308e+02	-6.6880	-26.869157	0.000284	2.838328	0.961651	0.000114
1842	1.8318e+02	-6.6511	-26.731894	0.000345	3.446541	1.167720	0.000138
1843	1.8328e+02	-6.6094	-26.639040	0.000233	2.331483	0.789928	0.000093
1844	1.8338e+02	-6.5677	-26.505815	0.000335	3.345172	1.133375	0.000134
1845	1.8348e+02	-6.5212	-26.380663	0.000314	3.142434	1.064686	0.000126
1846	1.8358e+02	-6.4923	-26.283772	0.000243	2.432852	0.824273	0.000097
1847	1.8368e+02	-6.4474	-26.194955	0.000223	2.230115	0.755583	0.000089
1848	1.8378e+02	-6.4089	-26.057693	0.000345	3.446541	1.167720	0.000138
1849	1.8388e+02	-6.3624	-25.989061	0.000172	1.723270	0.583860	0.000069
1850	1.8398e+02	-6.3287	-25.904281	0.000213	2.128746	0.721239	0.000085
1851	1.8407e+02	-6.2934	-25.775093	0.000324	3.243803	1.099030	0.000130
1852	1.8417e+02	-6.2469	-25.645905	0.000324	3.243803	1.099030	0.000130
1853	1.8427e+02	-6.2068	-25.516716	0.000324	3.243803	1.099030	0.000130
1854	1.8437e+02	-6.1763	-25.391565	0.000314	3.142434	1.064686	0.000126
1855	1.8447e+02	-6.1330	-25.258340	0.000335	3.345172	1.133375	0.000134
1856	1.8457e+02	-6.1009	-25.185671	0.000182	1.824639	0.618205	0.000073
1857	1.8467e+02	-6.0544	-25.092817	0.000233	2.331483	0.789928	0.000093
1858	1.8477e+02	-6.0191	-24.947480	0.000365	3.649279	1.236409	0.000146
1859	1.8487e+02	-5.9694	-24.822329	0.000314	3.142434	1.064686	0.000126
1860	1.8497e+02	-5.9276	-24.717364	0.000264	2.635590	0.892962	0.000105
1861	1.8507e+02	-5.8972	-24.567990	0.000375	3.750647	1.270754	0.000150
1862	1.8517e+02	-5.8522	-24.434764	0.000335	3.345172	1.133375	0.000134
1863	1.8527e+02	-5.8218	-24.337873	0.000243	2.432852	0.824273	0.000097
1864	1.8537e+02	-5.7768	-24.224833	0.000284	2.838328	0.961651	0.000114
1865	1.8547e+02	-5.7319	-24.131979	0.000233	2.331483	0.789928	0.000093
1866	1.8557e+02	-5.6918	-23.990679	0.000355	3.547910	1.202064	0.000142
1867	1.8567e+02	-5.6485	-23.873602	0.000294	2.939697	0.995996	0.000118
1868	1.8577e+02	-5.6004	-23.800934	0.000182	1.824639	0.618205	0.000073
1869	1.8587e+02	-5.5731	-23.687894	0.000284	2.838328	0.961651	0.000114
1870	1.8597e+02	-5.5314	-23.558706	0.000324	3.243803	1.099030	0.000130
1871	1.8606e+02	-5.4849	-23.389146	0.000426	4.257492	1.442477	0.000170
1872	1.8616e+02	-5.4528	-23.284180	0.000264	2.635590	0.892962	0.000105
1873	1.8626e+02	-5.4063	-23.191326	0.000233	2.331483	0.789928	0.000093
1874	1.8636e+02	-5.3726	-23.070212	0.000304	3.041065	1.030341	0.000122
1875	1.8646e+02	-5.3341	-22.928912	0.000355	3.547910	1.202064	0.000142
1876	1.8656e+02	-5.2876	-22.836058	0.000233	2.331483	0.789928	0.000093
1877	1.8666e+02	-5.2571	-22.674573	0.000405	4.054754	1.373788	0.000162
1878	1.8676e+02	-5.2154	-22.577682	0.000243	2.432852	0.824273	0.000097
1879	1.8686e+02	-5.1785	-22.488865	0.000223	2.230115	0.755583	0.000089
1880	1.8696e+02	-5.1271	-22.335453	0.000385	3.852016	1.305098	0.000154
1881	1.8706e+02	-5.0983	-22.226451	0.000274	2.736959	0.927307	0.000110
1882	1.8716e+02	-5.0614	-22.133597	0.000233	2.331483	0.789928	0.000093
1883	1.8726e+02	-5.0164	-22.012483	0.000304	3.041065	1.030341	0.000122
1884	1.8736e+02	-4.9811	-21.907517	0.000264	2.635590	0.892962	0.000105
1885	1.8746e+02	-4.9362	-21.758143	0.000375	3.750647	1.270754	0.000150
1886	1.8756e+02	-4.8929	-21.620880	0.000345	3.446541	1.167720	0.000138
1887	1.8766e+02	-4.8480	-21.519952	0.000253	2.534221	0.858617	0.000101
1888	1.8776e+02	-4.8207	-21.370578	0.000375	3.750647	1.270754	0.000150
1889	1.8786e+02	-4.7742	-21.225241	0.000365	3.649279	1.236409	0.000146
1890	1.8796e+02	-4.7357	-21.128350	0.000243	2.432852	0.824273	0.000097
1891	1.8806e+02	-4.6940	-21.019347	0.000274	2.736959	0.927307	0.000110
1892	1.8815e+02	-4.6571	-20.890159	0.000324	3.243803	1.099030	0.000130
1893	1.8825e+02	-4.6106	-20.748859	0.000355	3.547910	1.202064	0.000142
1894	1.8835e+02	-4.5769	-20.639856	0.000274	2.736959	0.927307	0.000110
1895	1.8845e+02	-4.5336	-20.518742	0.000304	3.041065	1.030341	0.000122
1896	1.8855e+02	-4.4999	-20.389554	0.000324	3.243803	1.099030	0.000130
1897	1.8865e+02	-4.4566	-20.236143	0.000385	3.852016	1.305098	0.000154
1898	1.8875e+02	-4.4229	-20.115029	0.000304	3.041065	1.030341	0.000122
1899	1.8885e+02	-4.3731	-20.046398	0.000172	1.723270	0.583860	0.000069
1900	1.8895e+02	-4.3362	-19.897023	0.000375	3.750647	1.270754	0.000150
1901	1.8905e+02	-4.3026	-19.788021	0.000274	2.736959	0.927307	0.000110
1902	1.8915e+02	-4.2560	-19.683055	0.000264	2.635590	0.892962	0.000105
1903	1.8925e+02	-4.2239	-19.497347	0.000466	4.662967	1.579856	0.000187
1904	1.8935e+02	-4.1806	-19.404493	0.000233	2.331483	0.789928	0.000093
1905	1.8945e+02	-4.1405	-19.307602	0.000243	2.432852	0.824273	0.000097
1906	1.8955e+02	-4.1004	-19.198599	0.000274	2.736959	0.927307	0.000110
1907	1.8965e+02	-4.0651	-19.057299	0.000355	3.547910	1.202064	0.000142
1908	1.8975e+02	-4.0218	-18.940222	0.000294	2.939697	0.995996	0.000118
1909	1.8985e+02	-3.9769	-18.774700	0.000416	4.156123	1.408133	0.000166
1910	1.8995e+02	-3.9480	-18.637437	0.000345	3.446541	1.167720	0.000138
1911	1.9004e+02	-3.8935	-18.532472	0.000264	2.635590	0.892962	0.000105
1912	1.9014e+02	-3.8550	-18.419432	0.000284	2.838328	0.961651	0.000114
1913	1.9024e+02	-3.8181	-18.286206	0.000335	3.345172	1.133375	0.000134
1914	1.9034e+02	-3.7716	-18.152981	0.000335	3.345172	1.133375	0.000134
1915	1.9044e+02	-3.7347	-18.011681	0.000355	3.547910	1.202064	0.000142
1916	1.9054e+02	-3.6994	-17.898641	0.000284	2.838328	0.961651	0.000114
1917	1.9064e+02	-3.6609	-17.789639	0.000274	2.736959	0.927307	0.000110
1918	1.9074e+02	-3.6272	-17.680636	0.000274	2.736959	0.927307	0.000110
1919	1.9084e+02	-3.5806	-17.563559	0.000294	2.939697	0.995996	0.000118
1920	1.9094e+02	-3.5389	-17.414185	0.000375	3.750647	1.270754	0.000150
1921	1.9104e+02	-3.4972	-17.289034	0.000314	3.142434	1.064686	0.000126
1922	1.9114e+02	-3.4539	-17.155808	0.000335	3.345172	1.133375	0.000134
1923	1.9124e+02	-3.4122	-17.071028	0.000213	2.128746	0.721239	0.000085
1924	1.9134e+02	-3.3785	-16.921654	0.000375	3.750647	1.270754	0.000150
1925	1.9144e+02	-3.3432	-16.784392	0.000345	3.446541	1.167720	0.000138
1926	1.9154e+02	-3.3095	-16.635018	0.000375	3.750647	1.270754	0.000150
1927	1.9164e+02	-3.2614	-16.542164	0.000233	2.331483	0.789928	0.000093
1928	1.9174e+02	-3.2229	-16.376641	0.000416	4.156123	1.408133	0.000166
1929	1.9184e+02	-3.1828	-16.255527	0.000304	3.041065	1.030341	0.000122
1930	1.9194e+02	-3.1411	-16.102116	0.000385	3.852016	1.305098	0.000154
1931	1.9203e+02	-3.1026	-16.041559	0.000152	1.520533	0.515170	0.000061
1932	1.9213e+02	-3.0625	-15.831628	0.000527	5.271180	1.785924	0.000211
1933	1.9223e+02	-3.0240	-15.738774	0.000233	2.331483	0.789928	0.000093
1934	1.9233e+02	-2.9759	-15.613622	0.000314	3.142434	1.064686	0.000126
1935	1.9243e+02	-2.9454	-15.472323	0.000355	3.547910	1.202064	0.000142
1936	1.9253e+02	-2.9101	-15.367357	0.000264	2.635590	0.892962	0.000105
1937	1.9263e+02	-2.8620	-15.250280	0.000294	2.939697	0.995996	0.000118
1938	1.9273e+02	-2.8251	-15.108980	0.000355	3.547910	1.202064	0.000142
1939	1.9283e+02	-2.7817	-14.991904	0.000294	2.939697	0.995996	0.000118
1940	1.9293e+02	-2.7481	-14.878864	0.000284	2.838328	0.961651	0.000114
1941	1.9303e+02	-2.7095	-14.745638	0.000335	3.345172	1.133375	0.000134
1942	1.9313e+02	-2.6630	-14.592227	0.000385	3.852016	1.305098	0.000154
1943	1.9323e+02	-2.6229	-14.527633	0.000162	1.621902	0.549515	0.000065
1944	1.9333e+02	-2.5844	-14.406519	0.000304	3.041065	1.030341	0.000122
1945	1.9343e+02	-2.5443	-14.236959	0.000426	4.257492	1.442477	0.000170
1946	1.9353e+02	-2.5026	-14.099697	0.000345	3.446541	1.167720	0.000138
1947	1.9363e+02	-2.4497	-13.990694	0.000274	2.736959	0.927307	0.000110
1948	1.9373e+02	-2.4224	-13.813060	0.000446	4.460229	1.511167	0.000179
1949	1.9383e+02	-2.3919	-13.748466	0.000162	1.621902	0.549515	0.000065
1950	1.9393e+02	-2.3438	-13.659649	0.000223	2.230115	0.755583	0.000089
1951	1.9403e+02	-2.3085	-13.486052	0.000436	4.358860	1.476822	0.000174
1952	1.9412e+02	-2.2668	-13.344752	0.000355	3.547910	1.202064	0.000142
1953	1.9422e+02	-2.2235	-13.259972	0.000213	2.128746	0.721239	0.000085
1954	1.9432e+02	-2.1866	-13.110598	0.000375	3.750647	1.270754	0.000150
1955	1.9442e+02	-2.1384	-13.017744	0.000233	2.331483	0.789928	0.000093
1956	1.9452e+02	-2.1112	-12.832036	0.000466	4.662967	1.579856	0.000187
1957	1.9462e+02	-2.0743	-12.718996	0.000284	2.838328	0.961651	0.000114
1958	1.9472e+02	-2.0294	-12.601919	0.000294	2.939697	0.995996	0.000118
1959	1.9482e+02	-1.9876	-12.500991	0.000253	2.534221	0.858617	0.000101
1960	1.9492e+02	-1.9395	-12.347580	0.000385	3.852016	1.305098	0.000154
1961	1.9502e+02	-1.9058	-12.274911	0.000182	1.824639	0.618205	0.000073
1962	1.9512e+02	-1.8641	-12.145723	0.000324	3.243803	1.099030	0.000130
1963	1.9522e+02	-1.8256	-12.020572	0.000314	3.142434	1.064686	0.000126
1964	1.9532e+02	-1.7855	-11.855049	0.000416	4.156123	1.408133	0.000166
1965	1.9542e+02	-1.7486	-11.737972	0.000294	2.939697	0.995996	0.000118
1966	1.9552e+02	-1.7149	-11.588598	0.000375	3.750647	1.270754	0.000150
1967	1.9562e+02	-1.6828	-11.491707	0.000243	2.432852	0.824273	0.000097
1968	1.9572e+02	-1.6171	-11.322147	0.000426	4.257492	1.442477	0.000170
1969	1.9582e+02	-1.5914	-11.257553	0.000162	1.621902	0.549515	0.000065
1970	1.9592e+02	-1.5513	-11.100105	0.000395	3.953385	1.339443	0.000158
1971	1.9601e+02	-1.5128	-11.015325	0.000213	2.128746	0.721239	0.000085
1972	1.9611e+02	-1.4759	-10.861914	0.000385	3.852016	1.305098	0.000154
1973	1.9621e+02	-1.4358	-10.716577	0.000365	3.649279	1.236409	0.000146
1974	1.9631e+02	-1.3893	-10.583351	0.000335	3.345172	1.133375	0.000134
1975	1.9641e+02	-1.3636	-10.454163	0.000324	3.243803	1.099030	0.000130
1976	1.9651e+02	-1.3091	-10.365346	0.000223	2.230115	0.755583	0.000089
1977	1.9661e+02	-1.2673	-10.191749	0.000436	4.358860	1.476822	0.000174
1978	1.9671e+02	-1.2288	-10.111006	0.000203	2.027377	0.686894	0.000081
1979	1.9681e+02	-1.1984	-9.977781	0.000335	3.345172	1.133375	0.000134
1980	1.9691e+02	-1.1454	-9.897038	0.000203	2.027377	0.686894	0.000081
1981	1.9701e+02	-1.1117	-9.783998	0.000284	2.838328	0.961651	0.000114
1982	1.9711e+02	-1.0668	-9.614439	0.000426	4.257492	1.442477	0.000170
1983	1.9721e+02	-1.0267	-9.505436	0.000274	2.736959	0.927307	0.000110
1984	1.9731e+02	-0.9930	-9.372211	0.000335	3.345172	1.133375	0.000134
1985	1.9741e+02	-0.9593	-9.234948	0.000345	3.446541	1.167720	0.000138
1986	1.9751e+02	-0.9144	-9.089611	0.000365	3.649279	1.236409	0.000146
1987	1.9761e+02	-0.8695	-8.980608	0.000274	2.736959	0.927307	0.000110
1988	1.9771e+02	-0.8326	-8.859494	0.000304	3.041065	1.030341	0.000122
1989	1.9781e+02	-0.7877	-8.714157	0.000365	3.649279	1.236409	0.000146
1990	1.9791e+02	-0.7508	-8.589006	0.000314	3.142434	1.064686	0.000126
1991	1.9800e+02	-0.7027	-8.463855	0.000314	3.142434	1.064686	0.000126
1992	1.9810e+02	-0.6690	-8.342741	0.000304	3.041065	1.030341	0.000122
1993	1.9820e+02	-0.6369	-8.233738	0.000274	2.736959	0.927307	0.000110
1994	1.9830e+02	-0.6000	-8.116661	0.000294	2.939697	0.995996	0.000118
1995	1.9840e+02	-0.5567	-7.959213	0.000395	3.953385	1.339443	0.000158
1996	1.9850e+02	-0.5069	-7.813876	0.000365	3.649279	1.236409	0.000146
1997	1.9860e+02	-0.4668	-7.741208	0.000182	1.824639	0.618205	0.000073
1998	1.9870e+02	-0.4331	-7.599908	0.000355	3.547910	1.202064	0.000142
1999	1.9880e+02	-0.3930	-7.478794	0.000304	3.041065	1.030341	0.000122
2000	1.9890e+02	-0.3529	-7.369791	0.000274	2.736959	0.927307	0.000110
2001	1.9900e+02	-0.3160	-7.228492	0.000355	3.547910	1.202064	0.000142
2002	1.9910e+02	-0.2695	-7.079118	0.000375	3.750647	1.270754	0.000150
2003	1.9920e+02	-0.2310	-6.933781	0.000365	3.649279	1.236409	0.000146
2004	1.9930e+02	-0.1909	-6.844964	0.000223	2.230115	0.755583	0.000089
2005	1.9940e+02	-0.1524	-6.707701	0.000345	3.446541	1.167720	0.000138
2006	1.9950e+02	-0.1219	-6.578513	0.000324	3.243803	1.099030	0.000130
2007	1.9960e+02	-0.0706	-6.473547	0.000264	2.635590	0.892962	0.000105
2008	1.9970e+02	-0.0369	-6.308025	0.000416	4.156123	1.408133	0.000166
2009	1.9980e+02	0.0048	-6.186911	0.000416	4.156123	1.408133	0.000122

PMax (uC/cm2):	6.34e+01
Pr (uC/cm2):	2.59e+00
-Pr (uC/cm2):	-1.82e+00
PLoss (uC/cm2):	-1.74e+00
-Vc:	-7.95e-01
C (Max-Eff) (nF):	3.17e-01
K (Eff):	1.08e+03
Vert. (+/-Pr) Shift (uC/cm2):	3.88e-01
Offset (uC/cm2):	4.37e+00

A (Loop Area - uC/cm2·Volts):	1.46e-02



Hysteresis Version: 5.48.1 - Radiant Technologies, Inc., 1999 - 9/12/24

