»»»»»»»»»»»»»»»»»»»»»»»»»»»»»»»»»»»» Hysteresis ««««««««««««««««««««««««««««««««««««
»»»  Executed Version:	5.48.1
»»»  Vision Version:	5.48.4 (R)
»»»  Vision Compiled:	9/18/24
»»»  Driver Version:	5.47.0
»»»  Windows Version:	Windows 8 or 8.1
»»»  Processor Information:	x86 (AMD or Intel) - 32 Processors
»»»  Tester Name:	PMF21124-494 (100V)
»»»  Tester S/N:	PMF21124-494
»»»  Internal Amp Type:	100V RevK 270k
»»»  Internal Amp S/N:	iAB2-596/K     
»»»  Execution Count:	1
»»»»»»»»»»»»»»»»»»»»»»»»»»»»»»»»»»»»»»»»»»««««««««««««««««««««««««««««««««««««««««««

Stored:	6/19/2025 - 17:40:5
Configured:	06/19/25 10:04:32 AM
Executed:	06/19/25 05:39:35 PM

»»»»»»»»»»»»»»»»»»»»»»»»»»»»»»»»»»» Sample Info ««««««««««««««««««««««««««««««««««««
Sample Name:	
Lot Name:	
Wafer Name:	
Die Row/Column:	0/0
Capacitor Number:	0
Sample Area (cm2):	1.00e-04
Sample Thickness (microns):	3.00e-01

Amplifier:	Internal

»»»»»»»»»»»»»»»»»»»»»»»»»»»»»»»»»»» Tester Info «««««««««««««««««««««««««««««««««««
Tester Name:	PMF21124-494 (100V)
Tester Serial Number:	PMF21124-494
Return Signal Amp. Level:	0.19 [Index: 3]

»»»»»»»»»»»»»»»»»»»»»»»»»»»»»»»» Hysteresis Info ««««««««««««««««««««««««««««««««««
Task Name:	Hyst-1168
Volts:	20.00
Field:	666.67 (kV/cm)
DCBias:	0.00
DCField:	0.00 (kV/cm)
Hysteresis Period (ms):	2.00e+02
Preset:	Enabled
Preset Delay (ms):	1.00e+03
Profile:	Standard Bipolar

»»»»»»»»»»»»»»»»»»»»»»»»»»»»»»»»»»»»»» Data «««««««««««««««««««««««««««««««««««««««
Points:	2009

Valid Data

Point	Time (ms)	Drive Voltage	Measured Polarization (uC/cm2)	Capacitance (uF)	Normalized Capacitance (uF/cm2)	Dielectric Constant	Instantaneous Current (mA)
   1	0.0000e+00	0.0064	-4.553889	0.000223	2.229399	0.755341	0.000089
   2	9.9500e-02	0.0369	-4.465072	0.000223	2.229399	0.755341	0.000089
   3	1.9900e-01	0.0802	-4.303587	0.000405	4.053453	1.373347	0.000162
   4	2.9850e-01	0.1155	-4.226881	0.000193	1.925390	0.652340	0.000077
   5	3.9800e-01	0.1556	-4.081544	0.000365	3.648108	1.236012	0.000146
   6	4.9750e-01	0.1909	-3.952356	0.000324	3.242762	1.098678	0.000130
   7	5.9700e-01	0.2406	-3.807019	0.000365	3.648108	1.236012	0.000146
   8	6.9650e-01	0.2743	-3.710128	0.000243	2.432072	0.824008	0.000097
   9	7.9600e-01	0.3128	-3.641496	0.000172	1.722717	0.583672	0.000069
  10	8.9550e-01	0.3561	-3.480011	0.000405	4.053453	1.373347	0.000162
  11	9.9500e-01	0.4027	-3.326600	0.000385	3.850780	1.304680	0.000154
  12	1.0945e+00	0.4396	-3.213560	0.000284	2.837417	0.961343	0.000114
  13	1.1940e+00	0.4716	-3.076297	0.000345	3.445435	1.167345	0.000138
  14	1.2935e+00	0.5101	-3.027852	0.000122	1.216036	0.412004	0.000049
  15	1.3930e+00	0.5551	-2.838106	0.000476	4.762807	1.613683	0.000191
  16	1.4925e+00	0.5936	-2.777549	0.000152	1.520045	0.515005	0.000061
  17	1.5920e+00	0.6369	-2.620101	0.000395	3.952117	1.339013	0.000158
  18	1.6915e+00	0.6722	-2.474764	0.000365	3.648108	1.236012	0.000146
  19	1.7910e+00	0.7155	-2.341539	0.000334	3.344099	1.133011	0.000134
  20	1.8905e+00	0.7508	-2.200239	0.000355	3.546771	1.201679	0.000142
  21	1.9900e+00	0.7909	-2.107385	0.000233	2.330735	0.789675	0.000093
  22	2.0895e+00	0.8374	-1.974159	0.000334	3.344099	1.133011	0.000134
  23	2.1890e+00	0.8727	-1.828822	0.000365	3.648108	1.236012	0.000146
  24	2.2885e+00	0.9112	-1.691560	0.000345	3.445435	1.167345	0.000138
  25	2.3880e+00	0.9497	-1.578520	0.000284	2.837417	0.961343	0.000114
  26	2.4875e+00	0.9914	-1.449332	0.000324	3.242762	1.098678	0.000130
  27	2.5870e+00	1.0331	-1.287846	0.000405	4.053453	1.373347	0.000162
  28	2.6865e+00	1.0668	-1.199029	0.000223	2.229399	0.755341	0.000089
  29	2.7860e+00	1.1085	-1.029470	0.000426	4.256126	1.442014	0.000170
  30	2.8855e+00	1.1534	-0.928541	0.000253	2.533408	0.858342	0.000101
  31	2.9850e+00	1.1968	-0.771093	0.000395	3.952117	1.339013	0.000158
  32	3.0845e+00	1.2240	-0.641905	0.000324	3.242762	1.098678	0.000130
  33	3.1840e+00	1.2657	-0.520791	0.000304	3.040090	1.030010	0.000122
  34	3.2835e+00	1.3155	-0.379491	0.000355	3.546771	1.201679	0.000142
  35	3.3830e+00	1.3588	-0.213968	0.000415	4.154789	1.407681	0.000166
  36	3.4825e+00	1.3989	-0.161485	0.000132	1.317372	0.446338	0.000053
  37	3.5820e+00	1.4342	-0.020186	0.000355	3.546771	1.201679	0.000142
  38	3.6815e+00	1.4727	0.129188	0.000375	3.749444	1.270346	0.000150
  39	3.7810e+00	1.5208	0.230117	0.000253	2.533408	0.858342	0.000101
  40	3.8805e+00	1.5529	0.363342	0.000334	3.344099	1.133011	0.000134
  41	3.9800e+00	1.5946	0.452159	0.000223	2.229399	0.755341	0.000089
  42	4.0795e+00	1.6331	0.674202	0.000557	5.573498	1.888352	0.000223
  43	4.1790e+00	1.6748	0.775130	0.000253	2.533408	0.858342	0.000101
  44	4.2785e+00	1.7149	0.888170	0.000284	2.837417	0.961343	0.000114
  45	4.3780e+00	1.7518	1.021395	0.000334	3.344099	1.133011	0.000134
  46	4.4775e+00	1.7887	1.154621	0.000334	3.344099	1.133011	0.000134
  47	4.5770e+00	1.8320	1.308032	0.000385	3.850780	1.304680	0.000154
  48	4.6765e+00	1.8753	1.404923	0.000243	2.432072	0.824008	0.000097
  49	4.7760e+00	1.9138	1.522000	0.000294	2.938753	0.995677	0.000118
  50	4.8755e+00	1.9540	1.699634	0.000446	4.458798	1.510682	0.000179
  51	4.9750e+00	1.9860	1.808637	0.000274	2.736081	0.927009	0.000110
  52	5.0745e+00	2.0278	1.925714	0.000294	2.938753	0.995677	0.000118
  53	5.1740e+00	2.0646	2.071051	0.000365	3.648108	1.236012	0.000146
  54	5.2735e+00	2.1144	2.208313	0.000345	3.445435	1.167345	0.000138
  55	5.3730e+00	2.1481	2.272907	0.000162	1.621381	0.549339	0.000065
  56	5.4725e+00	2.1882	2.430356	0.000395	3.952117	1.339013	0.000158
  57	5.5720e+00	2.2235	2.591841	0.000405	4.053453	1.373347	0.000162
  58	5.6715e+00	2.2732	2.716992	0.000314	3.141426	1.064344	0.000126
  59	5.7710e+00	2.3117	2.874441	0.000395	3.952117	1.339013	0.000158
  60	5.8705e+00	2.3470	2.983443	0.000274	2.736081	0.927009	0.000110
  61	5.9700e+00	2.3935	3.132817	0.000375	3.749444	1.270346	0.000150
  62	6.0695e+00	2.4288	3.245857	0.000284	2.837417	0.961343	0.000114
  63	6.1690e+00	2.4705	3.407343	0.000405	4.053453	1.373347	0.000162
  64	6.2685e+00	2.5058	3.496160	0.000223	2.229399	0.755341	0.000089
  65	6.3680e+00	2.5475	3.637459	0.000355	3.546771	1.201679	0.000142
  66	6.4675e+00	2.5956	3.746462	0.000274	2.736081	0.927009	0.000110
  67	6.5670e+00	2.6245	3.907947	0.000405	4.053453	1.373347	0.000162
  68	6.6665e+00	2.6678	4.020987	0.000284	2.837417	0.961343	0.000114
  69	6.7660e+00	2.7047	4.158250	0.000345	3.445435	1.167345	0.000138
  70	6.8655e+00	2.7529	4.279364	0.000304	3.040090	1.030010	0.000122
  71	6.9650e+00	2.7930	4.408552	0.000324	3.242762	1.098678	0.000130
  72	7.0645e+00	2.8347	4.549852	0.000355	3.546771	1.201679	0.000142
  73	7.1640e+00	2.8732	4.695189	0.000365	3.648108	1.236012	0.000146
  74	7.2635e+00	2.9085	4.735560	0.000101	1.013363	0.343337	0.000041
  75	7.3630e+00	2.9518	4.941454	0.000517	5.168152	1.751017	0.000207
  76	7.4625e+00	2.9951	5.050457	0.000274	2.736081	0.927009	0.000110
  77	7.5620e+00	3.0272	5.232128	0.000456	4.560135	1.545015	0.000183
  78	7.6615e+00	3.0641	5.337093	0.000263	2.634744	0.892676	0.000105
  79	7.7610e+00	3.0978	5.470319	0.000334	3.344099	1.133011	0.000134
  80	7.8605e+00	3.1539	5.583359	0.000284	2.837417	0.961343	0.000114
  81	7.9600e+00	3.1892	5.740807	0.000395	3.952117	1.339013	0.000158
  82	8.0595e+00	3.2165	5.853847	0.000284	2.837417	0.961343	0.000114
  83	8.1590e+00	3.2582	6.003221	0.000375	3.749444	1.270346	0.000150
  84	8.2585e+00	3.3095	6.104149	0.000253	2.533408	0.858342	0.000101
  85	8.3580e+00	3.3464	6.297932	0.000486	4.864143	1.648016	0.000195
  86	8.4575e+00	3.3785	6.402897	0.000263	2.634744	0.892676	0.000105
  87	8.5570e+00	3.4234	6.503826	0.000253	2.533408	0.858342	0.000101
  88	8.6565e+00	3.4684	6.681460	0.000446	4.458798	1.510682	0.000179
  89	8.7560e+00	3.5052	6.806611	0.000314	3.141426	1.064344	0.000126
  90	8.8555e+00	3.5470	6.923688	0.000294	2.938753	0.995677	0.000118
  91	8.9550e+00	3.5839	7.060950	0.000345	3.445435	1.167345	0.000138
  92	9.0545e+00	3.6208	7.178027	0.000294	2.938753	0.995677	0.000118
  93	9.1540e+00	3.6528	7.287030	0.000274	2.736081	0.927009	0.000110
  94	9.2535e+00	3.7042	7.436404	0.000375	3.749444	1.270346	0.000150
  95	9.3530e+00	3.7379	7.605964	0.000426	4.256126	1.442014	0.000170
  96	9.4525e+00	3.7860	7.719004	0.000284	2.837417	0.961343	0.000114
  97	9.5520e+00	3.8293	7.900675	0.000456	4.560135	1.545015	0.000183
  98	9.6515e+00	3.8646	7.997566	0.000243	2.432072	0.824008	0.000097
  99	9.7510e+00	3.9079	8.150977	0.000385	3.850780	1.304680	0.000154
 100	9.8505e+00	3.9496	8.255943	0.000263	2.634744	0.892676	0.000105
 101	9.9500e+00	3.9881	8.401279	0.000365	3.648108	1.236012	0.000146
 102	1.0050e+01	4.0186	8.542579	0.000355	3.546771	1.201679	0.000142
 103	1.0149e+01	4.0603	8.651582	0.000274	2.736081	0.927009	0.000110
 104	1.0248e+01	4.1068	8.813067	0.000405	4.053453	1.373347	0.000162
 105	1.0348e+01	4.1405	8.918033	0.000263	2.634744	0.892676	0.000105
 106	1.0447e+01	4.1758	9.014924	0.000243	2.432072	0.824008	0.000097
 107	1.0547e+01	4.2111	9.184484	0.000426	4.256126	1.442014	0.000170
 108	1.0646e+01	4.2641	9.309635	0.000314	3.141426	1.064344	0.000126
 109	1.0746e+01	4.2913	9.442860	0.000334	3.344099	1.133011	0.000134
 110	1.0845e+01	4.3411	9.547826	0.000263	2.634744	0.892676	0.000105
 111	1.0945e+01	4.3860	9.636643	0.000223	2.229399	0.755341	0.000089
 112	1.1044e+01	4.4197	9.757757	0.000304	3.040090	1.030010	0.000122
 113	1.1144e+01	4.4646	9.911168	0.000385	3.850780	1.304680	0.000154
 114	1.1243e+01	4.5095	10.068617	0.000395	3.952117	1.339013	0.000158
 115	1.1343e+01	4.5448	10.205879	0.000345	3.445435	1.167345	0.000138
 116	1.1443e+01	4.5817	10.355253	0.000375	3.749444	1.270346	0.000150
 117	1.1542e+01	4.6138	10.452144	0.000243	2.432072	0.824008	0.000097
 118	1.1642e+01	4.6651	10.613630	0.000405	4.053453	1.373347	0.000162
 119	1.1741e+01	4.7036	10.738781	0.000314	3.141426	1.064344	0.000126
 120	1.1841e+01	4.7389	10.847784	0.000274	2.736081	0.927009	0.000110
 121	1.1940e+01	4.7870	10.981009	0.000334	3.344099	1.133011	0.000134
 122	1.2040e+01	4.8111	11.110198	0.000324	3.242762	1.098678	0.000130
 123	1.2139e+01	4.8608	11.275720	0.000415	4.154789	1.407681	0.000166
 124	1.2239e+01	4.9025	11.384723	0.000274	2.736081	0.927009	0.000110
 125	1.2338e+01	4.9394	11.509874	0.000314	3.141426	1.064344	0.000126
 126	1.2438e+01	4.9779	11.675397	0.000415	4.154789	1.407681	0.000166
 127	1.2537e+01	5.0116	11.776325	0.000253	2.533408	0.858342	0.000101
 128	1.2636e+01	5.0549	11.929736	0.000385	3.850780	1.304680	0.000154
 129	1.2736e+01	5.0918	12.002405	0.000182	1.824054	0.618006	0.000073
 130	1.2835e+01	5.1416	12.200224	0.000497	4.965480	1.682350	0.000199
 131	1.2935e+01	5.1704	12.264818	0.000162	1.621381	0.549339	0.000065
 132	1.3034e+01	5.2186	12.422267	0.000395	3.952117	1.339013	0.000158
 133	1.3134e+01	5.2571	12.547418	0.000314	3.141426	1.064344	0.000126
 134	1.3233e+01	5.3084	12.664495	0.000294	2.938753	0.995677	0.000118
 135	1.3333e+01	5.3453	12.834055	0.000426	4.256126	1.442014	0.000170
 136	1.3432e+01	5.3726	12.971317	0.000345	3.445435	1.167345	0.000138
 137	1.3532e+01	5.4143	13.080320	0.000274	2.736081	0.927009	0.000110
 138	1.3632e+01	5.4544	13.213545	0.000334	3.344099	1.133011	0.000134
 139	1.3731e+01	5.4945	13.354845	0.000355	3.546771	1.201679	0.000142
 140	1.3831e+01	5.5282	13.520368	0.000415	4.154789	1.407681	0.000166
 141	1.3930e+01	5.5763	13.641482	0.000304	3.040090	1.030010	0.000122
 142	1.4030e+01	5.6116	13.762596	0.000304	3.040090	1.030010	0.000122
 143	1.4129e+01	5.6565	13.863524	0.000253	2.533408	0.858342	0.000101
 144	1.4229e+01	5.6918	14.025010	0.000405	4.053453	1.373347	0.000162
 145	1.4328e+01	5.7367	14.166309	0.000355	3.546771	1.201679	0.000142
 146	1.4428e+01	5.7736	14.259163	0.000233	2.330735	0.789675	0.000093
 147	1.4527e+01	5.8009	14.412575	0.000385	3.850780	1.304680	0.000154
 148	1.4627e+01	5.8506	14.529652	0.000294	2.938753	0.995677	0.000118
 149	1.4726e+01	5.9052	14.650766	0.000304	3.040090	1.030010	0.000122
 150	1.4825e+01	5.9389	14.779954	0.000324	3.242762	1.098678	0.000130
 151	1.4925e+01	5.9742	14.884919	0.000263	2.634744	0.892676	0.000105
 152	1.5024e+01	6.0127	15.046405	0.000405	4.053453	1.373347	0.000162
 153	1.5124e+01	6.0624	15.179630	0.000334	3.344099	1.133011	0.000134
 154	1.5223e+01	6.0977	15.353227	0.000436	4.357462	1.476348	0.000174
 155	1.5323e+01	6.1346	15.482416	0.000324	3.242762	1.098678	0.000130
 156	1.5422e+01	6.1715	15.579307	0.000243	2.432072	0.824008	0.000097
 157	1.5522e+01	6.2116	15.752904	0.000436	4.357462	1.476348	0.000174
 158	1.5621e+01	6.2565	15.874018	0.000304	3.040090	1.030010	0.000122
 159	1.5721e+01	6.3014	15.974946	0.000253	2.533408	0.858342	0.000101
 160	1.5820e+01	6.3383	16.136432	0.000405	4.053453	1.373347	0.000162
 161	1.5920e+01	6.3800	16.257546	0.000304	3.040090	1.030010	0.000122
 162	1.6020e+01	6.4169	16.410957	0.000385	3.850780	1.304680	0.000154
 163	1.6119e+01	6.4506	16.532071	0.000304	3.040090	1.030010	0.000122
 164	1.6218e+01	6.4907	16.653185	0.000304	3.040090	1.030010	0.000122
 165	1.6318e+01	6.5340	16.786410	0.000334	3.344099	1.133011	0.000134
 166	1.6418e+01	6.5725	16.915599	0.000324	3.242762	1.098678	0.000130
 167	1.6517e+01	6.6110	17.064973	0.000375	3.749444	1.270346	0.000150
 168	1.6616e+01	6.6511	17.157827	0.000233	2.330735	0.789675	0.000093
 169	1.6716e+01	6.6897	17.258755	0.000253	2.533408	0.858342	0.000101
 170	1.6816e+01	6.7346	17.416204	0.000395	3.952117	1.339013	0.000158
 171	1.6915e+01	6.7618	17.521169	0.000263	2.634744	0.892676	0.000105
 172	1.7015e+01	6.8068	17.674580	0.000385	3.850780	1.304680	0.000154
 173	1.7114e+01	6.8485	17.775509	0.000253	2.533408	0.858342	0.000101
 174	1.7213e+01	6.8870	17.997551	0.000557	5.573498	1.888352	0.000223
 175	1.7313e+01	6.9303	18.041960	0.000111	1.114700	0.377670	0.000045
 176	1.7413e+01	6.9752	18.195371	0.000385	3.850780	1.304680	0.000154
 177	1.7512e+01	7.0025	18.364930	0.000426	4.256126	1.442014	0.000170
 178	1.7611e+01	7.0458	18.453747	0.000223	2.229399	0.755341	0.000089
 179	1.7711e+01	7.0811	18.599084	0.000365	3.648108	1.236012	0.000146
 180	1.7811e+01	7.1212	18.732310	0.000334	3.344099	1.133011	0.000134
 181	1.7910e+01	7.1709	18.877647	0.000365	3.648108	1.236012	0.000146
 182	1.8009e+01	7.2110	18.950315	0.000182	1.824054	0.618006	0.000073
 183	1.8109e+01	7.2543	19.123912	0.000436	4.357462	1.476348	0.000174
 184	1.8209e+01	7.2912	19.257137	0.000334	3.344099	1.133011	0.000134
 185	1.8308e+01	7.3346	19.390363	0.000334	3.344099	1.133011	0.000134
 186	1.8407e+01	7.3618	19.551848	0.000405	4.053453	1.373347	0.000162
 187	1.8507e+01	7.4051	19.660851	0.000274	2.736081	0.927009	0.000110
 188	1.8607e+01	7.4517	19.773891	0.000284	2.837417	0.961343	0.000114
 189	1.8706e+01	7.4918	19.890968	0.000294	2.938753	0.995677	0.000118
 190	1.8805e+01	7.5319	20.012082	0.000304	3.040090	1.030010	0.000122
 191	1.8905e+01	7.5656	20.197790	0.000466	4.661471	1.579349	0.000187
 192	1.9005e+01	7.6121	20.318904	0.000304	3.040090	1.030010	0.000122
 193	1.9104e+01	7.6426	20.435981	0.000294	2.938753	0.995677	0.000118
 194	1.9203e+01	7.6923	20.613615	0.000446	4.458798	1.510682	0.000179
 195	1.9303e+01	7.7228	20.742803	0.000324	3.242762	1.098678	0.000130
 196	1.9402e+01	7.7709	20.900252	0.000395	3.952117	1.339013	0.000158
 197	1.9502e+01	7.8014	21.001180	0.000253	2.533408	0.858342	0.000101
 198	1.9602e+01	7.8463	21.130368	0.000324	3.242762	1.098678	0.000130
 199	1.9701e+01	7.8832	21.259557	0.000324	3.242762	1.098678	0.000130
 200	1.9800e+01	7.9281	21.388745	0.000324	3.242762	1.098678	0.000130
 201	1.9900e+01	7.9570	21.530045	0.000355	3.546771	1.201679	0.000142
 202	2.0000e+01	7.9955	21.683456	0.000385	3.850780	1.304680	0.000154
 203	2.0099e+01	8.0420	21.800533	0.000294	2.938753	0.995677	0.000118
 204	2.0198e+01	8.0885	21.901461	0.000253	2.533408	0.858342	0.000101
 205	2.0298e+01	8.1286	22.058910	0.000395	3.952117	1.339013	0.000158
 206	2.0398e+01	8.1639	22.167912	0.000274	2.736081	0.927009	0.000110
 207	2.0497e+01	8.2073	22.305175	0.000345	3.445435	1.167345	0.000138
 208	2.0596e+01	8.2442	22.418215	0.000284	2.837417	0.961343	0.000114
 209	2.0696e+01	8.2827	22.535292	0.000294	2.938753	0.995677	0.000118
 210	2.0796e+01	8.3179	22.704851	0.000426	4.256126	1.442014	0.000170
 211	2.0895e+01	8.3677	22.830003	0.000314	3.141426	1.064344	0.000126
 212	2.0994e+01	8.4014	22.983414	0.000385	3.850780	1.304680	0.000154
 213	2.1094e+01	8.4479	23.128751	0.000365	3.648108	1.236012	0.000146
 214	2.1194e+01	8.4848	23.241790	0.000284	2.837417	0.961343	0.000114
 215	2.1293e+01	8.5265	23.370979	0.000324	3.242762	1.098678	0.000130
 216	2.1392e+01	8.5602	23.504204	0.000334	3.344099	1.133011	0.000134
 217	2.1492e+01	8.5987	23.625318	0.000304	3.040090	1.030010	0.000122
 218	2.1591e+01	8.6468	23.778729	0.000385	3.850780	1.304680	0.000154
 219	2.1691e+01	8.6821	23.875621	0.000243	2.432072	0.824008	0.000097
 220	2.1791e+01	8.7222	24.037106	0.000405	4.053453	1.373347	0.000162
 221	2.1890e+01	8.7671	24.186480	0.000375	3.749444	1.270346	0.000150
 222	2.1989e+01	8.8008	24.303557	0.000294	2.938753	0.995677	0.000118
 223	2.2089e+01	8.8361	24.420634	0.000294	2.938753	0.995677	0.000118
 224	2.2189e+01	8.8762	24.565971	0.000365	3.648108	1.236012	0.000146
 225	2.2288e+01	8.9260	24.691122	0.000314	3.141426	1.064344	0.000126
 226	2.2387e+01	8.9709	24.816273	0.000314	3.141426	1.064344	0.000126
 227	2.2487e+01	9.0094	24.888942	0.000182	1.824054	0.618006	0.000073
 228	2.2587e+01	9.0479	25.078687	0.000476	4.762807	1.613683	0.000191
 229	2.2686e+01	9.0751	25.199801	0.000304	3.040090	1.030010	0.000122
 230	2.2785e+01	9.1217	25.353212	0.000385	3.850780	1.304680	0.000154
 231	2.2885e+01	9.1634	25.458178	0.000263	2.634744	0.892676	0.000105
 232	2.2985e+01	9.2035	25.599478	0.000355	3.546771	1.201679	0.000142
 233	2.3084e+01	9.2420	25.716555	0.000294	2.938753	0.995677	0.000118
 234	2.3183e+01	9.2869	25.833632	0.000294	2.938753	0.995677	0.000118
 235	2.3283e+01	9.3222	25.991080	0.000395	3.952117	1.339013	0.000158
 236	2.3383e+01	9.3591	26.096045	0.000263	2.634744	0.892676	0.000105
 237	2.3482e+01	9.4024	26.253494	0.000395	3.952117	1.339013	0.000158
 238	2.3581e+01	9.4377	26.406905	0.000385	3.850780	1.304680	0.000154
 239	2.3681e+01	9.4906	26.483610	0.000193	1.925390	0.652340	0.000077
 240	2.3780e+01	9.5211	26.645096	0.000405	4.053453	1.373347	0.000162
 241	2.3880e+01	9.5644	26.798507	0.000385	3.850780	1.304680	0.000154
 242	2.3980e+01	9.5965	26.935770	0.000345	3.445435	1.167345	0.000138
 243	2.4079e+01	9.6366	27.008438	0.000182	1.824054	0.618006	0.000073
 244	2.4178e+01	9.6831	27.165886	0.000395	3.952117	1.339013	0.000158
 245	2.4278e+01	9.7217	27.303149	0.000345	3.445435	1.167345	0.000138
 246	2.4378e+01	9.7553	27.379855	0.000193	1.925390	0.652340	0.000077
 247	2.4477e+01	9.7922	27.533266	0.000385	3.850780	1.304680	0.000154
 248	2.4576e+01	9.8388	27.662454	0.000324	3.242762	1.098678	0.000130
 249	2.4676e+01	9.8676	27.803754	0.000355	3.546771	1.201679	0.000142
 250	2.4776e+01	9.9126	27.924868	0.000304	3.040090	1.030010	0.000122
 251	2.4875e+01	9.9687	28.090390	0.000415	4.154789	1.407681	0.000166
 252	2.4974e+01	10.0024	28.203430	0.000284	2.837417	0.961343	0.000114
 253	2.5074e+01	10.0441	28.324544	0.000304	3.040090	1.030010	0.000122
 254	2.5174e+01	10.0778	28.445658	0.000304	3.040090	1.030010	0.000122
 255	2.5273e+01	10.1179	28.570810	0.000314	3.141426	1.064344	0.000126
 256	2.5372e+01	10.1580	28.716147	0.000365	3.648108	1.236012	0.000146
 257	2.5472e+01	10.1965	28.877632	0.000405	4.053453	1.373347	0.000162
 258	2.5572e+01	10.2366	28.974523	0.000243	2.432072	0.824008	0.000097
 259	2.5671e+01	10.2799	29.164269	0.000476	4.762807	1.613683	0.000191
 260	2.5770e+01	10.3184	29.224826	0.000152	1.520045	0.515005	0.000061
 261	2.5870e+01	10.3585	29.378237	0.000385	3.850780	1.304680	0.000154
 262	2.5970e+01	10.3922	29.527611	0.000375	3.749444	1.270346	0.000150
 263	2.6069e+01	10.4371	29.652762	0.000314	3.141426	1.064344	0.000126
 264	2.6169e+01	10.4692	29.790025	0.000345	3.445435	1.167345	0.000138
 265	2.6268e+01	10.5270	29.943436	0.000385	3.850780	1.304680	0.000154
 266	2.6367e+01	10.5559	30.056476	0.000284	2.837417	0.961343	0.000114
 267	2.6467e+01	10.5895	30.173553	0.000294	2.938753	0.995677	0.000118
 268	2.6567e+01	10.6425	30.274481	0.000253	2.533408	0.858342	0.000101
 269	2.6666e+01	10.6794	30.391558	0.000294	2.938753	0.995677	0.000118
 270	2.6765e+01	10.7147	30.561118	0.000426	4.256126	1.442014	0.000170
 271	2.6865e+01	10.7548	30.690306	0.000324	3.242762	1.098678	0.000130
 272	2.6965e+01	10.7949	30.779123	0.000223	2.229399	0.755341	0.000089
 273	2.7064e+01	10.8446	30.936571	0.000395	3.952117	1.339013	0.000158
 274	2.7163e+01	10.8703	31.041537	0.000263	2.634744	0.892676	0.000105
 275	2.7263e+01	10.9120	31.190911	0.000375	3.749444	1.270346	0.000150
 276	2.7363e+01	10.9585	31.291839	0.000253	2.533408	0.858342	0.000101
 277	2.7462e+01	10.9922	31.388730	0.000243	2.432072	0.824008	0.000097
 278	2.7561e+01	11.0355	31.566364	0.000446	4.458798	1.510682	0.000179
 279	2.7661e+01	11.0788	31.659218	0.000233	2.330735	0.789675	0.000093
 280	2.7761e+01	11.1173	31.828778	0.000426	4.256126	1.442014	0.000170
 281	2.7860e+01	11.1446	31.909521	0.000203	2.026726	0.686674	0.000081
 282	2.7959e+01	11.2008	32.071006	0.000405	4.053453	1.373347	0.000162
 283	2.8059e+01	11.2377	32.184046	0.000284	2.837417	0.961343	0.000114
 284	2.8159e+01	11.2810	32.349569	0.000415	4.154789	1.407681	0.000166
 285	2.8258e+01	11.3130	32.434349	0.000213	2.128063	0.721007	0.000085
 286	2.8358e+01	11.3499	32.555463	0.000304	3.040090	1.030010	0.000122
 287	2.8457e+01	11.3933	32.680614	0.000314	3.141426	1.064344	0.000126
 288	2.8556e+01	11.4462	32.769431	0.000223	2.229399	0.755341	0.000089
 289	2.8656e+01	11.4751	32.910731	0.000355	3.546771	1.201679	0.000142
 290	2.8756e+01	11.5168	33.060105	0.000375	3.749444	1.270346	0.000150
 291	2.8855e+01	11.5489	33.189293	0.000324	3.242762	1.098678	0.000130
 292	2.8954e+01	11.5970	33.322518	0.000334	3.344099	1.133011	0.000134
 293	2.9054e+01	11.6371	33.455744	0.000334	3.344099	1.133011	0.000134
 294	2.9154e+01	11.6740	33.548598	0.000233	2.330735	0.789675	0.000093
 295	2.9253e+01	11.7173	33.710083	0.000405	4.053453	1.373347	0.000162
 296	2.9352e+01	11.7494	33.847346	0.000345	3.445435	1.167345	0.000138
 297	2.9452e+01	11.7943	33.944237	0.000243	2.432072	0.824008	0.000097
 298	2.9552e+01	11.8216	34.101686	0.000395	3.952117	1.339013	0.000158
 299	2.9651e+01	11.8617	34.238948	0.000345	3.445435	1.167345	0.000138
 300	2.9750e+01	11.9114	34.372174	0.000334	3.344099	1.133011	0.000134
 301	2.9850e+01	11.9419	34.436768	0.000162	1.621381	0.549339	0.000065
 302	2.9950e+01	11.9916	34.606328	0.000426	4.256126	1.442014	0.000170
 303	3.0049e+01	12.0285	34.735516	0.000324	3.242762	1.098678	0.000130
 304	3.0148e+01	12.0542	34.848556	0.000284	2.837417	0.961343	0.000114
 305	3.0248e+01	12.1168	34.961595	0.000284	2.837417	0.961343	0.000114
 306	3.0348e+01	12.1473	35.102895	0.000355	3.546771	1.201679	0.000142
 307	3.0447e+01	12.1890	35.224009	0.000304	3.040090	1.030010	0.000122
 308	3.0547e+01	12.2355	35.324938	0.000253	2.533408	0.858342	0.000101
 309	3.0646e+01	12.2660	35.474312	0.000375	3.749444	1.270346	0.000150
 310	3.0745e+01	12.3141	35.583314	0.000274	2.736081	0.927009	0.000110
 311	3.0845e+01	12.3558	35.716540	0.000334	3.344099	1.133011	0.000134
 312	3.0945e+01	12.3879	35.865914	0.000375	3.749444	1.270346	0.000150
 313	3.1044e+01	12.4328	35.974917	0.000274	2.736081	0.927009	0.000110
 314	3.1143e+01	12.4777	36.104105	0.000324	3.242762	1.098678	0.000130
 315	3.1243e+01	12.5034	36.237330	0.000334	3.344099	1.133011	0.000134
 316	3.1343e+01	12.5403	36.402853	0.000415	4.154789	1.407681	0.000166
 317	3.1442e+01	12.5884	36.479559	0.000193	1.925390	0.652340	0.000077
 318	3.1541e+01	12.6221	36.624895	0.000365	3.648108	1.236012	0.000146
 319	3.1641e+01	12.6622	36.754084	0.000324	3.242762	1.098678	0.000130
 320	3.1741e+01	12.7103	36.891346	0.000345	3.445435	1.167345	0.000138
 321	3.1840e+01	12.7520	37.040720	0.000375	3.749444	1.270346	0.000150
 322	3.1939e+01	12.7889	37.097240	0.000142	1.418709	0.480671	0.000057
 323	3.2039e+01	12.8307	37.230466	0.000334	3.344099	1.133011	0.000134
 324	3.2139e+01	12.8724	37.383877	0.000385	3.850780	1.304680	0.000154
 325	3.2238e+01	12.9077	37.500954	0.000294	2.938753	0.995677	0.000118
 326	3.2337e+01	12.9446	37.597845	0.000243	2.432072	0.824008	0.000097
 327	3.2437e+01	12.9831	37.755293	0.000395	3.952117	1.339013	0.000158
 328	3.2536e+01	13.0216	37.844110	0.000223	2.229399	0.755341	0.000089
 329	3.2636e+01	13.0649	37.977336	0.000334	3.344099	1.133011	0.000134
 330	3.2736e+01	13.0970	38.138821	0.000405	4.053453	1.373347	0.000162
 331	3.2835e+01	13.1419	38.300307	0.000405	4.053453	1.373347	0.000162
 332	3.2934e+01	13.1820	38.344715	0.000111	1.114700	0.377670	0.000045
 333	3.3034e+01	13.2253	38.494089	0.000375	3.749444	1.270346	0.000150
 334	3.3133e+01	13.2590	38.619240	0.000314	3.141426	1.064344	0.000126
 335	3.3233e+01	13.2975	38.760540	0.000355	3.546771	1.201679	0.000142
 336	3.3333e+01	13.3456	38.873580	0.000284	2.837417	0.961343	0.000114
 337	3.3432e+01	13.3841	39.022954	0.000375	3.749444	1.270346	0.000150
 338	3.3532e+01	13.4178	39.135994	0.000284	2.837417	0.961343	0.000114
 339	3.3631e+01	13.4643	39.273256	0.000345	3.445435	1.167345	0.000138
 340	3.3730e+01	13.5060	39.402445	0.000324	3.242762	1.098678	0.000130
 341	3.3830e+01	13.5429	39.499336	0.000243	2.432072	0.824008	0.000097
 342	3.3929e+01	13.5862	39.592190	0.000233	2.330735	0.789675	0.000093
 343	3.4029e+01	13.6247	39.773861	0.000456	4.560135	1.545015	0.000183
 344	3.4129e+01	13.6681	39.899012	0.000314	3.141426	1.064344	0.000126
 345	3.4228e+01	13.7162	40.008015	0.000274	2.736081	0.927009	0.000110
 346	3.4328e+01	13.7435	40.112981	0.000263	2.634744	0.892676	0.000105
 347	3.4427e+01	13.7836	40.238132	0.000314	3.141426	1.064344	0.000126
 348	3.4526e+01	13.8205	40.339060	0.000253	2.533408	0.858342	0.000101
 349	3.4626e+01	13.8606	40.448063	0.000274	2.736081	0.927009	0.000110
 350	3.4725e+01	13.9007	40.633771	0.000466	4.661471	1.579349	0.000187
 351	3.4825e+01	13.9424	40.775071	0.000355	3.546771	1.201679	0.000142
 352	3.4925e+01	13.9825	40.855814	0.000203	2.026726	0.686674	0.000081
 353	3.5024e+01	14.0082	40.989039	0.000334	3.344099	1.133011	0.000134
 354	3.5123e+01	14.0627	41.102079	0.000284	2.837417	0.961343	0.000114
 355	3.5223e+01	14.1108	41.251453	0.000375	3.749444	1.270346	0.000150
 356	3.5322e+01	14.1461	41.364493	0.000284	2.837417	0.961343	0.000114
 357	3.5422e+01	14.1750	41.530015	0.000415	4.154789	1.407681	0.000166
 358	3.5522e+01	14.2263	41.679389	0.000375	3.749444	1.270346	0.000150
 359	3.5621e+01	14.2664	41.792429	0.000284	2.837417	0.961343	0.000114
 360	3.5721e+01	14.2985	41.885283	0.000233	2.330735	0.789675	0.000093
 361	3.5820e+01	14.3450	42.054843	0.000426	4.256126	1.442014	0.000170
 362	3.5919e+01	14.3755	42.143660	0.000223	2.229399	0.755341	0.000089
 363	3.6019e+01	14.4124	42.268811	0.000314	3.141426	1.064344	0.000126
 364	3.6118e+01	14.4606	42.385888	0.000294	2.938753	0.995677	0.000118
 365	3.6218e+01	14.4975	42.498928	0.000284	2.837417	0.961343	0.000114
 366	3.6318e+01	14.5360	42.624079	0.000314	3.141426	1.064344	0.000126
 367	3.6417e+01	14.5793	42.769416	0.000365	3.648108	1.236012	0.000146
 368	3.6517e+01	14.6130	42.910716	0.000355	3.546771	1.201679	0.000142
 369	3.6616e+01	14.6579	43.052016	0.000355	3.546771	1.201679	0.000142
 370	3.6715e+01	14.6932	43.132758	0.000203	2.026726	0.686674	0.000081
 371	3.6815e+01	14.7317	43.286169	0.000385	3.850780	1.304680	0.000154
 372	3.6914e+01	14.7766	43.395172	0.000274	2.736081	0.927009	0.000110
 373	3.7014e+01	14.8167	43.500138	0.000263	2.634744	0.892676	0.000105
 374	3.7114e+01	14.8552	43.637400	0.000345	3.445435	1.167345	0.000138
 375	3.7213e+01	14.9001	43.774663	0.000345	3.445435	1.167345	0.000138
 376	3.7313e+01	14.9386	43.911925	0.000345	3.445435	1.167345	0.000138
 377	3.7412e+01	14.9771	44.049188	0.000345	3.445435	1.167345	0.000138
 378	3.7511e+01	15.0188	44.150116	0.000253	2.533408	0.858342	0.000101
 379	3.7611e+01	15.0493	44.263156	0.000284	2.837417	0.961343	0.000114
 380	3.7711e+01	15.0990	44.388307	0.000314	3.141426	1.064344	0.000126
 381	3.7810e+01	15.1263	44.533644	0.000365	3.648108	1.236012	0.000146
 382	3.7910e+01	15.1664	44.622461	0.000223	2.229399	0.755341	0.000089
 383	3.8009e+01	15.2178	44.775872	0.000385	3.850780	1.304680	0.000154
 384	3.8108e+01	15.2546	44.868727	0.000233	2.330735	0.789675	0.000093
 385	3.8208e+01	15.2899	45.022138	0.000385	3.850780	1.304680	0.000154
 386	3.8307e+01	15.3317	45.175549	0.000385	3.850780	1.304680	0.000154
 387	3.8407e+01	15.3750	45.292626	0.000294	2.938753	0.995677	0.000118
 388	3.8507e+01	15.4231	45.413740	0.000304	3.040090	1.030010	0.000122
 389	3.8606e+01	15.4456	45.526780	0.000284	2.837417	0.961343	0.000114
 390	3.8706e+01	15.4985	45.664042	0.000345	3.445435	1.167345	0.000138
 391	3.8805e+01	15.5290	45.809379	0.000365	3.648108	1.236012	0.000146
 392	3.8904e+01	15.5771	45.922419	0.000284	2.837417	0.961343	0.000114
 393	3.9004e+01	15.6140	45.974902	0.000132	1.317372	0.446338	0.000053
 394	3.9103e+01	15.6573	46.164647	0.000476	4.762807	1.613683	0.000191
 395	3.9203e+01	15.6862	46.277687	0.000284	2.837417	0.961343	0.000114
 396	3.9303e+01	15.7327	46.402838	0.000314	3.141426	1.064344	0.000126
 397	3.9402e+01	15.7696	46.544138	0.000355	3.546771	1.201679	0.000142
 398	3.9502e+01	15.8242	46.669289	0.000314	3.141426	1.064344	0.000126
 399	3.9601e+01	15.8514	46.782329	0.000284	2.837417	0.961343	0.000114
 400	3.9700e+01	15.8963	46.911517	0.000324	3.242762	1.098678	0.000130
 401	3.9800e+01	15.9348	47.028594	0.000294	2.938753	0.995677	0.000118
 402	3.9900e+01	15.9589	47.157783	0.000324	3.242762	1.098678	0.000130
 403	3.9999e+01	16.0183	47.307157	0.000375	3.749444	1.270346	0.000150
 404	4.0099e+01	16.0536	47.408085	0.000253	2.533408	0.858342	0.000101
 405	4.0198e+01	16.0921	47.517088	0.000274	2.736081	0.927009	0.000110
 406	4.0297e+01	16.1290	47.622053	0.000263	2.634744	0.892676	0.000105
 407	4.0397e+01	16.1594	47.783539	0.000405	4.053453	1.373347	0.000162
 408	4.0496e+01	16.2028	47.876393	0.000233	2.330735	0.789675	0.000093
 409	4.0596e+01	16.2477	48.001544	0.000314	3.141426	1.064344	0.000126
 410	4.0696e+01	16.2926	48.158992	0.000395	3.952117	1.339013	0.000158
 411	4.0795e+01	16.3263	48.280106	0.000304	3.040090	1.030010	0.000122
 412	4.0895e+01	16.3680	48.425443	0.000365	3.648108	1.236012	0.000146
 413	4.0994e+01	16.4097	48.530409	0.000263	2.634744	0.892676	0.000105
 414	4.1093e+01	16.4466	48.675746	0.000365	3.648108	1.236012	0.000146
 415	4.1193e+01	16.4947	48.813008	0.000345	3.445435	1.167345	0.000138
 416	4.1292e+01	16.5396	48.930085	0.000294	2.938753	0.995677	0.000118
 417	4.1392e+01	16.5637	49.022939	0.000233	2.330735	0.789675	0.000093
 418	4.1492e+01	16.6215	49.164239	0.000355	3.546771	1.201679	0.000142
 419	4.1591e+01	16.6471	49.289390	0.000314	3.141426	1.064344	0.000126
 420	4.1691e+01	16.6904	49.370133	0.000203	2.026726	0.686674	0.000081
 421	4.1790e+01	16.7273	49.503358	0.000334	3.344099	1.133011	0.000134
 422	4.1889e+01	16.7706	49.668881	0.000415	4.154789	1.407681	0.000166
 423	4.1989e+01	16.8059	49.798069	0.000324	3.242762	1.098678	0.000130
 424	4.2089e+01	16.8460	49.903035	0.000263	2.634744	0.892676	0.000105
 425	4.2188e+01	16.8894	50.032223	0.000324	3.242762	1.098678	0.000130
 426	4.2288e+01	16.9343	50.161412	0.000324	3.242762	1.098678	0.000130
 427	4.2387e+01	16.9648	50.258303	0.000243	2.432072	0.824008	0.000097
 428	4.2486e+01	17.0097	50.403640	0.000365	3.648108	1.236012	0.000146
 429	4.2586e+01	17.0466	50.500531	0.000243	2.432072	0.824008	0.000097
 430	4.2685e+01	17.0851	50.633756	0.000334	3.344099	1.133011	0.000134
 431	4.2785e+01	17.1252	50.791205	0.000395	3.952117	1.339013	0.000158
 432	4.2885e+01	17.1749	50.896170	0.000263	2.634744	0.892676	0.000105
 433	4.2984e+01	17.2070	51.033433	0.000345	3.445435	1.167345	0.000138
 434	4.3084e+01	17.2519	51.182807	0.000375	3.749444	1.270346	0.000150
 435	4.3183e+01	17.2872	51.311995	0.000324	3.242762	1.098678	0.000130
 436	4.3282e+01	17.3305	51.425035	0.000284	2.837417	0.961343	0.000114
 437	4.3382e+01	17.3658	51.517889	0.000233	2.330735	0.789675	0.000093
 438	4.3481e+01	17.4075	51.618818	0.000253	2.533408	0.858342	0.000101
 439	4.3581e+01	17.4476	51.743969	0.000314	3.141426	1.064344	0.000126
 440	4.3681e+01	17.4829	51.869120	0.000314	3.141426	1.064344	0.000126
 441	4.3780e+01	17.5343	52.030605	0.000405	4.053453	1.373347	0.000162
 442	4.3880e+01	17.5696	52.127497	0.000243	2.432072	0.824008	0.000097
 443	4.3979e+01	17.6113	52.276871	0.000375	3.749444	1.270346	0.000150
 444	4.4078e+01	17.6514	52.381836	0.000263	2.634744	0.892676	0.000105
 445	4.4178e+01	17.6883	52.523136	0.000355	3.546771	1.201679	0.000142
 446	4.4278e+01	17.7236	52.591767	0.000172	1.722717	0.583672	0.000069
 447	4.4377e+01	17.7556	52.724993	0.000334	3.344099	1.133011	0.000134
 448	4.4477e+01	17.8038	52.858218	0.000334	3.344099	1.133011	0.000134
 449	4.4576e+01	17.8487	52.975295	0.000294	2.938753	0.995677	0.000118
 450	4.4675e+01	17.8792	53.096409	0.000304	3.040090	1.030010	0.000122
 451	4.4775e+01	17.9209	53.233672	0.000345	3.445435	1.167345	0.000138
 452	4.4874e+01	17.9658	53.342675	0.000274	2.736081	0.927009	0.000110
 453	4.4974e+01	18.0155	53.520308	0.000446	4.458798	1.510682	0.000179
 454	4.5074e+01	18.0380	53.572791	0.000132	1.317372	0.446338	0.000053
 455	4.5173e+01	18.0829	53.677757	0.000263	2.634744	0.892676	0.000105
 456	4.5273e+01	18.1246	53.819057	0.000355	3.546771	1.201679	0.000142
 457	4.5372e+01	18.1631	53.940171	0.000304	3.040090	1.030010	0.000122
 458	4.5471e+01	18.2032	54.061285	0.000304	3.040090	1.030010	0.000122
 459	4.5571e+01	18.2417	54.198547	0.000345	3.445435	1.167345	0.000138
 460	4.5670e+01	18.2786	54.287364	0.000223	2.229399	0.755341	0.000089
 461	4.5770e+01	18.3203	54.404441	0.000294	2.938753	0.995677	0.000118
 462	4.5870e+01	18.3620	54.553815	0.000375	3.749444	1.270346	0.000150
 463	4.5969e+01	18.3957	54.650706	0.000243	2.432072	0.824008	0.000097
 464	4.6069e+01	18.4503	54.796043	0.000365	3.648108	1.236012	0.000146
 465	4.6168e+01	18.4872	54.896972	0.000253	2.533408	0.858342	0.000101
 466	4.6267e+01	18.5257	55.058457	0.000405	4.053453	1.373347	0.000162
 467	4.6367e+01	18.5610	55.159386	0.000253	2.533408	0.858342	0.000101
 468	4.6467e+01	18.6011	55.292611	0.000334	3.344099	1.133011	0.000134
 469	4.6566e+01	18.6412	55.409688	0.000294	2.938753	0.995677	0.000118
 470	4.6666e+01	18.6797	55.514654	0.000263	2.634744	0.892676	0.000105
 471	4.6765e+01	18.7198	55.668065	0.000385	3.850780	1.304680	0.000154
 472	4.6864e+01	18.7599	55.817439	0.000375	3.749444	1.270346	0.000150
 473	4.6964e+01	18.8016	55.958738	0.000355	3.546771	1.201679	0.000142
 474	4.7063e+01	18.8449	56.035444	0.000193	1.925390	0.652340	0.000077
 475	4.7163e+01	18.8738	56.148484	0.000284	2.837417	0.961343	0.000114
 476	4.7263e+01	18.9283	56.265561	0.000294	2.938753	0.995677	0.000118
 477	4.7362e+01	18.9604	56.362452	0.000243	2.432072	0.824008	0.000097
 478	4.7462e+01	18.9989	56.487603	0.000314	3.141426	1.064344	0.000126
 479	4.7561e+01	19.0390	56.612754	0.000314	3.141426	1.064344	0.000126
 480	4.7660e+01	19.0840	56.729831	0.000294	2.938753	0.995677	0.000118
 481	4.7760e+01	19.1241	56.863057	0.000334	3.344099	1.133011	0.000134
 482	4.7859e+01	19.1674	56.951874	0.000223	2.229399	0.755341	0.000089
 483	4.7959e+01	19.1962	57.109322	0.000395	3.952117	1.339013	0.000158
 484	4.8059e+01	19.2331	57.214288	0.000263	2.634744	0.892676	0.000105
 485	4.8158e+01	19.2797	57.343476	0.000324	3.242762	1.098678	0.000130
 486	4.8258e+01	19.3166	57.468627	0.000314	3.141426	1.064344	0.000126
 487	4.8357e+01	19.3599	57.605890	0.000345	3.445435	1.167345	0.000138
 488	4.8456e+01	19.3952	57.751227	0.000365	3.648108	1.236012	0.000146
 489	4.8556e+01	19.4369	57.868304	0.000294	2.938753	0.995677	0.000118
 490	4.8656e+01	19.4818	58.001529	0.000334	3.344099	1.133011	0.000134
 491	4.8755e+01	19.5219	58.146866	0.000365	3.648108	1.236012	0.000146
 492	4.8855e+01	19.5604	58.280092	0.000334	3.344099	1.133011	0.000134
 493	4.8954e+01	19.5973	58.381020	0.000253	2.533408	0.858342	0.000101
 494	4.9053e+01	19.6374	58.461763	0.000203	2.026726	0.686674	0.000081
 495	4.9153e+01	19.6775	58.554617	0.000233	2.330735	0.789675	0.000093
 496	4.9252e+01	19.7208	58.647471	0.000233	2.330735	0.789675	0.000093
 497	4.9352e+01	19.7561	58.804919	0.000395	3.952117	1.339013	0.000158
 498	4.9452e+01	19.7914	58.913922	0.000274	2.736081	0.927009	0.000110
 499	4.9551e+01	19.8347	59.039073	0.000314	3.141426	1.064344	0.000126
 500	4.9651e+01	19.8700	59.176336	0.000345	3.445435	1.167345	0.000138
 501	4.9750e+01	19.9053	59.301487	0.000314	3.141426	1.064344	0.000126
 502	4.9849e+01	19.9631	59.426638	0.000314	3.141426	1.064344	0.000126
 503	4.9949e+01	20.0080	59.527566	0.000253	2.533408	0.858342	0.000101
 504	5.0048e+01	19.9615	59.402415	0.000314	3.141426	1.064344	-0.000126
 505	5.0148e+01	19.9149	59.317635	0.000213	2.128063	0.721007	-0.000085
 506	5.0248e+01	19.8829	59.220744	0.000243	2.432072	0.824008	-0.000097
 507	5.0347e+01	19.8379	59.148076	0.000182	1.824054	0.618006	-0.000073
 508	5.0447e+01	19.7978	59.035036	0.000284	2.837417	0.961343	-0.000114
 509	5.0546e+01	19.7609	58.974479	0.000152	1.520045	0.515005	-0.000061
 510	5.0645e+01	19.7096	58.865476	0.000274	2.736081	0.927009	-0.000110
 511	5.0745e+01	19.6775	58.796845	0.000172	1.722717	0.583672	-0.000069
 512	5.0844e+01	19.6342	58.679768	0.000294	2.938753	0.995677	-0.000118
 513	5.0944e+01	19.6021	58.566728	0.000284	2.837417	0.961343	-0.000114
 514	5.1044e+01	19.5540	58.445614	0.000304	3.040090	1.030010	-0.000122
 515	5.1143e+01	19.5235	58.292203	0.000385	3.850780	1.304680	-0.000154
 516	5.1242e+01	19.4754	58.191275	0.000253	2.533408	0.858342	-0.000101
 517	5.1342e+01	19.4385	58.110532	0.000203	2.026726	0.686674	-0.000081
 518	5.1441e+01	19.4000	57.957121	0.000385	3.850780	1.304680	-0.000154
 519	5.1541e+01	19.3551	57.860229	0.000243	2.432072	0.824008	-0.000097
 520	5.1641e+01	19.3246	57.771412	0.000223	2.229399	0.755341	-0.000089
 521	5.1740e+01	19.2749	57.646261	0.000314	3.141426	1.064344	-0.000126
 522	5.1840e+01	19.2444	57.577630	0.000172	1.722717	0.583672	-0.000069
 523	5.1939e+01	19.2043	57.432293	0.000365	3.648108	1.236012	-0.000146
 524	5.2038e+01	19.1626	57.355587	0.000193	1.925390	0.652340	-0.000077
 525	5.2138e+01	19.1064	57.242548	0.000284	2.837417	0.961343	-0.000114
 526	5.2237e+01	19.0872	57.157768	0.000213	2.128063	0.721007	-0.000085
 527	5.2337e+01	19.0358	57.077025	0.000203	2.026726	0.686674	-0.000081
 528	5.2437e+01	19.0005	56.996282	0.000203	2.026726	0.686674	-0.000081
 529	5.2536e+01	18.9572	56.895354	0.000253	2.533408	0.858342	-0.000101
 530	5.2636e+01	18.9235	56.810574	0.000213	2.128063	0.721007	-0.000085
 531	5.2735e+01	18.8834	56.661200	0.000375	3.749444	1.270346	-0.000150
 532	5.2834e+01	18.8449	56.592569	0.000172	1.722717	0.583672	-0.000069
 533	5.2934e+01	18.7968	56.487603	0.000263	2.634744	0.892676	-0.000105
 534	5.3033e+01	18.7583	56.354378	0.000334	3.344099	1.133011	-0.000134
 535	5.3133e+01	18.7262	56.196929	0.000395	3.952117	1.339013	-0.000158
 536	5.3233e+01	18.6877	56.087927	0.000274	2.736081	0.927009	-0.000110
 537	5.3332e+01	18.6476	55.995073	0.000233	2.330735	0.789675	-0.000093
 538	5.3431e+01	18.6027	55.873959	0.000304	3.040090	1.030010	-0.000122
 539	5.3531e+01	18.5626	55.777067	0.000243	2.432072	0.824008	-0.000097
 540	5.3630e+01	18.5241	55.651916	0.000314	3.141426	1.064344	-0.000126
 541	5.3730e+01	18.4840	55.546951	0.000263	2.634744	0.892676	-0.000105
 542	5.3830e+01	18.4439	55.417762	0.000324	3.242762	1.098678	-0.000130
 543	5.3929e+01	18.4134	55.308760	0.000274	2.736081	0.927009	-0.000110
 544	5.4029e+01	18.3637	55.268388	0.000101	1.013363	0.343337	-0.000041
 545	5.4128e+01	18.3332	55.155348	0.000284	2.837417	0.961343	-0.000114
 546	5.4227e+01	18.2802	55.042309	0.000284	2.837417	0.961343	-0.000114
 547	5.4327e+01	18.2449	54.945417	0.000243	2.432072	0.824008	-0.000097
 548	5.4426e+01	18.2080	54.848526	0.000243	2.432072	0.824008	-0.000097
 549	5.4526e+01	18.1535	54.731449	0.000294	2.938753	0.995677	-0.000118
 550	5.4626e+01	18.1262	54.626484	0.000263	2.634744	0.892676	-0.000105
 551	5.4725e+01	18.0877	54.529592	0.000243	2.432072	0.824008	-0.000097
 552	5.4825e+01	18.0444	54.416553	0.000284	2.837417	0.961343	-0.000114
 553	5.4924e+01	18.0107	54.279290	0.000345	3.445435	1.167345	-0.000138
 554	5.5023e+01	17.9674	54.154139	0.000314	3.141426	1.064344	-0.000126
 555	5.5123e+01	17.9289	54.065322	0.000223	2.229399	0.755341	-0.000089
 556	5.5222e+01	17.8856	53.919985	0.000365	3.648108	1.236012	-0.000146
 557	5.5322e+01	17.8519	53.786759	0.000334	3.344099	1.133011	-0.000134
 558	5.5422e+01	17.8070	53.637385	0.000375	3.749444	1.270346	-0.000150
 559	5.5521e+01	17.7524	53.588940	0.000122	1.216036	0.412004	-0.000049
 560	5.5620e+01	17.7252	53.463789	0.000314	3.141426	1.064344	-0.000126
 561	5.5720e+01	17.6867	53.354786	0.000274	2.736081	0.927009	-0.000110
 562	5.5819e+01	17.6466	53.245783	0.000274	2.736081	0.927009	-0.000110
 563	5.5919e+01	17.6113	53.120632	0.000314	3.141426	1.064344	-0.000126
 564	5.6019e+01	17.5647	53.060075	0.000152	1.520045	0.515005	-0.000061
 565	5.6118e+01	17.5343	52.975295	0.000213	2.128063	0.721007	-0.000085
 566	5.6218e+01	17.4861	52.821884	0.000385	3.850780	1.304680	-0.000154
 567	5.6317e+01	17.4444	52.745178	0.000193	1.925390	0.652340	-0.000077
 568	5.6416e+01	17.4075	52.615990	0.000324	3.242762	1.098678	-0.000130
 569	5.6516e+01	17.3594	52.515062	0.000253	2.533408	0.858342	-0.000101
 570	5.6615e+01	17.3257	52.434319	0.000203	2.026726	0.686674	-0.000081
 571	5.6715e+01	17.2888	52.256685	0.000446	4.458798	1.510682	-0.000179
 572	5.6815e+01	17.2487	52.196128	0.000152	1.520045	0.515005	-0.000061
 573	5.6914e+01	17.2086	52.066940	0.000324	3.242762	1.098678	-0.000130
 574	5.7014e+01	17.1669	51.970048	0.000243	2.432072	0.824008	-0.000097
 575	5.7113e+01	17.1316	51.820674	0.000375	3.749444	1.270346	-0.000150
 576	5.7212e+01	17.0867	51.675337	0.000365	3.648108	1.236012	-0.000146
 577	5.7312e+01	17.0498	51.546149	0.000324	3.242762	1.098678	-0.000130
 578	5.7411e+01	17.0129	51.445221	0.000253	2.533408	0.858342	-0.000101
 579	5.7511e+01	16.9680	51.307958	0.000345	3.445435	1.167345	-0.000138
 580	5.7611e+01	16.9231	51.186844	0.000304	3.040090	1.030010	-0.000122
 581	5.7710e+01	16.8894	51.114176	0.000182	1.824054	0.618006	-0.000073
 582	5.7809e+01	16.8525	50.993062	0.000304	3.040090	1.030010	-0.000122
 583	5.7909e+01	16.8092	50.944616	0.000122	1.216036	0.412004	-0.000049
 584	5.8008e+01	16.7610	50.815428	0.000324	3.242762	1.098678	-0.000130
 585	5.8108e+01	16.7354	50.718536	0.000243	2.432072	0.824008	-0.000097
 586	5.8208e+01	16.6872	50.589348	0.000324	3.242762	1.098678	-0.000130
 587	5.8307e+01	16.6503	50.512642	0.000193	1.925390	0.652340	-0.000077
 588	5.8407e+01	16.6150	50.403640	0.000274	2.736081	0.927009	-0.000110
 589	5.8506e+01	16.5637	50.310786	0.000233	2.330735	0.789675	-0.000093
 590	5.8605e+01	16.5396	50.181597	0.000324	3.242762	1.098678	-0.000130
 591	5.8705e+01	16.4851	50.064520	0.000294	2.938753	0.995677	-0.000118
 592	5.8804e+01	16.4514	49.939369	0.000314	3.141426	1.064344	-0.000126
 593	5.8904e+01	16.4161	49.818255	0.000304	3.040090	1.030010	-0.000122
 594	5.9004e+01	16.3744	49.705215	0.000284	2.837417	0.961343	-0.000114
 595	5.9103e+01	16.3327	49.580064	0.000314	3.141426	1.064344	-0.000126
 596	5.9203e+01	16.2878	49.410504	0.000426	4.256126	1.442014	-0.000170
 597	5.9302e+01	16.2509	49.317650	0.000233	2.330735	0.789675	-0.000093
 598	5.9401e+01	16.2092	49.188462	0.000324	3.242762	1.098678	-0.000130
 599	5.9501e+01	16.1739	49.083496	0.000263	2.634744	0.892676	-0.000105
 600	5.9600e+01	16.1370	48.938159	0.000365	3.648108	1.236012	-0.000146
 601	5.9700e+01	16.0953	48.865491	0.000182	1.824054	0.618006	-0.000073
 602	5.9800e+01	16.0471	48.768600	0.000243	2.432072	0.824008	-0.000097
 603	5.9899e+01	16.0183	48.667671	0.000253	2.533408	0.858342	-0.000101
 604	5.9998e+01	15.9701	48.574817	0.000233	2.330735	0.789675	-0.000093
 605	6.0098e+01	15.9348	48.453703	0.000304	3.040090	1.030010	-0.000122
 606	6.0197e+01	15.8979	48.336626	0.000294	2.938753	0.995677	-0.000118
 607	6.0297e+01	15.8659	48.223586	0.000284	2.837417	0.961343	-0.000114
 608	6.0397e+01	15.8177	48.138807	0.000213	2.128063	0.721007	-0.000085
 609	6.0496e+01	15.7680	47.965210	0.000436	4.357462	1.476348	-0.000174
 610	6.0596e+01	15.7359	47.884467	0.000203	2.026726	0.686674	-0.000081
 611	6.0695e+01	15.6942	47.722982	0.000405	4.053453	1.373347	-0.000162
 612	6.0794e+01	15.6525	47.634165	0.000223	2.229399	0.755341	-0.000089
 613	6.0894e+01	15.6156	47.545348	0.000223	2.229399	0.755341	-0.000089
 614	6.0993e+01	15.5707	47.383862	0.000405	4.053453	1.373347	-0.000162
 615	6.1093e+01	15.5322	47.206228	0.000446	4.458798	1.510682	-0.000179
 616	6.1193e+01	15.4889	47.081077	0.000314	3.141426	1.064344	-0.000126
 617	6.1292e+01	15.4600	46.984186	0.000243	2.432072	0.824008	-0.000097
 618	6.1392e+01	15.4167	46.867109	0.000294	2.938753	0.995677	-0.000118
 619	6.1491e+01	15.3782	46.766180	0.000253	2.533408	0.858342	-0.000101
 620	6.1590e+01	15.3413	46.636992	0.000324	3.242762	1.098678	-0.000130
 621	6.1690e+01	15.2932	46.523952	0.000284	2.837417	0.961343	-0.000114
 622	6.1789e+01	15.2530	46.467432	0.000142	1.418709	0.480671	-0.000057
 623	6.1889e+01	15.2194	46.354393	0.000284	2.837417	0.961343	-0.000114
 624	6.1989e+01	15.1744	46.217130	0.000345	3.445435	1.167345	-0.000138
 625	6.2088e+01	15.1327	46.083904	0.000334	3.344099	1.133011	-0.000134
 626	6.2188e+01	15.0958	46.023347	0.000152	1.520045	0.515005	-0.000061
 627	6.2287e+01	15.0445	45.849751	0.000436	4.357462	1.476348	-0.000174
 628	6.2386e+01	15.0204	45.777082	0.000182	1.824054	0.618006	-0.000073
 629	6.2486e+01	14.9691	45.647894	0.000324	3.242762	1.098678	-0.000130
 630	6.2586e+01	14.9370	45.518705	0.000324	3.242762	1.098678	-0.000130
 631	6.2685e+01	14.9017	45.437963	0.000203	2.026726	0.686674	-0.000081
 632	6.2785e+01	14.8472	45.284552	0.000385	3.850780	1.304680	-0.000154
 633	6.2884e+01	14.8215	45.179586	0.000263	2.634744	0.892676	-0.000105
 634	6.2983e+01	14.7750	45.018101	0.000405	4.053453	1.373347	-0.000162
 635	6.3083e+01	14.7317	44.876801	0.000355	3.546771	1.201679	-0.000142
 636	6.3182e+01	14.6996	44.771835	0.000263	2.634744	0.892676	-0.000105
 637	6.3282e+01	14.6675	44.634573	0.000345	3.445435	1.167345	-0.000138
 638	6.3382e+01	14.6178	44.509422	0.000314	3.141426	1.064344	-0.000126
 639	6.3481e+01	14.5729	44.440790	0.000172	1.722717	0.583672	-0.000069
 640	6.3581e+01	14.5488	44.343899	0.000243	2.432072	0.824008	-0.000097
 641	6.3680e+01	14.4991	44.230859	0.000284	2.837417	0.961343	-0.000114
 642	6.3779e+01	14.4606	44.117819	0.000284	2.837417	0.961343	-0.000114
 643	6.3879e+01	14.4204	43.992668	0.000314	3.141426	1.064344	-0.000126
 644	6.3978e+01	14.3852	43.883665	0.000274	2.736081	0.927009	-0.000110
 645	6.4078e+01	14.3402	43.762551	0.000304	3.040090	1.030010	-0.000122
 646	6.4177e+01	14.2937	43.633363	0.000324	3.242762	1.098678	-0.000130
 647	6.4277e+01	14.2648	43.540509	0.000233	2.330735	0.789675	-0.000093
 648	6.4376e+01	14.2295	43.403246	0.000345	3.445435	1.167345	-0.000138
 649	6.4476e+01	14.1798	43.270021	0.000334	3.344099	1.133011	-0.000134
 650	6.4576e+01	14.1381	43.201390	0.000172	1.722717	0.583672	-0.000069
 651	6.4675e+01	14.1044	43.007607	0.000486	4.864143	1.648016	-0.000195
 652	6.4775e+01	14.0675	42.902641	0.000263	2.634744	0.892676	-0.000105
 653	6.4874e+01	14.0242	42.769416	0.000334	3.344099	1.133011	-0.000134
 654	6.4974e+01	13.9777	42.603893	0.000415	4.154789	1.407681	-0.000166
 655	6.5073e+01	13.9408	42.523151	0.000203	2.026726	0.686674	-0.000081
 656	6.5172e+01	13.9055	42.402037	0.000304	3.040090	1.030010	-0.000122
 657	6.5272e+01	13.8590	42.297071	0.000263	2.634744	0.892676	-0.000105
 658	6.5371e+01	13.8269	42.232477	0.000162	1.621381	0.549339	-0.000065
 659	6.5471e+01	13.7884	42.123474	0.000274	2.736081	0.927009	-0.000110
 660	6.5570e+01	13.7370	41.990249	0.000334	3.344099	1.133011	-0.000134
 661	6.5670e+01	13.7001	41.881246	0.000274	2.736081	0.927009	-0.000110
 662	6.5769e+01	13.6520	41.743984	0.000345	3.445435	1.167345	-0.000138
 663	6.5869e+01	13.6231	41.659204	0.000213	2.128063	0.721007	-0.000085
 664	6.5969e+01	13.5846	41.525978	0.000334	3.344099	1.133011	-0.000134
 665	6.6068e+01	13.5381	41.421013	0.000263	2.634744	0.892676	-0.000105
 666	6.6168e+01	13.4980	41.271639	0.000375	3.749444	1.270346	-0.000150
 667	6.6267e+01	13.4643	41.166673	0.000263	2.634744	0.892676	-0.000105
 668	6.6367e+01	13.4226	41.045559	0.000304	3.040090	1.030010	-0.000122
 669	6.6466e+01	13.3873	40.924445	0.000304	3.040090	1.030010	-0.000122
 670	6.6566e+01	13.3328	40.803331	0.000304	3.040090	1.030010	-0.000122
 671	6.6665e+01	13.3071	40.714514	0.000223	2.229399	0.755341	-0.000089
 672	6.6764e+01	13.2638	40.520731	0.000486	4.864143	1.648016	-0.000195
 673	6.6864e+01	13.2253	40.419803	0.000253	2.533408	0.858342	-0.000101
 674	6.6963e+01	13.1788	40.242169	0.000446	4.458798	1.510682	-0.000179
 675	6.7063e+01	13.1403	40.092795	0.000375	3.749444	1.270346	-0.000150
 676	6.7162e+01	13.1002	40.036275	0.000142	1.418709	0.480671	-0.000057
 677	6.7262e+01	13.0633	39.923235	0.000284	2.837417	0.961343	-0.000114
 678	6.7362e+01	13.0264	39.830381	0.000233	2.330735	0.789675	-0.000093
 679	6.7461e+01	12.9895	39.713304	0.000294	2.938753	0.995677	-0.000118
 680	6.7561e+01	12.9494	39.596227	0.000294	2.938753	0.995677	-0.000118
 681	6.7660e+01	12.9077	39.475113	0.000304	3.040090	1.030010	-0.000122
 682	6.7760e+01	12.8627	39.345925	0.000324	3.242762	1.098678	-0.000130
 683	6.7859e+01	12.8210	39.208662	0.000345	3.445435	1.167345	-0.000138
 684	6.7959e+01	12.7938	39.127920	0.000203	2.026726	0.686674	-0.000081
 685	6.8058e+01	12.7504	39.014880	0.000284	2.837417	0.961343	-0.000114
 686	6.8157e+01	12.7087	38.869543	0.000365	3.648108	1.236012	-0.000146
 687	6.8257e+01	12.6734	38.744392	0.000314	3.141426	1.064344	-0.000126
 688	6.8356e+01	12.6349	38.659612	0.000213	2.128063	0.721007	-0.000085
 689	6.8456e+01	12.5836	38.522349	0.000345	3.445435	1.167345	-0.000138
 690	6.8555e+01	12.5531	38.393161	0.000324	3.242762	1.098678	-0.000130
 691	6.8655e+01	12.5002	38.255898	0.000345	3.445435	1.167345	-0.000138
 692	6.8754e+01	12.4745	38.159007	0.000243	2.432072	0.824008	-0.000097
 693	6.8854e+01	12.4232	38.025782	0.000334	3.344099	1.133011	-0.000134
 694	6.8954e+01	12.3879	37.924853	0.000253	2.533408	0.858342	-0.000101
 695	6.9053e+01	12.3510	37.803739	0.000304	3.040090	1.030010	-0.000122
 696	6.9153e+01	12.3141	37.690699	0.000284	2.837417	0.961343	-0.000114
 697	6.9252e+01	12.2740	37.561511	0.000324	3.242762	1.098678	-0.000130
 698	6.9352e+01	12.2339	37.436360	0.000314	3.141426	1.064344	-0.000126
 699	6.9451e+01	12.1970	37.383877	0.000132	1.317372	0.446338	-0.000053
 700	6.9550e+01	12.1505	37.198169	0.000466	4.661471	1.579349	-0.000187
 701	6.9650e+01	12.1087	37.089166	0.000274	2.736081	0.927009	-0.000110
 702	6.9749e+01	12.0702	37.000349	0.000223	2.229399	0.755341	-0.000089
 703	6.9849e+01	12.0317	36.875198	0.000314	3.141426	1.064344	-0.000126
 704	6.9948e+01	11.9836	36.741972	0.000334	3.344099	1.133011	-0.000134
 705	7.0048e+01	11.9612	36.645081	0.000243	2.432072	0.824008	-0.000097
 706	7.0147e+01	11.9162	36.503781	0.000355	3.546771	1.201679	-0.000142
 707	7.0247e+01	11.8761	36.378630	0.000314	3.141426	1.064344	-0.000126
 708	7.0347e+01	11.8408	36.269627	0.000274	2.736081	0.927009	-0.000110
 709	7.0446e+01	11.7879	36.120253	0.000375	3.749444	1.270346	-0.000150
 710	7.0546e+01	11.7510	36.031436	0.000223	2.229399	0.755341	-0.000089
 711	7.0645e+01	11.7205	35.882062	0.000375	3.749444	1.270346	-0.000150
 712	7.0745e+01	11.6756	35.752874	0.000324	3.242762	1.098678	-0.000130
 713	7.0844e+01	11.6243	35.611574	0.000355	3.546771	1.201679	-0.000142
 714	7.0944e+01	11.5890	35.506609	0.000263	2.634744	0.892676	-0.000105
 715	7.1043e+01	11.5601	35.385495	0.000304	3.040090	1.030010	-0.000122
 716	7.1142e+01	11.5152	35.264381	0.000304	3.040090	1.030010	-0.000122
 717	7.1242e+01	11.4671	35.131155	0.000334	3.344099	1.133011	-0.000134
 718	7.1341e+01	11.4350	35.074635	0.000142	1.418709	0.480671	-0.000057
 719	7.1441e+01	11.3884	34.905076	0.000426	4.256126	1.442014	-0.000170
 720	7.1540e+01	11.3532	34.820296	0.000213	2.128063	0.721007	-0.000085
 721	7.1640e+01	11.3259	34.691107	0.000324	3.242762	1.098678	-0.000130
 722	7.1740e+01	11.2729	34.582105	0.000274	2.736081	0.927009	-0.000110
 723	7.1839e+01	11.2328	34.477139	0.000263	2.634744	0.892676	-0.000105
 724	7.1939e+01	11.2040	34.291431	0.000466	4.661471	1.579349	-0.000187
 725	7.2038e+01	11.1494	34.174354	0.000294	2.938753	0.995677	-0.000118
 726	7.2138e+01	11.1125	34.113797	0.000152	1.520045	0.515005	-0.000061
 727	7.2237e+01	11.0772	33.972497	0.000355	3.546771	1.201679	-0.000142
 728	7.2337e+01	11.0371	33.815049	0.000395	3.952117	1.339013	-0.000158
 729	7.2436e+01	10.9922	33.706046	0.000274	2.736081	0.927009	-0.000110
 730	7.2535e+01	10.9521	33.560709	0.000365	3.648108	1.236012	-0.000146
 731	7.2635e+01	10.9184	33.451707	0.000274	2.736081	0.927009	-0.000110
 732	7.2734e+01	10.8831	33.290221	0.000405	4.053453	1.373347	-0.000162
 733	7.2834e+01	10.8366	33.165070	0.000314	3.141426	1.064344	-0.000126
 734	7.2933e+01	10.7997	33.084327	0.000203	2.026726	0.686674	-0.000081
 735	7.3033e+01	10.7564	32.967250	0.000294	2.938753	0.995677	-0.000118
 736	7.3132e+01	10.7115	32.825951	0.000355	3.546771	1.201679	-0.000142
 737	7.3232e+01	10.6730	32.753282	0.000182	1.824054	0.618006	-0.000073
 738	7.3332e+01	10.6441	32.611982	0.000355	3.546771	1.201679	-0.000142
 739	7.3431e+01	10.5944	32.482794	0.000324	3.242762	1.098678	-0.000130
 740	7.3531e+01	10.5591	32.365717	0.000294	2.938753	0.995677	-0.000118
 741	7.3630e+01	10.5174	32.248640	0.000294	2.938753	0.995677	-0.000118
 742	7.3730e+01	10.4788	32.099266	0.000375	3.749444	1.270346	-0.000150
 743	7.3829e+01	10.4355	32.006412	0.000233	2.330735	0.789675	-0.000093
 744	7.3928e+01	10.4018	31.865112	0.000355	3.546771	1.201679	-0.000142
 745	7.4028e+01	10.3505	31.703627	0.000405	4.053453	1.373347	-0.000162
 746	7.4127e+01	10.3200	31.610773	0.000233	2.330735	0.789675	-0.000093
 747	7.4227e+01	10.2735	31.530030	0.000203	2.026726	0.686674	-0.000081
 748	7.4326e+01	10.2318	31.384693	0.000365	3.648108	1.236012	-0.000146
 749	7.4426e+01	10.1997	31.271653	0.000284	2.837417	0.961343	-0.000114
 750	7.4525e+01	10.1612	31.174762	0.000243	2.432072	0.824008	-0.000097
 751	7.4625e+01	10.1275	31.005202	0.000426	4.256126	1.442014	-0.000170
 752	7.4725e+01	10.0826	30.839680	0.000415	4.154789	1.407681	-0.000166
 753	7.4824e+01	10.0393	30.734714	0.000263	2.634744	0.892676	-0.000105
 754	7.4924e+01	9.9896	30.625712	0.000274	2.736081	0.927009	-0.000110
 755	7.5023e+01	9.9575	30.516709	0.000274	2.736081	0.927009	-0.000110
 756	7.5123e+01	9.9254	30.371372	0.000365	3.648108	1.236012	-0.000146
 757	7.5222e+01	9.8789	30.286592	0.000213	2.128063	0.721007	-0.000085
 758	7.5322e+01	9.8436	30.157404	0.000324	3.242762	1.098678	-0.000130
 759	7.5421e+01	9.8019	30.044364	0.000284	2.837417	0.961343	-0.000114
 760	7.5520e+01	9.7634	29.911139	0.000334	3.344099	1.133011	-0.000134
 761	7.5620e+01	9.7217	29.777913	0.000334	3.344099	1.133011	-0.000134
 762	7.5719e+01	9.6831	29.693133	0.000213	2.128063	0.721007	-0.000085
 763	7.5819e+01	9.6302	29.559908	0.000334	3.344099	1.133011	-0.000134
 764	7.5918e+01	9.6110	29.442831	0.000294	2.938753	0.995677	-0.000118
 765	7.6018e+01	9.5548	29.301531	0.000355	3.546771	1.201679	-0.000142
 766	7.6118e+01	9.5115	29.184454	0.000294	2.938753	0.995677	-0.000118
 767	7.6217e+01	9.4810	29.083526	0.000253	2.533408	0.858342	-0.000101
 768	7.6317e+01	9.4425	28.918003	0.000415	4.154789	1.407681	-0.000166
 769	7.6416e+01	9.4024	28.792852	0.000314	3.141426	1.064344	-0.000126
 770	7.6516e+01	9.3575	28.659627	0.000334	3.344099	1.133011	-0.000134
 771	7.6615e+01	9.3206	28.494104	0.000415	4.154789	1.407681	-0.000166
 772	7.6715e+01	9.2821	28.421436	0.000182	1.824054	0.618006	-0.000073
 773	7.6814e+01	9.2420	28.320507	0.000253	2.533408	0.858342	-0.000101
 774	7.6913e+01	9.2035	28.163059	0.000395	3.952117	1.339013	-0.000158
 775	7.7013e+01	9.1682	28.037908	0.000314	3.141426	1.064344	-0.000126
 776	7.7112e+01	9.1233	27.916794	0.000304	3.040090	1.030010	-0.000122
 777	7.7212e+01	9.0912	27.815865	0.000253	2.533408	0.858342	-0.000101
 778	7.7311e+01	9.0399	27.654380	0.000405	4.053453	1.373347	-0.000162
 779	7.7411e+01	9.0062	27.533266	0.000304	3.040090	1.030010	-0.000122
 780	7.7510e+01	8.9661	27.448486	0.000213	2.128063	0.721007	-0.000085
 781	7.7610e+01	8.9243	27.303149	0.000365	3.648108	1.236012	-0.000146
 782	7.7710e+01	8.8810	27.161849	0.000355	3.546771	1.201679	-0.000142
 783	7.7809e+01	8.8409	26.984215	0.000446	4.458798	1.510682	-0.000179
 784	7.7909e+01	8.8104	26.903473	0.000203	2.026726	0.686674	-0.000081
 785	7.8008e+01	8.7495	26.794470	0.000274	2.736081	0.927009	-0.000110
 786	7.8108e+01	8.7254	26.681430	0.000284	2.837417	0.961343	-0.000114
 787	7.8207e+01	8.6837	26.523982	0.000395	3.952117	1.339013	-0.000158
 788	7.8306e+01	8.6468	26.382682	0.000355	3.546771	1.201679	-0.000142
 789	7.8406e+01	8.6019	26.213122	0.000426	4.256126	1.442014	-0.000170
 790	7.8505e+01	8.5714	26.124305	0.000223	2.229399	0.755341	-0.000089
 791	7.8605e+01	8.5329	26.011266	0.000284	2.837417	0.961343	-0.000114
 792	7.8704e+01	8.4832	25.890151	0.000304	3.040090	1.030010	-0.000122
 793	7.8804e+01	8.4527	25.732703	0.000395	3.952117	1.339013	-0.000158
 794	7.8903e+01	8.4190	25.647923	0.000213	2.128063	0.721007	-0.000085
 795	7.9003e+01	8.3645	25.498549	0.000375	3.749444	1.270346	-0.000150
 796	7.9103e+01	8.3179	25.365324	0.000334	3.344099	1.133011	-0.000134
 797	7.9202e+01	8.2794	25.240173	0.000314	3.141426	1.064344	-0.000126
 798	7.9302e+01	8.2425	25.110984	0.000324	3.242762	1.098678	-0.000130
 799	7.9401e+01	8.2073	25.018130	0.000233	2.330735	0.789675	-0.000093
 800	7.9501e+01	8.1704	24.892979	0.000314	3.141426	1.064344	-0.000126
 801	7.9600e+01	8.1319	24.707271	0.000466	4.661471	1.579349	-0.000187
 802	7.9700e+01	8.0773	24.614417	0.000233	2.330735	0.789675	-0.000093
 803	7.9799e+01	8.0516	24.469080	0.000365	3.648108	1.236012	-0.000146
 804	7.9898e+01	8.0051	24.388337	0.000203	2.026726	0.686674	-0.000081
 805	7.9998e+01	7.9650	24.259149	0.000324	3.242762	1.098678	-0.000130
 806	8.0097e+01	7.9233	24.133997	0.000314	3.141426	1.064344	-0.000126
 807	8.0197e+01	7.8896	23.996735	0.000345	3.445435	1.167345	-0.000138
 808	8.0296e+01	7.8543	23.879658	0.000294	2.938753	0.995677	-0.000118
 809	8.0396e+01	7.8078	23.730284	0.000375	3.749444	1.270346	-0.000150
 810	8.0496e+01	7.7629	23.572836	0.000395	3.952117	1.339013	-0.000158
 811	8.0595e+01	7.7276	23.463833	0.000274	2.736081	0.927009	-0.000110
 812	8.0695e+01	7.6795	23.358867	0.000263	2.634744	0.892676	-0.000105
 813	8.0794e+01	7.6538	23.221605	0.000345	3.445435	1.167345	-0.000138
 814	8.0894e+01	7.6089	23.104528	0.000294	2.938753	0.995677	-0.000118
 815	8.0993e+01	7.5672	22.959191	0.000365	3.648108	1.236012	-0.000146
 816	8.1093e+01	7.5319	22.805780	0.000385	3.850780	1.304680	-0.000154
 817	8.1192e+01	7.4886	22.733111	0.000182	1.824054	0.618006	-0.000073
 818	8.1291e+01	7.4549	22.575663	0.000395	3.952117	1.339013	-0.000158
 819	8.1391e+01	7.4083	22.450512	0.000314	3.141426	1.064344	-0.000126
 820	8.1490e+01	7.3731	22.305175	0.000365	3.648108	1.236012	-0.000146
 821	8.1590e+01	7.3201	22.228469	0.000193	1.925390	0.652340	-0.000077
 822	8.1689e+01	7.2896	22.099281	0.000324	3.242762	1.098678	-0.000130
 823	8.1789e+01	7.2511	21.929721	0.000426	4.256126	1.442014	-0.000170
 824	8.1888e+01	7.2046	21.820719	0.000274	2.736081	0.927009	-0.000110
 825	8.1988e+01	7.1613	21.735939	0.000213	2.128063	0.721007	-0.000085
 826	8.2088e+01	7.1308	21.538119	0.000497	4.965480	1.682350	-0.000199
 827	8.2187e+01	7.0843	21.412968	0.000314	3.141426	1.064344	-0.000126
 828	8.2287e+01	7.0410	21.247445	0.000415	4.154789	1.407681	-0.000166
 829	8.2386e+01	7.0105	21.194963	0.000132	1.317372	0.446338	-0.000053
 830	8.2486e+01	6.9704	21.081923	0.000284	2.837417	0.961343	-0.000114
 831	8.2585e+01	6.9351	20.928512	0.000385	3.850780	1.304680	-0.000154
 832	8.2684e+01	6.8966	20.795286	0.000334	3.344099	1.133011	-0.000134
 833	8.2784e+01	6.8372	20.694358	0.000253	2.533408	0.858342	-0.000101
 834	8.2883e+01	6.8068	20.532872	0.000405	4.053453	1.373347	-0.000162
 835	8.2983e+01	6.7747	20.407721	0.000314	3.141426	1.064344	-0.000126
 836	8.3082e+01	6.7362	20.290644	0.000294	2.938753	0.995677	-0.000118
 837	8.3182e+01	6.6897	20.149344	0.000355	3.546771	1.201679	-0.000142
 838	8.3281e+01	6.6447	20.012082	0.000345	3.445435	1.167345	-0.000138
 839	8.3381e+01	6.6191	19.923265	0.000223	2.229399	0.755341	-0.000089
 840	8.3481e+01	6.5758	19.786002	0.000345	3.445435	1.167345	-0.000138
 841	8.3580e+01	6.5276	19.648740	0.000345	3.445435	1.167345	-0.000138
 842	8.3680e+01	6.4859	19.519551	0.000324	3.242762	1.098678	-0.000130
 843	8.3779e+01	6.4554	19.406511	0.000284	2.837417	0.961343	-0.000114
 844	8.3879e+01	6.4153	19.261175	0.000365	3.648108	1.236012	-0.000146
 845	8.3978e+01	6.3672	19.127949	0.000334	3.344099	1.133011	-0.000134
 846	8.4078e+01	6.3367	18.970501	0.000395	3.952117	1.339013	-0.000158
 847	8.4177e+01	6.2950	18.829201	0.000355	3.546771	1.201679	-0.000142
 848	8.4276e+01	6.2549	18.740384	0.000223	2.229399	0.755341	-0.000089
 849	8.4376e+01	6.2164	18.586973	0.000385	3.850780	1.304680	-0.000154
 850	8.4475e+01	6.1747	18.449710	0.000345	3.445435	1.167345	-0.000138
 851	8.4575e+01	6.1442	18.336671	0.000284	2.837417	0.961343	-0.000114
 852	8.4674e+01	6.0897	18.203445	0.000334	3.344099	1.133011	-0.000134
 853	8.4774e+01	6.0544	18.094442	0.000274	2.736081	0.927009	-0.000110
 854	8.4874e+01	6.0095	17.969291	0.000314	3.141426	1.064344	-0.000126
 855	8.4973e+01	5.9758	17.819917	0.000375	3.749444	1.270346	-0.000150
 856	8.5073e+01	5.9405	17.694766	0.000314	3.141426	1.064344	-0.000126
 857	8.5172e+01	5.8956	17.573652	0.000304	3.040090	1.030010	-0.000122
 858	8.5272e+01	5.8522	17.456575	0.000294	2.938753	0.995677	-0.000118
 859	8.5371e+01	5.8169	17.311238	0.000365	3.648108	1.236012	-0.000146
 860	8.5471e+01	5.7704	17.194161	0.000294	2.938753	0.995677	-0.000118
 861	8.5570e+01	5.7383	17.048824	0.000365	3.648108	1.236012	-0.000146
 862	8.5669e+01	5.6934	16.943859	0.000263	2.634744	0.892676	-0.000105
 863	8.5769e+01	5.6501	16.855042	0.000223	2.229399	0.755341	-0.000089
 864	8.5868e+01	5.6196	16.701631	0.000385	3.850780	1.304680	-0.000154
 865	8.5968e+01	5.5827	16.572442	0.000324	3.242762	1.098678	-0.000130
 866	8.6067e+01	5.5378	16.427105	0.000365	3.648108	1.236012	-0.000146
 867	8.6167e+01	5.4945	16.285806	0.000355	3.546771	1.201679	-0.000142
 868	8.6266e+01	5.4576	16.192951	0.000233	2.330735	0.789675	-0.000093
 869	8.6366e+01	5.4303	16.039540	0.000385	3.850780	1.304680	-0.000154
 870	8.6466e+01	5.3758	15.942649	0.000243	2.432072	0.824008	-0.000097
 871	8.6565e+01	5.3389	15.813461	0.000324	3.242762	1.098678	-0.000130
 872	8.6665e+01	5.2972	15.704458	0.000274	2.736081	0.927009	-0.000110
 873	8.6764e+01	5.2571	15.526824	0.000446	4.458798	1.510682	-0.000179
 874	8.6864e+01	5.2089	15.413784	0.000284	2.837417	0.961343	-0.000114
 875	8.6963e+01	5.1737	15.300744	0.000284	2.837417	0.961343	-0.000114
 876	8.7063e+01	5.1319	15.139259	0.000405	4.053453	1.373347	-0.000162
 877	8.7162e+01	5.1015	15.042368	0.000243	2.432072	0.824008	-0.000097
 878	8.7261e+01	5.0533	14.901068	0.000355	3.546771	1.201679	-0.000142
 879	8.7361e+01	5.0196	14.771880	0.000324	3.242762	1.098678	-0.000130
 880	8.7460e+01	4.9731	14.670951	0.000253	2.533408	0.858342	-0.000101
 881	8.7560e+01	4.9330	14.513503	0.000395	3.952117	1.339013	-0.000158
 882	8.7659e+01	4.8945	14.380277	0.000334	3.344099	1.133011	-0.000134
 883	8.7759e+01	4.8512	14.230903	0.000375	3.749444	1.270346	-0.000150
 884	8.7859e+01	4.8255	14.125938	0.000263	2.634744	0.892676	-0.000105
 885	8.7958e+01	4.7790	13.976564	0.000375	3.749444	1.270346	-0.000150
 886	8.8058e+01	4.7421	13.911970	0.000162	1.621381	0.549339	-0.000065
 887	8.8157e+01	4.6988	13.714150	0.000497	4.965480	1.682350	-0.000199
 888	8.8257e+01	4.6539	13.605147	0.000274	2.736081	0.927009	-0.000110
 889	8.8356e+01	4.6202	13.479996	0.000314	3.141426	1.064344	-0.000126
 890	8.8456e+01	4.5801	13.342734	0.000345	3.445435	1.167345	-0.000138
 891	8.8555e+01	4.5336	13.241805	0.000253	2.533408	0.858342	-0.000101
 892	8.8654e+01	4.5015	13.088394	0.000385	3.850780	1.304680	-0.000154
 893	8.8754e+01	4.4598	12.987466	0.000253	2.533408	0.858342	-0.000101
 894	8.8853e+01	4.4277	12.846166	0.000355	3.546771	1.201679	-0.000142
 895	8.8953e+01	4.3715	12.721015	0.000314	3.141426	1.064344	-0.000126
 896	8.9052e+01	4.3427	12.583752	0.000345	3.445435	1.167345	-0.000138
 897	8.9152e+01	4.2977	12.422267	0.000405	4.053453	1.373347	-0.000162
 898	8.9251e+01	4.2673	12.313264	0.000274	2.736081	0.927009	-0.000110
 899	8.9351e+01	4.2223	12.204261	0.000274	2.736081	0.927009	-0.000110
 900	8.9451e+01	4.1854	12.054887	0.000375	3.749444	1.270346	-0.000150
 901	8.9550e+01	4.1325	11.929736	0.000314	3.141426	1.064344	-0.000126
 902	8.9650e+01	4.1004	11.776325	0.000385	3.850780	1.304680	-0.000154
 903	8.9749e+01	4.0619	11.667322	0.000274	2.736081	0.927009	-0.000110
 904	8.9849e+01	4.0218	11.530060	0.000345	3.445435	1.167345	-0.000138
 905	8.9948e+01	3.9801	11.400871	0.000324	3.242762	1.098678	-0.000130
 906	9.0047e+01	3.9400	11.287832	0.000284	2.837417	0.961343	-0.000114
 907	9.0147e+01	3.9079	11.138458	0.000375	3.749444	1.270346	-0.000150
 908	9.0246e+01	3.8662	10.968898	0.000426	4.256126	1.442014	-0.000170
 909	9.0346e+01	3.8229	10.888155	0.000203	2.026726	0.686674	-0.000081
 910	9.0445e+01	3.7876	10.742818	0.000365	3.648108	1.236012	-0.000146
 911	9.0545e+01	3.7427	10.609593	0.000334	3.344099	1.133011	-0.000134
 912	9.0644e+01	3.7026	10.504627	0.000263	2.634744	0.892676	-0.000105
 913	9.0744e+01	3.6593	10.399662	0.000263	2.634744	0.892676	-0.000105
 914	9.0844e+01	3.6304	10.226065	0.000436	4.357462	1.476348	-0.000174
 915	9.0943e+01	3.5790	10.133211	0.000233	2.330735	0.789675	-0.000093
 916	9.1043e+01	3.5486	10.016134	0.000294	2.938753	0.995677	-0.000118
 917	9.1142e+01	3.5052	9.822351	0.000486	4.864143	1.648016	-0.000195
 918	9.1242e+01	3.4603	9.713349	0.000274	2.736081	0.927009	-0.000110
 919	9.1341e+01	3.4315	9.588197	0.000314	3.141426	1.064344	-0.000126
 920	9.1441e+01	3.3833	9.463046	0.000314	3.141426	1.064344	-0.000126
 921	9.1540e+01	3.3464	9.325784	0.000345	3.445435	1.167345	-0.000138
 922	9.1639e+01	3.3079	9.220818	0.000263	2.634744	0.892676	-0.000105
 923	9.1739e+01	3.2742	9.099704	0.000304	3.040090	1.030010	-0.000122
 924	9.1838e+01	3.2277	8.970516	0.000324	3.242762	1.098678	-0.000130
 925	9.1938e+01	3.1764	8.776733	0.000486	4.864143	1.648016	-0.000195
 926	9.2037e+01	3.1523	8.675805	0.000253	2.533408	0.858342	-0.000101
 927	9.2137e+01	3.1090	8.542579	0.000334	3.344099	1.133011	-0.000134
 928	9.2237e+01	3.0673	8.425502	0.000294	2.938753	0.995677	-0.000118
 929	9.2336e+01	3.0304	8.272091	0.000385	3.850780	1.304680	-0.000154
 930	9.2436e+01	2.9871	8.138866	0.000334	3.344099	1.133011	-0.000134
 931	9.2535e+01	2.9406	8.066197	0.000182	1.824054	0.618006	-0.000073
 932	9.2635e+01	2.9085	7.892600	0.000436	4.357462	1.476348	-0.000174
 933	9.2734e+01	2.8652	7.767449	0.000314	3.141426	1.064344	-0.000126
 934	9.2834e+01	2.8379	7.610001	0.000395	3.952117	1.339013	-0.000158
 935	9.2933e+01	2.7785	7.500998	0.000274	2.736081	0.927009	-0.000110
 936	9.3032e+01	2.7481	7.391996	0.000274	2.736081	0.927009	-0.000110
 937	9.3132e+01	2.7079	7.202250	0.000476	4.762807	1.613683	-0.000191
 938	9.3231e+01	2.6614	7.157842	0.000111	1.114700	0.377670	-0.000045
 939	9.3331e+01	2.6261	6.972133	0.000466	4.661471	1.579349	-0.000187
 940	9.3430e+01	2.5860	6.915614	0.000142	1.418709	0.480671	-0.000057
 941	9.3530e+01	2.5459	6.746054	0.000426	4.256126	1.442014	-0.000170
 942	9.3629e+01	2.5170	6.608791	0.000345	3.445435	1.167345	-0.000138
 943	9.3729e+01	2.4705	6.487677	0.000304	3.040090	1.030010	-0.000122
 944	9.3829e+01	2.4368	6.322155	0.000415	4.154789	1.407681	-0.000166
 945	9.3928e+01	2.3919	6.184892	0.000345	3.445435	1.167345	-0.000138
 946	9.4028e+01	2.3486	6.071852	0.000284	2.837417	0.961343	-0.000114
 947	9.4127e+01	2.3037	5.930552	0.000355	3.546771	1.201679	-0.000142
 948	9.4227e+01	2.2668	5.769067	0.000405	4.053453	1.373347	-0.000162
 949	9.4326e+01	2.2283	5.635841	0.000334	3.344099	1.133011	-0.000134
 950	9.4425e+01	2.1914	5.514727	0.000304	3.040090	1.030010	-0.000122
 951	9.4525e+01	2.1529	5.389576	0.000314	3.141426	1.064344	-0.000126
 952	9.4624e+01	2.1144	5.244239	0.000365	3.648108	1.236012	-0.000146
 953	9.4724e+01	2.0791	5.127162	0.000294	2.938753	0.995677	-0.000118
 954	9.4823e+01	2.0294	5.006048	0.000304	3.040090	1.030010	-0.000122
 955	9.4923e+01	1.9860	4.872823	0.000334	3.344099	1.133011	-0.000134
 956	9.5022e+01	1.9475	4.743634	0.000324	3.242762	1.098678	-0.000130
 957	9.5122e+01	1.9155	4.606372	0.000345	3.445435	1.167345	-0.000138
 958	9.5222e+01	1.8737	4.428738	0.000446	4.458798	1.510682	-0.000179
 959	9.5321e+01	1.8288	4.339921	0.000223	2.229399	0.755341	-0.000089
 960	9.5421e+01	1.7903	4.202658	0.000345	3.445435	1.167345	-0.000138
 961	9.5520e+01	1.7534	4.057321	0.000365	3.648108	1.236012	-0.000146
 962	9.5620e+01	1.7165	3.936207	0.000304	3.040090	1.030010	-0.000122
 963	9.5719e+01	1.6780	3.770685	0.000415	4.154789	1.407681	-0.000166
 964	9.5819e+01	1.6283	3.677831	0.000233	2.330735	0.789675	-0.000093
 965	9.5918e+01	1.5802	3.548642	0.000324	3.242762	1.098678	-0.000130
 966	9.6017e+01	1.5513	3.391194	0.000395	3.952117	1.339013	-0.000158
 967	9.6117e+01	1.5128	3.241820	0.000375	3.749444	1.270346	-0.000150
 968	9.6216e+01	1.4727	3.136854	0.000263	2.634744	0.892676	-0.000105
 969	9.6316e+01	1.4310	3.019778	0.000294	2.938753	0.995677	-0.000118
 970	9.6415e+01	1.3893	2.890589	0.000324	3.242762	1.098678	-0.000130
 971	9.6515e+01	1.3524	2.753327	0.000345	3.445435	1.167345	-0.000138
 972	9.6615e+01	1.3251	2.607990	0.000365	3.648108	1.236012	-0.000146
 973	9.6714e+01	1.2706	2.503024	0.000263	2.634744	0.892676	-0.000105
 974	9.6814e+01	1.2272	2.349613	0.000385	3.850780	1.304680	-0.000154
 975	9.6913e+01	1.1935	2.244647	0.000263	2.634744	0.892676	-0.000105
 976	9.7013e+01	1.1406	2.127571	0.000294	2.938753	0.995677	-0.000118
 977	9.7112e+01	1.1069	1.913602	0.000537	5.370825	1.819685	-0.000215
 978	9.7212e+01	1.0652	1.840934	0.000182	1.824054	0.618006	-0.000073
 979	9.7311e+01	1.0267	1.647151	0.000486	4.864143	1.648016	-0.000195
 980	9.7410e+01	0.9962	1.566409	0.000203	2.026726	0.686674	-0.000081
 981	9.7510e+01	0.9625	1.445295	0.000304	3.040090	1.030010	-0.000122
 982	9.7609e+01	0.9080	1.291883	0.000385	3.850780	1.304680	-0.000154
 983	9.7709e+01	0.8791	1.142509	0.000375	3.749444	1.270346	-0.000150
 984	9.7808e+01	0.8438	1.049655	0.000233	2.330735	0.789675	-0.000093
 985	9.7908e+01	0.7893	0.884133	0.000415	4.154789	1.407681	-0.000166
 986	9.8007e+01	0.7556	0.767056	0.000294	2.938753	0.995677	-0.000118
 987	9.8107e+01	0.7091	0.649979	0.000294	2.938753	0.995677	-0.000118
 988	9.8207e+01	0.6722	0.480419	0.000426	4.256126	1.442014	-0.000170
 989	9.8306e+01	0.6385	0.383528	0.000243	2.432072	0.824008	-0.000097
 990	9.8406e+01	0.5920	0.258377	0.000314	3.141426	1.064344	-0.000126
 991	9.8505e+01	0.5535	0.104966	0.000385	3.850780	1.304680	-0.000154
 992	9.8605e+01	0.5053	-0.004037	0.000274	2.736081	0.927009	-0.000110
 993	9.8704e+01	0.4749	-0.169560	0.000415	4.154789	1.407681	-0.000166
 994	9.8803e+01	0.4219	-0.258377	0.000223	2.229399	0.755341	-0.000089
 995	9.8903e+01	0.4011	-0.379491	0.000304	3.040090	1.030010	-0.000122
 996	9.9002e+01	0.3529	-0.577310	0.000497	4.965480	1.682350	-0.000199
 997	9.9102e+01	0.3128	-0.678239	0.000253	2.533408	0.858342	-0.000101
 998	9.9201e+01	0.2679	-0.811464	0.000334	3.344099	1.133011	-0.000134
 999	9.9301e+01	0.2326	-0.924504	0.000284	2.837417	0.961343	-0.000114
1000	9.9400e+01	0.1925	-1.057730	0.000334	3.344099	1.133011	-0.000134
1001	9.9500e+01	0.1588	-1.174806	0.000294	2.938753	0.995677	-0.000118
1002	9.9600e+01	0.1187	-1.332255	0.000395	3.952117	1.339013	-0.000158
1003	9.9699e+01	0.0818	-1.485666	0.000385	3.850780	1.304680	-0.000154
1004	9.9799e+01	0.0289	-1.578520	0.000233	2.330735	0.789675	-0.000093
1005	9.9898e+01	0.0000	-1.695597	0.000294	2.938753	0.995677	-0.000118
1006	9.9998e+01	-0.0449	-1.816711	0.000304	3.040090	1.030010	-0.000122
1007	1.0010e+02	-0.0802	-1.978197	0.000405	4.053453	1.373347	-0.000162
1008	1.0020e+02	-0.1139	-2.107385	0.000324	3.242762	1.098678	-0.000130
1009	1.0030e+02	-0.1636	-2.220425	0.000284	2.837417	0.961343	-0.000114
1010	1.0040e+02	-0.1941	-2.341539	0.000304	3.040090	1.030010	-0.000122
1011	1.0050e+02	-0.2278	-2.458616	0.000294	2.938753	0.995677	-0.000118
1012	1.0059e+02	-0.2807	-2.648361	0.000476	4.762807	1.613683	-0.000191
1013	1.0069e+02	-0.3160	-2.721029	0.000182	1.824054	0.618006	-0.000073
1014	1.0079e+02	-0.3577	-2.870404	0.000375	3.749444	1.270346	-0.000150
1015	1.0089e+02	-0.3962	-3.007666	0.000345	3.445435	1.167345	-0.000138
1016	1.0099e+02	-0.4315	-3.169152	0.000405	4.053453	1.373347	-0.000162
1017	1.0109e+02	-0.4668	-3.278154	0.000274	2.736081	0.927009	-0.000110
1018	1.0119e+02	-0.5198	-3.399268	0.000304	3.040090	1.030010	-0.000122
1019	1.0129e+02	-0.5503	-3.564791	0.000415	4.154789	1.407681	-0.000166
1020	1.0139e+02	-0.5936	-3.645534	0.000203	2.026726	0.686674	-0.000081
1021	1.0149e+02	-0.6240	-3.786833	0.000355	3.546771	1.201679	-0.000142
1022	1.0159e+02	-0.6674	-3.936207	0.000375	3.749444	1.270346	-0.000150
1023	1.0169e+02	-0.7075	-4.049247	0.000284	2.837417	0.961343	-0.000114
1024	1.0179e+02	-0.7524	-4.210733	0.000405	4.053453	1.373347	-0.000162
1025	1.0189e+02	-0.7957	-4.283401	0.000182	1.824054	0.618006	-0.000073
1026	1.0199e+02	-0.8310	-4.436812	0.000385	3.850780	1.304680	-0.000154
1027	1.0209e+02	-0.8679	-4.561963	0.000314	3.141426	1.064344	-0.000126
1028	1.0219e+02	-0.9064	-4.703263	0.000355	3.546771	1.201679	-0.000142
1029	1.0229e+02	-0.9609	-4.856674	0.000385	3.850780	1.304680	-0.000154
1030	1.0239e+02	-0.9898	-4.973751	0.000294	2.938753	0.995677	-0.000118
1031	1.0248e+02	-1.0428	-5.086791	0.000284	2.837417	0.961343	-0.000114
1032	1.0258e+02	-1.0748	-5.244239	0.000395	3.952117	1.339013	-0.000158
1033	1.0268e+02	-1.1165	-5.357279	0.000284	2.837417	0.961343	-0.000114
1034	1.0278e+02	-1.1502	-5.474356	0.000294	2.938753	0.995677	-0.000118
1035	1.0288e+02	-1.1871	-5.607582	0.000334	3.344099	1.133011	-0.000134
1036	1.0298e+02	-1.2288	-5.724658	0.000294	2.938753	0.995677	-0.000118
1037	1.0308e+02	-1.2625	-5.801364	0.000193	1.925390	0.652340	-0.000077
1038	1.0318e+02	-1.3074	-5.974961	0.000436	4.357462	1.476348	-0.000174
1039	1.0328e+02	-1.3427	-6.075889	0.000253	2.533408	0.858342	-0.000101
1040	1.0338e+02	-1.3909	-6.205078	0.000324	3.242762	1.098678	-0.000130
1041	1.0348e+02	-1.4278	-6.382712	0.000446	4.458798	1.510682	-0.000179
1042	1.0358e+02	-1.4631	-6.511900	0.000324	3.242762	1.098678	-0.000130
1043	1.0368e+02	-1.5096	-6.657237	0.000365	3.648108	1.236012	-0.000146
1044	1.0378e+02	-1.5593	-6.798537	0.000355	3.546771	1.201679	-0.000142
1045	1.0388e+02	-1.5818	-6.871205	0.000182	1.824054	0.618006	-0.000073
1046	1.0398e+02	-1.6267	-6.984245	0.000284	2.837417	0.961343	-0.000114
1047	1.0408e+02	-1.6732	-7.133619	0.000375	3.749444	1.270346	-0.000150
1048	1.0418e+02	-1.7181	-7.282993	0.000375	3.749444	1.270346	-0.000150
1049	1.0428e+02	-1.7438	-7.416218	0.000334	3.344099	1.133011	-0.000134
1050	1.0438e+02	-1.7871	-7.545407	0.000324	3.242762	1.098678	-0.000130
1051	1.0447e+02	-1.8288	-7.646335	0.000253	2.533408	0.858342	-0.000101
1052	1.0457e+02	-1.8689	-7.779561	0.000334	3.344099	1.133011	-0.000134
1053	1.0467e+02	-1.9122	-7.941046	0.000405	4.053453	1.373347	-0.000162
1054	1.0477e+02	-1.9556	-8.046012	0.000263	2.634744	0.892676	-0.000105
1055	1.0487e+02	-1.9892	-8.150977	0.000263	2.634744	0.892676	-0.000105
1056	1.0497e+02	-2.0310	-8.304388	0.000385	3.850780	1.304680	-0.000154
1057	1.0507e+02	-2.0614	-8.425502	0.000304	3.040090	1.030010	-0.000122
1058	1.0517e+02	-2.1064	-8.530468	0.000263	2.634744	0.892676	-0.000105
1059	1.0527e+02	-2.1417	-8.651582	0.000304	3.040090	1.030010	-0.000122
1060	1.0537e+02	-2.1866	-8.788845	0.000345	3.445435	1.167345	-0.000138
1061	1.0547e+02	-2.2235	-8.930144	0.000355	3.546771	1.201679	-0.000142
1062	1.0557e+02	-2.2556	-9.103741	0.000436	4.357462	1.476348	-0.000174
1063	1.0567e+02	-2.3005	-9.180447	0.000193	1.925390	0.652340	-0.000077
1064	1.0577e+02	-2.3518	-9.305598	0.000314	3.141426	1.064344	-0.000126
1065	1.0587e+02	-2.3775	-9.450935	0.000365	3.648108	1.236012	-0.000146
1066	1.0597e+02	-2.4288	-9.568012	0.000294	2.938753	0.995677	-0.000118
1067	1.0607e+02	-2.4705	-9.689126	0.000304	3.040090	1.030010	-0.000122
1068	1.0617e+02	-2.5042	-9.862723	0.000436	4.357462	1.476348	-0.000174
1069	1.0627e+02	-2.5539	-9.979800	0.000294	2.938753	0.995677	-0.000118
1070	1.0637e+02	-2.5876	-10.088802	0.000274	2.736081	0.927009	-0.000110
1071	1.0647e+02	-2.6309	-10.226065	0.000345	3.445435	1.167345	-0.000138
1072	1.0656e+02	-2.6710	-10.347179	0.000304	3.040090	1.030010	-0.000122
1073	1.0666e+02	-2.7063	-10.468293	0.000304	3.040090	1.030010	-0.000122
1074	1.0676e+02	-2.7432	-10.641890	0.000436	4.357462	1.476348	-0.000174
1075	1.0686e+02	-2.7898	-10.690335	0.000122	1.216036	0.412004	-0.000049
1076	1.0696e+02	-2.8299	-10.815487	0.000314	3.141426	1.064344	-0.000126
1077	1.0706e+02	-2.8652	-10.964861	0.000375	3.749444	1.270346	-0.000150
1078	1.0716e+02	-2.9005	-11.102123	0.000345	3.445435	1.167345	-0.000138
1079	1.0726e+02	-2.9454	-11.247460	0.000365	3.648108	1.236012	-0.000146
1080	1.0736e+02	-2.9855	-11.336277	0.000223	2.229399	0.755341	-0.000089
1081	1.0746e+02	-3.0240	-11.534097	0.000497	4.965480	1.682350	-0.000199
1082	1.0756e+02	-3.0609	-11.594654	0.000152	1.520045	0.515005	-0.000061
1083	1.0766e+02	-3.1090	-11.731916	0.000345	3.445435	1.167345	-0.000138
1084	1.0776e+02	-3.1491	-11.869179	0.000345	3.445435	1.167345	-0.000138
1085	1.0786e+02	-3.1860	-12.022590	0.000385	3.850780	1.304680	-0.000154
1086	1.0796e+02	-3.2245	-12.135630	0.000284	2.837417	0.961343	-0.000114
1087	1.0806e+02	-3.2662	-12.232521	0.000243	2.432072	0.824008	-0.000097
1088	1.0816e+02	-3.2999	-12.402081	0.000426	4.256126	1.442014	-0.000170
1089	1.0826e+02	-3.3496	-12.519158	0.000294	2.938753	0.995677	-0.000118
1090	1.0836e+02	-3.3849	-12.612012	0.000233	2.330735	0.789675	-0.000093
1091	1.0845e+02	-3.4250	-12.769460	0.000395	3.952117	1.339013	-0.000158
1092	1.0855e+02	-3.4571	-12.898649	0.000324	3.242762	1.098678	-0.000130
1093	1.0865e+02	-3.5052	-13.015726	0.000294	2.938753	0.995677	-0.000118
1094	1.0875e+02	-3.5389	-13.112617	0.000243	2.432072	0.824008	-0.000097
1095	1.0885e+02	-3.5823	-13.217582	0.000263	2.634744	0.892676	-0.000105
1096	1.0895e+02	-3.6208	-13.379068	0.000405	4.053453	1.373347	-0.000162
1097	1.0905e+02	-3.6689	-13.467885	0.000223	2.229399	0.755341	-0.000089
1098	1.0915e+02	-3.6929	-13.617259	0.000375	3.749444	1.270346	-0.000150
1099	1.0925e+02	-3.7411	-13.746447	0.000324	3.242762	1.098678	-0.000130
1100	1.0935e+02	-3.7780	-13.916007	0.000426	4.256126	1.442014	-0.000170
1101	1.0945e+02	-3.8293	-13.980601	0.000162	1.621381	0.549339	-0.000065
1102	1.0955e+02	-3.8614	-14.146124	0.000415	4.154789	1.407681	-0.000166
1103	1.0965e+02	-3.8935	-14.234941	0.000223	2.229399	0.755341	-0.000089
1104	1.0975e+02	-3.9448	-14.380277	0.000365	3.648108	1.236012	-0.000146
1105	1.0985e+02	-3.9817	-14.505429	0.000314	3.141426	1.064344	-0.000126
1106	1.0995e+02	-4.0218	-14.634617	0.000324	3.242762	1.098678	-0.000130
1107	1.1005e+02	-4.0667	-14.767843	0.000334	3.344099	1.133011	-0.000134
1108	1.1015e+02	-4.1004	-14.909142	0.000355	3.546771	1.201679	-0.000142
1109	1.1025e+02	-4.1325	-15.006034	0.000243	2.432072	0.824008	-0.000097
1110	1.1035e+02	-4.1870	-15.151370	0.000365	3.648108	1.236012	-0.000146
1111	1.1044e+02	-4.2255	-15.260373	0.000274	2.736081	0.927009	-0.000110
1112	1.1054e+02	-4.2592	-15.425896	0.000415	4.154789	1.407681	-0.000166
1113	1.1064e+02	-4.2865	-15.494527	0.000172	1.722717	0.583672	-0.000069
1114	1.1074e+02	-4.3362	-15.631790	0.000345	3.445435	1.167345	-0.000138
1115	1.1084e+02	-4.3796	-15.769052	0.000345	3.445435	1.167345	-0.000138
1116	1.1094e+02	-4.4229	-15.930538	0.000405	4.053453	1.373347	-0.000162
1117	1.1104e+02	-4.4646	-16.035503	0.000263	2.634744	0.892676	-0.000105
1118	1.1114e+02	-4.4999	-16.172766	0.000345	3.445435	1.167345	-0.000138
1119	1.1124e+02	-4.5384	-16.293880	0.000304	3.040090	1.030010	-0.000122
1120	1.1134e+02	-4.5801	-16.419031	0.000314	3.141426	1.064344	-0.000126
1121	1.1144e+02	-4.6202	-16.552257	0.000334	3.344099	1.133011	-0.000134
1122	1.1154e+02	-4.6603	-16.649148	0.000243	2.432072	0.824008	-0.000097
1123	1.1164e+02	-4.6988	-16.762188	0.000284	2.837417	0.961343	-0.000114
1124	1.1174e+02	-4.7293	-16.903487	0.000355	3.546771	1.201679	-0.000142
1125	1.1184e+02	-4.7710	-17.024601	0.000304	3.040090	1.030010	-0.000122
1126	1.1194e+02	-4.8175	-17.178013	0.000385	3.850780	1.304680	-0.000154
1127	1.1204e+02	-4.8608	-17.299127	0.000304	3.040090	1.030010	-0.000122
1128	1.1214e+02	-4.8977	-17.408129	0.000274	2.736081	0.927009	-0.000110
1129	1.1224e+02	-4.9410	-17.533281	0.000314	3.141426	1.064344	-0.000126
1130	1.1234e+02	-4.9811	-17.650357	0.000294	2.938753	0.995677	-0.000118
1131	1.1244e+02	-5.0132	-17.775509	0.000314	3.141426	1.064344	-0.000126
1132	1.1253e+02	-5.0533	-17.884511	0.000274	2.736081	0.927009	-0.000110
1133	1.1263e+02	-5.0790	-18.005625	0.000304	3.040090	1.030010	-0.000122
1134	1.1273e+02	-5.1351	-18.142888	0.000345	3.445435	1.167345	-0.000138
1135	1.1283e+02	-5.1737	-18.284188	0.000355	3.546771	1.201679	-0.000142
1136	1.1293e+02	-5.2073	-18.401265	0.000294	2.938753	0.995677	-0.000118
1137	1.1303e+02	-5.2571	-18.514304	0.000284	2.837417	0.961343	-0.000114
1138	1.1313e+02	-5.2940	-18.627344	0.000284	2.837417	0.961343	-0.000114
1139	1.1323e+02	-5.3293	-18.780755	0.000385	3.850780	1.304680	-0.000154
1140	1.1333e+02	-5.3710	-18.893795	0.000284	2.837417	0.961343	-0.000114
1141	1.1343e+02	-5.4079	-19.022984	0.000324	3.242762	1.098678	-0.000130
1142	1.1353e+02	-5.4608	-19.148135	0.000314	3.141426	1.064344	-0.000126
1143	1.1363e+02	-5.4897	-19.289435	0.000355	3.546771	1.201679	-0.000142
1144	1.1373e+02	-5.5362	-19.374214	0.000213	2.128063	0.721007	-0.000085
1145	1.1383e+02	-5.5715	-19.507440	0.000334	3.344099	1.133011	-0.000134
1146	1.1393e+02	-5.6068	-19.620480	0.000284	2.837417	0.961343	-0.000114
1147	1.1403e+02	-5.6678	-19.749668	0.000324	3.242762	1.098678	-0.000130
1148	1.1413e+02	-5.6854	-19.890968	0.000355	3.546771	1.201679	-0.000142
1149	1.1423e+02	-5.7383	-20.012082	0.000304	3.040090	1.030010	-0.000122
1150	1.1433e+02	-5.7752	-20.088787	0.000193	1.925390	0.652340	-0.000077
1151	1.1442e+02	-5.8025	-20.201827	0.000284	2.837417	0.961343	-0.000114
1152	1.1452e+02	-5.8522	-20.326978	0.000314	3.141426	1.064344	-0.000126
1153	1.1462e+02	-5.8923	-20.448093	0.000304	3.040090	1.030010	-0.000122
1154	1.1472e+02	-5.9308	-20.605541	0.000395	3.952117	1.339013	-0.000158
1155	1.1482e+02	-5.9677	-20.742803	0.000345	3.445435	1.167345	-0.000138
1156	1.1492e+02	-6.0127	-20.912363	0.000426	4.256126	1.442014	-0.000170
1157	1.1502e+02	-6.0480	-20.952734	0.000101	1.013363	0.343337	-0.000041
1158	1.1512e+02	-6.0961	-21.118257	0.000415	4.154789	1.407681	-0.000166
1159	1.1522e+02	-6.1314	-21.255520	0.000345	3.445435	1.167345	-0.000138
1160	1.1532e+02	-6.1683	-21.376634	0.000304	3.040090	1.030010	-0.000122
1161	1.1542e+02	-6.2052	-21.485636	0.000274	2.736081	0.927009	-0.000110
1162	1.1552e+02	-6.2565	-21.566379	0.000203	2.026726	0.686674	-0.000081
1163	1.1562e+02	-6.2998	-21.691530	0.000314	3.141426	1.064344	-0.000126
1164	1.1572e+02	-6.3335	-21.816682	0.000314	3.141426	1.064344	-0.000126
1165	1.1582e+02	-6.3736	-21.945870	0.000324	3.242762	1.098678	-0.000130
1166	1.1592e+02	-6.4073	-22.071021	0.000314	3.141426	1.064344	-0.000126
1167	1.1602e+02	-6.4474	-22.147727	0.000193	1.925390	0.652340	-0.000077
1168	1.1612e+02	-6.4955	-22.297101	0.000375	3.749444	1.270346	-0.000150
1169	1.1622e+02	-6.5308	-22.398029	0.000253	2.533408	0.858342	-0.000101
1170	1.1632e+02	-6.5645	-22.442438	0.000111	1.114700	0.377670	-0.000045
1171	1.1642e+02	-6.5998	-22.603923	0.000405	4.053453	1.373347	-0.000162
1172	1.1651e+02	-6.6431	-22.753297	0.000375	3.749444	1.270346	-0.000150
1173	1.1661e+02	-6.6784	-22.890560	0.000345	3.445435	1.167345	-0.000138
1174	1.1671e+02	-6.7282	-23.035897	0.000365	3.648108	1.236012	-0.000146
1175	1.1681e+02	-6.7650	-23.185271	0.000375	3.749444	1.270346	-0.000150
1176	1.1691e+02	-6.8084	-23.282162	0.000243	2.432072	0.824008	-0.000097
1177	1.1701e+02	-6.8437	-23.403276	0.000304	3.040090	1.030010	-0.000122
1178	1.1711e+02	-6.8838	-23.528427	0.000314	3.141426	1.064344	-0.000126
1179	1.1721e+02	-6.9207	-23.637430	0.000274	2.736081	0.927009	-0.000110
1180	1.1731e+02	-6.9624	-23.802952	0.000415	4.154789	1.407681	-0.000166
1181	1.1741e+02	-6.9880	-23.928104	0.000314	3.141426	1.064344	-0.000126
1182	1.1751e+02	-7.0442	-24.008846	0.000203	2.026726	0.686674	-0.000081
1183	1.1761e+02	-7.0827	-24.142072	0.000334	3.344099	1.133011	-0.000134
1184	1.1771e+02	-7.1276	-24.267223	0.000314	3.141426	1.064344	-0.000126
1185	1.1781e+02	-7.1725	-24.376226	0.000274	2.736081	0.927009	-0.000110
1186	1.1791e+02	-7.2046	-24.533674	0.000395	3.952117	1.339013	-0.000158
1187	1.1801e+02	-7.2431	-24.610379	0.000193	1.925390	0.652340	-0.000077
1188	1.1811e+02	-7.2928	-24.695159	0.000213	2.128063	0.721007	-0.000085
1189	1.1821e+02	-7.3233	-24.812236	0.000294	2.938753	0.995677	-0.000118
1190	1.1831e+02	-7.3682	-24.897016	0.000213	2.128063	0.721007	-0.000085
1191	1.1841e+02	-7.4003	-25.058502	0.000405	4.053453	1.373347	-0.000162
1192	1.1850e+02	-7.4388	-25.203838	0.000365	3.648108	1.236012	-0.000146
1193	1.1860e+02	-7.4789	-25.292655	0.000223	2.229399	0.755341	-0.000089
1194	1.1870e+02	-7.5094	-25.446067	0.000385	3.850780	1.304680	-0.000154
1195	1.1880e+02	-7.5640	-25.575255	0.000324	3.242762	1.098678	-0.000130
1196	1.1890e+02	-7.5944	-25.668109	0.000233	2.330735	0.789675	-0.000093
1197	1.1900e+02	-7.6394	-25.781149	0.000284	2.837417	0.961343	-0.000114
1198	1.1910e+02	-7.6811	-25.882077	0.000253	2.533408	0.858342	-0.000101
1199	1.1920e+02	-7.7228	-26.015303	0.000334	3.344099	1.133011	-0.000134
1200	1.1930e+02	-7.7661	-26.100083	0.000213	2.128063	0.721007	-0.000085
1201	1.1940e+02	-7.7934	-26.241382	0.000355	3.546771	1.201679	-0.000142
1202	1.1950e+02	-7.8415	-26.322125	0.000203	2.026726	0.686674	-0.000081
1203	1.1960e+02	-7.8896	-26.463425	0.000355	3.546771	1.201679	-0.000142
1204	1.1970e+02	-7.9265	-26.576465	0.000284	2.837417	0.961343	-0.000114
1205	1.1980e+02	-7.9602	-26.657207	0.000203	2.026726	0.686674	-0.000081
1206	1.1990e+02	-8.0019	-26.798507	0.000355	3.546771	1.201679	-0.000142
1207	1.2000e+02	-8.0372	-26.899435	0.000253	2.533408	0.858342	-0.000101
1208	1.2010e+02	-8.0853	-27.040735	0.000355	3.546771	1.201679	-0.000142
1209	1.2020e+02	-8.1206	-27.141664	0.000253	2.533408	0.858342	-0.000101
1210	1.2030e+02	-8.1527	-27.262778	0.000304	3.040090	1.030010	-0.000122
1211	1.2039e+02	-8.2024	-27.428300	0.000415	4.154789	1.407681	-0.000166
1212	1.2049e+02	-8.2377	-27.472709	0.000111	1.114700	0.377670	-0.000045
1213	1.2059e+02	-8.2827	-27.626120	0.000385	3.850780	1.304680	-0.000154
1214	1.2069e+02	-8.3115	-27.727048	0.000253	2.533408	0.858342	-0.000101
1215	1.2079e+02	-8.3661	-27.864311	0.000345	3.445435	1.167345	-0.000138
1216	1.2089e+02	-8.4078	-27.957165	0.000233	2.330735	0.789675	-0.000093
1217	1.2099e+02	-8.4399	-28.074242	0.000294	2.938753	0.995677	-0.000118
1218	1.2109e+02	-8.4784	-28.203430	0.000324	3.242762	1.098678	-0.000130
1219	1.2119e+02	-8.5185	-28.356841	0.000385	3.850780	1.304680	-0.000154
1220	1.2129e+02	-8.5714	-28.429510	0.000182	1.824054	0.618006	-0.000073
1221	1.2139e+02	-8.6067	-28.546587	0.000294	2.938753	0.995677	-0.000118
1222	1.2149e+02	-8.6388	-28.675775	0.000324	3.242762	1.098678	-0.000130
1223	1.2159e+02	-8.6773	-28.784778	0.000274	2.736081	0.927009	-0.000110
1224	1.2169e+02	-8.7222	-28.893780	0.000274	2.736081	0.927009	-0.000110
1225	1.2179e+02	-8.7543	-29.006820	0.000284	2.837417	0.961343	-0.000114
1226	1.2189e+02	-8.7960	-29.111786	0.000263	2.634744	0.892676	-0.000105
1227	1.2199e+02	-8.8377	-29.236937	0.000314	3.141426	1.064344	-0.000126
1228	1.2209e+02	-8.8730	-29.382274	0.000365	3.648108	1.236012	-0.000146
1229	1.2219e+02	-8.9179	-29.463017	0.000203	2.026726	0.686674	-0.000081
1230	1.2229e+02	-8.9516	-29.576056	0.000284	2.837417	0.961343	-0.000114
1231	1.2239e+02	-8.9981	-29.660836	0.000213	2.128063	0.721007	-0.000085
1232	1.2248e+02	-9.0334	-29.846545	0.000466	4.661471	1.579349	-0.000187
1233	1.2258e+02	-9.0703	-29.907102	0.000152	1.520045	0.515005	-0.000061
1234	1.2268e+02	-9.1136	-30.052438	0.000365	3.648108	1.236012	-0.000146
1235	1.2278e+02	-9.1618	-30.145293	0.000233	2.330735	0.789675	-0.000093
1236	1.2288e+02	-9.1923	-30.217961	0.000182	1.824054	0.618006	-0.000073
1237	1.2298e+02	-9.2436	-30.351186	0.000334	3.344099	1.133011	-0.000134
1238	1.2308e+02	-9.2773	-30.500561	0.000375	3.749444	1.270346	-0.000150
1239	1.2318e+02	-9.3238	-30.605526	0.000263	2.634744	0.892676	-0.000105
1240	1.2328e+02	-9.3671	-30.734714	0.000324	3.242762	1.098678	-0.000130
1241	1.2338e+02	-9.3896	-30.839680	0.000263	2.634744	0.892676	-0.000105
1242	1.2348e+02	-9.4377	-30.976943	0.000345	3.445435	1.167345	-0.000138
1243	1.2358e+02	-9.4810	-31.081908	0.000263	2.634744	0.892676	-0.000105
1244	1.2368e+02	-9.5163	-31.174762	0.000233	2.330735	0.789675	-0.000093
1245	1.2378e+02	-9.5725	-31.352396	0.000446	4.458798	1.510682	-0.000179
1246	1.2388e+02	-9.5869	-31.416990	0.000162	1.621381	0.549339	-0.000065
1247	1.2398e+02	-9.6286	-31.562327	0.000365	3.648108	1.236012	-0.000146
1248	1.2408e+02	-9.6575	-31.659218	0.000243	2.432072	0.824008	-0.000097
1249	1.2418e+02	-9.7120	-31.752073	0.000233	2.330735	0.789675	-0.000093
1250	1.2428e+02	-9.7489	-31.848964	0.000243	2.432072	0.824008	-0.000097
1251	1.2438e+02	-9.8019	-31.970078	0.000304	3.040090	1.030010	-0.000122
1252	1.2447e+02	-9.8243	-32.071006	0.000253	2.533408	0.858342	-0.000101
1253	1.2457e+02	-9.8741	-32.188083	0.000294	2.938753	0.995677	-0.000118
1254	1.2467e+02	-9.9126	-32.301123	0.000284	2.837417	0.961343	-0.000114
1255	1.2477e+02	-9.9591	-32.454534	0.000385	3.850780	1.304680	-0.000154
1256	1.2487e+02	-9.9944	-32.547388	0.000233	2.330735	0.789675	-0.000093
1257	1.2497e+02	-10.0377	-32.644280	0.000243	2.432072	0.824008	-0.000097
1258	1.2507e+02	-10.0810	-32.805765	0.000405	4.053453	1.373347	-0.000162
1259	1.2517e+02	-10.1131	-32.878433	0.000182	1.824054	0.618006	-0.000073
1260	1.2527e+02	-10.1644	-33.007622	0.000324	3.242762	1.098678	-0.000130
1261	1.2537e+02	-10.1997	-33.056067	0.000122	1.216036	0.412004	-0.000049
1262	1.2547e+02	-10.2302	-33.217553	0.000405	4.053453	1.373347	-0.000162
1263	1.2557e+02	-10.2783	-33.334630	0.000294	2.938753	0.995677	-0.000118
1264	1.2567e+02	-10.3152	-33.403261	0.000172	1.722717	0.583672	-0.000069
1265	1.2577e+02	-10.3489	-33.536487	0.000334	3.344099	1.133011	-0.000134
1266	1.2587e+02	-10.3906	-33.653564	0.000294	2.938753	0.995677	-0.000118
1267	1.2597e+02	-10.4211	-33.798900	0.000365	3.648108	1.236012	-0.000146
1268	1.2607e+02	-10.4756	-33.891755	0.000233	2.330735	0.789675	-0.000093
1269	1.2617e+02	-10.5045	-33.964423	0.000182	1.824054	0.618006	-0.000073
1270	1.2627e+02	-10.5575	-34.113797	0.000375	3.749444	1.270346	-0.000150
1271	1.2636e+02	-10.5895	-34.194540	0.000203	2.026726	0.686674	-0.000081
1272	1.2646e+02	-10.6377	-34.299505	0.000263	2.634744	0.892676	-0.000105
1273	1.2656e+02	-10.6778	-34.448879	0.000375	3.749444	1.270346	-0.000150
1274	1.2666e+02	-10.7179	-34.545771	0.000243	2.432072	0.824008	-0.000097
1275	1.2676e+02	-10.7484	-34.654773	0.000274	2.736081	0.927009	-0.000110
1276	1.2686e+02	-10.7917	-34.771850	0.000294	2.938753	0.995677	-0.000118
1277	1.2696e+02	-10.8350	-34.925261	0.000385	3.850780	1.304680	-0.000154
1278	1.2706e+02	-10.8655	-35.018115	0.000233	2.330735	0.789675	-0.000093
1279	1.2716e+02	-10.9168	-35.090784	0.000182	1.824054	0.618006	-0.000073
1280	1.2726e+02	-10.9569	-35.256306	0.000415	4.154789	1.407681	-0.000166
1281	1.2736e+02	-10.9874	-35.369346	0.000284	2.837417	0.961343	-0.000114
1282	1.2746e+02	-11.0339	-35.478349	0.000274	2.736081	0.927009	-0.000110
1283	1.2756e+02	-11.0612	-35.599463	0.000304	3.040090	1.030010	-0.000122
1284	1.2766e+02	-11.1029	-35.720577	0.000304	3.040090	1.030010	-0.000122
1285	1.2776e+02	-11.1478	-35.821505	0.000253	2.533408	0.858342	-0.000101
1286	1.2786e+02	-11.1847	-35.934545	0.000284	2.837417	0.961343	-0.000114
1287	1.2796e+02	-11.2377	-36.055659	0.000304	3.040090	1.030010	-0.000122
1288	1.2806e+02	-11.2665	-36.128328	0.000182	1.824054	0.618006	-0.000073
1289	1.2816e+02	-11.3082	-36.245405	0.000294	2.938753	0.995677	-0.000118
1290	1.2826e+02	-11.3548	-36.354407	0.000274	2.736081	0.927009	-0.000110
1291	1.2835e+02	-11.3836	-36.414964	0.000152	1.520045	0.515005	-0.000061
1292	1.2845e+02	-11.4253	-36.552227	0.000345	3.445435	1.167345	-0.000138
1293	1.2855e+02	-11.4815	-36.717750	0.000415	4.154789	1.407681	-0.000166
1294	1.2865e+02	-11.5072	-36.802529	0.000213	2.128063	0.721007	-0.000085
1295	1.2875e+02	-11.5601	-36.915569	0.000284	2.837417	0.961343	-0.000114
1296	1.2885e+02	-11.5938	-37.044758	0.000324	3.242762	1.098678	-0.000130
1297	1.2895e+02	-11.6275	-37.125500	0.000203	2.026726	0.686674	-0.000081
1298	1.2905e+02	-11.6676	-37.222392	0.000243	2.432072	0.824008	-0.000097
1299	1.2915e+02	-11.7093	-37.343506	0.000304	3.040090	1.030010	-0.000122
1300	1.2925e+02	-11.7398	-37.517102	0.000436	4.357462	1.476348	-0.000174
1301	1.2935e+02	-11.7847	-37.618031	0.000253	2.533408	0.858342	-0.000101
1302	1.2945e+02	-11.8248	-37.731071	0.000284	2.837417	0.961343	-0.000114
1303	1.2955e+02	-11.8729	-37.860259	0.000324	3.242762	1.098678	-0.000130
1304	1.2965e+02	-11.9050	-37.949076	0.000223	2.229399	0.755341	-0.000089
1305	1.2975e+02	-11.9419	-38.045967	0.000243	2.432072	0.824008	-0.000097
1306	1.2985e+02	-11.9884	-38.171118	0.000314	3.141426	1.064344	-0.000126
1307	1.2995e+02	-12.0301	-38.251861	0.000203	2.026726	0.686674	-0.000081
1308	1.3005e+02	-12.0702	-38.336641	0.000213	2.128063	0.721007	-0.000085
1309	1.3015e+02	-12.1039	-38.453718	0.000294	2.938753	0.995677	-0.000118
1310	1.3025e+02	-12.1456	-38.570795	0.000294	2.938753	0.995677	-0.000118
1311	1.3034e+02	-12.1954	-38.740355	0.000426	4.256126	1.442014	-0.000170
1312	1.3044e+02	-12.2291	-38.788800	0.000122	1.216036	0.412004	-0.000049
1313	1.3054e+02	-12.2660	-38.853394	0.000162	1.621381	0.549339	-0.000065
1314	1.3064e+02	-12.3077	-39.026991	0.000436	4.357462	1.476348	-0.000174
1315	1.3074e+02	-12.3510	-39.099660	0.000182	1.824054	0.618006	-0.000073
1316	1.3084e+02	-12.3799	-39.244997	0.000365	3.648108	1.236012	-0.000146
1317	1.3094e+02	-12.4216	-39.341888	0.000243	2.432072	0.824008	-0.000097
1318	1.3104e+02	-12.4633	-39.487225	0.000365	3.648108	1.236012	-0.000146
1319	1.3114e+02	-12.4970	-39.616413	0.000324	3.242762	1.098678	-0.000130
1320	1.3124e+02	-12.5355	-39.701193	0.000213	2.128063	0.721007	-0.000085
1321	1.3134e+02	-12.5852	-39.830381	0.000324	3.242762	1.098678	-0.000130
1322	1.3144e+02	-12.6205	-39.927272	0.000243	2.432072	0.824008	-0.000097
1323	1.3154e+02	-12.6622	-40.020127	0.000233	2.330735	0.789675	-0.000093
1324	1.3164e+02	-12.7055	-40.129129	0.000274	2.736081	0.927009	-0.000110
1325	1.3174e+02	-12.7440	-40.266392	0.000345	3.445435	1.167345	-0.000138
1326	1.3184e+02	-12.7857	-40.347135	0.000203	2.026726	0.686674	-0.000081
1327	1.3194e+02	-12.8258	-40.399617	0.000132	1.317372	0.446338	-0.000053
1328	1.3204e+02	-12.8595	-40.508620	0.000274	2.736081	0.927009	-0.000110
1329	1.3214e+02	-12.9077	-40.641845	0.000334	3.344099	1.133011	-0.000134
1330	1.3224e+02	-12.9510	-40.718551	0.000193	1.925390	0.652340	-0.000077
1331	1.3234e+02	-12.9750	-40.867925	0.000375	3.749444	1.270346	-0.000150
1332	1.3243e+02	-13.0232	-40.932519	0.000162	1.621381	0.549339	-0.000065
1333	1.3253e+02	-13.0633	-41.029411	0.000243	2.432072	0.824008	-0.000097
1334	1.3263e+02	-13.0954	-41.186859	0.000395	3.952117	1.339013	-0.000158
1335	1.3273e+02	-13.1451	-41.324121	0.000345	3.445435	1.167345	-0.000138
1336	1.3283e+02	-13.1740	-41.408901	0.000213	2.128063	0.721007	-0.000085
1337	1.3293e+02	-13.2173	-41.509830	0.000253	2.533408	0.858342	-0.000101
1338	1.3303e+02	-13.2542	-41.610758	0.000253	2.533408	0.858342	-0.000101
1339	1.3313e+02	-13.2991	-41.772243	0.000405	4.053453	1.373347	-0.000162
1340	1.3323e+02	-13.3440	-41.877209	0.000263	2.634744	0.892676	-0.000105
1341	1.3333e+02	-13.3777	-41.998323	0.000304	3.040090	1.030010	-0.000122
1342	1.3343e+02	-13.4146	-42.083103	0.000213	2.128063	0.721007	-0.000085
1343	1.3353e+02	-13.4563	-42.212291	0.000324	3.242762	1.098678	-0.000130
1344	1.3363e+02	-13.4948	-42.301108	0.000223	2.229399	0.755341	-0.000089
1345	1.3373e+02	-13.5413	-42.337442	0.000091	0.912027	0.309003	-0.000037
1346	1.3383e+02	-13.5718	-42.474705	0.000345	3.445435	1.167345	-0.000138
1347	1.3393e+02	-13.6296	-42.607931	0.000334	3.344099	1.133011	-0.000134
1348	1.3403e+02	-13.6649	-42.664450	0.000142	1.418709	0.480671	-0.000057
1349	1.3413e+02	-13.6985	-42.801713	0.000345	3.445435	1.167345	-0.000138
1350	1.3423e+02	-13.7403	-42.894567	0.000233	2.330735	0.789675	-0.000093
1351	1.3432e+02	-13.7772	-42.999533	0.000263	2.634744	0.892676	-0.000105
1352	1.3442e+02	-13.8301	-43.092387	0.000233	2.330735	0.789675	-0.000093
1353	1.3452e+02	-13.8622	-43.261947	0.000426	4.256126	1.442014	-0.000170
1354	1.3462e+02	-13.8846	-43.399209	0.000345	3.445435	1.167345	-0.000138
1355	1.3472e+02	-13.9440	-43.500138	0.000253	2.533408	0.858342	-0.000101
1356	1.3482e+02	-13.9777	-43.601066	0.000253	2.533408	0.858342	-0.000101
1357	1.3492e+02	-14.0226	-43.722180	0.000304	3.040090	1.030010	-0.000122
1358	1.3502e+02	-14.0451	-43.790811	0.000172	1.722717	0.583672	-0.000069
1359	1.3512e+02	-14.1028	-43.924037	0.000334	3.344099	1.133011	-0.000134
1360	1.3522e+02	-14.1397	-43.992668	0.000172	1.722717	0.583672	-0.000069
1361	1.3532e+02	-14.1766	-44.109745	0.000294	2.938753	0.995677	-0.000118
1362	1.3542e+02	-14.2199	-44.202599	0.000233	2.330735	0.789675	-0.000093
1363	1.3552e+02	-14.2456	-44.295453	0.000233	2.330735	0.789675	-0.000093
1364	1.3562e+02	-14.2889	-44.356010	0.000152	1.520045	0.515005	-0.000061
1365	1.3572e+02	-14.3370	-44.473087	0.000294	2.938753	0.995677	-0.000118
1366	1.3582e+02	-14.3771	-44.582090	0.000274	2.736081	0.927009	-0.000110
1367	1.3592e+02	-14.4204	-44.683018	0.000253	2.533408	0.858342	-0.000101
1368	1.3602e+02	-14.4509	-44.804132	0.000304	3.040090	1.030010	-0.000122
1369	1.3612e+02	-14.4910	-44.901024	0.000243	2.432072	0.824008	-0.000097
1370	1.3622e+02	-14.5408	-45.018101	0.000294	2.938753	0.995677	-0.000118
1371	1.3631e+02	-14.5729	-45.119029	0.000253	2.533408	0.858342	-0.000101
1372	1.3641e+02	-14.6130	-45.211883	0.000233	2.330735	0.789675	-0.000093
1373	1.3651e+02	-14.6579	-45.328960	0.000294	2.938753	0.995677	-0.000118
1374	1.3661e+02	-14.6996	-45.498520	0.000426	4.256126	1.442014	-0.000170
1375	1.3671e+02	-14.7333	-45.526780	0.000071	0.709354	0.240336	-0.000028
1376	1.3681e+02	-14.7782	-45.700377	0.000436	4.357462	1.476348	-0.000174
1377	1.3691e+02	-14.8183	-45.801305	0.000253	2.533408	0.858342	-0.000101
1378	1.3701e+02	-14.8552	-45.902233	0.000253	2.533408	0.858342	-0.000101
1379	1.3711e+02	-14.8873	-46.007199	0.000263	2.634744	0.892676	-0.000105
1380	1.3721e+02	-14.9274	-46.091979	0.000213	2.128063	0.721007	-0.000085
1381	1.3731e+02	-14.9755	-46.213093	0.000304	3.040090	1.030010	-0.000122
1382	1.3741e+02	-15.0108	-46.330170	0.000294	2.938753	0.995677	-0.000118
1383	1.3751e+02	-15.0525	-46.390727	0.000152	1.520045	0.515005	-0.000061
1384	1.3761e+02	-15.0990	-46.451284	0.000152	1.520045	0.515005	-0.000061
1385	1.3771e+02	-15.1263	-46.548175	0.000243	2.432072	0.824008	-0.000097
1386	1.3781e+02	-15.1793	-46.645066	0.000243	2.432072	0.824008	-0.000097
1387	1.3791e+02	-15.2161	-46.758106	0.000284	2.837417	0.961343	-0.000114
1388	1.3801e+02	-15.2514	-46.875183	0.000294	2.938753	0.995677	-0.000118
1389	1.3811e+02	-15.2964	-46.984186	0.000274	2.736081	0.927009	-0.000110
1390	1.3821e+02	-15.3300	-47.105300	0.000304	3.040090	1.030010	-0.000122
1391	1.3831e+02	-15.3750	-47.194117	0.000223	2.229399	0.755341	-0.000089
1392	1.3840e+02	-15.4071	-47.383862	0.000476	4.762807	1.613683	-0.000191
1393	1.3850e+02	-15.4520	-47.440382	0.000142	1.418709	0.480671	-0.000057
1394	1.3860e+02	-15.4937	-47.557459	0.000294	2.938753	0.995677	-0.000118
1395	1.3870e+02	-15.5242	-47.650313	0.000233	2.330735	0.789675	-0.000093
1396	1.3880e+02	-15.5755	-47.731056	0.000203	2.026726	0.686674	-0.000081
1397	1.3890e+02	-15.6044	-47.852170	0.000304	3.040090	1.030010	-0.000122
1398	1.3900e+02	-15.6461	-47.949061	0.000243	2.432072	0.824008	-0.000097
1399	1.3910e+02	-15.6926	-48.086324	0.000345	3.445435	1.167345	-0.000138
1400	1.3920e+02	-15.7247	-48.171104	0.000213	2.128063	0.721007	-0.000085
1401	1.3930e+02	-15.7728	-48.288181	0.000294	2.938753	0.995677	-0.000118
1402	1.3940e+02	-15.8097	-48.348738	0.000152	1.520045	0.515005	-0.000061
1403	1.3950e+02	-15.8466	-48.453703	0.000263	2.634744	0.892676	-0.000105
1404	1.3960e+02	-15.8931	-48.550594	0.000243	2.432072	0.824008	-0.000097
1405	1.3970e+02	-15.9332	-48.687857	0.000345	3.445435	1.167345	-0.000138
1406	1.3980e+02	-15.9733	-48.736303	0.000122	1.216036	0.412004	-0.000049
1407	1.3990e+02	-16.0086	-48.849342	0.000284	2.837417	0.961343	-0.000114
1408	1.4000e+02	-16.0423	-48.982568	0.000334	3.344099	1.133011	-0.000134
1409	1.4010e+02	-16.0792	-49.135979	0.000385	3.850780	1.304680	-0.000154
1410	1.4020e+02	-16.1241	-49.220759	0.000213	2.128063	0.721007	-0.000085
1411	1.4029e+02	-16.1691	-49.305539	0.000213	2.128063	0.721007	-0.000085
1412	1.4039e+02	-16.1995	-49.402430	0.000243	2.432072	0.824008	-0.000097
1413	1.4049e+02	-16.2445	-49.479136	0.000193	1.925390	0.652340	-0.000077
1414	1.4059e+02	-16.2878	-49.620435	0.000355	3.546771	1.201679	-0.000142
1415	1.4069e+02	-16.3279	-49.741549	0.000304	3.040090	1.030010	-0.000122
1416	1.4079e+02	-16.3664	-49.826329	0.000213	2.128063	0.721007	-0.000085
1417	1.4089e+02	-16.4145	-49.951480	0.000314	3.141426	1.064344	-0.000126
1418	1.4099e+02	-16.4450	-50.052409	0.000253	2.533408	0.858342	-0.000101
1419	1.4109e+02	-16.4851	-50.129114	0.000193	1.925390	0.652340	-0.000077
1420	1.4119e+02	-16.5236	-50.226006	0.000243	2.432072	0.824008	-0.000097
1421	1.4129e+02	-16.5749	-50.314823	0.000223	2.229399	0.755341	-0.000089
1422	1.4139e+02	-16.6070	-50.379417	0.000162	1.621381	0.549339	-0.000065
1423	1.4149e+02	-16.6471	-50.504568	0.000314	3.141426	1.064344	-0.000126
1424	1.4159e+02	-16.6904	-50.637794	0.000334	3.344099	1.133011	-0.000134
1425	1.4169e+02	-16.7305	-50.726611	0.000223	2.229399	0.755341	-0.000089
1426	1.4179e+02	-16.7546	-50.811390	0.000213	2.128063	0.721007	-0.000085
1427	1.4189e+02	-16.7947	-50.936542	0.000314	3.141426	1.064344	-0.000126
1428	1.4199e+02	-16.8509	-51.077841	0.000355	3.546771	1.201679	-0.000142
1429	1.4209e+02	-16.8910	-51.134361	0.000142	1.418709	0.480671	-0.000057
1430	1.4219e+02	-16.9311	-51.271624	0.000345	3.445435	1.167345	-0.000138
1431	1.4228e+02	-16.9744	-51.340255	0.000172	1.722717	0.583672	-0.000069
1432	1.4238e+02	-17.0033	-51.457332	0.000294	2.938753	0.995677	-0.000118
1433	1.4248e+02	-17.0482	-51.558261	0.000253	2.533408	0.858342	-0.000101
1434	1.4258e+02	-17.0835	-51.675337	0.000294	2.938753	0.995677	-0.000118
1435	1.4268e+02	-17.1252	-51.768192	0.000233	2.330735	0.789675	-0.000093
1436	1.4278e+02	-17.1701	-51.909491	0.000355	3.546771	1.201679	-0.000142
1437	1.4288e+02	-17.2070	-51.966011	0.000142	1.418709	0.480671	-0.000057
1438	1.4298e+02	-17.2471	-52.050791	0.000213	2.128063	0.721007	-0.000085
1439	1.4308e+02	-17.2856	-52.196128	0.000365	3.648108	1.236012	-0.000146
1440	1.4318e+02	-17.3273	-52.272834	0.000193	1.925390	0.652340	-0.000077
1441	1.4328e+02	-17.3674	-52.288982	0.000041	0.405345	0.137335	-0.000016
1442	1.4338e+02	-17.4123	-52.442393	0.000385	3.850780	1.304680	-0.000154
1443	1.4348e+02	-17.4460	-52.607916	0.000415	4.154789	1.407681	-0.000166
1444	1.4358e+02	-17.4749	-52.704807	0.000243	2.432072	0.824008	-0.000097
1445	1.4368e+02	-17.5327	-52.777476	0.000182	1.824054	0.618006	-0.000073
1446	1.4378e+02	-17.5583	-52.898590	0.000304	3.040090	1.030010	-0.000122
1447	1.4388e+02	-17.6000	-53.023741	0.000314	3.141426	1.064344	-0.000126
1448	1.4398e+02	-17.6369	-53.165041	0.000355	3.546771	1.201679	-0.000142
1449	1.4408e+02	-17.6835	-53.270006	0.000263	2.634744	0.892676	-0.000105
1450	1.4418e+02	-17.7236	-53.346712	0.000193	1.925390	0.652340	-0.000077
1451	1.4428e+02	-17.7669	-53.504160	0.000395	3.952117	1.339013	-0.000158
1452	1.4437e+02	-17.8006	-53.576828	0.000182	1.824054	0.618006	-0.000073
1453	1.4447e+02	-17.8487	-53.661608	0.000213	2.128063	0.721007	-0.000085
1454	1.4457e+02	-17.8776	-53.786759	0.000314	3.141426	1.064344	-0.000126
1455	1.4467e+02	-17.9241	-53.891725	0.000263	2.634744	0.892676	-0.000105
1456	1.4477e+02	-17.9626	-53.976505	0.000213	2.128063	0.721007	-0.000085
1457	1.4487e+02	-18.0043	-54.101656	0.000314	3.141426	1.064344	-0.000126
1458	1.4497e+02	-18.0428	-54.137990	0.000091	0.912027	0.309003	-0.000037
1459	1.4507e+02	-18.0845	-54.251030	0.000284	2.837417	0.961343	-0.000114
1460	1.4517e+02	-18.1230	-54.347921	0.000243	2.432072	0.824008	-0.000097
1461	1.4527e+02	-18.1631	-54.444813	0.000243	2.432072	0.824008	-0.000097
1462	1.4537e+02	-18.2000	-54.602261	0.000395	3.952117	1.339013	-0.000158
1463	1.4547e+02	-18.2273	-54.711264	0.000274	2.736081	0.927009	-0.000110
1464	1.4557e+02	-18.2834	-54.872749	0.000405	4.053453	1.373347	-0.000162
1465	1.4567e+02	-18.3203	-54.949455	0.000193	1.925390	0.652340	-0.000077
1466	1.4577e+02	-18.3653	-55.030197	0.000203	2.026726	0.686674	-0.000081
1467	1.4587e+02	-18.3989	-55.131126	0.000253	2.533408	0.858342	-0.000101
1468	1.4597e+02	-18.4326	-55.248203	0.000294	2.938753	0.995677	-0.000118
1469	1.4607e+02	-18.4759	-55.409688	0.000405	4.053453	1.373347	-0.000162
1470	1.4617e+02	-18.5273	-55.510616	0.000253	2.533408	0.858342	-0.000101
1471	1.4626e+02	-18.5594	-55.599433	0.000223	2.229399	0.755341	-0.000089
1472	1.4636e+02	-18.6043	-55.720547	0.000304	3.040090	1.030010	-0.000122
1473	1.4646e+02	-18.6396	-55.773030	0.000132	1.317372	0.446338	-0.000053
1474	1.4656e+02	-18.6717	-55.918367	0.000365	3.648108	1.236012	-0.000146
1475	1.4666e+02	-18.7182	-56.039481	0.000304	3.040090	1.030010	-0.000122
1476	1.4676e+02	-18.7679	-56.120224	0.000203	2.026726	0.686674	-0.000081
1477	1.4686e+02	-18.7984	-56.209041	0.000223	2.229399	0.755341	-0.000089
1478	1.4696e+02	-18.8353	-56.277672	0.000172	1.722717	0.583672	-0.000069
1479	1.4706e+02	-18.8818	-56.418972	0.000355	3.546771	1.201679	-0.000142
1480	1.4716e+02	-18.9139	-56.576420	0.000395	3.952117	1.339013	-0.000158
1481	1.4726e+02	-18.9588	-56.636977	0.000152	1.520045	0.515005	-0.000061
1482	1.4736e+02	-18.9909	-56.774240	0.000345	3.445435	1.167345	-0.000138
1483	1.4746e+02	-19.0374	-56.883243	0.000274	2.736081	0.927009	-0.000110
1484	1.4756e+02	-19.0743	-56.959948	0.000193	1.925390	0.652340	-0.000077
1485	1.4766e+02	-19.1160	-57.121434	0.000405	4.053453	1.373347	-0.000162
1486	1.4776e+02	-19.1529	-57.234473	0.000284	2.837417	0.961343	-0.000114
1487	1.4786e+02	-19.1930	-57.327327	0.000233	2.330735	0.789675	-0.000093
1488	1.4796e+02	-19.2396	-57.440367	0.000284	2.837417	0.961343	-0.000114
1489	1.4806e+02	-19.2716	-57.553407	0.000284	2.837417	0.961343	-0.000114
1490	1.4816e+02	-19.3150	-57.618001	0.000162	1.621381	0.549339	-0.000065
1491	1.4825e+02	-19.3615	-57.819858	0.000507	5.066816	1.716684	-0.000203
1492	1.4835e+02	-19.3968	-57.880415	0.000152	1.520045	0.515005	-0.000061
1493	1.4845e+02	-19.4337	-57.945009	0.000162	1.621381	0.549339	-0.000065
1494	1.4855e+02	-19.4706	-58.086309	0.000355	3.546771	1.201679	-0.000142
1495	1.4865e+02	-19.5155	-58.154940	0.000172	1.722717	0.583672	-0.000069
1496	1.4875e+02	-19.5492	-58.251832	0.000243	2.432072	0.824008	-0.000097
1497	1.4885e+02	-19.5989	-58.364871	0.000284	2.837417	0.961343	-0.000114
1498	1.4895e+02	-19.6246	-58.502134	0.000345	3.445435	1.167345	-0.000138
1499	1.4905e+02	-19.6695	-58.631322	0.000324	3.242762	1.098678	-0.000130
1500	1.4915e+02	-19.7048	-58.732251	0.000253	2.533408	0.858342	-0.000101
1501	1.4925e+02	-19.7481	-58.857402	0.000314	3.141426	1.064344	-0.000126
1502	1.4935e+02	-19.7866	-58.946219	0.000223	2.229399	0.755341	-0.000089
1503	1.4945e+02	-19.8315	-59.059259	0.000284	2.837417	0.961343	-0.000114
1504	1.4955e+02	-19.8684	-59.184410	0.000314	3.141426	1.064344	-0.000126
1505	1.4965e+02	-19.9117	-59.313598	0.000324	3.242762	1.098678	-0.000130
1506	1.4975e+02	-19.9647	-59.406452	0.000233	2.330735	0.789675	-0.000093
1507	1.4985e+02	-19.9887	-59.527566	0.000304	3.040090	1.030010	-0.000122
1508	1.4995e+02	-19.9534	-59.495269	0.000081	0.810691	0.274669	0.000032
1509	1.5005e+02	-19.9214	-59.418564	0.000193	1.925390	0.652340	0.000077
1510	1.5015e+02	-19.8716	-59.345895	0.000182	1.824054	0.618006	0.000073
1511	1.5025e+02	-19.8299	-59.305524	0.000101	1.013363	0.343337	0.000041
1512	1.5034e+02	-19.7914	-59.244967	0.000152	1.520045	0.515005	0.000061
1513	1.5044e+02	-19.7593	-59.168261	0.000193	1.925390	0.652340	0.000077
1514	1.5054e+02	-19.7208	-59.119816	0.000122	1.216036	0.412004	0.000049
1515	1.5064e+02	-19.6663	-59.035036	0.000213	2.128063	0.721007	0.000085
1516	1.5074e+02	-19.6342	-58.958330	0.000193	1.925390	0.652340	0.000077
1517	1.5084e+02	-19.5877	-58.909885	0.000122	1.216036	0.412004	0.000049
1518	1.5094e+02	-19.5508	-58.849328	0.000152	1.520045	0.515005	0.000061
1519	1.5104e+02	-19.5155	-58.768585	0.000203	2.026726	0.686674	0.000081
1520	1.5114e+02	-19.4754	-58.724176	0.000111	1.114700	0.377670	0.000045
1521	1.5124e+02	-19.4289	-58.647471	0.000193	1.925390	0.652340	0.000077
1522	1.5134e+02	-19.3952	-58.578840	0.000172	1.722717	0.583672	0.000069
1523	1.5144e+02	-19.3535	-58.457725	0.000304	3.040090	1.030010	0.000122
1524	1.5154e+02	-19.3053	-58.425428	0.000081	0.810691	0.274669	0.000032
1525	1.5164e+02	-19.2845	-58.348723	0.000193	1.925390	0.652340	0.000077
1526	1.5174e+02	-19.2428	-58.280092	0.000172	1.722717	0.583672	0.000069
1527	1.5184e+02	-19.2139	-58.187237	0.000233	2.330735	0.789675	0.000093
1528	1.5194e+02	-19.1626	-58.102458	0.000213	2.128063	0.721007	0.000085
1529	1.5204e+02	-19.1225	-58.021715	0.000203	2.026726	0.686674	0.000081
1530	1.5214e+02	-19.0823	-57.961158	0.000152	1.520045	0.515005	0.000061
1531	1.5224e+02	-19.0342	-57.880415	0.000203	2.026726	0.686674	0.000081
1532	1.5233e+02	-19.0037	-57.787561	0.000233	2.330735	0.789675	0.000093
1533	1.5243e+02	-18.9524	-57.735078	0.000132	1.317372	0.446338	0.000053
1534	1.5253e+02	-18.9107	-57.682595	0.000132	1.317372	0.446338	0.000053
1535	1.5263e+02	-18.8786	-57.589741	0.000233	2.330735	0.789675	0.000093
1536	1.5273e+02	-18.8417	-57.448442	0.000355	3.546771	1.201679	0.000142
1537	1.5283e+02	-18.7968	-57.343476	0.000263	2.634744	0.892676	0.000105
1538	1.5293e+02	-18.7535	-57.286956	0.000142	1.418709	0.480671	0.000057
1539	1.5303e+02	-18.7214	-57.210251	0.000193	1.925390	0.652340	0.000077
1540	1.5313e+02	-18.6733	-57.113359	0.000243	2.432072	0.824008	0.000097
1541	1.5323e+02	-18.6428	-57.064914	0.000122	1.216036	0.412004	0.000049
1542	1.5333e+02	-18.6027	-56.951874	0.000284	2.837417	0.961343	0.000114
1543	1.5343e+02	-18.5642	-56.891317	0.000152	1.520045	0.515005	0.000061
1544	1.5353e+02	-18.5337	-56.810574	0.000203	2.026726	0.686674	0.000081
1545	1.5363e+02	-18.4808	-56.709646	0.000253	2.533408	0.858342	0.000101
1546	1.5373e+02	-18.4374	-56.645052	0.000162	1.621381	0.549339	0.000065
1547	1.5383e+02	-18.3989	-56.540086	0.000263	2.634744	0.892676	0.000105
1548	1.5393e+02	-18.3556	-56.467418	0.000182	1.824054	0.618006	0.000073
1549	1.5403e+02	-18.3219	-56.354378	0.000284	2.837417	0.961343	0.000114
1550	1.5413e+02	-18.2818	-56.330155	0.000061	0.608018	0.206002	0.000024
1551	1.5422e+02	-18.2449	-56.233264	0.000243	2.432072	0.824008	0.000097
1552	1.5432e+02	-18.2000	-56.164632	0.000172	1.722717	0.583672	0.000069
1553	1.5442e+02	-18.1551	-56.087927	0.000193	1.925390	0.652340	0.000077
1554	1.5452e+02	-18.1278	-55.982961	0.000263	2.634744	0.892676	0.000105
1555	1.5462e+02	-18.0781	-55.886070	0.000243	2.432072	0.824008	0.000097
1556	1.5472e+02	-18.0364	-55.785142	0.000253	2.533408	0.858342	0.000101
1557	1.5482e+02	-18.0123	-55.700362	0.000213	2.128063	0.721007	0.000085
1558	1.5492e+02	-17.9578	-55.668065	0.000081	0.810691	0.274669	0.000032
1559	1.5502e+02	-17.9241	-55.542913	0.000314	3.141426	1.064344	0.000126
1560	1.5512e+02	-17.8888	-55.425837	0.000294	2.938753	0.995677	0.000118
1561	1.5522e+02	-17.8487	-55.357205	0.000172	1.722717	0.583672	0.000069
1562	1.5532e+02	-17.8150	-55.276463	0.000203	2.026726	0.686674	0.000081
1563	1.5542e+02	-17.7701	-55.187646	0.000223	2.229399	0.755341	0.000089
1564	1.5552e+02	-17.7236	-55.074606	0.000284	2.837417	0.961343	0.000114
1565	1.5562e+02	-17.6899	-55.030197	0.000111	1.114700	0.377670	0.000045
1566	1.5572e+02	-17.6369	-54.921195	0.000274	2.736081	0.927009	0.000110
1567	1.5582e+02	-17.6065	-54.860638	0.000152	1.520045	0.515005	0.000061
1568	1.5592e+02	-17.5631	-54.800081	0.000152	1.520045	0.515005	0.000061
1569	1.5602e+02	-17.5278	-54.674929	0.000314	3.141426	1.064344	0.000126
1570	1.5612e+02	-17.4765	-54.574001	0.000253	2.533408	0.858342	0.000101
1571	1.5622e+02	-17.4412	-54.541704	0.000081	0.810691	0.274669	0.000032
1572	1.5631e+02	-17.4027	-54.448850	0.000233	2.330735	0.789675	0.000093
1573	1.5641e+02	-17.3722	-54.347921	0.000253	2.533408	0.858342	0.000101
1574	1.5651e+02	-17.3241	-54.218733	0.000324	3.242762	1.098678	0.000130
1575	1.5661e+02	-17.2792	-54.154139	0.000162	1.621381	0.549339	0.000065
1576	1.5671e+02	-17.2359	-54.041099	0.000284	2.837417	0.961343	0.000114
1577	1.5681e+02	-17.1990	-53.968431	0.000182	1.824054	0.618006	0.000073
1578	1.5691e+02	-17.1653	-53.879614	0.000223	2.229399	0.755341	0.000089
1579	1.5701e+02	-17.1284	-53.762537	0.000294	2.938753	0.995677	0.000118
1580	1.5711e+02	-17.0931	-53.693905	0.000172	1.722717	0.583672	0.000069
1581	1.5721e+02	-17.0450	-53.633348	0.000152	1.520045	0.515005	0.000061
1582	1.5731e+02	-17.0049	-53.504160	0.000324	3.242762	1.098678	0.000130
1583	1.5741e+02	-16.9680	-53.459751	0.000111	1.114700	0.377670	0.000045
1584	1.5751e+02	-16.9279	-53.407269	0.000132	1.317372	0.446338	0.000053
1585	1.5761e+02	-16.8910	-53.241746	0.000415	4.154789	1.407681	0.000166
1586	1.5771e+02	-16.8493	-53.189263	0.000132	1.317372	0.446338	0.000053
1587	1.5781e+02	-16.7995	-53.076224	0.000284	2.837417	0.961343	0.000114
1588	1.5791e+02	-16.7690	-53.019704	0.000142	1.418709	0.480671	0.000057
1589	1.5801e+02	-16.7305	-52.934924	0.000213	2.128063	0.721007	0.000085
1590	1.5811e+02	-16.6872	-52.842070	0.000233	2.330735	0.789675	0.000093
1591	1.5821e+02	-16.6423	-52.761327	0.000203	2.026726	0.686674	0.000081
1592	1.5830e+02	-16.5990	-52.624064	0.000345	3.445435	1.167345	0.000138
1593	1.5840e+02	-16.5701	-52.559470	0.000162	1.621381	0.549339	0.000065
1594	1.5850e+02	-16.5268	-52.438356	0.000304	3.040090	1.030010	0.000122
1595	1.5860e+02	-16.4867	-52.353576	0.000213	2.128063	0.721007	0.000085
1596	1.5870e+02	-16.4402	-52.268796	0.000213	2.128063	0.721007	0.000085
1597	1.5880e+02	-16.4017	-52.147682	0.000304	3.040090	1.030010	0.000122
1598	1.5890e+02	-16.3712	-52.046754	0.000253	2.533408	0.858342	0.000101
1599	1.5900e+02	-16.3327	-52.026568	0.000051	0.506682	0.171668	0.000020
1600	1.5910e+02	-16.2926	-51.861046	0.000415	4.154789	1.407681	0.000166
1601	1.5920e+02	-16.2525	-51.792414	0.000172	1.722717	0.583672	0.000069
1602	1.5930e+02	-16.2108	-51.699560	0.000233	2.330735	0.789675	0.000093
1603	1.5940e+02	-16.1707	-51.634966	0.000162	1.621381	0.549339	0.000065
1604	1.5950e+02	-16.1274	-51.538075	0.000243	2.432072	0.824008	0.000097
1605	1.5960e+02	-16.1001	-51.420998	0.000294	2.938753	0.995677	0.000118
1606	1.5970e+02	-16.0520	-51.352367	0.000172	1.722717	0.583672	0.000069
1607	1.5980e+02	-16.0118	-51.279698	0.000182	1.824054	0.618006	0.000073
1608	1.5990e+02	-15.9669	-51.174733	0.000263	2.634744	0.892676	0.000105
1609	1.6000e+02	-15.9348	-51.126287	0.000122	1.216036	0.412004	0.000049
1610	1.6010e+02	-15.8835	-51.021321	0.000263	2.634744	0.892676	0.000105
1611	1.6019e+02	-15.8514	-50.924430	0.000243	2.432072	0.824008	0.000097
1612	1.6029e+02	-15.8097	-50.795242	0.000324	3.242762	1.098678	0.000130
1613	1.6039e+02	-15.7744	-50.710462	0.000213	2.128063	0.721007	0.000085
1614	1.6049e+02	-15.7343	-50.613571	0.000243	2.432072	0.824008	0.000097
1615	1.6059e+02	-15.6910	-50.512642	0.000253	2.533408	0.858342	0.000101
1616	1.6069e+02	-15.6445	-50.468234	0.000111	1.114700	0.377670	0.000045
1617	1.6079e+02	-15.6156	-50.347120	0.000304	3.040090	1.030010	0.000122
1618	1.6089e+02	-15.5659	-50.274451	0.000182	1.824054	0.618006	0.000073
1619	1.6099e+02	-15.5322	-50.165449	0.000274	2.736081	0.927009	0.000110
1620	1.6109e+02	-15.4969	-50.084706	0.000203	2.026726	0.686674	0.000081
1621	1.6119e+02	-15.4472	-49.983778	0.000253	2.533408	0.858342	0.000101
1622	1.6129e+02	-15.4119	-49.866701	0.000294	2.938753	0.995677	0.000118
1623	1.6139e+02	-15.3686	-49.806144	0.000152	1.520045	0.515005	0.000061
1624	1.6149e+02	-15.3349	-49.725401	0.000203	2.026726	0.686674	0.000081
1625	1.6159e+02	-15.2996	-49.636584	0.000223	2.229399	0.755341	0.000089
1626	1.6169e+02	-15.2482	-49.588138	0.000122	1.216036	0.412004	0.000049
1627	1.6179e+02	-15.2178	-49.499321	0.000223	2.229399	0.755341	0.000089
1628	1.6189e+02	-15.1680	-49.386281	0.000284	2.837417	0.961343	0.000114
1629	1.6199e+02	-15.1343	-49.293427	0.000233	2.330735	0.789675	0.000093
1630	1.6209e+02	-15.0926	-49.204610	0.000223	2.229399	0.755341	0.000089
1631	1.6219e+02	-15.0557	-49.083496	0.000304	3.040090	1.030010	0.000122
1632	1.6228e+02	-15.0156	-49.014865	0.000172	1.722717	0.583672	0.000069
1633	1.6238e+02	-14.9707	-48.877602	0.000345	3.445435	1.167345	0.000138
1634	1.6248e+02	-14.9290	-48.788785	0.000223	2.229399	0.755341	0.000089
1635	1.6258e+02	-14.8953	-48.712080	0.000193	1.925390	0.652340	0.000077
1636	1.6268e+02	-14.8536	-48.595003	0.000294	2.938753	0.995677	0.000118
1637	1.6278e+02	-14.8151	-48.498112	0.000243	2.432072	0.824008	0.000097
1638	1.6288e+02	-14.7686	-48.429480	0.000172	1.722717	0.583672	0.000069
1639	1.6298e+02	-14.7365	-48.316441	0.000284	2.837417	0.961343	0.000114
1640	1.6308e+02	-14.7060	-48.219549	0.000243	2.432072	0.824008	0.000097
1641	1.6318e+02	-14.6547	-48.114584	0.000263	2.634744	0.892676	0.000105
1642	1.6328e+02	-14.6162	-48.029804	0.000213	2.128063	0.721007	0.000085
1643	1.6338e+02	-14.5745	-47.957135	0.000182	1.824054	0.618006	0.000073
1644	1.6348e+02	-14.5327	-47.827947	0.000324	3.242762	1.098678	0.000130
1645	1.6358e+02	-14.4942	-47.743167	0.000213	2.128063	0.721007	0.000085
1646	1.6368e+02	-14.4525	-47.662425	0.000203	2.026726	0.686674	0.000081
1647	1.6378e+02	-14.4140	-47.605905	0.000142	1.418709	0.480671	0.000057
1648	1.6388e+02	-14.3707	-47.484791	0.000304	3.040090	1.030010	0.000122
1649	1.6398e+02	-14.3322	-47.408085	0.000193	1.925390	0.652340	0.000077
1650	1.6408e+02	-14.2937	-47.274859	0.000334	3.344099	1.133011	0.000134
1651	1.6418e+02	-14.2568	-47.202191	0.000182	1.824054	0.618006	0.000073
1652	1.6427e+02	-14.2151	-47.105300	0.000243	2.432072	0.824008	0.000097
1653	1.6437e+02	-14.1830	-46.939777	0.000415	4.154789	1.407681	0.000166
1654	1.6447e+02	-14.1317	-46.899406	0.000101	1.013363	0.343337	0.000041
1655	1.6457e+02	-14.0932	-46.750032	0.000375	3.749444	1.270346	0.000150
1656	1.6467e+02	-14.0595	-46.689475	0.000152	1.520045	0.515005	0.000061
1657	1.6477e+02	-14.0146	-46.560286	0.000324	3.242762	1.098678	0.000130
1658	1.6487e+02	-13.9793	-46.475507	0.000213	2.128063	0.721007	0.000085
1659	1.6497e+02	-13.9392	-46.410912	0.000162	1.621381	0.549339	0.000065
1660	1.6507e+02	-13.9007	-46.277687	0.000334	3.344099	1.133011	0.000134
1661	1.6517e+02	-13.8622	-46.168684	0.000274	2.736081	0.927009	0.000110
1662	1.6527e+02	-13.8028	-46.091979	0.000193	1.925390	0.652340	0.000077
1663	1.6537e+02	-13.7820	-46.015273	0.000193	1.925390	0.652340	0.000077
1664	1.6547e+02	-13.7403	-45.938568	0.000193	1.925390	0.652340	0.000077
1665	1.6557e+02	-13.7082	-45.845713	0.000233	2.330735	0.789675	0.000093
1666	1.6567e+02	-13.6536	-45.769008	0.000193	1.925390	0.652340	0.000077
1667	1.6577e+02	-13.6151	-45.680191	0.000223	2.229399	0.755341	0.000089
1668	1.6587e+02	-13.5862	-45.583300	0.000243	2.432072	0.824008	0.000097
1669	1.6597e+02	-13.5413	-45.474297	0.000274	2.736081	0.927009	0.000110
1670	1.6607e+02	-13.5028	-45.349146	0.000314	3.141426	1.064344	0.000126
1671	1.6616e+02	-13.4627	-45.183623	0.000415	4.154789	1.407681	0.000166
1672	1.6626e+02	-13.4162	-45.131140	0.000132	1.317372	0.446338	0.000053
1673	1.6636e+02	-13.3841	-45.001952	0.000324	3.242762	1.098678	0.000130
1674	1.6646e+02	-13.3376	-44.945432	0.000142	1.418709	0.480671	0.000057
1675	1.6656e+02	-13.3055	-44.804132	0.000355	3.546771	1.201679	0.000142
1676	1.6666e+02	-13.2606	-44.755687	0.000122	1.216036	0.412004	0.000049
1677	1.6676e+02	-13.2269	-44.630536	0.000314	3.141426	1.064344	0.000126
1678	1.6686e+02	-13.1820	-44.529607	0.000253	2.533408	0.858342	0.000101
1679	1.6696e+02	-13.1403	-44.428679	0.000253	2.533408	0.858342	0.000101
1680	1.6706e+02	-13.1034	-44.319676	0.000274	2.736081	0.927009	0.000110
1681	1.6716e+02	-13.0633	-44.259119	0.000152	1.520045	0.515005	0.000061
1682	1.6726e+02	-13.0151	-44.186451	0.000182	1.824054	0.618006	0.000073
1683	1.6736e+02	-12.9702	-44.093597	0.000233	2.330735	0.789675	0.000093
1684	1.6746e+02	-12.9413	-44.024965	0.000172	1.722717	0.583672	0.000069
1685	1.6756e+02	-12.9061	-43.948260	0.000193	1.925390	0.652340	0.000077
1686	1.6766e+02	-12.8740	-43.802923	0.000365	3.648108	1.236012	0.000146
1687	1.6776e+02	-12.8130	-43.718143	0.000213	2.128063	0.721007	0.000085
1688	1.6786e+02	-12.7841	-43.605103	0.000284	2.837417	0.961343	0.000114
1689	1.6796e+02	-12.7472	-43.492063	0.000284	2.837417	0.961343	0.000114
1690	1.6806e+02	-12.6943	-43.379024	0.000284	2.837417	0.961343	0.000114
1691	1.6816e+02	-12.6670	-43.253872	0.000314	3.141426	1.064344	0.000126
1692	1.6825e+02	-12.6269	-43.169092	0.000213	2.128063	0.721007	0.000085
1693	1.6835e+02	-12.5868	-43.039904	0.000324	3.242762	1.098678	0.000130
1694	1.6845e+02	-12.5483	-42.943013	0.000243	2.432072	0.824008	0.000097
1695	1.6855e+02	-12.5098	-42.866307	0.000193	1.925390	0.652340	0.000077
1696	1.6865e+02	-12.4633	-42.712896	0.000385	3.850780	1.304680	0.000154
1697	1.6875e+02	-12.4296	-42.704822	0.000020	0.202673	0.068667	0.000008
1698	1.6885e+02	-12.3927	-42.547374	0.000395	3.952117	1.339013	0.000158
1699	1.6895e+02	-12.3414	-42.442408	0.000263	2.634744	0.892676	0.000105
1700	1.6905e+02	-12.3013	-42.357628	0.000213	2.128063	0.721007	0.000085
1701	1.6915e+02	-12.2644	-42.280923	0.000193	1.925390	0.652340	0.000077
1702	1.6925e+02	-12.2259	-42.151734	0.000324	3.242762	1.098678	0.000130
1703	1.6935e+02	-12.1954	-42.075029	0.000193	1.925390	0.652340	0.000077
1704	1.6945e+02	-12.1392	-41.961989	0.000284	2.837417	0.961343	0.000114
1705	1.6955e+02	-12.1007	-41.820689	0.000355	3.546771	1.201679	0.000142
1706	1.6965e+02	-12.0702	-41.764169	0.000142	1.418709	0.480671	0.000057
1707	1.6975e+02	-12.0221	-41.683426	0.000203	2.026726	0.686674	0.000081
1708	1.6985e+02	-11.9868	-41.513867	0.000426	4.256126	1.442014	0.000170
1709	1.6995e+02	-11.9483	-41.388716	0.000314	3.141426	1.064344	0.000126
1710	1.7005e+02	-11.9018	-41.271639	0.000294	2.938753	0.995677	0.000118
1711	1.7015e+02	-11.8665	-41.198970	0.000182	1.824054	0.618006	0.000073
1712	1.7024e+02	-11.8344	-41.073819	0.000314	3.141426	1.064344	0.000126
1713	1.7034e+02	-11.7879	-40.976928	0.000243	2.432072	0.824008	0.000097
1714	1.7044e+02	-11.7526	-40.823517	0.000385	3.850780	1.304680	0.000154
1715	1.7054e+02	-11.7093	-40.799294	0.000061	0.608018	0.206002	0.000024
1716	1.7064e+02	-11.6660	-40.694328	0.000263	2.634744	0.892676	0.000105
1717	1.7074e+02	-11.6323	-40.569177	0.000314	3.141426	1.064344	0.000126
1718	1.7084e+02	-11.5826	-40.460174	0.000274	2.736081	0.927009	0.000110
1719	1.7094e+02	-11.5473	-40.391543	0.000172	1.722717	0.583672	0.000069
1720	1.7104e+02	-11.5040	-40.286578	0.000263	2.634744	0.892676	0.000105
1721	1.7114e+02	-11.4703	-40.230058	0.000142	1.418709	0.480671	0.000057
1722	1.7124e+02	-11.4221	-40.096832	0.000334	3.344099	1.133011	0.000134
1723	1.7134e+02	-11.3901	-40.036275	0.000152	1.520045	0.515005	0.000061
1724	1.7144e+02	-11.3419	-39.903050	0.000334	3.344099	1.133011	0.000134
1725	1.7154e+02	-11.3050	-39.785973	0.000294	2.938753	0.995677	0.000118
1726	1.7164e+02	-11.2729	-39.668896	0.000294	2.938753	0.995677	0.000118
1727	1.7174e+02	-11.2184	-39.572005	0.000243	2.432072	0.824008	0.000097
1728	1.7184e+02	-11.1879	-39.454928	0.000294	2.938753	0.995677	0.000118
1729	1.7194e+02	-11.1494	-39.321702	0.000334	3.344099	1.133011	0.000134
1730	1.7204e+02	-11.1157	-39.220774	0.000253	2.533408	0.858342	0.000101
1731	1.7213e+02	-11.0724	-39.075437	0.000365	3.648108	1.236012	0.000146
1732	1.7223e+02	-11.0275	-38.994694	0.000203	2.026726	0.686674	0.000081
1733	1.7233e+02	-10.9906	-38.922026	0.000182	1.824054	0.618006	0.000073
1734	1.7243e+02	-10.9457	-38.817060	0.000263	2.634744	0.892676	0.000105
1735	1.7253e+02	-10.9040	-38.708057	0.000274	2.736081	0.927009	0.000110
1736	1.7263e+02	-10.8671	-38.611166	0.000243	2.432072	0.824008	0.000097
1737	1.7273e+02	-10.8238	-38.506201	0.000263	2.634744	0.892676	0.000105
1738	1.7283e+02	-10.7885	-38.413347	0.000233	2.330735	0.789675	0.000093
1739	1.7293e+02	-10.7468	-38.304344	0.000274	2.736081	0.927009	0.000110
1740	1.7303e+02	-10.7147	-38.175156	0.000324	3.242762	1.098678	0.000130
1741	1.7313e+02	-10.6617	-38.102487	0.000182	1.824054	0.618006	0.000073
1742	1.7323e+02	-10.6313	-38.021744	0.000203	2.026726	0.686674	0.000081
1743	1.7333e+02	-10.5799	-37.912742	0.000274	2.736081	0.927009	0.000110
1744	1.7343e+02	-10.5542	-37.763368	0.000375	3.749444	1.270346	0.000150
1745	1.7353e+02	-10.5157	-37.638216	0.000314	3.141426	1.064344	0.000126
1746	1.7363e+02	-10.4805	-37.569585	0.000172	1.722717	0.583672	0.000069
1747	1.7373e+02	-10.4307	-37.480768	0.000223	2.229399	0.755341	0.000089
1748	1.7383e+02	-10.3906	-37.347543	0.000334	3.344099	1.133011	0.000134
1749	1.7393e+02	-10.3521	-37.214317	0.000334	3.344099	1.133011	0.000134
1750	1.7403e+02	-10.3104	-37.101277	0.000284	2.837417	0.961343	0.000114
1751	1.7413e+02	-10.2751	-36.992275	0.000274	2.736081	0.927009	0.000110
1752	1.7422e+02	-10.2398	-36.891346	0.000253	2.533408	0.858342	0.000101
1753	1.7432e+02	-10.1981	-36.746009	0.000365	3.648108	1.236012	0.000146
1754	1.7442e+02	-10.1548	-36.649118	0.000243	2.432072	0.824008	0.000097
1755	1.7452e+02	-10.1083	-36.560301	0.000223	2.229399	0.755341	0.000089
1756	1.7462e+02	-10.0650	-36.528004	0.000081	0.810691	0.274669	0.000032
1757	1.7472e+02	-10.0297	-36.378630	0.000375	3.749444	1.270346	0.000150
1758	1.7482e+02	-9.9896	-36.281739	0.000243	2.432072	0.824008	0.000097
1759	1.7492e+02	-9.9495	-36.176773	0.000263	2.634744	0.892676	0.000105
1760	1.7502e+02	-9.9158	-36.051622	0.000314	3.141426	1.064344	0.000126
1761	1.7512e+02	-9.8773	-35.942619	0.000274	2.736081	0.927009	0.000110
1762	1.7522e+02	-9.8420	-35.857840	0.000213	2.128063	0.721007	0.000085
1763	1.7532e+02	-9.7954	-35.728651	0.000324	3.242762	1.098678	0.000130
1764	1.7542e+02	-9.7585	-35.619649	0.000274	2.736081	0.927009	0.000110
1765	1.7552e+02	-9.7152	-35.551017	0.000172	1.722717	0.583672	0.000069
1766	1.7562e+02	-9.6783	-35.425866	0.000314	3.141426	1.064344	0.000126
1767	1.7572e+02	-9.6350	-35.276492	0.000375	3.749444	1.270346	0.000150
1768	1.7582e+02	-9.5869	-35.147304	0.000324	3.242762	1.098678	0.000130
1769	1.7592e+02	-9.5548	-35.030227	0.000294	2.938753	0.995677	0.000118
1770	1.7602e+02	-9.5131	-34.909113	0.000304	3.040090	1.030010	0.000122
1771	1.7612e+02	-9.4794	-34.796073	0.000284	2.837417	0.961343	0.000114
1772	1.7621e+02	-9.4329	-34.687070	0.000274	2.736081	0.927009	0.000110
1773	1.7631e+02	-9.4024	-34.586142	0.000253	2.533408	0.858342	0.000101
1774	1.7641e+02	-9.3463	-34.513473	0.000182	1.824054	0.618006	0.000073
1775	1.7651e+02	-9.3142	-34.388322	0.000314	3.141426	1.064344	0.000126
1776	1.7661e+02	-9.2741	-34.356025	0.000081	0.810691	0.274669	0.000032
1777	1.7671e+02	-9.2372	-34.238948	0.000294	2.938753	0.995677	0.000118
1778	1.7681e+02	-9.2019	-34.142057	0.000243	2.432072	0.824008	0.000097
1779	1.7691e+02	-9.1650	-34.012869	0.000324	3.242762	1.098678	0.000130
1780	1.7701e+02	-9.1056	-33.899829	0.000284	2.837417	0.961343	0.000114
1781	1.7711e+02	-9.0751	-33.790826	0.000274	2.736081	0.927009	0.000110
1782	1.7721e+02	-9.0431	-33.689898	0.000253	2.533408	0.858342	0.000101
1783	1.7731e+02	-8.9997	-33.576858	0.000284	2.837417	0.961343	0.000114
1784	1.7741e+02	-8.9500	-33.451707	0.000314	3.141426	1.064344	0.000126
1785	1.7751e+02	-8.9131	-33.322518	0.000324	3.242762	1.098678	0.000130
1786	1.7761e+02	-8.8810	-33.217553	0.000263	2.634744	0.892676	0.000105
1787	1.7771e+02	-8.8361	-33.088365	0.000324	3.242762	1.098678	0.000130
1788	1.7781e+02	-8.7960	-32.943028	0.000365	3.648108	1.236012	0.000146
1789	1.7791e+02	-8.7607	-32.878433	0.000162	1.621381	0.549339	0.000065
1790	1.7801e+02	-8.7254	-32.757319	0.000304	3.040090	1.030010	0.000122
1791	1.7810e+02	-8.6837	-32.636205	0.000304	3.040090	1.030010	0.000122
1792	1.7820e+02	-8.6452	-32.567574	0.000172	1.722717	0.583672	0.000069
1793	1.7830e+02	-8.5939	-32.474720	0.000233	2.330735	0.789675	0.000093
1794	1.7840e+02	-8.5554	-32.373791	0.000253	2.533408	0.858342	0.000101
1795	1.7850e+02	-8.5201	-32.264789	0.000274	2.736081	0.927009	0.000110
1796	1.7860e+02	-8.4639	-32.151749	0.000284	2.837417	0.961343	0.000114
1797	1.7870e+02	-8.4383	-32.058895	0.000233	2.330735	0.789675	0.000093
1798	1.7880e+02	-8.4078	-31.978152	0.000203	2.026726	0.686674	0.000081
1799	1.7890e+02	-8.3581	-31.808592	0.000426	4.256126	1.442014	0.000170
1800	1.7900e+02	-8.3131	-31.687478	0.000304	3.040090	1.030010	0.000122
1801	1.7910e+02	-8.2794	-31.610773	0.000193	1.925390	0.652340	0.000077
1802	1.7920e+02	-8.2409	-31.521956	0.000223	2.229399	0.755341	0.000089
1803	1.7930e+02	-8.2008	-31.400842	0.000304	3.040090	1.030010	0.000122
1804	1.7940e+02	-8.1591	-31.263579	0.000345	3.445435	1.167345	0.000138
1805	1.7950e+02	-8.1238	-31.114205	0.000375	3.749444	1.270346	0.000150
1806	1.7960e+02	-8.0789	-31.021351	0.000233	2.330735	0.789675	0.000093
1807	1.7970e+02	-8.0452	-30.880051	0.000355	3.546771	1.201679	0.000142
1808	1.7980e+02	-8.0019	-30.795271	0.000213	2.128063	0.721007	0.000085
1809	1.7990e+02	-7.9618	-30.641860	0.000385	3.850780	1.304680	0.000154
1810	1.8000e+02	-7.9217	-30.565155	0.000193	1.925390	0.652340	0.000077
1811	1.8009e+02	-7.8752	-30.452115	0.000284	2.837417	0.961343	0.000114
1812	1.8019e+02	-7.8447	-30.351186	0.000253	2.533408	0.858342	0.000101
1813	1.8029e+02	-7.7998	-30.238147	0.000284	2.837417	0.961343	0.000114
1814	1.8039e+02	-7.7468	-30.189701	0.000122	1.216036	0.412004	0.000049
1815	1.8049e+02	-7.7260	-30.068587	0.000304	3.040090	1.030010	0.000122
1816	1.8059e+02	-7.6746	-29.915176	0.000385	3.850780	1.304680	0.000154
1817	1.8069e+02	-7.6410	-29.830396	0.000213	2.128063	0.721007	0.000085
1818	1.8079e+02	-7.6073	-29.685059	0.000365	3.648108	1.236012	0.000146
1819	1.8089e+02	-7.5624	-29.588168	0.000243	2.432072	0.824008	0.000097
1820	1.8099e+02	-7.5319	-29.499351	0.000223	2.229399	0.755341	0.000089
1821	1.8109e+02	-7.4918	-29.382274	0.000294	2.938753	0.995677	0.000118
1822	1.8119e+02	-7.4468	-29.240974	0.000355	3.546771	1.201679	0.000142
1823	1.8129e+02	-7.4051	-29.107749	0.000334	3.344099	1.133011	0.000134
1824	1.8139e+02	-7.3698	-28.998746	0.000274	2.736081	0.927009	0.000110
1825	1.8149e+02	-7.3153	-28.821112	0.000446	4.458798	1.510682	0.000179
1826	1.8159e+02	-7.2896	-28.736332	0.000213	2.128063	0.721007	0.000085
1827	1.8169e+02	-7.2367	-28.643478	0.000233	2.330735	0.789675	0.000093
1828	1.8179e+02	-7.2094	-28.506215	0.000345	3.445435	1.167345	0.000138
1829	1.8189e+02	-7.1629	-28.389139	0.000294	2.938753	0.995677	0.000118
1830	1.8199e+02	-7.1260	-28.312433	0.000193	1.925390	0.652340	0.000077
1831	1.8209e+02	-7.0795	-28.199393	0.000284	2.837417	0.961343	0.000114
1832	1.8218e+02	-7.0442	-28.094428	0.000263	2.634744	0.892676	0.000105
1833	1.8228e+02	-6.9961	-27.985425	0.000274	2.736081	0.927009	0.000110
1834	1.8238e+02	-6.9720	-27.864311	0.000304	3.040090	1.030010	0.000122
1835	1.8248e+02	-6.9191	-27.747234	0.000294	2.938753	0.995677	0.000118
1836	1.8258e+02	-6.8822	-27.626120	0.000304	3.040090	1.030010	0.000122
1837	1.8268e+02	-6.8356	-27.513080	0.000284	2.837417	0.961343	0.000114
1838	1.8278e+02	-6.8003	-27.396003	0.000294	2.938753	0.995677	0.000118
1839	1.8288e+02	-6.7715	-27.287000	0.000274	2.736081	0.927009	0.000110
1840	1.8298e+02	-6.7249	-27.194146	0.000233	2.330735	0.789675	0.000093
1841	1.8308e+02	-6.6913	-27.044772	0.000375	3.749444	1.270346	0.000150
1842	1.8318e+02	-6.6495	-26.935770	0.000274	2.736081	0.927009	0.000110
1843	1.8328e+02	-6.6126	-26.818693	0.000294	2.938753	0.995677	0.000118
1844	1.8338e+02	-6.5677	-26.632984	0.000466	4.661471	1.579349	0.000187
1845	1.8348e+02	-6.5308	-26.532056	0.000253	2.533408	0.858342	0.000101
1846	1.8358e+02	-6.4923	-26.479573	0.000132	1.317372	0.446338	0.000053
1847	1.8368e+02	-6.4426	-26.310014	0.000426	4.256126	1.442014	0.000170
1848	1.8378e+02	-6.4057	-26.281754	0.000071	0.709354	0.240336	0.000028
1849	1.8388e+02	-6.3656	-26.152565	0.000324	3.242762	1.098678	0.000130
1850	1.8398e+02	-6.3191	-26.051637	0.000253	2.533408	0.858342	0.000101
1851	1.8407e+02	-6.2902	-25.946671	0.000263	2.634744	0.892676	0.000105
1852	1.8417e+02	-6.2581	-25.809409	0.000345	3.445435	1.167345	0.000138
1853	1.8427e+02	-6.2132	-25.716555	0.000233	2.330735	0.789675	0.000093
1854	1.8437e+02	-6.1843	-25.635812	0.000203	2.026726	0.686674	0.000081
1855	1.8447e+02	-6.1298	-25.454141	0.000456	4.560135	1.545015	0.000183
1856	1.8457e+02	-6.0897	-25.353212	0.000253	2.533408	0.858342	0.000101
1857	1.8467e+02	-6.0496	-25.215950	0.000345	3.445435	1.167345	0.000138
1858	1.8477e+02	-6.0046	-25.135207	0.000203	2.026726	0.686674	0.000081
1859	1.8487e+02	-5.9758	-24.993907	0.000355	3.546771	1.201679	0.000142
1860	1.8497e+02	-5.9308	-24.888942	0.000263	2.634744	0.892676	0.000105
1861	1.8507e+02	-5.8923	-24.747642	0.000355	3.546771	1.201679	0.000142
1862	1.8517e+02	-5.8635	-24.602305	0.000365	3.648108	1.236012	0.000146
1863	1.8527e+02	-5.8105	-24.432745	0.000426	4.256126	1.442014	0.000170
1864	1.8537e+02	-5.7704	-24.303557	0.000324	3.242762	1.098678	0.000130
1865	1.8547e+02	-5.7303	-24.226852	0.000193	1.925390	0.652340	0.000077
1866	1.8557e+02	-5.6870	-24.121886	0.000263	2.634744	0.892676	0.000105
1867	1.8567e+02	-5.6517	-24.053255	0.000172	1.722717	0.583672	0.000069
1868	1.8577e+02	-5.6164	-23.928104	0.000314	3.141426	1.064344	0.000126
1869	1.8587e+02	-5.5779	-23.811027	0.000294	2.938753	0.995677	0.000118
1870	1.8597e+02	-5.5298	-23.669727	0.000355	3.546771	1.201679	0.000142
1871	1.8606e+02	-5.4913	-23.556687	0.000284	2.837417	0.961343	0.000114
1872	1.8616e+02	-5.4528	-23.415387	0.000355	3.546771	1.201679	0.000142
1873	1.8626e+02	-5.4111	-23.350793	0.000162	1.621381	0.549339	0.000065
1874	1.8636e+02	-5.3774	-23.169122	0.000456	4.560135	1.545015	0.000183
1875	1.8646e+02	-5.3261	-23.084342	0.000213	2.128063	0.721007	0.000085
1876	1.8656e+02	-5.3004	-22.955154	0.000324	3.242762	1.098678	0.000130
1877	1.8666e+02	-5.2490	-22.821928	0.000334	3.344099	1.133011	0.000134
1878	1.8676e+02	-5.2122	-22.696777	0.000314	3.141426	1.064344	0.000126
1879	1.8686e+02	-5.1769	-22.587774	0.000274	2.736081	0.927009	0.000110
1880	1.8696e+02	-5.1335	-22.434363	0.000385	3.850780	1.304680	0.000154
1881	1.8706e+02	-5.1111	-22.268841	0.000415	4.154789	1.407681	0.000166
1882	1.8716e+02	-5.0646	-22.184061	0.000213	2.128063	0.721007	0.000085
1883	1.8726e+02	-5.0196	-22.042761	0.000355	3.546771	1.201679	0.000142
1884	1.8736e+02	-4.9715	-21.921647	0.000304	3.040090	1.030010	0.000122
1885	1.8746e+02	-4.9394	-21.840904	0.000203	2.026726	0.686674	0.000081
1886	1.8756e+02	-4.9041	-21.748050	0.000233	2.330735	0.789675	0.000093
1887	1.8766e+02	-4.8448	-21.582528	0.000415	4.154789	1.407681	0.000166
1888	1.8776e+02	-4.8175	-21.489674	0.000233	2.330735	0.789675	0.000093
1889	1.8786e+02	-4.7694	-21.376634	0.000284	2.837417	0.961343	0.000114
1890	1.8796e+02	-4.7325	-21.243408	0.000334	3.344099	1.133011	0.000134
1891	1.8806e+02	-4.6988	-21.154591	0.000223	2.229399	0.755341	0.000089
1892	1.8815e+02	-4.6555	-20.993106	0.000405	4.053453	1.373347	0.000162
1893	1.8825e+02	-4.6122	-20.916400	0.000193	1.925390	0.652340	0.000077
1894	1.8835e+02	-4.5785	-20.758952	0.000395	3.952117	1.339013	0.000158
1895	1.8845e+02	-4.5400	-20.645912	0.000284	2.837417	0.961343	0.000114
1896	1.8855e+02	-4.4983	-20.516724	0.000324	3.242762	1.098678	0.000130
1897	1.8865e+02	-4.4582	-20.371387	0.000365	3.648108	1.236012	0.000146
1898	1.8875e+02	-4.4261	-20.230087	0.000355	3.546771	1.201679	0.000142
1899	1.8885e+02	-4.3731	-20.125122	0.000263	2.634744	0.892676	0.000105
1900	1.8895e+02	-4.3507	-20.008045	0.000294	2.938753	0.995677	0.000118
1901	1.8905e+02	-4.2945	-19.830411	0.000446	4.458798	1.510682	0.000179
1902	1.8915e+02	-4.2592	-19.709297	0.000304	3.040090	1.030010	0.000122
1903	1.8925e+02	-4.2239	-19.572034	0.000345	3.445435	1.167345	0.000138
1904	1.8935e+02	-4.1838	-19.450920	0.000304	3.040090	1.030010	0.000122
1905	1.8945e+02	-4.1293	-19.414586	0.000091	0.912027	0.309003	0.000037
1906	1.8955e+02	-4.0988	-19.265212	0.000375	3.749444	1.270346	0.000150
1907	1.8965e+02	-4.0603	-19.148135	0.000294	2.938753	0.995677	0.000118
1908	1.8975e+02	-4.0170	-19.031058	0.000294	2.938753	0.995677	0.000118
1909	1.8985e+02	-3.9801	-18.909944	0.000304	3.040090	1.030010	0.000122
1910	1.8995e+02	-3.9368	-18.772681	0.000345	3.445435	1.167345	0.000138
1911	1.9004e+02	-3.9031	-18.651567	0.000304	3.040090	1.030010	0.000122
1912	1.9014e+02	-3.8566	-18.542564	0.000274	2.736081	0.927009	0.000110
1913	1.9024e+02	-3.8133	-18.433562	0.000274	2.736081	0.927009	0.000110
1914	1.9034e+02	-3.7796	-18.316485	0.000294	2.938753	0.995677	0.000118
1915	1.9044e+02	-3.7363	-18.179222	0.000345	3.445435	1.167345	0.000138
1916	1.9054e+02	-3.6978	-18.082331	0.000243	2.432072	0.824008	0.000097
1917	1.9064e+02	-3.6657	-17.920846	0.000405	4.053453	1.373347	0.000162
1918	1.9074e+02	-3.6288	-17.743212	0.000446	4.458798	1.510682	0.000179
1919	1.9084e+02	-3.5871	-17.622097	0.000304	3.040090	1.030010	0.000122
1920	1.9094e+02	-3.5405	-17.505021	0.000294	2.938753	0.995677	0.000118
1921	1.9104e+02	-3.4892	-17.375832	0.000324	3.242762	1.098678	0.000130
1922	1.9114e+02	-3.4619	-17.222421	0.000385	3.850780	1.304680	0.000154
1923	1.9124e+02	-3.4186	-17.117456	0.000263	2.634744	0.892676	0.000105
1924	1.9134e+02	-3.3769	-17.004416	0.000284	2.837417	0.961343	0.000114
1925	1.9144e+02	-3.3448	-16.915599	0.000223	2.229399	0.755341	0.000089
1926	1.9154e+02	-3.2999	-16.810633	0.000263	2.634744	0.892676	0.000105
1927	1.9164e+02	-3.2598	-16.645111	0.000415	4.154789	1.407681	0.000166
1928	1.9174e+02	-3.2197	-16.568405	0.000193	1.925390	0.652340	0.000077
1929	1.9184e+02	-3.1764	-16.431142	0.000345	3.445435	1.167345	0.000138
1930	1.9194e+02	-3.1507	-16.293880	0.000345	3.445435	1.167345	0.000138
1931	1.9203e+02	-3.1010	-16.180840	0.000284	2.837417	0.961343	0.000114
1932	1.9213e+02	-3.0641	-16.047615	0.000334	3.344099	1.133011	0.000134
1933	1.9223e+02	-3.0224	-15.938612	0.000274	2.736081	0.927009	0.000110
1934	1.9233e+02	-2.9759	-15.785201	0.000385	3.850780	1.304680	0.000154
1935	1.9243e+02	-2.9438	-15.635827	0.000375	3.749444	1.270346	0.000150
1936	1.9253e+02	-2.9021	-15.522787	0.000284	2.837417	0.961343	0.000114
1937	1.9263e+02	-2.8636	-15.373413	0.000375	3.749444	1.270346	0.000150
1938	1.9273e+02	-2.8186	-15.187705	0.000466	4.661471	1.579349	0.000187
1939	1.9283e+02	-2.7849	-15.070628	0.000294	2.938753	0.995677	0.000118
1940	1.9293e+02	-2.7481	-14.941439	0.000324	3.242762	1.098678	0.000130
1941	1.9303e+02	-2.7047	-14.856660	0.000213	2.128063	0.721007	0.000085
1942	1.9313e+02	-2.6598	-14.695174	0.000405	4.053453	1.373347	0.000162
1943	1.9323e+02	-2.6229	-14.674988	0.000051	0.506682	0.171668	0.000020
1944	1.9333e+02	-2.5860	-14.517540	0.000395	3.952117	1.339013	0.000158
1945	1.9343e+02	-2.5555	-14.400463	0.000294	2.938753	0.995677	0.000118
1946	1.9353e+02	-2.5090	-14.279349	0.000304	3.040090	1.030010	0.000122
1947	1.9363e+02	-2.4641	-14.129975	0.000375	3.749444	1.270346	0.000150
1948	1.9373e+02	-2.4304	-14.045195	0.000213	2.128063	0.721007	0.000085
1949	1.9383e+02	-2.3807	-13.891784	0.000385	3.850780	1.304680	0.000154
1950	1.9393e+02	-2.3470	-13.778744	0.000284	2.837417	0.961343	0.000114
1951	1.9403e+02	-2.3053	-13.633407	0.000365	3.648108	1.236012	0.000146
1952	1.9412e+02	-2.2684	-13.512293	0.000304	3.040090	1.030010	0.000122
1953	1.9422e+02	-2.2235	-13.391179	0.000304	3.040090	1.030010	0.000122
1954	1.9432e+02	-2.1882	-13.257954	0.000334	3.344099	1.133011	0.000134
1955	1.9442e+02	-2.1465	-13.100505	0.000395	3.952117	1.339013	0.000158
1956	1.9452e+02	-2.1031	-12.967280	0.000334	3.344099	1.133011	0.000134
1957	1.9462e+02	-2.0695	-12.862314	0.000263	2.634744	0.892676	0.000105
1958	1.9472e+02	-2.0310	-12.729089	0.000334	3.344099	1.133011	0.000134
1959	1.9482e+02	-1.9957	-12.620086	0.000274	2.736081	0.927009	0.000110
1960	1.9492e+02	-1.9507	-12.438415	0.000456	4.560135	1.545015	0.000183
1961	1.9502e+02	-1.9010	-12.337487	0.000253	2.533408	0.858342	0.000101
1962	1.9512e+02	-1.8577	-12.268856	0.000172	1.722717	0.583672	0.000069
1963	1.9522e+02	-1.8240	-12.159853	0.000274	2.736081	0.927009	0.000110
1964	1.9532e+02	-1.7855	-12.014516	0.000365	3.648108	1.236012	0.000146
1965	1.9542e+02	-1.7438	-11.909550	0.000263	2.634744	0.892676	0.000105
1966	1.9552e+02	-1.7037	-11.768251	0.000355	3.546771	1.201679	0.000142
1967	1.9562e+02	-1.6716	-11.675397	0.000233	2.330735	0.789675	0.000093
1968	1.9572e+02	-1.6251	-11.493725	0.000456	4.560135	1.545015	0.000183
1969	1.9582e+02	-1.5898	-11.388760	0.000263	2.634744	0.892676	0.000105
1970	1.9592e+02	-1.5529	-11.235349	0.000385	3.850780	1.304680	0.000154
1971	1.9601e+02	-1.5128	-11.114235	0.000304	3.040090	1.030010	0.000122
1972	1.9611e+02	-1.4663	-10.960824	0.000385	3.850780	1.304680	0.000154
1973	1.9621e+02	-1.4278	-10.851821	0.000274	2.736081	0.927009	0.000110
1974	1.9631e+02	-1.3893	-10.718595	0.000334	3.344099	1.133011	0.000134
1975	1.9641e+02	-1.3492	-10.536924	0.000456	4.560135	1.545015	0.000183
1976	1.9651e+02	-1.3139	-10.395625	0.000355	3.546771	1.201679	0.000142
1977	1.9661e+02	-1.2673	-10.331030	0.000162	1.621381	0.549339	0.000065
1978	1.9671e+02	-1.2337	-10.161471	0.000426	4.256126	1.442014	0.000170
1979	1.9681e+02	-1.1887	-10.044394	0.000294	2.938753	0.995677	0.000118
1980	1.9691e+02	-1.1422	-9.919243	0.000314	3.141426	1.064344	0.000126
1981	1.9701e+02	-1.1149	-9.838500	0.000203	2.026726	0.686674	0.000081
1982	1.9711e+02	-1.0604	-9.705274	0.000334	3.344099	1.133011	0.000134
1983	1.9721e+02	-1.0267	-9.580123	0.000314	3.141426	1.064344	0.000126
1984	1.9731e+02	-0.9834	-9.459009	0.000304	3.040090	1.030010	0.000122
1985	1.9741e+02	-0.9481	-9.329821	0.000324	3.242762	1.098678	0.000130
1986	1.9751e+02	-0.9048	-9.241004	0.000223	2.229399	0.755341	0.000089
1987	1.9761e+02	-0.8775	-9.043184	0.000497	4.965480	1.682350	0.000199
1988	1.9771e+02	-0.8374	-8.909959	0.000334	3.344099	1.133011	0.000134
1989	1.9781e+02	-0.7957	-8.772696	0.000345	3.445435	1.167345	0.000138
1990	1.9791e+02	-0.7492	-8.643508	0.000324	3.242762	1.098678	0.000130
1991	1.9800e+02	-0.7171	-8.522394	0.000304	3.040090	1.030010	0.000122
1992	1.9810e+02	-0.6770	-8.373020	0.000375	3.749444	1.270346	0.000150
1993	1.9820e+02	-0.6257	-8.255943	0.000294	2.938753	0.995677	0.000118
1994	1.9830e+02	-0.5904	-8.054086	0.000507	5.066816	1.716684	0.000203
1995	1.9840e+02	-0.5567	-7.957195	0.000243	2.432072	0.824008	0.000097
1996	1.9850e+02	-0.5230	-7.840118	0.000294	2.938753	0.995677	0.000118
1997	1.9860e+02	-0.4749	-7.662484	0.000446	4.458798	1.510682	0.000179
1998	1.9870e+02	-0.4299	-7.601927	0.000152	1.520045	0.515005	0.000061
1999	1.9880e+02	-0.3946	-7.480813	0.000304	3.040090	1.030010	0.000122
2000	1.9890e+02	-0.3513	-7.359698	0.000304	3.040090	1.030010	0.000122
2001	1.9900e+02	-0.3257	-7.246659	0.000284	2.837417	0.961343	0.000114
2002	1.9910e+02	-0.2679	-7.093247	0.000385	3.850780	1.304680	0.000154
2003	1.9920e+02	-0.2358	-6.972133	0.000304	3.040090	1.030010	0.000122
2004	1.9930e+02	-0.1925	-6.863131	0.000274	2.736081	0.927009	0.000110
2005	1.9940e+02	-0.1492	-6.689534	0.000436	4.357462	1.476348	0.000174
2006	1.9950e+02	-0.1059	-6.604754	0.000213	2.128063	0.721007	0.000085
2007	1.9960e+02	-0.0818	-6.443269	0.000405	4.053453	1.373347	0.000162
2008	1.9970e+02	-0.0337	-6.297932	0.000365	3.648108	1.236012	0.000146
2009	1.9980e+02	0.0096	-6.168743	0.000365	3.648108	1.236012	0.000130

PMax (uC/cm2):	6.41e+01
Pr (uC/cm2):	2.83e+00
-Pr (uC/cm2):	-1.64e+00
PLoss (uC/cm2):	-1.61e+00
-Vc:	-8.58e-01
C (Max-Eff) (nF):	3.20e-01
K (Eff):	1.08e+03
Vert. (+/-Pr) Shift (uC/cm2):	5.97e-01
Offset (uC/cm2):	4.53e+00

A (Loop Area - uC/cm2·Volts):	2.11e-02



Hysteresis Version: 5.48.1 - Radiant Technologies, Inc., 1999 - 9/12/24

