»»»»»»»»»»»»»»»»»»»»»»»»»»»»»»»»»»»» Hysteresis ««««««««««««««««««««««««««««««««««««
»»»  Executed Version:	5.48.1
»»»  Vision Version:	5.48.4 (R)
»»»  Vision Compiled:	9/18/24
»»»  Driver Version:	5.47.0
»»»  Windows Version:	Windows 8 or 8.1
»»»  Processor Information:	x86 (AMD or Intel) - 32 Processors
»»»  Tester Name:	PMF21124-494 (100V)
»»»  Tester S/N:	PMF21124-494
»»»  Internal Amp Type:	100V RevK 270k
»»»  Internal Amp S/N:	iAB2-596/K     
»»»  Execution Count:	1
»»»»»»»»»»»»»»»»»»»»»»»»»»»»»»»»»»»»»»»»»»««««««««««««««««««««««««««««««««««««««««««

Stored:	6/19/2025 - 17:36:14
Configured:	06/19/25 10:04:32 AM
Executed:	06/19/25 05:35:18 PM

»»»»»»»»»»»»»»»»»»»»»»»»»»»»»»»»»»» Sample Info ««««««««««««««««««««««««««««««««««««
Sample Name:	
Lot Name:	
Wafer Name:	
Die Row/Column:	0/0
Capacitor Number:	0
Sample Area (cm2):	1.00e-04
Sample Thickness (microns):	3.00e-01

Amplifier:	Internal

»»»»»»»»»»»»»»»»»»»»»»»»»»»»»»»»»»» Tester Info «««««««««««««««««««««««««««««««««««
Tester Name:	PMF21124-494 (100V)
Tester Serial Number:	PMF21124-494
Return Signal Amp. Level:	0.19 [Index: 3]

»»»»»»»»»»»»»»»»»»»»»»»»»»»»»»»» Hysteresis Info ««««««««««««««««««««««««««««««««««
Task Name:	Hyst-1168
Volts:	20.00
Field:	666.67 (kV/cm)
DCBias:	0.00
DCField:	0.00 (kV/cm)
Hysteresis Period (ms):	2.00e+02
Preset:	Enabled
Preset Delay (ms):	1.00e+03
Profile:	Standard Bipolar

»»»»»»»»»»»»»»»»»»»»»»»»»»»»»»»»»»»»»» Data «««««««««««««««««««««««««««««««««««««««
Points:	2009

Valid Data

Point	Time (ms)	Drive Voltage	Measured Polarization (uC/cm2)	Capacitance (uF)	Normalized Capacitance (uF/cm2)	Dielectric Constant	Instantaneous Current (mA)
   1	0.0000e+00	0.0112	-8.261998	0.000142	1.419506	0.480942	0.000057
   2	9.9500e-02	0.0337	-8.205478	0.000142	1.419506	0.480942	0.000057
   3	1.9900e-01	0.0738	-8.092439	0.000284	2.839011	0.961883	0.000114
   4	2.9850e-01	0.1187	-7.947102	0.000365	3.650157	1.236707	0.000146
   5	3.9800e-01	0.1588	-7.842136	0.000264	2.636225	0.893177	0.000105
   6	4.9750e-01	0.2037	-7.664502	0.000446	4.461303	1.511530	0.000179
   7	5.9700e-01	0.2358	-7.624131	0.000101	1.013933	0.343530	0.000041
   8	6.9650e-01	0.2839	-7.470720	0.000385	3.852944	1.305413	0.000154
   9	7.9600e-01	0.3208	-7.337494	0.000335	3.345977	1.133648	0.000134
  10	8.9550e-01	0.3561	-7.208306	0.000324	3.244584	1.099295	0.000130
  11	9.9500e-01	0.3946	-7.087192	0.000304	3.041798	1.030589	0.000122
  12	1.0945e+00	0.4364	-6.962041	0.000314	3.143191	1.064942	0.000126
  13	1.1940e+00	0.4797	-6.865149	0.000243	2.433438	0.824471	0.000097
  14	1.2935e+00	0.5150	-6.711738	0.000385	3.852944	1.305413	0.000154
  15	1.3930e+00	0.5647	-6.610810	0.000253	2.534831	0.858824	0.000101
  16	1.4925e+00	0.6000	-6.477584	0.000335	3.345977	1.133648	0.000134
  17	1.5920e+00	0.6369	-6.364544	0.000284	2.839011	0.961883	0.000114
  18	1.6915e+00	0.6658	-6.219208	0.000365	3.650157	1.236707	0.000146
  19	1.7910e+00	0.7123	-6.106168	0.000284	2.839011	0.961883	0.000114
  20	1.8905e+00	0.7428	-6.017351	0.000223	2.230652	0.755765	0.000089
  21	1.9900e+00	0.7973	-5.867977	0.000375	3.751550	1.271060	0.000150
  22	2.0895e+00	0.8294	-5.746863	0.000304	3.041798	1.030589	0.000122
  23	2.1890e+00	0.8791	-5.649971	0.000243	2.433438	0.824471	0.000097
  24	2.2885e+00	0.9128	-5.468300	0.000456	4.562696	1.545883	0.000183
  25	2.3880e+00	0.9497	-5.363335	0.000264	2.636225	0.893177	0.000105
  26	2.4875e+00	1.0026	-5.258369	0.000264	2.636225	0.893177	0.000105
  27	2.5870e+00	1.0267	-5.141292	0.000294	2.940404	0.996236	0.000118
  28	2.6865e+00	1.0748	-5.008067	0.000335	3.345977	1.133648	0.000134
  29	2.7860e+00	1.1149	-4.903101	0.000264	2.636225	0.893177	0.000105
  30	2.8855e+00	1.1550	-4.773913	0.000324	3.244584	1.099295	0.000130
  31	2.9850e+00	1.1968	-4.652799	0.000304	3.041798	1.030589	0.000122
  32	3.0845e+00	1.2337	-4.523611	0.000324	3.244584	1.099295	0.000130
  33	3.1840e+00	1.2802	-4.410571	0.000284	2.839011	0.961883	0.000114
  34	3.2835e+00	1.3091	-4.293494	0.000294	2.940404	0.996236	0.000118
  35	3.3830e+00	1.3476	-4.168343	0.000314	3.143191	1.064942	0.000126
  36	3.4825e+00	1.4037	-4.031080	0.000345	3.447371	1.168001	0.000138
  37	3.5820e+00	1.4294	-3.905929	0.000314	3.143191	1.064942	0.000126
  38	3.6815e+00	1.4679	-3.780778	0.000314	3.143191	1.064942	0.000126
  39	3.7810e+00	1.5128	-3.627366	0.000385	3.852944	1.305413	0.000154
  40	3.8805e+00	1.5513	-3.506252	0.000304	3.041798	1.030589	0.000122
  41	3.9800e+00	1.5914	-3.445695	0.000152	1.520899	0.515294	0.000061
  42	4.0795e+00	1.6235	-3.316507	0.000324	3.244584	1.099295	0.000130
  43	4.1790e+00	1.6748	-3.183282	0.000335	3.345977	1.133648	0.000134
  44	4.2785e+00	1.7133	-3.046019	0.000345	3.447371	1.168001	0.000138
  45	4.3780e+00	1.7518	-2.904719	0.000355	3.548764	1.202354	0.000142
  46	4.4775e+00	1.7855	-2.787642	0.000294	2.940404	0.996236	0.000118
  47	4.5770e+00	1.8336	-2.654417	0.000335	3.345977	1.133648	0.000134
  48	4.6765e+00	1.8657	-2.521191	0.000335	3.345977	1.133648	0.000134
  49	4.7760e+00	1.9122	-2.420263	0.000253	2.534831	0.858824	0.000101
  50	4.8755e+00	1.9475	-2.287037	0.000335	3.345977	1.133648	0.000134
  51	4.9750e+00	1.9909	-2.182072	0.000264	2.636225	0.893177	0.000105
  52	5.0745e+00	2.0245	-2.056921	0.000314	3.143191	1.064942	0.000126
  53	5.1740e+00	2.0598	-1.960029	0.000243	2.433438	0.824471	0.000097
  54	5.2735e+00	2.1128	-1.790470	0.000426	4.258517	1.442825	0.000170
  55	5.3730e+00	2.1449	-1.681467	0.000274	2.737618	0.927530	0.000110
  56	5.4725e+00	2.1914	-1.616873	0.000162	1.622292	0.549647	0.000065
  57	5.5720e+00	2.2363	-1.435202	0.000456	4.562696	1.545883	0.000183
  58	5.6715e+00	2.2652	-1.314088	0.000304	3.041798	1.030589	0.000122
  59	5.7710e+00	2.3117	-1.245456	0.000172	1.723685	0.584000	0.000069
  60	5.8705e+00	2.3534	-1.071860	0.000436	4.359910	1.477177	0.000174
  61	5.9700e+00	2.3919	-0.954783	0.000294	2.940404	0.996236	0.000118
  62	6.0695e+00	2.4240	-0.841743	0.000284	2.839011	0.961883	0.000114
  63	6.1690e+00	2.4753	-0.728703	0.000284	2.839011	0.961883	0.000114
  64	6.2685e+00	2.5154	-0.567218	0.000406	4.055730	1.374119	0.000162
  65	6.3680e+00	2.5555	-0.486475	0.000203	2.027865	0.687059	0.000081
  66	6.4675e+00	2.5892	-0.349212	0.000345	3.447371	1.168001	0.000138
  67	6.5670e+00	2.6293	-0.211950	0.000345	3.447371	1.168001	0.000138
  68	6.6665e+00	2.6710	-0.111021	0.000253	2.534831	0.858824	0.000101
  69	6.7660e+00	2.6999	0.046427	0.000395	3.954337	1.339766	0.000158
  70	6.8655e+00	2.7513	0.139281	0.000233	2.332045	0.790118	0.000093
  71	6.9650e+00	2.7898	0.276544	0.000345	3.447371	1.168001	0.000138
  72	7.0645e+00	2.8234	0.341138	0.000162	1.622292	0.549647	0.000065
  73	7.1640e+00	2.8668	0.506661	0.000416	4.157123	1.408472	0.000166
  74	7.2635e+00	2.9149	0.575292	0.000172	1.723685	0.584000	0.000069
  75	7.3630e+00	2.9486	0.748889	0.000436	4.359910	1.477177	0.000174
  76	7.4625e+00	2.9935	0.845780	0.000243	2.433438	0.824471	0.000097
  77	7.5620e+00	3.0336	1.007265	0.000406	4.055730	1.374119	0.000162
  78	7.6615e+00	3.0625	1.124342	0.000294	2.940404	0.996236	0.000118
  79	7.7610e+00	3.1138	1.217196	0.000233	2.332045	0.790118	0.000093
  80	7.8605e+00	3.1491	1.362533	0.000365	3.650157	1.236707	0.000146
  81	7.9600e+00	3.1844	1.499796	0.000345	3.447371	1.168001	0.000138
  82	8.0595e+00	3.2245	1.645133	0.000365	3.650157	1.236707	0.000146
  83	8.1590e+00	3.2710	1.758173	0.000284	2.839011	0.961883	0.000114
  84	8.2585e+00	3.3063	1.871212	0.000284	2.839011	0.961883	0.000114
  85	8.3580e+00	3.3384	2.000401	0.000324	3.244584	1.099295	0.000130
  86	8.4575e+00	3.3978	2.129589	0.000324	3.244584	1.099295	0.000130
  87	8.5570e+00	3.4266	2.283000	0.000385	3.852944	1.305413	0.000154
  88	8.6565e+00	3.4667	2.375854	0.000233	2.332045	0.790118	0.000093
  89	8.7560e+00	3.5133	2.525228	0.000375	3.751550	1.271060	0.000150
  90	8.8555e+00	3.5470	2.642305	0.000294	2.940404	0.996236	0.000118
  91	8.9550e+00	3.5887	2.783605	0.000355	3.548764	1.202354	0.000142
  92	9.0545e+00	3.6191	2.904719	0.000304	3.041798	1.030589	0.000122
  93	9.1540e+00	3.6657	3.029870	0.000314	3.143191	1.064942	0.000126
  94	9.2535e+00	3.7026	3.163096	0.000335	3.345977	1.133648	0.000134
  95	9.3530e+00	3.7475	3.296321	0.000335	3.345977	1.133648	0.000134
  96	9.4525e+00	3.7812	3.413398	0.000294	2.940404	0.996236	0.000118
  97	9.5520e+00	3.8197	3.570847	0.000395	3.954337	1.339766	0.000158
  98	9.6515e+00	3.8614	3.675812	0.000264	2.636225	0.893177	0.000105
  99	9.7510e+00	3.9031	3.784815	0.000274	2.737618	0.927530	0.000110
 100	9.8505e+00	3.9400	3.934189	0.000375	3.751550	1.271060	0.000150
 101	9.9500e+00	3.9737	4.071451	0.000345	3.447371	1.168001	0.000138
 102	1.0050e+01	4.0170	4.144120	0.000183	1.825079	0.618353	0.000073
 103	1.0149e+01	4.0587	4.309642	0.000416	4.157123	1.408472	0.000166
 104	1.0248e+01	4.1020	4.422682	0.000284	2.839011	0.961883	0.000114
 105	1.0348e+01	4.1373	4.588205	0.000416	4.157123	1.408472	0.000166
 106	1.0447e+01	4.1806	4.681059	0.000233	2.332045	0.790118	0.000093
 107	1.0547e+01	4.2320	4.858693	0.000446	4.461303	1.511530	0.000179
 108	1.0646e+01	4.2657	4.947510	0.000223	2.230652	0.755765	0.000089
 109	1.0746e+01	4.3026	5.064587	0.000294	2.940404	0.996236	0.000118
 110	1.0845e+01	4.3330	5.226072	0.000406	4.055730	1.374119	0.000162
 111	1.0945e+01	4.3796	5.363335	0.000345	3.447371	1.168001	0.000138
 112	1.1044e+01	4.4229	5.500597	0.000345	3.447371	1.168001	0.000138
 113	1.1144e+01	4.4694	5.629786	0.000324	3.244584	1.099295	0.000130
 114	1.1243e+01	4.5063	5.746863	0.000294	2.940404	0.996236	0.000118
 115	1.1343e+01	4.5496	5.924497	0.000446	4.461303	1.511530	0.000179
 116	1.1443e+01	4.5881	6.001202	0.000193	1.926472	0.652706	0.000077
 117	1.1542e+01	4.6170	6.154613	0.000385	3.852944	1.305413	0.000154
 118	1.1642e+01	4.6715	6.299950	0.000365	3.650157	1.236707	0.000146
 119	1.1741e+01	4.6956	6.417027	0.000294	2.940404	0.996236	0.000118
 120	1.1841e+01	4.7437	6.566401	0.000375	3.751550	1.271060	0.000150
 121	1.1940e+01	4.7790	6.667330	0.000253	2.534831	0.858824	0.000101
 122	1.2040e+01	4.8255	6.800555	0.000335	3.345977	1.133648	0.000134
 123	1.2139e+01	4.8640	6.913595	0.000284	2.839011	0.961883	0.000114
 124	1.2239e+01	4.9090	7.071043	0.000395	3.954337	1.339766	0.000158
 125	1.2338e+01	4.9410	7.208306	0.000345	3.447371	1.168001	0.000138
 126	1.2438e+01	4.9795	7.317309	0.000274	2.737618	0.927530	0.000110
 127	1.2537e+01	5.0180	7.446497	0.000324	3.244584	1.099295	0.000130
 128	1.2636e+01	5.0581	7.575685	0.000324	3.244584	1.099295	0.000130
 129	1.2736e+01	5.0870	7.725059	0.000375	3.751550	1.271060	0.000150
 130	1.2835e+01	5.1448	7.862322	0.000345	3.447371	1.168001	0.000138
 131	1.2935e+01	5.1817	7.983436	0.000304	3.041798	1.030589	0.000122
 132	1.3034e+01	5.2202	8.124736	0.000355	3.548764	1.202354	0.000142
 133	1.3134e+01	5.2603	8.249887	0.000314	3.143191	1.064942	0.000126
 134	1.3233e+01	5.2988	8.354852	0.000264	2.636225	0.893177	0.000105
 135	1.3333e+01	5.3389	8.512301	0.000395	3.954337	1.339766	0.000158
 136	1.3432e+01	5.3790	8.633415	0.000304	3.041798	1.030589	0.000122
 137	1.3532e+01	5.4143	8.766640	0.000335	3.345977	1.133648	0.000134
 138	1.3632e+01	5.4528	8.907940	0.000355	3.548764	1.202354	0.000142
 139	1.3731e+01	5.5025	9.073463	0.000416	4.157123	1.408472	0.000166
 140	1.3831e+01	5.5474	9.166317	0.000233	2.332045	0.790118	0.000093
 141	1.3930e+01	5.5843	9.319728	0.000385	3.852944	1.305413	0.000154
 142	1.4030e+01	5.6164	9.412582	0.000233	2.332045	0.790118	0.000093
 143	1.4129e+01	5.6549	9.565993	0.000385	3.852944	1.305413	0.000154
 144	1.4229e+01	5.6982	9.683070	0.000294	2.940404	0.996236	0.000118
 145	1.4328e+01	5.7287	9.844555	0.000406	4.055730	1.374119	0.000162
 146	1.4428e+01	5.7817	9.985855	0.000355	3.548764	1.202354	0.000142
 147	1.4527e+01	5.8137	10.143304	0.000395	3.954337	1.339766	0.000158
 148	1.4627e+01	5.8522	10.240195	0.000243	2.433438	0.824471	0.000097
 149	1.4726e+01	5.8972	10.361309	0.000304	3.041798	1.030589	0.000122
 150	1.4825e+01	5.9357	10.510683	0.000375	3.751550	1.271060	0.000150
 151	1.4925e+01	5.9758	10.631797	0.000304	3.041798	1.030589	0.000122
 152	1.5024e+01	6.0223	10.744837	0.000284	2.839011	0.961883	0.000114
 153	1.5124e+01	6.0528	10.938619	0.000487	4.866876	1.648942	0.000195
 154	1.5223e+01	6.1041	11.075882	0.000345	3.447371	1.168001	0.000138
 155	1.5323e+01	6.1410	11.217182	0.000355	3.548764	1.202354	0.000142
 156	1.5422e+01	6.1731	11.334259	0.000294	2.940404	0.996236	0.000118
 157	1.5522e+01	6.2180	11.495744	0.000406	4.055730	1.374119	0.000162
 158	1.5621e+01	6.2549	11.616858	0.000304	3.041798	1.030589	0.000122
 159	1.5721e+01	6.2966	11.750084	0.000335	3.345977	1.133648	0.000134
 160	1.5820e+01	6.3367	11.867161	0.000294	2.940404	0.996236	0.000118
 161	1.5920e+01	6.3816	12.000386	0.000335	3.345977	1.133648	0.000134
 162	1.6020e+01	6.4137	12.105352	0.000264	2.636225	0.893177	0.000105
 163	1.6119e+01	6.4522	12.222428	0.000294	2.940404	0.996236	0.000118
 164	1.6218e+01	6.4987	12.367765	0.000365	3.650157	1.236707	0.000146
 165	1.6318e+01	6.5228	12.513102	0.000365	3.650157	1.236707	0.000146
 166	1.6418e+01	6.5822	12.666513	0.000385	3.852944	1.305413	0.000154
 167	1.6517e+01	6.6094	12.779553	0.000284	2.839011	0.961883	0.000114
 168	1.6616e+01	6.6528	12.892593	0.000284	2.839011	0.961883	0.000114
 169	1.6716e+01	6.6945	13.033893	0.000355	3.548764	1.202354	0.000142
 170	1.6816e+01	6.7298	13.134821	0.000253	2.534831	0.858824	0.000101
 171	1.6915e+01	6.7763	13.255935	0.000304	3.041798	1.030589	0.000122
 172	1.7015e+01	6.8068	13.413383	0.000395	3.954337	1.339766	0.000158
 173	1.7114e+01	6.8469	13.546609	0.000335	3.345977	1.133648	0.000134
 174	1.7213e+01	6.8902	13.655612	0.000274	2.737618	0.927530	0.000110
 175	1.7313e+01	6.9287	13.817097	0.000406	4.055730	1.374119	0.000162
 176	1.7413e+01	6.9688	13.918025	0.000253	2.534831	0.858824	0.000101
 177	1.7512e+01	7.0137	14.047214	0.000324	3.244584	1.099295	0.000130
 178	1.7611e+01	7.0538	14.180439	0.000335	3.345977	1.133648	0.000134
 179	1.7711e+01	7.0923	14.325776	0.000365	3.650157	1.236707	0.000146
 180	1.7811e+01	7.1260	14.463039	0.000345	3.447371	1.168001	0.000138
 181	1.7910e+01	7.1597	14.559930	0.000243	2.433438	0.824471	0.000097
 182	1.8009e+01	7.2078	14.717378	0.000395	3.954337	1.339766	0.000158
 183	1.8109e+01	7.2463	14.822344	0.000264	2.636225	0.893177	0.000105
 184	1.8209e+01	7.2832	14.983829	0.000406	4.055730	1.374119	0.000162
 185	1.8308e+01	7.3378	15.104943	0.000304	3.041798	1.030589	0.000122
 186	1.8407e+01	7.3650	15.222020	0.000294	2.940404	0.996236	0.000118
 187	1.8507e+01	7.4180	15.331023	0.000274	2.737618	0.927530	0.000110
 188	1.8607e+01	7.4517	15.488471	0.000395	3.954337	1.339766	0.000158
 189	1.8706e+01	7.4870	15.597474	0.000274	2.737618	0.927530	0.000110
 190	1.8805e+01	7.5303	15.730699	0.000335	3.345977	1.133648	0.000134
 191	1.8905e+01	7.5752	15.851813	0.000304	3.041798	1.030589	0.000122
 192	1.9005e+01	7.5993	15.976965	0.000314	3.143191	1.064942	0.000126
 193	1.9104e+01	7.6538	16.130376	0.000385	3.852944	1.305413	0.000154
 194	1.9203e+01	7.6891	16.251490	0.000304	3.041798	1.030589	0.000122
 195	1.9303e+01	7.7260	16.364530	0.000284	2.839011	0.961883	0.000114
 196	1.9402e+01	7.7661	16.505829	0.000355	3.548764	1.202354	0.000142
 197	1.9502e+01	7.7998	16.622906	0.000294	2.940404	0.996236	0.000118
 198	1.9602e+01	7.8479	16.739983	0.000294	2.940404	0.996236	0.000118
 199	1.9701e+01	7.8848	16.889357	0.000375	3.751550	1.271060	0.000150
 200	1.9800e+01	7.9217	16.990286	0.000253	2.534831	0.858824	0.000101
 201	1.9900e+01	7.9586	17.131586	0.000355	3.548764	1.202354	0.000142
 202	2.0000e+01	8.0099	17.228477	0.000243	2.433438	0.824471	0.000097
 203	2.0099e+01	8.0516	17.389962	0.000406	4.055730	1.374119	0.000162
 204	2.0198e+01	8.0901	17.507039	0.000294	2.940404	0.996236	0.000118
 205	2.0298e+01	8.1174	17.603930	0.000243	2.433438	0.824471	0.000097
 206	2.0398e+01	8.1655	17.749267	0.000365	3.650157	1.236707	0.000146
 207	2.0497e+01	8.2137	17.878456	0.000324	3.244584	1.099295	0.000130
 208	2.0596e+01	8.2329	17.999570	0.000304	3.041798	1.030589	0.000122
 209	2.0696e+01	8.2875	18.132795	0.000335	3.345977	1.133648	0.000134
 210	2.0796e+01	8.3260	18.274095	0.000355	3.548764	1.202354	0.000142
 211	2.0895e+01	8.3677	18.362912	0.000223	2.230652	0.755765	0.000089
 212	2.0994e+01	8.4062	18.528434	0.000416	4.157123	1.408472	0.000166
 213	2.1094e+01	8.4527	18.685883	0.000395	3.954337	1.339766	0.000158
 214	2.1194e+01	8.4832	18.762588	0.000193	1.926472	0.652706	0.000077
 215	2.1293e+01	8.5313	18.916000	0.000385	3.852944	1.305413	0.000154
 216	2.1392e+01	8.5730	19.037114	0.000304	3.041798	1.030589	0.000122
 217	2.1492e+01	8.5987	19.129968	0.000233	2.332045	0.790118	0.000093
 218	2.1591e+01	8.6452	19.279342	0.000375	3.751550	1.271060	0.000150
 219	2.1691e+01	8.6821	19.384307	0.000264	2.636225	0.893177	0.000105
 220	2.1791e+01	8.7174	19.541756	0.000395	3.954337	1.339766	0.000158
 221	2.1890e+01	8.7607	19.674981	0.000335	3.345977	1.133648	0.000134
 222	2.1989e+01	8.8072	19.771872	0.000243	2.433438	0.824471	0.000097
 223	2.2089e+01	8.8425	19.888949	0.000294	2.940404	0.996236	0.000118
 224	2.2189e+01	8.8778	20.018138	0.000324	3.244584	1.099295	0.000130
 225	2.2288e+01	8.9276	20.135214	0.000294	2.940404	0.996236	0.000118
 226	2.2387e+01	8.9596	20.272477	0.000345	3.447371	1.168001	0.000138
 227	2.2487e+01	8.9997	20.409740	0.000345	3.447371	1.168001	0.000138
 228	2.2587e+01	9.0463	20.494520	0.000213	2.129258	0.721412	0.000085
 229	2.2686e+01	9.0735	20.692339	0.000497	4.968270	1.683295	0.000199
 230	2.2785e+01	9.1249	20.732711	0.000101	1.013933	0.343530	0.000041
 231	2.2885e+01	9.1554	20.882085	0.000375	3.751550	1.271060	0.000150
 232	2.2985e+01	9.2051	20.974939	0.000233	2.332045	0.790118	0.000093
 233	2.3084e+01	9.2484	21.112201	0.000345	3.447371	1.168001	0.000138
 234	2.3183e+01	9.2837	21.249464	0.000345	3.447371	1.168001	0.000138
 235	2.3283e+01	9.3206	21.366541	0.000294	2.940404	0.996236	0.000118
 236	2.3383e+01	9.3607	21.491692	0.000314	3.143191	1.064942	0.000126
 237	2.3482e+01	9.3928	21.616843	0.000314	3.143191	1.064942	0.000126
 238	2.3581e+01	9.4457	21.750069	0.000335	3.345977	1.133648	0.000134
 239	2.3681e+01	9.4810	21.850997	0.000253	2.534831	0.858824	0.000101
 240	2.3780e+01	9.5275	21.951926	0.000253	2.534831	0.858824	0.000101
 241	2.3880e+01	9.5580	22.101300	0.000375	3.751550	1.271060	0.000150
 242	2.3980e+01	9.6061	22.230488	0.000324	3.244584	1.099295	0.000130
 243	2.4079e+01	9.6543	22.355639	0.000314	3.143191	1.064942	0.000126
 244	2.4178e+01	9.6831	22.468679	0.000284	2.839011	0.961883	0.000114
 245	2.4278e+01	9.7184	22.618053	0.000375	3.751550	1.271060	0.000150
 246	2.4378e+01	9.7666	22.751278	0.000335	3.345977	1.133648	0.000134
 247	2.4477e+01	9.8035	22.836058	0.000213	2.129258	0.721412	0.000085
 248	2.4576e+01	9.8372	22.985432	0.000375	3.751550	1.271060	0.000150
 249	2.4676e+01	9.8837	23.114621	0.000324	3.244584	1.099295	0.000130
 250	2.4776e+01	9.9206	23.223623	0.000274	2.737618	0.927530	0.000110
 251	2.4875e+01	9.9655	23.368960	0.000365	3.650157	1.236707	0.000146
 252	2.4974e+01	9.9896	23.465851	0.000243	2.433438	0.824471	0.000097
 253	2.5074e+01	10.0377	23.611188	0.000365	3.650157	1.236707	0.000146
 254	2.5174e+01	10.0762	23.736340	0.000314	3.143191	1.064942	0.000126
 255	2.5273e+01	10.1195	23.821119	0.000213	2.129258	0.721412	0.000085
 256	2.5372e+01	10.1532	23.990679	0.000426	4.258517	1.442825	0.000170
 257	2.5472e+01	10.1885	24.127942	0.000345	3.447371	1.168001	0.000138
 258	2.5572e+01	10.2414	24.212722	0.000213	2.129258	0.721412	0.000085
 259	2.5671e+01	10.2767	24.358058	0.000365	3.650157	1.236707	0.000146
 260	2.5770e+01	10.3184	24.511470	0.000385	3.852944	1.305413	0.000154
 261	2.5870e+01	10.3585	24.632584	0.000304	3.041798	1.030589	0.000122
 262	2.5970e+01	10.4051	24.765809	0.000335	3.345977	1.133648	0.000134
 263	2.6069e+01	10.4436	24.886923	0.000304	3.041798	1.030589	0.000122
 264	2.6169e+01	10.4724	24.991889	0.000264	2.636225	0.893177	0.000105
 265	2.6268e+01	10.5077	25.133189	0.000355	3.548764	1.202354	0.000142
 266	2.6367e+01	10.5591	25.262377	0.000324	3.244584	1.099295	0.000130
 267	2.6467e+01	10.5960	25.387528	0.000314	3.143191	1.064942	0.000126
 268	2.6567e+01	10.6280	25.512679	0.000314	3.143191	1.064942	0.000126
 269	2.6666e+01	10.6730	25.666090	0.000385	3.852944	1.305413	0.000154
 270	2.6765e+01	10.7195	25.787205	0.000304	3.041798	1.030589	0.000122
 271	2.6865e+01	10.7548	25.896207	0.000274	2.737618	0.927530	0.000110
 272	2.6965e+01	10.8061	26.013284	0.000294	2.940404	0.996236	0.000118
 273	2.7064e+01	10.8398	26.154584	0.000355	3.548764	1.202354	0.000142
 274	2.7163e+01	10.8831	26.259549	0.000264	2.636225	0.893177	0.000105
 275	2.7263e+01	10.9136	26.384701	0.000314	3.143191	1.064942	0.000126
 276	2.7363e+01	10.9553	26.578483	0.000487	4.866876	1.648942	0.000195
 277	2.7462e+01	10.9954	26.651152	0.000183	1.825079	0.618353	0.000073
 278	2.7561e+01	11.0387	26.796488	0.000365	3.650157	1.236707	0.000146
 279	2.7661e+01	11.0756	26.925677	0.000324	3.244584	1.099295	0.000130
 280	2.7761e+01	11.1157	27.014494	0.000223	2.230652	0.755765	0.000089
 281	2.7860e+01	11.1542	27.220388	0.000517	5.171056	1.752001	0.000207
 282	2.7959e+01	11.1943	27.297093	0.000193	1.926472	0.652706	0.000077
 283	2.8059e+01	11.2296	27.438393	0.000355	3.548764	1.202354	0.000142
 284	2.8159e+01	11.2762	27.543359	0.000264	2.636225	0.893177	0.000105
 285	2.8258e+01	11.3163	27.704844	0.000406	4.055730	1.374119	0.000162
 286	2.8358e+01	11.3532	27.805772	0.000253	2.534831	0.858824	0.000101
 287	2.8457e+01	11.3949	27.938998	0.000335	3.345977	1.133648	0.000134
 288	2.8556e+01	11.4318	28.060112	0.000304	3.041798	1.030589	0.000122
 289	2.8656e+01	11.4735	28.213523	0.000385	3.852944	1.305413	0.000154
 290	2.8756e+01	11.5088	28.310414	0.000243	2.433438	0.824471	0.000097
 291	2.8855e+01	11.5537	28.439603	0.000324	3.244584	1.099295	0.000130
 292	2.8954e+01	11.5954	28.584940	0.000365	3.650157	1.236707	0.000146
 293	2.9054e+01	11.6291	28.714128	0.000324	3.244584	1.099295	0.000130
 294	2.9154e+01	11.6788	28.827168	0.000284	2.839011	0.961883	0.000114
 295	2.9253e+01	11.7077	28.960393	0.000335	3.345977	1.133648	0.000134
 296	2.9352e+01	11.7558	29.105730	0.000365	3.650157	1.236707	0.000146
 297	2.9452e+01	11.7927	29.178399	0.000183	1.825079	0.618353	0.000073
 298	2.9552e+01	11.8328	29.351995	0.000436	4.359910	1.477177	0.000174
 299	2.9651e+01	11.8745	29.465035	0.000284	2.839011	0.961883	0.000114
 300	2.9750e+01	11.9034	29.626521	0.000406	4.055730	1.374119	0.000162
 301	2.9850e+01	11.9499	29.723412	0.000243	2.433438	0.824471	0.000097
 302	2.9950e+01	11.9900	29.840489	0.000294	2.940404	0.996236	0.000118
 303	3.0049e+01	12.0350	29.965640	0.000314	3.143191	1.064942	0.000126
 304	3.0148e+01	12.0638	30.106940	0.000355	3.548764	1.202354	0.000142
 305	3.0248e+01	12.1055	30.224017	0.000294	2.940404	0.996236	0.000118
 306	3.0348e+01	12.1585	30.361279	0.000345	3.447371	1.168001	0.000138
 307	3.0447e+01	12.1874	30.462208	0.000253	2.534831	0.858824	0.000101
 308	3.0547e+01	12.2323	30.651953	0.000477	4.765483	1.614589	0.000191
 309	3.0646e+01	12.2644	30.777104	0.000314	3.143191	1.064942	0.000126
 310	3.0745e+01	12.3077	30.861884	0.000213	2.129258	0.721412	0.000085
 311	3.0845e+01	12.3542	31.035481	0.000436	4.359910	1.477177	0.000174
 312	3.0945e+01	12.3943	31.152558	0.000294	2.940404	0.996236	0.000118
 313	3.1044e+01	12.4296	31.253486	0.000253	2.534831	0.858824	0.000101
 314	3.1143e+01	12.4665	31.402860	0.000375	3.751550	1.271060	0.000150
 315	3.1243e+01	12.5066	31.528012	0.000314	3.143191	1.064942	0.000126
 316	3.1343e+01	12.5467	31.677386	0.000375	3.751550	1.271060	0.000150
 317	3.1442e+01	12.5868	31.814648	0.000345	3.447371	1.168001	0.000138
 318	3.1541e+01	12.6205	31.943837	0.000324	3.244584	1.099295	0.000130
 319	3.1641e+01	12.6654	32.044765	0.000253	2.534831	0.858824	0.000101
 320	3.1741e+01	12.7168	32.214325	0.000426	4.258517	1.442825	0.000170
 321	3.1840e+01	12.7617	32.295067	0.000203	2.027865	0.687059	0.000081
 322	3.1939e+01	12.7777	32.476738	0.000456	4.562696	1.545883	0.000183
 323	3.2039e+01	12.8355	32.609964	0.000335	3.345977	1.133648	0.000134
 324	3.2139e+01	12.8708	32.706855	0.000243	2.433438	0.824471	0.000097
 325	3.2238e+01	12.9028	32.811821	0.000264	2.636225	0.893177	0.000105
 326	3.2337e+01	12.9397	32.949083	0.000345	3.447371	1.168001	0.000138
 327	3.2437e+01	12.9831	33.082309	0.000335	3.345977	1.133648	0.000134
 328	3.2536e+01	13.0183	33.215534	0.000335	3.345977	1.133648	0.000134
 329	3.2636e+01	13.0633	33.324537	0.000274	2.737618	0.927530	0.000110
 330	3.2736e+01	13.1034	33.465837	0.000355	3.548764	1.202354	0.000142
 331	3.2835e+01	13.1435	33.562728	0.000243	2.433438	0.824471	0.000097
 332	3.2934e+01	13.1932	33.687879	0.000314	3.143191	1.064942	0.000126
 333	3.3034e+01	13.2269	33.784770	0.000243	2.433438	0.824471	0.000097
 334	3.3133e+01	13.2622	33.970479	0.000466	4.664090	1.580236	0.000187
 335	3.3233e+01	13.3007	34.063333	0.000233	2.332045	0.790118	0.000093
 336	3.3333e+01	13.3520	34.192521	0.000324	3.244584	1.099295	0.000130
 337	3.3432e+01	13.3857	34.321709	0.000324	3.244584	1.099295	0.000130
 338	3.3532e+01	13.4242	34.442824	0.000304	3.041798	1.030589	0.000122
 339	3.3631e+01	13.4595	34.612383	0.000426	4.258517	1.442825	0.000170
 340	3.3730e+01	13.5012	34.701200	0.000223	2.230652	0.755765	0.000089
 341	3.3830e+01	13.5461	34.842500	0.000355	3.548764	1.202354	0.000142
 342	3.3929e+01	13.5814	34.967651	0.000314	3.143191	1.064942	0.000126
 343	3.4029e+01	13.6135	35.100877	0.000335	3.345977	1.133648	0.000134
 344	3.4129e+01	13.6633	35.205842	0.000264	2.636225	0.893177	0.000105
 345	3.4228e+01	13.7098	35.306771	0.000253	2.534831	0.858824	0.000101
 346	3.4328e+01	13.7419	35.448070	0.000355	3.548764	1.202354	0.000142
 347	3.4427e+01	13.7884	35.581296	0.000335	3.345977	1.133648	0.000134
 348	3.4526e+01	13.8301	35.742781	0.000406	4.055730	1.374119	0.000162
 349	3.4626e+01	13.8606	35.831598	0.000223	2.230652	0.755765	0.000089
 350	3.4725e+01	13.8991	35.948675	0.000294	2.940404	0.996236	0.000118
 351	3.4825e+01	13.9328	36.045566	0.000243	2.433438	0.824471	0.000097
 352	3.4925e+01	13.9825	36.174755	0.000324	3.244584	1.099295	0.000130
 353	3.5024e+01	14.0258	36.299906	0.000314	3.143191	1.064942	0.000126
 354	3.5123e+01	14.0627	36.412946	0.000284	2.839011	0.961883	0.000114
 355	3.5223e+01	14.0996	36.546171	0.000335	3.345977	1.133648	0.000134
 356	3.5322e+01	14.1397	36.691508	0.000365	3.650157	1.236707	0.000146
 357	3.5422e+01	14.1750	36.840882	0.000375	3.751550	1.271060	0.000150
 358	3.5522e+01	14.2199	36.933736	0.000233	2.332045	0.790118	0.000093
 359	3.5621e+01	14.2520	37.054850	0.000304	3.041798	1.030589	0.000122
 360	3.5721e+01	14.2969	37.163853	0.000274	2.737618	0.927530	0.000110
 361	3.5820e+01	14.3418	37.272856	0.000274	2.737618	0.927530	0.000110
 362	3.5919e+01	14.3884	37.393970	0.000304	3.041798	1.030589	0.000122
 363	3.6019e+01	14.4188	37.531232	0.000345	3.447371	1.168001	0.000138
 364	3.6118e+01	14.4670	37.644272	0.000284	2.839011	0.961883	0.000114
 365	3.6218e+01	14.5023	37.781535	0.000345	3.447371	1.168001	0.000138
 366	3.6318e+01	14.5376	37.906686	0.000314	3.143191	1.064942	0.000126
 367	3.6417e+01	14.5664	38.011652	0.000264	2.636225	0.893177	0.000105
 368	3.6517e+01	14.6049	38.140840	0.000324	3.244584	1.099295	0.000130
 369	3.6616e+01	14.6595	38.261954	0.000304	3.041798	1.030589	0.000122
 370	3.6715e+01	14.7028	38.411328	0.000375	3.751550	1.271060	0.000150
 371	3.6815e+01	14.7365	38.504182	0.000233	2.332045	0.790118	0.000093
 372	3.6914e+01	14.7814	38.629333	0.000314	3.143191	1.064942	0.000126
 373	3.7014e+01	14.8151	38.746410	0.000294	2.940404	0.996236	0.000118
 374	3.7114e+01	14.8536	38.851376	0.000264	2.636225	0.893177	0.000105
 375	3.7213e+01	14.9033	39.012861	0.000406	4.055730	1.374119	0.000162
 376	3.7313e+01	14.9386	39.105715	0.000233	2.332045	0.790118	0.000093
 377	3.7412e+01	14.9803	39.206644	0.000253	2.534831	0.858824	0.000101
 378	3.7511e+01	15.0188	39.335832	0.000324	3.244584	1.099295	0.000130
 379	3.7611e+01	15.0525	39.481169	0.000365	3.650157	1.236707	0.000146
 380	3.7711e+01	15.0926	39.630543	0.000375	3.751550	1.271060	0.000150
 381	3.7810e+01	15.1375	39.715323	0.000213	2.129258	0.721412	0.000085
 382	3.7910e+01	15.1760	39.872771	0.000395	3.954337	1.339766	0.000158
 383	3.8009e+01	15.2145	39.973700	0.000253	2.534831	0.858824	0.000101
 384	3.8108e+01	15.2546	40.114999	0.000355	3.548764	1.202354	0.000142
 385	3.8208e+01	15.2883	40.219965	0.000264	2.636225	0.893177	0.000105
 386	3.8307e+01	15.3397	40.324930	0.000264	2.636225	0.893177	0.000105
 387	3.8407e+01	15.3750	40.466230	0.000355	3.548764	1.202354	0.000142
 388	3.8507e+01	15.4087	40.595418	0.000324	3.244584	1.099295	0.000130
 389	3.8606e+01	15.4504	40.704421	0.000274	2.737618	0.927530	0.000110
 390	3.8706e+01	15.5001	40.813424	0.000274	2.737618	0.927530	0.000110
 391	3.8805e+01	15.5338	40.930501	0.000294	2.940404	0.996236	0.000118
 392	3.8904e+01	15.5755	41.079875	0.000375	3.751550	1.271060	0.000150
 393	3.9004e+01	15.6156	41.172729	0.000233	2.332045	0.790118	0.000093
 394	3.9103e+01	15.6541	41.305954	0.000335	3.345977	1.133648	0.000134
 395	3.9203e+01	15.7006	41.414957	0.000274	2.737618	0.927530	0.000110
 396	3.9303e+01	15.7375	41.536071	0.000304	3.041798	1.030589	0.000122
 397	3.9402e+01	15.7873	41.665259	0.000324	3.244584	1.099295	0.000130
 398	3.9502e+01	15.8097	41.786373	0.000304	3.041798	1.030589	0.000122
 399	3.9601e+01	15.8562	41.846930	0.000152	1.520899	0.515294	0.000061
 400	3.9700e+01	15.9012	42.004379	0.000395	3.954337	1.339766	0.000158
 401	3.9800e+01	15.9381	42.141641	0.000345	3.447371	1.168001	0.000138
 402	3.9900e+01	15.9701	42.242570	0.000253	2.534831	0.858824	0.000101
 403	3.9999e+01	16.0070	42.400018	0.000395	3.954337	1.339766	0.000158
 404	4.0099e+01	16.0455	42.496909	0.000243	2.433438	0.824471	0.000097
 405	4.0198e+01	16.0953	42.585726	0.000223	2.230652	0.755765	0.000089
 406	4.0297e+01	16.1306	42.739137	0.000385	3.852944	1.305413	0.000154
 407	4.0397e+01	16.1659	42.860252	0.000304	3.041798	1.030589	0.000122
 408	4.0496e+01	16.2140	42.932920	0.000183	1.825079	0.618353	0.000073
 409	4.0596e+01	16.2525	43.033848	0.000253	2.534831	0.858824	0.000101
 410	4.0696e+01	16.2942	43.195334	0.000406	4.055730	1.374119	0.000162
 411	4.0795e+01	16.3327	43.320485	0.000314	3.143191	1.064942	0.000126
 412	4.0895e+01	16.3648	43.425451	0.000264	2.636225	0.893177	0.000105
 413	4.0994e+01	16.4065	43.522342	0.000243	2.433438	0.824471	0.000097
 414	4.1093e+01	16.4562	43.663642	0.000355	3.548764	1.202354	0.000142
 415	4.1193e+01	16.4915	43.792830	0.000324	3.244584	1.099295	0.000130
 416	4.1292e+01	16.5380	43.930093	0.000345	3.447371	1.168001	0.000138
 417	4.1392e+01	16.5717	44.043132	0.000284	2.839011	0.961883	0.000114
 418	4.1492e+01	16.6150	44.192506	0.000375	3.751550	1.271060	0.000150
 419	4.1591e+01	16.6551	44.309583	0.000294	2.940404	0.996236	0.000118
 420	4.1691e+01	16.6856	44.390326	0.000203	2.027865	0.687059	0.000081
 421	4.1790e+01	16.7386	44.535663	0.000365	3.650157	1.236707	0.000146
 422	4.1889e+01	16.7674	44.697148	0.000406	4.055730	1.374119	0.000162
 423	4.1989e+01	16.8140	44.790002	0.000233	2.332045	0.790118	0.000093
 424	4.2089e+01	16.8460	44.923228	0.000335	3.345977	1.133648	0.000134
 425	4.2188e+01	16.8926	45.032231	0.000274	2.737618	0.927530	0.000110
 426	4.2288e+01	16.9231	45.173530	0.000355	3.548764	1.202354	0.000142
 427	4.2387e+01	16.9760	45.326941	0.000385	3.852944	1.305413	0.000154
 428	4.2486e+01	17.0049	45.415758	0.000223	2.230652	0.755765	0.000089
 429	4.2586e+01	17.0482	45.569170	0.000385	3.852944	1.305413	0.000154
 430	4.2685e+01	17.0931	45.726618	0.000395	3.954337	1.339766	0.000158
 431	4.2785e+01	17.1284	45.835621	0.000274	2.737618	0.927530	0.000110
 432	4.2885e+01	17.1749	45.964809	0.000324	3.244584	1.099295	0.000130
 433	4.2984e+01	17.2166	46.029403	0.000162	1.622292	0.549647	0.000065
 434	4.3084e+01	17.2455	46.194926	0.000416	4.157123	1.408472	0.000166
 435	4.3183e+01	17.2952	46.328151	0.000335	3.345977	1.133648	0.000134
 436	4.3282e+01	17.3257	46.485599	0.000395	3.954337	1.339766	0.000158
 437	4.3382e+01	17.3690	46.550194	0.000162	1.622292	0.549647	0.000065
 438	4.3481e+01	17.4139	46.703605	0.000385	3.852944	1.305413	0.000154
 439	4.3581e+01	17.4476	46.820682	0.000294	2.940404	0.996236	0.000118
 440	4.3681e+01	17.4845	46.937759	0.000294	2.940404	0.996236	0.000118
 441	4.3780e+01	17.5343	47.070984	0.000335	3.345977	1.133648	0.000134
 442	4.3880e+01	17.5583	47.204210	0.000335	3.345977	1.133648	0.000134
 443	4.3979e+01	17.6097	47.397992	0.000487	4.866876	1.648942	0.000195
 444	4.4078e+01	17.6417	47.466623	0.000172	1.723685	0.584000	0.000069
 445	4.4178e+01	17.6931	47.607923	0.000355	3.548764	1.202354	0.000142
 446	4.4278e+01	17.7252	47.733074	0.000314	3.143191	1.064942	0.000126
 447	4.4377e+01	17.7621	47.842077	0.000274	2.737618	0.927530	0.000110
 448	4.4477e+01	17.8070	48.015674	0.000436	4.359910	1.477177	0.000174
 449	4.4576e+01	17.8487	48.169085	0.000385	3.852944	1.305413	0.000154
 450	4.4675e+01	17.8840	48.290199	0.000304	3.041798	1.030589	0.000122
 451	4.4775e+01	17.9225	48.395165	0.000264	2.636225	0.893177	0.000105
 452	4.4874e+01	17.9674	48.524353	0.000324	3.244584	1.099295	0.000130
 453	4.4974e+01	18.0091	48.677764	0.000385	3.852944	1.305413	0.000154
 454	4.5074e+01	18.0412	48.806953	0.000324	3.244584	1.099295	0.000130
 455	4.5173e+01	18.0861	48.940178	0.000335	3.345977	1.133648	0.000134
 456	4.5273e+01	18.1246	49.053218	0.000284	2.839011	0.961883	0.000114
 457	4.5372e+01	18.1647	49.210666	0.000395	3.954337	1.339766	0.000158
 458	4.5471e+01	18.2048	49.339854	0.000324	3.244584	1.099295	0.000130
 459	4.5571e+01	18.2498	49.469043	0.000324	3.244584	1.099295	0.000130
 460	4.5670e+01	18.2818	49.614380	0.000365	3.650157	1.236707	0.000146
 461	4.5770e+01	18.3316	49.707234	0.000233	2.332045	0.790118	0.000093
 462	4.5870e+01	18.3733	49.872756	0.000416	4.157123	1.408472	0.000166
 463	4.5969e+01	18.3925	50.018093	0.000365	3.650157	1.236707	0.000146
 464	4.6069e+01	18.4423	50.139207	0.000304	3.041798	1.030589	0.000122
 465	4.6168e+01	18.4808	50.268396	0.000324	3.244584	1.099295	0.000130
 466	4.6267e+01	18.5161	50.393547	0.000314	3.143191	1.064942	0.000126
 467	4.6367e+01	18.5610	50.526772	0.000335	3.345977	1.133648	0.000134
 468	4.6467e+01	18.5995	50.635775	0.000274	2.737618	0.927530	0.000110
 469	4.6566e+01	18.6476	50.777075	0.000355	3.548764	1.202354	0.000142
 470	4.6666e+01	18.6861	50.934523	0.000395	3.954337	1.339766	0.000158
 471	4.6765e+01	18.7230	51.035451	0.000253	2.534831	0.858824	0.000101
 472	4.6864e+01	18.7631	51.192900	0.000395	3.954337	1.339766	0.000158
 473	4.6964e+01	18.7968	51.318051	0.000314	3.143191	1.064942	0.000126
 474	4.7063e+01	18.8385	51.467425	0.000375	3.751550	1.271060	0.000150
 475	4.7163e+01	18.8770	51.616799	0.000375	3.751550	1.271060	0.000150
 476	4.7263e+01	18.9203	51.717727	0.000253	2.534831	0.858824	0.000101
 477	4.7362e+01	18.9540	51.883250	0.000416	4.157123	1.408472	0.000166
 478	4.7462e+01	19.0037	52.060884	0.000446	4.461303	1.511530	0.000179
 479	4.7561e+01	19.0390	52.133552	0.000183	1.825079	0.618353	0.000073
 480	4.7660e+01	19.0775	52.274852	0.000355	3.548764	1.202354	0.000142
 481	4.7760e+01	19.1241	52.416152	0.000355	3.548764	1.202354	0.000142
 482	4.7859e+01	19.1577	52.565526	0.000375	3.751550	1.271060	0.000150
 483	4.7959e+01	19.1914	52.718937	0.000385	3.852944	1.305413	0.000154
 484	4.8059e+01	19.2508	52.856200	0.000345	3.447371	1.168001	0.000138
 485	4.8158e+01	19.2700	53.021722	0.000416	4.157123	1.408472	0.000166
 486	4.8258e+01	19.3310	53.122651	0.000253	2.534831	0.858824	0.000101
 487	4.8357e+01	19.3567	53.280099	0.000395	3.954337	1.339766	0.000158
 488	4.8456e+01	19.3984	53.417362	0.000345	3.447371	1.168001	0.000138
 489	4.8556e+01	19.4321	53.558661	0.000355	3.548764	1.202354	0.000142
 490	4.8656e+01	19.4834	53.712072	0.000385	3.852944	1.305413	0.000154
 491	4.8755e+01	19.5203	53.869521	0.000395	3.954337	1.339766	0.000158
 492	4.8855e+01	19.5620	53.998709	0.000324	3.244584	1.099295	0.000130
 493	4.8954e+01	19.5941	54.140009	0.000355	3.548764	1.202354	0.000142
 494	4.9053e+01	19.6406	54.273234	0.000335	3.345977	1.133648	0.000134
 495	4.9153e+01	19.6839	54.418571	0.000365	3.650157	1.236707	0.000146
 496	4.9252e+01	19.7208	54.576019	0.000395	3.954337	1.339766	0.000158
 497	4.9352e+01	19.7593	54.745579	0.000426	4.258517	1.442825	0.000170
 498	4.9452e+01	19.8075	54.874768	0.000324	3.244584	1.099295	0.000130
 499	4.9551e+01	19.8412	55.024142	0.000375	3.751550	1.271060	0.000150
 500	4.9651e+01	19.8748	55.225998	0.000507	5.069663	1.717648	0.000203
 501	4.9750e+01	19.9117	55.298667	0.000183	1.825079	0.618353	0.000073
 502	4.9849e+01	19.9567	55.452078	0.000385	3.852944	1.305413	0.000154
 503	4.9949e+01	19.9936	55.633749	0.000456	4.562696	1.545883	0.000183
 504	5.0048e+01	19.9551	55.561081	0.000183	1.825079	0.618353	-0.000073
 505	5.0148e+01	19.9198	55.472264	0.000223	2.230652	0.755765	-0.000089
 506	5.0248e+01	19.8732	55.419781	0.000132	1.318112	0.446589	-0.000053
 507	5.0347e+01	19.8331	55.367298	0.000132	1.318112	0.446589	-0.000053
 508	5.0447e+01	19.8026	55.335001	0.000081	0.811146	0.274824	-0.000032
 509	5.0546e+01	19.7593	55.238110	0.000243	2.433438	0.824471	-0.000097
 510	5.0645e+01	19.7160	55.189664	0.000122	1.216719	0.412236	-0.000049
 511	5.0745e+01	19.6743	55.088736	0.000253	2.534831	0.858824	-0.000101
 512	5.0844e+01	19.6342	55.036253	0.000132	1.318112	0.446589	-0.000053
 513	5.0944e+01	19.5941	54.939362	0.000243	2.433438	0.824471	-0.000097
 514	5.1044e+01	19.5604	54.886879	0.000132	1.318112	0.446589	-0.000053
 515	5.1143e+01	19.5203	54.826322	0.000152	1.520899	0.515294	-0.000061
 516	5.1242e+01	19.4754	54.749616	0.000193	1.926472	0.652706	-0.000077
 517	5.1342e+01	19.4401	54.676948	0.000183	1.825079	0.618353	-0.000073
 518	5.1441e+01	19.4096	54.592168	0.000213	2.129258	0.721412	-0.000085
 519	5.1541e+01	19.3631	54.576019	0.000041	0.405573	0.137412	-0.000016
 520	5.1641e+01	19.3182	54.450868	0.000314	3.143191	1.064942	-0.000126
 521	5.1740e+01	19.2749	54.430683	0.000051	0.506966	0.171765	-0.000020
 522	5.1840e+01	19.2444	54.317643	0.000284	2.839011	0.961883	-0.000114
 523	5.1939e+01	19.1930	54.261123	0.000142	1.419506	0.480942	-0.000057
 524	5.2038e+01	19.1594	54.204603	0.000142	1.419506	0.480942	-0.000057
 525	5.2138e+01	19.1160	54.127897	0.000193	1.926472	0.652706	-0.000077
 526	5.2237e+01	19.0791	54.031006	0.000243	2.433438	0.824471	-0.000097
 527	5.2337e+01	19.0374	53.986598	0.000112	1.115326	0.377883	-0.000045
 528	5.2437e+01	19.0070	53.893744	0.000233	2.332045	0.790118	-0.000093
 529	5.2536e+01	18.9652	53.841261	0.000132	1.318112	0.446589	-0.000053
 530	5.2636e+01	18.9187	53.728221	0.000284	2.839011	0.961883	-0.000114
 531	5.2735e+01	18.8786	53.659590	0.000172	1.723685	0.584000	-0.000069
 532	5.2834e+01	18.8465	53.582884	0.000193	1.926472	0.652706	-0.000077
 533	5.2934e+01	18.8016	53.498104	0.000213	2.129258	0.721412	-0.000085
 534	5.3033e+01	18.7679	53.433510	0.000162	1.622292	0.549647	-0.000065
 535	5.3133e+01	18.7230	53.356804	0.000193	1.926472	0.652706	-0.000077
 536	5.3233e+01	18.6781	53.259913	0.000243	2.433438	0.824471	-0.000097
 537	5.3332e+01	18.6380	53.215505	0.000112	1.115326	0.377883	-0.000045
 538	5.3431e+01	18.6027	53.126688	0.000223	2.230652	0.755765	-0.000089
 539	5.3531e+01	18.5610	53.045945	0.000203	2.027865	0.687059	-0.000081
 540	5.3630e+01	18.5289	52.961165	0.000213	2.129258	0.721412	-0.000085
 541	5.3730e+01	18.4856	52.884460	0.000193	1.926472	0.652706	-0.000077
 542	5.3830e+01	18.4342	52.811791	0.000183	1.825079	0.618353	-0.000073
 543	5.3929e+01	18.4054	52.714900	0.000243	2.433438	0.824471	-0.000097
 544	5.4029e+01	18.3685	52.666454	0.000122	1.216719	0.412236	-0.000049
 545	5.4128e+01	18.3284	52.581674	0.000213	2.129258	0.721412	-0.000085
 546	5.4227e+01	18.2883	52.517080	0.000162	1.622292	0.549647	-0.000065
 547	5.4327e+01	18.2465	52.428263	0.000223	2.230652	0.755765	-0.000089
 548	5.4426e+01	18.2032	52.343483	0.000213	2.129258	0.721412	-0.000085
 549	5.4526e+01	18.1695	52.262741	0.000203	2.027865	0.687059	-0.000081
 550	5.4626e+01	18.1278	52.173924	0.000223	2.230652	0.755765	-0.000089
 551	5.4725e+01	18.0877	52.097218	0.000193	1.926472	0.652706	-0.000077
 552	5.4825e+01	18.0476	52.004364	0.000233	2.332045	0.790118	-0.000093
 553	5.4924e+01	18.0091	51.919584	0.000213	2.129258	0.721412	-0.000085
 554	5.5023e+01	17.9626	51.826730	0.000233	2.332045	0.790118	-0.000093
 555	5.5123e+01	17.9177	51.766173	0.000152	1.520899	0.515294	-0.000061
 556	5.5222e+01	17.8888	51.685430	0.000203	2.027865	0.687059	-0.000081
 557	5.5322e+01	17.8535	51.592576	0.000233	2.332045	0.790118	-0.000093
 558	5.5422e+01	17.8182	51.519908	0.000183	1.825079	0.618353	-0.000073
 559	5.5521e+01	17.7637	51.423016	0.000243	2.433438	0.824471	-0.000097
 560	5.5620e+01	17.7220	51.346311	0.000193	1.926472	0.652706	-0.000077
 561	5.5720e+01	17.6883	51.225197	0.000304	3.041798	1.030589	-0.000122
 562	5.5819e+01	17.6498	51.152528	0.000183	1.825079	0.618353	-0.000073
 563	5.5919e+01	17.6032	51.104083	0.000122	1.216719	0.412236	-0.000049
 564	5.6019e+01	17.5615	51.023340	0.000203	2.027865	0.687059	-0.000081
 565	5.6118e+01	17.5327	50.926449	0.000243	2.433438	0.824471	-0.000097
 566	5.6218e+01	17.4926	50.853780	0.000183	1.825079	0.618353	-0.000073
 567	5.6317e+01	17.4524	50.716518	0.000345	3.447371	1.168001	-0.000138
 568	5.6416e+01	17.4059	50.655961	0.000152	1.520899	0.515294	-0.000061
 569	5.6516e+01	17.3594	50.563107	0.000233	2.332045	0.790118	-0.000093
 570	5.6615e+01	17.3257	50.482364	0.000203	2.027865	0.687059	-0.000081
 571	5.6715e+01	17.3000	50.393547	0.000223	2.230652	0.755765	-0.000089
 572	5.6815e+01	17.2455	50.300693	0.000233	2.332045	0.790118	-0.000093
 573	5.6914e+01	17.2102	50.191690	0.000274	2.737618	0.927530	-0.000110
 574	5.7014e+01	17.1637	50.139207	0.000132	1.318112	0.446589	-0.000053
 575	5.7113e+01	17.1332	50.054427	0.000213	2.129258	0.721412	-0.000085
 576	5.7212e+01	17.0867	49.929276	0.000314	3.143191	1.064942	-0.000126
 577	5.7312e+01	17.0482	49.852571	0.000193	1.926472	0.652706	-0.000077
 578	5.7411e+01	17.0113	49.792014	0.000152	1.520899	0.515294	-0.000061
 579	5.7511e+01	16.9664	49.654751	0.000345	3.447371	1.168001	-0.000138
 580	5.7611e+01	16.9295	49.610343	0.000112	1.115326	0.377883	-0.000045
 581	5.7710e+01	16.8942	49.521526	0.000223	2.230652	0.755765	-0.000089
 582	5.7809e+01	16.8460	49.416560	0.000264	2.636225	0.893177	-0.000105
 583	5.7909e+01	16.8124	49.351966	0.000162	1.622292	0.549647	-0.000065
 584	5.8008e+01	16.7674	49.222777	0.000324	3.244584	1.099295	-0.000130
 585	5.8108e+01	16.7289	49.137998	0.000213	2.129258	0.721412	-0.000085
 586	5.8208e+01	16.6904	49.117812	0.000051	0.506966	0.171765	-0.000020
 587	5.8307e+01	16.6455	49.016884	0.000253	2.534831	0.858824	-0.000101
 588	5.8407e+01	16.6118	48.915955	0.000253	2.534831	0.858824	-0.000101
 589	5.8506e+01	16.5669	48.810990	0.000264	2.636225	0.893177	-0.000105
 590	5.8605e+01	16.5252	48.742358	0.000172	1.723685	0.584000	-0.000069
 591	5.8705e+01	16.4883	48.605096	0.000345	3.447371	1.168001	-0.000138
 592	5.8804e+01	16.4530	48.500130	0.000264	2.636225	0.893177	-0.000105
 593	5.8904e+01	16.4065	48.439573	0.000152	1.520899	0.515294	-0.000061
 594	5.9004e+01	16.3744	48.362868	0.000193	1.926472	0.652706	-0.000077
 595	5.9103e+01	16.3327	48.261939	0.000253	2.534831	0.858824	-0.000101
 596	5.9203e+01	16.3006	48.144862	0.000294	2.940404	0.996236	-0.000118
 597	5.9302e+01	16.2525	48.072194	0.000183	1.825079	0.618353	-0.000073
 598	5.9401e+01	16.2108	47.995488	0.000193	1.926472	0.652706	-0.000077
 599	5.9501e+01	16.1691	47.890523	0.000264	2.636225	0.893177	-0.000105
 600	5.9600e+01	16.1290	47.829966	0.000152	1.520899	0.515294	-0.000061
 601	5.9700e+01	16.0969	47.733074	0.000243	2.433438	0.824471	-0.000097
 602	5.9800e+01	16.0552	47.624072	0.000274	2.737618	0.927530	-0.000110
 603	5.9899e+01	16.0102	47.523143	0.000253	2.534831	0.858824	-0.000101
 604	5.9998e+01	15.9717	47.446438	0.000193	1.926472	0.652706	-0.000077
 605	6.0098e+01	15.9445	47.353584	0.000233	2.332045	0.790118	-0.000093
 606	6.0197e+01	15.8947	47.252655	0.000253	2.534831	0.858824	-0.000101
 607	6.0297e+01	15.8627	47.184024	0.000172	1.723685	0.584000	-0.000069
 608	6.0397e+01	15.8177	47.099244	0.000213	2.129258	0.721412	-0.000085
 609	6.0496e+01	15.7776	47.002353	0.000243	2.433438	0.824471	-0.000097
 610	6.0596e+01	15.7327	46.893350	0.000274	2.737618	0.927530	-0.000110
 611	6.0695e+01	15.6958	46.800496	0.000233	2.332045	0.790118	-0.000093
 612	6.0794e+01	15.6589	46.707642	0.000233	2.332045	0.790118	-0.000093
 613	6.0894e+01	15.6172	46.626899	0.000203	2.027865	0.687059	-0.000081
 614	6.0993e+01	15.5659	46.574416	0.000132	1.318112	0.446589	-0.000053
 615	6.1093e+01	15.5370	46.437154	0.000345	3.447371	1.168001	-0.000138
 616	6.1193e+01	15.5033	46.392745	0.000112	1.115326	0.377883	-0.000045
 617	6.1292e+01	15.4616	46.271631	0.000304	3.041798	1.030589	-0.000122
 618	6.1392e+01	15.4151	46.186851	0.000213	2.129258	0.721412	-0.000085
 619	6.1491e+01	15.3766	46.073812	0.000284	2.839011	0.961883	-0.000114
 620	6.1590e+01	15.3397	45.989032	0.000213	2.129258	0.721412	-0.000085
 621	6.1690e+01	15.2883	45.900215	0.000223	2.230652	0.755765	-0.000089
 622	6.1789e+01	15.2659	45.811398	0.000223	2.230652	0.755765	-0.000089
 623	6.1889e+01	15.2145	45.718544	0.000233	2.332045	0.790118	-0.000093
 624	6.1989e+01	15.1841	45.662024	0.000142	1.419506	0.480942	-0.000057
 625	6.2088e+01	15.1391	45.536873	0.000314	3.143191	1.064942	-0.000126
 626	6.2188e+01	15.0974	45.464204	0.000183	1.825079	0.618353	-0.000073
 627	6.2287e+01	15.0670	45.383461	0.000203	2.027865	0.687059	-0.000081
 628	6.2386e+01	15.0156	45.230050	0.000385	3.852944	1.305413	-0.000154
 629	6.2486e+01	14.9771	45.161419	0.000172	1.723685	0.584000	-0.000069
 630	6.2586e+01	14.9322	45.084713	0.000193	1.926472	0.652706	-0.000077
 631	6.2685e+01	14.8985	44.987822	0.000243	2.433438	0.824471	-0.000097
 632	6.2785e+01	14.8664	44.903042	0.000213	2.129258	0.721412	-0.000085
 633	6.2884e+01	14.8183	44.777891	0.000314	3.143191	1.064942	-0.000126
 634	6.2983e+01	14.7910	44.697148	0.000203	2.027865	0.687059	-0.000081
 635	6.3083e+01	14.7397	44.588146	0.000274	2.737618	0.927530	-0.000110
 636	6.3182e+01	14.6996	44.503366	0.000213	2.129258	0.721412	-0.000085
 637	6.3282e+01	14.6691	44.390326	0.000284	2.839011	0.961883	-0.000114
 638	6.3382e+01	14.6274	44.289398	0.000253	2.534831	0.858824	-0.000101
 639	6.3481e+01	14.5745	44.216729	0.000183	1.825079	0.618353	-0.000073
 640	6.3581e+01	14.5504	44.152135	0.000162	1.622292	0.549647	-0.000065
 641	6.3680e+01	14.4958	44.043132	0.000274	2.737618	0.927530	-0.000110
 642	6.3779e+01	14.4606	43.938167	0.000264	2.636225	0.893177	-0.000105
 643	6.3879e+01	14.4188	43.857424	0.000203	2.027865	0.687059	-0.000081
 644	6.3978e+01	14.3868	43.768607	0.000223	2.230652	0.755765	-0.000089
 645	6.4078e+01	14.3450	43.667679	0.000253	2.534831	0.858824	-0.000101
 646	6.4177e+01	14.3001	43.578862	0.000223	2.230652	0.755765	-0.000089
 647	6.4277e+01	14.2584	43.457748	0.000304	3.041798	1.030589	-0.000122
 648	6.4376e+01	14.2199	43.356819	0.000253	2.534831	0.858824	-0.000101
 649	6.4476e+01	14.1798	43.300299	0.000142	1.419506	0.480942	-0.000057
 650	6.4576e+01	14.1301	43.191297	0.000274	2.737618	0.927530	-0.000110
 651	6.4675e+01	14.1012	43.130740	0.000152	1.520899	0.515294	-0.000061
 652	6.4775e+01	14.0579	43.005588	0.000314	3.143191	1.064942	-0.000126
 653	6.4874e+01	14.0242	42.940994	0.000162	1.622292	0.549647	-0.000065
 654	6.4974e+01	13.9873	42.836029	0.000264	2.636225	0.893177	-0.000105
 655	6.5073e+01	13.9440	42.731063	0.000264	2.636225	0.893177	-0.000105
 656	6.5172e+01	13.9055	42.686655	0.000112	1.115326	0.377883	-0.000045
 657	6.5272e+01	13.8574	42.525169	0.000406	4.055730	1.374119	-0.000162
 658	6.5371e+01	13.8237	42.416167	0.000274	2.737618	0.927530	-0.000110
 659	6.5471e+01	13.7852	42.367721	0.000122	1.216719	0.412236	-0.000049
 660	6.5570e+01	13.7499	42.278904	0.000223	2.230652	0.755765	-0.000089
 661	6.5670e+01	13.6969	42.133567	0.000365	3.650157	1.236707	-0.000146
 662	6.5769e+01	13.6520	42.064936	0.000172	1.723685	0.584000	-0.000069
 663	6.5869e+01	13.6183	41.968045	0.000243	2.433438	0.824471	-0.000097
 664	6.5969e+01	13.5846	41.834819	0.000335	3.345977	1.133648	-0.000134
 665	6.6068e+01	13.5477	41.697556	0.000345	3.447371	1.168001	-0.000138
 666	6.6168e+01	13.5028	41.657185	0.000101	1.013933	0.343530	-0.000041
 667	6.6267e+01	13.4643	41.544145	0.000284	2.839011	0.961883	-0.000114
 668	6.6367e+01	13.4274	41.459365	0.000213	2.129258	0.721412	-0.000085
 669	6.6466e+01	13.3873	41.354400	0.000264	2.636225	0.893177	-0.000105
 670	6.6566e+01	13.3408	41.245397	0.000274	2.737618	0.927530	-0.000110
 671	6.6665e+01	13.2943	41.116209	0.000324	3.244584	1.099295	-0.000130
 672	6.6764e+01	13.2590	41.043540	0.000183	1.825079	0.618353	-0.000073
 673	6.6864e+01	13.2317	40.906278	0.000345	3.447371	1.168001	-0.000138
 674	6.6963e+01	13.1868	40.845721	0.000152	1.520899	0.515294	-0.000061
 675	6.7063e+01	13.1403	40.744792	0.000253	2.534831	0.858824	-0.000101
 676	6.7162e+01	13.1018	40.591381	0.000385	3.852944	1.305413	-0.000154
 677	6.7262e+01	13.0665	40.546973	0.000112	1.115326	0.377883	-0.000045
 678	6.7362e+01	13.0312	40.429896	0.000294	2.940404	0.996236	-0.000118
 679	6.7461e+01	12.9782	40.341079	0.000223	2.230652	0.755765	-0.000089
 680	6.7561e+01	12.9413	40.224002	0.000294	2.940404	0.996236	-0.000118
 681	6.7660e+01	12.9125	40.135185	0.000223	2.230652	0.755765	-0.000089
 682	6.7760e+01	12.8692	40.034257	0.000253	2.534831	0.858824	-0.000101
 683	6.7859e+01	12.8339	39.909105	0.000314	3.143191	1.064942	-0.000126
 684	6.7959e+01	12.7841	39.804140	0.000264	2.636225	0.893177	-0.000105
 685	6.8058e+01	12.7537	39.691100	0.000284	2.839011	0.961883	-0.000114
 686	6.8157e+01	12.7071	39.537689	0.000385	3.852944	1.305413	-0.000154
 687	6.8257e+01	12.6638	39.497317	0.000101	1.013933	0.343530	-0.000041
 688	6.8356e+01	12.6253	39.384278	0.000284	2.839011	0.961883	-0.000114
 689	6.8456e+01	12.5836	39.307572	0.000193	1.926472	0.652706	-0.000077
 690	6.8555e+01	12.5547	39.158198	0.000375	3.751550	1.271060	-0.000150
 691	6.8655e+01	12.5146	39.049195	0.000274	2.737618	0.927530	-0.000110
 692	6.8754e+01	12.4633	38.968453	0.000203	2.027865	0.687059	-0.000081
 693	6.8854e+01	12.4264	38.819079	0.000375	3.751550	1.271060	-0.000150
 694	6.8954e+01	12.3959	38.758522	0.000152	1.520899	0.515294	-0.000061
 695	6.9053e+01	12.3430	38.637408	0.000304	3.041798	1.030589	-0.000122
 696	6.9153e+01	12.3061	38.508219	0.000324	3.244584	1.099295	-0.000130
 697	6.9252e+01	12.2676	38.415365	0.000233	2.332045	0.790118	-0.000093
 698	6.9352e+01	12.2275	38.330585	0.000213	2.129258	0.721412	-0.000085
 699	6.9451e+01	12.1906	38.193323	0.000345	3.447371	1.168001	-0.000138
 700	6.9550e+01	12.1505	38.080283	0.000284	2.839011	0.961883	-0.000114
 701	6.9650e+01	12.1120	37.967243	0.000284	2.839011	0.961883	-0.000114
 702	6.9749e+01	12.0702	37.858240	0.000274	2.737618	0.927530	-0.000110
 703	6.9849e+01	12.0334	37.773461	0.000213	2.129258	0.721412	-0.000085
 704	6.9948e+01	11.9868	37.632161	0.000355	3.548764	1.202354	-0.000142
 705	7.0048e+01	11.9515	37.523158	0.000274	2.737618	0.927530	-0.000110
 706	7.0147e+01	11.9066	37.389933	0.000335	3.345977	1.133648	-0.000134
 707	7.0247e+01	11.8745	37.289004	0.000253	2.534831	0.858824	-0.000101
 708	7.0347e+01	11.8328	37.171927	0.000294	2.940404	0.996236	-0.000118
 709	7.0446e+01	11.7895	37.075036	0.000243	2.433438	0.824471	-0.000097
 710	7.0546e+01	11.7446	36.986219	0.000223	2.230652	0.755765	-0.000089
 711	7.0645e+01	11.7173	36.828771	0.000395	3.954337	1.339766	-0.000158
 712	7.0745e+01	11.6756	36.735917	0.000233	2.332045	0.790118	-0.000093
 713	7.0844e+01	11.6307	36.647100	0.000223	2.230652	0.755765	-0.000089
 714	7.0944e+01	11.5954	36.521948	0.000314	3.143191	1.064942	-0.000126
 715	7.1043e+01	11.5553	36.416983	0.000264	2.636225	0.893177	-0.000105
 716	7.1142e+01	11.5120	36.299906	0.000294	2.940404	0.996236	-0.000118
 717	7.1242e+01	11.4638	36.207052	0.000233	2.332045	0.790118	-0.000093
 718	7.1341e+01	11.4398	36.057678	0.000375	3.751550	1.271060	-0.000150
 719	7.1441e+01	11.3852	35.928490	0.000324	3.244584	1.099295	-0.000130
 720	7.1540e+01	11.3532	35.839673	0.000223	2.230652	0.755765	-0.000089
 721	7.1640e+01	11.3195	35.750856	0.000223	2.230652	0.755765	-0.000089
 722	7.1740e+01	11.2633	35.625704	0.000314	3.143191	1.064942	-0.000126
 723	7.1839e+01	11.2280	35.484405	0.000355	3.548764	1.202354	-0.000142
 724	7.1939e+01	11.1895	35.411736	0.000183	1.825079	0.618353	-0.000073
 725	7.2038e+01	11.1526	35.262362	0.000375	3.751550	1.271060	-0.000150
 726	7.2138e+01	11.1125	35.137211	0.000314	3.143191	1.064942	-0.000126
 727	7.2237e+01	11.0772	35.008023	0.000324	3.244584	1.099295	-0.000130
 728	7.2337e+01	11.0371	34.907094	0.000253	2.534831	0.858824	-0.000101
 729	7.2436e+01	11.0082	34.798091	0.000274	2.737618	0.927530	-0.000110
 730	7.2535e+01	10.9537	34.636606	0.000406	4.055730	1.374119	-0.000162
 731	7.2635e+01	10.9200	34.559900	0.000193	1.926472	0.652706	-0.000077
 732	7.2734e+01	10.8847	34.450898	0.000274	2.737618	0.927530	-0.000110
 733	7.2834e+01	10.8446	34.265190	0.000466	4.664090	1.580236	-0.000187
 734	7.2933e+01	10.7933	34.184447	0.000203	2.027865	0.687059	-0.000081
 735	7.3033e+01	10.7596	34.067370	0.000294	2.940404	0.996236	-0.000118
 736	7.3132e+01	10.7243	33.942219	0.000314	3.143191	1.064942	-0.000126
 737	7.3232e+01	10.6746	33.845327	0.000243	2.433438	0.824471	-0.000097
 738	7.3332e+01	10.6377	33.736325	0.000274	2.737618	0.927530	-0.000110
 739	7.3431e+01	10.6056	33.603099	0.000335	3.345977	1.133648	-0.000134
 740	7.3531e+01	10.5607	33.461800	0.000355	3.548764	1.202354	-0.000142
 741	7.3630e+01	10.5270	33.360871	0.000253	2.534831	0.858824	-0.000101
 742	7.3730e+01	10.4756	33.259943	0.000253	2.534831	0.858824	-0.000101
 743	7.3829e+01	10.4275	33.114606	0.000365	3.650157	1.236707	-0.000146
 744	7.3928e+01	10.4002	32.969269	0.000365	3.650157	1.236707	-0.000146
 745	7.4028e+01	10.3617	32.892563	0.000193	1.926472	0.652706	-0.000077
 746	7.4127e+01	10.3200	32.775486	0.000294	2.940404	0.996236	-0.000118
 747	7.4227e+01	10.2767	32.658410	0.000294	2.940404	0.996236	-0.000118
 748	7.4326e+01	10.2334	32.504998	0.000385	3.852944	1.305413	-0.000154
 749	7.4426e+01	10.1949	32.400033	0.000264	2.636225	0.893177	-0.000105
 750	7.4525e+01	10.1452	32.270845	0.000324	3.244584	1.099295	-0.000130
 751	7.4625e+01	10.1163	32.161842	0.000274	2.737618	0.927530	-0.000110
 752	7.4725e+01	10.0858	32.012468	0.000375	3.751550	1.271060	-0.000150
 753	7.4824e+01	10.0361	31.931725	0.000203	2.027865	0.687059	-0.000081
 754	7.4924e+01	9.9928	31.818685	0.000284	2.839011	0.961883	-0.000114
 755	7.5023e+01	9.9639	31.709683	0.000274	2.737618	0.927530	-0.000110
 756	7.5123e+01	9.9190	31.580494	0.000324	3.244584	1.099295	-0.000130
 757	7.5222e+01	9.8789	31.447269	0.000335	3.345977	1.133648	-0.000134
 758	7.5322e+01	9.8436	31.322118	0.000314	3.143191	1.064942	-0.000126
 759	7.5421e+01	9.8003	31.261561	0.000152	1.520899	0.515294	-0.000061
 760	7.5520e+01	9.7666	31.096038	0.000416	4.157123	1.408472	-0.000166
 761	7.5620e+01	9.7136	31.007221	0.000223	2.230652	0.755765	-0.000089
 762	7.5719e+01	9.6831	30.882070	0.000314	3.143191	1.064942	-0.000126
 763	7.5819e+01	9.6446	30.773067	0.000274	2.737618	0.927530	-0.000110
 764	7.5918e+01	9.6078	30.643879	0.000324	3.244584	1.099295	-0.000130
 765	7.6018e+01	9.5548	30.546988	0.000243	2.433438	0.824471	-0.000097
 766	7.6118e+01	9.5163	30.405688	0.000355	3.548764	1.202354	-0.000142
 767	7.6217e+01	9.4858	30.333019	0.000183	1.825079	0.618353	-0.000073
 768	7.6317e+01	9.4425	30.159423	0.000436	4.359910	1.477177	-0.000174
 769	7.6416e+01	9.3976	30.074643	0.000213	2.129258	0.721412	-0.000085
 770	7.6516e+01	9.3543	29.937380	0.000345	3.447371	1.168001	-0.000138
 771	7.6615e+01	9.3190	29.864712	0.000183	1.825079	0.618353	-0.000073
 772	7.6715e+01	9.2869	29.711300	0.000385	3.852944	1.305413	-0.000154
 773	7.6814e+01	9.2404	29.626521	0.000213	2.129258	0.721412	-0.000085
 774	7.6913e+01	9.2003	29.485221	0.000355	3.548764	1.202354	-0.000142
 775	7.7013e+01	9.1618	29.392367	0.000233	2.332045	0.790118	-0.000093
 776	7.7112e+01	9.1265	29.283364	0.000274	2.737618	0.927530	-0.000110
 777	7.7212e+01	9.0784	29.113804	0.000426	4.258517	1.442825	-0.000170
 778	7.7311e+01	9.0511	29.012876	0.000253	2.534831	0.858824	-0.000101
 779	7.7411e+01	9.0014	28.887725	0.000314	3.143191	1.064942	-0.000126
 780	7.7510e+01	8.9612	28.778722	0.000274	2.737618	0.927530	-0.000110
 781	7.7610e+01	8.9179	28.633385	0.000365	3.650157	1.236707	-0.000146
 782	7.7710e+01	8.8907	28.540531	0.000233	2.332045	0.790118	-0.000093
 783	7.7809e+01	8.8377	28.431528	0.000274	2.737618	0.927530	-0.000110
 784	7.7909e+01	8.8008	28.278117	0.000385	3.852944	1.305413	-0.000154
 785	7.8008e+01	8.7607	28.165077	0.000284	2.839011	0.961883	-0.000114
 786	7.8108e+01	8.7238	28.100483	0.000162	1.622292	0.549647	-0.000065
 787	7.8207e+01	8.6725	27.959184	0.000355	3.548764	1.202354	-0.000142
 788	7.8306e+01	8.6500	27.834032	0.000314	3.143191	1.064942	-0.000126
 789	7.8406e+01	8.6051	27.712918	0.000304	3.041798	1.030589	-0.000122
 790	7.8505e+01	8.5602	27.571619	0.000355	3.548764	1.202354	-0.000142
 791	7.8605e+01	8.5233	27.494913	0.000193	1.926472	0.652706	-0.000077
 792	7.8704e+01	8.4816	27.333428	0.000406	4.055730	1.374119	-0.000162
 793	7.8804e+01	8.4415	27.240573	0.000233	2.332045	0.790118	-0.000093
 794	7.8903e+01	8.4126	27.091199	0.000375	3.751550	1.271060	-0.000150
 795	7.9003e+01	8.3581	27.034679	0.000142	1.419506	0.480942	-0.000057
 796	7.9103e+01	8.3179	26.869157	0.000416	4.157123	1.408472	-0.000166
 797	7.9202e+01	8.2891	26.707671	0.000406	4.055730	1.374119	-0.000162
 798	7.9302e+01	8.2393	26.655189	0.000132	1.318112	0.446589	-0.000053
 799	7.9401e+01	8.2137	26.542149	0.000284	2.839011	0.961883	-0.000114
 800	7.9501e+01	8.1607	26.380663	0.000406	4.055730	1.374119	-0.000162
 801	7.9600e+01	8.1222	26.283772	0.000243	2.433438	0.824471	-0.000097
 802	7.9700e+01	8.0837	26.174770	0.000274	2.737618	0.927530	-0.000110
 803	7.9799e+01	8.0581	26.029433	0.000365	3.650157	1.236707	-0.000146
 804	7.9898e+01	8.0083	25.900244	0.000324	3.244584	1.099295	-0.000130
 805	7.9998e+01	7.9650	25.831613	0.000172	1.723685	0.584000	-0.000069
 806	8.0097e+01	7.9265	25.690313	0.000355	3.548764	1.202354	-0.000142
 807	8.0197e+01	7.8816	25.589385	0.000253	2.534831	0.858824	-0.000101
 808	8.0296e+01	7.8463	25.468271	0.000304	3.041798	1.030589	-0.000122
 809	8.0396e+01	7.8126	25.294674	0.000436	4.359910	1.477177	-0.000174
 810	8.0496e+01	7.7533	25.205857	0.000223	2.230652	0.755765	-0.000089
 811	8.0595e+01	7.7196	25.108966	0.000243	2.433438	0.824471	-0.000097
 812	8.0695e+01	7.6875	25.012074	0.000243	2.433438	0.824471	-0.000097
 813	8.0794e+01	7.6554	24.854626	0.000395	3.954337	1.339766	-0.000158
 814	8.0894e+01	7.6041	24.761772	0.000233	2.332045	0.790118	-0.000093
 815	8.0993e+01	7.5672	24.632584	0.000324	3.244584	1.099295	-0.000130
 816	8.1093e+01	7.5255	24.519544	0.000284	2.839011	0.961883	-0.000114
 817	8.1192e+01	7.4918	24.394393	0.000314	3.143191	1.064942	-0.000126
 818	8.1291e+01	7.4452	24.289427	0.000264	2.636225	0.893177	-0.000105
 819	8.1391e+01	7.4035	24.152165	0.000345	3.447371	1.168001	-0.000138
 820	8.1490e+01	7.3618	24.059310	0.000233	2.332045	0.790118	-0.000093
 821	8.1590e+01	7.3329	23.966456	0.000233	2.332045	0.790118	-0.000093
 822	8.1689e+01	7.2800	23.780748	0.000466	4.664090	1.580236	-0.000187
 823	8.1789e+01	7.2511	23.720191	0.000152	1.520899	0.515294	-0.000061
 824	8.1888e+01	7.2046	23.582928	0.000345	3.447371	1.168001	-0.000138
 825	8.1988e+01	7.1677	23.502186	0.000203	2.027865	0.687059	-0.000081
 826	8.2088e+01	7.1324	23.356849	0.000365	3.650157	1.236707	-0.000146
 827	8.2187e+01	7.0875	23.251883	0.000264	2.636225	0.893177	-0.000105
 828	8.2287e+01	7.0538	23.138843	0.000284	2.839011	0.961883	-0.000114
 829	8.2386e+01	7.0153	22.941024	0.000497	4.968270	1.683295	-0.000199
 830	8.2486e+01	6.9688	22.904690	0.000091	0.912539	0.309177	-0.000037
 831	8.2585e+01	6.9239	22.799724	0.000264	2.636225	0.893177	-0.000105
 832	8.2684e+01	6.8870	22.646313	0.000385	3.852944	1.305413	-0.000154
 833	8.2784e+01	6.8517	22.529236	0.000294	2.940404	0.996236	-0.000118
 834	8.2883e+01	6.8148	22.367751	0.000406	4.055730	1.374119	-0.000162
 835	8.2983e+01	6.7763	22.295082	0.000183	1.825079	0.618353	-0.000073
 836	8.3082e+01	6.7362	22.169931	0.000314	3.143191	1.064942	-0.000126
 837	8.3182e+01	6.6864	21.988260	0.000456	4.562696	1.545883	-0.000183
 838	8.3281e+01	6.6544	21.879257	0.000274	2.737618	0.927530	-0.000110
 839	8.3381e+01	6.6143	21.802552	0.000193	1.926472	0.652706	-0.000077
 840	8.3481e+01	6.5677	21.653178	0.000375	3.751550	1.271060	-0.000150
 841	8.3580e+01	6.5244	21.511878	0.000355	3.548764	1.202354	-0.000142
 842	8.3680e+01	6.4987	21.398838	0.000284	2.839011	0.961883	-0.000114
 843	8.3779e+01	6.4474	21.281761	0.000294	2.940404	0.996236	-0.000118
 844	8.3879e+01	6.4169	21.160647	0.000304	3.041798	1.030589	-0.000122
 845	8.3978e+01	6.3752	21.047607	0.000284	2.839011	0.961883	-0.000114
 846	8.4078e+01	6.3303	20.890159	0.000395	3.954337	1.339766	-0.000158
 847	8.4177e+01	6.2950	20.785193	0.000264	2.636225	0.893177	-0.000105
 848	8.4276e+01	6.2613	20.651968	0.000335	3.345977	1.133648	-0.000134
 849	8.4376e+01	6.2164	20.514705	0.000345	3.447371	1.168001	-0.000138
 850	8.4475e+01	6.1779	20.425888	0.000223	2.230652	0.755765	-0.000089
 851	8.4575e+01	6.1362	20.252291	0.000436	4.359910	1.477177	-0.000174
 852	8.4674e+01	6.0881	20.175586	0.000193	1.926472	0.652706	-0.000077
 853	8.4774e+01	6.0512	20.046398	0.000324	3.244584	1.099295	-0.000130
 854	8.4874e+01	6.0175	19.888949	0.000395	3.954337	1.339766	-0.000158
 855	8.4973e+01	5.9742	19.775909	0.000284	2.839011	0.961883	-0.000114
 856	8.5073e+01	5.9421	19.670944	0.000264	2.636225	0.893177	-0.000105
 857	8.5172e+01	5.9004	19.561941	0.000274	2.737618	0.927530	-0.000110
 858	8.5272e+01	5.8442	19.388344	0.000436	4.359910	1.477177	-0.000174
 859	8.5371e+01	5.8105	19.263193	0.000314	3.143191	1.064942	-0.000126
 860	8.5471e+01	5.7801	19.190525	0.000183	1.825079	0.618353	-0.000073
 861	8.5570e+01	5.7303	19.025002	0.000416	4.157123	1.408472	-0.000166
 862	8.5669e+01	5.6950	18.899851	0.000314	3.143191	1.064942	-0.000126
 863	8.5769e+01	5.6629	18.815071	0.000213	2.129258	0.721412	-0.000085
 864	8.5868e+01	5.6148	18.649549	0.000416	4.157123	1.408472	-0.000166
 865	8.5968e+01	5.5763	18.532472	0.000294	2.940404	0.996236	-0.000118
 866	8.6067e+01	5.5442	18.399246	0.000335	3.345977	1.133648	-0.000134
 867	8.6167e+01	5.4961	18.270058	0.000324	3.244584	1.099295	-0.000130
 868	8.6266e+01	5.4656	18.108572	0.000406	4.055730	1.374119	-0.000162
 869	8.6366e+01	5.4223	18.043978	0.000162	1.622292	0.549647	-0.000065
 870	8.6466e+01	5.3790	17.898641	0.000365	3.650157	1.236707	-0.000146
 871	8.6565e+01	5.3437	17.773490	0.000314	3.143191	1.064942	-0.000126
 872	8.6665e+01	5.2956	17.620079	0.000385	3.852944	1.305413	-0.000154
 873	8.6764e+01	5.2555	17.511076	0.000274	2.737618	0.927530	-0.000110
 874	8.6864e+01	5.2250	17.414185	0.000243	2.433438	0.824471	-0.000097
 875	8.6963e+01	5.1753	17.252700	0.000406	4.055730	1.374119	-0.000162
 876	8.7063e+01	5.1416	17.131586	0.000304	3.041798	1.030589	-0.000122
 877	8.7162e+01	5.0950	16.990286	0.000355	3.548764	1.202354	-0.000142
 878	8.7261e+01	5.0614	16.848986	0.000355	3.548764	1.202354	-0.000142
 879	8.7361e+01	5.0164	16.691538	0.000395	3.954337	1.339766	-0.000158
 880	8.7460e+01	4.9731	16.606758	0.000213	2.129258	0.721412	-0.000085
 881	8.7560e+01	4.9346	16.485644	0.000304	3.041798	1.030589	-0.000122
 882	8.7659e+01	4.9025	16.336270	0.000375	3.751550	1.271060	-0.000150
 883	8.7759e+01	4.8592	16.194970	0.000355	3.548764	1.202354	-0.000142
 884	8.7859e+01	4.8159	16.085967	0.000274	2.737618	0.927530	-0.000110
 885	8.7958e+01	4.7742	15.956779	0.000324	3.244584	1.099295	-0.000130
 886	8.8058e+01	4.7405	15.799331	0.000395	3.954337	1.339766	-0.000158
 887	8.8157e+01	4.6988	15.722625	0.000193	1.926472	0.652706	-0.000077
 888	8.8257e+01	4.6619	15.585363	0.000345	3.447371	1.168001	-0.000138
 889	8.8356e+01	4.6202	15.460211	0.000314	3.143191	1.064942	-0.000126
 890	8.8456e+01	4.5881	15.306800	0.000385	3.852944	1.305413	-0.000154
 891	8.8555e+01	4.5448	15.189723	0.000294	2.940404	0.996236	-0.000118
 892	8.8654e+01	4.5047	15.036312	0.000385	3.852944	1.305413	-0.000154
 893	8.8754e+01	4.4646	14.919235	0.000294	2.940404	0.996236	-0.000118
 894	8.8853e+01	4.4261	14.769861	0.000375	3.751550	1.271060	-0.000150
 895	8.8953e+01	4.3908	14.697193	0.000183	1.825079	0.618353	-0.000073
 896	8.9052e+01	4.3523	14.535707	0.000406	4.055730	1.374119	-0.000162
 897	8.9152e+01	4.3009	14.390370	0.000365	3.650157	1.236707	-0.000146
 898	8.9251e+01	4.2657	14.273293	0.000294	2.940404	0.996236	-0.000118
 899	8.9351e+01	4.2191	14.103734	0.000426	4.258517	1.442825	-0.000170
 900	8.9451e+01	4.1854	14.014917	0.000223	2.230652	0.755765	-0.000089
 901	8.9550e+01	4.1421	13.865543	0.000375	3.751550	1.271060	-0.000150
 902	8.9650e+01	4.1052	13.716169	0.000375	3.751550	1.271060	-0.000150
 903	8.9749e+01	4.0667	13.570832	0.000365	3.650157	1.236707	-0.000146
 904	8.9849e+01	4.0266	13.465866	0.000264	2.636225	0.893177	-0.000105
 905	8.9948e+01	3.9801	13.324567	0.000355	3.548764	1.202354	-0.000142
 906	9.0047e+01	3.9368	13.215564	0.000274	2.737618	0.927530	-0.000110
 907	9.0147e+01	3.9127	13.070227	0.000365	3.650157	1.236707	-0.000146
 908	9.0246e+01	3.8518	12.949113	0.000304	3.041798	1.030589	-0.000122
 909	9.0346e+01	3.8197	12.791665	0.000395	3.954337	1.339766	-0.000158
 910	9.0445e+01	3.7860	12.690736	0.000253	2.534831	0.858824	-0.000101
 911	9.0545e+01	3.7459	12.561548	0.000324	3.244584	1.099295	-0.000130
 912	9.0644e+01	3.7090	12.355654	0.000517	5.171056	1.752001	-0.000207
 913	9.0744e+01	3.6673	12.266837	0.000223	2.230652	0.755765	-0.000089
 914	9.0844e+01	3.6175	12.137649	0.000324	3.244584	1.099295	-0.000130
 915	9.0943e+01	3.5839	12.056906	0.000203	2.027865	0.687059	-0.000081
 916	9.1043e+01	3.5438	11.899458	0.000395	3.954337	1.339766	-0.000158
 917	9.1142e+01	3.5036	11.750084	0.000375	3.751550	1.271060	-0.000150
 918	9.1242e+01	3.4667	11.633007	0.000294	2.940404	0.996236	-0.000118
 919	9.1341e+01	3.4202	11.487670	0.000365	3.650157	1.236707	-0.000146
 920	9.1441e+01	3.3849	11.390778	0.000243	2.433438	0.824471	-0.000097
 921	9.1540e+01	3.3464	11.269664	0.000304	3.041798	1.030589	-0.000122
 922	9.1639e+01	3.2999	11.112216	0.000395	3.954337	1.339766	-0.000158
 923	9.1739e+01	3.2678	11.019362	0.000233	2.332045	0.790118	-0.000093
 924	9.1838e+01	3.2325	10.894211	0.000314	3.143191	1.064942	-0.000126
 925	9.1938e+01	3.1972	10.752911	0.000355	3.548764	1.202354	-0.000142
 926	9.2037e+01	3.1459	10.615648	0.000345	3.447371	1.168001	-0.000138
 927	9.2137e+01	3.1090	10.478386	0.000345	3.447371	1.168001	-0.000138
 928	9.2237e+01	3.0769	10.349197	0.000324	3.244584	1.099295	-0.000130
 929	9.2336e+01	3.0208	10.232121	0.000294	2.940404	0.996236	-0.000118
 930	9.2436e+01	2.9887	10.098895	0.000335	3.345977	1.133648	-0.000134
 931	9.2535e+01	2.9390	9.977781	0.000304	3.041798	1.030589	-0.000122
 932	9.2635e+01	2.9101	9.848593	0.000324	3.244584	1.099295	-0.000130
 933	9.2734e+01	2.8571	9.703256	0.000365	3.650157	1.236707	-0.000146
 934	9.2834e+01	2.8395	9.586179	0.000294	2.940404	0.996236	-0.000118
 935	9.2933e+01	2.7866	9.448916	0.000345	3.447371	1.168001	-0.000138
 936	9.3032e+01	2.7481	9.315691	0.000335	3.345977	1.133648	-0.000134
 937	9.3132e+01	2.7031	9.194577	0.000304	3.041798	1.030589	-0.000122
 938	9.3231e+01	2.6630	9.097685	0.000243	2.433438	0.824471	-0.000097
 939	9.3331e+01	2.6197	8.936200	0.000406	4.055730	1.374119	-0.000162
 940	9.3430e+01	2.5940	8.823160	0.000284	2.839011	0.961883	-0.000114
 941	9.3530e+01	2.5523	8.657638	0.000416	4.157123	1.408472	-0.000166
 942	9.3629e+01	2.5122	8.552672	0.000264	2.636225	0.893177	-0.000105
 943	9.3729e+01	2.4657	8.451744	0.000253	2.534831	0.858824	-0.000101
 944	9.3829e+01	2.4272	8.322555	0.000324	3.244584	1.099295	-0.000130
 945	9.3928e+01	2.3855	8.177218	0.000365	3.650157	1.236707	-0.000146
 946	9.4028e+01	2.3518	8.064179	0.000284	2.839011	0.961883	-0.000114
 947	9.4127e+01	2.3069	7.939027	0.000314	3.143191	1.064942	-0.000126
 948	9.4227e+01	2.2668	7.793691	0.000365	3.650157	1.236707	-0.000146
 949	9.4326e+01	2.2251	7.708911	0.000213	2.129258	0.721412	-0.000085
 950	9.4425e+01	2.1898	7.595871	0.000284	2.839011	0.961883	-0.000114
 951	9.4525e+01	2.1481	7.422274	0.000436	4.359910	1.477177	-0.000174
 952	9.4624e+01	2.1128	7.289049	0.000335	3.345977	1.133648	-0.000134
 953	9.4724e+01	2.0695	7.184083	0.000264	2.636225	0.893177	-0.000105
 954	9.4823e+01	2.0133	7.050858	0.000335	3.345977	1.133648	-0.000134
 955	9.4923e+01	1.9957	6.958003	0.000233	2.332045	0.790118	-0.000093
 956	9.5022e+01	1.9556	6.772295	0.000466	4.664090	1.580236	-0.000187
 957	9.5122e+01	1.9122	6.687515	0.000213	2.129258	0.721412	-0.000085
 958	9.5222e+01	1.8753	6.566401	0.000304	3.041798	1.030589	-0.000122
 959	9.5321e+01	1.8320	6.417027	0.000375	3.751550	1.271060	-0.000150
 960	9.5421e+01	1.7903	6.295913	0.000304	3.041798	1.030589	-0.000122
 961	9.5520e+01	1.7566	6.158651	0.000345	3.447371	1.168001	-0.000138
 962	9.5620e+01	1.7101	6.033499	0.000314	3.143191	1.064942	-0.000126
 963	9.5719e+01	1.6700	5.916422	0.000294	2.940404	0.996236	-0.000118
 964	9.5819e+01	1.6283	5.775123	0.000355	3.548764	1.202354	-0.000142
 965	9.5918e+01	1.5882	5.670157	0.000264	2.636225	0.893177	-0.000105
 966	9.6017e+01	1.5465	5.585377	0.000213	2.129258	0.721412	-0.000085
 967	9.6117e+01	1.5112	5.431966	0.000385	3.852944	1.305413	-0.000154
 968	9.6216e+01	1.4695	5.278555	0.000385	3.852944	1.305413	-0.000154
 969	9.6316e+01	1.4374	5.157441	0.000304	3.041798	1.030589	-0.000122
 970	9.6415e+01	1.3973	5.032290	0.000314	3.143191	1.064942	-0.000126
 971	9.6515e+01	1.3379	4.903101	0.000324	3.244584	1.099295	-0.000130
 972	9.6615e+01	1.3187	4.802173	0.000253	2.534831	0.858824	-0.000101
 973	9.6714e+01	1.2786	4.664910	0.000345	3.447371	1.168001	-0.000138
 974	9.6814e+01	1.2304	4.531685	0.000335	3.345977	1.133648	-0.000134
 975	9.6913e+01	1.1871	4.422682	0.000274	2.737618	0.927530	-0.000110
 976	9.7013e+01	1.1502	4.269271	0.000385	3.852944	1.305413	-0.000154
 977	9.7112e+01	1.1117	4.160268	0.000274	2.737618	0.927530	-0.000110
 978	9.7212e+01	1.0668	4.018969	0.000355	3.548764	1.202354	-0.000142
 979	9.7311e+01	1.0331	3.885743	0.000335	3.345977	1.133648	-0.000134
 980	9.7410e+01	0.9946	3.776740	0.000274	2.737618	0.927530	-0.000110
 981	9.7510e+01	0.9497	3.675812	0.000253	2.534831	0.858824	-0.000101
 982	9.7609e+01	0.9192	3.522401	0.000385	3.852944	1.305413	-0.000154
 983	9.7709e+01	0.8775	3.441658	0.000203	2.027865	0.687059	-0.000081
 984	9.7808e+01	0.8358	3.324581	0.000294	2.940404	0.996236	-0.000118
 985	9.7908e+01	0.8005	3.183282	0.000355	3.548764	1.202354	-0.000142
 986	9.8007e+01	0.7572	3.074279	0.000274	2.737618	0.927530	-0.000110
 987	9.8107e+01	0.7187	2.937016	0.000345	3.447371	1.168001	-0.000138
 988	9.8207e+01	0.6722	2.811865	0.000314	3.143191	1.064942	-0.000126
 989	9.8306e+01	0.6337	2.714974	0.000243	2.433438	0.824471	-0.000097
 990	9.8406e+01	0.6048	2.565600	0.000375	3.751550	1.271060	-0.000150
 991	9.8505e+01	0.5551	2.440449	0.000314	3.143191	1.064942	-0.000126
 992	9.8605e+01	0.5150	2.335483	0.000264	2.636225	0.893177	-0.000105
 993	9.8704e+01	0.4716	2.202258	0.000335	3.345977	1.133648	-0.000134
 994	9.8803e+01	0.4396	2.077106	0.000314	3.143191	1.064942	-0.000126
 995	9.8903e+01	0.3995	1.947918	0.000324	3.244584	1.099295	-0.000130
 996	9.9002e+01	0.3610	1.818730	0.000324	3.244584	1.099295	-0.000130
 997	9.9102e+01	0.3192	1.725876	0.000233	2.332045	0.790118	-0.000093
 998	9.9201e+01	0.2791	1.596687	0.000324	3.244584	1.099295	-0.000130
 999	9.9301e+01	0.2358	1.471536	0.000314	3.143191	1.064942	-0.000126
1000	9.9400e+01	0.1973	1.297939	0.000436	4.359910	1.477177	-0.000174
1001	9.9500e+01	0.1604	1.225271	0.000183	1.825079	0.618353	-0.000073
1002	9.9600e+01	0.1139	1.092045	0.000335	3.345977	1.133648	-0.000134
1003	9.9699e+01	0.0754	0.922486	0.000426	4.258517	1.442825	-0.000170
1004	9.9799e+01	0.0273	0.825594	0.000243	2.433438	0.824471	-0.000097
1005	9.9898e+01	0.0032	0.736777	0.000223	2.230652	0.755765	-0.000089
1006	9.9998e+01	-0.0273	0.583366	0.000385	3.852944	1.305413	-0.000154
1007	1.0010e+02	-0.0674	0.474363	0.000274	2.737618	0.927530	-0.000110
1008	1.0020e+02	-0.1139	0.320952	0.000385	3.852944	1.305413	-0.000154
1009	1.0030e+02	-0.1476	0.215987	0.000264	2.636225	0.893177	-0.000105
1010	1.0040e+02	-0.1957	0.111021	0.000264	2.636225	0.893177	-0.000105
1011	1.0050e+02	-0.2374	-0.046427	0.000395	3.954337	1.339766	-0.000158
1012	1.0059e+02	-0.2759	-0.191764	0.000365	3.650157	1.236707	-0.000146
1013	1.0069e+02	-0.3144	-0.288655	0.000243	2.433438	0.824471	-0.000097
1014	1.0079e+02	-0.3529	-0.421881	0.000335	3.345977	1.133648	-0.000134
1015	1.0089e+02	-0.3882	-0.575292	0.000385	3.852944	1.305413	-0.000154
1016	1.0099e+02	-0.4283	-0.688332	0.000284	2.839011	0.961883	-0.000114
1017	1.0109e+02	-0.4765	-0.813483	0.000314	3.143191	1.064942	-0.000126
1018	1.0119e+02	-0.5214	-0.938634	0.000314	3.143191	1.064942	-0.000126
1019	1.0129e+02	-0.5454	-1.047637	0.000274	2.737618	0.927530	-0.000110
1020	1.0139e+02	-0.5904	-1.221234	0.000436	4.359910	1.477177	-0.000174
1021	1.0149e+02	-0.6385	-1.289865	0.000172	1.723685	0.584000	-0.000069
1022	1.0159e+02	-0.6722	-1.459425	0.000426	4.258517	1.442825	-0.000170
1023	1.0169e+02	-0.7010	-1.564390	0.000264	2.636225	0.893177	-0.000105
1024	1.0179e+02	-0.7540	-1.737987	0.000436	4.359910	1.477177	-0.000174
1025	1.0189e+02	-0.7893	-1.838915	0.000253	2.534831	0.858824	-0.000101
1026	1.0199e+02	-0.8294	-1.972141	0.000335	3.345977	1.133648	-0.000134
1027	1.0209e+02	-0.8663	-2.052884	0.000203	2.027865	0.687059	-0.000081
1028	1.0219e+02	-0.9080	-2.218406	0.000416	4.157123	1.408472	-0.000166
1029	1.0229e+02	-0.9593	-2.331446	0.000284	2.839011	0.961883	-0.000114
1030	1.0239e+02	-1.0010	-2.468709	0.000345	3.447371	1.168001	-0.000138
1031	1.0248e+02	-1.0251	-2.593860	0.000314	3.143191	1.064942	-0.000126
1032	1.0258e+02	-1.0716	-2.678640	0.000213	2.129258	0.721412	-0.000085
1033	1.0268e+02	-1.1101	-2.876459	0.000497	4.968270	1.683295	-0.000199
1034	1.0278e+02	-1.1422	-2.985462	0.000274	2.737618	0.927530	-0.000110
1035	1.0288e+02	-1.2016	-3.150984	0.000416	4.157123	1.408472	-0.000166
1036	1.0298e+02	-1.2256	-3.243839	0.000233	2.332045	0.790118	-0.000093
1037	1.0308e+02	-1.2673	-3.368990	0.000314	3.143191	1.064942	-0.000126
1038	1.0318e+02	-1.3074	-3.510290	0.000355	3.548764	1.202354	-0.000142
1039	1.0328e+02	-1.3620	-3.615255	0.000264	2.636225	0.893177	-0.000105
1040	1.0338e+02	-1.3909	-3.768666	0.000385	3.852944	1.305413	-0.000154
1041	1.0348e+02	-1.4390	-3.877669	0.000274	2.737618	0.927530	-0.000110
1042	1.0358e+02	-1.4615	-3.990709	0.000284	2.839011	0.961883	-0.000114
1043	1.0368e+02	-1.5080	-4.156231	0.000416	4.157123	1.408472	-0.000166
1044	1.0378e+02	-1.5481	-4.277345	0.000304	3.041798	1.030589	-0.000122
1045	1.0388e+02	-1.5802	-4.418645	0.000355	3.548764	1.202354	-0.000142
1046	1.0398e+02	-1.6299	-4.459016	0.000101	1.013933	0.343530	-0.000041
1047	1.0408e+02	-1.6700	-4.636650	0.000446	4.461303	1.511530	-0.000179
1048	1.0418e+02	-1.7085	-4.814284	0.000446	4.461303	1.511530	-0.000179
1049	1.0428e+02	-1.7422	-4.882916	0.000172	1.723685	0.584000	-0.000069
1050	1.0438e+02	-1.7935	-5.016141	0.000335	3.345977	1.133648	-0.000134
1051	1.0447e+02	-1.8272	-5.193775	0.000446	4.461303	1.511530	-0.000179
1052	1.0457e+02	-1.8657	-5.278555	0.000213	2.129258	0.721412	-0.000085
1053	1.0467e+02	-1.9074	-5.399669	0.000304	3.041798	1.030589	-0.000122
1054	1.0477e+02	-1.9507	-5.565192	0.000416	4.157123	1.408472	-0.000166
1055	1.0487e+02	-1.9909	-5.662083	0.000243	2.433438	0.824471	-0.000097
1056	1.0497e+02	-2.0245	-5.763011	0.000253	2.534831	0.858824	-0.000101
1057	1.0507e+02	-2.0679	-5.904311	0.000355	3.548764	1.202354	-0.000142
1058	1.0517e+02	-2.1096	-6.009277	0.000264	2.636225	0.893177	-0.000105
1059	1.0527e+02	-2.1449	-6.170762	0.000406	4.055730	1.374119	-0.000162
1060	1.0537e+02	-2.1785	-6.336285	0.000416	4.157123	1.408472	-0.000166
1061	1.0547e+02	-2.2347	-6.445287	0.000274	2.737618	0.927530	-0.000110
1062	1.0557e+02	-2.2700	-6.594661	0.000375	3.751550	1.271060	-0.000150
1063	1.0567e+02	-2.3069	-6.675404	0.000203	2.027865	0.687059	-0.000081
1064	1.0577e+02	-2.3390	-6.836889	0.000406	4.055730	1.374119	-0.000162
1065	1.0587e+02	-2.3887	-6.925706	0.000223	2.230652	0.755765	-0.000089
1066	1.0597e+02	-2.4272	-7.115452	0.000477	4.765483	1.614589	-0.000191
1067	1.0607e+02	-2.4641	-7.212343	0.000243	2.433438	0.824471	-0.000097
1068	1.0617e+02	-2.5074	-7.349606	0.000345	3.447371	1.168001	-0.000138
1069	1.0627e+02	-2.5411	-7.482831	0.000335	3.345977	1.133648	-0.000134
1070	1.0637e+02	-2.5860	-7.636242	0.000385	3.852944	1.305413	-0.000154
1071	1.0647e+02	-2.6149	-7.684688	0.000122	1.216719	0.412236	-0.000049
1072	1.0656e+02	-2.6662	-7.862322	0.000446	4.461303	1.511530	-0.000179
1073	1.0666e+02	-2.7128	-7.987473	0.000314	3.143191	1.064942	-0.000126
1074	1.0676e+02	-2.7497	-8.124736	0.000345	3.447371	1.168001	-0.000138
1075	1.0686e+02	-2.7833	-8.257961	0.000335	3.345977	1.133648	-0.000134
1076	1.0696e+02	-2.8218	-8.395224	0.000345	3.447371	1.168001	-0.000138
1077	1.0706e+02	-2.8668	-8.516338	0.000304	3.041798	1.030589	-0.000122
1078	1.0716e+02	-2.8972	-8.661675	0.000365	3.650157	1.236707	-0.000146
1079	1.0726e+02	-2.9454	-8.786826	0.000314	3.143191	1.064942	-0.000126
1080	1.0736e+02	-2.9839	-8.895829	0.000274	2.737618	0.927530	-0.000110
1081	1.0746e+02	-3.0176	-9.053277	0.000395	3.954337	1.339766	-0.000158
1082	1.0756e+02	-3.0641	-9.166317	0.000284	2.839011	0.961883	-0.000114
1083	1.0766e+02	-3.1058	-9.267245	0.000253	2.534831	0.858824	-0.000101
1084	1.0776e+02	-3.1459	-9.436805	0.000426	4.258517	1.442825	-0.000170
1085	1.0786e+02	-3.1876	-9.553882	0.000294	2.940404	0.996236	-0.000118
1086	1.0796e+02	-3.2245	-9.666922	0.000284	2.839011	0.961883	-0.000114
1087	1.0806e+02	-3.2598	-9.771887	0.000264	2.636225	0.893177	-0.000105
1088	1.0816e+02	-3.2999	-9.888964	0.000294	2.940404	0.996236	-0.000118
1089	1.0826e+02	-3.3384	-10.014115	0.000314	3.143191	1.064942	-0.000126
1090	1.0836e+02	-3.3817	-10.167526	0.000385	3.852944	1.305413	-0.000154
1091	1.0845e+02	-3.4331	-10.272492	0.000264	2.636225	0.893177	-0.000105
1092	1.0855e+02	-3.4587	-10.405717	0.000335	3.345977	1.133648	-0.000134
1093	1.0865e+02	-3.4972	-10.490497	0.000213	2.129258	0.721412	-0.000085
1094	1.0875e+02	-3.5421	-10.647946	0.000395	3.954337	1.339766	-0.000158
1095	1.0885e+02	-3.5887	-10.765022	0.000294	2.940404	0.996236	-0.000118
1096	1.0895e+02	-3.6143	-10.890174	0.000314	3.143191	1.064942	-0.000126
1097	1.0905e+02	-3.6544	-11.023399	0.000335	3.345977	1.133648	-0.000134
1098	1.0915e+02	-3.6962	-11.156625	0.000335	3.345977	1.133648	-0.000134
1099	1.0925e+02	-3.7330	-11.257553	0.000253	2.534831	0.858824	-0.000101
1100	1.0935e+02	-3.7764	-11.382704	0.000314	3.143191	1.064942	-0.000126
1101	1.0945e+02	-3.8181	-11.524004	0.000355	3.548764	1.202354	-0.000142
1102	1.0955e+02	-3.8678	-11.616858	0.000233	2.332045	0.790118	-0.000093
1103	1.0965e+02	-3.9095	-11.786418	0.000426	4.258517	1.442825	-0.000170
1104	1.0975e+02	-3.9416	-11.911569	0.000314	3.143191	1.064942	-0.000126
1105	1.0985e+02	-3.9833	-12.012497	0.000253	2.534831	0.858824	-0.000101
1106	1.0995e+02	-4.0186	-12.133611	0.000304	3.041798	1.030589	-0.000122
1107	1.1005e+02	-4.0587	-12.262800	0.000324	3.244584	1.099295	-0.000130
1108	1.1015e+02	-4.1020	-12.400062	0.000345	3.447371	1.168001	-0.000138
1109	1.1025e+02	-4.1389	-12.476768	0.000193	1.926472	0.652706	-0.000077
1110	1.1035e+02	-4.1774	-12.618068	0.000355	3.548764	1.202354	-0.000142
1111	1.1044e+02	-4.2159	-12.747256	0.000324	3.244584	1.099295	-0.000130
1112	1.1054e+02	-4.2480	-12.860296	0.000284	2.839011	0.961883	-0.000114
1113	1.1064e+02	-4.3009	-12.957187	0.000243	2.433438	0.824471	-0.000097
1114	1.1074e+02	-4.3378	-13.082338	0.000314	3.143191	1.064942	-0.000126
1115	1.1084e+02	-4.3828	-13.179230	0.000243	2.433438	0.824471	-0.000097
1116	1.1094e+02	-4.4213	-13.336678	0.000395	3.954337	1.339766	-0.000158
1117	1.1104e+02	-4.4501	-13.429532	0.000233	2.332045	0.790118	-0.000093
1118	1.1114e+02	-4.4967	-13.558720	0.000324	3.244584	1.099295	-0.000130
1119	1.1124e+02	-4.5432	-13.663686	0.000264	2.636225	0.893177	-0.000105
1120	1.1134e+02	-4.5785	-13.829208	0.000416	4.157123	1.408472	-0.000166
1121	1.1144e+02	-4.6154	-13.938211	0.000274	2.737618	0.927530	-0.000110
1122	1.1154e+02	-4.6619	-14.022991	0.000213	2.129258	0.721412	-0.000085
1123	1.1164e+02	-4.6988	-14.156216	0.000335	3.345977	1.133648	-0.000134
1124	1.1174e+02	-4.7373	-14.273293	0.000294	2.940404	0.996236	-0.000118
1125	1.1184e+02	-4.7774	-14.382296	0.000274	2.737618	0.927530	-0.000110
1126	1.1194e+02	-4.8143	-14.531670	0.000375	3.751550	1.271060	-0.000150
1127	1.1204e+02	-4.8512	-14.644710	0.000284	2.839011	0.961883	-0.000114
1128	1.1214e+02	-4.9009	-14.761787	0.000294	2.940404	0.996236	-0.000118
1129	1.1224e+02	-4.9394	-14.878864	0.000294	2.940404	0.996236	-0.000118
1130	1.1234e+02	-4.9683	-14.991904	0.000284	2.839011	0.961883	-0.000114
1131	1.1244e+02	-5.0229	-15.133203	0.000355	3.548764	1.202354	-0.000142
1132	1.1253e+02	-5.0614	-15.222020	0.000223	2.230652	0.755765	-0.000089
1133	1.1263e+02	-5.0886	-15.367357	0.000365	3.650157	1.236707	-0.000146
1134	1.1273e+02	-5.1303	-15.504620	0.000345	3.447371	1.168001	-0.000138
1135	1.1283e+02	-5.1801	-15.613622	0.000274	2.737618	0.927530	-0.000110
1136	1.1293e+02	-5.2122	-15.734737	0.000304	3.041798	1.030589	-0.000122
1137	1.1303e+02	-5.2523	-15.807405	0.000183	1.825079	0.618353	-0.000073
1138	1.1313e+02	-5.2859	-15.960816	0.000385	3.852944	1.305413	-0.000154
1139	1.1323e+02	-5.3469	-16.081930	0.000304	3.041798	1.030589	-0.000122
1140	1.1333e+02	-5.3710	-16.203044	0.000304	3.041798	1.030589	-0.000122
1141	1.1343e+02	-5.4127	-16.328195	0.000314	3.143191	1.064942	-0.000126
1142	1.1353e+02	-5.4512	-16.429124	0.000253	2.534831	0.858824	-0.000101
1143	1.1363e+02	-5.5009	-16.554275	0.000314	3.143191	1.064942	-0.000126
1144	1.1373e+02	-5.5330	-16.687501	0.000335	3.345977	1.133648	-0.000134
1145	1.1383e+02	-5.5843	-16.796503	0.000274	2.737618	0.927530	-0.000110
1146	1.1393e+02	-5.6084	-16.877246	0.000203	2.027865	0.687059	-0.000081
1147	1.1403e+02	-5.6485	-16.990286	0.000284	2.839011	0.961883	-0.000114
1148	1.1413e+02	-5.6918	-17.127548	0.000345	3.447371	1.168001	-0.000138
1149	1.1423e+02	-5.7367	-17.196180	0.000172	1.723685	0.584000	-0.000069
1150	1.1433e+02	-5.7688	-17.353628	0.000395	3.954337	1.339766	-0.000158
1151	1.1442e+02	-5.8121	-17.474742	0.000304	3.041798	1.030589	-0.000122
1152	1.1452e+02	-5.8554	-17.527225	0.000132	1.318112	0.446589	-0.000053
1153	1.1462e+02	-5.8779	-17.652376	0.000314	3.143191	1.064942	-0.000126
1154	1.1472e+02	-5.9260	-17.805787	0.000385	3.852944	1.305413	-0.000154
1155	1.1482e+02	-5.9710	-17.906716	0.000253	2.534831	0.858824	-0.000101
1156	1.1492e+02	-6.0207	-17.999570	0.000233	2.332045	0.790118	-0.000093
1157	1.1502e+02	-6.0480	-18.144907	0.000365	3.650157	1.236707	-0.000146
1158	1.1512e+02	-6.0849	-18.181241	0.000091	0.912539	0.309177	-0.000037
1159	1.1522e+02	-6.1201	-18.375023	0.000487	4.866876	1.648942	-0.000195
1160	1.1532e+02	-6.1715	-18.451729	0.000193	1.926472	0.652706	-0.000077
1161	1.1542e+02	-6.2164	-18.613214	0.000406	4.055730	1.374119	-0.000162
1162	1.1552e+02	-6.2645	-18.681846	0.000172	1.723685	0.584000	-0.000069
1163	1.1562e+02	-6.2966	-18.806997	0.000314	3.143191	1.064942	-0.000126
1164	1.1572e+02	-6.3287	-18.948297	0.000355	3.548764	1.202354	-0.000142
1165	1.1582e+02	-6.3656	-19.049225	0.000253	2.534831	0.858824	-0.000101
1166	1.1592e+02	-6.4089	-19.154191	0.000264	2.636225	0.893177	-0.000105
1167	1.1602e+02	-6.4506	-19.263193	0.000274	2.737618	0.927530	-0.000110
1168	1.1612e+02	-6.4987	-19.416604	0.000385	3.852944	1.305413	-0.000154
1169	1.1622e+02	-6.5212	-19.481199	0.000162	1.622292	0.549647	-0.000065
1170	1.1632e+02	-6.5661	-19.622498	0.000355	3.548764	1.202354	-0.000142
1171	1.1642e+02	-6.6062	-19.743612	0.000304	3.041798	1.030589	-0.000122
1172	1.1651e+02	-6.6479	-19.848578	0.000264	2.636225	0.893177	-0.000105
1173	1.1661e+02	-6.6864	-19.973729	0.000314	3.143191	1.064942	-0.000126
1174	1.1671e+02	-6.7282	-20.135214	0.000406	4.055730	1.374119	-0.000162
1175	1.1681e+02	-6.7667	-20.207883	0.000183	1.825079	0.618353	-0.000073
1176	1.1691e+02	-6.8036	-20.296700	0.000223	2.230652	0.755765	-0.000089
1177	1.1701e+02	-6.8549	-20.429925	0.000335	3.345977	1.133648	-0.000134
1178	1.1711e+02	-6.8870	-20.555077	0.000314	3.143191	1.064942	-0.000126
1179	1.1721e+02	-6.9191	-20.664079	0.000274	2.737618	0.927530	-0.000110
1180	1.1731e+02	-6.9608	-20.797305	0.000335	3.345977	1.133648	-0.000134
1181	1.1741e+02	-7.0217	-20.861899	0.000162	1.622292	0.549647	-0.000065
1182	1.1751e+02	-7.0394	-21.027421	0.000416	4.157123	1.408472	-0.000166
1183	1.1761e+02	-7.0779	-21.144498	0.000294	2.940404	0.996236	-0.000118
1184	1.1771e+02	-7.1276	-21.249464	0.000264	2.636225	0.893177	-0.000105
1185	1.1781e+02	-7.1613	-21.370578	0.000304	3.041798	1.030589	-0.000122
1186	1.1791e+02	-7.2030	-21.495729	0.000314	3.143191	1.064942	-0.000126
1187	1.1801e+02	-7.2511	-21.592620	0.000243	2.433438	0.824471	-0.000097
1188	1.1811e+02	-7.2832	-21.741995	0.000375	3.751550	1.271060	-0.000150
1189	1.1821e+02	-7.3265	-21.822737	0.000203	2.027865	0.687059	-0.000081
1190	1.1831e+02	-7.3698	-21.972111	0.000375	3.751550	1.271060	-0.000150
1191	1.1841e+02	-7.4100	-22.048817	0.000193	1.926472	0.652706	-0.000077
1192	1.1850e+02	-7.4452	-22.173968	0.000314	3.143191	1.064942	-0.000126
1193	1.1860e+02	-7.4854	-22.291045	0.000294	2.940404	0.996236	-0.000118
1194	1.1870e+02	-7.5271	-22.420233	0.000324	3.244584	1.099295	-0.000130
1195	1.1880e+02	-7.5591	-22.541347	0.000304	3.041798	1.030589	-0.000122
1196	1.1890e+02	-7.5976	-22.646313	0.000264	2.636225	0.893177	-0.000105
1197	1.1900e+02	-7.6474	-22.791650	0.000365	3.650157	1.236707	-0.000146
1198	1.1910e+02	-7.6875	-22.896615	0.000264	2.636225	0.893177	-0.000105
1199	1.1920e+02	-7.7115	-22.969284	0.000183	1.825079	0.618353	-0.000073
1200	1.1930e+02	-7.7597	-23.098472	0.000324	3.244584	1.099295	-0.000130
1201	1.1940e+02	-7.7998	-23.259958	0.000406	4.055730	1.374119	-0.000162
1202	1.1950e+02	-7.8447	-23.352812	0.000233	2.332045	0.790118	-0.000093
1203	1.1960e+02	-7.8768	-23.469889	0.000294	2.940404	0.996236	-0.000118
1204	1.1970e+02	-7.9249	-23.611188	0.000355	3.548764	1.202354	-0.000142
1205	1.1980e+02	-7.9634	-23.695968	0.000213	2.129258	0.721412	-0.000085
1206	1.1990e+02	-7.9955	-23.837268	0.000355	3.548764	1.202354	-0.000142
1207	1.2000e+02	-8.0436	-23.918011	0.000203	2.027865	0.687059	-0.000081
1208	1.2010e+02	-8.0837	-24.055273	0.000345	3.447371	1.168001	-0.000138
1209	1.2020e+02	-8.1206	-24.176387	0.000304	3.041798	1.030589	-0.000122
1210	1.2030e+02	-8.1575	-24.293464	0.000294	2.940404	0.996236	-0.000118
1211	1.2039e+02	-8.2008	-24.422653	0.000324	3.244584	1.099295	-0.000130
1212	1.2049e+02	-8.2393	-24.543767	0.000304	3.041798	1.030589	-0.000122
1213	1.2059e+02	-8.2746	-24.660844	0.000294	2.940404	0.996236	-0.000118
1214	1.2069e+02	-8.3212	-24.769846	0.000274	2.737618	0.927530	-0.000110
1215	1.2079e+02	-8.3613	-24.878849	0.000274	2.737618	0.927530	-0.000110
1216	1.2089e+02	-8.3933	-25.028223	0.000375	3.751550	1.271060	-0.000150
1217	1.2099e+02	-8.4479	-25.088780	0.000152	1.520899	0.515294	-0.000061
1218	1.2109e+02	-8.4832	-25.222006	0.000335	3.345977	1.133648	-0.000134
1219	1.2119e+02	-8.5169	-25.310823	0.000223	2.230652	0.755765	-0.000089
1220	1.2129e+02	-8.5650	-25.480382	0.000426	4.258517	1.442825	-0.000170
1221	1.2139e+02	-8.5923	-25.561125	0.000203	2.027865	0.687059	-0.000081
1222	1.2149e+02	-8.6388	-25.653979	0.000233	2.332045	0.790118	-0.000093
1223	1.2159e+02	-8.6837	-25.811427	0.000395	3.954337	1.339766	-0.000158
1224	1.2169e+02	-8.7158	-25.888133	0.000193	1.926472	0.652706	-0.000077
1225	1.2179e+02	-8.7591	-26.049618	0.000406	4.055730	1.374119	-0.000162
1226	1.2189e+02	-8.7912	-26.146510	0.000243	2.433438	0.824471	-0.000097
1227	1.2199e+02	-8.8377	-26.263587	0.000294	2.940404	0.996236	-0.000118
1228	1.2209e+02	-8.8714	-26.360478	0.000243	2.433438	0.824471	-0.000097
1229	1.2219e+02	-8.9115	-26.538112	0.000446	4.461303	1.511530	-0.000179
1230	1.2229e+02	-8.9532	-26.602706	0.000162	1.622292	0.549647	-0.000065
1231	1.2239e+02	-8.9949	-26.703634	0.000253	2.534831	0.858824	-0.000101
1232	1.2248e+02	-9.0286	-26.905491	0.000507	5.069663	1.717648	-0.000203
1233	1.2258e+02	-9.0848	-26.974122	0.000172	1.723685	0.584000	-0.000069
1234	1.2268e+02	-9.1153	-27.103311	0.000324	3.244584	1.099295	-0.000130
1235	1.2278e+02	-9.1650	-27.188091	0.000213	2.129258	0.721412	-0.000085
1236	1.2288e+02	-9.1923	-27.325353	0.000345	3.447371	1.168001	-0.000138
1237	1.2298e+02	-9.2324	-27.434356	0.000274	2.737618	0.927530	-0.000110
1238	1.2308e+02	-9.2773	-27.591804	0.000395	3.954337	1.339766	-0.000158
1239	1.2318e+02	-9.3110	-27.708881	0.000294	2.940404	0.996236	-0.000118
1240	1.2328e+02	-9.3559	-27.761364	0.000132	1.318112	0.446589	-0.000053
1241	1.2338e+02	-9.3928	-27.926886	0.000416	4.157123	1.408472	-0.000166
1242	1.2348e+02	-9.4377	-28.039926	0.000284	2.839011	0.961883	-0.000114
1243	1.2358e+02	-9.4778	-28.152966	0.000284	2.839011	0.961883	-0.000114
1244	1.2368e+02	-9.5147	-28.282154	0.000324	3.244584	1.099295	-0.000130
1245	1.2378e+02	-9.5580	-28.375009	0.000233	2.332045	0.790118	-0.000093
1246	1.2388e+02	-9.5965	-28.484011	0.000274	2.737618	0.927530	-0.000110
1247	1.2398e+02	-9.6414	-28.629348	0.000365	3.650157	1.236707	-0.000146
1248	1.2408e+02	-9.6815	-28.750462	0.000304	3.041798	1.030589	-0.000122
1249	1.2418e+02	-9.7104	-28.859465	0.000274	2.737618	0.927530	-0.000110
1250	1.2428e+02	-9.7553	-28.952319	0.000233	2.332045	0.790118	-0.000093
1251	1.2438e+02	-9.7987	-29.061322	0.000274	2.737618	0.927530	-0.000110
1252	1.2447e+02	-9.8275	-29.162250	0.000253	2.534831	0.858824	-0.000101
1253	1.2457e+02	-9.8580	-29.295475	0.000335	3.345977	1.133648	-0.000134
1254	1.2467e+02	-9.9013	-29.420627	0.000314	3.143191	1.064942	-0.000126
1255	1.2477e+02	-9.9591	-29.537704	0.000294	2.940404	0.996236	-0.000118
1256	1.2487e+02	-9.9928	-29.618446	0.000203	2.027865	0.687059	-0.000081
1257	1.2497e+02	-10.0377	-29.723412	0.000264	2.636225	0.893177	-0.000105
1258	1.2507e+02	-10.0682	-29.848563	0.000314	3.143191	1.064942	-0.000126
1259	1.2517e+02	-10.1083	-29.969677	0.000304	3.041798	1.030589	-0.000122
1260	1.2527e+02	-10.1596	-30.086754	0.000294	2.940404	0.996236	-0.000118
1261	1.2537e+02	-10.1837	-30.207868	0.000304	3.041798	1.030589	-0.000122
1262	1.2547e+02	-10.2334	-30.308797	0.000253	2.534831	0.858824	-0.000101
1263	1.2557e+02	-10.2719	-30.450096	0.000355	3.548764	1.202354	-0.000142
1264	1.2567e+02	-10.3056	-30.567173	0.000294	2.940404	0.996236	-0.000118
1265	1.2577e+02	-10.3521	-30.623693	0.000142	1.419506	0.480942	-0.000057
1266	1.2587e+02	-10.3874	-30.720584	0.000243	2.433438	0.824471	-0.000097
1267	1.2597e+02	-10.4243	-30.869958	0.000375	3.751550	1.271060	-0.000150
1268	1.2607e+02	-10.4724	-30.974924	0.000264	2.636225	0.893177	-0.000105
1269	1.2617e+02	-10.5093	-31.055667	0.000203	2.027865	0.687059	-0.000081
1270	1.2627e+02	-10.5559	-31.201004	0.000365	3.650157	1.236707	-0.000146
1271	1.2636e+02	-10.5911	-31.293858	0.000233	2.332045	0.790118	-0.000093
1272	1.2646e+02	-10.6329	-31.398823	0.000264	2.636225	0.893177	-0.000105
1273	1.2656e+02	-10.6714	-31.511863	0.000284	2.839011	0.961883	-0.000114
1274	1.2666e+02	-10.7083	-31.620866	0.000274	2.737618	0.927530	-0.000110
1275	1.2676e+02	-10.7468	-31.762165	0.000355	3.548764	1.202354	-0.000142
1276	1.2686e+02	-10.7885	-31.842908	0.000203	2.027865	0.687059	-0.000081
1277	1.2696e+02	-10.8206	-31.976134	0.000335	3.345977	1.133648	-0.000134
1278	1.2706e+02	-10.8719	-32.073025	0.000243	2.433438	0.824471	-0.000097
1279	1.2716e+02	-10.9184	-32.169916	0.000243	2.433438	0.824471	-0.000097
1280	1.2726e+02	-10.9569	-32.274882	0.000264	2.636225	0.893177	-0.000105
1281	1.2736e+02	-10.9954	-32.371773	0.000243	2.433438	0.824471	-0.000097
1282	1.2746e+02	-11.0275	-32.500961	0.000324	3.244584	1.099295	-0.000130
1283	1.2756e+02	-11.0612	-32.549407	0.000122	1.216719	0.412236	-0.000049
1284	1.2766e+02	-11.1125	-32.714929	0.000416	4.157123	1.408472	-0.000166
1285	1.2776e+02	-11.1494	-32.787598	0.000183	1.825079	0.618353	-0.000073
1286	1.2786e+02	-11.1863	-32.912749	0.000314	3.143191	1.064942	-0.000126
1287	1.2796e+02	-11.2216	-33.013677	0.000253	2.534831	0.858824	-0.000101
1288	1.2806e+02	-11.2729	-33.114606	0.000253	2.534831	0.858824	-0.000101
1289	1.2816e+02	-11.3066	-33.223609	0.000274	2.737618	0.927530	-0.000110
1290	1.2826e+02	-11.3403	-33.372983	0.000375	3.751550	1.271060	-0.000150
1291	1.2835e+02	-11.3852	-33.421428	0.000122	1.216719	0.412236	-0.000049
1292	1.2845e+02	-11.4270	-33.566765	0.000365	3.650157	1.236707	-0.000146
1293	1.2855e+02	-11.4622	-33.679805	0.000284	2.839011	0.961883	-0.000114
1294	1.2865e+02	-11.5007	-33.784770	0.000264	2.636225	0.893177	-0.000105
1295	1.2875e+02	-11.5473	-33.877625	0.000233	2.332045	0.790118	-0.000093
1296	1.2885e+02	-11.5842	-34.010850	0.000335	3.345977	1.133648	-0.000134
1297	1.2895e+02	-11.6227	-34.079481	0.000172	1.723685	0.584000	-0.000069
1298	1.2905e+02	-11.6740	-34.200595	0.000304	3.041798	1.030589	-0.000122
1299	1.2915e+02	-11.7029	-34.301524	0.000253	2.534831	0.858824	-0.000101
1300	1.2925e+02	-11.7462	-34.394378	0.000233	2.332045	0.790118	-0.000093
1301	1.2935e+02	-11.7911	-34.523566	0.000324	3.244584	1.099295	-0.000130
1302	1.2945e+02	-11.8232	-34.624495	0.000253	2.534831	0.858824	-0.000101
1303	1.2955e+02	-11.8617	-34.725423	0.000253	2.534831	0.858824	-0.000101
1304	1.2965e+02	-11.9050	-34.838463	0.000284	2.839011	0.961883	-0.000114
1305	1.2975e+02	-11.9483	-34.959577	0.000304	3.041798	1.030589	-0.000122
1306	1.2985e+02	-11.9804	-35.056468	0.000243	2.433438	0.824471	-0.000097
1307	1.2995e+02	-12.0189	-35.129137	0.000183	1.825079	0.618353	-0.000073
1308	1.3005e+02	-12.0702	-35.258325	0.000324	3.244584	1.099295	-0.000130
1309	1.3015e+02	-12.1039	-35.371365	0.000284	2.839011	0.961883	-0.000114
1310	1.3025e+02	-12.1473	-35.468256	0.000243	2.433438	0.824471	-0.000097
1311	1.3034e+02	-12.1858	-35.553036	0.000213	2.129258	0.721412	-0.000085
1312	1.3044e+02	-12.2226	-35.637816	0.000213	2.129258	0.721412	-0.000085
1313	1.3054e+02	-12.2644	-35.799301	0.000406	4.055730	1.374119	-0.000162
1314	1.3064e+02	-12.2997	-35.888118	0.000223	2.230652	0.755765	-0.000089
1315	1.3074e+02	-12.3510	-35.972898	0.000213	2.129258	0.721412	-0.000085
1316	1.3084e+02	-12.3831	-36.098049	0.000314	3.143191	1.064942	-0.000126
1317	1.3094e+02	-12.4280	-36.223200	0.000314	3.143191	1.064942	-0.000126
1318	1.3104e+02	-12.4617	-36.275683	0.000132	1.318112	0.446589	-0.000053
1319	1.3114e+02	-12.5066	-36.348352	0.000183	1.825079	0.618353	-0.000073
1320	1.3124e+02	-12.5403	-36.477540	0.000324	3.244584	1.099295	-0.000130
1321	1.3134e+02	-12.5788	-36.574431	0.000243	2.433438	0.824471	-0.000097
1322	1.3144e+02	-12.6189	-36.667285	0.000233	2.332045	0.790118	-0.000093
1323	1.3154e+02	-12.6590	-36.812622	0.000365	3.650157	1.236707	-0.000146
1324	1.3164e+02	-12.7071	-36.885291	0.000183	1.825079	0.618353	-0.000073
1325	1.3174e+02	-12.7408	-36.994293	0.000274	2.737618	0.927530	-0.000110
1326	1.3184e+02	-12.7793	-37.107333	0.000284	2.839011	0.961883	-0.000114
1327	1.3194e+02	-12.8355	-37.155779	0.000122	1.216719	0.412236	-0.000049
1328	1.3204e+02	-12.8643	-37.317264	0.000406	4.055730	1.374119	-0.000162
1329	1.3214e+02	-12.9028	-37.426267	0.000274	2.737618	0.927530	-0.000110
1330	1.3224e+02	-12.9446	-37.466638	0.000101	1.013933	0.343530	-0.000041
1331	1.3234e+02	-12.9798	-37.611975	0.000365	3.650157	1.236707	-0.000146
1332	1.3243e+02	-13.0183	-37.700792	0.000223	2.230652	0.755765	-0.000089
1333	1.3253e+02	-13.0585	-37.797683	0.000243	2.433438	0.824471	-0.000097
1334	1.3263e+02	-13.0986	-37.878426	0.000203	2.027865	0.687059	-0.000081
1335	1.3273e+02	-13.1499	-38.035874	0.000395	3.954337	1.339766	-0.000158
1336	1.3283e+02	-13.1756	-38.116617	0.000203	2.027865	0.687059	-0.000081
1337	1.3293e+02	-13.2269	-38.225620	0.000274	2.737618	0.927530	-0.000110
1338	1.3303e+02	-13.2590	-38.346734	0.000304	3.041798	1.030589	-0.000122
1339	1.3313e+02	-13.3007	-38.435551	0.000223	2.230652	0.755765	-0.000089
1340	1.3323e+02	-13.3424	-38.568776	0.000335	3.345977	1.133648	-0.000134
1341	1.3333e+02	-13.3761	-38.685853	0.000294	2.940404	0.996236	-0.000118
1342	1.3343e+02	-13.4194	-38.750447	0.000162	1.622292	0.549647	-0.000065
1343	1.3353e+02	-13.4531	-38.891747	0.000355	3.548764	1.202354	-0.000142
1344	1.3363e+02	-13.4996	-38.948267	0.000142	1.419506	0.480942	-0.000057
1345	1.3373e+02	-13.5445	-39.057270	0.000274	2.737618	0.927530	-0.000110
1346	1.3383e+02	-13.5862	-39.158198	0.000253	2.534831	0.858824	-0.000101
1347	1.3393e+02	-13.6151	-39.303535	0.000365	3.650157	1.236707	-0.000146
1348	1.3403e+02	-13.6600	-39.392352	0.000223	2.230652	0.755765	-0.000089
1349	1.3413e+02	-13.7050	-39.501355	0.000274	2.737618	0.927530	-0.000110
1350	1.3423e+02	-13.7419	-39.598246	0.000243	2.433438	0.824471	-0.000097
1351	1.3432e+02	-13.7788	-39.687063	0.000223	2.230652	0.755765	-0.000089
1352	1.3442e+02	-13.8173	-39.779917	0.000233	2.332045	0.790118	-0.000093
1353	1.3452e+02	-13.8622	-39.896994	0.000294	2.940404	0.996236	-0.000118
1354	1.3462e+02	-13.8991	-40.001959	0.000264	2.636225	0.893177	-0.000105
1355	1.3472e+02	-13.9344	-40.127111	0.000314	3.143191	1.064942	-0.000126
1356	1.3482e+02	-13.9825	-40.207853	0.000203	2.027865	0.687059	-0.000081
1357	1.3492e+02	-14.0162	-40.341079	0.000335	3.345977	1.133648	-0.000134
1358	1.3502e+02	-14.0531	-40.429896	0.000223	2.230652	0.755765	-0.000089
1359	1.3512e+02	-14.0964	-40.567158	0.000345	3.447371	1.168001	-0.000138
1360	1.3522e+02	-14.1301	-40.684235	0.000294	2.940404	0.996236	-0.000118
1361	1.3532e+02	-14.1750	-40.744792	0.000152	1.520899	0.515294	-0.000061
1362	1.3542e+02	-14.2167	-40.898204	0.000385	3.852944	1.305413	-0.000154
1363	1.3552e+02	-14.2472	-40.982983	0.000213	2.129258	0.721412	-0.000085
1364	1.3562e+02	-14.2921	-41.079875	0.000243	2.433438	0.824471	-0.000097
1365	1.3572e+02	-14.3418	-41.221174	0.000355	3.548764	1.202354	-0.000142
1366	1.3582e+02	-14.3787	-41.241360	0.000051	0.506966	0.171765	-0.000020
1367	1.3592e+02	-14.4140	-41.394771	0.000385	3.852944	1.305413	-0.000154
1368	1.3602e+02	-14.4525	-41.519922	0.000314	3.143191	1.064942	-0.000126
1369	1.3612e+02	-14.4991	-41.616814	0.000243	2.433438	0.824471	-0.000097
1370	1.3622e+02	-14.5327	-41.689482	0.000183	1.825079	0.618353	-0.000073
1371	1.3631e+02	-14.5729	-41.830782	0.000355	3.548764	1.202354	-0.000142
1372	1.3641e+02	-14.6114	-41.899413	0.000172	1.723685	0.584000	-0.000069
1373	1.3651e+02	-14.6547	-42.028602	0.000324	3.244584	1.099295	-0.000130
1374	1.3661e+02	-14.6980	-42.137604	0.000274	2.737618	0.927530	-0.000110
1375	1.3671e+02	-14.7285	-42.246607	0.000274	2.737618	0.927530	-0.000110
1376	1.3681e+02	-14.7766	-42.339461	0.000233	2.332045	0.790118	-0.000093
1377	1.3691e+02	-14.8151	-42.460575	0.000304	3.041798	1.030589	-0.000122
1378	1.3701e+02	-14.8552	-42.541318	0.000203	2.027865	0.687059	-0.000081
1379	1.3711e+02	-14.8921	-42.658395	0.000294	2.940404	0.996236	-0.000118
1380	1.3721e+02	-14.9338	-42.767397	0.000274	2.737618	0.927530	-0.000110
1381	1.3731e+02	-14.9707	-42.852177	0.000213	2.129258	0.721412	-0.000085
1382	1.3741e+02	-15.0092	-42.961180	0.000274	2.737618	0.927530	-0.000110
1383	1.3751e+02	-15.0557	-43.094405	0.000335	3.345977	1.133648	-0.000134
1384	1.3761e+02	-15.0878	-43.175148	0.000203	2.027865	0.687059	-0.000081
1385	1.3771e+02	-15.1343	-43.296262	0.000304	3.041798	1.030589	-0.000122
1386	1.3781e+02	-15.1664	-43.372968	0.000193	1.926472	0.652706	-0.000077
1387	1.3791e+02	-15.2178	-43.522342	0.000375	3.751550	1.271060	-0.000150
1388	1.3801e+02	-15.2514	-43.599047	0.000193	1.926472	0.652706	-0.000077
1389	1.3811e+02	-15.2883	-43.704013	0.000264	2.636225	0.893177	-0.000105
1390	1.3821e+02	-15.3365	-43.813016	0.000274	2.737618	0.927530	-0.000110
1391	1.3831e+02	-15.3702	-43.913944	0.000253	2.534831	0.858824	-0.000101
1392	1.3840e+02	-15.4071	-43.994687	0.000203	2.027865	0.687059	-0.000081
1393	1.3850e+02	-15.4584	-44.131949	0.000345	3.447371	1.168001	-0.000138
1394	1.3860e+02	-15.4889	-44.236915	0.000264	2.636225	0.893177	-0.000105
1395	1.3870e+02	-15.5386	-44.349955	0.000284	2.839011	0.961883	-0.000114
1396	1.3880e+02	-15.5643	-44.402437	0.000132	1.318112	0.446589	-0.000053
1397	1.3890e+02	-15.6060	-44.563923	0.000406	4.055730	1.374119	-0.000162
1398	1.3900e+02	-15.6541	-44.660814	0.000243	2.433438	0.824471	-0.000097
1399	1.3910e+02	-15.6910	-44.777891	0.000294	2.940404	0.996236	-0.000118
1400	1.3920e+02	-15.7279	-44.894968	0.000294	2.940404	0.996236	-0.000118
1401	1.3930e+02	-15.7696	-45.016082	0.000304	3.041798	1.030589	-0.000122
1402	1.3940e+02	-15.8129	-45.108936	0.000233	2.332045	0.790118	-0.000093
1403	1.3950e+02	-15.8482	-45.189679	0.000203	2.027865	0.687059	-0.000081
1404	1.3960e+02	-15.8931	-45.330979	0.000355	3.548764	1.202354	-0.000142
1405	1.3970e+02	-15.9268	-45.367313	0.000091	0.912539	0.309177	-0.000037
1406	1.3980e+02	-15.9669	-45.548984	0.000456	4.562696	1.545883	-0.000183
1407	1.3990e+02	-16.0183	-45.633764	0.000213	2.129258	0.721412	-0.000085
1408	1.4000e+02	-16.0536	-45.766989	0.000335	3.345977	1.133648	-0.000134
1409	1.4010e+02	-16.0872	-45.855806	0.000223	2.230652	0.755765	-0.000089
1410	1.4020e+02	-16.1290	-45.956735	0.000253	2.534831	0.858824	-0.000101
1411	1.4029e+02	-16.1691	-46.073812	0.000294	2.940404	0.996236	-0.000118
1412	1.4039e+02	-16.2011	-46.186851	0.000284	2.839011	0.961883	-0.000114
1413	1.4049e+02	-16.2429	-46.299891	0.000284	2.839011	0.961883	-0.000114
1414	1.4059e+02	-16.2926	-46.388708	0.000223	2.230652	0.755765	-0.000089
1415	1.4069e+02	-16.3199	-46.477525	0.000223	2.230652	0.755765	-0.000089
1416	1.4079e+02	-16.3712	-46.622862	0.000365	3.650157	1.236707	-0.000146
1417	1.4089e+02	-16.4065	-46.699568	0.000193	1.926472	0.652706	-0.000077
1418	1.4099e+02	-16.4562	-46.861053	0.000406	4.055730	1.374119	-0.000162
1419	1.4109e+02	-16.4851	-46.901424	0.000101	1.013933	0.343530	-0.000041
1420	1.4119e+02	-16.5220	-47.038687	0.000345	3.447371	1.168001	-0.000138
1421	1.4129e+02	-16.5653	-47.107318	0.000172	1.723685	0.584000	-0.000069
1422	1.4139e+02	-16.6038	-47.236507	0.000324	3.244584	1.099295	-0.000130
1423	1.4149e+02	-16.6407	-47.333398	0.000243	2.433438	0.824471	-0.000097
1424	1.4159e+02	-16.6872	-47.446438	0.000284	2.839011	0.961883	-0.000114
1425	1.4169e+02	-16.7289	-47.511032	0.000162	1.622292	0.549647	-0.000065
1426	1.4179e+02	-16.7674	-47.656369	0.000365	3.650157	1.236707	-0.000146
1427	1.4189e+02	-16.8075	-47.741149	0.000213	2.129258	0.721412	-0.000085
1428	1.4199e+02	-16.8493	-47.862263	0.000304	3.041798	1.030589	-0.000122
1429	1.4209e+02	-16.8829	-47.963191	0.000253	2.534831	0.858824	-0.000101
1430	1.4219e+02	-16.9263	-48.039897	0.000193	1.926472	0.652706	-0.000077
1431	1.4228e+02	-16.9696	-48.173122	0.000335	3.345977	1.133648	-0.000134
1432	1.4238e+02	-17.0097	-48.233679	0.000152	1.520899	0.515294	-0.000061
1433	1.4248e+02	-17.0530	-48.350756	0.000294	2.940404	0.996236	-0.000118
1434	1.4258e+02	-17.0899	-48.443610	0.000233	2.332045	0.790118	-0.000093
1435	1.4268e+02	-17.1252	-48.556650	0.000284	2.839011	0.961883	-0.000114
1436	1.4278e+02	-17.1685	-48.657578	0.000253	2.534831	0.858824	-0.000101
1437	1.4288e+02	-17.2038	-48.758507	0.000253	2.534831	0.858824	-0.000101
1438	1.4298e+02	-17.2391	-48.859435	0.000253	2.534831	0.858824	-0.000101
1439	1.4308e+02	-17.2888	-48.980549	0.000304	3.041798	1.030589	-0.000122
1440	1.4318e+02	-17.3209	-49.085515	0.000264	2.636225	0.893177	-0.000105
1441	1.4328e+02	-17.3674	-49.146072	0.000152	1.520899	0.515294	-0.000061
1442	1.4338e+02	-17.4123	-49.271223	0.000314	3.143191	1.064942	-0.000126
1443	1.4348e+02	-17.4492	-49.380226	0.000274	2.737618	0.927530	-0.000110
1444	1.4358e+02	-17.4797	-49.473080	0.000233	2.332045	0.790118	-0.000093
1445	1.4368e+02	-17.5278	-49.561897	0.000223	2.230652	0.755765	-0.000089
1446	1.4378e+02	-17.5647	-49.658788	0.000243	2.433438	0.824471	-0.000097
1447	1.4388e+02	-17.6161	-49.800088	0.000355	3.548764	1.202354	-0.000142
1448	1.4398e+02	-17.6530	-49.844496	0.000112	1.115326	0.377883	-0.000045
1449	1.4408e+02	-17.6754	-49.945425	0.000253	2.534831	0.858824	-0.000101
1450	1.4418e+02	-17.7123	-50.070576	0.000314	3.143191	1.064942	-0.000126
1451	1.4428e+02	-17.7621	-50.159393	0.000223	2.230652	0.755765	-0.000089
1452	1.4437e+02	-17.8038	-50.256284	0.000243	2.433438	0.824471	-0.000097
1453	1.4447e+02	-17.8439	-50.373361	0.000294	2.940404	0.996236	-0.000118
1454	1.4457e+02	-17.8792	-50.429881	0.000142	1.419506	0.480942	-0.000057
1455	1.4467e+02	-17.9193	-50.542921	0.000284	2.839011	0.961883	-0.000114
1456	1.4477e+02	-17.9578	-50.655961	0.000284	2.839011	0.961883	-0.000114
1457	1.4487e+02	-18.0075	-50.756889	0.000253	2.534831	0.858824	-0.000101
1458	1.4497e+02	-18.0460	-50.857817	0.000253	2.534831	0.858824	-0.000101
1459	1.4507e+02	-18.0765	-50.950672	0.000233	2.332045	0.790118	-0.000093
1460	1.4517e+02	-18.1230	-51.047563	0.000243	2.433438	0.824471	-0.000097
1461	1.4527e+02	-18.1679	-51.176751	0.000324	3.244584	1.099295	-0.000130
1462	1.4537e+02	-18.2032	-51.245382	0.000172	1.723685	0.584000	-0.000069
1463	1.4547e+02	-18.2433	-51.358422	0.000284	2.839011	0.961883	-0.000114
1464	1.4557e+02	-18.2850	-51.495685	0.000345	3.447371	1.168001	-0.000138
1465	1.4567e+02	-18.3219	-51.560279	0.000162	1.622292	0.549647	-0.000065
1466	1.4577e+02	-18.3604	-51.677356	0.000294	2.940404	0.996236	-0.000118
1467	1.4587e+02	-18.3973	-51.782322	0.000264	2.636225	0.893177	-0.000105
1468	1.4597e+02	-18.4358	-51.867101	0.000213	2.129258	0.721412	-0.000085
1469	1.4607e+02	-18.4727	-51.947844	0.000203	2.027865	0.687059	-0.000081
1470	1.4617e+02	-18.5128	-52.036661	0.000223	2.230652	0.755765	-0.000089
1471	1.4626e+02	-18.5578	-52.165849	0.000324	3.244584	1.099295	-0.000130
1472	1.4636e+02	-18.5995	-52.242555	0.000193	1.926472	0.652706	-0.000077
1473	1.4646e+02	-18.6412	-52.323298	0.000203	2.027865	0.687059	-0.000081
1474	1.4656e+02	-18.6733	-52.448449	0.000314	3.143191	1.064942	-0.000126
1475	1.4666e+02	-18.7278	-52.565526	0.000294	2.940404	0.996236	-0.000118
1476	1.4676e+02	-18.7599	-52.638194	0.000183	1.825079	0.618353	-0.000073
1477	1.4686e+02	-18.7936	-52.678566	0.000101	1.013933	0.343530	-0.000041
1478	1.4696e+02	-18.8433	-52.848125	0.000426	4.258517	1.442825	-0.000170
1479	1.4706e+02	-18.8770	-52.932905	0.000213	2.129258	0.721412	-0.000085
1480	1.4716e+02	-18.9235	-53.062094	0.000324	3.244584	1.099295	-0.000130
1481	1.4726e+02	-18.9636	-53.191282	0.000324	3.244584	1.099295	-0.000130
1482	1.4736e+02	-18.9829	-53.231653	0.000101	1.013933	0.343530	-0.000041
1483	1.4746e+02	-19.0438	-53.320470	0.000223	2.230652	0.755765	-0.000089
1484	1.4756e+02	-19.0791	-53.421399	0.000253	2.534831	0.858824	-0.000101
1485	1.4766e+02	-19.1225	-53.498104	0.000193	1.926472	0.652706	-0.000077
1486	1.4776e+02	-19.1561	-53.619218	0.000304	3.041798	1.030589	-0.000122
1487	1.4786e+02	-19.2043	-53.732258	0.000284	2.839011	0.961883	-0.000114
1488	1.4796e+02	-19.2428	-53.796852	0.000162	1.622292	0.549647	-0.000065
1489	1.4806e+02	-19.2813	-53.889706	0.000233	2.332045	0.790118	-0.000093
1490	1.4816e+02	-19.3085	-53.986598	0.000243	2.433438	0.824471	-0.000097
1491	1.4825e+02	-19.3503	-54.091563	0.000264	2.636225	0.893177	-0.000105
1492	1.4835e+02	-19.3952	-54.204603	0.000284	2.839011	0.961883	-0.000114
1493	1.4845e+02	-19.4241	-54.265160	0.000152	1.520899	0.515294	-0.000061
1494	1.4855e+02	-19.4706	-54.370126	0.000264	2.636225	0.893177	-0.000105
1495	1.4865e+02	-19.5155	-54.446831	0.000193	1.926472	0.652706	-0.000077
1496	1.4875e+02	-19.5492	-54.563908	0.000294	2.940404	0.996236	-0.000118
1497	1.4885e+02	-19.5925	-54.652725	0.000223	2.230652	0.755765	-0.000089
1498	1.4895e+02	-19.6326	-54.757691	0.000264	2.636225	0.893177	-0.000105
1499	1.4905e+02	-19.6695	-54.854582	0.000243	2.433438	0.824471	-0.000097
1500	1.4915e+02	-19.7000	-54.911102	0.000142	1.419506	0.480942	-0.000057
1501	1.4925e+02	-19.7513	-55.068550	0.000395	3.954337	1.339766	-0.000158
1502	1.4935e+02	-19.7962	-55.153330	0.000213	2.129258	0.721412	-0.000085
1503	1.4945e+02	-19.8283	-55.258295	0.000264	2.636225	0.893177	-0.000105
1504	1.4955e+02	-19.8652	-55.399595	0.000355	3.548764	1.202354	-0.000142
1505	1.4965e+02	-19.9117	-55.464189	0.000162	1.622292	0.549647	-0.000065
1506	1.4975e+02	-19.9470	-55.573192	0.000274	2.737618	0.927530	-0.000110
1507	1.4985e+02	-19.9887	-55.633749	0.000152	1.520899	0.515294	-0.000061
1508	1.4995e+02	-19.9567	-55.609526	0.000061	0.608360	0.206118	0.000024
1509	1.5005e+02	-19.9166	-55.589341	0.000051	0.506966	0.171765	0.000020
1510	1.5015e+02	-19.8620	-55.532821	0.000142	1.419506	0.480942	0.000057
1511	1.5025e+02	-19.8299	-55.472264	0.000152	1.520899	0.515294	0.000061
1512	1.5034e+02	-19.7946	-55.371335	0.000253	2.534831	0.858824	0.000101
1513	1.5044e+02	-19.7545	-55.322890	0.000122	1.216719	0.412236	0.000049
1514	1.5054e+02	-19.7112	-55.201776	0.000304	3.041798	1.030589	0.000122
1515	1.5064e+02	-19.6727	-55.133144	0.000172	1.723685	0.584000	0.000069
1516	1.5074e+02	-19.6262	-55.072587	0.000152	1.520899	0.515294	0.000061
1517	1.5084e+02	-19.5877	-55.040290	0.000081	0.811146	0.274824	0.000032
1518	1.5094e+02	-19.5556	-54.886879	0.000385	3.852944	1.305413	0.000154
1519	1.5104e+02	-19.5075	-54.882842	0.000010	0.101393	0.034353	0.000004
1520	1.5114e+02	-19.4706	-54.834396	0.000122	1.216719	0.412236	0.000049
1521	1.5124e+02	-19.4353	-54.721356	0.000284	2.839011	0.961883	0.000114
1522	1.5134e+02	-19.4000	-54.640614	0.000203	2.027865	0.687059	0.000081
1523	1.5144e+02	-19.3647	-54.559871	0.000203	2.027865	0.687059	0.000081
1524	1.5154e+02	-19.3037	-54.507388	0.000132	1.318112	0.446589	0.000053
1525	1.5164e+02	-19.2813	-54.426645	0.000203	2.027865	0.687059	0.000081
1526	1.5174e+02	-19.2364	-54.362051	0.000162	1.622292	0.549647	0.000065
1527	1.5184e+02	-19.1962	-54.277271	0.000213	2.129258	0.721412	0.000085
1528	1.5194e+02	-19.1545	-54.216714	0.000152	1.520899	0.515294	0.000061
1529	1.5204e+02	-19.1128	-54.107712	0.000274	2.737618	0.927530	0.000110
1530	1.5214e+02	-19.0856	-54.047155	0.000152	1.520899	0.515294	0.000061
1531	1.5224e+02	-19.0455	-53.966412	0.000203	2.027865	0.687059	0.000081
1532	1.5233e+02	-18.9973	-53.909892	0.000142	1.419506	0.480942	0.000057
1533	1.5243e+02	-18.9572	-53.804927	0.000264	2.636225	0.893177	0.000105
1534	1.5253e+02	-18.9171	-53.732258	0.000183	1.825079	0.618353	0.000073
1535	1.5263e+02	-18.8722	-53.708035	0.000061	0.608360	0.206118	0.000024
1536	1.5273e+02	-18.8481	-53.635367	0.000183	1.825079	0.618353	0.000073
1537	1.5283e+02	-18.7952	-53.542513	0.000233	2.332045	0.790118	0.000093
1538	1.5293e+02	-18.7535	-53.425436	0.000294	2.940404	0.996236	0.000118
1539	1.5303e+02	-18.7230	-53.368916	0.000142	1.419506	0.480942	0.000057
1540	1.5313e+02	-18.6733	-53.280099	0.000223	2.230652	0.755765	0.000089
1541	1.5323e+02	-18.6476	-53.179171	0.000253	2.534831	0.858824	0.000101
1542	1.5333e+02	-18.6027	-53.082279	0.000243	2.433438	0.824471	0.000097
1543	1.5343e+02	-18.5578	-53.049982	0.000081	0.811146	0.274824	0.000032
1544	1.5353e+02	-18.5096	-52.949054	0.000253	2.534831	0.858824	0.000101
1545	1.5363e+02	-18.4808	-52.900608	0.000122	1.216719	0.412236	0.000049
1546	1.5373e+02	-18.4423	-52.783531	0.000294	2.940404	0.996236	0.000118
1547	1.5383e+02	-18.3989	-52.714900	0.000172	1.723685	0.584000	0.000069
1548	1.5393e+02	-18.3588	-52.718937	-0.000010	-0.101393	-0.034353	-0.000004
1549	1.5403e+02	-18.3155	-52.569563	0.000375	3.751550	1.271060	0.000150
1550	1.5413e+02	-18.2802	-52.517080	0.000132	1.318112	0.446589	0.000053
1551	1.5422e+02	-18.2417	-52.420189	0.000243	2.433438	0.824471	0.000097
1552	1.5432e+02	-18.2080	-52.331372	0.000223	2.230652	0.755765	0.000089
1553	1.5442e+02	-18.1663	-52.270815	0.000152	1.520899	0.515294	0.000061
1554	1.5452e+02	-18.1262	-52.194109	0.000193	1.926472	0.652706	0.000077
1555	1.5462e+02	-18.0781	-52.093181	0.000253	2.534831	0.858824	0.000101
1556	1.5472e+02	-18.0380	-52.008401	0.000213	2.129258	0.721412	0.000085
1557	1.5482e+02	-18.0043	-51.919584	0.000223	2.230652	0.755765	0.000089
1558	1.5492e+02	-17.9626	-51.875176	0.000112	1.115326	0.377883	0.000045
1559	1.5502e+02	-17.9273	-51.786359	0.000223	2.230652	0.755765	0.000089
1560	1.5512e+02	-17.8808	-51.701579	0.000213	2.129258	0.721412	0.000085
1561	1.5522e+02	-17.8359	-51.612762	0.000223	2.230652	0.755765	0.000089
1562	1.5532e+02	-17.8022	-51.536056	0.000193	1.926472	0.652706	0.000077
1563	1.5542e+02	-17.7653	-51.467425	0.000172	1.723685	0.584000	0.000069
1564	1.5552e+02	-17.7220	-51.394757	0.000183	1.825079	0.618353	0.000073
1565	1.5562e+02	-17.6835	-51.297865	0.000243	2.433438	0.824471	0.000097
1566	1.5572e+02	-17.6369	-51.241345	0.000142	1.419506	0.480942	0.000057
1567	1.5582e+02	-17.6032	-51.140417	0.000253	2.534831	0.858824	0.000101
1568	1.5592e+02	-17.5599	-51.051600	0.000223	2.230652	0.755765	0.000089
1569	1.5602e+02	-17.5214	-50.991043	0.000152	1.520899	0.515294	0.000061
1570	1.5612e+02	-17.4797	-50.882040	0.000274	2.737618	0.927530	0.000110
1571	1.5622e+02	-17.4476	-50.861855	0.000051	0.506966	0.171765	0.000020
1572	1.5631e+02	-17.4011	-50.760926	0.000253	2.534831	0.858824	0.000101
1573	1.5641e+02	-17.3658	-50.647886	0.000284	2.839011	0.961883	0.000114
1574	1.5651e+02	-17.3193	-50.611552	0.000091	0.912539	0.309177	0.000037
1575	1.5661e+02	-17.2824	-50.510624	0.000253	2.534831	0.858824	0.000101
1576	1.5671e+02	-17.2471	-50.393547	0.000294	2.940404	0.996236	0.000118
1577	1.5681e+02	-17.2038	-50.345101	0.000122	1.216719	0.412236	0.000049
1578	1.5691e+02	-17.1589	-50.240136	0.000264	2.636225	0.893177	0.000105
1579	1.5701e+02	-17.1316	-50.207839	0.000081	0.811146	0.274824	0.000032
1580	1.5711e+02	-17.0915	-50.102873	0.000264	2.636225	0.893177	0.000105
1581	1.5721e+02	-17.0386	-49.973685	0.000324	3.244584	1.099295	0.000130
1582	1.5731e+02	-17.0129	-49.917165	0.000142	1.419506	0.480942	0.000057
1583	1.5741e+02	-16.9696	-49.856608	0.000152	1.520899	0.515294	0.000061
1584	1.5751e+02	-16.9214	-49.763754	0.000233	2.332045	0.790118	0.000093
1585	1.5761e+02	-16.8862	-49.662825	0.000253	2.534831	0.858824	0.000101
1586	1.5771e+02	-16.8493	-49.590157	0.000183	1.825079	0.618353	0.000073
1587	1.5781e+02	-16.8059	-49.497303	0.000233	2.332045	0.790118	0.000093
1588	1.5791e+02	-16.7706	-49.400411	0.000243	2.433438	0.824471	0.000097
1589	1.5801e+02	-16.7241	-49.347929	0.000132	1.318112	0.446589	0.000053
1590	1.5811e+02	-16.6840	-49.259112	0.000223	2.230652	0.755765	0.000089
1591	1.5821e+02	-16.6455	-49.150109	0.000274	2.737618	0.927530	0.000110
1592	1.5830e+02	-16.6086	-49.101663	0.000122	1.216719	0.412236	0.000049
1593	1.5840e+02	-16.5701	-48.980549	0.000304	3.041798	1.030589	0.000122
1594	1.5850e+02	-16.5348	-48.899807	0.000203	2.027865	0.687059	0.000081
1595	1.5860e+02	-16.4883	-48.806953	0.000233	2.332045	0.790118	0.000093
1596	1.5870e+02	-16.4418	-48.701987	0.000264	2.636225	0.893177	0.000105
1597	1.5880e+02	-16.4065	-48.637393	0.000162	1.622292	0.549647	0.000065
1598	1.5890e+02	-16.3664	-48.552613	0.000213	2.129258	0.721412	0.000085
1599	1.5900e+02	-16.3215	-48.435536	0.000294	2.940404	0.996236	0.000118
1600	1.5910e+02	-16.2958	-48.407276	0.000071	0.709753	0.240471	0.000028
1601	1.5920e+02	-16.2461	-48.274051	0.000335	3.345977	1.133648	0.000134
1602	1.5930e+02	-16.2092	-48.185234	0.000223	2.230652	0.755765	0.000089
1603	1.5940e+02	-16.1626	-48.116602	0.000172	1.723685	0.584000	0.000069
1604	1.5950e+02	-16.1274	-47.995488	0.000304	3.041798	1.030589	0.000122
1605	1.5960e+02	-16.0872	-47.963191	0.000081	0.811146	0.274824	0.000032
1606	1.5970e+02	-16.0471	-47.862263	0.000253	2.534831	0.858824	0.000101
1607	1.5980e+02	-16.0054	-47.737112	0.000314	3.143191	1.064942	0.000126
1608	1.5990e+02	-15.9733	-47.640220	0.000243	2.433438	0.824471	0.000097
1609	1.6000e+02	-15.9364	-47.559478	0.000203	2.027865	0.687059	0.000081
1610	1.6010e+02	-15.8883	-47.470661	0.000223	2.230652	0.755765	0.000089
1611	1.6019e+02	-15.8418	-47.341472	0.000324	3.244584	1.099295	0.000130
1612	1.6029e+02	-15.8097	-47.284952	0.000142	1.419506	0.480942	0.000057
1613	1.6039e+02	-15.7712	-47.196135	0.000223	2.230652	0.755765	0.000089
1614	1.6049e+02	-15.7327	-47.123467	0.000183	1.825079	0.618353	0.000073
1615	1.6059e+02	-15.6910	-47.022539	0.000253	2.534831	0.858824	0.000101
1616	1.6069e+02	-15.6493	-46.901424	0.000304	3.041798	1.030589	0.000122
1617	1.6079e+02	-15.6140	-46.844905	0.000142	1.419506	0.480942	0.000057
1618	1.6089e+02	-15.5627	-46.760125	0.000213	2.129258	0.721412	0.000085
1619	1.6099e+02	-15.5434	-46.647085	0.000284	2.839011	0.961883	0.000114
1620	1.6109e+02	-15.4905	-46.554231	0.000233	2.332045	0.790118	0.000093
1621	1.6119e+02	-15.4600	-46.449265	0.000264	2.636225	0.893177	0.000105
1622	1.6129e+02	-15.4087	-46.344300	0.000264	2.636225	0.893177	0.000105
1623	1.6139e+02	-15.3718	-46.251446	0.000233	2.332045	0.790118	0.000093
1624	1.6149e+02	-15.3300	-46.190889	0.000152	1.520899	0.515294	0.000061
1625	1.6159e+02	-15.2948	-46.102072	0.000223	2.230652	0.755765	0.000089
1626	1.6169e+02	-15.2530	-46.005180	0.000243	2.433438	0.824471	0.000097
1627	1.6179e+02	-15.2161	-45.888103	0.000294	2.940404	0.996236	0.000118
1628	1.6189e+02	-15.1680	-45.787175	0.000253	2.534831	0.858824	0.000101
1629	1.6199e+02	-15.1343	-45.686247	0.000253	2.534831	0.858824	0.000101
1630	1.6209e+02	-15.1006	-45.633764	0.000132	1.318112	0.446589	0.000053
1631	1.6219e+02	-15.0525	-45.496501	0.000345	3.447371	1.168001	0.000138
1632	1.6228e+02	-15.0124	-45.431907	0.000162	1.622292	0.549647	0.000065
1633	1.6238e+02	-14.9723	-45.298682	0.000335	3.345977	1.133648	0.000134
1634	1.6248e+02	-14.9434	-45.217939	0.000203	2.027865	0.687059	0.000081
1635	1.6258e+02	-14.8969	-45.145270	0.000183	1.825079	0.618353	0.000073
1636	1.6268e+02	-14.8584	-45.020119	0.000314	3.143191	1.064942	0.000126
1637	1.6278e+02	-14.8231	-44.955525	0.000162	1.622292	0.549647	0.000065
1638	1.6288e+02	-14.7862	-44.854597	0.000253	2.534831	0.858824	0.000101
1639	1.6298e+02	-14.7269	-44.765780	0.000223	2.230652	0.755765	0.000089
1640	1.6308e+02	-14.7028	-44.664851	0.000253	2.534831	0.858824	0.000101
1641	1.6318e+02	-14.6499	-44.551811	0.000284	2.839011	0.961883	0.000114
1642	1.6328e+02	-14.6130	-44.475106	0.000193	1.926472	0.652706	0.000077
1643	1.6338e+02	-14.5600	-44.349955	0.000314	3.143191	1.064942	0.000126
1644	1.6348e+02	-14.5343	-44.301509	0.000122	1.216719	0.412236	0.000049
1645	1.6358e+02	-14.4894	-44.236915	0.000162	1.622292	0.549647	0.000065
1646	1.6368e+02	-14.4557	-44.071392	0.000416	4.157123	1.408472	0.000166
1647	1.6378e+02	-14.4108	-44.002761	0.000172	1.723685	0.584000	0.000069
1648	1.6388e+02	-14.3755	-43.917981	0.000213	2.129258	0.721412	0.000085
1649	1.6398e+02	-14.3386	-43.796867	0.000304	3.041798	1.030589	0.000122
1650	1.6408e+02	-14.2905	-43.695939	0.000253	2.534831	0.858824	0.000101
1651	1.6418e+02	-14.2488	-43.578862	0.000294	2.940404	0.996236	0.000118
1652	1.6427e+02	-14.2199	-43.490045	0.000223	2.230652	0.755765	0.000089
1653	1.6437e+02	-14.1718	-43.409302	0.000203	2.027865	0.687059	0.000081
1654	1.6447e+02	-14.1413	-43.288188	0.000304	3.041798	1.030589	0.000122
1655	1.6457e+02	-14.0900	-43.167074	0.000304	3.041798	1.030589	0.000122
1656	1.6467e+02	-14.0467	-43.082294	0.000213	2.129258	0.721412	0.000085
1657	1.6477e+02	-14.0194	-42.949069	0.000335	3.345977	1.133648	0.000134
1658	1.6487e+02	-13.9713	-42.848140	0.000253	2.534831	0.858824	0.000101
1659	1.6497e+02	-13.9263	-42.791620	0.000142	1.419506	0.480942	0.000057
1660	1.6507e+02	-13.8991	-42.678580	0.000284	2.839011	0.961883	0.000114
1661	1.6517e+02	-13.8526	-42.557466	0.000304	3.041798	1.030589	0.000122
1662	1.6527e+02	-13.8157	-42.484798	0.000183	1.825079	0.618353	0.000073
1663	1.6537e+02	-13.7820	-42.387907	0.000243	2.433438	0.824471	0.000097
1664	1.6547e+02	-13.7338	-42.278904	0.000274	2.737618	0.927530	0.000110
1665	1.6557e+02	-13.6985	-42.161827	0.000294	2.940404	0.996236	0.000118
1666	1.6567e+02	-13.6504	-42.117419	0.000112	1.115326	0.377883	0.000045
1667	1.6577e+02	-13.6151	-41.992267	0.000314	3.143191	1.064942	0.000126
1668	1.6587e+02	-13.5702	-41.863079	0.000324	3.244584	1.099295	0.000130
1669	1.6597e+02	-13.5413	-41.810596	0.000132	1.318112	0.446589	0.000053
1670	1.6607e+02	-13.5028	-41.673334	0.000345	3.447371	1.168001	0.000138
1671	1.6616e+02	-13.4531	-41.568368	0.000264	2.636225	0.893177	0.000105
1672	1.6626e+02	-13.4210	-41.479551	0.000223	2.230652	0.755765	0.000089
1673	1.6636e+02	-13.3745	-41.370548	0.000274	2.737618	0.927530	0.000110
1674	1.6646e+02	-13.3392	-41.309991	0.000152	1.520899	0.515294	0.000061
1675	1.6656e+02	-13.3039	-41.192915	0.000294	2.940404	0.996236	0.000118
1676	1.6666e+02	-13.2542	-41.108135	0.000213	2.129258	0.721412	0.000085
1677	1.6676e+02	-13.2269	-41.027392	0.000203	2.027865	0.687059	0.000081
1678	1.6686e+02	-13.1836	-40.946649	0.000203	2.027865	0.687059	0.000081
1679	1.6696e+02	-13.1451	-40.813424	0.000335	3.345977	1.133648	0.000134
1680	1.6706e+02	-13.0970	-40.720570	0.000233	2.332045	0.790118	0.000093
1681	1.6716e+02	-13.0536	-40.611567	0.000274	2.737618	0.927530	0.000110
1682	1.6726e+02	-13.0167	-40.502564	0.000274	2.737618	0.927530	0.000110
1683	1.6736e+02	-12.9815	-40.442007	0.000152	1.520899	0.515294	0.000061
1684	1.6746e+02	-12.9430	-40.328967	0.000284	2.839011	0.961883	0.000114
1685	1.6756e+02	-12.9044	-40.211891	0.000294	2.940404	0.996236	0.000118
1686	1.6766e+02	-12.8627	-40.131148	0.000203	2.027865	0.687059	0.000081
1687	1.6776e+02	-12.8194	-39.997922	0.000335	3.345977	1.133648	0.000134
1688	1.6786e+02	-12.7793	-39.953514	0.000112	1.115326	0.377883	0.000045
1689	1.6796e+02	-12.7520	-39.852585	0.000253	2.534831	0.858824	0.000101
1690	1.6806e+02	-12.7007	-39.743583	0.000274	2.737618	0.927530	0.000110
1691	1.6816e+02	-12.6622	-39.658803	0.000213	2.129258	0.721412	0.000085
1692	1.6825e+02	-12.6141	-39.569986	0.000223	2.230652	0.755765	0.000089
1693	1.6835e+02	-12.5788	-39.452909	0.000294	2.940404	0.996236	0.000118
1694	1.6845e+02	-12.5419	-39.364092	0.000223	2.230652	0.755765	0.000089
1695	1.6855e+02	-12.5050	-39.247015	0.000294	2.940404	0.996236	0.000118
1696	1.6865e+02	-12.4665	-39.210681	0.000091	0.912539	0.309177	0.000037
1697	1.6875e+02	-12.4296	-39.077455	0.000335	3.345977	1.133648	0.000134
1698	1.6885e+02	-12.3783	-38.924044	0.000385	3.852944	1.305413	0.000154
1699	1.6895e+02	-12.3478	-38.875599	0.000122	1.216719	0.412236	0.000049
1700	1.6905e+02	-12.3093	-38.770633	0.000264	2.636225	0.893177	0.000105
1701	1.6915e+02	-12.2660	-38.657593	0.000284	2.839011	0.961883	0.000114
1702	1.6925e+02	-12.2323	-38.601073	0.000142	1.419506	0.480942	0.000057
1703	1.6935e+02	-12.1809	-38.488034	0.000284	2.839011	0.961883	0.000114
1704	1.6945e+02	-12.1424	-38.362882	0.000314	3.143191	1.064942	0.000126
1705	1.6955e+02	-12.1007	-38.265991	0.000243	2.433438	0.824471	0.000097
1706	1.6965e+02	-12.0767	-38.189286	0.000193	1.926472	0.652706	0.000077
1707	1.6975e+02	-12.0285	-38.084320	0.000264	2.636225	0.893177	0.000105
1708	1.6985e+02	-11.9836	-37.979354	0.000264	2.636225	0.893177	0.000105
1709	1.6995e+02	-11.9419	-37.902649	0.000193	1.926472	0.652706	0.000077
1710	1.7005e+02	-11.9034	-37.797683	0.000264	2.636225	0.893177	0.000105
1711	1.7015e+02	-11.8633	-37.733089	0.000162	1.622292	0.549647	0.000065
1712	1.7024e+02	-11.8248	-37.575641	0.000395	3.954337	1.339766	0.000158
1713	1.7034e+02	-11.7847	-37.454527	0.000304	3.041798	1.030589	0.000122
1714	1.7044e+02	-11.7510	-37.377821	0.000193	1.926472	0.652706	0.000077
1715	1.7054e+02	-11.7157	-37.357636	0.000051	0.506966	0.171765	0.000020
1716	1.7064e+02	-11.6644	-37.240559	0.000294	2.940404	0.996236	0.000118
1717	1.7074e+02	-11.6227	-37.111370	0.000324	3.244584	1.099295	0.000130
1718	1.7084e+02	-11.5858	-37.062925	0.000122	1.216719	0.412236	0.000049
1719	1.7094e+02	-11.5473	-36.909513	0.000385	3.852944	1.305413	0.000154
1720	1.7104e+02	-11.5040	-36.764177	0.000365	3.650157	1.236707	0.000146
1721	1.7114e+02	-11.4638	-36.707657	0.000142	1.419506	0.480942	0.000057
1722	1.7124e+02	-11.4302	-36.618840	0.000223	2.230652	0.755765	0.000089
1723	1.7134e+02	-11.3836	-36.497726	0.000304	3.041798	1.030589	0.000122
1724	1.7144e+02	-11.3403	-36.412946	0.000213	2.129258	0.721412	0.000085
1725	1.7154e+02	-11.3034	-36.259535	0.000385	3.852944	1.305413	0.000154
1726	1.7164e+02	-11.2729	-36.170718	0.000223	2.230652	0.755765	0.000089
1727	1.7174e+02	-11.2344	-36.114198	0.000142	1.419506	0.480942	0.000057
1728	1.7184e+02	-11.1767	-36.005195	0.000274	2.737618	0.927530	0.000110
1729	1.7194e+02	-11.1462	-35.940601	0.000162	1.622292	0.549647	0.000065
1730	1.7204e+02	-11.1077	-35.803338	0.000345	3.447371	1.168001	0.000138
1731	1.7213e+02	-11.0740	-35.734707	0.000172	1.723685	0.584000	0.000069
1732	1.7223e+02	-11.0275	-35.613593	0.000304	3.041798	1.030589	0.000122
1733	1.7233e+02	-10.9874	-35.500553	0.000284	2.839011	0.961883	0.000114
1734	1.7243e+02	-10.9489	-35.419810	0.000203	2.027865	0.687059	0.000081
1735	1.7253e+02	-10.9072	-35.322919	0.000243	2.433438	0.824471	0.000097
1736	1.7263e+02	-10.8703	-35.217954	0.000264	2.636225	0.893177	0.000105
1737	1.7273e+02	-10.8302	-35.149322	0.000172	1.723685	0.584000	0.000069
1738	1.7283e+02	-10.7917	-35.040320	0.000274	2.737618	0.927530	0.000110
1739	1.7293e+02	-10.7452	-34.951503	0.000223	2.230652	0.755765	0.000089
1740	1.7303e+02	-10.7179	-34.842500	0.000274	2.737618	0.927530	0.000110
1741	1.7313e+02	-10.6778	-34.749646	0.000233	2.332045	0.790118	0.000093
1742	1.7323e+02	-10.6345	-34.632569	0.000294	2.940404	0.996236	0.000118
1743	1.7333e+02	-10.5976	-34.584123	0.000122	1.216719	0.412236	0.000049
1744	1.7343e+02	-10.5526	-34.471083	0.000284	2.839011	0.961883	0.000114
1745	1.7353e+02	-10.5093	-34.370155	0.000253	2.534831	0.858824	0.000101
1746	1.7363e+02	-10.4740	-34.281338	0.000223	2.230652	0.755765	0.000089
1747	1.7373e+02	-10.4387	-34.160224	0.000304	3.041798	1.030589	0.000122
1748	1.7383e+02	-10.3922	-34.067370	0.000233	2.332045	0.790118	0.000093
1749	1.7393e+02	-10.3521	-33.938182	0.000324	3.244584	1.099295	0.000130
1750	1.7403e+02	-10.3072	-33.889736	0.000122	1.216719	0.412236	0.000049
1751	1.7413e+02	-10.2671	-33.752473	0.000345	3.447371	1.168001	0.000138
1752	1.7422e+02	-10.2302	-33.639434	0.000284	2.839011	0.961883	0.000114
1753	1.7432e+02	-10.1949	-33.542542	0.000243	2.433438	0.824471	0.000097
1754	1.7442e+02	-10.1468	-33.433540	0.000274	2.737618	0.927530	0.000110
1755	1.7452e+02	-10.1099	-33.352797	0.000203	2.027865	0.687059	0.000081
1756	1.7462e+02	-10.0714	-33.243794	0.000274	2.737618	0.927530	0.000110
1757	1.7472e+02	-10.0393	-33.150940	0.000233	2.332045	0.790118	0.000093
1758	1.7482e+02	-9.9928	-33.009640	0.000355	3.548764	1.202354	0.000142
1759	1.7492e+02	-9.9527	-32.928898	0.000203	2.027865	0.687059	0.000081
1760	1.7502e+02	-9.9158	-32.803746	0.000314	3.143191	1.064942	0.000126
1761	1.7512e+02	-9.8692	-32.731078	0.000183	1.825079	0.618353	0.000073
1762	1.7522e+02	-9.8291	-32.601890	0.000324	3.244584	1.099295	0.000130
1763	1.7532e+02	-9.7954	-32.513073	0.000223	2.230652	0.755765	0.000089
1764	1.7542e+02	-9.7553	-32.387921	0.000314	3.143191	1.064942	0.000126
1765	1.7552e+02	-9.7233	-32.307179	0.000203	2.027865	0.687059	0.000081
1766	1.7562e+02	-9.6719	-32.194139	0.000284	2.839011	0.961883	0.000114
1767	1.7572e+02	-9.6334	-32.077062	0.000294	2.940404	0.996236	0.000118
1768	1.7582e+02	-9.5949	-31.959985	0.000294	2.940404	0.996236	0.000118
1769	1.7592e+02	-9.5628	-31.875205	0.000213	2.129258	0.721412	0.000085
1770	1.7602e+02	-9.5115	-31.754091	0.000304	3.041798	1.030589	0.000122
1771	1.7612e+02	-9.4730	-31.657200	0.000243	2.433438	0.824471	0.000097
1772	1.7621e+02	-9.4297	-31.552234	0.000264	2.636225	0.893177	0.000105
1773	1.7631e+02	-9.4040	-31.439195	0.000284	2.839011	0.961883	0.000114
1774	1.7641e+02	-9.3559	-31.330192	0.000274	2.737618	0.927530	0.000110
1775	1.7651e+02	-9.3126	-31.225226	0.000264	2.636225	0.893177	0.000105
1776	1.7661e+02	-9.2917	-31.136409	0.000223	2.230652	0.755765	0.000089
1777	1.7671e+02	-9.2324	-31.031444	0.000264	2.636225	0.893177	0.000105
1778	1.7681e+02	-9.1987	-30.922441	0.000274	2.737618	0.927530	0.000110
1779	1.7691e+02	-9.1586	-30.805364	0.000294	2.940404	0.996236	0.000118
1780	1.7701e+02	-9.1169	-30.676176	0.000324	3.244584	1.099295	0.000130
1781	1.7711e+02	-9.0848	-30.591396	0.000213	2.129258	0.721412	0.000085
1782	1.7721e+02	-9.0318	-30.466245	0.000314	3.143191	1.064942	0.000126
1783	1.7731e+02	-9.0014	-30.385502	0.000203	2.027865	0.687059	0.000081
1784	1.7741e+02	-8.9548	-30.276499	0.000274	2.737618	0.927530	0.000110
1785	1.7751e+02	-8.9163	-30.187682	0.000223	2.230652	0.755765	0.000089
1786	1.7761e+02	-8.8778	-30.058494	0.000324	3.244584	1.099295	0.000130
1787	1.7771e+02	-8.8361	-29.949491	0.000274	2.737618	0.927530	0.000110
1788	1.7781e+02	-8.7976	-29.832415	0.000294	2.940404	0.996236	0.000118
1789	1.7791e+02	-8.7575	-29.715338	0.000294	2.940404	0.996236	0.000118
1790	1.7801e+02	-8.7174	-29.602298	0.000284	2.839011	0.961883	0.000114
1791	1.7810e+02	-8.6741	-29.505407	0.000243	2.433438	0.824471	0.000097
1792	1.7820e+02	-8.6388	-29.368144	0.000345	3.447371	1.168001	0.000138
1793	1.7830e+02	-8.6003	-29.222807	0.000365	3.650157	1.236707	0.000146
1794	1.7840e+02	-8.5602	-29.190510	0.000081	0.811146	0.274824	0.000032
1795	1.7850e+02	-8.5217	-29.049210	0.000355	3.548764	1.202354	0.000142
1796	1.7860e+02	-8.4752	-28.936170	0.000284	2.839011	0.961883	0.000114
1797	1.7870e+02	-8.4383	-28.867539	0.000172	1.723685	0.584000	0.000069
1798	1.7880e+02	-8.3966	-28.758536	0.000274	2.737618	0.927530	0.000110
1799	1.7890e+02	-8.3581	-28.593014	0.000416	4.157123	1.408472	0.000166
1800	1.7900e+02	-8.3212	-28.484011	0.000274	2.737618	0.927530	0.000110
1801	1.7910e+02	-8.2875	-28.387120	0.000243	2.433438	0.824471	0.000097
1802	1.7920e+02	-8.2361	-28.294266	0.000233	2.332045	0.790118	0.000093
1803	1.7930e+02	-8.1992	-28.140855	0.000385	3.852944	1.305413	0.000154
1804	1.7940e+02	-8.1575	-28.039926	0.000253	2.534831	0.858824	0.000101
1805	1.7950e+02	-8.1126	-27.930924	0.000274	2.737618	0.927530	0.000110
1806	1.7960e+02	-8.0821	-27.834032	0.000243	2.433438	0.824471	0.000097
1807	1.7970e+02	-8.0356	-27.725030	0.000274	2.737618	0.927530	0.000110
1808	1.7980e+02	-8.0067	-27.607953	0.000294	2.940404	0.996236	0.000118
1809	1.7990e+02	-7.9618	-27.466653	0.000355	3.548764	1.202354	0.000142
1810	1.8000e+02	-7.9329	-27.369762	0.000243	2.433438	0.824471	0.000097
1811	1.8009e+02	-7.8784	-27.293056	0.000193	1.926472	0.652706	0.000077
1812	1.8019e+02	-7.8415	-27.135608	0.000395	3.954337	1.339766	0.000158
1813	1.8029e+02	-7.7982	-27.038717	0.000243	2.433438	0.824471	0.000097
1814	1.8039e+02	-7.7693	-26.933751	0.000264	2.636225	0.893177	0.000105
1815	1.8049e+02	-7.7276	-26.824748	0.000274	2.737618	0.927530	0.000110
1816	1.8059e+02	-7.6843	-26.711709	0.000284	2.839011	0.961883	0.000114
1817	1.8069e+02	-7.6458	-26.594632	0.000294	2.940404	0.996236	0.000118
1818	1.8079e+02	-7.6009	-26.469480	0.000314	3.143191	1.064942	0.000126
1819	1.8089e+02	-7.5559	-26.328181	0.000355	3.548764	1.202354	0.000142
1820	1.8099e+02	-7.5287	-26.194955	0.000335	3.345977	1.133648	0.000134
1821	1.8109e+02	-7.4870	-26.130361	0.000162	1.622292	0.549647	0.000065
1822	1.8119e+02	-7.4436	-25.989061	0.000355	3.548764	1.202354	0.000142
1823	1.8129e+02	-7.4067	-25.888133	0.000253	2.534831	0.858824	0.000101
1824	1.8139e+02	-7.3618	-25.738759	0.000375	3.751550	1.271060	0.000150
1825	1.8149e+02	-7.3362	-25.658016	0.000203	2.027865	0.687059	0.000081
1826	1.8159e+02	-7.2912	-25.528828	0.000324	3.244584	1.099295	0.000130
1827	1.8169e+02	-7.2399	-25.435974	0.000233	2.332045	0.790118	0.000093
1828	1.8179e+02	-7.2014	-25.310823	0.000314	3.143191	1.064942	0.000126
1829	1.8189e+02	-7.1613	-25.169523	0.000355	3.548764	1.202354	0.000142
1830	1.8199e+02	-7.1324	-25.028223	0.000355	3.548764	1.202354	0.000142
1831	1.8209e+02	-7.0827	-24.975740	0.000132	1.318112	0.446589	0.000053
1832	1.8218e+02	-7.0426	-24.785995	0.000477	4.765483	1.614589	0.000191
1833	1.8228e+02	-7.0041	-24.697178	0.000223	2.230652	0.755765	0.000089
1834	1.8238e+02	-6.9672	-24.600287	0.000243	2.433438	0.824471	0.000097
1835	1.8248e+02	-6.9303	-24.458987	0.000355	3.548764	1.202354	0.000142
1836	1.8258e+02	-6.8966	-24.354021	0.000264	2.636225	0.893177	0.000105
1837	1.8268e+02	-6.8404	-24.253093	0.000253	2.534831	0.858824	0.000101
1838	1.8278e+02	-6.8019	-24.103719	0.000375	3.751550	1.271060	0.000150
1839	1.8288e+02	-6.7683	-24.022976	0.000203	2.027865	0.687059	0.000081
1840	1.8298e+02	-6.7314	-23.869565	0.000385	3.852944	1.305413	0.000154
1841	1.8308e+02	-6.6913	-23.800934	0.000172	1.723685	0.584000	0.000069
1842	1.8318e+02	-6.6479	-23.671745	0.000324	3.244584	1.099295	0.000130
1843	1.8328e+02	-6.6110	-23.534483	0.000345	3.447371	1.168001	0.000138
1844	1.8338e+02	-6.5677	-23.425480	0.000274	2.737618	0.927530	0.000110
1845	1.8348e+02	-6.5292	-23.328589	0.000243	2.433438	0.824471	0.000097
1846	1.8358e+02	-6.4875	-23.211512	0.000294	2.940404	0.996236	0.000118
1847	1.8368e+02	-6.4474	-23.094435	0.000294	2.940404	0.996236	0.000118
1848	1.8378e+02	-6.4089	-23.001581	0.000233	2.332045	0.790118	0.000093
1849	1.8388e+02	-6.3688	-22.900652	0.000253	2.534831	0.858824	0.000101
1850	1.8398e+02	-6.3303	-22.783576	0.000294	2.940404	0.996236	0.000118
1851	1.8407e+02	-6.2966	-22.658424	0.000314	3.143191	1.064942	0.000126
1852	1.8417e+02	-6.2613	-22.573644	0.000213	2.129258	0.721412	0.000085
1853	1.8427e+02	-6.2164	-22.436382	0.000345	3.447371	1.168001	0.000138
1854	1.8437e+02	-6.1699	-22.327379	0.000274	2.737618	0.927530	0.000110
1855	1.8447e+02	-6.1314	-22.202228	0.000314	3.143191	1.064942	0.000126
1856	1.8457e+02	-6.0849	-22.093225	0.000274	2.737618	0.927530	0.000110
1857	1.8467e+02	-6.0447	-21.984223	0.000274	2.737618	0.927530	0.000110
1858	1.8477e+02	-6.0159	-21.867146	0.000294	2.940404	0.996236	0.000118
1859	1.8487e+02	-5.9645	-21.754106	0.000284	2.839011	0.961883	0.000114
1860	1.8497e+02	-5.9196	-21.584546	0.000426	4.258517	1.442825	0.000170
1861	1.8507e+02	-5.8988	-21.511878	0.000183	1.825079	0.618353	0.000073
1862	1.8517e+02	-5.8506	-21.386727	0.000314	3.143191	1.064942	0.000126
1863	1.8527e+02	-5.8169	-21.314058	0.000183	1.825079	0.618353	0.000073
1864	1.8537e+02	-5.7784	-21.176796	0.000345	3.447371	1.168001	0.000138
1865	1.8547e+02	-5.7271	-21.047607	0.000324	3.244584	1.099295	0.000130
1866	1.8557e+02	-5.6918	-20.962827	0.000213	2.129258	0.721412	0.000085
1867	1.8567e+02	-5.6549	-20.849788	0.000284	2.839011	0.961883	0.000114
1868	1.8577e+02	-5.6100	-20.708488	0.000355	3.548764	1.202354	0.000142
1869	1.8587e+02	-5.5699	-20.583337	0.000314	3.143191	1.064942	0.000126
1870	1.8597e+02	-5.5298	-20.486445	0.000243	2.433438	0.824471	0.000097
1871	1.8606e+02	-5.4881	-20.413777	0.000183	1.825079	0.618353	0.000073
1872	1.8616e+02	-5.4512	-20.256329	0.000395	3.954337	1.339766	0.000158
1873	1.8626e+02	-5.4127	-20.151363	0.000264	2.636225	0.893177	0.000105
1874	1.8636e+02	-5.3694	-20.030249	0.000304	3.041798	1.030589	0.000122
1875	1.8646e+02	-5.3357	-19.884912	0.000365	3.650157	1.236707	0.000146
1876	1.8656e+02	-5.3020	-19.788021	0.000243	2.433438	0.824471	0.000097
1877	1.8666e+02	-5.2571	-19.687092	0.000253	2.534831	0.858824	0.000101
1878	1.8676e+02	-5.2105	-19.574053	0.000284	2.839011	0.961883	0.000114
1879	1.8686e+02	-5.1737	-19.436790	0.000345	3.447371	1.168001	0.000138
1880	1.8696e+02	-5.1448	-19.372196	0.000162	1.622292	0.549647	0.000065
1881	1.8706e+02	-5.0886	-19.202636	0.000426	4.258517	1.442825	0.000170
1882	1.8716e+02	-5.0501	-19.129968	0.000183	1.825079	0.618353	0.000073
1883	1.8726e+02	-5.0164	-18.964445	0.000416	4.157123	1.408472	0.000166
1884	1.8736e+02	-4.9731	-18.851405	0.000284	2.839011	0.961883	0.000114
1885	1.8746e+02	-4.9298	-18.790848	0.000152	1.520899	0.515294	0.000061
1886	1.8756e+02	-4.8961	-18.649549	0.000355	3.548764	1.202354	0.000142
1887	1.8766e+02	-4.8592	-18.556694	0.000233	2.332045	0.790118	0.000093
1888	1.8776e+02	-4.8111	-18.407320	0.000375	3.751550	1.271060	0.000150
1889	1.8786e+02	-4.7822	-18.270058	0.000345	3.447371	1.168001	0.000138
1890	1.8796e+02	-4.7389	-18.185278	0.000213	2.129258	0.721412	0.000085
1891	1.8806e+02	-4.6988	-18.027830	0.000395	3.954337	1.339766	0.000158
1892	1.8815e+02	-4.6635	-17.987458	0.000101	1.013933	0.343530	0.000041
1893	1.8825e+02	-4.6154	-17.821936	0.000416	4.157123	1.408472	0.000166
1894	1.8835e+02	-4.5833	-17.708896	0.000284	2.839011	0.961883	0.000114
1895	1.8845e+02	-4.5448	-17.591819	0.000294	2.940404	0.996236	0.000118
1896	1.8855e+02	-4.4983	-17.470705	0.000304	3.041798	1.030589	0.000122
1897	1.8865e+02	-4.4534	-17.321331	0.000375	3.751550	1.271060	0.000150
1898	1.8875e+02	-4.4181	-17.244625	0.000193	1.926472	0.652706	0.000077
1899	1.8885e+02	-4.3715	-17.107363	0.000345	3.447371	1.168001	0.000138
1900	1.8895e+02	-4.3330	-17.006434	0.000253	2.534831	0.858824	0.000101
1901	1.8905e+02	-4.2993	-16.905506	0.000253	2.534831	0.858824	0.000101
1902	1.8915e+02	-4.2576	-16.820726	0.000213	2.129258	0.721412	0.000085
1903	1.8925e+02	-4.2127	-16.663278	0.000395	3.954337	1.339766	0.000158
1904	1.8935e+02	-4.1726	-16.590609	0.000183	1.825079	0.618353	0.000073
1905	1.8945e+02	-4.1373	-16.457384	0.000335	3.345977	1.133648	0.000134
1906	1.8955e+02	-4.1004	-16.332233	0.000314	3.143191	1.064942	0.000126
1907	1.8965e+02	-4.0635	-16.215156	0.000294	2.940404	0.996236	0.000118
1908	1.8975e+02	-4.0122	-16.102116	0.000284	2.839011	0.961883	0.000114
1909	1.8985e+02	-3.9785	-15.993113	0.000274	2.737618	0.927530	0.000110
1910	1.8995e+02	-3.9352	-15.859888	0.000335	3.345977	1.133648	0.000134
1911	1.9004e+02	-3.9015	-15.754922	0.000264	2.636225	0.893177	0.000105
1912	1.9014e+02	-3.8598	-15.633808	0.000304	3.041798	1.030589	0.000122
1913	1.9024e+02	-3.8325	-15.549028	0.000213	2.129258	0.721412	0.000085
1914	1.9034e+02	-3.7828	-15.419840	0.000324	3.244584	1.099295	0.000130
1915	1.9044e+02	-3.7298	-15.318912	0.000253	2.534831	0.858824	0.000101
1916	1.9054e+02	-3.7090	-15.181649	0.000345	3.447371	1.168001	0.000138
1917	1.9064e+02	-3.6544	-15.044386	0.000345	3.447371	1.168001	0.000138
1918	1.9074e+02	-3.6143	-14.935384	0.000274	2.737618	0.927530	0.000110
1919	1.9084e+02	-3.5774	-14.765824	0.000426	4.258517	1.442825	0.000170
1920	1.9094e+02	-3.5438	-14.725453	0.000101	1.013933	0.343530	0.000041
1921	1.9104e+02	-3.4940	-14.592227	0.000335	3.345977	1.133648	0.000134
1922	1.9114e+02	-3.4651	-14.499373	0.000233	2.332045	0.790118	0.000093
1923	1.9124e+02	-3.4218	-14.337888	0.000406	4.055730	1.374119	0.000162
1924	1.9134e+02	-3.3769	-14.200625	0.000345	3.447371	1.168001	0.000138
1925	1.9144e+02	-3.3448	-14.079511	0.000304	3.041798	1.030589	0.000122
1926	1.9154e+02	-3.3047	-14.014917	0.000162	1.622292	0.549647	0.000065
1927	1.9164e+02	-3.2646	-13.881691	0.000335	3.345977	1.133648	0.000134
1928	1.9174e+02	-3.2133	-13.744429	0.000345	3.447371	1.168001	0.000138
1929	1.9184e+02	-3.1892	-13.647537	0.000243	2.433438	0.824471	0.000097
1930	1.9194e+02	-3.1411	-13.469903	0.000446	4.461303	1.511530	0.000179
1931	1.9203e+02	-3.1042	-13.397235	0.000183	1.825079	0.618353	0.000073
1932	1.9213e+02	-3.0641	-13.255935	0.000355	3.548764	1.202354	0.000142
1933	1.9223e+02	-3.0240	-13.122710	0.000335	3.345977	1.133648	0.000134
1934	1.9233e+02	-2.9775	-13.058116	0.000162	1.622292	0.549647	0.000065
1935	1.9243e+02	-2.9486	-12.888556	0.000426	4.258517	1.442825	0.000170
1936	1.9253e+02	-2.9101	-12.763405	0.000314	3.143191	1.064942	0.000126
1937	1.9263e+02	-2.8636	-12.642291	0.000304	3.041798	1.030589	0.000122
1938	1.9273e+02	-2.8218	-12.492917	0.000375	3.751550	1.271060	0.000150
1939	1.9283e+02	-2.7898	-12.396025	0.000243	2.433438	0.824471	0.000097
1940	1.9293e+02	-2.7400	-12.266837	0.000324	3.244584	1.099295	0.000130
1941	1.9303e+02	-2.7031	-12.137649	0.000324	3.244584	1.099295	0.000130
1942	1.9313e+02	-2.6614	-12.008460	0.000324	3.244584	1.099295	0.000130
1943	1.9323e+02	-2.6213	-11.907532	0.000253	2.534831	0.858824	0.000101
1944	1.9333e+02	-2.5844	-11.798529	0.000274	2.737618	0.927530	0.000110
1945	1.9343e+02	-2.5491	-11.620895	0.000446	4.461303	1.511530	0.000179
1946	1.9353e+02	-2.5042	-11.519967	0.000253	2.534831	0.858824	0.000101
1947	1.9363e+02	-2.4641	-11.394816	0.000314	3.143191	1.064942	0.000126
1948	1.9373e+02	-2.4272	-11.273702	0.000304	3.041798	1.030589	0.000122
1949	1.9383e+02	-2.3823	-11.180847	0.000233	2.332045	0.790118	0.000093
1950	1.9393e+02	-2.3406	-11.011288	0.000426	4.258517	1.442825	0.000170
1951	1.9403e+02	-2.3037	-10.886137	0.000314	3.143191	1.064942	0.000126
1952	1.9412e+02	-2.2684	-10.760985	0.000314	3.143191	1.064942	0.000126
1953	1.9422e+02	-2.2267	-10.680243	0.000203	2.027865	0.687059	0.000081
1954	1.9432e+02	-2.1689	-10.538943	0.000355	3.548764	1.202354	0.000142
1955	1.9442e+02	-2.1529	-10.385532	0.000385	3.852944	1.305413	0.000154
1956	1.9452e+02	-2.0967	-10.260380	0.000314	3.143191	1.064942	0.000126
1957	1.9462e+02	-2.0727	-10.151378	0.000274	2.737618	0.927530	0.000110
1958	1.9472e+02	-2.0326	-10.050449	0.000253	2.534831	0.858824	0.000101
1959	1.9482e+02	-1.9909	-9.880890	0.000426	4.258517	1.442825	0.000170
1960	1.9492e+02	-1.9507	-9.767850	0.000284	2.839011	0.961883	0.000114
1961	1.9502e+02	-1.9058	-9.618476	0.000375	3.751550	1.271060	0.000150
1962	1.9512e+02	-1.8673	-9.493325	0.000314	3.143191	1.064942	0.000126
1963	1.9522e+02	-1.8240	-9.352025	0.000355	3.548764	1.202354	0.000142
1964	1.9532e+02	-1.7887	-9.263208	0.000223	2.230652	0.755765	0.000089
1965	1.9542e+02	-1.7518	-9.105760	0.000395	3.954337	1.339766	0.000158
1966	1.9552e+02	-1.7085	-9.029054	0.000193	1.926472	0.652706	0.000077
1967	1.9562e+02	-1.6620	-8.847383	0.000456	4.562696	1.545883	0.000183
1968	1.9572e+02	-1.6379	-8.746455	0.000253	2.534831	0.858824	0.000101
1969	1.9582e+02	-1.5834	-8.601118	0.000365	3.650157	1.236707	0.000146
1970	1.9592e+02	-1.5465	-8.471929	0.000324	3.244584	1.099295	0.000130
1971	1.9601e+02	-1.5064	-8.338704	0.000335	3.345977	1.133648	0.000134
1972	1.9611e+02	-1.4711	-8.237775	0.000253	2.534831	0.858824	0.000101
1973	1.9621e+02	-1.4230	-8.108587	0.000324	3.244584	1.099295	0.000130
1974	1.9631e+02	-1.3957	-8.039956	0.000172	1.723685	0.584000	0.000069
1975	1.9641e+02	-1.3540	-7.842136	0.000497	4.968270	1.683295	0.000199
1976	1.9651e+02	-1.3219	-7.729096	0.000284	2.839011	0.961883	0.000114
1977	1.9661e+02	-1.2689	-7.603945	0.000314	3.143191	1.064942	0.000126
1978	1.9671e+02	-1.2288	-7.450534	0.000385	3.852944	1.305413	0.000154
1979	1.9681e+02	-1.1887	-7.361717	0.000223	2.230652	0.755765	0.000089
1980	1.9691e+02	-1.1534	-7.216380	0.000365	3.650157	1.236707	0.000146
1981	1.9701e+02	-1.1149	-7.083155	0.000335	3.345977	1.133648	0.000134
1982	1.9711e+02	-1.0716	-6.958003	0.000314	3.143191	1.064942	0.000126
1983	1.9721e+02	-1.0363	-6.816704	0.000355	3.548764	1.202354	0.000142
1984	1.9731e+02	-0.9850	-6.683478	0.000335	3.345977	1.133648	0.000134
1985	1.9741e+02	-0.9577	-6.538141	0.000365	3.650157	1.236707	0.000146
1986	1.9751e+02	-0.9032	-6.408953	0.000324	3.244584	1.099295	0.000130
1987	1.9761e+02	-0.8727	-6.283802	0.000314	3.143191	1.064942	0.000126
1988	1.9771e+02	-0.8326	-6.138465	0.000365	3.650157	1.236707	0.000146
1989	1.9781e+02	-0.7829	-6.001202	0.000345	3.447371	1.168001	0.000138
1990	1.9791e+02	-0.7540	-5.908348	0.000233	2.332045	0.790118	0.000093
1991	1.9800e+02	-0.7107	-5.734751	0.000436	4.359910	1.477177	0.000174
1992	1.9810e+02	-0.6754	-5.633823	0.000253	2.534831	0.858824	0.000101
1993	1.9820e+02	-0.6305	-5.504635	0.000324	3.244584	1.099295	0.000130
1994	1.9830e+02	-0.5871	-5.347186	0.000395	3.954337	1.339766	0.000158
1995	1.9840e+02	-0.5503	-5.230109	0.000294	2.940404	0.996236	0.000118
1996	1.9850e+02	-0.5069	-5.113032	0.000294	2.940404	0.996236	0.000118
1997	1.9860e+02	-0.4716	-4.947510	0.000416	4.157123	1.408472	0.000166
1998	1.9870e+02	-0.4364	-4.838507	0.000274	2.737618	0.927530	0.000110
1999	1.9880e+02	-0.3946	-4.681059	0.000395	3.954337	1.339766	0.000158
2000	1.9890e+02	-0.3529	-4.551871	0.000324	3.244584	1.099295	0.000130
2001	1.9900e+02	-0.3192	-4.414608	0.000345	3.447371	1.168001	0.000138
2002	1.9910e+02	-0.2663	-4.281382	0.000335	3.345977	1.133648	0.000134
2003	1.9920e+02	-0.2374	-4.188528	0.000233	2.332045	0.790118	0.000093
2004	1.9930e+02	-0.1957	-4.047229	0.000355	3.548764	1.202354	0.000142
2005	1.9940e+02	-0.1588	-3.885743	0.000406	4.055730	1.374119	0.000162
2006	1.9950e+02	-0.1107	-3.776740	0.000274	2.737618	0.927530	0.000110
2007	1.9960e+02	-0.0786	-3.643515	0.000335	3.345977	1.133648	0.000134
2008	1.9970e+02	-0.0337	-3.526438	0.000294	2.940404	0.996236	0.000118
2009	1.9980e+02	-0.0016	-3.364953	0.000294	2.940404	0.996236	0.000162

PMax (uC/cm2):	6.39e+01
Pr (uC/cm2):	9.00e+00
-Pr (uC/cm2):	4.91e+00
PLoss (uC/cm2):	4.90e+00
Vc:	-1.49e+00
-Vc:	-2.79e+00
C (Max-Eff) (nF):	3.20e-01
K (Eff):	1.08e+03
Vert. (+/-Pr) Shift (uC/cm2):	6.96e+00
Horiz. Shift (+/-Vc):	-2.14e+00
Offset (uC/cm2):	8.28e+00

A (Loop Area - uC/cm2·Volts):	-3.69e-01



Hysteresis Version: 5.48.1 - Radiant Technologies, Inc., 1999 - 9/12/24

