»»»»»»»»»»»»»»»»»»»»»»»»»»»»»»»»»»»» Hysteresis ««««««««««««««««««««««««««««««««««««
»»»  Executed Version:	5.48.1
»»»  Vision Version:	5.48.4 (R)
»»»  Vision Compiled:	9/18/24
»»»  Driver Version:	5.47.0
»»»  Windows Version:	Windows 8 or 8.1
»»»  Processor Information:	x86 (AMD or Intel) - 32 Processors
»»»  Tester Name:	PMF21124-494 (100V)
»»»  Tester S/N:	PMF21124-494
»»»  Internal Amp Type:	100V RevK 270k
»»»  Internal Amp S/N:	iAB2-596/K     
»»»  Execution Count:	1
»»»»»»»»»»»»»»»»»»»»»»»»»»»»»»»»»»»»»»»»»»««««««««««««««««««««««««««««««««««««««««««

Stored:	6/19/2025 - 18:0:3
Configured:	06/19/25 10:04:32 AM
Executed:	06/19/25 05:59:25 PM

»»»»»»»»»»»»»»»»»»»»»»»»»»»»»»»»»»» Sample Info ««««««««««««««««««««««««««««««««««««
Sample Name:	
Lot Name:	
Wafer Name:	
Die Row/Column:	0/0
Capacitor Number:	0
Sample Area (cm2):	1.00e-04
Sample Thickness (microns):	3.00e-01

Amplifier:	Internal

»»»»»»»»»»»»»»»»»»»»»»»»»»»»»»»»»»» Tester Info «««««««««««««««««««««««««««««««««««
Tester Name:	PMF21124-494 (100V)
Tester Serial Number:	PMF21124-494
Return Signal Amp. Level:	0.19 [Index: 3]

»»»»»»»»»»»»»»»»»»»»»»»»»»»»»»»» Hysteresis Info ««««««««««««««««««««««««««««««««««
Task Name:	Hyst-1168
Volts:	20.00
Field:	666.67 (kV/cm)
DCBias:	0.00
DCField:	0.00 (kV/cm)
Hysteresis Period (ms):	2.00e+02
Preset:	Enabled
Preset Delay (ms):	1.00e+03
Profile:	Standard Bipolar

»»»»»»»»»»»»»»»»»»»»»»»»»»»»»»»»»»»»»» Data «««««««««««««««««««««««««««««««««««««««
Points:	2009

Valid Data

Point	Time (ms)	Drive Voltage	Measured Polarization (uC/cm2)	Capacitance (uF)	Normalized Capacitance (uF/cm2)	Dielectric Constant	Instantaneous Current (mA)
   1	0.0000e+00	0.0160	-3.421473	0.000162	1.621999	0.549548	0.000065
   2	9.9500e-02	0.0417	-3.356878	0.000162	1.621999	0.549548	0.000065
   3	1.9900e-01	0.0754	-3.259987	0.000243	2.432999	0.824322	0.000097
   4	2.9850e-01	0.1203	-3.171170	0.000223	2.230249	0.755629	0.000089
   5	3.9800e-01	0.1668	-3.029870	0.000355	3.548123	1.202137	0.000142
   6	4.9750e-01	0.1957	-2.932979	0.000243	2.432999	0.824322	0.000097
   7	5.9700e-01	0.2390	-2.815902	0.000294	2.939874	0.996056	0.000118
   8	6.9650e-01	0.2743	-2.702862	0.000284	2.838499	0.961709	0.000114
   9	7.9600e-01	0.3241	-2.610008	0.000233	2.331624	0.789976	0.000093
  10	8.9550e-01	0.3577	-2.496968	0.000284	2.838499	0.961709	0.000114
  11	9.9500e-01	0.3914	-2.416226	0.000203	2.027499	0.686935	0.000081
  12	1.0945e+00	0.4396	-2.278963	0.000345	3.446748	1.167790	0.000138
  13	1.1940e+00	0.4765	-2.149775	0.000324	3.243998	1.099096	0.000130
  14	1.2935e+00	0.5182	-2.052884	0.000243	2.432999	0.824322	0.000097
  15	1.3930e+00	0.5551	-1.919658	0.000335	3.345373	1.133443	0.000134
  16	1.4925e+00	0.5920	-1.855064	0.000162	1.621999	0.549548	0.000065
  17	1.5920e+00	0.6337	-1.717801	0.000345	3.446748	1.167790	0.000138
  18	1.6915e+00	0.6754	-1.637059	0.000203	2.027499	0.686935	0.000081
  19	1.7910e+00	0.7155	-1.536130	0.000253	2.534374	0.858669	0.000101
  20	1.8905e+00	0.7588	-1.374645	0.000405	4.054998	1.373870	0.000162
  21	1.9900e+00	0.7973	-1.306013	0.000172	1.723374	0.583895	0.000069
  22	2.0895e+00	0.8374	-1.128379	0.000446	4.460498	1.511258	0.000179
  23	2.1890e+00	0.8775	-1.039562	0.000223	2.230249	0.755629	0.000089
  24	2.2885e+00	0.9016	-0.938634	0.000253	2.534374	0.858669	0.000101
  25	2.3880e+00	0.9529	-0.833669	0.000264	2.635749	0.893016	0.000105
  26	2.4875e+00	0.9914	-0.700443	0.000335	3.345373	1.133443	0.000134
  27	2.5870e+00	1.0267	-0.575292	0.000314	3.142623	1.064750	0.000126
  28	2.6865e+00	1.0748	-0.486475	0.000223	2.230249	0.755629	0.000089
  29	2.7860e+00	1.1117	-0.337101	0.000375	3.750873	1.270830	0.000150
  30	2.8855e+00	1.1486	-0.232135	0.000264	2.635749	0.893016	0.000105
  31	2.9850e+00	1.2000	-0.139281	0.000233	2.331624	0.789976	0.000093
  32	3.0845e+00	1.2288	-0.034316	0.000264	2.635749	0.893016	0.000105
  33	3.1840e+00	1.2706	0.102947	0.000345	3.446748	1.167790	0.000138
  34	3.2835e+00	1.3123	0.224061	0.000304	3.041248	1.030403	0.000122
  35	3.3830e+00	1.3492	0.333064	0.000274	2.737124	0.927363	0.000110
  36	3.4825e+00	1.4021	0.470326	0.000345	3.446748	1.167790	0.000138
  37	3.5820e+00	1.4262	0.579329	0.000274	2.737124	0.927363	0.000110
  38	3.6815e+00	1.4743	0.696406	0.000294	2.939874	0.996056	0.000118
  39	3.7810e+00	1.5176	0.825594	0.000324	3.243998	1.099096	0.000130
  40	3.8805e+00	1.5577	0.922486	0.000243	2.432999	0.824322	0.000097
  41	3.9800e+00	1.5914	1.043600	0.000304	3.041248	1.030403	0.000122
  42	4.0795e+00	1.6299	1.197011	0.000385	3.852248	1.305177	0.000154
  43	4.1790e+00	1.6748	1.314088	0.000294	2.939874	0.996056	0.000118
  44	4.2785e+00	1.7133	1.423090	0.000274	2.737124	0.927363	0.000110
  45	4.3780e+00	1.7502	1.511907	0.000223	2.230249	0.755629	0.000089
  46	4.4775e+00	1.7839	1.620910	0.000274	2.737124	0.927363	0.000110
  47	4.5770e+00	1.8320	1.746061	0.000314	3.142623	1.064750	0.000126
  48	4.6765e+00	1.8561	1.919658	0.000436	4.359123	1.476911	0.000174
  49	4.7760e+00	1.9106	1.976178	0.000142	1.419249	0.480855	0.000057
  50	4.8755e+00	1.9556	2.093255	0.000294	2.939874	0.996056	0.000118
  51	4.9750e+00	1.9892	2.234555	0.000355	3.548123	1.202137	0.000142
  52	5.0745e+00	2.0310	2.351632	0.000294	2.939874	0.996056	0.000118
  53	5.1740e+00	2.0695	2.509080	0.000395	3.953623	1.339524	0.000158
  54	5.2735e+00	2.1128	2.601934	0.000233	2.331624	0.789976	0.000093
  55	5.3730e+00	2.1481	2.710937	0.000274	2.737124	0.927363	0.000110
  56	5.4725e+00	2.1930	2.856274	0.000365	3.649498	1.236483	0.000146
  57	5.5720e+00	2.2315	2.949128	0.000233	2.331624	0.789976	0.000093
  58	5.6715e+00	2.2668	3.130799	0.000456	4.561873	1.545604	0.000183
  59	5.7710e+00	2.3101	3.247876	0.000294	2.939874	0.996056	0.000118
  60	5.8705e+00	2.3486	3.324581	0.000193	1.926124	0.652588	0.000077
  61	5.9700e+00	2.3839	3.441658	0.000294	2.939874	0.996056	0.000118
  62	6.0695e+00	2.4256	3.599107	0.000395	3.953623	1.339524	0.000158
  63	6.1690e+00	2.4689	3.671775	0.000182	1.824749	0.618242	0.000073
  64	6.2685e+00	2.5074	3.837298	0.000416	4.156373	1.408217	0.000166
  65	6.3680e+00	2.5427	3.926115	0.000223	2.230249	0.755629	0.000089
  66	6.4675e+00	2.5956	4.071451	0.000365	3.649498	1.236483	0.000146
  67	6.5670e+00	2.6309	4.192565	0.000304	3.041248	1.030403	0.000122
  68	6.6665e+00	2.6759	4.293494	0.000253	2.534374	0.858669	0.000101
  69	6.7660e+00	2.7031	4.463054	0.000426	4.257748	1.442564	0.000170
  70	6.8655e+00	2.7384	4.515536	0.000132	1.317874	0.446508	0.000053
  71	6.9650e+00	2.7914	4.681059	0.000416	4.156373	1.408217	0.000166
  72	7.0645e+00	2.8299	4.790062	0.000274	2.737124	0.927363	0.000110
  73	7.1640e+00	2.8636	4.939436	0.000375	3.750873	1.270830	0.000150
  74	7.2635e+00	2.9117	5.052475	0.000284	2.838499	0.961709	0.000114
  75	7.3630e+00	2.9550	5.165515	0.000284	2.838499	0.961709	0.000114
  76	7.4625e+00	2.9935	5.327001	0.000405	4.054998	1.373870	0.000162
  77	7.5620e+00	3.0192	5.440040	0.000284	2.838499	0.961709	0.000114
  78	7.6615e+00	3.0673	5.601526	0.000405	4.054998	1.373870	0.000162
  79	7.7610e+00	3.1058	5.678231	0.000193	1.926124	0.652588	0.000077
  80	7.8605e+00	3.1475	5.823568	0.000365	3.649498	1.236483	0.000146
  81	7.9600e+00	3.1844	5.952757	0.000324	3.243998	1.099096	0.000130
  82	8.0595e+00	3.2261	6.061759	0.000274	2.737124	0.927363	0.000110
  83	8.1590e+00	3.2758	6.182873	0.000304	3.041248	1.030403	0.000122
  84	8.2585e+00	3.3111	6.324173	0.000355	3.548123	1.202137	0.000142
  85	8.3580e+00	3.3448	6.441250	0.000294	2.939874	0.996056	0.000118
  86	8.4575e+00	3.3785	6.562364	0.000304	3.041248	1.030403	0.000122
  87	8.5570e+00	3.4186	6.723850	0.000405	4.054998	1.373870	0.000162
  88	8.6565e+00	3.4684	6.861112	0.000345	3.446748	1.167790	0.000138
  89	8.7560e+00	3.5052	6.994338	0.000335	3.345373	1.133443	0.000134
  90	8.8555e+00	3.5438	7.111415	0.000294	2.939874	0.996056	0.000118
  91	8.9550e+00	3.5871	7.216380	0.000264	2.635749	0.893016	0.000105
  92	9.0545e+00	3.6272	7.369791	0.000385	3.852248	1.305177	0.000154
  93	9.1540e+00	3.6785	7.498980	0.000324	3.243998	1.099096	0.000130
  94	9.2535e+00	3.6994	7.579722	0.000203	2.027499	0.686935	0.000081
  95	9.3530e+00	3.7427	7.733134	0.000385	3.852248	1.305177	0.000154
  96	9.4525e+00	3.7924	7.866359	0.000335	3.345373	1.133443	0.000134
  97	9.5520e+00	3.8261	7.955176	0.000223	2.230249	0.755629	0.000089
  98	9.6515e+00	3.8646	8.132810	0.000446	4.460498	1.511258	0.000179
  99	9.7510e+00	3.9063	8.229701	0.000243	2.432999	0.824322	0.000097
 100	9.8505e+00	3.9416	8.375038	0.000365	3.649498	1.236483	0.000146
 101	9.9500e+00	3.9849	8.471929	0.000243	2.432999	0.824322	0.000097
 102	1.0050e+01	4.0250	8.617266	0.000365	3.649498	1.236483	0.000146
 103	1.0149e+01	4.0748	8.754529	0.000345	3.446748	1.167790	0.000138
 104	1.0248e+01	4.1116	8.875643	0.000304	3.041248	1.030403	0.000122
 105	1.0348e+01	4.1437	9.000794	0.000314	3.142623	1.064750	0.000126
 106	1.0447e+01	4.1774	9.150168	0.000375	3.750873	1.270830	0.000150
 107	1.0547e+01	4.2175	9.238985	0.000223	2.230249	0.755629	0.000089
 108	1.0646e+01	4.2689	9.343951	0.000264	2.635749	0.893016	0.000105
 109	1.0746e+01	4.2993	9.481213	0.000345	3.446748	1.167790	0.000138
 110	1.0845e+01	4.3394	9.634624	0.000385	3.852248	1.305177	0.000154
 111	1.0945e+01	4.3747	9.755739	0.000304	3.041248	1.030403	0.000122
 112	1.1044e+01	4.4213	9.860704	0.000264	2.635749	0.893016	0.000105
 113	1.1144e+01	4.4598	10.002004	0.000355	3.548123	1.202137	0.000142
 114	1.1243e+01	4.4983	10.159452	0.000395	3.953623	1.339524	0.000158
 115	1.1343e+01	4.5480	10.288640	0.000324	3.243998	1.099096	0.000130
 116	1.1443e+01	4.5769	10.405717	0.000294	2.939874	0.996056	0.000118
 117	1.1542e+01	4.6218	10.506646	0.000253	2.534374	0.858669	0.000101
 118	1.1642e+01	4.6539	10.623723	0.000294	2.939874	0.996056	0.000118
 119	1.1741e+01	4.6860	10.732725	0.000274	2.737124	0.927363	0.000110
 120	1.1841e+01	4.7485	10.874025	0.000355	3.548123	1.202137	0.000142
 121	1.1940e+01	4.7854	10.995139	0.000304	3.041248	1.030403	0.000122
 122	1.2040e+01	4.8191	11.116253	0.000304	3.041248	1.030403	0.000122
 123	1.2139e+01	4.8576	11.229293	0.000284	2.838499	0.961709	0.000114
 124	1.2239e+01	4.8929	11.350407	0.000304	3.041248	1.030403	0.000122
 125	1.2338e+01	4.9362	11.507855	0.000395	3.953623	1.339524	0.000158
 126	1.2438e+01	4.9795	11.612821	0.000264	2.635749	0.893016	0.000105
 127	1.2537e+01	5.0196	11.737972	0.000314	3.142623	1.064750	0.000126
 128	1.2636e+01	5.0598	11.846975	0.000274	2.737124	0.927363	0.000110
 129	1.2736e+01	5.0983	11.992312	0.000365	3.649498	1.236483	0.000146
 130	1.2835e+01	5.1335	12.137649	0.000365	3.649498	1.236483	0.000146
 131	1.2935e+01	5.1720	12.242614	0.000264	2.635749	0.893016	0.000105
 132	1.3034e+01	5.2186	12.355654	0.000284	2.838499	0.961709	0.000114
 133	1.3134e+01	5.2603	12.509065	0.000385	3.852248	1.305177	0.000154
 134	1.3233e+01	5.2956	12.634216	0.000314	3.142623	1.064750	0.000126
 135	1.3333e+01	5.3405	12.706885	0.000182	1.824749	0.618242	0.000073
 136	1.3432e+01	5.3742	12.868370	0.000405	4.054998	1.373870	0.000162
 137	1.3532e+01	5.4175	12.981410	0.000284	2.838499	0.961709	0.000114
 138	1.3632e+01	5.4576	13.102524	0.000304	3.041248	1.030403	0.000122
 139	1.3731e+01	5.4929	13.247861	0.000365	3.649498	1.236483	0.000146
 140	1.3831e+01	5.5378	13.352826	0.000264	2.635749	0.893016	0.000105
 141	1.3930e+01	5.5683	13.490089	0.000345	3.446748	1.167790	0.000138
 142	1.4030e+01	5.6164	13.595055	0.000264	2.635749	0.893016	0.000105
 143	1.4129e+01	5.6389	13.756540	0.000405	4.054998	1.373870	0.000162
 144	1.4229e+01	5.6918	13.849394	0.000233	2.331624	0.789976	0.000093
 145	1.4328e+01	5.7399	13.962434	0.000284	2.838499	0.961709	0.000114
 146	1.4428e+01	5.7736	14.140068	0.000446	4.460498	1.511258	0.000179
 147	1.4527e+01	5.8234	14.224848	0.000213	2.128874	0.721282	0.000085
 148	1.4627e+01	5.8571	14.325776	0.000253	2.534374	0.858669	0.000101
 149	1.4726e+01	5.8859	14.491299	0.000416	4.156373	1.408217	0.000166
 150	1.4825e+01	5.9357	14.568004	0.000193	1.926124	0.652588	0.000077
 151	1.4925e+01	5.9838	14.745638	0.000446	4.460498	1.511258	0.000179
 152	1.5024e+01	6.0191	14.866752	0.000304	3.041248	1.030403	0.000122
 153	1.5124e+01	6.0528	14.975755	0.000274	2.737124	0.927363	0.000110
 154	1.5223e+01	6.0993	15.104943	0.000324	3.243998	1.099096	0.000130
 155	1.5323e+01	6.1346	15.177612	0.000182	1.824749	0.618242	0.000073
 156	1.5422e+01	6.1763	15.298726	0.000304	3.041248	1.030403	0.000122
 157	1.5522e+01	6.2132	15.452137	0.000385	3.852248	1.305177	0.000154
 158	1.5621e+01	6.2533	15.577288	0.000314	3.142623	1.064750	0.000126
 159	1.5721e+01	6.2982	15.726662	0.000375	3.750873	1.270830	0.000150
 160	1.5820e+01	6.3239	15.839702	0.000284	2.838499	0.961709	0.000114
 161	1.5920e+01	6.3752	15.948705	0.000274	2.737124	0.927363	0.000110
 162	1.6020e+01	6.4105	16.053670	0.000264	2.635749	0.893016	0.000105
 163	1.6119e+01	6.4538	16.215156	0.000405	4.054998	1.373870	0.000162
 164	1.6218e+01	6.4939	16.295898	0.000203	2.027499	0.686935	0.000081
 165	1.6318e+01	6.5180	16.449310	0.000385	3.852248	1.305177	0.000154
 166	1.6418e+01	6.5806	16.566387	0.000294	2.939874	0.996056	0.000118
 167	1.6517e+01	6.6046	16.663278	0.000243	2.432999	0.824322	0.000097
 168	1.6616e+01	6.6544	16.788429	0.000314	3.142623	1.064750	0.000126
 169	1.6716e+01	6.6832	16.953952	0.000416	4.156373	1.408217	0.000166
 170	1.6816e+01	6.7314	17.010471	0.000142	1.419249	0.480855	0.000057
 171	1.6915e+01	6.7683	17.151771	0.000355	3.548123	1.202137	0.000142
 172	1.7015e+01	6.8148	17.301145	0.000375	3.750873	1.270830	0.000150
 173	1.7114e+01	6.8597	17.361702	0.000152	1.520624	0.515201	0.000061
 174	1.7213e+01	6.8934	17.515113	0.000385	3.852248	1.305177	0.000154
 175	1.7313e+01	6.9175	17.644302	0.000324	3.243998	1.099096	0.000130
 176	1.7413e+01	6.9640	17.793676	0.000375	3.750873	1.270830	0.000150
 177	1.7512e+01	7.0137	17.890567	0.000243	2.432999	0.824322	0.000097
 178	1.7611e+01	7.0554	18.003607	0.000284	2.838499	0.961709	0.000114
 179	1.7711e+01	7.0827	18.140869	0.000345	3.446748	1.167790	0.000138
 180	1.7811e+01	7.1292	18.261984	0.000304	3.041248	1.030403	0.000122
 181	1.7910e+01	7.1725	18.395209	0.000335	3.345373	1.133443	0.000134
 182	1.8009e+01	7.2126	18.524397	0.000324	3.243998	1.099096	0.000130
 183	1.8109e+01	7.2479	18.633400	0.000274	2.737124	0.927363	0.000110
 184	1.8209e+01	7.2928	18.730291	0.000243	2.432999	0.824322	0.000097
 185	1.8308e+01	7.3249	18.871591	0.000355	3.548123	1.202137	0.000142
 186	1.8407e+01	7.3666	19.004816	0.000335	3.345373	1.133443	0.000134
 187	1.8507e+01	7.4132	19.125931	0.000304	3.041248	1.030403	0.000122
 188	1.8607e+01	7.4549	19.259156	0.000335	3.345373	1.133443	0.000134
 189	1.8706e+01	7.4950	19.372196	0.000284	2.838499	0.961709	0.000114
 190	1.8805e+01	7.5255	19.473124	0.000253	2.534374	0.858669	0.000101
 191	1.8905e+01	7.5720	19.610387	0.000345	3.446748	1.167790	0.000138
 192	1.9005e+01	7.6057	19.783984	0.000436	4.359123	1.476911	0.000174
 193	1.9104e+01	7.6442	19.876838	0.000233	2.331624	0.789976	0.000093
 194	1.9203e+01	7.6923	19.993915	0.000294	2.939874	0.996056	0.000118
 195	1.9303e+01	7.7276	20.143289	0.000375	3.750873	1.270830	0.000150
 196	1.9402e+01	7.7629	20.264403	0.000304	3.041248	1.030403	0.000122
 197	1.9502e+01	7.8126	20.429925	0.000416	4.156373	1.408217	0.000166
 198	1.9602e+01	7.8431	20.478371	0.000122	1.216499	0.412161	0.000049
 199	1.9701e+01	7.8864	20.635819	0.000395	3.953623	1.339524	0.000158
 200	1.9800e+01	7.9233	20.765008	0.000324	3.243998	1.099096	0.000130
 201	1.9900e+01	7.9698	20.886122	0.000304	3.041248	1.030403	0.000122
 202	2.0000e+01	8.0147	20.999162	0.000284	2.838499	0.961709	0.000114
 203	2.0099e+01	8.0500	21.124313	0.000314	3.142623	1.064750	0.000126
 204	2.0198e+01	8.0837	21.277724	0.000385	3.852248	1.305177	0.000154
 205	2.0298e+01	8.1367	21.406912	0.000324	3.243998	1.099096	0.000130
 206	2.0398e+01	8.1623	21.540138	0.000335	3.345373	1.133443	0.000134
 207	2.0497e+01	8.2024	21.653178	0.000284	2.838499	0.961709	0.000114
 208	2.0596e+01	8.2425	21.802552	0.000375	3.750873	1.270830	0.000150
 209	2.0696e+01	8.2794	21.907517	0.000264	2.635749	0.893016	0.000105
 210	2.0796e+01	8.3276	22.048817	0.000355	3.548123	1.202137	0.000142
 211	2.0895e+01	8.3597	22.186079	0.000345	3.446748	1.167790	0.000138
 212	2.0994e+01	8.4062	22.331416	0.000365	3.649498	1.236483	0.000146
 213	2.1094e+01	8.4511	22.428308	0.000243	2.432999	0.824322	0.000097
 214	2.1194e+01	8.4864	22.565570	0.000345	3.446748	1.167790	0.000138
 215	2.1293e+01	8.5137	22.723019	0.000395	3.953623	1.339524	0.000158
 216	2.1392e+01	8.5618	22.807798	0.000213	2.128874	0.721282	0.000085
 217	2.1492e+01	8.6067	22.928912	0.000304	3.041248	1.030403	0.000122
 218	2.1591e+01	8.6468	23.062138	0.000335	3.345373	1.133443	0.000134
 219	2.1691e+01	8.6853	23.207475	0.000365	3.649498	1.236483	0.000146
 220	2.1791e+01	8.7206	23.324552	0.000294	2.939874	0.996056	0.000118
 221	2.1890e+01	8.7671	23.437592	0.000284	2.838499	0.961709	0.000114
 222	2.1989e+01	8.8104	23.562743	0.000314	3.142623	1.064750	0.000126
 223	2.2089e+01	8.8522	23.695968	0.000335	3.345373	1.133443	0.000134
 224	2.2189e+01	8.8794	23.837268	0.000355	3.548123	1.202137	0.000142
 225	2.2288e+01	8.9260	23.934159	0.000243	2.432999	0.824322	0.000097
 226	2.2387e+01	8.9532	24.091608	0.000395	3.953623	1.339524	0.000158
 227	2.2487e+01	8.9917	24.245019	0.000385	3.852248	1.305177	0.000154
 228	2.2587e+01	9.0415	24.378244	0.000335	3.345373	1.133443	0.000134
 229	2.2686e+01	9.0816	24.479173	0.000253	2.534374	0.858669	0.000101
 230	2.2785e+01	9.1153	24.596249	0.000294	2.939874	0.996056	0.000118
 231	2.2885e+01	9.1586	24.741586	0.000365	3.649498	1.236483	0.000146
 232	2.2985e+01	9.2115	24.886923	0.000365	3.649498	1.236483	0.000146
 233	2.3084e+01	9.2420	24.999963	0.000284	2.838499	0.961709	0.000114
 234	2.3183e+01	9.2853	25.129151	0.000324	3.243998	1.099096	0.000130
 235	2.3283e+01	9.3190	25.238154	0.000274	2.737124	0.927363	0.000110
 236	2.3383e+01	9.3687	25.367342	0.000324	3.243998	1.099096	0.000130
 237	2.3482e+01	9.4008	25.520754	0.000385	3.852248	1.305177	0.000154
 238	2.3581e+01	9.4409	25.641868	0.000304	3.041248	1.030403	0.000122
 239	2.3681e+01	9.4826	25.779130	0.000345	3.446748	1.167790	0.000138
 240	2.3780e+01	9.5147	25.863910	0.000213	2.128874	0.721282	0.000085
 241	2.3880e+01	9.5596	26.029433	0.000416	4.156373	1.408217	0.000166
 242	2.3980e+01	9.6061	26.154584	0.000314	3.142623	1.064750	0.000126
 243	2.4079e+01	9.6414	26.299921	0.000365	3.649498	1.236483	0.000146
 244	2.4178e+01	9.6719	26.429109	0.000324	3.243998	1.099096	0.000130
 245	2.4278e+01	9.7184	26.538112	0.000274	2.737124	0.927363	0.000110
 246	2.4378e+01	9.7569	26.667300	0.000324	3.243998	1.099096	0.000130
 247	2.4477e+01	9.7954	26.840897	0.000436	4.359123	1.476911	0.000174
 248	2.4576e+01	9.8388	26.917603	0.000193	1.926124	0.652588	0.000077
 249	2.4676e+01	9.8708	27.087162	0.000426	4.257748	1.442564	0.000170
 250	2.4776e+01	9.9254	27.224425	0.000345	3.446748	1.167790	0.000138
 251	2.4875e+01	9.9639	27.272870	0.000122	1.216499	0.412161	0.000049
 252	2.4974e+01	10.0040	27.458579	0.000466	4.663248	1.579951	0.000187
 253	2.5074e+01	10.0441	27.595841	0.000345	3.446748	1.167790	0.000138
 254	2.5174e+01	10.0698	27.720993	0.000314	3.142623	1.064750	0.000126
 255	2.5273e+01	10.1163	27.850181	0.000324	3.243998	1.099096	0.000130
 256	2.5372e+01	10.1564	27.975332	0.000314	3.142623	1.064750	0.000126
 257	2.5472e+01	10.1917	28.116632	0.000355	3.548123	1.202137	0.000142
 258	2.5572e+01	10.2318	28.249857	0.000335	3.345373	1.133443	0.000134
 259	2.5671e+01	10.2863	28.387120	0.000345	3.446748	1.167790	0.000138
 260	2.5770e+01	10.3184	28.500160	0.000284	2.838499	0.961709	0.000114
 261	2.5870e+01	10.3569	28.641459	0.000355	3.548123	1.202137	0.000142
 262	2.5970e+01	10.4034	28.762574	0.000304	3.041248	1.030403	0.000122
 263	2.6069e+01	10.4323	28.879651	0.000294	2.939874	0.996056	0.000118
 264	2.6169e+01	10.4740	28.996727	0.000294	2.939874	0.996056	0.000118
 265	2.6268e+01	10.5093	29.162250	0.000416	4.156373	1.408217	0.000166
 266	2.6367e+01	10.5542	29.283364	0.000304	3.041248	1.030403	0.000122
 267	2.6467e+01	10.5976	29.432738	0.000375	3.750873	1.270830	0.000150
 268	2.6567e+01	10.6377	29.553852	0.000304	3.041248	1.030403	0.000122
 269	2.6666e+01	10.6714	29.646706	0.000233	2.331624	0.789976	0.000093
 270	2.6765e+01	10.7083	29.783969	0.000345	3.446748	1.167790	0.000138
 271	2.6865e+01	10.7628	29.925269	0.000355	3.548123	1.202137	0.000142
 272	2.6965e+01	10.7997	30.074643	0.000375	3.750873	1.270830	0.000150
 273	2.7064e+01	10.8430	30.187682	0.000284	2.838499	0.961709	0.000114
 274	2.7163e+01	10.8767	30.296685	0.000274	2.737124	0.927363	0.000110
 275	2.7263e+01	10.9104	30.454133	0.000395	3.953623	1.339524	0.000158
 276	2.7363e+01	10.9553	30.575248	0.000304	3.041248	1.030403	0.000122
 277	2.7462e+01	10.9858	30.684250	0.000274	2.737124	0.927363	0.000110
 278	2.7561e+01	11.0355	30.789216	0.000264	2.635749	0.893016	0.000105
 279	2.7661e+01	11.0836	30.938590	0.000375	3.750873	1.270830	0.000150
 280	2.7761e+01	11.1173	31.039518	0.000253	2.534374	0.858669	0.000101
 281	2.7860e+01	11.1542	31.172744	0.000335	3.345373	1.133443	0.000134
 282	2.7959e+01	11.2024	31.334229	0.000405	4.054998	1.373870	0.000162
 283	2.8059e+01	11.2296	31.427083	0.000233	2.331624	0.789976	0.000093
 284	2.8159e+01	11.2665	31.528012	0.000253	2.534374	0.858669	0.000101
 285	2.8258e+01	11.3227	31.697571	0.000426	4.257748	1.442564	0.000170
 286	2.8358e+01	11.3532	31.842908	0.000365	3.649498	1.236483	0.000146
 287	2.8457e+01	11.3949	31.927688	0.000213	2.128874	0.721282	0.000085
 288	2.8556e+01	11.4318	32.044765	0.000294	2.939874	0.996056	0.000118
 289	2.8656e+01	11.4751	32.210287	0.000416	4.156373	1.408217	0.000166
 290	2.8756e+01	11.5088	32.299104	0.000223	2.230249	0.755629	0.000089
 291	2.8855e+01	11.5425	32.420219	0.000304	3.041248	1.030403	0.000122
 292	2.8954e+01	11.5922	32.549407	0.000324	3.243998	1.099096	0.000130
 293	2.9054e+01	11.6307	32.698781	0.000375	3.750873	1.270830	0.000150
 294	2.9154e+01	11.6708	32.823932	0.000314	3.142623	1.064750	0.000126
 295	2.9253e+01	11.7109	32.953120	0.000324	3.243998	1.099096	0.000130
 296	2.9352e+01	11.7510	33.029826	0.000193	1.926124	0.652588	0.000077
 297	2.9452e+01	11.7943	33.195349	0.000416	4.156373	1.408217	0.000166
 298	2.9552e+01	11.8296	33.259943	0.000162	1.621999	0.549548	0.000065
 299	2.9651e+01	11.8745	33.397205	0.000345	3.446748	1.167790	0.000138
 300	2.9750e+01	11.9034	33.550617	0.000385	3.852248	1.305177	0.000154
 301	2.9850e+01	11.9451	33.683842	0.000335	3.345373	1.133443	0.000134
 302	2.9950e+01	11.9948	33.756510	0.000182	1.824749	0.618242	0.000073
 303	3.0049e+01	12.0414	33.917996	0.000405	4.054998	1.373870	0.000162
 304	3.0148e+01	12.0751	34.055259	0.000345	3.446748	1.167790	0.000138
 305	3.0248e+01	12.1136	34.184447	0.000324	3.243998	1.099096	0.000130
 306	3.0348e+01	12.1505	34.265190	0.000203	2.027499	0.686935	0.000081
 307	3.0447e+01	12.1986	34.410526	0.000365	3.649498	1.236483	0.000146
 308	3.0547e+01	12.2371	34.563938	0.000385	3.852248	1.305177	0.000154
 309	3.0646e+01	12.2644	34.664866	0.000253	2.534374	0.858669	0.000101
 310	3.0745e+01	12.3029	34.753683	0.000223	2.230249	0.755629	0.000089
 311	3.0845e+01	12.3478	34.911131	0.000395	3.953623	1.339524	0.000158
 312	3.0945e+01	12.3943	34.987837	0.000193	1.926124	0.652588	0.000077
 313	3.1044e+01	12.4216	35.133174	0.000365	3.649498	1.236483	0.000146
 314	3.1143e+01	12.4665	35.230065	0.000243	2.432999	0.824322	0.000097
 315	3.1243e+01	12.5114	35.347142	0.000294	2.939874	0.996056	0.000118
 316	3.1343e+01	12.5499	35.476330	0.000324	3.243998	1.099096	0.000130
 317	3.1442e+01	12.5916	35.625704	0.000375	3.750873	1.270830	0.000150
 318	3.1541e+01	12.6221	35.775078	0.000375	3.750873	1.270830	0.000150
 319	3.1641e+01	12.6734	35.880044	0.000264	2.635749	0.893016	0.000105
 320	3.1741e+01	12.7071	35.997121	0.000294	2.939874	0.996056	0.000118
 321	3.1840e+01	12.7472	36.134383	0.000345	3.446748	1.167790	0.000138
 322	3.1939e+01	12.7954	36.235312	0.000253	2.534374	0.858669	0.000101
 323	3.2039e+01	12.8194	36.364500	0.000324	3.243998	1.099096	0.000130
 324	3.2139e+01	12.8708	36.477540	0.000284	2.838499	0.961709	0.000114
 325	3.2238e+01	12.9077	36.606728	0.000324	3.243998	1.099096	0.000130
 326	3.2337e+01	12.9462	36.715731	0.000274	2.737124	0.927363	0.000110
 327	3.2437e+01	12.9718	36.824734	0.000274	2.737124	0.927363	0.000110
 328	3.2536e+01	13.0296	36.949885	0.000314	3.142623	1.064750	0.000126
 329	3.2636e+01	13.0536	37.022553	0.000182	1.824749	0.618242	0.000073
 330	3.2736e+01	13.1098	37.212299	0.000476	4.764623	1.614298	0.000191
 331	3.2835e+01	13.1467	37.321301	0.000274	2.737124	0.927363	0.000110
 332	3.2934e+01	13.1820	37.434341	0.000284	2.838499	0.961709	0.000114
 333	3.3034e+01	13.2253	37.539307	0.000264	2.635749	0.893016	0.000105
 334	3.3133e+01	13.2574	37.684644	0.000365	3.649498	1.236483	0.000146
 335	3.3233e+01	13.3039	37.777498	0.000233	2.331624	0.789976	0.000093
 336	3.3333e+01	13.3408	37.906686	0.000324	3.243998	1.099096	0.000130
 337	3.3432e+01	13.3889	37.999540	0.000233	2.331624	0.789976	0.000093
 338	3.3532e+01	13.4226	38.140840	0.000355	3.548123	1.202137	0.000142
 339	3.3631e+01	13.4627	38.237731	0.000243	2.432999	0.824322	0.000097
 340	3.3730e+01	13.5012	38.370957	0.000335	3.345373	1.133443	0.000134
 341	3.3830e+01	13.5461	38.504182	0.000335	3.345373	1.133443	0.000134
 342	3.3929e+01	13.5846	38.580888	0.000193	1.926124	0.652588	0.000077
 343	3.4029e+01	13.6264	38.710076	0.000324	3.243998	1.099096	0.000130
 344	3.4129e+01	13.6681	38.827153	0.000294	2.939874	0.996056	0.000118
 345	3.4228e+01	13.6937	38.968453	0.000355	3.548123	1.202137	0.000142
 346	3.4328e+01	13.7386	39.077455	0.000274	2.737124	0.927363	0.000110
 347	3.4427e+01	13.7884	39.198569	0.000304	3.041248	1.030403	0.000122
 348	3.4526e+01	13.8269	39.323721	0.000314	3.142623	1.064750	0.000126
 349	3.4626e+01	13.8622	39.420612	0.000243	2.432999	0.824322	0.000097
 350	3.4725e+01	13.8927	39.561912	0.000355	3.548123	1.202137	0.000142
 351	3.4825e+01	13.9472	39.646692	0.000213	2.128874	0.721282	0.000085
 352	3.4925e+01	13.9809	39.792028	0.000365	3.649498	1.236483	0.000146
 353	3.5024e+01	14.0274	39.901031	0.000274	2.737124	0.927363	0.000110
 354	3.5123e+01	14.0499	40.026182	0.000314	3.142623	1.064750	0.000126
 355	3.5223e+01	14.1044	40.139222	0.000284	2.838499	0.961709	0.000114
 356	3.5322e+01	14.1397	40.288596	0.000375	3.750873	1.270830	0.000150
 357	3.5422e+01	14.1830	40.389524	0.000253	2.534374	0.858669	0.000101
 358	3.5522e+01	14.2263	40.514676	0.000314	3.142623	1.064750	0.000126
 359	3.5621e+01	14.2600	40.676161	0.000405	4.054998	1.373870	0.000162
 360	3.5721e+01	14.2937	40.752867	0.000193	1.926124	0.652588	0.000077
 361	3.5820e+01	14.3370	40.910315	0.000395	3.953623	1.339524	0.000158
 362	3.5919e+01	14.3755	41.019318	0.000274	2.737124	0.927363	0.000110
 363	3.6019e+01	14.4221	41.152543	0.000335	3.345373	1.133443	0.000134
 364	3.6118e+01	14.4493	41.225212	0.000182	1.824749	0.618242	0.000073
 365	3.6218e+01	14.5071	41.382660	0.000395	3.953623	1.339524	0.000158
 366	3.6318e+01	14.5456	41.507811	0.000314	3.142623	1.064750	0.000126
 367	3.6417e+01	14.5793	41.669297	0.000405	4.054998	1.373870	0.000162
 368	3.6517e+01	14.6194	41.782336	0.000284	2.838499	0.961709	0.000114
 369	3.6616e+01	14.6579	41.846930	0.000162	1.621999	0.549548	0.000065
 370	3.6715e+01	14.6980	42.016490	0.000426	4.257748	1.442564	0.000170
 371	3.6815e+01	14.7301	42.125493	0.000274	2.737124	0.927363	0.000110
 372	3.6914e+01	14.7862	42.246607	0.000304	3.041248	1.030403	0.000122
 373	3.7014e+01	14.8135	42.379832	0.000335	3.345373	1.133443	0.000134
 374	3.7114e+01	14.8584	42.464612	0.000213	2.128874	0.721282	0.000085
 375	3.7213e+01	14.9001	42.601875	0.000345	3.446748	1.167790	0.000138
 376	3.7313e+01	14.9370	42.743175	0.000355	3.548123	1.202137	0.000142
 377	3.7412e+01	14.9723	42.840066	0.000243	2.432999	0.824322	0.000097
 378	3.7511e+01	15.0188	42.961180	0.000304	3.041248	1.030403	0.000122
 379	3.7611e+01	15.0557	43.074220	0.000284	2.838499	0.961709	0.000114
 380	3.7711e+01	15.0990	43.223594	0.000375	3.750873	1.270830	0.000150
 381	3.7810e+01	15.1327	43.336634	0.000284	2.838499	0.961709	0.000114
 382	3.7910e+01	15.1760	43.461785	0.000314	3.142623	1.064750	0.000126
 383	3.8009e+01	15.2129	43.554639	0.000233	2.331624	0.789976	0.000093
 384	3.8108e+01	15.2579	43.679790	0.000314	3.142623	1.064750	0.000126
 385	3.8208e+01	15.2948	43.804941	0.000314	3.142623	1.064750	0.000126
 386	3.8307e+01	15.3365	43.917981	0.000284	2.838499	0.961709	0.000114
 387	3.8407e+01	15.3734	44.095615	0.000446	4.460498	1.511258	0.000179
 388	3.8507e+01	15.4135	44.220766	0.000314	3.142623	1.064750	0.000126
 389	3.8606e+01	15.4552	44.337843	0.000294	2.939874	0.996056	0.000118
 390	3.8706e+01	15.4921	44.475106	0.000345	3.446748	1.167790	0.000138
 391	3.8805e+01	15.5322	44.596220	0.000304	3.041248	1.030403	0.000122
 392	3.8904e+01	15.5819	44.656777	0.000152	1.520624	0.515201	0.000061
 393	3.9004e+01	15.6220	44.822300	0.000416	4.156373	1.408217	0.000166
 394	3.9103e+01	15.6509	44.915154	0.000233	2.331624	0.789976	0.000093
 395	3.9203e+01	15.6958	45.068565	0.000385	3.852248	1.305177	0.000154
 396	3.9303e+01	15.7327	45.177567	0.000274	2.737124	0.927363	0.000110
 397	3.9402e+01	15.7857	45.290607	0.000284	2.838499	0.961709	0.000114
 398	3.9502e+01	15.8145	45.468241	0.000446	4.460498	1.511258	0.000179
 399	3.9601e+01	15.8370	45.553021	0.000213	2.128874	0.721282	0.000085
 400	3.9700e+01	15.8947	45.682209	0.000324	3.243998	1.099096	0.000130
 401	3.9800e+01	15.9348	45.815435	0.000335	3.345373	1.133443	0.000134
 402	3.9900e+01	15.9653	45.904252	0.000223	2.230249	0.755629	0.000089
 403	3.9999e+01	16.0151	46.037477	0.000335	3.345373	1.133443	0.000134
 404	4.0099e+01	16.0439	46.178777	0.000355	3.548123	1.202137	0.000142
 405	4.0198e+01	16.0905	46.299891	0.000304	3.041248	1.030403	0.000122
 406	4.0297e+01	16.1354	46.388708	0.000223	2.230249	0.755629	0.000089
 407	4.0397e+01	16.1642	46.534045	0.000365	3.649498	1.236483	0.000146
 408	4.0496e+01	16.2108	46.679382	0.000365	3.649498	1.236483	0.000146
 409	4.0596e+01	16.2461	46.760125	0.000203	2.027499	0.686935	0.000081
 410	4.0696e+01	16.2942	46.913536	0.000385	3.852248	1.305177	0.000154
 411	4.0795e+01	16.3375	47.058873	0.000365	3.649498	1.236483	0.000146
 412	4.0895e+01	16.3760	47.131541	0.000182	1.824749	0.618242	0.000073
 413	4.0994e+01	16.4177	47.317249	0.000466	4.663248	1.579951	0.000187
 414	4.1093e+01	16.4482	47.361658	0.000112	1.115124	0.377814	0.000045
 415	4.1193e+01	16.4915	47.523143	0.000405	4.054998	1.373870	0.000162
 416	4.1292e+01	16.5300	47.628109	0.000264	2.635749	0.893016	0.000105
 417	4.1392e+01	16.5733	47.765371	0.000345	3.446748	1.167790	0.000138
 418	4.1492e+01	16.6118	47.918783	0.000385	3.852248	1.305177	0.000154
 419	4.1591e+01	16.6487	48.015674	0.000243	2.432999	0.824322	0.000097
 420	4.1691e+01	16.6856	48.165048	0.000375	3.750873	1.270830	0.000150
 421	4.1790e+01	16.7321	48.274051	0.000274	2.737124	0.927363	0.000110
 422	4.1889e+01	16.7642	48.407276	0.000335	3.345373	1.133443	0.000134
 423	4.1989e+01	16.8140	48.516279	0.000274	2.737124	0.927363	0.000110
 424	4.2089e+01	16.8509	48.641430	0.000314	3.142623	1.064750	0.000126
 425	4.2188e+01	16.8813	48.778693	0.000345	3.446748	1.167790	0.000138
 426	4.2288e+01	16.9311	48.907881	0.000324	3.243998	1.099096	0.000130
 427	4.2387e+01	16.9664	49.037069	0.000324	3.243998	1.099096	0.000130
 428	4.2486e+01	16.9968	49.137998	0.000253	2.534374	0.858669	0.000101
 429	4.2586e+01	17.0562	49.238926	0.000253	2.534374	0.858669	0.000101
 430	4.2685e+01	17.0803	49.416560	0.000446	4.460498	1.511258	0.000179
 431	4.2785e+01	17.1284	49.525563	0.000274	2.737124	0.927363	0.000110
 432	4.2885e+01	17.1733	49.634565	0.000274	2.737124	0.927363	0.000110
 433	4.2984e+01	17.2038	49.755679	0.000304	3.041248	1.030403	0.000122
 434	4.3084e+01	17.2487	49.909091	0.000385	3.852248	1.305177	0.000154
 435	4.3183e+01	17.2872	49.997908	0.000223	2.230249	0.755629	0.000089
 436	4.3282e+01	17.3257	50.102873	0.000264	2.635749	0.893016	0.000105
 437	4.3382e+01	17.3722	50.240136	0.000345	3.446748	1.167790	0.000138
 438	4.3481e+01	17.4123	50.389510	0.000375	3.750873	1.270830	0.000150
 439	4.3581e+01	17.4460	50.538884	0.000375	3.750873	1.270830	0.000150
 440	4.3681e+01	17.5006	50.651924	0.000284	2.838499	0.961709	0.000114
 441	4.3780e+01	17.5295	50.764963	0.000284	2.838499	0.961709	0.000114
 442	4.3880e+01	17.5615	50.845706	0.000203	2.027499	0.686935	0.000081
 443	4.3979e+01	17.6065	50.982969	0.000345	3.446748	1.167790	0.000138
 444	4.4078e+01	17.6514	51.116194	0.000335	3.345373	1.133443	0.000134
 445	4.4178e+01	17.6835	51.241345	0.000314	3.142623	1.064750	0.000126
 446	4.4278e+01	17.7252	51.346311	0.000264	2.635749	0.893016	0.000105
 447	4.4377e+01	17.7765	51.443202	0.000243	2.432999	0.824322	0.000097
 448	4.4477e+01	17.8022	51.588539	0.000365	3.649498	1.236483	0.000146
 449	4.4576e+01	17.8471	51.745987	0.000395	3.953623	1.339524	0.000158
 450	4.4675e+01	17.8792	51.818656	0.000182	1.824749	0.618242	0.000073
 451	4.4775e+01	17.9225	51.891324	0.000182	1.824749	0.618242	0.000073
 452	4.4874e+01	17.9690	52.044735	0.000385	3.852248	1.305177	0.000154
 453	4.4974e+01	18.0155	52.181998	0.000345	3.446748	1.167790	0.000138
 454	4.5074e+01	18.0412	52.311186	0.000324	3.243998	1.099096	0.000130
 455	4.5173e+01	18.0781	52.412115	0.000253	2.534374	0.858669	0.000101
 456	4.5273e+01	18.1166	52.525155	0.000284	2.838499	0.961709	0.000114
 457	4.5372e+01	18.1647	52.678566	0.000385	3.852248	1.305177	0.000154
 458	4.5471e+01	18.2032	52.803717	0.000314	3.142623	1.064750	0.000126
 459	4.5571e+01	18.2433	52.888497	0.000213	2.128874	0.721282	0.000085
 460	4.5670e+01	18.2850	53.021722	0.000335	3.345373	1.133443	0.000134
 461	4.5770e+01	18.3300	53.134762	0.000284	2.838499	0.961709	0.000114
 462	4.5870e+01	18.3653	53.288173	0.000385	3.852248	1.305177	0.000154
 463	4.5969e+01	18.4006	53.356804	0.000172	1.723374	0.583895	0.000069
 464	4.6069e+01	18.4519	53.510216	0.000385	3.852248	1.305177	0.000154
 465	4.6168e+01	18.4808	53.611144	0.000253	2.534374	0.858669	0.000101
 466	4.6267e+01	18.5241	53.728221	0.000294	2.939874	0.996056	0.000118
 467	4.6367e+01	18.5546	53.893744	0.000416	4.156373	1.408217	0.000166
 468	4.6467e+01	18.5963	53.958338	0.000162	1.621999	0.549548	0.000065
 469	4.6566e+01	18.6380	54.043118	0.000213	2.128874	0.721282	0.000085
 470	4.6666e+01	18.6893	54.160194	0.000294	2.939874	0.996056	0.000118
 471	4.6765e+01	18.7166	54.313606	0.000385	3.852248	1.305177	0.000154
 472	4.6864e+01	18.7583	54.402423	0.000223	2.230249	0.755629	0.000089
 473	4.6964e+01	18.7984	54.563908	0.000405	4.054998	1.373870	0.000162
 474	4.7063e+01	18.8433	54.652725	0.000223	2.230249	0.755629	0.000089
 475	4.7163e+01	18.8930	54.798062	0.000365	3.649498	1.236483	0.000146
 476	4.7263e+01	18.9187	54.911102	0.000284	2.838499	0.961709	0.000114
 477	4.7362e+01	18.9684	54.999919	0.000223	2.230249	0.755629	0.000089
 478	4.7462e+01	19.0070	55.141218	0.000355	3.548123	1.202137	0.000142
 479	4.7561e+01	19.0390	55.250221	0.000274	2.737124	0.927363	0.000110
 480	4.7660e+01	19.0840	55.355187	0.000264	2.635749	0.893016	0.000105
 481	4.7760e+01	19.1273	55.456115	0.000253	2.534374	0.858669	0.000101
 482	4.7859e+01	19.1674	55.581266	0.000314	3.142623	1.064750	0.000126
 483	4.7959e+01	19.1995	55.690269	0.000274	2.737124	0.927363	0.000110
 484	4.8059e+01	19.2476	55.847717	0.000395	3.953623	1.339524	0.000158
 485	4.8158e+01	19.2813	55.944608	0.000243	2.432999	0.824322	0.000097
 486	4.8258e+01	19.3198	56.045537	0.000253	2.534374	0.858669	0.000101
 487	4.8357e+01	19.3615	56.170688	0.000314	3.142623	1.064750	0.000126
 488	4.8456e+01	19.3904	56.283728	0.000284	2.838499	0.961709	0.000114
 489	4.8556e+01	19.4417	56.392731	0.000274	2.737124	0.927363	0.000110
 490	4.8656e+01	19.4882	56.497696	0.000264	2.635749	0.893016	0.000105
 491	4.8755e+01	19.5171	56.598624	0.000253	2.534374	0.858669	0.000101
 492	4.8855e+01	19.5556	56.743961	0.000365	3.649498	1.236483	0.000146
 493	4.8954e+01	19.6005	56.861038	0.000294	2.939874	0.996056	0.000118
 494	4.9053e+01	19.6406	56.957930	0.000243	2.432999	0.824322	0.000097
 495	4.9153e+01	19.6743	57.038672	0.000203	2.027499	0.686935	0.000081
 496	4.9252e+01	19.7208	57.200158	0.000405	4.054998	1.373870	0.000162
 497	4.9352e+01	19.7658	57.301086	0.000253	2.534374	0.858669	0.000101
 498	4.9452e+01	19.7962	57.414126	0.000284	2.838499	0.961709	0.000114
 499	4.9551e+01	19.8395	57.539277	0.000314	3.142623	1.064750	0.000126
 500	4.9651e+01	19.8748	57.607908	0.000172	1.723374	0.583895	0.000069
 501	4.9750e+01	19.9117	57.741134	0.000335	3.345373	1.133443	0.000134
 502	4.9849e+01	19.9534	57.882434	0.000355	3.548123	1.202137	0.000142
 503	4.9949e+01	19.9952	57.979325	0.000243	2.432999	0.824322	0.000097
 504	5.0048e+01	19.9567	57.922805	0.000142	1.419249	0.480855	-0.000057
 505	5.0148e+01	19.9166	57.801691	0.000304	3.041248	1.030403	-0.000122
 506	5.0248e+01	19.8797	57.700763	0.000253	2.534374	0.858669	-0.000101
 507	5.0347e+01	19.8315	57.620020	0.000203	2.027499	0.686935	-0.000081
 508	5.0447e+01	19.8059	57.506980	0.000284	2.838499	0.961709	-0.000114
 509	5.0546e+01	19.7577	57.402014	0.000264	2.635749	0.893016	-0.000105
 510	5.0645e+01	19.7160	57.325309	0.000193	1.926124	0.652588	-0.000077
 511	5.0745e+01	19.6695	57.216306	0.000274	2.737124	0.927363	-0.000110
 512	5.0844e+01	19.6422	57.155749	0.000152	1.520624	0.515201	-0.000061
 513	5.0944e+01	19.5973	57.050784	0.000264	2.635749	0.893016	-0.000105
 514	5.1044e+01	19.5652	56.937744	0.000284	2.838499	0.961709	-0.000114
 515	5.1143e+01	19.5251	56.861038	0.000193	1.926124	0.652588	-0.000077
 516	5.1242e+01	19.4882	56.699553	0.000405	4.054998	1.373870	-0.000162
 517	5.1342e+01	19.4417	56.622847	0.000193	1.926124	0.652588	-0.000077
 518	5.1441e+01	19.4048	56.534030	0.000223	2.230249	0.755629	-0.000089
 519	5.1541e+01	19.3535	56.408879	0.000314	3.142623	1.064750	-0.000126
 520	5.1641e+01	19.3166	56.332174	0.000193	1.926124	0.652588	-0.000077
 521	5.1740e+01	19.2797	56.255468	0.000193	1.926124	0.652588	-0.000077
 522	5.1840e+01	19.2492	56.146465	0.000274	2.737124	0.927363	-0.000110
 523	5.1939e+01	19.2059	56.057648	0.000223	2.230249	0.755629	-0.000089
 524	5.2038e+01	19.1610	55.940571	0.000294	2.939874	0.996056	-0.000118
 525	5.2138e+01	19.1225	55.847717	0.000233	2.331624	0.789976	-0.000093
 526	5.2237e+01	19.0775	55.718529	0.000324	3.243998	1.099096	-0.000130
 527	5.2337e+01	19.0406	55.641823	0.000193	1.926124	0.652588	-0.000077
 528	5.2437e+01	19.0037	55.553006	0.000223	2.230249	0.755629	-0.000089
 529	5.2536e+01	18.9620	55.448041	0.000264	2.635749	0.893016	-0.000105
 530	5.2636e+01	18.9203	55.339038	0.000274	2.737124	0.927363	-0.000110
 531	5.2735e+01	18.8770	55.217924	0.000304	3.041248	1.030403	-0.000122
 532	5.2834e+01	18.8385	55.157367	0.000152	1.520624	0.515201	-0.000061
 533	5.2934e+01	18.8064	55.020104	0.000345	3.446748	1.167790	-0.000138
 534	5.3033e+01	18.7647	54.882842	0.000345	3.446748	1.167790	-0.000138
 535	5.3133e+01	18.7294	54.830359	0.000132	1.317874	0.446508	-0.000053
 536	5.3233e+01	18.6845	54.705208	0.000314	3.142623	1.064750	-0.000126
 537	5.3332e+01	18.6460	54.648688	0.000142	1.419249	0.480855	-0.000057
 538	5.3431e+01	18.5995	54.527574	0.000304	3.041248	1.030403	-0.000122
 539	5.3531e+01	18.5626	54.422608	0.000264	2.635749	0.893016	-0.000105
 540	5.3630e+01	18.5321	54.305531	0.000294	2.939874	0.996056	-0.000118
 541	5.3730e+01	18.4888	54.253049	0.000132	1.317874	0.446508	-0.000053
 542	5.3830e+01	18.4487	54.087526	0.000416	4.156373	1.408217	-0.000166
 543	5.3929e+01	18.3957	54.018895	0.000172	1.723374	0.583895	-0.000069
 544	5.4029e+01	18.3685	53.905855	0.000284	2.838499	0.961709	-0.000114
 545	5.4128e+01	18.3235	53.849335	0.000142	1.419249	0.480855	-0.000057
 546	5.4227e+01	18.2802	53.720147	0.000324	3.243998	1.099096	-0.000130
 547	5.4327e+01	18.2369	53.611144	0.000274	2.737124	0.927363	-0.000110
 548	5.4426e+01	18.2080	53.473881	0.000345	3.446748	1.167790	-0.000138
 549	5.4526e+01	18.1663	53.385064	0.000223	2.230249	0.755629	-0.000089
 550	5.4626e+01	18.1198	53.255876	0.000324	3.243998	1.099096	-0.000130
 551	5.4725e+01	18.0861	53.146873	0.000274	2.737124	0.927363	-0.000110
 552	5.4825e+01	18.0444	53.106502	0.000101	1.013749	0.343468	-0.000041
 553	5.4924e+01	18.0075	52.977314	0.000324	3.243998	1.099096	-0.000130
 554	5.5023e+01	17.9610	52.904645	0.000182	1.824749	0.618242	-0.000073
 555	5.5123e+01	17.9369	52.783531	0.000304	3.041248	1.030403	-0.000122
 556	5.5222e+01	17.8920	52.658380	0.000314	3.142623	1.064750	-0.000126
 557	5.5322e+01	17.8551	52.613972	0.000112	1.115124	0.377814	-0.000045
 558	5.5422e+01	17.8022	52.448449	0.000416	4.156373	1.408217	-0.000166
 559	5.5521e+01	17.7556	52.335409	0.000284	2.838499	0.961709	-0.000114
 560	5.5620e+01	17.7155	52.254666	0.000203	2.027499	0.686935	-0.000081
 561	5.5720e+01	17.6899	52.161812	0.000233	2.331624	0.789976	-0.000093
 562	5.5819e+01	17.6530	52.081070	0.000203	2.027499	0.686935	-0.000081
 563	5.5919e+01	17.6049	51.919584	0.000405	4.054998	1.373870	-0.000162
 564	5.6019e+01	17.5696	51.850953	0.000172	1.723374	0.583895	-0.000069
 565	5.6118e+01	17.5246	51.770210	0.000203	2.027499	0.686935	-0.000081
 566	5.6218e+01	17.4990	51.649096	0.000304	3.041248	1.030403	-0.000122
 567	5.6317e+01	17.4476	51.548168	0.000253	2.534374	0.858669	-0.000101
 568	5.6416e+01	17.4027	51.431091	0.000294	2.939874	0.996056	-0.000118
 569	5.6516e+01	17.3674	51.326125	0.000264	2.635749	0.893016	-0.000105
 570	5.6615e+01	17.3289	51.221160	0.000264	2.635749	0.893016	-0.000105
 571	5.6715e+01	17.2856	51.112157	0.000274	2.737124	0.927363	-0.000110
 572	5.6815e+01	17.2519	51.039489	0.000182	1.824749	0.618242	-0.000073
 573	5.6914e+01	17.2102	50.926449	0.000284	2.838499	0.961709	-0.000114
 574	5.7014e+01	17.1685	50.833595	0.000233	2.331624	0.789976	-0.000093
 575	5.7113e+01	17.1252	50.680183	0.000385	3.852248	1.305177	-0.000154
 576	5.7212e+01	17.1011	50.599441	0.000203	2.027499	0.686935	-0.000081
 577	5.7312e+01	17.0466	50.486401	0.000284	2.838499	0.961709	-0.000114
 578	5.7411e+01	17.0129	50.401621	0.000213	2.128874	0.721282	-0.000085
 579	5.7511e+01	16.9728	50.280507	0.000304	3.041248	1.030403	-0.000122
 580	5.7611e+01	16.9231	50.203801	0.000193	1.926124	0.652588	-0.000077
 581	5.7710e+01	16.8894	50.114984	0.000223	2.230249	0.755629	-0.000089
 582	5.7809e+01	16.8444	49.965610	0.000375	3.750873	1.270830	-0.000150
 583	5.7909e+01	16.8059	49.896979	0.000172	1.723374	0.583895	-0.000069
 584	5.8008e+01	16.7642	49.816236	0.000203	2.027499	0.686935	-0.000081
 585	5.8108e+01	16.7354	49.703197	0.000284	2.838499	0.961709	-0.000114
 586	5.8208e+01	16.6969	49.557860	0.000365	3.649498	1.236483	-0.000146
 587	5.8307e+01	16.6503	49.485191	0.000182	1.824749	0.618242	-0.000073
 588	5.8407e+01	16.6215	49.392337	0.000233	2.331624	0.789976	-0.000093
 589	5.8506e+01	16.5781	49.251037	0.000355	3.548123	1.202137	-0.000142
 590	5.8605e+01	16.5332	49.190480	0.000152	1.520624	0.515201	-0.000061
 591	5.8705e+01	16.4883	49.061292	0.000324	3.243998	1.099096	-0.000130
 592	5.8804e+01	16.4546	48.968438	0.000233	2.331624	0.789976	-0.000093
 593	5.8904e+01	16.4001	48.843287	0.000314	3.142623	1.064750	-0.000126
 594	5.9004e+01	16.3680	48.738321	0.000264	2.635749	0.893016	-0.000105
 595	5.9103e+01	16.3199	48.661616	0.000193	1.926124	0.652588	-0.000077
 596	5.9203e+01	16.2910	48.544539	0.000294	2.939874	0.996056	-0.000118
 597	5.9302e+01	16.2477	48.435536	0.000274	2.737124	0.927363	-0.000110
 598	5.9401e+01	16.2092	48.314422	0.000304	3.041248	1.030403	-0.000122
 599	5.9501e+01	16.1691	48.221568	0.000233	2.331624	0.789976	-0.000093
 600	5.9600e+01	16.1370	48.092379	0.000324	3.243998	1.099096	-0.000130
 601	5.9700e+01	16.0889	48.023748	0.000172	1.723374	0.583895	-0.000069
 602	5.9800e+01	16.0520	47.938968	0.000213	2.128874	0.721282	-0.000085
 603	5.9899e+01	16.0102	47.773446	0.000416	4.156373	1.408217	-0.000166
 604	5.9998e+01	15.9701	47.704814	0.000172	1.723374	0.583895	-0.000069
 605	6.0098e+01	15.9300	47.595812	0.000274	2.737124	0.927363	-0.000110
 606	6.0197e+01	15.8947	47.498921	0.000243	2.432999	0.824322	-0.000097
 607	6.0297e+01	15.8514	47.381844	0.000294	2.939874	0.996056	-0.000118
 608	6.0397e+01	15.8145	47.276878	0.000264	2.635749	0.893016	-0.000105
 609	6.0496e+01	15.7760	47.163838	0.000284	2.838499	0.961709	-0.000114
 610	6.0596e+01	15.7295	47.042724	0.000304	3.041248	1.030403	-0.000122
 611	6.0695e+01	15.7038	46.901424	0.000355	3.548123	1.202137	-0.000142
 612	6.0794e+01	15.6413	46.824719	0.000193	1.926124	0.652588	-0.000077
 613	6.0894e+01	15.6124	46.711679	0.000284	2.838499	0.961709	-0.000114
 614	6.0993e+01	15.5707	46.622862	0.000223	2.230249	0.755629	-0.000089
 615	6.1093e+01	15.5402	46.481562	0.000355	3.548123	1.202137	-0.000142
 616	6.1193e+01	15.4921	46.396782	0.000213	2.128874	0.721282	-0.000085
 617	6.1292e+01	15.4568	46.271631	0.000314	3.142623	1.064750	-0.000126
 618	6.1392e+01	15.4199	46.162629	0.000274	2.737124	0.927363	-0.000110
 619	6.1491e+01	15.3814	46.045552	0.000294	2.939874	0.996056	-0.000118
 620	6.1590e+01	15.3397	45.924438	0.000304	3.041248	1.030403	-0.000122
 621	6.1690e+01	15.2915	45.823509	0.000253	2.534374	0.858669	-0.000101
 622	6.1789e+01	15.2563	45.726618	0.000243	2.432999	0.824322	-0.000097
 623	6.1889e+01	15.2210	45.625690	0.000253	2.534374	0.858669	-0.000101
 624	6.1989e+01	15.1776	45.508613	0.000294	2.939874	0.996056	-0.000118
 625	6.2088e+01	15.1359	45.347127	0.000405	4.054998	1.373870	-0.000162
 626	6.2188e+01	15.0942	45.270422	0.000193	1.926124	0.652588	-0.000077
 627	6.2287e+01	15.0461	45.177567	0.000233	2.331624	0.789976	-0.000093
 628	6.2386e+01	15.0252	45.040305	0.000345	3.446748	1.167790	-0.000138
 629	6.2486e+01	14.9691	44.894968	0.000365	3.649498	1.236483	-0.000146
 630	6.2586e+01	14.9386	44.810188	0.000213	2.128874	0.721282	-0.000085
 631	6.2685e+01	14.8921	44.697148	0.000284	2.838499	0.961709	-0.000114
 632	6.2785e+01	14.8600	44.600257	0.000243	2.432999	0.824322	-0.000097
 633	6.2884e+01	14.8135	44.483180	0.000294	2.939874	0.996056	-0.000118
 634	6.2983e+01	14.7782	44.358029	0.000314	3.142623	1.064750	-0.000126
 635	6.3083e+01	14.7349	44.220766	0.000345	3.446748	1.167790	-0.000138
 636	6.3182e+01	14.7044	44.123875	0.000243	2.432999	0.824322	-0.000097
 637	6.3282e+01	14.6595	44.018910	0.000264	2.635749	0.893016	-0.000105
 638	6.3382e+01	14.6178	43.893758	0.000314	3.142623	1.064750	-0.000126
 639	6.3481e+01	14.5777	43.796867	0.000243	2.432999	0.824322	-0.000097
 640	6.3581e+01	14.5392	43.679790	0.000294	2.939874	0.996056	-0.000118
 641	6.3680e+01	14.5039	43.578862	0.000253	2.534374	0.858669	-0.000101
 642	6.3779e+01	14.4573	43.465822	0.000284	2.838499	0.961709	-0.000114
 643	6.3879e+01	14.4237	43.364894	0.000253	2.534374	0.858669	-0.000101
 644	6.3978e+01	14.3868	43.227631	0.000345	3.446748	1.167790	-0.000138
 645	6.4078e+01	14.3434	43.110554	0.000294	2.939874	0.996056	-0.000118
 646	6.4177e+01	14.3049	43.001551	0.000274	2.737124	0.927363	-0.000110
 647	6.4277e+01	14.2648	42.872363	0.000324	3.243998	1.099096	-0.000130
 648	6.4376e+01	14.2215	42.767397	0.000264	2.635749	0.893016	-0.000105
 649	6.4476e+01	14.1734	42.666469	0.000253	2.534374	0.858669	-0.000101
 650	6.4576e+01	14.1317	42.549392	0.000294	2.939874	0.996056	-0.000118
 651	6.4675e+01	14.0964	42.400018	0.000375	3.750873	1.270830	-0.000150
 652	6.4775e+01	14.0515	42.295053	0.000264	2.635749	0.893016	-0.000105
 653	6.4874e+01	14.0210	42.194124	0.000253	2.534374	0.858669	-0.000101
 654	6.4974e+01	13.9777	42.081084	0.000284	2.838499	0.961709	-0.000114
 655	6.5073e+01	13.9408	41.988230	0.000233	2.331624	0.789976	-0.000093
 656	6.5172e+01	13.8991	41.834819	0.000385	3.852248	1.305177	-0.000154
 657	6.5272e+01	13.8622	41.721779	0.000284	2.838499	0.961709	-0.000114
 658	6.5371e+01	13.8189	41.624888	0.000243	2.432999	0.824322	-0.000097
 659	6.5471e+01	13.7868	41.511848	0.000284	2.838499	0.961709	-0.000114
 660	6.5570e+01	13.7435	41.354400	0.000395	3.953623	1.339524	-0.000158
 661	6.5670e+01	13.7001	41.261546	0.000233	2.331624	0.789976	-0.000093
 662	6.5769e+01	13.6777	41.116209	0.000365	3.649498	1.236483	-0.000146
 663	6.5869e+01	13.6312	41.035466	0.000203	2.027499	0.686935	-0.000081
 664	6.5969e+01	13.5862	40.890129	0.000365	3.649498	1.236483	-0.000146
 665	6.6068e+01	13.5413	40.805349	0.000213	2.128874	0.721282	-0.000085
 666	6.6168e+01	13.5076	40.647901	0.000395	3.953623	1.339524	-0.000158
 667	6.6267e+01	13.4643	40.538899	0.000274	2.737124	0.927363	-0.000110
 668	6.6367e+01	13.4274	40.446044	0.000233	2.331624	0.789976	-0.000093
 669	6.6466e+01	13.3793	40.353190	0.000233	2.331624	0.789976	-0.000093
 670	6.6566e+01	13.3392	40.187668	0.000416	4.156373	1.408217	-0.000166
 671	6.6665e+01	13.2927	40.074628	0.000284	2.838499	0.961709	-0.000114
 672	6.6764e+01	13.2670	39.985811	0.000223	2.230249	0.755629	-0.000089
 673	6.6864e+01	13.2173	39.852585	0.000335	3.345373	1.133443	-0.000134
 674	6.6963e+01	13.1836	39.703211	0.000375	3.750873	1.270830	-0.000150
 675	6.7063e+01	13.1403	39.586134	0.000294	2.939874	0.996056	-0.000118
 676	6.7162e+01	13.1066	39.477132	0.000274	2.737124	0.927363	-0.000110
 677	6.7262e+01	13.0649	39.368129	0.000274	2.737124	0.927363	-0.000110
 678	6.7362e+01	13.0264	39.222792	0.000365	3.649498	1.236483	-0.000146
 679	6.7461e+01	12.9782	39.109752	0.000284	2.838499	0.961709	-0.000114
 680	6.7561e+01	12.9413	38.968453	0.000355	3.548123	1.202137	-0.000142
 681	6.7660e+01	12.9109	38.879636	0.000223	2.230249	0.755629	-0.000089
 682	6.7760e+01	12.8595	38.754485	0.000314	3.142623	1.064750	-0.000126
 683	6.7859e+01	12.8307	38.613185	0.000355	3.548123	1.202137	-0.000142
 684	6.7959e+01	12.7922	38.508219	0.000264	2.635749	0.893016	-0.000105
 685	6.8058e+01	12.7537	38.439588	0.000172	1.723374	0.583895	-0.000069
 686	6.8157e+01	12.7087	38.257917	0.000456	4.561873	1.545604	-0.000183
 687	6.8257e+01	12.6718	38.177174	0.000203	2.027499	0.686935	-0.000081
 688	6.8356e+01	12.6317	38.027800	0.000375	3.750873	1.270830	-0.000150
 689	6.8456e+01	12.5900	37.898612	0.000324	3.243998	1.099096	-0.000130
 690	6.8555e+01	12.5483	37.765386	0.000335	3.345373	1.133443	-0.000134
 691	6.8655e+01	12.5066	37.676569	0.000223	2.230249	0.755629	-0.000089
 692	6.8754e+01	12.4729	37.611975	0.000162	1.621999	0.549548	-0.000065
 693	6.8854e+01	12.4280	37.426267	0.000466	4.663248	1.579951	-0.000187
 694	6.8954e+01	12.3975	37.345524	0.000203	2.027499	0.686935	-0.000081
 695	6.9053e+01	12.3430	37.228447	0.000294	2.939874	0.996056	-0.000118
 696	6.9153e+01	12.3029	37.079073	0.000375	3.750873	1.270830	-0.000150
 697	6.9252e+01	12.2740	36.966033	0.000284	2.838499	0.961709	-0.000114
 698	6.9352e+01	12.2243	36.897402	0.000172	1.723374	0.583895	-0.000069
 699	6.9451e+01	12.1809	36.735917	0.000405	4.054998	1.373870	-0.000162
 700	6.9550e+01	12.1521	36.606728	0.000324	3.243998	1.099096	-0.000130
 701	6.9650e+01	12.1120	36.521948	0.000213	2.128874	0.721282	-0.000085
 702	6.9749e+01	12.0702	36.372574	0.000375	3.750873	1.270830	-0.000150
 703	6.9849e+01	12.0269	36.283757	0.000223	2.230249	0.755629	-0.000089
 704	6.9948e+01	11.9965	36.166681	0.000294	2.939874	0.996056	-0.000118
 705	7.0048e+01	11.9563	36.053641	0.000284	2.838499	0.961709	-0.000114
 706	7.0147e+01	11.9114	35.968861	0.000213	2.128874	0.721282	-0.000085
 707	7.0247e+01	11.8729	35.835635	0.000335	3.345373	1.133443	-0.000134
 708	7.0347e+01	11.8344	35.690298	0.000365	3.649498	1.236483	-0.000146
 709	7.0446e+01	11.8007	35.597444	0.000233	2.331624	0.789976	-0.000093
 710	7.0546e+01	11.7526	35.460182	0.000345	3.446748	1.167790	-0.000138
 711	7.0645e+01	11.7093	35.335031	0.000314	3.142623	1.064750	-0.000126
 712	7.0745e+01	11.6740	35.250251	0.000213	2.128874	0.721282	-0.000085
 713	7.0844e+01	11.6259	35.145285	0.000264	2.635749	0.893016	-0.000105
 714	7.0944e+01	11.5826	35.003985	0.000355	3.548123	1.202137	-0.000142
 715	7.1043e+01	11.5537	34.899020	0.000264	2.635749	0.893016	-0.000105
 716	7.1142e+01	11.5088	34.749646	0.000375	3.750873	1.270830	-0.000150
 717	7.1242e+01	11.4751	34.660829	0.000223	2.230249	0.755629	-0.000089
 718	7.1341e+01	11.4270	34.531641	0.000324	3.243998	1.099096	-0.000130
 719	7.1441e+01	11.4029	34.410526	0.000304	3.041248	1.030403	-0.000122
 720	7.1540e+01	11.3596	34.337858	0.000182	1.824749	0.618242	-0.000073
 721	7.1640e+01	11.3163	34.196558	0.000355	3.548123	1.202137	-0.000142
 722	7.1740e+01	11.2794	34.083518	0.000284	2.838499	0.961709	-0.000114
 723	7.1839e+01	11.2328	33.958367	0.000314	3.142623	1.064750	-0.000126
 724	7.1939e+01	11.1991	33.849365	0.000274	2.737124	0.927363	-0.000110
 725	7.2038e+01	11.1558	33.764585	0.000213	2.128874	0.721282	-0.000085
 726	7.2138e+01	11.1205	33.590988	0.000436	4.359123	1.476911	-0.000174
 727	7.2237e+01	11.0676	33.494097	0.000243	2.432999	0.824322	-0.000097
 728	7.2337e+01	11.0371	33.381057	0.000284	2.838499	0.961709	-0.000114
 729	7.2436e+01	10.9986	33.231683	0.000375	3.750873	1.270830	-0.000150
 730	7.2535e+01	10.9537	33.134792	0.000243	2.432999	0.824322	-0.000097
 731	7.2635e+01	10.9136	33.050012	0.000213	2.128874	0.721282	-0.000085
 732	7.2734e+01	10.8671	32.936972	0.000284	2.838499	0.961709	-0.000114
 733	7.2834e+01	10.8462	32.783561	0.000385	3.852248	1.305177	-0.000154
 734	7.2933e+01	10.7933	32.650335	0.000335	3.345373	1.133443	-0.000134
 735	7.3033e+01	10.7612	32.573630	0.000193	1.926124	0.652588	-0.000077
 736	7.3132e+01	10.7195	32.428293	0.000365	3.649498	1.236483	-0.000146
 737	7.3232e+01	10.6665	32.319290	0.000274	2.737124	0.927363	-0.000110
 738	7.3332e+01	10.6393	32.214325	0.000264	2.635749	0.893016	-0.000105
 739	7.3431e+01	10.5944	32.105322	0.000274	2.737124	0.927363	-0.000110
 740	7.3531e+01	10.5575	31.964022	0.000355	3.548123	1.202137	-0.000142
 741	7.3630e+01	10.5141	31.846945	0.000294	2.939874	0.996056	-0.000118
 742	7.3730e+01	10.4788	31.770240	0.000193	1.926124	0.652588	-0.000077
 743	7.3829e+01	10.4387	31.624903	0.000365	3.649498	1.236483	-0.000146
 744	7.3928e+01	10.3954	31.487640	0.000345	3.446748	1.167790	-0.000138
 745	7.4028e+01	10.3617	31.382675	0.000264	2.635749	0.893016	-0.000105
 746	7.4127e+01	10.3248	31.253486	0.000324	3.243998	1.099096	-0.000130
 747	7.4227e+01	10.2767	31.176781	0.000193	1.926124	0.652588	-0.000077
 748	7.4326e+01	10.2350	31.051630	0.000314	3.142623	1.064750	-0.000126
 749	7.4426e+01	10.1981	30.974924	0.000193	1.926124	0.652588	-0.000077
 750	7.4525e+01	10.1676	30.833624	0.000355	3.548123	1.202137	-0.000142
 751	7.4625e+01	10.1195	30.708473	0.000314	3.142623	1.064750	-0.000126
 752	7.4725e+01	10.0778	30.591396	0.000294	2.939874	0.996056	-0.000118
 753	7.4824e+01	10.0361	30.458171	0.000335	3.345373	1.133443	-0.000134
 754	7.4924e+01	9.9912	30.385502	0.000182	1.824749	0.618242	-0.000073
 755	7.5023e+01	9.9559	30.244202	0.000355	3.548123	1.202137	-0.000142
 756	7.5123e+01	9.9206	30.131163	0.000284	2.838499	0.961709	-0.000114
 757	7.5222e+01	9.8724	30.042346	0.000223	2.230249	0.755629	-0.000089
 758	7.5322e+01	9.8404	29.897009	0.000365	3.649498	1.236483	-0.000146
 759	7.5421e+01	9.8003	29.779932	0.000294	2.939874	0.996056	-0.000118
 760	7.5520e+01	9.7585	29.674966	0.000264	2.635749	0.893016	-0.000105
 761	7.5620e+01	9.7168	29.525592	0.000375	3.750873	1.270830	-0.000150
 762	7.5719e+01	9.6815	29.416590	0.000274	2.737124	0.927363	-0.000110
 763	7.5819e+01	9.6430	29.311624	0.000264	2.635749	0.893016	-0.000105
 764	7.5918e+01	9.5997	29.214733	0.000243	2.432999	0.824322	-0.000097
 765	7.6018e+01	9.5644	29.073433	0.000355	3.548123	1.202137	-0.000142
 766	7.6118e+01	9.5131	28.960393	0.000284	2.838499	0.961709	-0.000114
 767	7.6217e+01	9.4746	28.843316	0.000294	2.939874	0.996056	-0.000118
 768	7.6317e+01	9.4393	28.730276	0.000284	2.838499	0.961709	-0.000114
 769	7.6416e+01	9.4040	28.601088	0.000324	3.243998	1.099096	-0.000130
 770	7.6516e+01	9.3543	28.492085	0.000274	2.737124	0.927363	-0.000110
 771	7.6615e+01	9.3270	28.366934	0.000314	3.142623	1.064750	-0.000126
 772	7.6715e+01	9.2917	28.257932	0.000274	2.737124	0.927363	-0.000110
 773	7.6814e+01	9.2340	28.140855	0.000294	2.939874	0.996056	-0.000118
 774	7.6913e+01	9.2035	28.011666	0.000324	3.243998	1.099096	-0.000130
 775	7.7013e+01	9.1570	27.930924	0.000203	2.027499	0.686935	-0.000081
 776	7.7112e+01	9.1281	27.777512	0.000385	3.852248	1.305177	-0.000154
 777	7.7212e+01	9.0864	27.676584	0.000253	2.534374	0.858669	-0.000101
 778	7.7311e+01	9.0366	27.502987	0.000436	4.359123	1.476911	-0.000174
 779	7.7411e+01	9.0062	27.430319	0.000182	1.824749	0.618242	-0.000073
 780	7.7510e+01	8.9709	27.309205	0.000304	3.041248	1.030403	-0.000122
 781	7.7610e+01	8.9276	27.180016	0.000324	3.243998	1.099096	-0.000130
 782	7.7710e+01	8.8858	27.018531	0.000405	4.054998	1.373870	-0.000162
 783	7.7809e+01	8.8409	26.917603	0.000253	2.534374	0.858669	-0.000101
 784	7.7909e+01	8.8008	26.812637	0.000264	2.635749	0.893016	-0.000105
 785	7.8008e+01	8.7784	26.687486	0.000314	3.142623	1.064750	-0.000126
 786	7.8108e+01	8.7174	26.590595	0.000243	2.432999	0.824322	-0.000097
 787	7.8207e+01	8.6869	26.449295	0.000355	3.548123	1.202137	-0.000142
 788	7.8306e+01	8.6420	26.307995	0.000355	3.548123	1.202137	-0.000142
 789	7.8406e+01	8.6019	26.182844	0.000314	3.142623	1.064750	-0.000126
 790	7.8505e+01	8.5650	26.081915	0.000253	2.534374	0.858669	-0.000101
 791	7.8605e+01	8.5329	25.956764	0.000314	3.142623	1.064750	-0.000126
 792	7.8704e+01	8.4864	25.835650	0.000304	3.041248	1.030403	-0.000122
 793	7.8804e+01	8.4463	25.750870	0.000213	2.128874	0.721282	-0.000085
 794	7.8903e+01	8.4062	25.597459	0.000385	3.852248	1.305177	-0.000154
 795	7.9003e+01	8.3645	25.500568	0.000243	2.432999	0.824322	-0.000097
 796	7.9103e+01	8.3163	25.355231	0.000365	3.649498	1.236483	-0.000146
 797	7.9202e+01	8.2875	25.213931	0.000355	3.548123	1.202137	-0.000142
 798	7.9302e+01	8.2506	25.137226	0.000193	1.926124	0.652588	-0.000077
 799	7.9401e+01	8.2008	24.975740	0.000405	4.054998	1.373870	-0.000162
 800	7.9501e+01	8.1575	24.830403	0.000365	3.649498	1.236483	-0.000146
 801	7.9600e+01	8.1254	24.733512	0.000243	2.432999	0.824322	-0.000097
 802	7.9700e+01	8.0918	24.604324	0.000324	3.243998	1.099096	-0.000130
 803	7.9799e+01	8.0452	24.458987	0.000365	3.649498	1.236483	-0.000146
 804	7.9898e+01	8.0147	24.349984	0.000274	2.737124	0.927363	-0.000110
 805	7.9998e+01	7.9618	24.220796	0.000324	3.243998	1.099096	-0.000130
 806	8.0097e+01	7.9313	24.148127	0.000182	1.824749	0.618242	-0.000073
 807	8.0197e+01	7.8880	23.990679	0.000395	3.953623	1.339524	-0.000158
 808	8.0296e+01	7.8463	23.833231	0.000395	3.953623	1.339524	-0.000158
 809	8.0396e+01	7.8094	23.732302	0.000253	2.534374	0.858669	-0.000101
 810	8.0496e+01	7.7677	23.631374	0.000253	2.534374	0.858669	-0.000101
 811	8.0595e+01	7.7260	23.502186	0.000324	3.243998	1.099096	-0.000130
 812	8.0695e+01	7.6875	23.368960	0.000335	3.345373	1.133443	-0.000134
 813	8.0794e+01	7.6506	23.231698	0.000345	3.446748	1.167790	-0.000138
 814	8.0894e+01	7.6057	23.114621	0.000294	2.939874	0.996056	-0.000118
 815	8.0993e+01	7.5720	22.945061	0.000426	4.257748	1.442564	-0.000170
 816	8.1093e+01	7.5271	22.868355	0.000193	1.926124	0.652588	-0.000077
 817	8.1192e+01	7.4950	22.755316	0.000284	2.838499	0.961709	-0.000114
 818	8.1291e+01	7.4485	22.614016	0.000355	3.548123	1.202137	-0.000142
 819	8.1391e+01	7.4067	22.500976	0.000284	2.838499	0.961709	-0.000114
 820	8.1490e+01	7.3634	22.359676	0.000355	3.548123	1.202137	-0.000142
 821	8.1590e+01	7.3313	22.250674	0.000274	2.737124	0.927363	-0.000110
 822	8.1689e+01	7.2944	22.129560	0.000304	3.041248	1.030403	-0.000122
 823	8.1789e+01	7.2511	21.988260	0.000355	3.548123	1.202137	-0.000142
 824	8.1888e+01	7.2062	21.871183	0.000294	2.939874	0.996056	-0.000118
 825	8.1988e+01	7.1725	21.737957	0.000335	3.345373	1.133443	-0.000134
 826	8.2088e+01	7.1372	21.612806	0.000314	3.142623	1.064750	-0.000126
 827	8.2187e+01	7.0923	21.475544	0.000345	3.446748	1.167790	-0.000138
 828	8.2287e+01	7.0586	21.350392	0.000314	3.142623	1.064750	-0.000126
 829	8.2386e+01	7.0121	21.245427	0.000264	2.635749	0.893016	-0.000105
 830	8.2486e+01	6.9704	21.132387	0.000284	2.838499	0.961709	-0.000114
 831	8.2585e+01	6.9319	20.970902	0.000405	4.054998	1.373870	-0.000162
 832	8.2684e+01	6.8886	20.801342	0.000426	4.257748	1.442564	-0.000170
 833	8.2784e+01	6.8469	20.672154	0.000324	3.243998	1.099096	-0.000130
 834	8.2883e+01	6.8019	20.583337	0.000223	2.230249	0.755629	-0.000089
 835	8.2983e+01	6.7699	20.446074	0.000345	3.446748	1.167790	-0.000138
 836	8.3082e+01	6.7249	20.333034	0.000284	2.838499	0.961709	-0.000114
 837	8.3182e+01	6.6961	20.215957	0.000294	2.939874	0.996056	-0.000118
 838	8.3281e+01	6.6431	20.082732	0.000335	3.345373	1.133443	-0.000134
 839	8.3381e+01	6.6062	19.937395	0.000365	3.649498	1.236483	-0.000146
 840	8.3481e+01	6.5677	19.844541	0.000233	2.331624	0.789976	-0.000093
 841	8.3580e+01	6.5260	19.691130	0.000385	3.852248	1.305177	-0.000154
 842	8.3680e+01	6.4827	19.557904	0.000335	3.345373	1.133443	-0.000134
 843	8.3779e+01	6.4522	19.432753	0.000314	3.142623	1.064750	-0.000126
 844	8.3879e+01	6.4025	19.295490	0.000345	3.446748	1.167790	-0.000138
 845	8.3978e+01	6.3768	19.162265	0.000335	3.345373	1.133443	-0.000134
 846	8.4078e+01	6.3319	19.012891	0.000375	3.750873	1.270830	-0.000150
 847	8.4177e+01	6.2966	18.887740	0.000314	3.142623	1.064750	-0.000126
 848	8.4276e+01	6.2549	18.786811	0.000253	2.534374	0.858669	-0.000101
 849	8.4376e+01	6.2148	18.653586	0.000335	3.345373	1.133443	-0.000134
 850	8.4475e+01	6.1699	18.536509	0.000294	2.939874	0.996056	-0.000118
 851	8.4575e+01	6.1378	18.391172	0.000365	3.649498	1.236483	-0.000146
 852	8.4674e+01	6.0993	18.278132	0.000284	2.838499	0.961709	-0.000114
 853	8.4774e+01	6.0528	18.132795	0.000365	3.649498	1.236483	-0.000146
 854	8.4874e+01	6.0191	18.027830	0.000264	2.635749	0.893016	-0.000105
 855	8.4973e+01	5.9758	17.882493	0.000365	3.649498	1.236483	-0.000146
 856	8.5073e+01	5.9357	17.765416	0.000294	2.939874	0.996056	-0.000118
 857	8.5172e+01	5.9004	17.652376	0.000284	2.838499	0.961709	-0.000114
 858	8.5272e+01	5.8571	17.511076	0.000355	3.548123	1.202137	-0.000142
 859	8.5371e+01	5.8105	17.398036	0.000284	2.838499	0.961709	-0.000114
 860	8.5471e+01	5.7768	17.272885	0.000314	3.142623	1.064750	-0.000126
 861	8.5570e+01	5.7383	17.159845	0.000284	2.838499	0.961709	-0.000114
 862	8.5669e+01	5.6934	16.990286	0.000426	4.257748	1.442564	-0.000170
 863	8.5769e+01	5.6597	16.881283	0.000274	2.737124	0.927363	-0.000110
 864	8.5868e+01	5.6148	16.744020	0.000345	3.446748	1.167790	-0.000138
 865	8.5968e+01	5.5683	16.630981	0.000284	2.838499	0.961709	-0.000114
 866	8.6067e+01	5.5410	16.530052	0.000253	2.534374	0.858669	-0.000101
 867	8.6167e+01	5.4977	16.392790	0.000345	3.446748	1.167790	-0.000138
 868	8.6266e+01	5.4528	16.247453	0.000365	3.649498	1.236483	-0.000146
 869	8.6366e+01	5.4127	16.138450	0.000274	2.737124	0.927363	-0.000110
 870	8.6466e+01	5.3726	16.057707	0.000203	2.027499	0.686935	-0.000081
 871	8.6565e+01	5.3261	15.888148	0.000426	4.257748	1.442564	-0.000170
 872	8.6665e+01	5.2956	15.754922	0.000335	3.345373	1.133443	-0.000134
 873	8.6764e+01	5.2667	15.605548	0.000375	3.750873	1.270830	-0.000150
 874	8.6864e+01	5.2218	15.492508	0.000284	2.838499	0.961709	-0.000114
 875	8.6963e+01	5.1817	15.403691	0.000223	2.230249	0.755629	-0.000089
 876	8.7063e+01	5.1416	15.242206	0.000405	4.054998	1.373870	-0.000162
 877	8.7162e+01	5.0983	15.133203	0.000274	2.737124	0.927363	-0.000110
 878	8.7261e+01	5.0565	14.991904	0.000355	3.548123	1.202137	-0.000142
 879	8.7361e+01	5.0164	14.866752	0.000314	3.142623	1.064750	-0.000126
 880	8.7460e+01	4.9795	14.729490	0.000345	3.446748	1.167790	-0.000138
 881	8.7560e+01	4.9394	14.640673	0.000223	2.230249	0.755629	-0.000089
 882	8.7659e+01	4.8977	14.515522	0.000314	3.142623	1.064750	-0.000126
 883	8.7759e+01	4.8640	14.370185	0.000365	3.649498	1.236483	-0.000146
 884	8.7859e+01	4.8191	14.289442	0.000203	2.027499	0.686935	-0.000081
 885	8.7958e+01	4.7742	14.107771	0.000456	4.561873	1.545604	-0.000183
 886	8.8058e+01	4.7325	14.022991	0.000213	2.128874	0.721282	-0.000085
 887	8.8157e+01	4.6972	13.889766	0.000335	3.345373	1.133443	-0.000134
 888	8.8257e+01	4.6635	13.768651	0.000304	3.041248	1.030403	-0.000122
 889	8.8356e+01	4.6266	13.631389	0.000345	3.446748	1.167790	-0.000138
 890	8.8456e+01	4.5817	13.542572	0.000223	2.230249	0.755629	-0.000089
 891	8.8555e+01	4.5464	13.425495	0.000294	2.939874	0.996056	-0.000118
 892	8.8654e+01	4.5047	13.312455	0.000284	2.838499	0.961709	-0.000114
 893	8.8754e+01	4.4598	13.155007	0.000395	3.953623	1.339524	-0.000158
 894	8.8853e+01	4.4197	13.013707	0.000355	3.548123	1.202137	-0.000142
 895	8.8953e+01	4.3763	12.888556	0.000314	3.142623	1.064750	-0.000126
 896	8.9052e+01	4.3411	12.767442	0.000304	3.041248	1.030403	-0.000122
 897	8.9152e+01	4.2945	12.634216	0.000335	3.345373	1.133443	-0.000134
 898	8.9251e+01	4.2641	12.557511	0.000193	1.926124	0.652588	-0.000077
 899	8.9351e+01	4.2223	12.408137	0.000375	3.750873	1.270830	-0.000150
 900	8.9451e+01	4.1774	12.262800	0.000365	3.649498	1.236483	-0.000146
 901	8.9550e+01	4.1389	12.149760	0.000284	2.838499	0.961709	-0.000114
 902	8.9650e+01	4.0988	12.016535	0.000335	3.345373	1.133443	-0.000134
 903	8.9749e+01	4.0619	11.939829	0.000193	1.926124	0.652588	-0.000077
 904	8.9849e+01	4.0298	11.790455	0.000375	3.750873	1.270830	-0.000150
 905	8.9948e+01	3.9865	11.665304	0.000314	3.142623	1.064750	-0.000126
 906	9.0047e+01	3.9336	11.524004	0.000355	3.548123	1.202137	-0.000142
 907	9.0147e+01	3.8999	11.427113	0.000243	2.432999	0.824322	-0.000097
 908	9.0246e+01	3.8646	11.281776	0.000365	3.649498	1.236483	-0.000146
 909	9.0346e+01	3.8261	11.160662	0.000304	3.041248	1.030403	-0.000122
 910	9.0445e+01	3.7780	11.071845	0.000223	2.230249	0.755629	-0.000089
 911	9.0545e+01	3.7379	10.938619	0.000335	3.345373	1.133443	-0.000134
 912	9.0644e+01	3.6994	10.789245	0.000375	3.750873	1.270830	-0.000150
 913	9.0744e+01	3.6657	10.668131	0.000304	3.041248	1.030403	-0.000122
 914	9.0844e+01	3.6208	10.534906	0.000335	3.345373	1.133443	-0.000134
 915	9.0943e+01	3.5790	10.470312	0.000162	1.621999	0.549548	-0.000065
 916	9.1043e+01	3.5373	10.308826	0.000405	4.054998	1.373870	-0.000162
 917	9.1142e+01	3.4972	10.183675	0.000314	3.142623	1.064750	-0.000126
 918	9.1242e+01	3.4603	10.054487	0.000324	3.243998	1.099096	-0.000130
 919	9.1341e+01	3.4266	9.985855	0.000172	1.723374	0.583895	-0.000069
 920	9.1441e+01	3.3849	9.832444	0.000385	3.852248	1.305177	-0.000154
 921	9.1540e+01	3.3400	9.715367	0.000294	2.939874	0.996056	-0.000118
 922	9.1639e+01	3.3159	9.598290	0.000294	2.939874	0.996056	-0.000118
 923	9.1739e+01	3.2646	9.493325	0.000264	2.635749	0.893016	-0.000105
 924	9.1838e+01	3.2277	9.356062	0.000345	3.446748	1.167790	-0.000138
 925	9.1938e+01	3.1796	9.218799	0.000345	3.446748	1.167790	-0.000138
 926	9.2037e+01	3.1491	9.097685	0.000304	3.041248	1.030403	-0.000122
 927	9.2137e+01	3.1122	9.004831	0.000233	2.331624	0.789976	-0.000093
 928	9.2237e+01	3.0673	8.863532	0.000355	3.548123	1.202137	-0.000142
 929	9.2336e+01	3.0144	8.738380	0.000314	3.142623	1.064750	-0.000126
 930	9.2436e+01	2.9887	8.609192	0.000324	3.243998	1.099096	-0.000130
 931	9.2535e+01	2.9518	8.532486	0.000193	1.926124	0.652588	-0.000077
 932	9.2635e+01	2.9085	8.387149	0.000365	3.649498	1.236483	-0.000146
 933	9.2734e+01	2.8748	8.257961	0.000324	3.243998	1.099096	-0.000130
 934	9.2834e+01	2.8251	8.165107	0.000233	2.331624	0.789976	-0.000093
 935	9.2933e+01	2.7801	8.003622	0.000405	4.054998	1.373870	-0.000162
 936	9.3032e+01	2.7464	7.910767	0.000233	2.331624	0.789976	-0.000093
 937	9.3132e+01	2.7031	7.793691	0.000294	2.939874	0.996056	-0.000118
 938	9.3231e+01	2.6775	7.636242	0.000395	3.953623	1.339524	-0.000158
 939	9.3331e+01	2.6277	7.543388	0.000233	2.331624	0.789976	-0.000093
 940	9.3430e+01	2.5892	7.398051	0.000365	3.649498	1.236483	-0.000146
 941	9.3530e+01	2.5507	7.289049	0.000274	2.737124	0.927363	-0.000110
 942	9.3629e+01	2.5074	7.159860	0.000324	3.243998	1.099096	-0.000130
 943	9.3729e+01	2.4769	7.026635	0.000335	3.345373	1.133443	-0.000134
 944	9.3829e+01	2.4224	6.925706	0.000253	2.534374	0.858669	-0.000101
 945	9.3928e+01	2.3823	6.756147	0.000426	4.257748	1.442564	-0.000170
 946	9.4028e+01	2.3470	6.647144	0.000274	2.737124	0.927363	-0.000110
 947	9.4127e+01	2.3117	6.521993	0.000314	3.142623	1.064750	-0.000126
 948	9.4227e+01	2.2732	6.400879	0.000304	3.041248	1.030403	-0.000122
 949	9.4326e+01	2.2283	6.267653	0.000335	3.345373	1.133443	-0.000134
 950	9.4425e+01	2.1930	6.182873	0.000213	2.128874	0.721282	-0.000085
 951	9.4525e+01	2.1497	5.989091	0.000487	4.865998	1.648645	-0.000195
 952	9.4624e+01	2.1128	5.884125	0.000264	2.635749	0.893016	-0.000105
 953	9.4724e+01	2.0695	5.763011	0.000304	3.041248	1.030403	-0.000122
 954	9.4823e+01	2.0245	5.605563	0.000395	3.953623	1.339524	-0.000158
 955	9.4923e+01	1.9941	5.508672	0.000243	2.432999	0.824322	-0.000097
 956	9.5022e+01	1.9540	5.391595	0.000294	2.939874	0.996056	-0.000118
 957	9.5122e+01	1.9138	5.258369	0.000335	3.345373	1.133443	-0.000134
 958	9.5222e+01	1.8770	5.133218	0.000314	3.142623	1.064750	-0.000126
 959	9.5321e+01	1.8304	5.012104	0.000304	3.041248	1.030403	-0.000122
 960	9.5421e+01	1.7919	4.870804	0.000355	3.548123	1.202137	-0.000142
 961	9.5520e+01	1.7550	4.761802	0.000274	2.737124	0.927363	-0.000110
 962	9.5620e+01	1.7133	4.624539	0.000345	3.446748	1.167790	-0.000138
 963	9.5719e+01	1.6764	4.491314	0.000335	3.345373	1.133443	-0.000134
 964	9.5819e+01	1.6219	4.378274	0.000284	2.838499	0.961709	-0.000114
 965	9.5918e+01	1.5834	4.224863	0.000385	3.852248	1.305177	-0.000154
 966	9.6017e+01	1.5529	4.099711	0.000314	3.142623	1.064750	-0.000126
 967	9.6117e+01	1.5160	4.010894	0.000223	2.230249	0.755629	-0.000089
 968	9.6216e+01	1.4679	3.873632	0.000345	3.446748	1.167790	-0.000138
 969	9.6316e+01	1.4342	3.728295	0.000365	3.649498	1.236483	-0.000146
 970	9.6415e+01	1.3957	3.615255	0.000284	2.838499	0.961709	-0.000114
 971	9.6515e+01	1.3540	3.490104	0.000314	3.142623	1.064750	-0.000126
 972	9.6615e+01	1.3171	3.368990	0.000304	3.041248	1.030403	-0.000122
 973	9.6714e+01	1.2802	3.195393	0.000436	4.359123	1.476911	-0.000174
 974	9.6814e+01	1.2256	3.082353	0.000284	2.838499	0.961709	-0.000114
 975	9.6913e+01	1.1919	2.961239	0.000304	3.041248	1.030403	-0.000122
 976	9.7013e+01	1.1454	2.840125	0.000304	3.041248	1.030403	-0.000122
 977	9.7112e+01	1.1037	2.714974	0.000314	3.142623	1.064750	-0.000126
 978	9.7212e+01	1.0813	2.565600	0.000375	3.750873	1.270830	-0.000150
 979	9.7311e+01	1.0267	2.464671	0.000253	2.534374	0.858669	-0.000101
 980	9.7410e+01	0.9882	2.295112	0.000426	4.257748	1.442564	-0.000170
 981	9.7510e+01	0.9545	2.206295	0.000223	2.230249	0.755629	-0.000089
 982	9.7609e+01	0.9144	2.060958	0.000365	3.649498	1.236483	-0.000146
 983	9.7709e+01	0.8759	1.964067	0.000243	2.432999	0.824322	-0.000097
 984	9.7808e+01	0.8358	1.814693	0.000375	3.750873	1.270830	-0.000150
 985	9.7908e+01	0.7989	1.681467	0.000335	3.345373	1.133443	-0.000134
 986	9.8007e+01	0.7556	1.556316	0.000314	3.142623	1.064750	-0.000126
 987	9.8107e+01	0.7171	1.390793	0.000416	4.156373	1.408217	-0.000166
 988	9.8207e+01	0.6770	1.281791	0.000274	2.737124	0.927363	-0.000110
 989	9.8306e+01	0.6353	1.156639	0.000314	3.142623	1.064750	-0.000126
 990	9.8406e+01	0.5920	1.027451	0.000324	3.243998	1.099096	-0.000130
 991	9.8505e+01	0.5519	0.914411	0.000284	2.838499	0.961709	-0.000114
 992	9.8605e+01	0.5166	0.805409	0.000274	2.737124	0.927363	-0.000110
 993	9.8704e+01	0.4749	0.664109	0.000355	3.548123	1.202137	-0.000142
 994	9.8803e+01	0.4412	0.551069	0.000284	2.838499	0.961709	-0.000114
 995	9.8903e+01	0.3962	0.381509	0.000426	4.257748	1.442564	-0.000170
 996	9.9002e+01	0.3577	0.252321	0.000324	3.243998	1.099096	-0.000130
 997	9.9102e+01	0.3144	0.131207	0.000304	3.041248	1.030403	-0.000122
 998	9.9201e+01	0.2823	0.026241	0.000264	2.635749	0.893016	-0.000105
 999	9.9301e+01	0.2374	-0.131207	0.000395	3.953623	1.339524	-0.000158
1000	9.9400e+01	0.1877	-0.268470	0.000345	3.446748	1.167790	-0.000138
1001	9.9500e+01	0.1524	-0.377472	0.000274	2.737124	0.927363	-0.000110
1002	9.9600e+01	0.1171	-0.478401	0.000253	2.534374	0.858669	-0.000101
1003	9.9699e+01	0.0834	-0.643923	0.000416	4.156373	1.408217	-0.000166
1004	9.9799e+01	0.0257	-0.748889	0.000264	2.635749	0.893016	-0.000105
1005	9.9898e+01	0.0048	-0.902300	0.000385	3.852248	1.305177	-0.000154
1006	9.9998e+01	-0.0273	-1.027451	0.000314	3.142623	1.064750	-0.000126
1007	1.0010e+02	-0.0706	-1.116268	0.000223	2.230249	0.755629	-0.000089
1008	1.0020e+02	-0.1123	-1.257568	0.000355	3.548123	1.202137	-0.000142
1009	1.0030e+02	-0.1540	-1.370608	0.000284	2.838499	0.961709	-0.000114
1010	1.0040e+02	-0.1845	-1.515944	0.000365	3.649498	1.236483	-0.000146
1011	1.0050e+02	-0.2326	-1.665318	0.000375	3.750873	1.270830	-0.000150
1012	1.0059e+02	-0.2695	-1.810655	0.000365	3.649498	1.236483	-0.000146
1013	1.0069e+02	-0.3192	-1.931769	0.000304	3.041248	1.030403	-0.000122
1014	1.0079e+02	-0.3593	-2.032698	0.000253	2.534374	0.858669	-0.000101
1015	1.0089e+02	-0.3834	-2.214369	0.000456	4.561873	1.545604	-0.000183
1016	1.0099e+02	-0.4283	-2.323372	0.000274	2.737124	0.927363	-0.000110
1017	1.0109e+02	-0.4668	-2.448523	0.000314	3.142623	1.064750	-0.000126
1018	1.0119e+02	-0.5101	-2.529266	0.000203	2.027499	0.686935	-0.000081
1019	1.0129e+02	-0.5390	-2.686714	0.000395	3.953623	1.339524	-0.000158
1020	1.0139e+02	-0.5904	-2.832051	0.000365	3.649498	1.236483	-0.000146
1021	1.0149e+02	-0.6337	-2.961239	0.000324	3.243998	1.099096	-0.000130
1022	1.0159e+02	-0.6738	-3.058130	0.000243	2.432999	0.824322	-0.000097
1023	1.0169e+02	-0.7155	-3.207504	0.000375	3.750873	1.270830	-0.000150
1024	1.0179e+02	-0.7556	-3.336693	0.000324	3.243998	1.099096	-0.000130
1025	1.0189e+02	-0.7973	-3.473955	0.000345	3.446748	1.167790	-0.000138
1026	1.0199e+02	-0.8454	-3.595069	0.000304	3.041248	1.030403	-0.000122
1027	1.0209e+02	-0.8711	-3.728295	0.000335	3.345373	1.133443	-0.000134
1028	1.0219e+02	-0.9096	-3.825186	0.000243	2.432999	0.824322	-0.000097
1029	1.0229e+02	-0.9545	-3.938226	0.000284	2.838499	0.961709	-0.000114
1030	1.0239e+02	-0.9946	-4.119897	0.000456	4.561873	1.545604	-0.000183
1031	1.0248e+02	-1.0315	-4.257160	0.000345	3.446748	1.167790	-0.000138
1032	1.0258e+02	-1.0716	-4.354051	0.000243	2.432999	0.824322	-0.000097
1033	1.0268e+02	-1.1149	-4.434794	0.000203	2.027499	0.686935	-0.000081
1034	1.0278e+02	-1.1550	-4.592242	0.000395	3.953623	1.339524	-0.000158
1035	1.0288e+02	-1.1919	-4.717393	0.000314	3.142623	1.064750	-0.000126
1036	1.0298e+02	-1.2272	-4.822359	0.000264	2.635749	0.893016	-0.000105
1037	1.0308e+02	-1.2673	-5.020178	0.000497	4.967372	1.682991	-0.000199
1038	1.0318e+02	-1.3235	-5.072661	0.000132	1.317874	0.446508	-0.000053
1039	1.0328e+02	-1.3508	-5.242221	0.000426	4.257748	1.442564	-0.000170
1040	1.0338e+02	-1.3812	-5.314889	0.000182	1.824749	0.618242	-0.000073
1041	1.0348e+02	-1.4294	-5.480412	0.000416	4.156373	1.408217	-0.000166
1042	1.0358e+02	-1.4631	-5.613637	0.000335	3.345373	1.133443	-0.000134
1043	1.0368e+02	-1.5144	-5.710529	0.000243	2.432999	0.824322	-0.000097
1044	1.0378e+02	-1.5545	-5.851828	0.000355	3.548123	1.202137	-0.000142
1045	1.0388e+02	-1.5850	-5.976979	0.000314	3.142623	1.064750	-0.000126
1046	1.0398e+02	-1.6379	-6.102131	0.000314	3.142623	1.064750	-0.000126
1047	1.0408e+02	-1.6668	-6.215170	0.000284	2.838499	0.961709	-0.000114
1048	1.0418e+02	-1.7037	-6.332247	0.000294	2.939874	0.996056	-0.000118
1049	1.0428e+02	-1.7582	-6.441250	0.000274	2.737124	0.927363	-0.000110
1050	1.0438e+02	-1.7823	-6.566401	0.000314	3.142623	1.064750	-0.000126
1051	1.0447e+02	-1.8304	-6.719812	0.000385	3.852248	1.305177	-0.000154
1052	1.0457e+02	-1.8705	-6.796518	0.000193	1.926124	0.652588	-0.000077
1053	1.0467e+02	-1.9074	-6.941855	0.000365	3.649498	1.236483	-0.000146
1054	1.0477e+02	-1.9459	-7.099303	0.000395	3.953623	1.339524	-0.000158
1055	1.0487e+02	-1.9860	-7.196194	0.000243	2.432999	0.824322	-0.000097
1056	1.0497e+02	-2.0310	-7.321346	0.000314	3.142623	1.064750	-0.000126
1057	1.0507e+02	-2.0663	-7.430348	0.000274	2.737124	0.927363	-0.000110
1058	1.0517e+02	-2.1064	-7.515128	0.000213	2.128874	0.721282	-0.000085
1059	1.0527e+02	-2.1449	-7.672576	0.000395	3.953623	1.339524	-0.000158
1060	1.0537e+02	-2.1978	-7.809839	0.000345	3.446748	1.167790	-0.000138
1061	1.0547e+02	-2.2235	-7.918842	0.000274	2.737124	0.927363	-0.000110
1062	1.0557e+02	-2.2652	-8.031882	0.000284	2.838499	0.961709	-0.000114
1063	1.0567e+02	-2.3037	-8.161070	0.000324	3.243998	1.099096	-0.000130
1064	1.0577e+02	-2.3438	-8.257961	0.000243	2.432999	0.824322	-0.000097
1065	1.0587e+02	-2.3775	-8.399261	0.000355	3.548123	1.202137	-0.000142
1066	1.0597e+02	-2.4240	-8.536524	0.000345	3.446748	1.167790	-0.000138
1067	1.0607e+02	-2.4657	-8.609192	0.000182	1.824749	0.618242	-0.000073
1068	1.0617e+02	-2.5042	-8.774715	0.000416	4.156373	1.408217	-0.000166
1069	1.0627e+02	-2.5475	-8.903903	0.000324	3.243998	1.099096	-0.000130
1070	1.0637e+02	-2.5924	-9.049240	0.000365	3.649498	1.236483	-0.000146
1071	1.0647e+02	-2.6229	-9.134020	0.000213	2.128874	0.721282	-0.000085
1072	1.0656e+02	-2.6727	-9.295505	0.000405	4.054998	1.373870	-0.000162
1073	1.0666e+02	-2.7031	-9.400471	0.000264	2.635749	0.893016	-0.000105
1074	1.0676e+02	-2.7384	-9.501399	0.000253	2.534374	0.858669	-0.000101
1075	1.0686e+02	-2.7833	-9.638662	0.000345	3.446748	1.167790	-0.000138
1076	1.0696e+02	-2.8138	-9.767850	0.000324	3.243998	1.099096	-0.000130
1077	1.0706e+02	-2.8668	-9.856667	0.000223	2.230249	0.755629	-0.000089
1078	1.0716e+02	-2.9069	-10.022189	0.000416	4.156373	1.408217	-0.000166
1079	1.0726e+02	-2.9422	-10.098895	0.000193	1.926124	0.652588	-0.000077
1080	1.0736e+02	-2.9775	-10.220009	0.000304	3.041248	1.030403	-0.000122
1081	1.0746e+02	-3.0272	-10.333049	0.000284	2.838499	0.961709	-0.000114
1082	1.0756e+02	-3.0609	-10.490497	0.000395	3.953623	1.339524	-0.000158
1083	1.0766e+02	-3.1026	-10.551054	0.000152	1.520624	0.515201	-0.000061
1084	1.0776e+02	-3.1459	-10.704465	0.000385	3.852248	1.305177	-0.000154
1085	1.0786e+02	-3.1844	-10.801357	0.000243	2.432999	0.824322	-0.000097
1086	1.0796e+02	-3.2149	-10.914396	0.000284	2.838499	0.961709	-0.000114
1087	1.0806e+02	-3.2662	-11.083956	0.000426	4.257748	1.442564	-0.000170
1088	1.0816e+02	-3.3063	-11.188922	0.000264	2.635749	0.893016	-0.000105
1089	1.0826e+02	-3.3400	-11.265627	0.000193	1.926124	0.652588	-0.000077
1090	1.0836e+02	-3.3833	-11.410964	0.000365	3.649498	1.236483	-0.000146
1091	1.0845e+02	-3.4218	-11.491707	0.000203	2.027499	0.686935	-0.000081
1092	1.0855e+02	-3.4635	-11.616858	0.000314	3.142623	1.064750	-0.000126
1093	1.0865e+02	-3.4908	-11.729898	0.000284	2.838499	0.961709	-0.000114
1094	1.0875e+02	-3.5373	-11.859086	0.000324	3.243998	1.099096	-0.000130
1095	1.0885e+02	-3.5823	-12.004423	0.000365	3.649498	1.236483	-0.000146
1096	1.0895e+02	-3.6240	-12.085166	0.000203	2.027499	0.686935	-0.000081
1097	1.0905e+02	-3.6593	-12.270874	0.000466	4.663248	1.579951	-0.000187
1098	1.0915e+02	-3.7010	-12.307208	0.000091	0.912375	0.309121	-0.000037
1099	1.0925e+02	-3.7411	-12.468694	0.000405	4.054998	1.373870	-0.000162
1100	1.0935e+02	-3.7812	-12.614031	0.000365	3.649498	1.236483	-0.000146
1101	1.0945e+02	-3.8181	-12.662476	0.000122	1.216499	0.412161	-0.000049
1102	1.0955e+02	-3.8598	-12.803776	0.000355	3.548123	1.202137	-0.000142
1103	1.0965e+02	-3.8967	-12.884519	0.000203	2.027499	0.686935	-0.000081
1104	1.0975e+02	-3.9384	-13.041967	0.000395	3.953623	1.339524	-0.000158
1105	1.0985e+02	-3.9785	-13.163081	0.000304	3.041248	1.030403	-0.000122
1106	1.0995e+02	-4.0202	-13.300344	0.000345	3.446748	1.167790	-0.000138
1107	1.1005e+02	-4.0635	-13.389161	0.000223	2.230249	0.755629	-0.000089
1108	1.1015e+02	-4.0988	-13.522386	0.000335	3.345373	1.133443	-0.000134
1109	1.1025e+02	-4.1405	-13.631389	0.000274	2.737124	0.927363	-0.000110
1110	1.1035e+02	-4.1854	-13.748466	0.000294	2.939874	0.996056	-0.000118
1111	1.1044e+02	-4.2127	-13.865543	0.000294	2.939874	0.996056	-0.000118
1112	1.1054e+02	-4.2560	-14.006842	0.000355	3.548123	1.202137	-0.000142
1113	1.1064e+02	-4.2961	-14.111808	0.000264	2.635749	0.893016	-0.000105
1114	1.1074e+02	-4.3314	-14.245033	0.000335	3.345373	1.133443	-0.000134
1115	1.1084e+02	-4.3683	-14.349999	0.000264	2.635749	0.893016	-0.000105
1116	1.1094e+02	-4.4229	-14.483224	0.000335	3.345373	1.133443	-0.000134
1117	1.1104e+02	-4.4485	-14.604339	0.000304	3.041248	1.030403	-0.000122
1118	1.1114e+02	-4.4870	-14.713341	0.000274	2.737124	0.927363	-0.000110
1119	1.1124e+02	-4.5400	-14.814270	0.000253	2.534374	0.858669	-0.000101
1120	1.1134e+02	-4.5785	-14.971718	0.000395	3.953623	1.339524	-0.000158
1121	1.1144e+02	-4.6202	-15.088795	0.000294	2.939874	0.996056	-0.000118
1122	1.1154e+02	-4.6507	-15.181649	0.000233	2.331624	0.789976	-0.000093
1123	1.1164e+02	-4.6940	-15.294689	0.000284	2.838499	0.961709	-0.000114
1124	1.1174e+02	-4.7325	-15.464248	0.000426	4.257748	1.442564	-0.000170
1125	1.1184e+02	-4.7662	-15.549028	0.000213	2.128874	0.721282	-0.000085
1126	1.1194e+02	-4.8207	-15.686291	0.000345	3.446748	1.167790	-0.000138
1127	1.1204e+02	-4.8672	-15.811442	0.000314	3.142623	1.064750	-0.000126
1128	1.1214e+02	-4.8945	-15.924482	0.000284	2.838499	0.961709	-0.000114
1129	1.1224e+02	-4.9314	-16.037522	0.000284	2.838499	0.961709	-0.000114
1130	1.1234e+02	-4.9763	-16.158636	0.000304	3.041248	1.030403	-0.000122
1131	1.1244e+02	-5.0164	-16.316084	0.000395	3.953623	1.339524	-0.000158
1132	1.1253e+02	-5.0598	-16.441235	0.000314	3.142623	1.064750	-0.000126
1133	1.1263e+02	-5.0918	-16.513904	0.000182	1.824749	0.618242	-0.000073
1134	1.1273e+02	-5.1319	-16.614832	0.000253	2.534374	0.858669	-0.000101
1135	1.1283e+02	-5.1769	-16.776318	0.000405	4.054998	1.373870	-0.000162
1136	1.1293e+02	-5.2234	-16.869172	0.000233	2.331624	0.789976	-0.000093
1137	1.1303e+02	-5.2603	-16.970100	0.000253	2.534374	0.858669	-0.000101
1138	1.1313e+02	-5.2876	-17.127548	0.000395	3.953623	1.339524	-0.000158
1139	1.1323e+02	-5.3277	-17.272885	0.000365	3.649498	1.236483	-0.000146
1140	1.1333e+02	-5.3694	-17.377851	0.000264	2.635749	0.893016	-0.000105
1141	1.1343e+02	-5.4095	-17.515113	0.000345	3.446748	1.167790	-0.000138
1142	1.1353e+02	-5.4528	-17.624116	0.000274	2.737124	0.927363	-0.000110
1143	1.1363e+02	-5.4977	-17.761379	0.000345	3.446748	1.167790	-0.000138
1144	1.1373e+02	-5.5378	-17.850196	0.000223	2.230249	0.755629	-0.000089
1145	1.1383e+02	-5.5779	-17.975347	0.000314	3.142623	1.064750	-0.000126
1146	1.1393e+02	-5.6148	-18.128758	0.000385	3.852248	1.305177	-0.000154
1147	1.1403e+02	-5.6549	-18.213538	0.000213	2.128874	0.721282	-0.000085
1148	1.1413e+02	-5.6934	-18.334652	0.000304	3.041248	1.030403	-0.000122
1149	1.1423e+02	-5.7303	-18.467877	0.000335	3.345373	1.133443	-0.000134
1150	1.1433e+02	-5.7720	-18.576880	0.000274	2.737124	0.927363	-0.000110
1151	1.1442e+02	-5.8105	-18.685883	0.000274	2.737124	0.927363	-0.000110
1152	1.1452e+02	-5.8522	-18.802960	0.000294	2.939874	0.996056	-0.000118
1153	1.1462e+02	-5.8956	-18.952334	0.000375	3.750873	1.270830	-0.000150
1154	1.1472e+02	-5.9405	-19.093633	0.000355	3.548123	1.202137	-0.000142
1155	1.1482e+02	-5.9661	-19.186488	0.000233	2.331624	0.789976	-0.000093
1156	1.1492e+02	-6.0191	-19.295490	0.000274	2.737124	0.927363	-0.000110
1157	1.1502e+02	-6.0592	-19.424679	0.000324	3.243998	1.099096	-0.000130
1158	1.1512e+02	-6.0977	-19.525607	0.000253	2.534374	0.858669	-0.000101
1159	1.1522e+02	-6.1330	-19.638647	0.000284	2.838499	0.961709	-0.000114
1160	1.1532e+02	-6.1763	-19.800132	0.000405	4.054998	1.373870	-0.000162
1161	1.1542e+02	-6.2116	-19.913172	0.000284	2.838499	0.961709	-0.000114
1162	1.1552e+02	-6.2549	-20.038323	0.000314	3.142623	1.064750	-0.000126
1163	1.1562e+02	-6.2886	-20.175586	0.000345	3.446748	1.167790	-0.000138
1164	1.1572e+02	-6.3351	-20.288626	0.000284	2.838499	0.961709	-0.000114
1165	1.1582e+02	-6.3672	-20.405703	0.000294	2.939874	0.996056	-0.000118
1166	1.1592e+02	-6.4153	-20.514705	0.000274	2.737124	0.927363	-0.000110
1167	1.1602e+02	-6.4426	-20.607559	0.000233	2.331624	0.789976	-0.000093
1168	1.1612e+02	-6.4923	-20.773082	0.000416	4.156373	1.408217	-0.000166
1169	1.1622e+02	-6.5276	-20.833639	0.000152	1.520624	0.515201	-0.000061
1170	1.1632e+02	-6.5629	-21.015310	0.000456	4.561873	1.545604	-0.000183
1171	1.1642e+02	-6.6062	-21.124313	0.000274	2.737124	0.927363	-0.000110
1172	1.1651e+02	-6.6463	-21.257538	0.000335	3.345373	1.133443	-0.000134
1173	1.1661e+02	-6.6880	-21.342318	0.000213	2.128874	0.721282	-0.000085
1174	1.1671e+02	-6.7362	-21.451321	0.000274	2.737124	0.927363	-0.000110
1175	1.1681e+02	-6.7683	-21.592620	0.000355	3.548123	1.202137	-0.000142
1176	1.1691e+02	-6.8116	-21.770254	0.000446	4.460498	1.511258	-0.000179
1177	1.1701e+02	-6.8421	-21.859071	0.000223	2.230249	0.755629	-0.000089
1178	1.1711e+02	-6.8918	-22.000371	0.000355	3.548123	1.202137	-0.000142
1179	1.1721e+02	-6.9207	-22.056891	0.000142	1.419249	0.480855	-0.000057
1180	1.1731e+02	-6.9543	-22.210302	0.000385	3.852248	1.305177	-0.000154
1181	1.1741e+02	-7.0137	-22.335453	0.000314	3.142623	1.064750	-0.000126
1182	1.1751e+02	-7.0458	-22.448493	0.000284	2.838499	0.961709	-0.000114
1183	1.1761e+02	-7.0843	-22.573644	0.000314	3.142623	1.064750	-0.000126
1184	1.1771e+02	-7.1228	-22.702833	0.000324	3.243998	1.099096	-0.000130
1185	1.1781e+02	-7.1661	-22.827984	0.000314	3.142623	1.064750	-0.000126
1186	1.1791e+02	-7.1966	-22.936987	0.000274	2.737124	0.927363	-0.000110
1187	1.1801e+02	-7.2399	-23.074249	0.000345	3.446748	1.167790	-0.000138
1188	1.1811e+02	-7.2768	-23.171141	0.000243	2.432999	0.824322	-0.000097
1189	1.1821e+02	-7.3281	-23.300329	0.000324	3.243998	1.099096	-0.000130
1190	1.1831e+02	-7.3602	-23.425480	0.000314	3.142623	1.064750	-0.000126
1191	1.1841e+02	-7.4035	-23.550631	0.000314	3.142623	1.064750	-0.000126
1192	1.1850e+02	-7.4388	-23.643485	0.000233	2.331624	0.789976	-0.000093
1193	1.1860e+02	-7.4837	-23.756525	0.000284	2.838499	0.961709	-0.000114
1194	1.1870e+02	-7.5239	-23.881676	0.000314	3.142623	1.064750	-0.000126
1195	1.1880e+02	-7.5672	-24.002791	0.000304	3.041248	1.030403	-0.000122
1196	1.1890e+02	-7.6009	-24.127942	0.000314	3.142623	1.064750	-0.000126
1197	1.1900e+02	-7.6474	-24.212722	0.000213	2.128874	0.721282	-0.000085
1198	1.1910e+02	-7.6779	-24.358058	0.000365	3.649498	1.236483	-0.000146
1199	1.1920e+02	-7.7180	-24.450913	0.000233	2.331624	0.789976	-0.000093
1200	1.1930e+02	-7.7549	-24.620472	0.000426	4.257748	1.442564	-0.000170
1201	1.1940e+02	-7.8046	-24.693141	0.000182	1.824749	0.618242	-0.000073
1202	1.1950e+02	-7.8415	-24.794069	0.000253	2.534374	0.858669	-0.000101
1203	1.1960e+02	-7.8912	-24.923257	0.000324	3.243998	1.099096	-0.000130
1204	1.1970e+02	-7.9217	-25.040334	0.000294	2.939874	0.996056	-0.000118
1205	1.1980e+02	-7.9618	-25.145300	0.000264	2.635749	0.893016	-0.000105
1206	1.1990e+02	-8.0003	-25.270451	0.000314	3.142623	1.064750	-0.000126
1207	1.2000e+02	-8.0372	-25.423862	0.000385	3.852248	1.305177	-0.000154
1208	1.2010e+02	-8.0773	-25.536902	0.000284	2.838499	0.961709	-0.000114
1209	1.2020e+02	-8.1303	-25.593422	0.000142	1.419249	0.480855	-0.000057
1210	1.2030e+02	-8.1639	-25.702425	0.000274	2.737124	0.927363	-0.000110
1211	1.2039e+02	-8.1976	-25.831613	0.000324	3.243998	1.099096	-0.000130
1212	1.2049e+02	-8.2409	-25.924467	0.000233	2.331624	0.789976	-0.000093
1213	1.2059e+02	-8.2714	-26.077878	0.000385	3.852248	1.305177	-0.000154
1214	1.2069e+02	-8.3196	-26.162658	0.000213	2.128874	0.721282	-0.000085
1215	1.2079e+02	-8.3661	-26.287809	0.000314	3.142623	1.064750	-0.000126
1216	1.2089e+02	-8.3917	-26.421035	0.000335	3.345373	1.133443	-0.000134
1217	1.2099e+02	-8.4399	-26.534075	0.000284	2.838499	0.961709	-0.000114
1218	1.2109e+02	-8.4880	-26.643077	0.000274	2.737124	0.927363	-0.000110
1219	1.2119e+02	-8.5185	-26.735931	0.000233	2.331624	0.789976	-0.000093
1220	1.2129e+02	-8.5586	-26.848971	0.000284	2.838499	0.961709	-0.000114
1221	1.2139e+02	-8.5939	-26.949900	0.000253	2.534374	0.858669	-0.000101
1222	1.2149e+02	-8.6356	-27.083125	0.000335	3.345373	1.133443	-0.000134
1223	1.2159e+02	-8.6741	-27.188091	0.000264	2.635749	0.893016	-0.000105
1224	1.2169e+02	-8.7190	-27.313242	0.000314	3.142623	1.064750	-0.000126
1225	1.2179e+02	-8.7591	-27.393985	0.000203	2.027499	0.686935	-0.000081
1226	1.2189e+02	-8.7976	-27.527210	0.000335	3.345373	1.133443	-0.000134
1227	1.2199e+02	-8.8425	-27.616027	0.000223	2.230249	0.755629	-0.000089
1228	1.2209e+02	-8.8794	-27.745215	0.000324	3.243998	1.099096	-0.000130
1229	1.2219e+02	-8.9227	-27.850181	0.000264	2.635749	0.893016	-0.000105
1230	1.2229e+02	-8.9596	-27.987444	0.000345	3.446748	1.167790	-0.000138
1231	1.2239e+02	-8.9949	-28.056075	0.000172	1.723374	0.583895	-0.000069
1232	1.2248e+02	-9.0431	-28.185263	0.000324	3.243998	1.099096	-0.000130
1233	1.2258e+02	-9.0816	-28.346749	0.000405	4.054998	1.373870	-0.000162
1234	1.2268e+02	-9.1153	-28.419417	0.000182	1.824749	0.618242	-0.000073
1235	1.2278e+02	-9.1554	-28.528420	0.000274	2.737124	0.927363	-0.000110
1236	1.2288e+02	-9.1890	-28.625311	0.000243	2.432999	0.824322	-0.000097
1237	1.2298e+02	-9.2340	-28.750462	0.000314	3.142623	1.064750	-0.000126
1238	1.2308e+02	-9.2805	-28.863502	0.000284	2.838499	0.961709	-0.000114
1239	1.2318e+02	-9.3174	-28.956356	0.000233	2.331624	0.789976	-0.000093
1240	1.2328e+02	-9.3559	-29.057284	0.000253	2.534374	0.858669	-0.000101
1241	1.2338e+02	-9.3944	-29.198584	0.000355	3.548123	1.202137	-0.000142
1242	1.2348e+02	-9.4297	-29.271253	0.000182	1.824749	0.618242	-0.000073
1243	1.2358e+02	-9.4714	-29.396404	0.000314	3.142623	1.064750	-0.000126
1244	1.2368e+02	-9.5195	-29.505407	0.000274	2.737124	0.927363	-0.000110
1245	1.2378e+02	-9.5532	-29.646706	0.000355	3.548123	1.202137	-0.000142
1246	1.2388e+02	-9.5981	-29.687078	0.000101	1.013749	0.343468	-0.000041
1247	1.2398e+02	-9.6430	-29.864712	0.000446	4.460498	1.511258	-0.000179
1248	1.2408e+02	-9.6848	-29.933343	0.000172	1.723374	0.583895	-0.000069
1249	1.2418e+02	-9.7136	-30.066568	0.000335	3.345373	1.133443	-0.000134
1250	1.2428e+02	-9.7489	-30.159423	0.000233	2.331624	0.789976	-0.000093
1251	1.2438e+02	-9.7987	-30.260351	0.000253	2.534374	0.858669	-0.000101
1252	1.2447e+02	-9.8291	-30.369354	0.000274	2.737124	0.927363	-0.000110
1253	1.2457e+02	-9.8741	-30.450096	0.000203	2.027499	0.686935	-0.000081
1254	1.2467e+02	-9.9126	-30.571210	0.000304	3.041248	1.030403	-0.000122
1255	1.2477e+02	-9.9543	-30.672139	0.000253	2.534374	0.858669	-0.000101
1256	1.2487e+02	-9.9847	-30.789216	0.000294	2.939874	0.996056	-0.000118
1257	1.2497e+02	-10.0313	-30.882070	0.000233	2.331624	0.789976	-0.000093
1258	1.2507e+02	-10.0730	-31.011258	0.000324	3.243998	1.099096	-0.000130
1259	1.2517e+02	-10.1115	-31.079889	0.000172	1.723374	0.583895	-0.000069
1260	1.2527e+02	-10.1452	-31.225226	0.000365	3.649498	1.236483	-0.000146
1261	1.2537e+02	-10.1885	-31.358452	0.000335	3.345373	1.133443	-0.000134
1262	1.2547e+02	-10.2302	-31.463417	0.000264	2.635749	0.893016	-0.000105
1263	1.2557e+02	-10.2671	-31.515900	0.000132	1.317874	0.446508	-0.000053
1264	1.2567e+02	-10.3168	-31.596643	0.000203	2.027499	0.686935	-0.000081
1265	1.2577e+02	-10.3521	-31.737943	0.000355	3.548123	1.202137	-0.000142
1266	1.2587e+02	-10.3874	-31.871168	0.000335	3.345373	1.133443	-0.000134
1267	1.2597e+02	-10.4259	-31.959985	0.000223	2.230249	0.755629	-0.000089
1268	1.2607e+02	-10.4740	-32.044765	0.000213	2.128874	0.721282	-0.000085
1269	1.2617e+02	-10.5093	-32.157805	0.000284	2.838499	0.961709	-0.000114
1270	1.2627e+02	-10.5542	-32.230473	0.000182	1.824749	0.618242	-0.000073
1271	1.2636e+02	-10.5863	-32.371773	0.000355	3.548123	1.202137	-0.000142
1272	1.2646e+02	-10.6296	-32.484813	0.000284	2.838499	0.961709	-0.000114
1273	1.2656e+02	-10.6714	-32.573630	0.000223	2.230249	0.755629	-0.000089
1274	1.2666e+02	-10.7099	-32.686670	0.000284	2.838499	0.961709	-0.000114
1275	1.2676e+02	-10.7484	-32.791635	0.000264	2.635749	0.893016	-0.000105
1276	1.2686e+02	-10.7949	-32.941009	0.000375	3.750873	1.270830	-0.000150
1277	1.2696e+02	-10.8318	-33.005603	0.000162	1.621999	0.549548	-0.000065
1278	1.2706e+02	-10.8639	-33.090383	0.000213	2.128874	0.721282	-0.000085
1279	1.2716e+02	-10.9040	-33.227646	0.000345	3.446748	1.167790	-0.000138
1280	1.2726e+02	-10.9553	-33.368945	0.000355	3.548123	1.202137	-0.000142
1281	1.2736e+02	-10.9890	-33.417391	0.000122	1.216499	0.412161	-0.000049
1282	1.2746e+02	-11.0259	-33.590988	0.000436	4.359123	1.476911	-0.000174
1283	1.2756e+02	-11.0644	-33.631359	0.000101	1.013749	0.343468	-0.000041
1284	1.2766e+02	-11.1045	-33.800919	0.000426	4.257748	1.442564	-0.000170
1285	1.2776e+02	-11.1494	-33.865513	0.000162	1.621999	0.549548	-0.000065
1286	1.2786e+02	-11.1863	-33.986627	0.000304	3.041248	1.030403	-0.000122
1287	1.2796e+02	-11.2312	-34.127927	0.000355	3.548123	1.202137	-0.000142
1288	1.2806e+02	-11.2569	-34.253078	0.000314	3.142623	1.064750	-0.000126
1289	1.2816e+02	-11.3163	-34.345932	0.000233	2.331624	0.789976	-0.000093
1290	1.2826e+02	-11.3435	-34.418601	0.000182	1.824749	0.618242	-0.000073
1291	1.2835e+02	-11.3868	-34.503381	0.000213	2.128874	0.721282	-0.000085
1292	1.2845e+02	-11.4366	-34.612383	0.000274	2.737124	0.927363	-0.000110
1293	1.2855e+02	-11.4687	-34.721386	0.000274	2.737124	0.927363	-0.000110
1294	1.2865e+02	-11.5136	-34.870760	0.000375	3.750873	1.270830	-0.000150
1295	1.2875e+02	-11.5505	-34.999948	0.000324	3.243998	1.099096	-0.000130
1296	1.2885e+02	-11.5922	-35.064542	0.000162	1.621999	0.549548	-0.000065
1297	1.2895e+02	-11.6291	-35.169508	0.000264	2.635749	0.893016	-0.000105
1298	1.2905e+02	-11.6724	-35.266399	0.000243	2.432999	0.824322	-0.000097
1299	1.2915e+02	-11.7013	-35.403662	0.000345	3.446748	1.167790	-0.000138
1300	1.2925e+02	-11.7494	-35.536887	0.000335	3.345373	1.133443	-0.000134
1301	1.2935e+02	-11.7863	-35.625704	0.000223	2.230249	0.755629	-0.000089
1302	1.2945e+02	-11.8216	-35.710484	0.000213	2.128874	0.721282	-0.000085
1303	1.2955e+02	-11.8617	-35.839673	0.000324	3.243998	1.099096	-0.000130
1304	1.2965e+02	-11.9082	-35.964824	0.000314	3.142623	1.064750	-0.000126
1305	1.2975e+02	-11.9467	-36.085938	0.000304	3.041248	1.030403	-0.000122
1306	1.2985e+02	-11.9836	-36.142458	0.000142	1.419249	0.480855	-0.000057
1307	1.2995e+02	-12.0269	-36.287795	0.000365	3.649498	1.236483	-0.000146
1308	1.3005e+02	-12.0574	-36.429094	0.000355	3.548123	1.202137	-0.000142
1309	1.3015e+02	-12.1136	-36.457354	0.000071	0.709625	0.240427	-0.000028
1310	1.3025e+02	-12.1505	-36.610765	0.000385	3.852248	1.305177	-0.000154
1311	1.3034e+02	-12.1858	-36.719768	0.000274	2.737124	0.927363	-0.000110
1312	1.3044e+02	-12.2259	-36.852994	0.000335	3.345373	1.133443	-0.000134
1313	1.3054e+02	-12.2692	-36.937773	0.000213	2.128874	0.721282	-0.000085
1314	1.3064e+02	-12.2932	-37.034665	0.000243	2.432999	0.824322	-0.000097
1315	1.3074e+02	-12.3349	-37.155779	0.000304	3.041248	1.030403	-0.000122
1316	1.3084e+02	-12.3879	-37.301116	0.000365	3.649498	1.236483	-0.000146
1317	1.3094e+02	-12.4280	-37.377821	0.000193	1.926124	0.652588	-0.000077
1318	1.3104e+02	-12.4601	-37.502972	0.000314	3.142623	1.064750	-0.000126
1319	1.3114e+02	-12.5002	-37.587752	0.000213	2.128874	0.721282	-0.000085
1320	1.3124e+02	-12.5371	-37.692718	0.000264	2.635749	0.893016	-0.000105
1321	1.3134e+02	-12.5884	-37.797683	0.000264	2.635749	0.893016	-0.000105
1322	1.3144e+02	-12.6253	-37.943020	0.000365	3.649498	1.236483	-0.000146
1323	1.3154e+02	-12.6638	-38.019726	0.000193	1.926124	0.652588	-0.000077
1324	1.3164e+02	-12.7151	-38.140840	0.000304	3.041248	1.030403	-0.000122
1325	1.3174e+02	-12.7344	-38.245805	0.000264	2.635749	0.893016	-0.000105
1326	1.3184e+02	-12.7889	-38.330585	0.000213	2.128874	0.721282	-0.000085
1327	1.3194e+02	-12.8178	-38.500145	0.000426	4.257748	1.442564	-0.000170
1328	1.3204e+02	-12.8692	-38.560702	0.000152	1.520624	0.515201	-0.000061
1329	1.3214e+02	-12.9028	-38.706039	0.000365	3.649498	1.236483	-0.000146
1330	1.3224e+02	-12.9365	-38.811004	0.000264	2.635749	0.893016	-0.000105
1331	1.3234e+02	-12.9831	-38.899821	0.000223	2.230249	0.755629	-0.000089
1332	1.3243e+02	-13.0151	-38.996713	0.000243	2.432999	0.824322	-0.000097
1333	1.3253e+02	-13.0649	-39.138012	0.000355	3.548123	1.202137	-0.000142
1334	1.3263e+02	-13.0970	-39.238941	0.000253	2.534374	0.858669	-0.000101
1335	1.3273e+02	-13.1403	-39.311609	0.000182	1.824749	0.618242	-0.000073
1336	1.3283e+02	-13.1820	-39.432723	0.000304	3.041248	1.030403	-0.000122
1337	1.3293e+02	-13.2285	-39.557875	0.000314	3.142623	1.064750	-0.000126
1338	1.3303e+02	-13.2558	-39.695137	0.000345	3.446748	1.167790	-0.000138
1339	1.3313e+02	-13.2975	-39.828363	0.000335	3.345373	1.133443	-0.000134
1340	1.3323e+02	-13.3360	-39.888920	0.000152	1.520624	0.515201	-0.000061
1341	1.3333e+02	-13.3761	-40.018108	0.000324	3.243998	1.099096	-0.000130
1342	1.3343e+02	-13.4162	-40.086739	0.000172	1.723374	0.583895	-0.000069
1343	1.3353e+02	-13.4547	-40.187668	0.000253	2.534374	0.858669	-0.000101
1344	1.3363e+02	-13.4884	-40.349153	0.000405	4.054998	1.373870	-0.000162
1345	1.3373e+02	-13.5397	-40.458156	0.000274	2.737124	0.927363	-0.000110
1346	1.3383e+02	-13.5830	-40.546973	0.000223	2.230249	0.755629	-0.000089
1347	1.3393e+02	-13.6135	-40.664050	0.000294	2.939874	0.996056	-0.000118
1348	1.3403e+02	-13.6600	-40.773052	0.000274	2.737124	0.927363	-0.000110
1349	1.3413e+02	-13.6921	-40.894166	0.000304	3.041248	1.030403	-0.000122
1350	1.3423e+02	-13.7370	-40.999132	0.000264	2.635749	0.893016	-0.000105
1351	1.3432e+02	-13.7707	-41.100060	0.000253	2.534374	0.858669	-0.000101
1352	1.3442e+02	-13.8108	-41.213100	0.000284	2.838499	0.961709	-0.000114
1353	1.3452e+02	-13.8622	-41.334214	0.000304	3.041248	1.030403	-0.000122
1354	1.3462e+02	-13.8911	-41.390734	0.000142	1.419249	0.480855	-0.000057
1355	1.3472e+02	-13.9392	-41.544145	0.000385	3.852248	1.305177	-0.000154
1356	1.3482e+02	-13.9777	-41.641037	0.000243	2.432999	0.824322	-0.000097
1357	1.3492e+02	-14.0162	-41.725816	0.000213	2.128874	0.721282	-0.000085
1358	1.3502e+02	-14.0595	-41.903450	0.000446	4.460498	1.511258	-0.000179
1359	1.3512e+02	-14.0852	-41.980156	0.000193	1.926124	0.652588	-0.000077
1360	1.3522e+02	-14.1365	-42.081084	0.000253	2.534374	0.858669	-0.000101
1361	1.3532e+02	-14.1846	-42.169901	0.000223	2.230249	0.755629	-0.000089
1362	1.3542e+02	-14.2135	-42.311201	0.000355	3.548123	1.202137	-0.000142
1363	1.3552e+02	-14.2600	-42.343498	0.000081	0.811000	0.274774	-0.000032
1364	1.3562e+02	-14.2953	-42.460575	0.000294	2.939874	0.996056	-0.000118
1365	1.3572e+02	-14.3467	-42.581689	0.000304	3.041248	1.030403	-0.000122
1366	1.3582e+02	-14.3771	-42.690692	0.000274	2.737124	0.927363	-0.000110
1367	1.3592e+02	-14.4237	-42.779509	0.000223	2.230249	0.755629	-0.000089
1368	1.3602e+02	-14.4541	-42.924846	0.000365	3.649498	1.236483	-0.000146
1369	1.3612e+02	-14.5023	-43.025774	0.000253	2.534374	0.858669	-0.000101
1370	1.3622e+02	-14.5360	-43.098443	0.000182	1.824749	0.618242	-0.000073
1371	1.3631e+02	-14.5712	-43.203408	0.000264	2.635749	0.893016	-0.000105
1372	1.3641e+02	-14.6178	-43.284151	0.000203	2.027499	0.686935	-0.000081
1373	1.3651e+02	-14.6547	-43.437562	0.000385	3.852248	1.305177	-0.000154
1374	1.3661e+02	-14.6964	-43.542528	0.000264	2.635749	0.893016	-0.000105
1375	1.3671e+02	-14.7317	-43.603085	0.000152	1.520624	0.515201	-0.000061
1376	1.3681e+02	-14.7750	-43.744384	0.000355	3.548123	1.202137	-0.000142
1377	1.3691e+02	-14.8103	-43.849350	0.000264	2.635749	0.893016	-0.000105
1378	1.3701e+02	-14.8520	-43.930093	0.000203	2.027499	0.686935	-0.000081
1379	1.3711e+02	-14.8921	-44.047169	0.000294	2.939874	0.996056	-0.000118
1380	1.3721e+02	-14.9370	-44.115801	0.000172	1.723374	0.583895	-0.000069
1381	1.3731e+02	-14.9723	-44.240952	0.000314	3.142623	1.064750	-0.000126
1382	1.3741e+02	-15.0060	-44.345918	0.000264	2.635749	0.893016	-0.000105
1383	1.3751e+02	-15.0493	-44.438772	0.000233	2.331624	0.789976	-0.000093
1384	1.3761e+02	-15.0862	-44.531626	0.000233	2.331624	0.789976	-0.000093
1385	1.3771e+02	-15.1375	-44.620443	0.000223	2.230249	0.755629	-0.000089
1386	1.3781e+02	-15.1664	-44.733483	0.000284	2.838499	0.961709	-0.000114
1387	1.3791e+02	-15.2226	-44.850559	0.000294	2.939874	0.996056	-0.000118
1388	1.3801e+02	-15.2450	-44.923228	0.000182	1.824749	0.618242	-0.000073
1389	1.3811e+02	-15.2835	-45.040305	0.000294	2.939874	0.996056	-0.000118
1390	1.3821e+02	-15.3397	-45.193716	0.000385	3.852248	1.305177	-0.000154
1391	1.3831e+02	-15.3782	-45.262347	0.000172	1.723374	0.583895	-0.000069
1392	1.3840e+02	-15.4151	-45.343090	0.000203	2.027499	0.686935	-0.000081
1393	1.3850e+02	-15.4504	-45.452093	0.000274	2.737124	0.927363	-0.000110
1394	1.3860e+02	-15.4985	-45.532835	0.000203	2.027499	0.686935	-0.000081
1395	1.3870e+02	-15.5354	-45.694321	0.000405	4.054998	1.373870	-0.000162
1396	1.3880e+02	-15.5659	-45.779101	0.000213	2.128874	0.721282	-0.000085
1397	1.3890e+02	-15.6108	-45.859843	0.000203	2.027499	0.686935	-0.000081
1398	1.3900e+02	-15.6365	-45.928475	0.000172	1.723374	0.583895	-0.000069
1399	1.3910e+02	-15.6910	-46.021329	0.000233	2.331624	0.789976	-0.000093
1400	1.3920e+02	-15.7311	-46.130332	0.000274	2.737124	0.927363	-0.000110
1401	1.3930e+02	-15.7664	-46.275668	0.000365	3.649498	1.236483	-0.000146
1402	1.3940e+02	-15.8049	-46.352374	0.000193	1.926124	0.652588	-0.000077
1403	1.3950e+02	-15.8578	-46.433117	0.000203	2.027499	0.686935	-0.000081
1404	1.3960e+02	-15.8835	-46.546156	0.000284	2.838499	0.961709	-0.000114
1405	1.3970e+02	-15.9316	-46.683419	0.000345	3.446748	1.167790	-0.000138
1406	1.3980e+02	-15.9685	-46.768199	0.000213	2.128874	0.721282	-0.000085
1407	1.3990e+02	-16.0151	-46.873164	0.000264	2.635749	0.893016	-0.000105
1408	1.4000e+02	-16.0407	-46.982167	0.000274	2.737124	0.927363	-0.000110
1409	1.4010e+02	-16.0953	-47.038687	0.000142	1.419249	0.480855	-0.000057
1410	1.4020e+02	-16.1306	-47.147690	0.000274	2.737124	0.927363	-0.000110
1411	1.4029e+02	-16.1723	-47.240544	0.000233	2.331624	0.789976	-0.000093
1412	1.4039e+02	-16.2060	-47.341472	0.000253	2.534374	0.858669	-0.000101
1413	1.4049e+02	-16.2493	-47.446438	0.000264	2.635749	0.893016	-0.000105
1414	1.4059e+02	-16.2942	-47.579663	0.000335	3.345373	1.133443	-0.000134
1415	1.4069e+02	-16.3263	-47.603886	0.000061	0.608250	0.206081	-0.000024
1416	1.4079e+02	-16.3664	-47.797669	0.000487	4.865998	1.648645	-0.000195
1417	1.4089e+02	-16.4001	-47.834003	0.000091	0.912375	0.309121	-0.000037
1418	1.4099e+02	-16.4514	-47.963191	0.000324	3.243998	1.099096	-0.000130
1419	1.4109e+02	-16.4835	-48.052008	0.000223	2.230249	0.755629	-0.000089
1420	1.4119e+02	-16.5252	-48.108528	0.000142	1.419249	0.480855	-0.000057
1421	1.4129e+02	-16.5669	-48.237716	0.000324	3.243998	1.099096	-0.000130
1422	1.4139e+02	-16.6086	-48.310385	0.000182	1.824749	0.618242	-0.000073
1423	1.4149e+02	-16.6487	-48.427462	0.000294	2.939874	0.996056	-0.000118
1424	1.4159e+02	-16.6888	-48.528390	0.000253	2.534374	0.858669	-0.000101
1425	1.4169e+02	-16.7225	-48.649504	0.000304	3.041248	1.030403	-0.000122
1426	1.4179e+02	-16.7594	-48.718136	0.000172	1.723374	0.583895	-0.000069
1427	1.4189e+02	-16.8059	-48.810990	0.000233	2.331624	0.789976	-0.000093
1428	1.4199e+02	-16.8477	-48.907881	0.000243	2.432999	0.824322	-0.000097
1429	1.4209e+02	-16.8894	-48.956327	0.000122	1.216499	0.412161	-0.000049
1430	1.4219e+02	-16.9359	-49.129923	0.000436	4.359123	1.476911	-0.000174
1431	1.4228e+02	-16.9648	-49.174332	0.000112	1.115124	0.377814	-0.000045
1432	1.4238e+02	-17.0049	-49.311594	0.000345	3.446748	1.167790	-0.000138
1433	1.4248e+02	-17.0466	-49.416560	0.000264	2.635749	0.893016	-0.000105
1434	1.4258e+02	-17.0867	-49.525563	0.000274	2.737124	0.927363	-0.000110
1435	1.4268e+02	-17.1300	-49.582083	0.000142	1.419249	0.480855	-0.000057
1436	1.4278e+02	-17.1685	-49.683011	0.000253	2.534374	0.858669	-0.000101
1437	1.4288e+02	-17.2038	-49.804125	0.000304	3.041248	1.030403	-0.000122
1438	1.4298e+02	-17.2359	-49.888905	0.000213	2.128874	0.721282	-0.000085
1439	1.4308e+02	-17.2888	-49.973685	0.000213	2.128874	0.721282	-0.000085
1440	1.4318e+02	-17.3209	-50.082687	0.000274	2.737124	0.927363	-0.000110
1441	1.4328e+02	-17.3626	-50.175542	0.000233	2.331624	0.789976	-0.000093
1442	1.4338e+02	-17.4172	-50.272433	0.000243	2.432999	0.824322	-0.000097
1443	1.4348e+02	-17.4412	-50.401621	0.000324	3.243998	1.099096	-0.000130
1444	1.4358e+02	-17.4893	-50.494475	0.000233	2.331624	0.789976	-0.000093
1445	1.4368e+02	-17.5246	-50.599441	0.000264	2.635749	0.893016	-0.000105
1446	1.4378e+02	-17.5567	-50.680183	0.000203	2.027499	0.686935	-0.000081
1447	1.4388e+02	-17.6065	-50.793223	0.000284	2.838499	0.961709	-0.000114
1448	1.4398e+02	-17.6369	-50.894152	0.000253	2.534374	0.858669	-0.000101
1449	1.4408e+02	-17.6802	-51.035451	0.000355	3.548123	1.202137	-0.000142
1450	1.4418e+02	-17.7268	-51.055637	0.000051	0.506875	0.171734	-0.000020
1451	1.4428e+02	-17.7653	-51.192900	0.000345	3.446748	1.167790	-0.000138
1452	1.4437e+02	-17.8038	-51.330162	0.000345	3.446748	1.167790	-0.000138
1453	1.4447e+02	-17.8439	-51.427054	0.000243	2.432999	0.824322	-0.000097
1454	1.4457e+02	-17.8840	-51.536056	0.000274	2.737124	0.927363	-0.000110
1455	1.4467e+02	-17.9209	-51.653133	0.000294	2.939874	0.996056	-0.000118
1456	1.4477e+02	-17.9642	-51.758099	0.000264	2.635749	0.893016	-0.000105
1457	1.4487e+02	-17.9995	-51.834804	0.000193	1.926124	0.652588	-0.000077
1458	1.4497e+02	-18.0444	-51.931696	0.000243	2.432999	0.824322	-0.000097
1459	1.4507e+02	-18.0861	-52.048773	0.000294	2.939874	0.996056	-0.000118
1460	1.4517e+02	-18.1198	-52.153738	0.000264	2.635749	0.893016	-0.000105
1461	1.4527e+02	-18.1615	-52.299075	0.000365	3.649498	1.236483	-0.000146
1462	1.4537e+02	-18.2016	-52.383855	0.000213	2.128874	0.721282	-0.000085
1463	1.4547e+02	-18.2514	-52.472672	0.000223	2.230249	0.755629	-0.000089
1464	1.4557e+02	-18.2738	-52.581674	0.000274	2.737124	0.927363	-0.000110
1465	1.4567e+02	-18.3268	-52.706826	0.000314	3.142623	1.064750	-0.000126
1466	1.4577e+02	-18.3637	-52.799680	0.000233	2.331624	0.789976	-0.000093
1467	1.4587e+02	-18.4038	-52.945017	0.000365	3.649498	1.236483	-0.000146
1468	1.4597e+02	-18.4407	-53.029796	0.000213	2.128874	0.721282	-0.000085
1469	1.4607e+02	-18.4776	-53.158985	0.000324	3.243998	1.099096	-0.000130
1470	1.4617e+02	-18.5305	-53.259913	0.000253	2.534374	0.858669	-0.000101
1471	1.4626e+02	-18.5642	-53.376990	0.000294	2.939874	0.996056	-0.000118
1472	1.4636e+02	-18.6043	-53.506179	0.000324	3.243998	1.099096	-0.000130
1473	1.4646e+02	-18.6380	-53.603070	0.000243	2.432999	0.824322	-0.000097
1474	1.4656e+02	-18.6909	-53.728221	0.000314	3.142623	1.064750	-0.000126
1475	1.4666e+02	-18.7118	-53.845298	0.000294	2.939874	0.996056	-0.000118
1476	1.4676e+02	-18.7551	-53.913929	0.000172	1.723374	0.583895	-0.000069
1477	1.4686e+02	-18.7952	-54.079452	0.000416	4.156373	1.408217	-0.000166
1478	1.4696e+02	-18.8401	-54.176343	0.000243	2.432999	0.824322	-0.000097
1479	1.4706e+02	-18.8722	-54.297457	0.000304	3.041248	1.030403	-0.000122
1480	1.4716e+02	-18.9171	-54.402423	0.000264	2.635749	0.893016	-0.000105
1481	1.4726e+02	-18.9604	-54.543722	0.000355	3.548123	1.202137	-0.000142
1482	1.4736e+02	-18.9989	-54.685022	0.000355	3.548123	1.202137	-0.000142
1483	1.4746e+02	-19.0358	-54.785951	0.000253	2.534374	0.858669	-0.000101
1484	1.4756e+02	-19.0840	-54.915139	0.000324	3.243998	1.099096	-0.000130
1485	1.4766e+02	-19.1128	-55.052401	0.000345	3.446748	1.167790	-0.000138
1486	1.4776e+02	-19.1577	-55.165441	0.000284	2.838499	0.961709	-0.000114
1487	1.4786e+02	-19.1930	-55.314815	0.000375	3.750873	1.270830	-0.000150
1488	1.4796e+02	-19.2428	-55.415744	0.000253	2.534374	0.858669	-0.000101
1489	1.4806e+02	-19.2765	-55.536858	0.000304	3.041248	1.030403	-0.000122
1490	1.4816e+02	-19.3166	-55.645860	0.000274	2.737124	0.927363	-0.000110
1491	1.4825e+02	-19.3535	-55.807346	0.000405	4.054998	1.373870	-0.000162
1492	1.4835e+02	-19.3936	-55.896163	0.000223	2.230249	0.755629	-0.000089
1493	1.4845e+02	-19.4385	-56.069760	0.000436	4.359123	1.476911	-0.000174
1494	1.4855e+02	-19.4738	-56.166651	0.000243	2.432999	0.824322	-0.000097
1495	1.4865e+02	-19.5091	-56.303914	0.000345	3.446748	1.167790	-0.000138
1496	1.4875e+02	-19.5508	-56.425028	0.000304	3.041248	1.030403	-0.000122
1497	1.4885e+02	-19.5909	-56.598624	0.000436	4.359123	1.476911	-0.000174
1498	1.4895e+02	-19.6310	-56.735887	0.000345	3.446748	1.167790	-0.000138
1499	1.4905e+02	-19.6759	-56.820667	0.000213	2.128874	0.721282	-0.000085
1500	1.4915e+02	-19.7128	-56.982152	0.000405	4.054998	1.373870	-0.000162
1501	1.4925e+02	-19.7529	-57.143638	0.000405	4.054998	1.373870	-0.000162
1502	1.4935e+02	-19.7930	-57.301086	0.000395	3.953623	1.339524	-0.000158
1503	1.4945e+02	-19.8299	-57.406052	0.000264	2.635749	0.893016	-0.000105
1504	1.4955e+02	-19.8636	-57.571574	0.000416	4.156373	1.408217	-0.000166
1505	1.4965e+02	-19.9166	-57.716911	0.000365	3.649498	1.236483	-0.000146
1506	1.4975e+02	-19.9502	-57.842062	0.000314	3.142623	1.064750	-0.000126
1507	1.4985e+02	-19.9919	-57.979325	0.000345	3.446748	1.167790	-0.000138
1508	1.4995e+02	-19.9518	-57.967213	0.000030	0.304125	0.103040	0.000012
1509	1.5005e+02	-19.9117	-57.959139	0.000020	0.202750	0.068694	0.000008
1510	1.5015e+02	-19.8797	-57.938954	0.000051	0.506875	0.171734	0.000020
1511	1.5025e+02	-19.8315	-57.934916	0.000010	0.101375	0.034347	0.000004
1512	1.5034e+02	-19.7914	-57.842062	0.000233	2.331624	0.789976	0.000093
1513	1.5044e+02	-19.7545	-57.866285	-0.000061	-0.608250	-0.206081	-0.000024
1514	1.5054e+02	-19.7160	-57.809765	0.000142	1.419249	0.480855	0.000057
1515	1.5064e+02	-19.6695	-57.769394	0.000101	1.013749	0.343468	0.000041
1516	1.5074e+02	-19.6358	-57.761320	0.000020	0.202750	0.068694	0.000008
1517	1.5084e+02	-19.5989	-57.716911	0.000112	1.115124	0.377814	0.000045
1518	1.5094e+02	-19.5572	-57.660391	0.000142	1.419249	0.480855	0.000057
1519	1.5104e+02	-19.5091	-57.640205	0.000051	0.506875	0.171734	0.000020
1520	1.5114e+02	-19.4706	-57.579648	0.000152	1.520624	0.515201	0.000061
1521	1.5124e+02	-19.4385	-57.539277	0.000101	1.013749	0.343468	0.000041
1522	1.5134e+02	-19.3984	-57.511017	0.000071	0.709625	0.240427	0.000028
1523	1.5144e+02	-19.3535	-57.430274	0.000203	2.027499	0.686935	0.000081
1524	1.5154e+02	-19.3150	-57.397977	0.000081	0.811000	0.274774	0.000032
1525	1.5164e+02	-19.2700	-57.341457	0.000142	1.419249	0.480855	0.000057
1526	1.5174e+02	-19.2396	-57.280900	0.000152	1.520624	0.515201	0.000061
1527	1.5184e+02	-19.1946	-57.224381	0.000142	1.419249	0.480855	0.000057
1528	1.5194e+02	-19.1594	-57.184009	0.000101	1.013749	0.343468	0.000041
1529	1.5204e+02	-19.1144	-57.107304	0.000193	1.926124	0.652588	0.000077
1530	1.5214e+02	-19.0807	-57.038672	0.000172	1.723374	0.583895	0.000069
1531	1.5224e+02	-19.0422	-57.022524	0.000041	0.405500	0.137387	0.000016
1532	1.5233e+02	-19.0005	-56.865075	0.000395	3.953623	1.339524	0.000158
1533	1.5243e+02	-18.9588	-56.848927	0.000041	0.405500	0.137387	0.000016
1534	1.5253e+02	-18.9171	-56.776258	0.000182	1.824749	0.618242	0.000073
1535	1.5263e+02	-18.8850	-56.715701	0.000152	1.520624	0.515201	0.000061
1536	1.5273e+02	-18.8401	-56.699553	0.000041	0.405500	0.137387	0.000016
1537	1.5283e+02	-18.7920	-56.574402	0.000314	3.142623	1.064750	0.000126
1538	1.5293e+02	-18.7647	-56.550179	0.000061	0.608250	0.206081	0.000024
1539	1.5303e+02	-18.7198	-56.457325	0.000233	2.331624	0.789976	0.000093
1540	1.5313e+02	-18.6813	-56.368508	0.000223	2.230249	0.755629	0.000089
1541	1.5323e+02	-18.6348	-56.303914	0.000162	1.621999	0.549548	0.000065
1542	1.5333e+02	-18.6011	-56.255468	0.000122	1.216499	0.412161	0.000049
1543	1.5343e+02	-18.5594	-56.182799	0.000182	1.824749	0.618242	0.000073
1544	1.5353e+02	-18.5177	-56.098020	0.000213	2.128874	0.721282	0.000085
1545	1.5363e+02	-18.4759	-56.057648	0.000101	1.013749	0.343468	0.000041
1546	1.5373e+02	-18.4391	-55.972868	0.000213	2.128874	0.721282	0.000085
1547	1.5383e+02	-18.3989	-55.863866	0.000274	2.737124	0.927363	0.000110
1548	1.5393e+02	-18.3620	-55.823494	0.000101	1.013749	0.343468	0.000041
1549	1.5403e+02	-18.3123	-55.698343	0.000314	3.142623	1.064750	0.000126
1550	1.5413e+02	-18.2834	-55.682195	0.000041	0.405500	0.137387	0.000016
1551	1.5422e+02	-18.2321	-55.561081	0.000304	3.041248	1.030403	0.000122
1552	1.5432e+02	-18.2129	-55.516672	0.000112	1.115124	0.377814	0.000045
1553	1.5442e+02	-18.1663	-55.439967	0.000193	1.926124	0.652588	0.000077
1554	1.5452e+02	-18.1214	-55.326927	0.000284	2.838499	0.961709	0.000114
1555	1.5462e+02	-18.0893	-55.262333	0.000162	1.621999	0.549548	0.000065
1556	1.5472e+02	-18.0380	-55.213887	0.000122	1.216499	0.412161	0.000049
1557	1.5482e+02	-17.9915	-55.133144	0.000203	2.027499	0.686935	0.000081
1558	1.5492e+02	-17.9642	-55.024142	0.000274	2.737124	0.927363	0.000110
1559	1.5502e+02	-17.9225	-54.939362	0.000213	2.128874	0.721282	0.000085
1560	1.5512e+02	-17.8872	-54.886879	0.000132	1.317874	0.446508	0.000053
1561	1.5522e+02	-17.8471	-54.806136	0.000203	2.027499	0.686935	0.000081
1562	1.5532e+02	-17.8022	-54.721356	0.000213	2.128874	0.721282	0.000085
1563	1.5542e+02	-17.7701	-54.636577	0.000213	2.128874	0.721282	0.000085
1564	1.5552e+02	-17.7139	-54.543722	0.000233	2.331624	0.789976	0.000093
1565	1.5562e+02	-17.6786	-54.483165	0.000152	1.520624	0.515201	0.000061
1566	1.5572e+02	-17.6466	-54.406460	0.000193	1.926124	0.652588	0.000077
1567	1.5582e+02	-17.6081	-54.345903	0.000152	1.520624	0.515201	0.000061
1568	1.5592e+02	-17.5599	-54.244974	0.000253	2.534374	0.858669	0.000101
1569	1.5602e+02	-17.5230	-54.135972	0.000274	2.737124	0.927363	0.000110
1570	1.5612e+02	-17.4877	-54.075415	0.000152	1.520624	0.515201	0.000061
1571	1.5622e+02	-17.4348	-54.006783	0.000172	1.723374	0.583895	0.000069
1572	1.5631e+02	-17.4027	-53.897781	0.000274	2.737124	0.927363	0.000110
1573	1.5641e+02	-17.3626	-53.833186	0.000162	1.621999	0.549548	0.000065
1574	1.5651e+02	-17.3177	-53.772629	0.000152	1.520624	0.515201	0.000061
1575	1.5661e+02	-17.2808	-53.675738	0.000243	2.432999	0.824322	0.000097
1576	1.5671e+02	-17.2343	-53.578847	0.000243	2.432999	0.824322	0.000097
1577	1.5681e+02	-17.2054	-53.490030	0.000223	2.230249	0.755629	0.000089
1578	1.5691e+02	-17.1701	-53.393139	0.000243	2.432999	0.824322	0.000097
1579	1.5701e+02	-17.1204	-53.324507	0.000172	1.723374	0.583895	0.000069
1580	1.5711e+02	-17.0947	-53.203393	0.000304	3.041248	1.030403	0.000122
1581	1.5721e+02	-17.0466	-53.158985	0.000112	1.115124	0.377814	0.000045
1582	1.5731e+02	-17.0097	-53.037871	0.000304	3.041248	1.030403	0.000122
1583	1.5741e+02	-16.9744	-52.981351	0.000142	1.419249	0.480855	0.000057
1584	1.5751e+02	-16.9247	-52.900608	0.000203	2.027499	0.686935	0.000081
1585	1.5761e+02	-16.8894	-52.799680	0.000253	2.534374	0.858669	0.000101
1586	1.5771e+02	-16.8428	-52.735086	0.000162	1.621999	0.549548	0.000065
1587	1.5781e+02	-16.8092	-52.638194	0.000243	2.432999	0.824322	0.000097
1588	1.5791e+02	-16.7690	-52.553414	0.000213	2.128874	0.721282	0.000085
1589	1.5801e+02	-16.7257	-52.460560	0.000233	2.331624	0.789976	0.000093
1590	1.5811e+02	-16.6840	-52.335409	0.000314	3.142623	1.064750	0.000126
1591	1.5821e+02	-16.6423	-52.286964	0.000122	1.216499	0.412161	0.000049
1592	1.5830e+02	-16.6022	-52.190072	0.000243	2.432999	0.824322	0.000097
1593	1.5840e+02	-16.5749	-52.093181	0.000243	2.432999	0.824322	0.000097
1594	1.5850e+02	-16.5284	-52.000327	0.000233	2.331624	0.789976	0.000093
1595	1.5860e+02	-16.4835	-51.887287	0.000284	2.838499	0.961709	0.000114
1596	1.5870e+02	-16.4466	-51.814619	0.000182	1.824749	0.618242	0.000073
1597	1.5880e+02	-16.4049	-51.729839	0.000213	2.128874	0.721282	0.000085
1598	1.5890e+02	-16.3680	-51.645059	0.000213	2.128874	0.721282	0.000085
1599	1.5900e+02	-16.3231	-51.527982	0.000294	2.939874	0.996056	0.000118
1600	1.5910e+02	-16.2958	-51.471462	0.000142	1.419249	0.480855	0.000057
1601	1.5920e+02	-16.2477	-51.374571	0.000243	2.432999	0.824322	0.000097
1602	1.5930e+02	-16.2092	-51.273642	0.000253	2.534374	0.858669	0.000101
1603	1.5940e+02	-16.1723	-51.188863	0.000213	2.128874	0.721282	0.000085
1604	1.5950e+02	-16.1274	-51.104083	0.000213	2.128874	0.721282	0.000085
1605	1.5960e+02	-16.0905	-51.003154	0.000253	2.534374	0.858669	0.000101
1606	1.5970e+02	-16.0503	-50.878003	0.000314	3.142623	1.064750	0.000126
1607	1.5980e+02	-16.0135	-50.853780	0.000061	0.608250	0.206081	0.000024
1608	1.5990e+02	-15.9717	-50.720555	0.000335	3.345373	1.133443	0.000134
1609	1.6000e+02	-15.9284	-50.655961	0.000162	1.621999	0.549548	0.000065
1610	1.6010e+02	-15.8819	-50.546958	0.000274	2.737124	0.927363	0.000110
1611	1.6019e+02	-15.8466	-50.482364	0.000162	1.621999	0.549548	0.000065
1612	1.6029e+02	-15.8017	-50.381435	0.000253	2.534374	0.858669	0.000101
1613	1.6039e+02	-15.7664	-50.244173	0.000345	3.446748	1.167790	0.000138
1614	1.6049e+02	-15.7311	-50.203801	0.000101	1.013749	0.343468	0.000041
1615	1.6059e+02	-15.6894	-50.127096	0.000193	1.926124	0.652588	0.000077
1616	1.6069e+02	-15.6541	-50.010019	0.000294	2.939874	0.996056	0.000118
1617	1.6079e+02	-15.6172	-49.917165	0.000233	2.331624	0.789976	0.000093
1618	1.6089e+02	-15.5771	-49.840459	0.000193	1.926124	0.652588	0.000077
1619	1.6099e+02	-15.5386	-49.763754	0.000193	1.926124	0.652588	0.000077
1620	1.6109e+02	-15.4953	-49.642640	0.000304	3.041248	1.030403	0.000122
1621	1.6119e+02	-15.4536	-49.606305	0.000091	0.912375	0.309121	0.000037
1622	1.6129e+02	-15.4022	-49.469043	0.000345	3.446748	1.167790	0.000138
1623	1.6139e+02	-15.3702	-49.400411	0.000172	1.723374	0.583895	0.000069
1624	1.6149e+02	-15.3381	-49.311594	0.000223	2.230249	0.755629	0.000089
1625	1.6159e+02	-15.2964	-49.226815	0.000213	2.128874	0.721282	0.000085
1626	1.6169e+02	-15.2482	-49.117812	0.000274	2.737124	0.927363	0.000110
1627	1.6179e+02	-15.2161	-49.016884	0.000253	2.534374	0.858669	0.000101
1628	1.6189e+02	-15.1712	-48.984586	0.000081	0.811000	0.274774	0.000032
1629	1.6199e+02	-15.1327	-48.839250	0.000365	3.649498	1.236483	0.000146
1630	1.6209e+02	-15.0910	-48.790804	0.000122	1.216499	0.412161	0.000049
1631	1.6219e+02	-15.0573	-48.726210	0.000162	1.621999	0.549548	0.000065
1632	1.6228e+02	-15.0172	-48.580873	0.000365	3.649498	1.236483	0.000146
1633	1.6238e+02	-14.9627	-48.471870	0.000274	2.737124	0.927363	0.000110
1634	1.6248e+02	-14.9402	-48.435536	0.000091	0.912375	0.309121	0.000037
1635	1.6258e+02	-14.8953	-48.326533	0.000274	2.737124	0.927363	0.000110
1636	1.6268e+02	-14.8568	-48.249828	0.000193	1.926124	0.652588	0.000077
1637	1.6278e+02	-14.8039	-48.185234	0.000162	1.621999	0.549548	0.000065
1638	1.6288e+02	-14.7750	-48.076231	0.000274	2.737124	0.927363	0.000110
1639	1.6298e+02	-14.7269	-48.003562	0.000182	1.824749	0.618242	0.000073
1640	1.6308e+02	-14.6980	-47.866300	0.000345	3.446748	1.167790	0.000138
1641	1.6318e+02	-14.6579	-47.801706	0.000162	1.621999	0.549548	0.000065
1642	1.6328e+02	-14.6033	-47.708852	0.000233	2.331624	0.789976	0.000093
1643	1.6338e+02	-14.5777	-47.636183	0.000182	1.824749	0.618242	0.000073
1644	1.6348e+02	-14.5360	-47.559478	0.000193	1.926124	0.652588	0.000077
1645	1.6358e+02	-14.4975	-47.418178	0.000355	3.548123	1.202137	0.000142
1646	1.6368e+02	-14.4573	-47.337435	0.000203	2.027499	0.686935	0.000081
1647	1.6378e+02	-14.4188	-47.208247	0.000324	3.243998	1.099096	0.000130
1648	1.6388e+02	-14.3643	-47.192098	0.000041	0.405500	0.137387	0.000016
1649	1.6398e+02	-14.3370	-47.087133	0.000264	2.635749	0.893016	0.000105
1650	1.6408e+02	-14.2921	-46.925647	0.000405	4.054998	1.373870	0.000162
1651	1.6418e+02	-14.2536	-46.889313	0.000091	0.912375	0.309121	0.000037
1652	1.6427e+02	-14.2135	-46.857016	0.000081	0.811000	0.274774	0.000032
1653	1.6437e+02	-14.1766	-46.699568	0.000395	3.953623	1.339524	0.000158
1654	1.6447e+02	-14.1317	-46.586528	0.000284	2.838499	0.961709	0.000114
1655	1.6457e+02	-14.0964	-46.562305	0.000061	0.608250	0.206081	0.000024
1656	1.6467e+02	-14.0547	-46.429080	0.000335	3.345373	1.133443	0.000134
1657	1.6477e+02	-14.0194	-46.356411	0.000182	1.824749	0.618242	0.000073
1658	1.6487e+02	-13.9761	-46.251446	0.000264	2.635749	0.893016	0.000105
1659	1.6497e+02	-13.9392	-46.142443	0.000274	2.737124	0.927363	0.000110
1660	1.6507e+02	-13.8878	-46.029403	0.000284	2.838499	0.961709	0.000114
1661	1.6517e+02	-13.8606	-46.001143	0.000071	0.709625	0.240427	0.000028
1662	1.6527e+02	-13.8205	-45.888103	0.000284	2.838499	0.961709	0.000114
1663	1.6537e+02	-13.7820	-45.799286	0.000223	2.230249	0.755629	0.000089
1664	1.6547e+02	-13.7370	-45.726618	0.000182	1.824749	0.618242	0.000073
1665	1.6557e+02	-13.7018	-45.637801	0.000223	2.230249	0.755629	0.000089
1666	1.6567e+02	-13.6633	-45.520724	0.000294	2.939874	0.996056	0.000118
1667	1.6577e+02	-13.6215	-45.456130	0.000162	1.621999	0.549548	0.000065
1668	1.6587e+02	-13.5718	-45.326941	0.000324	3.243998	1.099096	0.000130
1669	1.6597e+02	-13.5413	-45.270422	0.000142	1.419249	0.480855	0.000057
1670	1.6607e+02	-13.4948	-45.161419	0.000274	2.737124	0.927363	0.000110
1671	1.6616e+02	-13.4611	-45.088750	0.000182	1.824749	0.618242	0.000073
1672	1.6626e+02	-13.4210	-44.955525	0.000335	3.345373	1.133443	0.000134
1673	1.6636e+02	-13.3889	-44.899005	0.000142	1.419249	0.480855	0.000057
1674	1.6646e+02	-13.3392	-44.818262	0.000203	2.027499	0.686935	0.000081
1675	1.6656e+02	-13.3007	-44.709260	0.000274	2.737124	0.927363	0.000110
1676	1.6666e+02	-13.2574	-44.636591	0.000182	1.824749	0.618242	0.000073
1677	1.6676e+02	-13.2237	-44.571997	0.000162	1.621999	0.549548	0.000065
1678	1.6686e+02	-13.1740	-44.418586	0.000385	3.852248	1.305177	0.000154
1679	1.6696e+02	-13.1355	-44.341880	0.000193	1.926124	0.652588	0.000077
1680	1.6706e+02	-13.0954	-44.313620	0.000071	0.709625	0.240427	0.000028
1681	1.6716e+02	-13.0633	-44.188469	0.000314	3.142623	1.064750	0.000126
1682	1.6726e+02	-13.0135	-44.127912	0.000152	1.520624	0.515201	0.000061
1683	1.6736e+02	-12.9879	-43.982575	0.000365	3.649498	1.236483	0.000146
1684	1.6746e+02	-12.9446	-43.926055	0.000142	1.419249	0.480855	0.000057
1685	1.6756e+02	-12.8948	-43.825127	0.000253	2.534374	0.858669	0.000101
1686	1.6766e+02	-12.8579	-43.708050	0.000294	2.939874	0.996056	0.000118
1687	1.6776e+02	-12.8274	-43.627307	0.000203	2.027499	0.686935	0.000081
1688	1.6786e+02	-12.7841	-43.542528	0.000213	2.128874	0.721282	0.000085
1689	1.6796e+02	-12.7472	-43.409302	0.000335	3.345373	1.133443	0.000134
1690	1.6806e+02	-12.7023	-43.344708	0.000162	1.621999	0.549548	0.000065
1691	1.6816e+02	-12.6606	-43.239742	0.000264	2.635749	0.893016	0.000105
1692	1.6825e+02	-12.6109	-43.126703	0.000284	2.838499	0.961709	0.000114
1693	1.6835e+02	-12.5964	-43.102480	0.000061	0.608250	0.206081	0.000024
1694	1.6845e+02	-12.5499	-42.973291	0.000324	3.243998	1.099096	0.000130
1695	1.6855e+02	-12.5018	-42.884474	0.000223	2.230249	0.755629	0.000089
1696	1.6865e+02	-12.4713	-42.735100	0.000375	3.750873	1.270830	0.000150
1697	1.6875e+02	-12.4103	-42.714915	0.000051	0.506875	0.171734	0.000020
1698	1.6885e+02	-12.3895	-42.577652	0.000345	3.446748	1.167790	0.000138
1699	1.6895e+02	-12.3510	-42.500946	0.000193	1.926124	0.652588	0.000077
1700	1.6905e+02	-12.3045	-42.412129	0.000223	2.230249	0.755629	0.000089
1701	1.6915e+02	-12.2628	-42.278904	0.000335	3.345373	1.133443	0.000134
1702	1.6925e+02	-12.2387	-42.242570	0.000091	0.912375	0.309121	0.000037
1703	1.6935e+02	-12.1874	-42.101270	0.000355	3.548123	1.202137	0.000142
1704	1.6945e+02	-12.1489	-42.016490	0.000213	2.128874	0.721282	0.000085
1705	1.6955e+02	-12.1023	-41.891339	0.000314	3.142623	1.064750	0.000126
1706	1.6965e+02	-12.0622	-41.810596	0.000203	2.027499	0.686935	0.000081
1707	1.6975e+02	-12.0221	-41.717742	0.000233	2.331624	0.789976	0.000093
1708	1.6985e+02	-11.9852	-41.576442	0.000355	3.548123	1.202137	0.000142
1709	1.6995e+02	-11.9451	-41.507811	0.000172	1.723374	0.583895	0.000069
1710	1.7005e+02	-11.9018	-41.427068	0.000203	2.027499	0.686935	0.000081
1711	1.7015e+02	-11.8649	-41.289806	0.000345	3.446748	1.167790	0.000138
1712	1.7024e+02	-11.8392	-41.233286	0.000142	1.419249	0.480855	0.000057
1713	1.7034e+02	-11.7879	-41.108135	0.000314	3.142623	1.064750	0.000126
1714	1.7044e+02	-11.7462	-41.007206	0.000253	2.534374	0.858669	0.000101
1715	1.7054e+02	-11.7029	-40.918389	0.000223	2.230249	0.755629	0.000089
1716	1.7064e+02	-11.6628	-40.797275	0.000304	3.041248	1.030403	0.000122
1717	1.7074e+02	-11.6339	-40.668087	0.000324	3.243998	1.099096	0.000130
1718	1.7084e+02	-11.5794	-40.607530	0.000152	1.520624	0.515201	0.000061
1719	1.7094e+02	-11.5553	-40.494490	0.000284	2.838499	0.961709	0.000114
1720	1.7104e+02	-11.5023	-40.409710	0.000213	2.128874	0.721282	0.000085
1721	1.7114e+02	-11.4751	-40.308782	0.000253	2.534374	0.858669	0.000101
1722	1.7124e+02	-11.4286	-40.207853	0.000253	2.534374	0.858669	0.000101
1723	1.7134e+02	-11.3836	-40.110962	0.000243	2.432999	0.824322	0.000097
1724	1.7144e+02	-11.3532	-40.018108	0.000233	2.331624	0.789976	0.000093
1725	1.7154e+02	-11.3098	-39.909105	0.000274	2.737124	0.927363	0.000110
1726	1.7164e+02	-11.2697	-39.787991	0.000304	3.041248	1.030403	0.000122
1727	1.7174e+02	-11.2232	-39.678989	0.000274	2.737124	0.927363	0.000110
1728	1.7184e+02	-11.1863	-39.622469	0.000142	1.419249	0.480855	0.000057
1729	1.7194e+02	-11.1510	-39.489243	0.000335	3.345373	1.133443	0.000134
1730	1.7204e+02	-11.1109	-39.335832	0.000385	3.852248	1.305177	0.000154
1731	1.7213e+02	-11.0708	-39.291424	0.000112	1.115124	0.377814	0.000045
1732	1.7223e+02	-11.0323	-39.182421	0.000274	2.737124	0.927363	0.000110
1733	1.7233e+02	-10.9906	-39.089567	0.000233	2.331624	0.789976	0.000093
1734	1.7243e+02	-10.9425	-38.996713	0.000233	2.331624	0.789976	0.000093
1735	1.7253e+02	-10.9168	-38.871561	0.000314	3.142623	1.064750	0.000126
1736	1.7263e+02	-10.8719	-38.766596	0.000264	2.635749	0.893016	0.000105
1737	1.7273e+02	-10.8270	-38.677779	0.000223	2.230249	0.755629	0.000089
1738	1.7283e+02	-10.7885	-38.576851	0.000253	2.534374	0.858669	0.000101
1739	1.7293e+02	-10.7564	-38.443625	0.000335	3.345373	1.133443	0.000134
1740	1.7303e+02	-10.7179	-38.354808	0.000223	2.230249	0.755629	0.000089
1741	1.7313e+02	-10.6762	-38.205434	0.000375	3.750873	1.270830	0.000150
1742	1.7323e+02	-10.6296	-38.173137	0.000081	0.811000	0.274774	0.000032
1743	1.7333e+02	-10.5783	-38.064134	0.000274	2.737124	0.927363	0.000110
1744	1.7343e+02	-10.5575	-37.943020	0.000304	3.041248	1.030403	0.000122
1745	1.7353e+02	-10.5141	-37.850166	0.000233	2.331624	0.789976	0.000093
1746	1.7363e+02	-10.4756	-37.761349	0.000223	2.230249	0.755629	0.000089
1747	1.7373e+02	-10.4227	-37.595827	0.000416	4.156373	1.408217	0.000166
1748	1.7383e+02	-10.3970	-37.539307	0.000142	1.419249	0.480855	0.000057
1749	1.7393e+02	-10.3521	-37.398007	0.000355	3.548123	1.202137	0.000142
1750	1.7403e+02	-10.3088	-37.349561	0.000122	1.216499	0.412161	0.000049
1751	1.7413e+02	-10.2703	-37.208262	0.000355	3.548123	1.202137	0.000142
1752	1.7422e+02	-10.2366	-37.087147	0.000304	3.041248	1.030403	0.000122
1753	1.7432e+02	-10.1869	-36.978145	0.000274	2.737124	0.927363	0.000110
1754	1.7442e+02	-10.1548	-36.885291	0.000233	2.331624	0.789976	0.000093
1755	1.7452e+02	-10.1131	-36.772251	0.000284	2.838499	0.961709	0.000114
1756	1.7462e+02	-10.0826	-36.691508	0.000203	2.027499	0.686935	0.000081
1757	1.7472e+02	-10.0361	-36.582505	0.000274	2.737124	0.927363	0.000110
1758	1.7482e+02	-9.9960	-36.465429	0.000294	2.939874	0.996056	0.000118
1759	1.7492e+02	-9.9527	-36.352389	0.000284	2.838499	0.961709	0.000114
1760	1.7502e+02	-9.9126	-36.247423	0.000264	2.635749	0.893016	0.000105
1761	1.7512e+02	-9.8741	-36.110161	0.000345	3.446748	1.167790	0.000138
1762	1.7522e+02	-9.8307	-36.005195	0.000264	2.635749	0.893016	0.000105
1763	1.7532e+02	-9.7890	-35.928490	0.000193	1.926124	0.652588	0.000077
1764	1.7542e+02	-9.7618	-35.791227	0.000345	3.446748	1.167790	0.000138
1765	1.7552e+02	-9.7088	-35.690298	0.000253	2.534374	0.858669	0.000101
1766	1.7562e+02	-9.6783	-35.548999	0.000355	3.548123	1.202137	0.000142
1767	1.7572e+02	-9.6334	-35.456145	0.000233	2.331624	0.789976	0.000093
1768	1.7582e+02	-9.5997	-35.391550	0.000162	1.621999	0.549548	0.000065
1769	1.7592e+02	-9.5564	-35.242176	0.000375	3.750873	1.270830	0.000150
1770	1.7602e+02	-9.5211	-35.129137	0.000284	2.838499	0.961709	0.000114
1771	1.7612e+02	-9.4826	-35.032245	0.000243	2.432999	0.824322	0.000097
1772	1.7621e+02	-9.4393	-34.903057	0.000324	3.243998	1.099096	0.000130
1773	1.7631e+02	-9.3960	-34.862686	0.000101	1.013749	0.343468	0.000041
1774	1.7641e+02	-9.3591	-34.697163	0.000416	4.156373	1.408217	0.000166
1775	1.7651e+02	-9.3174	-34.640643	0.000142	1.419249	0.480855	0.000057
1776	1.7661e+02	-9.2805	-34.527603	0.000284	2.838499	0.961709	0.000114
1777	1.7671e+02	-9.2436	-34.386304	0.000355	3.548123	1.202137	0.000142
1778	1.7681e+02	-9.2067	-34.269227	0.000294	2.939874	0.996056	0.000118
1779	1.7691e+02	-9.1505	-34.172335	0.000243	2.432999	0.824322	0.000097
1780	1.7701e+02	-9.1169	-34.067370	0.000264	2.635749	0.893016	0.000105
1781	1.7711e+02	-9.0816	-33.954330	0.000284	2.838499	0.961709	0.000114
1782	1.7721e+02	-9.0334	-33.833216	0.000304	3.041248	1.030403	0.000122
1783	1.7731e+02	-8.9949	-33.724213	0.000274	2.737124	0.927363	0.000110
1784	1.7741e+02	-8.9548	-33.647508	0.000193	1.926124	0.652588	0.000077
1785	1.7751e+02	-8.9195	-33.554654	0.000233	2.331624	0.789976	0.000093
1786	1.7761e+02	-8.8730	-33.453725	0.000253	2.534374	0.858669	0.000101
1787	1.7771e+02	-8.8329	-33.312426	0.000355	3.548123	1.202137	0.000142
1788	1.7781e+02	-8.8024	-33.219571	0.000233	2.331624	0.789976	0.000093
1789	1.7791e+02	-8.7591	-33.134792	0.000213	2.128874	0.721282	0.000085
1790	1.7801e+02	-8.7222	-32.977343	0.000395	3.953623	1.339524	0.000158
1791	1.7810e+02	-8.6885	-32.856229	0.000304	3.041248	1.030403	0.000122
1792	1.7820e+02	-8.6436	-32.803746	0.000132	1.317874	0.446508	0.000053
1793	1.7830e+02	-8.5971	-32.678595	0.000314	3.142623	1.064750	0.000126
1794	1.7840e+02	-8.5586	-32.589778	0.000223	2.230249	0.755629	0.000089
1795	1.7850e+02	-8.5185	-32.472701	0.000294	2.939874	0.996056	0.000118
1796	1.7860e+02	-8.4816	-32.343513	0.000324	3.243998	1.099096	0.000130
1797	1.7870e+02	-8.4383	-32.282956	0.000152	1.520624	0.515201	0.000061
1798	1.7880e+02	-8.3933	-32.177990	0.000264	2.635749	0.893016	0.000105
1799	1.7890e+02	-8.3548	-32.040728	0.000345	3.446748	1.167790	0.000138
1800	1.7900e+02	-8.3196	-31.939799	0.000253	2.534374	0.858669	0.000101
1801	1.7910e+02	-8.2810	-31.867131	0.000182	1.824749	0.618242	0.000073
1802	1.7920e+02	-8.2425	-31.697571	0.000426	4.257748	1.442564	0.000170
1803	1.7930e+02	-8.1944	-31.649126	0.000122	1.216499	0.412161	0.000049
1804	1.7940e+02	-8.1591	-31.548197	0.000253	2.534374	0.858669	0.000101
1805	1.7950e+02	-8.1174	-31.362489	0.000466	4.663248	1.579951	0.000187
1806	1.7960e+02	-8.0837	-31.289821	0.000182	1.824749	0.618242	0.000073
1807	1.7970e+02	-8.0436	-31.209078	0.000203	2.027499	0.686935	0.000081
1808	1.7980e+02	-7.9987	-31.055667	0.000385	3.852248	1.305177	0.000154
1809	1.7990e+02	-7.9586	-30.978961	0.000193	1.926124	0.652588	0.000077
1810	1.8000e+02	-7.9201	-30.890144	0.000223	2.230249	0.755629	0.000089
1811	1.8009e+02	-7.8848	-30.777104	0.000284	2.838499	0.961709	0.000114
1812	1.8019e+02	-7.8479	-30.655990	0.000304	3.041248	1.030403	0.000122
1813	1.8029e+02	-7.7998	-30.546988	0.000274	2.737124	0.927363	0.000110
1814	1.8039e+02	-7.7549	-30.425873	0.000304	3.041248	1.030403	0.000122
1815	1.8049e+02	-7.7212	-30.320908	0.000264	2.635749	0.893016	0.000105
1816	1.8059e+02	-7.6907	-30.224017	0.000243	2.432999	0.824322	0.000097
1817	1.8069e+02	-7.6426	-30.115014	0.000274	2.737124	0.927363	0.000110
1818	1.8079e+02	-7.6009	-30.010049	0.000264	2.635749	0.893016	0.000105
1819	1.8089e+02	-7.5640	-29.913157	0.000243	2.432999	0.824322	0.000097
1820	1.8099e+02	-7.5206	-29.808192	0.000264	2.635749	0.893016	0.000105
1821	1.8109e+02	-7.4982	-29.650743	0.000395	3.953623	1.339524	0.000158
1822	1.8119e+02	-7.4420	-29.590186	0.000152	1.520624	0.515201	0.000061
1823	1.8129e+02	-7.3971	-29.481184	0.000274	2.737124	0.927363	0.000110
1824	1.8139e+02	-7.3570	-29.364107	0.000294	2.939874	0.996056	0.000118
1825	1.8149e+02	-7.3233	-29.275290	0.000223	2.230249	0.755629	0.000089
1826	1.8159e+02	-7.2880	-29.174361	0.000253	2.534374	0.858669	0.000101
1827	1.8169e+02	-7.2431	-29.012876	0.000405	4.054998	1.373870	0.000162
1828	1.8179e+02	-7.2030	-28.940208	0.000182	1.824749	0.618242	0.000073
1829	1.8189e+02	-7.1613	-28.831205	0.000274	2.737124	0.927363	0.000110
1830	1.8199e+02	-7.1260	-28.714128	0.000294	2.939874	0.996056	0.000118
1831	1.8209e+02	-7.0827	-28.625311	0.000223	2.230249	0.755629	0.000089
1832	1.8218e+02	-7.0426	-28.484011	0.000355	3.548123	1.202137	0.000142
1833	1.8228e+02	-7.0089	-28.419417	0.000162	1.621999	0.549548	0.000065
1834	1.8238e+02	-6.9704	-28.310414	0.000274	2.737124	0.927363	0.000110
1835	1.8248e+02	-6.9175	-28.197375	0.000284	2.838499	0.961709	0.000114
1836	1.8258e+02	-6.8790	-28.084335	0.000284	2.838499	0.961709	0.000114
1837	1.8268e+02	-6.8453	-27.955146	0.000324	3.243998	1.099096	0.000130
1838	1.8278e+02	-6.8148	-27.866329	0.000223	2.230249	0.755629	0.000089
1839	1.8288e+02	-6.7763	-27.793661	0.000182	1.824749	0.618242	0.000073
1840	1.8298e+02	-6.7282	-27.684658	0.000274	2.737124	0.927363	0.000110
1841	1.8308e+02	-6.6929	-27.531247	0.000385	3.852248	1.305177	0.000154
1842	1.8318e+02	-6.6528	-27.450504	0.000203	2.027499	0.686935	0.000081
1843	1.8328e+02	-6.6175	-27.333428	0.000294	2.939874	0.996056	0.000118
1844	1.8338e+02	-6.5597	-27.224425	0.000274	2.737124	0.927363	0.000110
1845	1.8348e+02	-6.5244	-27.135608	0.000223	2.230249	0.755629	0.000089
1846	1.8358e+02	-6.4779	-27.010457	0.000314	3.142623	1.064750	0.000126
1847	1.8368e+02	-6.4426	-26.929714	0.000203	2.027499	0.686935	0.000081
1848	1.8378e+02	-6.4153	-26.804563	0.000314	3.142623	1.064750	0.000126
1849	1.8388e+02	-6.3704	-26.707671	0.000243	2.432999	0.824322	0.000097
1850	1.8398e+02	-6.3239	-26.626929	0.000203	2.027499	0.686935	0.000081
1851	1.8407e+02	-6.2838	-26.493703	0.000335	3.345373	1.133443	0.000134
1852	1.8417e+02	-6.2517	-26.400849	0.000233	2.331624	0.789976	0.000093
1853	1.8427e+02	-6.2068	-26.295884	0.000264	2.635749	0.893016	0.000105
1854	1.8437e+02	-6.1683	-26.146510	0.000375	3.750873	1.270830	0.000150
1855	1.8447e+02	-6.1346	-26.073841	0.000182	1.824749	0.618242	0.000073
1856	1.8457e+02	-6.0977	-25.964838	0.000274	2.737124	0.927363	0.000110
1857	1.8467e+02	-6.0528	-25.823539	0.000355	3.548123	1.202137	0.000142
1858	1.8477e+02	-6.0095	-25.771056	0.000132	1.317874	0.446508	0.000053
1859	1.8487e+02	-5.9742	-25.621682	0.000375	3.750873	1.270830	0.000150
1860	1.8497e+02	-5.9276	-25.516716	0.000264	2.635749	0.893016	0.000105
1861	1.8507e+02	-5.8907	-25.399639	0.000294	2.939874	0.996056	0.000118
1862	1.8517e+02	-5.8506	-25.286600	0.000284	2.838499	0.961709	0.000114
1863	1.8527e+02	-5.8121	-25.177597	0.000274	2.737124	0.927363	0.000110
1864	1.8537e+02	-5.7752	-25.076669	0.000253	2.534374	0.858669	0.000101
1865	1.8547e+02	-5.7287	-24.935369	0.000355	3.548123	1.202137	0.000142
1866	1.8557e+02	-5.6886	-24.830403	0.000264	2.635749	0.893016	0.000105
1867	1.8567e+02	-5.6485	-24.721401	0.000274	2.737124	0.927363	0.000110
1868	1.8577e+02	-5.6100	-24.608361	0.000284	2.838499	0.961709	0.000114
1869	1.8587e+02	-5.5715	-24.551841	0.000142	1.419249	0.480855	0.000057
1870	1.8597e+02	-5.5378	-24.390356	0.000405	4.054998	1.373870	0.000162
1871	1.8606e+02	-5.4993	-24.285390	0.000264	2.635749	0.893016	0.000105
1872	1.8616e+02	-5.4528	-24.164276	0.000304	3.041248	1.030403	0.000122
1873	1.8626e+02	-5.4159	-24.047199	0.000294	2.939874	0.996056	0.000118
1874	1.8636e+02	-5.3774	-23.958382	0.000223	2.230249	0.755629	0.000089
1875	1.8646e+02	-5.3357	-23.809008	0.000375	3.750873	1.270830	0.000150
1876	1.8656e+02	-5.2924	-23.736340	0.000182	1.824749	0.618242	0.000073
1877	1.8666e+02	-5.2587	-23.578891	0.000395	3.953623	1.339524	0.000158
1878	1.8676e+02	-5.2186	-23.498149	0.000203	2.027499	0.686935	0.000081
1879	1.8686e+02	-5.1737	-23.348775	0.000375	3.750873	1.270830	0.000150
1880	1.8696e+02	-5.1400	-23.259958	0.000223	2.230249	0.755629	0.000089
1881	1.8706e+02	-5.0918	-23.146918	0.000284	2.838499	0.961709	0.000114
1882	1.8716e+02	-5.0581	-23.025804	0.000304	3.041248	1.030403	0.000122
1883	1.8726e+02	-5.0180	-22.904690	0.000304	3.041248	1.030403	0.000122
1884	1.8736e+02	-4.9811	-22.775501	0.000324	3.243998	1.099096	0.000130
1885	1.8746e+02	-4.9378	-22.626127	0.000375	3.750873	1.270830	0.000150
1886	1.8756e+02	-4.8945	-22.549422	0.000193	1.926124	0.652588	0.000077
1887	1.8766e+02	-4.8624	-22.436382	0.000284	2.838499	0.961709	0.000114
1888	1.8776e+02	-4.8143	-22.355639	0.000203	2.027499	0.686935	0.000081
1889	1.8786e+02	-4.7726	-22.186079	0.000426	4.257748	1.442564	0.000170
1890	1.8796e+02	-4.7325	-22.085151	0.000253	2.534374	0.858669	0.000101
1891	1.8806e+02	-4.6972	-21.976148	0.000274	2.737124	0.927363	0.000110
1892	1.8815e+02	-4.6555	-21.863109	0.000284	2.838499	0.961709	0.000114
1893	1.8825e+02	-4.6090	-21.721809	0.000355	3.548123	1.202137	0.000142
1894	1.8835e+02	-4.5673	-21.632992	0.000223	2.230249	0.755629	0.000089
1895	1.8845e+02	-4.5416	-21.503804	0.000324	3.243998	1.099096	0.000130
1896	1.8855e+02	-4.5031	-21.419024	0.000213	2.128874	0.721282	0.000085
1897	1.8865e+02	-4.4550	-21.265613	0.000385	3.852248	1.305177	0.000154
1898	1.8875e+02	-4.4132	-21.140461	0.000314	3.142623	1.064750	0.000126
1899	1.8885e+02	-4.3796	-21.023384	0.000294	2.939874	0.996056	0.000118
1900	1.8895e+02	-4.3411	-20.898233	0.000314	3.142623	1.064750	0.000126
1901	1.8905e+02	-4.2945	-20.781156	0.000294	2.939874	0.996056	0.000118
1902	1.8915e+02	-4.2641	-20.664079	0.000294	2.939874	0.996056	0.000118
1903	1.8925e+02	-4.2159	-20.526817	0.000345	3.446748	1.167790	0.000138
1904	1.8935e+02	-4.1806	-20.482408	0.000112	1.115124	0.377814	0.000045
1905	1.8945e+02	-4.1421	-20.324960	0.000395	3.953623	1.339524	0.000158
1906	1.8955e+02	-4.0988	-20.147326	0.000446	4.460498	1.511258	0.000179
1907	1.8965e+02	-4.0667	-20.098880	0.000122	1.216499	0.412161	0.000049
1908	1.8975e+02	-4.0234	-20.001989	0.000243	2.432999	0.824322	0.000097
1909	1.8985e+02	-3.9801	-19.852615	0.000375	3.750873	1.270830	0.000150
1910	1.8995e+02	-3.9336	-19.779947	0.000182	1.824749	0.618242	0.000073
1911	1.9004e+02	-3.9063	-19.590201	0.000476	4.764623	1.614298	0.000191
1912	1.9014e+02	-3.8662	-19.501384	0.000223	2.230249	0.755629	0.000089
1913	1.9024e+02	-3.8197	-19.360084	0.000355	3.548123	1.202137	0.000142
1914	1.9034e+02	-3.7780	-19.214748	0.000365	3.649498	1.236483	0.000146
1915	1.9044e+02	-3.7427	-19.121893	0.000233	2.331624	0.789976	0.000093
1916	1.9054e+02	-3.7090	-18.988668	0.000335	3.345373	1.133443	0.000134
1917	1.9064e+02	-3.6673	-18.839294	0.000375	3.750873	1.270830	0.000150
1918	1.9074e+02	-3.6256	-18.754514	0.000213	2.128874	0.721282	0.000085
1919	1.9084e+02	-3.5871	-18.629363	0.000314	3.142623	1.064750	0.000126
1920	1.9094e+02	-3.5405	-18.496137	0.000335	3.345373	1.133443	0.000134
1921	1.9104e+02	-3.5020	-18.379060	0.000294	2.939874	0.996056	0.000118
1922	1.9114e+02	-3.4667	-18.286206	0.000233	2.331624	0.789976	0.000093
1923	1.9124e+02	-3.4106	-18.136832	0.000375	3.750873	1.270830	0.000150
1924	1.9134e+02	-3.3849	-18.019755	0.000294	2.939874	0.996056	0.000118
1925	1.9144e+02	-3.3368	-17.886530	0.000335	3.345373	1.133443	0.000134
1926	1.9154e+02	-3.3031	-17.769453	0.000294	2.939874	0.996056	0.000118
1927	1.9164e+02	-3.2614	-17.644302	0.000314	3.142623	1.064750	0.000126
1928	1.9174e+02	-3.2341	-17.494928	0.000375	3.750873	1.270830	0.000150
1929	1.9184e+02	-3.1908	-17.398036	0.000243	2.432999	0.824322	0.000097
1930	1.9194e+02	-3.1443	-17.260774	0.000345	3.446748	1.167790	0.000138
1931	1.9203e+02	-3.1026	-17.167920	0.000233	2.331624	0.789976	0.000093
1932	1.9213e+02	-3.0673	-17.050843	0.000294	2.939874	0.996056	0.000118
1933	1.9223e+02	-3.0320	-16.873209	0.000446	4.460498	1.511258	0.000179
1934	1.9233e+02	-2.9823	-16.780355	0.000233	2.331624	0.789976	0.000093
1935	1.9243e+02	-2.9454	-16.703649	0.000193	1.926124	0.652588	0.000077
1936	1.9253e+02	-2.9037	-16.546201	0.000395	3.953623	1.339524	0.000158
1937	1.9263e+02	-2.8652	-16.441235	0.000264	2.635749	0.893016	0.000105
1938	1.9273e+02	-2.8299	-16.283787	0.000395	3.953623	1.339524	0.000158
1939	1.9283e+02	-2.7801	-16.154599	0.000324	3.243998	1.099096	0.000130
1940	1.9293e+02	-2.7513	-16.033485	0.000304	3.041248	1.030403	0.000122
1941	1.9303e+02	-2.7063	-15.912371	0.000304	3.041248	1.030403	0.000122
1942	1.9313e+02	-2.6678	-15.815479	0.000243	2.432999	0.824322	0.000097
1943	1.9323e+02	-2.6085	-15.662068	0.000385	3.852248	1.305177	0.000154
1944	1.9333e+02	-2.5844	-15.544991	0.000294	2.939874	0.996056	0.000118
1945	1.9343e+02	-2.5507	-15.464248	0.000203	2.027499	0.686935	0.000081
1946	1.9353e+02	-2.5042	-15.290652	0.000436	4.359123	1.476911	0.000174
1947	1.9363e+02	-2.4689	-15.157426	0.000335	3.345373	1.133443	0.000134
1948	1.9373e+02	-2.4208	-15.048423	0.000274	2.737124	0.927363	0.000110
1949	1.9383e+02	-2.3887	-14.963644	0.000213	2.128874	0.721282	0.000085
1950	1.9393e+02	-2.3406	-14.838492	0.000314	3.142623	1.064750	0.000126
1951	1.9403e+02	-2.3053	-14.656821	0.000456	4.561873	1.545604	0.000183
1952	1.9412e+02	-2.2636	-14.592227	0.000162	1.621999	0.549548	0.000065
1953	1.9422e+02	-2.2283	-14.438816	0.000385	3.852248	1.305177	0.000154
1954	1.9432e+02	-2.1898	-14.317702	0.000304	3.041248	1.030403	0.000122
1955	1.9442e+02	-2.1529	-14.224848	0.000233	2.331624	0.789976	0.000093
1956	1.9452e+02	-2.1064	-14.107771	0.000294	2.939874	0.996056	0.000118
1957	1.9462e+02	-2.0598	-13.970508	0.000345	3.446748	1.167790	0.000138
1958	1.9472e+02	-2.0197	-13.881691	0.000223	2.230249	0.755629	0.000089
1959	1.9482e+02	-1.9812	-13.752503	0.000324	3.243998	1.099096	0.000130
1960	1.9492e+02	-1.9556	-13.631389	0.000304	3.041248	1.030403	0.000122
1961	1.9502e+02	-1.9090	-13.486052	0.000365	3.649498	1.236483	0.000146
1962	1.9512e+02	-1.8689	-13.368975	0.000294	2.939874	0.996056	0.000118
1963	1.9522e+02	-1.8336	-13.272084	0.000243	2.432999	0.824322	0.000097
1964	1.9532e+02	-1.7839	-13.102524	0.000426	4.257748	1.442564	0.000170
1965	1.9542e+02	-1.7390	-13.021781	0.000203	2.027499	0.686935	0.000081
1966	1.9552e+02	-1.7069	-12.884519	0.000345	3.446748	1.167790	0.000138
1967	1.9562e+02	-1.6668	-12.743219	0.000355	3.548123	1.202137	0.000142
1968	1.9572e+02	-1.6299	-12.646328	0.000243	2.432999	0.824322	0.000097
1969	1.9582e+02	-1.5914	-12.549436	0.000243	2.432999	0.824322	0.000097
1970	1.9592e+02	-1.5545	-12.408137	0.000355	3.548123	1.202137	0.000142
1971	1.9601e+02	-1.5112	-12.274911	0.000335	3.345373	1.133443	0.000134
1972	1.9611e+02	-1.4679	-12.149760	0.000314	3.142623	1.064750	0.000126
1973	1.9621e+02	-1.4294	-12.064980	0.000213	2.128874	0.721282	0.000085
1974	1.9631e+02	-1.3861	-11.935792	0.000324	3.243998	1.099096	0.000130
1975	1.9641e+02	-1.3540	-11.806603	0.000324	3.243998	1.099096	0.000130
1976	1.9651e+02	-1.3091	-11.709712	0.000243	2.432999	0.824322	0.000097
1977	1.9661e+02	-1.2706	-11.548227	0.000405	4.054998	1.373870	0.000162
1978	1.9671e+02	-1.2369	-11.483633	0.000162	1.621999	0.549548	0.000065
1979	1.9681e+02	-1.1919	-11.314073	0.000426	4.257748	1.442564	0.000170
1980	1.9691e+02	-1.1422	-11.213145	0.000253	2.534374	0.858669	0.000101
1981	1.9701e+02	-1.1085	-11.087993	0.000314	3.142623	1.064750	0.000126
1982	1.9711e+02	-1.0684	-10.922471	0.000416	4.156373	1.408217	0.000166
1983	1.9721e+02	-1.0283	-10.801357	0.000304	3.041248	1.030403	0.000122
1984	1.9731e+02	-0.9882	-10.708503	0.000233	2.331624	0.789976	0.000093
1985	1.9741e+02	-0.9513	-10.611611	0.000243	2.432999	0.824322	0.000097
1986	1.9751e+02	-0.9112	-10.470312	0.000355	3.548123	1.202137	0.000142
1987	1.9761e+02	-0.8599	-10.324975	0.000365	3.649498	1.236483	0.000146
1988	1.9771e+02	-0.8278	-10.248269	0.000193	1.926124	0.652588	0.000077
1989	1.9781e+02	-0.7925	-10.135229	0.000284	2.838499	0.961709	0.000114
1990	1.9791e+02	-0.7412	-9.993930	0.000355	3.548123	1.202137	0.000142
1991	1.9800e+02	-0.7139	-9.880890	0.000284	2.838499	0.961709	0.000114
1992	1.9810e+02	-0.6754	-9.739590	0.000355	3.548123	1.202137	0.000142
1993	1.9820e+02	-0.6240	-9.606364	0.000335	3.345373	1.133443	0.000134
1994	1.9830e+02	-0.5888	-9.505436	0.000253	2.534374	0.858669	0.000101
1995	1.9840e+02	-0.5551	-9.404508	0.000253	2.534374	0.858669	0.000101
1996	1.9850e+02	-0.5101	-9.259171	0.000365	3.649498	1.236483	0.000146
1997	1.9860e+02	-0.4684	-9.134020	0.000314	3.142623	1.064750	0.000126
1998	1.9870e+02	-0.4331	-9.020980	0.000284	2.838499	0.961709	0.000114
1999	1.9880e+02	-0.3995	-8.875643	0.000365	3.649498	1.236483	0.000146
2000	1.9890e+02	-0.3545	-8.762603	0.000284	2.838499	0.961709	0.000114
2001	1.9900e+02	-0.3112	-8.669749	0.000233	2.331624	0.789976	0.000093
2002	1.9910e+02	-0.2711	-8.528449	0.000355	3.548123	1.202137	0.000142
2003	1.9920e+02	-0.2342	-8.419447	0.000274	2.737124	0.927363	0.000110
2004	1.9930e+02	-0.1861	-8.314481	0.000264	2.635749	0.893016	0.000105
2005	1.9940e+02	-0.1540	-8.185293	0.000324	3.243998	1.099096	0.000130
2006	1.9950e+02	-0.1123	-8.072253	0.000284	2.838499	0.961709	0.000114
2007	1.9960e+02	-0.0706	-7.922879	0.000375	3.750873	1.270830	0.000150
2008	1.9970e+02	-0.0321	-7.805802	0.000294	2.939874	0.996056	0.000118
2009	1.9980e+02	0.0080	-7.700836	0.000294	2.939874	0.996056	0.000105

PMax (uC/cm2):	6.14e+01
Pr (uC/cm2):	2.46e+00
-Pr (uC/cm2):	-4.32e+00
PLoss (uC/cm2):	-4.28e+00
-Vc:	-7.70e-01
C (Max-Eff) (nF):	3.07e-01
K (Eff):	1.04e+03
Vert. (+/-Pr) Shift (uC/cm2):	-9.26e-01
Offset (uC/cm2):	3.39e+00

A (Loop Area - uC/cm2·Volts):	1.72e-02



Hysteresis Version: 5.48.1 - Radiant Technologies, Inc., 1999 - 9/12/24

