»»»»»»»»»»»»»»»»»»»»»»»»»»»»»»»»»»»» Hysteresis ««««««««««««««««««««««««««««««««««««
»»»  Executed Version:	5.48.1
»»»  Vision Version:	5.48.4 (R)
»»»  Vision Compiled:	9/18/24
»»»  Driver Version:	5.47.0
»»»  Windows Version:	Windows 8 or 8.1
»»»  Processor Information:	x86 (AMD or Intel) - 32 Processors
»»»  Tester Name:	PMF21124-494 (100V)
»»»  Tester S/N:	PMF21124-494
»»»  Internal Amp Type:	100V RevK 270k
»»»  Internal Amp S/N:	iAB2-596/K     
»»»  Execution Count:	1
»»»»»»»»»»»»»»»»»»»»»»»»»»»»»»»»»»»»»»»»»»««««««««««««««««««««««««««««««««««««««««««

Stored:	6/19/2025 - 17:51:12
Configured:	06/19/25 10:04:32 AM
Executed:	06/19/25 05:50:49 PM

»»»»»»»»»»»»»»»»»»»»»»»»»»»»»»»»»»» Sample Info ««««««««««««««««««««««««««««««««««««
Sample Name:	
Lot Name:	
Wafer Name:	
Die Row/Column:	0/0
Capacitor Number:	0
Sample Area (cm2):	1.00e-04
Sample Thickness (microns):	3.00e-01

Amplifier:	Internal

»»»»»»»»»»»»»»»»»»»»»»»»»»»»»»»»»»» Tester Info «««««««««««««««««««««««««««««««««««
Tester Name:	PMF21124-494 (100V)
Tester Serial Number:	PMF21124-494
Return Signal Amp. Level:	0.19 [Index: 3]

»»»»»»»»»»»»»»»»»»»»»»»»»»»»»»»» Hysteresis Info ««««««««««««««««««««««««««««««««««
Task Name:	Hyst-1168
Volts:	20.00
Field:	666.67 (kV/cm)
DCBias:	0.00
DCField:	0.00 (kV/cm)
Hysteresis Period (ms):	2.00e+02
Preset:	Enabled
Preset Delay (ms):	1.00e+03
Profile:	Standard Bipolar

»»»»»»»»»»»»»»»»»»»»»»»»»»»»»»»»»»»»»» Data «««««««««««««««««««««««««««««««««««««««
Points:	2009

Valid Data

Point	Time (ms)	Drive Voltage	Measured Polarization (uC/cm2)	Capacitance (uF)	Normalized Capacitance (uF/cm2)	Dielectric Constant	Instantaneous Current (mA)
   1	0.0000e+00	0.0128	-4.261197	0.000274	2.738112	0.927698	0.000110
   2	9.9500e-02	0.0417	-4.152194	0.000274	2.738112	0.927698	0.000110
   3	1.9900e-01	0.0674	-4.067414	0.000213	2.129643	0.721543	0.000085
   4	2.9850e-01	0.1187	-3.982634	0.000213	2.129643	0.721543	0.000085
   5	3.9800e-01	0.1556	-3.857483	0.000314	3.143759	1.065134	0.000126
   6	4.9750e-01	0.1973	-3.700035	0.000396	3.955051	1.340008	0.000158
   7	5.9700e-01	0.2438	-3.538549	0.000406	4.056463	1.374367	0.000162
   8	6.9650e-01	0.2695	-3.417435	0.000304	3.042347	1.030775	0.000122
   9	7.9600e-01	0.3160	-3.316507	0.000254	2.535289	0.858979	0.000101
  10	8.9550e-01	0.3626	-3.175207	0.000355	3.549405	1.202571	0.000142
  11	9.9500e-01	0.3946	-3.062167	0.000284	2.839524	0.962057	0.000114
  12	1.0945e+00	0.4444	-2.916831	0.000365	3.650816	1.236930	0.000146
  13	1.1940e+00	0.4765	-2.795716	0.000304	3.042347	1.030775	0.000122
  14	1.2935e+00	0.5182	-2.662491	0.000335	3.346582	1.133853	0.000134
  15	1.3930e+00	0.5583	-2.541377	0.000304	3.042347	1.030775	0.000122
  16	1.4925e+00	0.5904	-2.428337	0.000284	2.839524	0.962057	0.000114
  17	1.5920e+00	0.6369	-2.283000	0.000365	3.650816	1.236930	0.000146
  18	1.6915e+00	0.6722	-2.178035	0.000264	2.636701	0.893338	0.000105
  19	1.7910e+00	0.7139	-2.048846	0.000325	3.245170	1.099493	0.000130
  20	1.8905e+00	0.7492	-1.923695	0.000314	3.143759	1.065134	0.000126
  21	1.9900e+00	0.7957	-1.786433	0.000345	3.447993	1.168212	0.000138
  22	2.0895e+00	0.8454	-1.721838	0.000162	1.622585	0.549747	0.000065
  23	2.1890e+00	0.8759	-1.576502	0.000365	3.650816	1.236930	0.000146
  24	2.2885e+00	0.9160	-1.451350	0.000314	3.143759	1.065134	0.000126
  25	2.3880e+00	0.9497	-1.314088	0.000345	3.447993	1.168212	0.000138
  26	2.4875e+00	0.9946	-1.176825	0.000345	3.447993	1.168212	0.000138
  27	2.5870e+00	1.0347	-1.011303	0.000416	4.157874	1.408726	0.000166
  28	2.6865e+00	1.0748	-0.886151	0.000314	3.143759	1.065134	0.000126
  29	2.7860e+00	1.1230	-0.777149	0.000274	2.738112	0.927698	0.000110
  30	2.8855e+00	1.1502	-0.627775	0.000375	3.752228	1.271289	0.000150
  31	2.9850e+00	1.1919	-0.514735	0.000284	2.839524	0.962057	0.000114
  32	3.0845e+00	1.2401	-0.377472	0.000345	3.447993	1.168212	0.000138
  33	3.1840e+00	1.2706	-0.236172	0.000355	3.549405	1.202571	0.000142
  34	3.2835e+00	1.2994	-0.106984	0.000325	3.245170	1.099493	0.000130
  35	3.3830e+00	1.3492	0.006056	0.000284	2.839524	0.962057	0.000114
  36	3.4825e+00	1.4005	0.163504	0.000396	3.955051	1.340008	0.000158
  37	3.5820e+00	1.4310	0.276544	0.000284	2.839524	0.962057	0.000114
  38	3.6815e+00	1.4711	0.466289	0.000477	4.766344	1.614881	0.000191
  39	3.7810e+00	1.5192	0.551069	0.000213	2.129643	0.721543	0.000085
  40	3.8805e+00	1.5529	0.631812	0.000203	2.028231	0.687183	0.000081
  41	3.9800e+00	1.5930	0.748889	0.000294	2.940935	0.996416	0.000118
  42	4.0795e+00	1.6235	0.886151	0.000345	3.447993	1.168212	0.000138
  43	4.1790e+00	1.6796	1.063785	0.000446	4.462109	1.511803	0.000179
  44	4.2785e+00	1.7149	1.225271	0.000406	4.056463	1.374367	0.000162
  45	4.3780e+00	1.7470	1.374645	0.000375	3.752228	1.271289	0.000150
  46	4.4775e+00	1.7903	1.459425	0.000213	2.129643	0.721543	0.000085
  47	4.5770e+00	1.8336	1.604761	0.000365	3.650816	1.236930	0.000146
  48	4.6765e+00	1.8625	1.766247	0.000406	4.056463	1.374367	0.000162
  49	4.7760e+00	1.9090	1.911584	0.000365	3.650816	1.236930	0.000146
  50	4.8755e+00	1.9427	2.032698	0.000304	3.042347	1.030775	0.000122
  51	4.9750e+00	1.9909	2.157849	0.000314	3.143759	1.065134	0.000126
  52	5.0745e+00	2.0358	2.266852	0.000274	2.738112	0.927698	0.000110
  53	5.1740e+00	2.0695	2.424300	0.000396	3.955051	1.340008	0.000158
  54	5.2735e+00	2.0967	2.513117	0.000223	2.231055	0.755902	0.000089
  55	5.3730e+00	2.1545	2.654417	0.000355	3.549405	1.202571	0.000142
  56	5.4725e+00	2.1914	2.823976	0.000426	4.259286	1.443085	0.000170
  57	5.5720e+00	2.2299	2.965276	0.000355	3.549405	1.202571	0.000142
  58	5.6715e+00	2.2700	3.058130	0.000233	2.332466	0.790261	0.000093
  59	5.7710e+00	2.3197	3.179244	0.000304	3.042347	1.030775	0.000122
  60	5.8705e+00	2.3518	3.292284	0.000284	2.839524	0.962057	0.000114
  61	5.9700e+00	2.3887	3.469918	0.000446	4.462109	1.511803	0.000179
  62	6.0695e+00	2.4416	3.591032	0.000304	3.042347	1.030775	0.000122
  63	6.1690e+00	2.4625	3.724258	0.000335	3.346582	1.133853	0.000134
  64	6.2685e+00	2.5058	3.873632	0.000375	3.752228	1.271289	0.000150
  65	6.3680e+00	2.5555	3.986672	0.000284	2.839524	0.962057	0.000114
  66	6.4675e+00	2.5844	4.152194	0.000416	4.157874	1.408726	0.000166
  67	6.5670e+00	2.6277	4.305605	0.000385	3.853640	1.305648	0.000154
  68	6.6665e+00	2.6678	4.430756	0.000314	3.143759	1.065134	0.000126
  69	6.7660e+00	2.7079	4.535722	0.000264	2.636701	0.893338	0.000105
  70	6.8655e+00	2.7448	4.709319	0.000436	4.360697	1.477444	0.000174
  71	6.9650e+00	2.7898	4.818322	0.000274	2.738112	0.927698	0.000110
  72	7.0645e+00	2.8299	4.947510	0.000325	3.245170	1.099493	0.000130
  73	7.1640e+00	2.8684	5.032290	0.000213	2.129643	0.721543	0.000085
  74	7.2635e+00	2.9117	5.189738	0.000396	3.955051	1.340008	0.000158
  75	7.3630e+00	2.9422	5.331038	0.000355	3.549405	1.202571	0.000142
  76	7.4625e+00	2.9871	5.444078	0.000284	2.839524	0.962057	0.000114
  77	7.5620e+00	3.0192	5.573266	0.000325	3.245170	1.099493	0.000130
  78	7.6615e+00	3.0753	5.694380	0.000304	3.042347	1.030775	0.000122
  79	7.7610e+00	3.1090	5.863940	0.000426	4.259286	1.443085	0.000170
  80	7.8605e+00	3.1459	6.005239	0.000355	3.549405	1.202571	0.000142
  81	7.9600e+00	3.1828	6.182873	0.000446	4.462109	1.511803	0.000179
  82	8.0595e+00	3.2293	6.271690	0.000223	2.231055	0.755902	0.000089
  83	8.1590e+00	3.2678	6.433176	0.000406	4.056463	1.374367	0.000162
  84	8.2585e+00	3.3111	6.542178	0.000274	2.738112	0.927698	0.000110
  85	8.3580e+00	3.3480	6.699627	0.000396	3.955051	1.340008	0.000158
  86	8.4575e+00	3.3833	6.836889	0.000345	3.447993	1.168212	0.000138
  87	8.5570e+00	3.4202	6.962041	0.000314	3.143759	1.065134	0.000126
  88	8.6565e+00	3.4684	7.038746	0.000193	1.926820	0.652824	0.000077
  89	8.7560e+00	3.5020	7.252714	0.000537	5.374813	1.821036	0.000215
  90	8.8555e+00	3.5389	7.321346	0.000172	1.723997	0.584106	0.000069
  91	8.9550e+00	3.5790	7.450534	0.000325	3.245170	1.099493	0.000130
  92	9.0545e+00	3.6256	7.599908	0.000375	3.752228	1.271289	0.000150
  93	9.1540e+00	3.6705	7.729096	0.000325	3.245170	1.099493	0.000130
  94	9.2535e+00	3.7010	7.838099	0.000274	2.738112	0.927698	0.000110
  95	9.3530e+00	3.7363	7.955176	0.000294	2.940935	0.996416	0.000118
  96	9.4525e+00	3.7908	8.104550	0.000375	3.752228	1.271289	0.000150
  97	9.5520e+00	3.8245	8.221627	0.000294	2.940935	0.996416	0.000118
  98	9.6515e+00	3.8630	8.411372	0.000477	4.766344	1.614881	0.000191
  99	9.7510e+00	3.9127	8.552672	0.000355	3.549405	1.202571	0.000142
 100	9.8505e+00	3.9384	8.665712	0.000284	2.839524	0.962057	0.000114
 101	9.9500e+00	3.9817	8.827197	0.000406	4.056463	1.374367	0.000162
 102	1.0050e+01	4.0122	8.920051	0.000233	2.332466	0.790261	0.000093
 103	1.0149e+01	4.0651	9.105760	0.000466	4.664932	1.580522	0.000187
 104	1.0248e+01	4.1004	9.230911	0.000314	3.143759	1.065134	0.000126
 105	1.0348e+01	4.1485	9.376248	0.000365	3.650816	1.236930	0.000146
 106	1.0447e+01	4.1838	9.541770	0.000416	4.157874	1.408726	0.000166
 107	1.0547e+01	4.2175	9.662884	0.000304	3.042347	1.030775	0.000122
 108	1.0646e+01	4.2624	9.792073	0.000325	3.245170	1.099493	0.000130
 109	1.0746e+01	4.2961	9.917224	0.000314	3.143759	1.065134	0.000126
 110	1.0845e+01	4.3394	10.078709	0.000406	4.056463	1.374367	0.000162
 111	1.0945e+01	4.3812	10.195786	0.000294	2.940935	0.996416	0.000118
 112	1.1044e+01	4.4132	10.324975	0.000325	3.245170	1.099493	0.000130
 113	1.1144e+01	4.4662	10.405717	0.000203	2.028231	0.687183	0.000081
 114	1.1243e+01	4.5047	10.518757	0.000284	2.839524	0.962057	0.000114
 115	1.1343e+01	4.5496	10.635834	0.000294	2.940935	0.996416	0.000118
 116	1.1443e+01	4.5881	10.801357	0.000416	4.157874	1.408726	0.000166
 117	1.1542e+01	4.6170	10.978991	0.000446	4.462109	1.511803	0.000179
 118	1.1642e+01	4.6667	11.136439	0.000396	3.955051	1.340008	0.000158
 119	1.1741e+01	4.7004	11.229293	0.000233	2.332466	0.790261	0.000093
 120	1.1841e+01	4.7341	11.386741	0.000396	3.955051	1.340008	0.000158
 121	1.1940e+01	4.7742	11.528041	0.000355	3.549405	1.202571	0.000142
 122	1.2040e+01	4.8223	11.713749	0.000466	4.664932	1.580522	0.000187
 123	1.2139e+01	4.8592	11.810641	0.000243	2.433878	0.824620	0.000097
 124	1.2239e+01	4.8961	11.931755	0.000304	3.042347	1.030775	0.000122
 125	1.2338e+01	4.9378	12.028646	0.000243	2.433878	0.824620	0.000097
 126	1.2438e+01	4.9795	12.206280	0.000446	4.462109	1.511803	0.000179
 127	1.2537e+01	5.0116	12.319320	0.000284	2.839524	0.962057	0.000114
 128	1.2636e+01	5.0598	12.452545	0.000335	3.346582	1.133853	0.000134
 129	1.2736e+01	5.1047	12.597882	0.000365	3.650816	1.236930	0.000146
 130	1.2835e+01	5.1400	12.735145	0.000345	3.447993	1.168212	0.000138
 131	1.2935e+01	5.1753	12.819925	0.000213	2.129643	0.721543	0.000085
 132	1.3034e+01	5.2266	12.957187	0.000345	3.447993	1.168212	0.000138
 133	1.3134e+01	5.2603	13.078301	0.000304	3.042347	1.030775	0.000122
 134	1.3233e+01	5.2859	13.247861	0.000426	4.259286	1.443085	0.000170
 135	1.3333e+01	5.3325	13.352826	0.000264	2.636701	0.893338	0.000105
 136	1.3432e+01	5.3774	13.494126	0.000355	3.549405	1.202571	0.000142
 137	1.3532e+01	5.4223	13.651574	0.000396	3.955051	1.340008	0.000158
 138	1.3632e+01	5.4560	13.764614	0.000284	2.839524	0.962057	0.000114
 139	1.3731e+01	5.4977	13.930137	0.000416	4.157874	1.408726	0.000166
 140	1.3831e+01	5.5426	14.043177	0.000284	2.839524	0.962057	0.000114
 141	1.3930e+01	5.5763	14.192551	0.000375	3.752228	1.271289	0.000150
 142	1.4030e+01	5.6244	14.309628	0.000294	2.940935	0.996416	0.000118
 143	1.4129e+01	5.6453	14.471113	0.000406	4.056463	1.374367	0.000162
 144	1.4229e+01	5.6966	14.592227	0.000304	3.042347	1.030775	0.000122
 145	1.4328e+01	5.7367	14.725453	0.000335	3.346582	1.133853	0.000134
 146	1.4428e+01	5.7801	14.882901	0.000396	3.955051	1.340008	0.000158
 147	1.4527e+01	5.8218	14.995941	0.000284	2.839524	0.962057	0.000114
 148	1.4627e+01	5.8538	15.133203	0.000345	3.447993	1.168212	0.000138
 149	1.4726e+01	5.8907	15.250280	0.000294	2.940935	0.996416	0.000118
 150	1.4825e+01	5.9373	15.383506	0.000335	3.346582	1.133853	0.000134
 151	1.4925e+01	5.9742	15.496546	0.000284	2.839524	0.962057	0.000114
 152	1.5024e+01	6.0175	15.633808	0.000345	3.447993	1.168212	0.000138
 153	1.5124e+01	6.0576	15.758959	0.000314	3.143759	1.065134	0.000126
 154	1.5223e+01	6.1025	15.867962	0.000274	2.738112	0.927698	0.000110
 155	1.5323e+01	6.1346	16.033485	0.000416	4.157874	1.408726	0.000166
 156	1.5422e+01	6.1731	16.170747	0.000345	3.447993	1.168212	0.000138
 157	1.5522e+01	6.2116	16.308010	0.000345	3.447993	1.168212	0.000138
 158	1.5621e+01	6.2581	16.461421	0.000385	3.853640	1.305648	0.000154
 159	1.5721e+01	6.2934	16.582535	0.000304	3.042347	1.030775	0.000122
 160	1.5820e+01	6.3367	16.719798	0.000345	3.447993	1.168212	0.000138
 161	1.5920e+01	6.3768	16.861097	0.000355	3.549405	1.202571	0.000142
 162	1.6020e+01	6.4121	16.970100	0.000274	2.738112	0.927698	0.000110
 163	1.6119e+01	6.4442	17.119474	0.000375	3.752228	1.271289	0.000150
 164	1.6218e+01	6.4939	17.252700	0.000335	3.346582	1.133853	0.000134
 165	1.6318e+01	6.5356	17.373814	0.000304	3.042347	1.030775	0.000122
 166	1.6418e+01	6.5661	17.531262	0.000396	3.955051	1.340008	0.000158
 167	1.6517e+01	6.6126	17.672562	0.000355	3.549405	1.202571	0.000142
 168	1.6616e+01	6.6528	17.825973	0.000385	3.853640	1.305648	0.000154
 169	1.6716e+01	6.6848	17.930938	0.000264	2.636701	0.893338	0.000105
 170	1.6816e+01	6.7346	18.039941	0.000274	2.738112	0.927698	0.000110
 171	1.6915e+01	6.7795	18.209501	0.000426	4.259286	1.443085	0.000170
 172	1.7015e+01	6.8068	18.318503	0.000274	2.738112	0.927698	0.000110
 173	1.7114e+01	6.8517	18.451729	0.000335	3.346582	1.133853	0.000134
 174	1.7213e+01	6.8870	18.593029	0.000355	3.549405	1.202571	0.000142
 175	1.7313e+01	6.9319	18.734328	0.000355	3.549405	1.202571	0.000142
 176	1.7413e+01	6.9752	18.851405	0.000294	2.940935	0.996416	0.000118
 177	1.7512e+01	7.0025	18.992705	0.000355	3.549405	1.202571	0.000142
 178	1.7611e+01	7.0522	19.146116	0.000385	3.853640	1.305648	0.000154
 179	1.7711e+01	7.0875	19.299527	0.000385	3.853640	1.305648	0.000154
 180	1.7811e+01	7.1244	19.400456	0.000254	2.535289	0.858979	0.000101
 181	1.7910e+01	7.1661	19.565978	0.000416	4.157874	1.408726	0.000166
 182	1.8009e+01	7.2142	19.711315	0.000365	3.650816	1.236930	0.000146
 183	1.8109e+01	7.2479	19.828392	0.000294	2.940935	0.996416	0.000118
 184	1.8209e+01	7.2784	19.969692	0.000355	3.549405	1.202571	0.000142
 185	1.8308e+01	7.3281	20.102917	0.000335	3.346582	1.133853	0.000134
 186	1.8407e+01	7.3698	20.260366	0.000396	3.955051	1.340008	0.000158
 187	1.8507e+01	7.4164	20.381480	0.000304	3.042347	1.030775	0.000122
 188	1.8607e+01	7.4372	20.510668	0.000325	3.245170	1.099493	0.000130
 189	1.8706e+01	7.4918	20.615634	0.000264	2.636701	0.893338	0.000105
 190	1.8805e+01	7.5367	20.785193	0.000426	4.259286	1.443085	0.000170
 191	1.8905e+01	7.5688	20.906307	0.000304	3.042347	1.030775	0.000122
 192	1.9005e+01	7.6025	21.055681	0.000375	3.752228	1.271289	0.000150
 193	1.9104e+01	7.6522	21.152573	0.000243	2.433878	0.824620	0.000097
 194	1.9203e+01	7.6875	21.293872	0.000355	3.549405	1.202571	0.000142
 195	1.9303e+01	7.7196	21.402875	0.000274	2.738112	0.927698	0.000110
 196	1.9402e+01	7.7693	21.528026	0.000314	3.143759	1.065134	0.000126
 197	1.9502e+01	7.8014	21.685475	0.000396	3.955051	1.340008	0.000158
 198	1.9602e+01	7.8463	21.834849	0.000375	3.752228	1.271289	0.000150
 199	1.9701e+01	7.8832	21.955963	0.000304	3.042347	1.030775	0.000122
 200	1.9800e+01	7.9201	22.101300	0.000365	3.650816	1.236930	0.000146
 201	1.9900e+01	7.9570	22.230488	0.000325	3.245170	1.099493	0.000130
 202	2.0000e+01	8.0147	22.367751	0.000345	3.447993	1.168212	0.000138
 203	2.0099e+01	8.0484	22.500976	0.000335	3.346582	1.133853	0.000134
 204	2.0198e+01	8.0821	22.614016	0.000284	2.839524	0.962057	0.000114
 205	2.0298e+01	8.1174	22.779538	0.000416	4.157874	1.408726	0.000166
 206	2.0398e+01	8.1639	22.888541	0.000274	2.738112	0.927698	0.000110
 207	2.0497e+01	8.1992	23.050026	0.000406	4.056463	1.374367	0.000162
 208	2.0596e+01	8.2442	23.227660	0.000446	4.462109	1.511803	0.000179
 209	2.0696e+01	8.2827	23.316477	0.000223	2.231055	0.755902	0.000089
 210	2.0796e+01	8.3196	23.445666	0.000325	3.245170	1.099493	0.000130
 211	2.0895e+01	8.3773	23.599077	0.000385	3.853640	1.305648	0.000154
 212	2.0994e+01	8.4126	23.720191	0.000304	3.042347	1.030775	0.000122
 213	2.1094e+01	8.4463	23.857454	0.000345	3.447993	1.168212	0.000138
 214	2.1194e+01	8.4944	24.014902	0.000396	3.955051	1.340008	0.000158
 215	2.1293e+01	8.5265	24.127942	0.000284	2.839524	0.962057	0.000114
 216	2.1392e+01	8.5602	24.240982	0.000284	2.839524	0.962057	0.000114
 217	2.1492e+01	8.5955	24.386318	0.000365	3.650816	1.236930	0.000146
 218	2.1591e+01	8.6436	24.547804	0.000406	4.056463	1.374367	0.000162
 219	2.1691e+01	8.6821	24.664881	0.000294	2.940935	0.996416	0.000118
 220	2.1791e+01	8.7286	24.794069	0.000325	3.245170	1.099493	0.000130
 221	2.1890e+01	8.7687	24.971703	0.000446	4.462109	1.511803	0.000179
 222	2.1989e+01	8.8056	25.044372	0.000183	1.825408	0.618465	0.000073
 223	2.2089e+01	8.8361	25.213931	0.000426	4.259286	1.443085	0.000170
 224	2.2189e+01	8.8810	25.359268	0.000365	3.650816	1.236930	0.000146
 225	2.2288e+01	8.9195	25.472308	0.000284	2.839524	0.962057	0.000114
 226	2.2387e+01	8.9661	25.670128	0.000497	4.969167	1.683599	0.000199
 227	2.2487e+01	9.0014	25.783167	0.000284	2.839524	0.962057	0.000114
 228	2.2587e+01	9.0447	25.863910	0.000203	2.028231	0.687183	0.000081
 229	2.2686e+01	9.0735	26.021358	0.000396	3.955051	1.340008	0.000158
 230	2.2785e+01	9.1201	26.170732	0.000375	3.752228	1.271289	0.000150
 231	2.2885e+01	9.1634	26.275698	0.000264	2.636701	0.893338	0.000105
 232	2.2985e+01	9.2035	26.400849	0.000314	3.143759	1.065134	0.000126
 233	2.3084e+01	9.2452	26.558297	0.000396	3.955051	1.340008	0.000158
 234	2.3183e+01	9.2805	26.655189	0.000243	2.433878	0.824620	0.000097
 235	2.3283e+01	9.3318	26.816674	0.000406	4.056463	1.374367	0.000162
 236	2.3383e+01	9.3543	26.945862	0.000325	3.245170	1.099493	0.000130
 237	2.3482e+01	9.3976	27.087162	0.000355	3.549405	1.202571	0.000142
 238	2.3581e+01	9.4489	27.224425	0.000345	3.447993	1.168212	0.000138
 239	2.3681e+01	9.4762	27.353613	0.000325	3.245170	1.099493	0.000130
 240	2.3780e+01	9.5147	27.515099	0.000406	4.056463	1.374367	0.000162
 241	2.3880e+01	9.5709	27.640250	0.000314	3.143759	1.065134	0.000126
 242	2.3980e+01	9.6094	27.769438	0.000325	3.245170	1.099493	0.000130
 243	2.4079e+01	9.6430	27.914775	0.000365	3.650816	1.236930	0.000146
 244	2.4178e+01	9.6703	28.056075	0.000355	3.549405	1.202571	0.000142
 245	2.4278e+01	9.7072	28.213523	0.000396	3.955051	1.340008	0.000158
 246	2.4378e+01	9.7569	28.322526	0.000274	2.738112	0.927698	0.000110
 247	2.4477e+01	9.8019	28.463826	0.000355	3.549405	1.202571	0.000142
 248	2.4576e+01	9.8372	28.540531	0.000193	1.926820	0.652824	0.000077
 249	2.4676e+01	9.8741	28.689905	0.000375	3.752228	1.271289	0.000150
 250	2.4776e+01	9.9174	28.794871	0.000264	2.636701	0.893338	0.000105
 251	2.4875e+01	9.9623	28.944245	0.000375	3.752228	1.271289	0.000150
 252	2.4974e+01	9.9976	29.053247	0.000274	2.738112	0.927698	0.000110
 253	2.5074e+01	10.0281	29.234918	0.000456	4.563521	1.546163	0.000183
 254	2.5174e+01	10.0794	29.368144	0.000335	3.346582	1.133853	0.000134
 255	2.5273e+01	10.1179	29.497332	0.000325	3.245170	1.099493	0.000130
 256	2.5372e+01	10.1628	29.586149	0.000223	2.231055	0.755902	0.000089
 257	2.5472e+01	10.2013	29.759746	0.000436	4.360697	1.477444	0.000174
 258	2.5572e+01	10.2398	29.892972	0.000335	3.346582	1.133853	0.000134
 259	2.5671e+01	10.2879	30.034271	0.000355	3.549405	1.202571	0.000142
 260	2.5770e+01	10.3264	30.147311	0.000284	2.839524	0.962057	0.000114
 261	2.5870e+01	10.3666	30.296685	0.000375	3.752228	1.271289	0.000150
 262	2.5970e+01	10.3986	30.429911	0.000335	3.346582	1.133853	0.000134
 263	2.6069e+01	10.4291	30.583322	0.000385	3.853640	1.305648	0.000154
 264	2.6169e+01	10.4676	30.732696	0.000375	3.752228	1.271289	0.000150
 265	2.6268e+01	10.5206	30.845736	0.000284	2.839524	0.962057	0.000114
 266	2.6367e+01	10.5559	30.974924	0.000325	3.245170	1.099493	0.000130
 267	2.6467e+01	10.5927	31.059704	0.000213	2.129643	0.721543	0.000085
 268	2.6567e+01	10.6264	31.196966	0.000345	3.447993	1.168212	0.000138
 269	2.6666e+01	10.6842	31.334229	0.000345	3.447993	1.168212	0.000138
 270	2.6765e+01	10.7243	31.495714	0.000406	4.056463	1.374367	0.000162
 271	2.6865e+01	10.7564	31.568383	0.000183	1.825408	0.618465	0.000073
 272	2.6965e+01	10.7981	31.713720	0.000365	3.650816	1.236930	0.000146
 273	2.7064e+01	10.8382	31.855020	0.000355	3.549405	1.202571	0.000142
 274	2.7163e+01	10.8751	32.012468	0.000396	3.955051	1.340008	0.000158
 275	2.7263e+01	10.9216	32.169916	0.000396	3.955051	1.340008	0.000158
 276	2.7363e+01	10.9521	32.270845	0.000254	2.535289	0.858979	0.000101
 277	2.7462e+01	10.9954	32.412144	0.000355	3.549405	1.202571	0.000142
 278	2.7561e+01	11.0339	32.577667	0.000416	4.157874	1.408726	0.000166
 279	2.7661e+01	11.0708	32.718967	0.000355	3.549405	1.202571	0.000142
 280	2.7761e+01	11.1189	32.844118	0.000314	3.143759	1.065134	0.000126
 281	2.7860e+01	11.1606	32.981380	0.000345	3.447993	1.168212	0.000138
 282	2.7959e+01	11.1959	33.154977	0.000436	4.360697	1.477444	0.000174
 283	2.8059e+01	11.2409	33.259943	0.000264	2.636701	0.893338	0.000105
 284	2.8159e+01	11.2697	33.397205	0.000345	3.447993	1.168212	0.000138
 285	2.8258e+01	11.3098	33.453725	0.000142	1.419762	0.481028	0.000057
 286	2.8358e+01	11.3548	33.607136	0.000385	3.853640	1.305648	0.000154
 287	2.8457e+01	11.3917	33.712102	0.000264	2.636701	0.893338	0.000105
 288	2.8556e+01	11.4286	33.825142	0.000284	2.839524	0.962057	0.000114
 289	2.8656e+01	11.4767	34.014887	0.000477	4.766344	1.614881	0.000191
 290	2.8756e+01	11.5120	34.123890	0.000274	2.738112	0.927698	0.000110
 291	2.8855e+01	11.5553	34.253078	0.000325	3.245170	1.099493	0.000130
 292	2.8954e+01	11.5906	34.370155	0.000294	2.940935	0.996416	0.000118
 293	2.9054e+01	11.6355	34.527603	0.000396	3.955051	1.340008	0.000158
 294	2.9154e+01	11.6644	34.620458	0.000233	2.332466	0.790261	0.000093
 295	2.9253e+01	11.7125	34.798091	0.000446	4.462109	1.511803	0.000179
 296	2.9352e+01	11.7494	34.874797	0.000193	1.926820	0.652824	0.000077
 297	2.9452e+01	11.7895	35.003985	0.000325	3.245170	1.099493	0.000130
 298	2.9552e+01	11.8392	35.161434	0.000396	3.955051	1.340008	0.000158
 299	2.9651e+01	11.8633	35.314845	0.000385	3.853640	1.305648	0.000154
 300	2.9750e+01	11.9098	35.444033	0.000325	3.245170	1.099493	0.000130
 301	2.9850e+01	11.9612	35.593407	0.000375	3.752228	1.271289	0.000150
 302	2.9950e+01	11.9916	35.718558	0.000314	3.143759	1.065134	0.000126
 303	3.0049e+01	12.0414	35.762967	0.000112	1.115527	0.377951	0.000045
 304	3.0148e+01	12.0654	35.936564	0.000436	4.360697	1.477444	0.000174
 305	3.0248e+01	12.1120	36.045566	0.000274	2.738112	0.927698	0.000110
 306	3.0348e+01	12.1521	36.182829	0.000345	3.447993	1.168212	0.000138
 307	3.0447e+01	12.1809	36.320092	0.000345	3.447993	1.168212	0.000138
 308	3.0547e+01	12.2226	36.441206	0.000304	3.042347	1.030775	0.000122
 309	3.0646e+01	12.2724	36.578468	0.000345	3.447993	1.168212	0.000138
 310	3.0745e+01	12.3109	36.711694	0.000335	3.346582	1.133853	0.000134
 311	3.0845e+01	12.3558	36.824734	0.000284	2.839524	0.962057	0.000114
 312	3.0945e+01	12.3927	36.966033	0.000355	3.549405	1.202571	0.000142
 313	3.1044e+01	12.4328	37.075036	0.000274	2.738112	0.927698	0.000110
 314	3.1143e+01	12.4761	37.236521	0.000406	4.056463	1.374367	0.000162
 315	3.1243e+01	12.5130	37.353598	0.000294	2.940935	0.996416	0.000118
 316	3.1343e+01	12.5499	37.498935	0.000365	3.650816	1.236930	0.000146
 317	3.1442e+01	12.5932	37.611975	0.000284	2.839524	0.962057	0.000114
 318	3.1541e+01	12.6253	37.777498	0.000416	4.157874	1.408726	0.000166
 319	3.1641e+01	12.6654	37.890537	0.000284	2.839524	0.962057	0.000114
 320	3.1741e+01	12.7119	38.064134	0.000436	4.360697	1.477444	0.000174
 321	3.1840e+01	12.7488	38.124691	0.000152	1.521174	0.515388	0.000061
 322	3.1939e+01	12.7954	38.270028	0.000365	3.650816	1.236930	0.000146
 323	3.2039e+01	12.8307	38.379031	0.000274	2.738112	0.927698	0.000110
 324	3.2139e+01	12.8692	38.492071	0.000284	2.839524	0.962057	0.000114
 325	3.2238e+01	12.9109	38.641445	0.000375	3.752228	1.271289	0.000150
 326	3.2337e+01	12.9462	38.762559	0.000304	3.042347	1.030775	0.000122
 327	3.2437e+01	12.9815	38.883673	0.000304	3.042347	1.030775	0.000122
 328	3.2536e+01	13.0280	39.037084	0.000385	3.853640	1.305648	0.000154
 329	3.2636e+01	13.0633	39.186458	0.000375	3.752228	1.271289	0.000150
 330	3.2736e+01	13.0954	39.271238	0.000213	2.129643	0.721543	0.000085
 331	3.2835e+01	13.1435	39.444835	0.000436	4.360697	1.477444	0.000174
 332	3.2934e+01	13.1820	39.545763	0.000254	2.535289	0.858979	0.000101
 333	3.3034e+01	13.2253	39.670914	0.000314	3.143759	1.065134	0.000126
 334	3.3133e+01	13.2606	39.832400	0.000406	4.056463	1.374367	0.000162
 335	3.3233e+01	13.3023	39.941402	0.000274	2.738112	0.927698	0.000110
 336	3.3333e+01	13.3360	40.082702	0.000355	3.549405	1.202571	0.000142
 337	3.3432e+01	13.3713	40.219965	0.000345	3.447993	1.168212	0.000138
 338	3.3532e+01	13.4242	40.328967	0.000274	2.738112	0.927698	0.000110
 339	3.3631e+01	13.4611	40.482379	0.000385	3.853640	1.305648	0.000154
 340	3.3730e+01	13.5028	40.551010	0.000172	1.723997	0.584106	0.000069
 341	3.3830e+01	13.5494	40.708458	0.000396	3.955051	1.340008	0.000158
 342	3.3929e+01	13.5782	40.817461	0.000274	2.738112	0.927698	0.000110
 343	3.4029e+01	13.6183	40.987021	0.000426	4.259286	1.443085	0.000170
 344	3.4129e+01	13.6633	41.100060	0.000284	2.839524	0.962057	0.000114
 345	3.4228e+01	13.6969	41.213100	0.000284	2.839524	0.962057	0.000114
 346	3.4328e+01	13.7451	41.326140	0.000284	2.839524	0.962057	0.000114
 347	3.4427e+01	13.7868	41.479551	0.000385	3.853640	1.305648	0.000154
 348	3.4526e+01	13.8157	41.592591	0.000284	2.839524	0.962057	0.000114
 349	3.4626e+01	13.8638	41.717742	0.000314	3.143759	1.065134	0.000126
 350	3.4725e+01	13.8927	41.879228	0.000406	4.056463	1.374367	0.000162
 351	3.4825e+01	13.9344	42.012453	0.000335	3.346582	1.133853	0.000134
 352	3.4925e+01	13.9809	42.117419	0.000264	2.636701	0.893338	0.000105
 353	3.5024e+01	14.0130	42.266793	0.000375	3.752228	1.271289	0.000150
 354	3.5123e+01	14.0531	42.395981	0.000325	3.245170	1.099493	0.000130
 355	3.5223e+01	14.1028	42.492872	0.000243	2.433878	0.824620	0.000097
 356	3.5322e+01	14.1349	42.666469	0.000436	4.360697	1.477444	0.000174
 357	3.5422e+01	14.1894	42.795657	0.000325	3.245170	1.099493	0.000130
 358	3.5522e+01	14.2135	42.872363	0.000193	1.926820	0.652824	0.000077
 359	3.5621e+01	14.2632	43.025774	0.000385	3.853640	1.305648	0.000154
 360	3.5721e+01	14.2969	43.114591	0.000223	2.231055	0.755902	0.000089
 361	3.5820e+01	14.3386	43.251854	0.000345	3.447993	1.168212	0.000138
 362	3.5919e+01	14.3868	43.364894	0.000284	2.839524	0.962057	0.000114
 363	3.6019e+01	14.4188	43.518305	0.000385	3.853640	1.305648	0.000154
 364	3.6118e+01	14.4590	43.659604	0.000355	3.549405	1.202571	0.000142
 365	3.6218e+01	14.4975	43.748421	0.000223	2.231055	0.755902	0.000089
 366	3.6318e+01	14.5376	43.893758	0.000365	3.650816	1.236930	0.000146
 367	3.6417e+01	14.5825	44.014872	0.000304	3.042347	1.030775	0.000122
 368	3.6517e+01	14.6130	44.135986	0.000304	3.042347	1.030775	0.000122
 369	3.6616e+01	14.6579	44.301509	0.000416	4.157874	1.408726	0.000166
 370	3.6715e+01	14.7076	44.410512	0.000274	2.738112	0.927698	0.000110
 371	3.6815e+01	14.7317	44.535663	0.000314	3.143759	1.065134	0.000126
 372	3.6914e+01	14.7830	44.713297	0.000446	4.462109	1.511803	0.000179
 373	3.7014e+01	14.8167	44.814225	0.000254	2.535289	0.858979	0.000101
 374	3.7114e+01	14.8552	44.931302	0.000294	2.940935	0.996416	0.000118
 375	3.7213e+01	14.8953	45.096825	0.000416	4.157874	1.408726	0.000166
 376	3.7313e+01	14.9418	45.213902	0.000294	2.940935	0.996416	0.000118
 377	3.7412e+01	14.9803	45.339053	0.000314	3.143759	1.065134	0.000126
 378	3.7511e+01	15.0252	45.464204	0.000314	3.143759	1.065134	0.000126
 379	3.7611e+01	15.0541	45.573207	0.000274	2.738112	0.927698	0.000110
 380	3.7711e+01	15.0894	45.738729	0.000416	4.157874	1.408726	0.000166
 381	3.7810e+01	15.1311	45.827546	0.000223	2.231055	0.755902	0.000089
 382	3.7910e+01	15.1841	45.972883	0.000365	3.650816	1.236930	0.000146
 383	3.8009e+01	15.2113	46.106109	0.000335	3.346582	1.133853	0.000134
 384	3.8108e+01	15.2579	46.186851	0.000203	2.028231	0.687183	0.000081
 385	3.8208e+01	15.2980	46.356411	0.000426	4.259286	1.443085	0.000170
 386	3.8307e+01	15.3317	46.517897	0.000406	4.056463	1.374367	0.000162
 387	3.8407e+01	15.3798	46.606714	0.000223	2.231055	0.755902	0.000089
 388	3.8507e+01	15.4215	46.731865	0.000314	3.143759	1.065134	0.000126
 389	3.8606e+01	15.4520	46.897387	0.000416	4.157874	1.408726	0.000166
 390	3.8706e+01	15.4905	47.002353	0.000264	2.636701	0.893338	0.000105
 391	3.8805e+01	15.5450	47.131541	0.000325	3.245170	1.099493	0.000130
 392	3.8904e+01	15.5707	47.288989	0.000396	3.955051	1.340008	0.000158
 393	3.9004e+01	15.6124	47.426252	0.000345	3.447993	1.168212	0.000138
 394	3.9103e+01	15.6605	47.551403	0.000314	3.143759	1.065134	0.000126
 395	3.9203e+01	15.6942	47.688666	0.000345	3.447993	1.168212	0.000138
 396	3.9303e+01	15.7439	47.769409	0.000203	2.028231	0.687183	0.000081
 397	3.9402e+01	15.7808	47.902634	0.000335	3.346582	1.133853	0.000134
 398	3.9502e+01	15.8049	48.015674	0.000284	2.839524	0.962057	0.000114
 399	3.9601e+01	15.8610	48.161011	0.000365	3.650816	1.236930	0.000146
 400	3.9700e+01	15.8915	48.302311	0.000355	3.549405	1.202571	0.000142
 401	3.9800e+01	15.9284	48.455722	0.000385	3.853640	1.305648	0.000154
 402	3.9900e+01	15.9685	48.512242	0.000142	1.419762	0.481028	0.000057
 403	3.9999e+01	16.0167	48.661616	0.000375	3.752228	1.271289	0.000150
 404	4.0099e+01	16.0487	48.786767	0.000314	3.143759	1.065134	0.000126
 405	4.0198e+01	16.0889	48.899807	0.000284	2.839524	0.962057	0.000114
 406	4.0297e+01	16.1274	49.065329	0.000416	4.157874	1.408726	0.000166
 407	4.0397e+01	16.1675	49.162220	0.000243	2.433878	0.824620	0.000097
 408	4.0496e+01	16.2044	49.291409	0.000325	3.245170	1.099493	0.000130
 409	4.0596e+01	16.2525	49.440783	0.000375	3.752228	1.271289	0.000150
 410	4.0696e+01	16.2878	49.574008	0.000335	3.346582	1.133853	0.000134
 411	4.0795e+01	16.3295	49.703197	0.000325	3.245170	1.099493	0.000130
 412	4.0895e+01	16.3760	49.836422	0.000335	3.346582	1.133853	0.000134
 413	4.0994e+01	16.4017	49.949462	0.000284	2.839524	0.962057	0.000114
 414	4.1093e+01	16.4546	50.078650	0.000325	3.245170	1.099493	0.000130
 415	4.1193e+01	16.4867	50.167467	0.000223	2.231055	0.755902	0.000089
 416	4.1292e+01	16.5268	50.244173	0.000193	1.926820	0.652824	0.000077
 417	4.1392e+01	16.5685	50.421807	0.000446	4.462109	1.511803	0.000179
 418	4.1492e+01	16.6118	50.575218	0.000385	3.853640	1.305648	0.000154
 419	4.1591e+01	16.6487	50.643849	0.000172	1.723997	0.584106	0.000069
 420	4.1691e+01	16.6936	50.809372	0.000416	4.157874	1.408726	0.000166
 421	4.1790e+01	16.7402	50.950672	0.000355	3.549405	1.202571	0.000142
 422	4.1889e+01	16.7706	51.035451	0.000213	2.129643	0.721543	0.000085
 423	4.1989e+01	16.8043	51.196937	0.000406	4.056463	1.374367	0.000162
 424	4.2089e+01	16.8605	51.334199	0.000345	3.447993	1.168212	0.000138
 425	4.2188e+01	16.8878	51.418979	0.000213	2.129643	0.721543	0.000085
 426	4.2288e+01	16.9359	51.576428	0.000396	3.955051	1.340008	0.000158
 427	4.2387e+01	16.9583	51.685430	0.000274	2.738112	0.927698	0.000110
 428	4.2486e+01	17.0049	51.842879	0.000396	3.955051	1.340008	0.000158
 429	4.2586e+01	17.0450	51.947844	0.000264	2.636701	0.893338	0.000105
 430	4.2685e+01	17.1011	52.077032	0.000325	3.245170	1.099493	0.000130
 431	4.2785e+01	17.1316	52.246592	0.000426	4.259286	1.443085	0.000170
 432	4.2885e+01	17.1797	52.339446	0.000233	2.332466	0.790261	0.000093
 433	4.2984e+01	17.2038	52.448449	0.000274	2.738112	0.927698	0.000110
 434	4.3084e+01	17.2439	52.593786	0.000365	3.650816	1.236930	0.000146
 435	4.3183e+01	17.2824	52.710863	0.000294	2.940935	0.996416	0.000118
 436	4.3282e+01	17.3257	52.860237	0.000375	3.752228	1.271289	0.000150
 437	4.3382e+01	17.3674	52.949054	0.000223	2.231055	0.755902	0.000089
 438	4.3481e+01	17.4011	53.110539	0.000406	4.056463	1.374367	0.000162
 439	4.3581e+01	17.4460	53.199356	0.000223	2.231055	0.755902	0.000089
 440	4.3681e+01	17.4877	53.320470	0.000304	3.042347	1.030775	0.000122
 441	4.3780e+01	17.5214	53.473881	0.000385	3.853640	1.305648	0.000154
 442	4.3880e+01	17.5663	53.594995	0.000304	3.042347	1.030775	0.000122
 443	4.3979e+01	17.6065	53.728221	0.000335	3.346582	1.133853	0.000134
 444	4.4078e+01	17.6466	53.873558	0.000365	3.650816	1.236930	0.000146
 445	4.4178e+01	17.6915	53.990635	0.000294	2.940935	0.996416	0.000118
 446	4.4278e+01	17.7204	54.119823	0.000325	3.245170	1.099493	0.000130
 447	4.4377e+01	17.7765	54.253049	0.000335	3.346582	1.133853	0.000134
 448	4.4477e+01	17.8070	54.378200	0.000314	3.143759	1.065134	0.000126
 449	4.4576e+01	17.8407	54.527574	0.000375	3.752228	1.271289	0.000150
 450	4.4675e+01	17.8904	54.644651	0.000294	2.940935	0.996416	0.000118
 451	4.4775e+01	17.9225	54.745579	0.000254	2.535289	0.858979	0.000101
 452	4.4874e+01	17.9610	54.866693	0.000304	3.042347	1.030775	0.000122
 453	4.4974e+01	17.9995	54.955510	0.000223	2.231055	0.755902	0.000089
 454	4.5074e+01	18.0492	55.080661	0.000314	3.143759	1.065134	0.000126
 455	4.5173e+01	18.0829	55.217924	0.000345	3.447993	1.168212	0.000138
 456	4.5273e+01	18.1278	55.339038	0.000304	3.042347	1.030775	0.000122
 457	4.5372e+01	18.1631	55.504561	0.000416	4.157874	1.408726	0.000166
 458	4.5471e+01	18.2113	55.617600	0.000284	2.839524	0.962057	0.000114
 459	4.5571e+01	18.2385	55.686232	0.000172	1.723997	0.584106	0.000069
 460	4.5670e+01	18.2915	55.839643	0.000385	3.853640	1.305648	0.000154
 461	4.5770e+01	18.3268	55.972868	0.000335	3.346582	1.133853	0.000134
 462	4.5870e+01	18.3669	56.089945	0.000294	2.940935	0.996416	0.000118
 463	4.5969e+01	18.4038	56.211059	0.000304	3.042347	1.030775	0.000122
 464	4.6069e+01	18.4439	56.332174	0.000304	3.042347	1.030775	0.000122
 465	4.6168e+01	18.4872	56.505770	0.000436	4.360697	1.477444	0.000174
 466	4.6267e+01	18.5257	56.630922	0.000314	3.143759	1.065134	0.000126
 467	4.6367e+01	18.5594	56.768184	0.000345	3.447993	1.168212	0.000138
 468	4.6467e+01	18.5963	56.881224	0.000284	2.839524	0.962057	0.000114
 469	4.6566e+01	18.6460	56.990227	0.000274	2.738112	0.927698	0.000110
 470	4.6666e+01	18.6877	57.103266	0.000284	2.839524	0.962057	0.000114
 471	4.6765e+01	18.7310	57.196121	0.000233	2.332466	0.790261	0.000093
 472	4.6864e+01	18.7711	57.301086	0.000264	2.636701	0.893338	0.000105
 473	4.6964e+01	18.8000	57.430274	0.000325	3.245170	1.099493	0.000130
 474	4.7063e+01	18.8417	57.571574	0.000355	3.549405	1.202571	0.000142
 475	4.7163e+01	18.8850	57.708837	0.000345	3.447993	1.168212	0.000138
 476	4.7263e+01	18.9235	57.813802	0.000264	2.636701	0.893338	0.000105
 477	4.7362e+01	18.9540	57.947028	0.000335	3.346582	1.133853	0.000134
 478	4.7462e+01	19.0053	58.027771	0.000203	2.028231	0.687183	0.000081
 479	4.7561e+01	19.0374	58.213479	0.000466	4.664932	1.580522	0.000187
 480	4.7660e+01	19.0936	58.326519	0.000284	2.839524	0.962057	0.000114
 481	4.7760e+01	19.1241	58.459744	0.000335	3.346582	1.133853	0.000134
 482	4.7859e+01	19.1690	58.552598	0.000233	2.332466	0.790261	0.000093
 483	4.7959e+01	19.1979	58.734269	0.000456	4.563521	1.546163	0.000183
 484	4.8059e+01	19.2412	58.863458	0.000325	3.245170	1.099493	0.000130
 485	4.8158e+01	19.2845	58.984572	0.000304	3.042347	1.030775	0.000122
 486	4.8258e+01	19.3230	59.105686	0.000304	3.042347	1.030775	0.000122
 487	4.8357e+01	19.3535	59.259097	0.000385	3.853640	1.305648	0.000154
 488	4.8456e+01	19.4048	59.335803	0.000193	1.926820	0.652824	0.000077
 489	4.8556e+01	19.4433	59.452879	0.000294	2.940935	0.996416	0.000118
 490	4.8656e+01	19.4690	59.557845	0.000264	2.636701	0.893338	0.000105
 491	4.8755e+01	19.5267	59.674922	0.000294	2.940935	0.996416	0.000118
 492	4.8855e+01	19.5540	59.763739	0.000223	2.231055	0.755902	0.000089
 493	4.8954e+01	19.5957	59.937336	0.000436	4.360697	1.477444	0.000174
 494	4.9053e+01	19.6406	60.022116	0.000213	2.129643	0.721543	0.000085
 495	4.9153e+01	19.6839	60.175527	0.000385	3.853640	1.305648	0.000154
 496	4.9252e+01	19.7144	60.304715	0.000325	3.245170	1.099493	0.000130
 497	4.9352e+01	19.7481	60.425829	0.000304	3.042347	1.030775	0.000122
 498	4.9452e+01	19.8026	60.559055	0.000335	3.346582	1.133853	0.000134
 499	4.9551e+01	19.8299	60.664020	0.000264	2.636701	0.893338	0.000105
 500	4.9651e+01	19.8764	60.793209	0.000325	3.245170	1.099493	0.000130
 501	4.9750e+01	19.9133	60.986991	0.000487	4.867755	1.649240	0.000195
 502	4.9849e+01	19.9663	61.087919	0.000254	2.535289	0.858979	0.000101
 503	4.9949e+01	19.9887	61.217108	0.000325	3.245170	1.099493	0.000130
 504	5.0048e+01	19.9551	61.144439	0.000183	1.825408	0.618465	-0.000073
 505	5.0148e+01	19.9069	61.087919	0.000142	1.419762	0.481028	-0.000057
 506	5.0248e+01	19.8845	60.934508	0.000385	3.853640	1.305648	-0.000154
 507	5.0347e+01	19.8363	60.837617	0.000243	2.433878	0.824620	-0.000097
 508	5.0447e+01	19.8075	60.740726	0.000243	2.433878	0.824620	-0.000097
 509	5.0546e+01	19.7561	60.575203	0.000416	4.157874	1.408726	-0.000166
 510	5.0645e+01	19.7160	60.450052	0.000314	3.143759	1.065134	-0.000126
 511	5.0745e+01	19.6807	60.377384	0.000183	1.825408	0.618465	-0.000073
 512	5.0844e+01	19.6342	60.256269	0.000304	3.042347	1.030775	-0.000122
 513	5.0944e+01	19.5957	60.179564	0.000193	1.926820	0.652824	-0.000077
 514	5.1044e+01	19.5524	60.070561	0.000274	2.738112	0.927698	-0.000110
 515	5.1143e+01	19.5203	59.925224	0.000365	3.650816	1.236930	-0.000146
 516	5.1242e+01	19.4786	59.860630	0.000162	1.622585	0.549747	-0.000065
 517	5.1342e+01	19.4417	59.791999	0.000172	1.723997	0.584106	-0.000069
 518	5.1441e+01	19.3968	59.687033	0.000264	2.636701	0.893338	-0.000105
 519	5.1541e+01	19.3647	59.578031	0.000274	2.738112	0.927698	-0.000110
 520	5.1641e+01	19.3230	59.464991	0.000284	2.839524	0.962057	-0.000114
 521	5.1740e+01	19.2781	59.368100	0.000243	2.433878	0.824620	-0.000097
 522	5.1840e+01	19.2364	59.246986	0.000304	3.042347	1.030775	-0.000122
 523	5.1939e+01	19.1962	59.121834	0.000314	3.143759	1.065134	-0.000126
 524	5.2038e+01	19.1658	59.037054	0.000213	2.129643	0.721543	-0.000085
 525	5.2138e+01	19.1225	58.919978	0.000294	2.940935	0.996416	-0.000118
 526	5.2237e+01	19.0840	58.774641	0.000365	3.650816	1.236930	-0.000146
 527	5.2337e+01	19.0358	58.649489	0.000314	3.143759	1.065134	-0.000126
 528	5.2437e+01	19.0070	58.556635	0.000233	2.332466	0.790261	-0.000093
 529	5.2536e+01	18.9588	58.407261	0.000375	3.752228	1.271289	-0.000150
 530	5.2636e+01	18.9139	58.322481	0.000213	2.129643	0.721543	-0.000085
 531	5.2735e+01	18.8834	58.165033	0.000396	3.955051	1.340008	-0.000158
 532	5.2834e+01	18.8497	58.068142	0.000243	2.433878	0.824620	-0.000097
 533	5.2934e+01	18.7936	57.975288	0.000233	2.332466	0.790261	-0.000093
 534	5.3033e+01	18.7583	57.842062	0.000335	3.346582	1.133853	-0.000134
 535	5.3133e+01	18.7246	57.765357	0.000193	1.926820	0.652824	-0.000077
 536	5.3233e+01	18.6845	57.664428	0.000254	2.535289	0.858979	-0.000101
 537	5.3332e+01	18.6476	57.636168	0.000071	0.709881	0.240514	-0.000028
 538	5.3431e+01	18.6043	57.511017	0.000314	3.143759	1.065134	-0.000126
 539	5.3531e+01	18.5722	57.357606	0.000385	3.853640	1.305648	-0.000154
 540	5.3630e+01	18.5225	57.228418	0.000325	3.245170	1.099493	-0.000130
 541	5.3730e+01	18.4759	57.151712	0.000193	1.926820	0.652824	-0.000077
 542	5.3830e+01	18.4519	57.054821	0.000243	2.433878	0.824620	-0.000097
 543	5.3929e+01	18.4070	56.945818	0.000274	2.738112	0.927698	-0.000110
 544	5.4029e+01	18.3588	56.832778	0.000284	2.839524	0.962057	-0.000114
 545	5.4128e+01	18.3219	56.691479	0.000355	3.549405	1.202571	-0.000142
 546	5.4227e+01	18.2802	56.562290	0.000325	3.245170	1.099493	-0.000130
 547	5.4327e+01	18.2465	56.453288	0.000274	2.738112	0.927698	-0.000110
 548	5.4426e+01	18.2080	56.324099	0.000325	3.245170	1.099493	-0.000130
 549	5.4526e+01	18.1599	56.198948	0.000314	3.143759	1.065134	-0.000126
 550	5.4626e+01	18.1198	56.089945	0.000274	2.738112	0.927698	-0.000110
 551	5.4725e+01	18.0925	55.984980	0.000264	2.636701	0.893338	-0.000105
 552	5.4825e+01	18.0364	55.892126	0.000233	2.332466	0.790261	-0.000093
 553	5.4924e+01	18.0123	55.758900	0.000335	3.346582	1.133853	-0.000134
 554	5.5023e+01	17.9658	55.714492	0.000112	1.115527	0.377951	-0.000045
 555	5.5123e+01	17.9257	55.573192	0.000355	3.549405	1.202571	-0.000142
 556	5.5222e+01	17.8776	55.468226	0.000264	2.636701	0.893338	-0.000105
 557	5.5322e+01	17.8423	55.379409	0.000223	2.231055	0.755902	-0.000089
 558	5.5422e+01	17.8038	55.262333	0.000294	2.940935	0.996416	-0.000118
 559	5.5521e+01	17.7717	55.153330	0.000274	2.738112	0.927698	-0.000110
 560	5.5620e+01	17.7220	55.007993	0.000365	3.650816	1.236930	-0.000146
 561	5.5720e+01	17.6947	54.939362	0.000172	1.723997	0.584106	-0.000069
 562	5.5819e+01	17.6353	54.818248	0.000304	3.042347	1.030775	-0.000122
 563	5.5919e+01	17.6065	54.693096	0.000314	3.143759	1.065134	-0.000126
 564	5.6019e+01	17.5680	54.519500	0.000436	4.360697	1.477444	-0.000174
 565	5.6118e+01	17.5230	54.398386	0.000304	3.042347	1.030775	-0.000122
 566	5.6218e+01	17.4893	54.273234	0.000314	3.143759	1.065134	-0.000126
 567	5.6317e+01	17.4557	54.160194	0.000284	2.839524	0.962057	-0.000114
 568	5.6416e+01	17.4059	54.067340	0.000233	2.332466	0.790261	-0.000093
 569	5.6516e+01	17.3658	53.917966	0.000375	3.752228	1.271289	-0.000150
 570	5.6615e+01	17.3225	53.808964	0.000274	2.738112	0.927698	-0.000110
 571	5.6715e+01	17.2888	53.720147	0.000223	2.231055	0.755902	-0.000089
 572	5.6815e+01	17.2519	53.603070	0.000294	2.940935	0.996416	-0.000118
 573	5.6914e+01	17.2022	53.534438	0.000172	1.723997	0.584106	-0.000069
 574	5.7014e+01	17.1621	53.437547	0.000243	2.433878	0.824620	-0.000097
 575	5.7113e+01	17.1284	53.284136	0.000385	3.853640	1.305648	-0.000154
 576	5.7212e+01	17.0899	53.191282	0.000233	2.332466	0.790261	-0.000093
 577	5.7312e+01	17.0434	53.090354	0.000254	2.535289	0.858979	-0.000101
 578	5.7411e+01	17.0033	52.957128	0.000335	3.346582	1.133853	-0.000134
 579	5.7511e+01	16.9648	52.836014	0.000304	3.042347	1.030775	-0.000122
 580	5.7611e+01	16.9407	52.751234	0.000213	2.129643	0.721543	-0.000085
 581	5.7710e+01	16.8910	52.613972	0.000345	3.447993	1.168212	-0.000138
 582	5.7809e+01	16.8493	52.476709	0.000345	3.447993	1.168212	-0.000138
 583	5.7909e+01	16.8156	52.327335	0.000375	3.752228	1.271289	-0.000150
 584	5.8008e+01	16.7562	52.190072	0.000345	3.447993	1.168212	-0.000138
 585	5.8108e+01	16.7321	52.085107	0.000264	2.636701	0.893338	-0.000105
 586	5.8208e+01	16.6888	52.004364	0.000203	2.028231	0.687183	-0.000081
 587	5.8307e+01	16.6487	51.891324	0.000284	2.839524	0.962057	-0.000114
 588	5.8407e+01	16.6102	51.737913	0.000385	3.853640	1.305648	-0.000154
 589	5.8506e+01	16.5733	51.657170	0.000203	2.028231	0.687183	-0.000081
 590	5.8605e+01	16.5348	51.564316	0.000233	2.332466	0.790261	-0.000093
 591	5.8705e+01	16.4803	51.431091	0.000335	3.346582	1.133853	-0.000134
 592	5.8804e+01	16.4530	51.334199	0.000243	2.433878	0.824620	-0.000097
 593	5.8904e+01	16.4049	51.253457	0.000203	2.028231	0.687183	-0.000081
 594	5.9004e+01	16.3632	51.104083	0.000375	3.752228	1.271289	-0.000150
 595	5.9103e+01	16.3327	50.962783	0.000355	3.549405	1.202571	-0.000142
 596	5.9203e+01	16.2974	50.841669	0.000304	3.042347	1.030775	-0.000122
 597	5.9302e+01	16.2541	50.728629	0.000284	2.839524	0.962057	-0.000114
 598	5.9401e+01	16.1995	50.627701	0.000254	2.535289	0.858979	-0.000101
 599	5.9501e+01	16.1803	50.498512	0.000325	3.245170	1.099493	-0.000130
 600	5.9600e+01	16.1225	50.397584	0.000254	2.535289	0.858979	-0.000101
 601	5.9700e+01	16.0921	50.223987	0.000436	4.360697	1.477444	-0.000174
 602	5.9800e+01	16.0536	50.131133	0.000233	2.332466	0.790261	-0.000093
 603	5.9899e+01	16.0086	49.989833	0.000355	3.549405	1.202571	-0.000142
 604	5.9998e+01	15.9766	49.884868	0.000264	2.636701	0.893338	-0.000105
 605	6.0098e+01	15.9268	49.739531	0.000365	3.650816	1.236930	-0.000146
 606	6.0197e+01	15.8899	49.666862	0.000183	1.825408	0.618465	-0.000073
 607	6.0297e+01	15.8466	49.557860	0.000274	2.738112	0.927698	-0.000110
 608	6.0397e+01	15.8097	49.400411	0.000396	3.955051	1.340008	-0.000158
 609	6.0496e+01	15.7776	49.339854	0.000152	1.521174	0.515388	-0.000061
 610	6.0596e+01	15.7439	49.210666	0.000325	3.245170	1.099493	-0.000130
 611	6.0695e+01	15.6926	49.133960	0.000193	1.926820	0.652824	-0.000077
 612	6.0794e+01	15.6477	49.012846	0.000304	3.042347	1.030775	-0.000122
 613	6.0894e+01	15.6124	48.883658	0.000325	3.245170	1.099493	-0.000130
 614	6.0993e+01	15.5739	48.798878	0.000213	2.129643	0.721543	-0.000085
 615	6.1093e+01	15.5306	48.677764	0.000304	3.042347	1.030775	-0.000122
 616	6.1193e+01	15.4969	48.536464	0.000355	3.549405	1.202571	-0.000142
 617	6.1292e+01	15.4504	48.431499	0.000264	2.636701	0.893338	-0.000105
 618	6.1392e+01	15.4215	48.302311	0.000325	3.245170	1.099493	-0.000130
 619	6.1491e+01	15.3814	48.193308	0.000274	2.738112	0.927698	-0.000110
 620	6.1590e+01	15.3365	48.011637	0.000456	4.563521	1.546163	-0.000183
 621	6.1690e+01	15.2980	47.870337	0.000355	3.549405	1.202571	-0.000142
 622	6.1789e+01	15.2546	47.737112	0.000335	3.346582	1.133853	-0.000134
 623	6.1889e+01	15.2097	47.632146	0.000264	2.636701	0.893338	-0.000105
 624	6.1989e+01	15.1744	47.535255	0.000243	2.433878	0.824620	-0.000097
 625	6.2088e+01	15.1311	47.369732	0.000416	4.157874	1.408726	-0.000166
 626	6.2188e+01	15.0910	47.280915	0.000223	2.231055	0.755902	-0.000089
 627	6.2287e+01	15.0637	47.188061	0.000233	2.332466	0.790261	-0.000093
 628	6.2386e+01	15.0172	47.075021	0.000284	2.839524	0.962057	-0.000114
 629	6.2486e+01	14.9707	46.961981	0.000284	2.839524	0.962057	-0.000114
 630	6.2586e+01	14.9194	46.828756	0.000335	3.346582	1.133853	-0.000134
 631	6.2685e+01	14.8921	46.703605	0.000314	3.143759	1.065134	-0.000126
 632	6.2785e+01	14.8520	46.546156	0.000396	3.955051	1.340008	-0.000158
 633	6.2884e+01	14.8103	46.445228	0.000254	2.535289	0.858979	-0.000101
 634	6.2983e+01	14.7814	46.324114	0.000304	3.042347	1.030775	-0.000122
 635	6.3083e+01	14.7445	46.211074	0.000284	2.839524	0.962057	-0.000114
 636	6.3182e+01	14.6980	46.102072	0.000274	2.738112	0.927698	-0.000110
 637	6.3282e+01	14.6531	45.956735	0.000365	3.650816	1.236930	-0.000146
 638	6.3382e+01	14.6130	45.827546	0.000325	3.245170	1.099493	-0.000130
 639	6.3481e+01	14.5777	45.662024	0.000416	4.157874	1.408726	-0.000166
 640	6.3581e+01	14.5311	45.561095	0.000254	2.535289	0.858979	-0.000101
 641	6.3680e+01	14.4975	45.439981	0.000304	3.042347	1.030775	-0.000122
 642	6.3779e+01	14.4734	45.330979	0.000274	2.738112	0.927698	-0.000110
 643	6.3879e+01	14.4253	45.165456	0.000416	4.157874	1.408726	-0.000166
 644	6.3978e+01	14.3868	45.092788	0.000183	1.825408	0.618465	-0.000073
 645	6.4078e+01	14.3386	45.003971	0.000223	2.231055	0.755902	-0.000089
 646	6.4177e+01	14.3017	44.854597	0.000375	3.752228	1.271289	-0.000150
 647	6.4277e+01	14.2568	44.777891	0.000193	1.926820	0.652824	-0.000077
 648	6.4376e+01	14.2183	44.632554	0.000365	3.650816	1.236930	-0.000146
 649	6.4476e+01	14.1814	44.543737	0.000223	2.231055	0.755902	-0.000089
 650	6.4576e+01	14.1429	44.426660	0.000294	2.940935	0.996416	-0.000118
 651	6.4675e+01	14.0996	44.321695	0.000264	2.636701	0.893338	-0.000105
 652	6.4775e+01	14.0515	44.168284	0.000385	3.853640	1.305648	-0.000154
 653	6.4874e+01	14.0258	44.039095	0.000325	3.245170	1.099493	-0.000130
 654	6.4974e+01	13.9825	43.917981	0.000304	3.042347	1.030775	-0.000122
 655	6.5073e+01	13.9424	43.808978	0.000274	2.738112	0.927698	-0.000110
 656	6.5172e+01	13.9023	43.712087	0.000243	2.433878	0.824620	-0.000097
 657	6.5272e+01	13.8702	43.518305	0.000487	4.867755	1.649240	-0.000195
 658	6.5371e+01	13.8253	43.381042	0.000345	3.447993	1.168212	-0.000138
 659	6.5471e+01	13.7788	43.272039	0.000274	2.738112	0.927698	-0.000110
 660	6.5570e+01	13.7451	43.134777	0.000345	3.447993	1.168212	-0.000138
 661	6.5670e+01	13.7034	43.005588	0.000325	3.245170	1.099493	-0.000130
 662	6.5769e+01	13.6600	42.900623	0.000264	2.636701	0.893338	-0.000105
 663	6.5869e+01	13.6167	42.739137	0.000406	4.056463	1.374367	-0.000162
 664	6.5969e+01	13.5830	42.690692	0.000122	1.216939	0.412310	-0.000049
 665	6.6068e+01	13.5461	42.581689	0.000274	2.738112	0.927698	-0.000110
 666	6.6168e+01	13.5028	42.456538	0.000314	3.143759	1.065134	-0.000126
 667	6.6267e+01	13.4579	42.327350	0.000325	3.245170	1.099493	-0.000130
 668	6.6367e+01	13.4242	42.238533	0.000223	2.231055	0.755902	-0.000089
 669	6.6466e+01	13.3761	42.101270	0.000345	3.447993	1.168212	-0.000138
 670	6.6566e+01	13.3392	41.980156	0.000304	3.042347	1.030775	-0.000122
 671	6.6665e+01	13.3055	41.850968	0.000325	3.245170	1.099493	-0.000130
 672	6.6764e+01	13.2574	41.697556	0.000385	3.853640	1.305648	-0.000154
 673	6.6864e+01	13.2109	41.600665	0.000243	2.433878	0.824620	-0.000097
 674	6.6963e+01	13.1868	41.471477	0.000325	3.245170	1.099493	-0.000130
 675	6.7063e+01	13.1435	41.338251	0.000335	3.346582	1.133853	-0.000134
 676	6.7162e+01	13.1050	41.192915	0.000365	3.650816	1.236930	-0.000146
 677	6.7262e+01	13.0649	41.059689	0.000335	3.346582	1.133853	-0.000134
 678	6.7362e+01	13.0296	40.938575	0.000304	3.042347	1.030775	-0.000122
 679	6.7461e+01	12.9815	40.817461	0.000304	3.042347	1.030775	-0.000122
 680	6.7561e+01	12.9349	40.676161	0.000355	3.549405	1.202571	-0.000142
 681	6.7660e+01	12.9044	40.559084	0.000294	2.940935	0.996416	-0.000118
 682	6.7760e+01	12.8676	40.494490	0.000162	1.622585	0.549747	-0.000065
 683	6.7859e+01	12.8258	40.361265	0.000335	3.346582	1.133853	-0.000134
 684	6.7959e+01	12.7922	40.236113	0.000314	3.143759	1.065134	-0.000126
 685	6.8058e+01	12.7440	40.155371	0.000203	2.028231	0.687183	-0.000081
 686	6.8157e+01	12.7007	40.022145	0.000335	3.346582	1.133853	-0.000134
 687	6.8257e+01	12.6750	39.913142	0.000274	2.738112	0.927698	-0.000110
 688	6.8356e+01	12.6365	39.747620	0.000416	4.157874	1.408726	-0.000166
 689	6.8456e+01	12.5836	39.634580	0.000284	2.839524	0.962057	-0.000114
 690	6.8555e+01	12.5467	39.493280	0.000355	3.549405	1.202571	-0.000142
 691	6.8655e+01	12.5130	39.392352	0.000254	2.535289	0.858979	-0.000101
 692	6.8754e+01	12.4713	39.230867	0.000406	4.056463	1.374367	-0.000162
 693	6.8854e+01	12.4360	39.105715	0.000314	3.143759	1.065134	-0.000126
 694	6.8954e+01	12.3991	38.988638	0.000294	2.940935	0.996416	-0.000118
 695	6.9053e+01	12.3414	38.778707	0.000527	5.273402	1.786677	-0.000211
 696	6.9153e+01	12.3093	38.669705	0.000274	2.738112	0.927698	-0.000110
 697	6.9252e+01	12.2676	38.576851	0.000233	2.332466	0.790261	-0.000093
 698	6.9352e+01	12.2259	38.455736	0.000304	3.042347	1.030775	-0.000122
 699	6.9451e+01	12.1890	38.334622	0.000304	3.042347	1.030775	-0.000122
 700	6.9550e+01	12.1424	38.209471	0.000314	3.143759	1.065134	-0.000126
 701	6.9650e+01	12.1071	38.108543	0.000254	2.535289	0.858979	-0.000101
 702	6.9749e+01	12.0654	37.991466	0.000294	2.940935	0.996416	-0.000118
 703	6.9849e+01	12.0317	37.894575	0.000243	2.433878	0.824620	-0.000097
 704	6.9948e+01	11.9900	37.729052	0.000416	4.157874	1.408726	-0.000166
 705	7.0048e+01	11.9483	37.628124	0.000254	2.535289	0.858979	-0.000101
 706	7.0147e+01	11.9130	37.551418	0.000193	1.926820	0.652824	-0.000077
 707	7.0247e+01	11.8761	37.402044	0.000375	3.752228	1.271289	-0.000150
 708	7.0347e+01	11.8232	37.256707	0.000365	3.650816	1.236930	-0.000146
 709	7.0446e+01	11.7911	37.175964	0.000203	2.028231	0.687183	-0.000081
 710	7.0546e+01	11.7462	37.006405	0.000426	4.259286	1.443085	-0.000170
 711	7.0645e+01	11.7109	36.933736	0.000183	1.825408	0.618465	-0.000073
 712	7.0745e+01	11.6740	36.820696	0.000284	2.839524	0.962057	-0.000114
 713	7.0844e+01	11.6275	36.643063	0.000446	4.462109	1.511803	-0.000179
 714	7.0944e+01	11.6002	36.489651	0.000385	3.853640	1.305648	-0.000154
 715	7.1043e+01	11.5569	36.384686	0.000264	2.636701	0.893338	-0.000105
 716	7.1142e+01	11.5104	36.223200	0.000406	4.056463	1.374367	-0.000162
 717	7.1242e+01	11.4751	36.122272	0.000254	2.535289	0.858979	-0.000101
 718	7.1341e+01	11.4334	36.001158	0.000304	3.042347	1.030775	-0.000122
 719	7.1441e+01	11.3884	35.936564	0.000162	1.622585	0.549747	-0.000065
 720	7.1540e+01	11.3532	35.795264	0.000355	3.549405	1.202571	-0.000142
 721	7.1640e+01	11.3098	35.694336	0.000254	2.535289	0.858979	-0.000101
 722	7.1740e+01	11.2697	35.561110	0.000335	3.346582	1.133853	-0.000134
 723	7.1839e+01	11.2344	35.448070	0.000284	2.839524	0.962057	-0.000114
 724	7.1939e+01	11.2040	35.298696	0.000375	3.752228	1.271289	-0.000150
 725	7.2038e+01	11.1510	35.177582	0.000304	3.042347	1.030775	-0.000122
 726	7.2138e+01	11.1189	35.064542	0.000284	2.839524	0.962057	-0.000114
 727	7.2237e+01	11.0692	34.943428	0.000304	3.042347	1.030775	-0.000122
 728	7.2337e+01	11.0291	34.785980	0.000396	3.955051	1.340008	-0.000158
 729	7.2436e+01	10.9922	34.676977	0.000274	2.738112	0.927698	-0.000110
 730	7.2535e+01	10.9537	34.563938	0.000284	2.839524	0.962057	-0.000114
 731	7.2635e+01	10.9152	34.386304	0.000446	4.462109	1.511803	-0.000179
 732	7.2734e+01	10.8815	34.277301	0.000274	2.738112	0.927698	-0.000110
 733	7.2834e+01	10.8334	34.095630	0.000456	4.563521	1.546163	-0.000183
 734	7.2933e+01	10.7933	33.986627	0.000274	2.738112	0.927698	-0.000110
 735	7.3033e+01	10.7564	33.853402	0.000335	3.346582	1.133853	-0.000134
 736	7.3132e+01	10.7179	33.736325	0.000294	2.940935	0.996416	-0.000118
 737	7.3232e+01	10.6714	33.643471	0.000233	2.332466	0.790261	-0.000093
 738	7.3332e+01	10.6361	33.534468	0.000274	2.738112	0.927698	-0.000110
 739	7.3431e+01	10.5911	33.425465	0.000274	2.738112	0.927698	-0.000110
 740	7.3531e+01	10.5559	33.268017	0.000396	3.955051	1.340008	-0.000158
 741	7.3630e+01	10.5206	33.154977	0.000284	2.839524	0.962057	-0.000114
 742	7.3730e+01	10.4740	33.021752	0.000335	3.346582	1.133853	-0.000134
 743	7.3829e+01	10.4307	32.908712	0.000284	2.839524	0.962057	-0.000114
 744	7.3928e+01	10.3954	32.755301	0.000385	3.853640	1.305648	-0.000154
 745	7.4028e+01	10.3521	32.666484	0.000223	2.231055	0.755902	-0.000089
 746	7.4127e+01	10.3216	32.513073	0.000385	3.853640	1.305648	-0.000154
 747	7.4227e+01	10.2687	32.416181	0.000243	2.433878	0.824620	-0.000097
 748	7.4326e+01	10.2430	32.291030	0.000314	3.143759	1.065134	-0.000126
 749	7.4426e+01	10.1933	32.137619	0.000385	3.853640	1.305648	-0.000154
 750	7.4525e+01	10.1580	32.028616	0.000274	2.738112	0.927698	-0.000110
 751	7.4625e+01	10.1147	31.859057	0.000426	4.259286	1.443085	-0.000170
 752	7.4725e+01	10.0762	31.717757	0.000355	3.549405	1.202571	-0.000142
 753	7.4824e+01	10.0313	31.580494	0.000345	3.447993	1.168212	-0.000138
 754	7.4924e+01	9.9960	31.443232	0.000345	3.447993	1.168212	-0.000138
 755	7.5023e+01	9.9607	31.378638	0.000162	1.622585	0.549747	-0.000065
 756	7.5123e+01	9.9254	31.225226	0.000385	3.853640	1.305648	-0.000154
 757	7.5222e+01	9.8773	31.079889	0.000365	3.650816	1.236930	-0.000146
 758	7.5322e+01	9.8339	30.995110	0.000213	2.129643	0.721543	-0.000085
 759	7.5421e+01	9.7954	30.861884	0.000335	3.346582	1.133853	-0.000134
 760	7.5520e+01	9.7553	30.801327	0.000152	1.521174	0.515388	-0.000061
 761	7.5620e+01	9.7168	30.627730	0.000436	4.360697	1.477444	-0.000174
 762	7.5719e+01	9.6783	30.454133	0.000436	4.360697	1.477444	-0.000174
 763	7.5819e+01	9.6446	30.385502	0.000172	1.723997	0.584106	-0.000069
 764	7.5918e+01	9.6061	30.232091	0.000385	3.853640	1.305648	-0.000154
 765	7.6018e+01	9.5612	30.098865	0.000335	3.346582	1.133853	-0.000134
 766	7.6118e+01	9.5179	29.993900	0.000264	2.636701	0.893338	-0.000105
 767	7.6217e+01	9.4682	29.868749	0.000314	3.143759	1.065134	-0.000126
 768	7.6317e+01	9.4409	29.739560	0.000325	3.245170	1.099493	-0.000130
 769	7.6416e+01	9.4008	29.578075	0.000406	4.056463	1.374367	-0.000162
 770	7.6516e+01	9.3671	29.416590	0.000406	4.056463	1.374367	-0.000162
 771	7.6615e+01	9.3286	29.271253	0.000365	3.650816	1.236930	-0.000146
 772	7.6715e+01	9.2709	29.178399	0.000233	2.332466	0.790261	-0.000093
 773	7.6814e+01	9.2404	29.024987	0.000385	3.853640	1.305648	-0.000154
 774	7.6913e+01	9.1971	28.940208	0.000213	2.129643	0.721543	-0.000085
 775	7.7013e+01	9.1570	28.811019	0.000325	3.245170	1.099493	-0.000130
 776	7.7112e+01	9.1281	28.714128	0.000243	2.433878	0.824620	-0.000097
 777	7.7212e+01	9.0832	28.601088	0.000284	2.839524	0.962057	-0.000114
 778	7.7311e+01	9.0366	28.427491	0.000436	4.360697	1.477444	-0.000174
 779	7.7411e+01	8.9917	28.358860	0.000172	1.723997	0.584106	-0.000069
 780	7.7510e+01	8.9645	28.233709	0.000314	3.143759	1.065134	-0.000126
 781	7.7610e+01	8.9276	28.100483	0.000335	3.346582	1.133853	-0.000134
 782	7.7710e+01	8.8810	27.959184	0.000355	3.549405	1.202571	-0.000142
 783	7.7809e+01	8.8393	27.805772	0.000385	3.853640	1.305648	-0.000154
 784	7.7909e+01	8.7960	27.672547	0.000335	3.346582	1.133853	-0.000134
 785	7.8008e+01	8.7607	27.583730	0.000223	2.231055	0.755902	-0.000089
 786	7.8108e+01	8.7286	27.410133	0.000436	4.360697	1.477444	-0.000174
 787	7.8207e+01	8.6805	27.272870	0.000345	3.447993	1.168212	-0.000138
 788	7.8306e+01	8.6404	27.151756	0.000304	3.042347	1.030775	-0.000122
 789	7.8406e+01	8.5955	26.941825	0.000527	5.273402	1.786677	-0.000211
 790	7.8505e+01	8.5650	26.828786	0.000284	2.839524	0.962057	-0.000114
 791	7.8605e+01	8.5265	26.739969	0.000223	2.231055	0.755902	-0.000089
 792	7.8704e+01	8.4752	26.610780	0.000325	3.245170	1.099493	-0.000130
 793	7.8804e+01	8.4463	26.493703	0.000294	2.940935	0.996416	-0.000118
 794	7.8903e+01	8.4078	26.344329	0.000375	3.752228	1.271289	-0.000150
 795	7.9003e+01	8.3677	26.247438	0.000243	2.433878	0.824620	-0.000097
 796	7.9103e+01	8.3292	26.102101	0.000365	3.650816	1.236930	-0.000146
 797	7.9202e+01	8.2810	25.972913	0.000325	3.245170	1.099493	-0.000130
 798	7.9302e+01	8.2361	25.819502	0.000385	3.853640	1.305648	-0.000154
 799	7.9401e+01	8.1976	25.710499	0.000274	2.738112	0.927698	-0.000110
 800	7.9501e+01	8.1623	25.605533	0.000264	2.636701	0.893338	-0.000105
 801	7.9600e+01	8.1254	25.440011	0.000416	4.157874	1.408726	-0.000166
 802	7.9700e+01	8.0869	25.290637	0.000375	3.752228	1.271289	-0.000150
 803	7.9799e+01	8.0516	25.181634	0.000274	2.738112	0.927698	-0.000110
 804	7.9898e+01	8.0099	25.048409	0.000335	3.346582	1.133853	-0.000134
 805	7.9998e+01	7.9762	24.899035	0.000375	3.752228	1.271289	-0.000150
 806	8.0097e+01	7.9329	24.769846	0.000325	3.245170	1.099493	-0.000130
 807	8.0197e+01	7.8880	24.624509	0.000365	3.650816	1.236930	-0.000146
 808	8.0296e+01	7.8479	24.467061	0.000396	3.955051	1.340008	-0.000158
 809	8.0396e+01	7.8078	24.313650	0.000385	3.853640	1.305648	-0.000154
 810	8.0496e+01	7.7597	24.245019	0.000172	1.723997	0.584106	-0.000069
 811	8.0595e+01	7.7308	24.140053	0.000264	2.636701	0.893338	-0.000105
 812	8.0695e+01	7.6811	24.022976	0.000294	2.940935	0.996416	-0.000118
 813	8.0794e+01	7.6522	23.853417	0.000426	4.259286	1.443085	-0.000170
 814	8.0894e+01	7.6041	23.720191	0.000335	3.346582	1.133853	-0.000134
 815	8.0993e+01	7.5575	23.599077	0.000304	3.042347	1.030775	-0.000122
 816	8.1093e+01	7.5255	23.486037	0.000284	2.839524	0.962057	-0.000114
 817	8.1192e+01	7.4837	23.352812	0.000335	3.346582	1.133853	-0.000134
 818	8.1291e+01	7.4501	23.231698	0.000304	3.042347	1.030775	-0.000122
 819	8.1391e+01	7.4051	23.102509	0.000325	3.245170	1.099493	-0.000130
 820	8.1490e+01	7.3618	22.928912	0.000436	4.360697	1.477444	-0.000174
 821	8.1590e+01	7.3362	22.815873	0.000284	2.839524	0.962057	-0.000114
 822	8.1689e+01	7.2912	22.706870	0.000274	2.738112	0.927698	-0.000110
 823	8.1789e+01	7.2399	22.557496	0.000375	3.752228	1.271289	-0.000150
 824	8.1888e+01	7.2126	22.412159	0.000365	3.650816	1.236930	-0.000146
 825	8.1988e+01	7.1693	22.270859	0.000355	3.549405	1.202571	-0.000142
 826	8.2088e+01	7.1420	22.133597	0.000345	3.447993	1.168212	-0.000138
 827	8.2187e+01	7.0923	21.960000	0.000436	4.360697	1.477444	-0.000174
 828	8.2287e+01	7.0506	21.871183	0.000223	2.231055	0.755902	-0.000089
 829	8.2386e+01	7.0073	21.770254	0.000254	2.535289	0.858979	-0.000101
 830	8.2486e+01	6.9640	21.657215	0.000284	2.839524	0.962057	-0.000114
 831	8.2585e+01	6.9223	21.495729	0.000406	4.056463	1.374367	-0.000162
 832	8.2684e+01	6.8822	21.394801	0.000254	2.535289	0.858979	-0.000101
 833	8.2784e+01	6.8437	21.221204	0.000436	4.360697	1.477444	-0.000174
 834	8.2883e+01	6.8084	21.104127	0.000294	2.940935	0.996416	-0.000118
 835	8.2983e+01	6.7699	20.974939	0.000325	3.245170	1.099493	-0.000130
 836	8.3082e+01	6.7249	20.841713	0.000335	3.346582	1.133853	-0.000134
 837	8.3182e+01	6.6784	20.728673	0.000284	2.839524	0.962057	-0.000114
 838	8.3281e+01	6.6528	20.579299	0.000375	3.752228	1.271289	-0.000150
 839	8.3381e+01	6.6126	20.458185	0.000304	3.042347	1.030775	-0.000122
 840	8.3481e+01	6.5758	20.369368	0.000223	2.231055	0.755902	-0.000089
 841	8.3580e+01	6.5196	20.179623	0.000477	4.766344	1.614881	-0.000191
 842	8.3680e+01	6.4971	20.058509	0.000304	3.042347	1.030775	-0.000122
 843	8.3779e+01	6.4602	19.937395	0.000304	3.042347	1.030775	-0.000122
 844	8.3879e+01	6.4233	19.788021	0.000375	3.752228	1.271289	-0.000150
 845	8.3978e+01	6.3688	19.610387	0.000446	4.462109	1.511803	-0.000179
 846	8.4078e+01	6.3415	19.497347	0.000284	2.839524	0.962057	-0.000114
 847	8.4177e+01	6.2934	19.392382	0.000264	2.636701	0.893338	-0.000105
 848	8.4276e+01	6.2597	19.243007	0.000375	3.752228	1.271289	-0.000150
 849	8.4376e+01	6.2228	19.162265	0.000203	2.028231	0.687183	-0.000081
 850	8.4475e+01	6.1731	18.992705	0.000426	4.259286	1.443085	-0.000170
 851	8.4575e+01	6.1362	18.903888	0.000223	2.231055	0.755902	-0.000089
 852	8.4674e+01	6.0961	18.778737	0.000314	3.143759	1.065134	-0.000126
 853	8.4774e+01	6.0624	18.637437	0.000355	3.549405	1.202571	-0.000142
 854	8.4874e+01	6.0159	18.471915	0.000416	4.157874	1.408726	-0.000166
 855	8.4973e+01	5.9838	18.342726	0.000325	3.245170	1.099493	-0.000130
 856	8.5073e+01	5.9357	18.205464	0.000345	3.447993	1.168212	-0.000138
 857	8.5172e+01	5.8940	18.076275	0.000325	3.245170	1.099493	-0.000130
 858	8.5272e+01	5.8474	17.922864	0.000385	3.853640	1.305648	-0.000154
 859	8.5371e+01	5.8169	17.813861	0.000274	2.738112	0.927698	-0.000110
 860	8.5471e+01	5.7688	17.668525	0.000365	3.650816	1.236930	-0.000146
 861	8.5570e+01	5.7415	17.531262	0.000345	3.447993	1.168212	-0.000138
 862	8.5669e+01	5.6998	17.373814	0.000396	3.955051	1.340008	-0.000158
 863	8.5769e+01	5.6597	17.240588	0.000335	3.346582	1.133853	-0.000134
 864	8.5868e+01	5.6068	17.111400	0.000325	3.245170	1.099493	-0.000130
 865	8.5968e+01	5.5715	17.006434	0.000264	2.636701	0.893338	-0.000105
 866	8.6067e+01	5.5378	16.881283	0.000314	3.143759	1.065134	-0.000126
 867	8.6167e+01	5.5009	16.707686	0.000436	4.360697	1.477444	-0.000174
 868	8.6266e+01	5.4544	16.610795	0.000243	2.433878	0.824620	-0.000097
 869	8.6366e+01	5.4287	16.469495	0.000355	3.549405	1.202571	-0.000142
 870	8.6466e+01	5.3758	16.392790	0.000193	1.926820	0.652824	-0.000077
 871	8.6565e+01	5.3357	16.243416	0.000375	3.752228	1.271289	-0.000150
 872	8.6665e+01	5.3020	16.098079	0.000365	3.650816	1.236930	-0.000146
 873	8.6764e+01	5.2587	15.952742	0.000365	3.650816	1.236930	-0.000146
 874	8.6864e+01	5.2105	15.799331	0.000385	3.853640	1.305648	-0.000154
 875	8.6963e+01	5.1865	15.645920	0.000385	3.853640	1.305648	-0.000154
 876	8.7063e+01	5.1303	15.585363	0.000152	1.521174	0.515388	-0.000061
 877	8.7162e+01	5.0934	15.419840	0.000416	4.157874	1.408726	-0.000166
 878	8.7261e+01	5.0549	15.294689	0.000314	3.143759	1.065134	-0.000126
 879	8.7361e+01	5.0229	15.129166	0.000416	4.157874	1.408726	-0.000166
 880	8.7460e+01	4.9779	15.004015	0.000314	3.143759	1.065134	-0.000126
 881	8.7560e+01	4.9426	14.858678	0.000365	3.650816	1.236930	-0.000146
 882	8.7659e+01	4.9009	14.733527	0.000314	3.143759	1.065134	-0.000126
 883	8.7759e+01	4.8705	14.608376	0.000314	3.143759	1.065134	-0.000126
 884	8.7859e+01	4.8255	14.491299	0.000294	2.940935	0.996416	-0.000118
 885	8.7958e+01	4.7726	14.390370	0.000254	2.535289	0.858979	-0.000101
 886	8.8058e+01	4.7405	14.257145	0.000335	3.346582	1.133853	-0.000134
 887	8.8157e+01	4.6924	14.115845	0.000355	3.549405	1.202571	-0.000142
 888	8.8257e+01	4.6619	13.970508	0.000365	3.650816	1.236930	-0.000146
 889	8.8356e+01	4.6090	13.845357	0.000314	3.143759	1.065134	-0.000126
 890	8.8456e+01	4.5769	13.687909	0.000396	3.955051	1.340008	-0.000158
 891	8.8555e+01	4.5352	13.562758	0.000314	3.143759	1.065134	-0.000126
 892	8.8654e+01	4.5047	13.461829	0.000254	2.535289	0.858979	-0.000101
 893	8.8754e+01	4.4566	13.308418	0.000385	3.853640	1.305648	-0.000154
 894	8.8853e+01	4.4197	13.211527	0.000243	2.433878	0.824620	-0.000097
 895	8.8953e+01	4.3876	13.062153	0.000375	3.752228	1.271289	-0.000150
 896	8.9052e+01	4.3443	12.928927	0.000335	3.346582	1.133853	-0.000134
 897	8.9152e+01	4.2977	12.767442	0.000406	4.056463	1.374367	-0.000162
 898	8.9251e+01	4.2592	12.593845	0.000436	4.360697	1.477444	-0.000174
 899	8.9351e+01	4.2159	12.436397	0.000396	3.955051	1.340008	-0.000158
 900	8.9451e+01	4.1822	12.375840	0.000152	1.521174	0.515388	-0.000061
 901	8.9550e+01	4.1437	12.242614	0.000335	3.346582	1.133853	-0.000134
 902	8.9650e+01	4.0940	12.145723	0.000243	2.433878	0.824620	-0.000097
 903	8.9749e+01	4.0635	11.980200	0.000416	4.157874	1.408726	-0.000166
 904	8.9849e+01	4.0234	11.818715	0.000406	4.056463	1.374367	-0.000162
 905	8.9948e+01	3.9737	11.717786	0.000254	2.535289	0.858979	-0.000101
 906	9.0047e+01	3.9432	11.584561	0.000335	3.346582	1.133853	-0.000134
 907	9.0147e+01	3.8967	11.435187	0.000375	3.752228	1.271289	-0.000150
 908	9.0246e+01	3.8566	11.318110	0.000294	2.940935	0.996416	-0.000118
 909	9.0346e+01	3.8245	11.184885	0.000335	3.346582	1.133853	-0.000134
 910	9.0445e+01	3.7732	11.075882	0.000274	2.738112	0.927698	-0.000110
 911	9.0545e+01	3.7363	10.906322	0.000426	4.259286	1.443085	-0.000170
 912	9.0644e+01	3.7122	10.797320	0.000274	2.738112	0.927698	-0.000110
 913	9.0744e+01	3.6641	10.639871	0.000396	3.955051	1.340008	-0.000158
 914	9.0844e+01	3.6288	10.494534	0.000365	3.650816	1.236930	-0.000146
 915	9.0943e+01	3.5678	10.385532	0.000274	2.738112	0.927698	-0.000110
 916	9.1043e+01	3.5438	10.228083	0.000396	3.955051	1.340008	-0.000158
 917	9.1142e+01	3.5052	10.066598	0.000406	4.056463	1.374367	-0.000162
 918	9.1242e+01	3.4667	9.953558	0.000284	2.839524	0.962057	-0.000114
 919	9.1341e+01	3.4202	9.844555	0.000274	2.738112	0.927698	-0.000110
 920	9.1441e+01	3.3785	9.723441	0.000304	3.042347	1.030775	-0.000122
 921	9.1540e+01	3.3432	9.594253	0.000325	3.245170	1.099493	-0.000130
 922	9.1639e+01	3.2983	9.452953	0.000355	3.549405	1.202571	-0.000142
 923	9.1739e+01	3.2662	9.315691	0.000345	3.447993	1.168212	-0.000138
 924	9.1838e+01	3.2277	9.174391	0.000355	3.549405	1.202571	-0.000142
 925	9.1938e+01	3.1812	9.065388	0.000274	2.738112	0.927698	-0.000110
 926	9.2037e+01	3.1411	8.932163	0.000335	3.346582	1.133853	-0.000134
 927	9.2137e+01	3.1074	8.774715	0.000396	3.955051	1.340008	-0.000158
 928	9.2237e+01	3.0657	8.653600	0.000304	3.042347	1.030775	-0.000122
 929	9.2336e+01	3.0192	8.484041	0.000426	4.259286	1.443085	-0.000170
 930	9.2436e+01	2.9823	8.383112	0.000254	2.535289	0.858979	-0.000101
 931	9.2535e+01	2.9374	8.241813	0.000355	3.549405	1.202571	-0.000142
 932	9.2635e+01	2.9069	8.100513	0.000355	3.549405	1.202571	-0.000142
 933	9.2734e+01	2.8652	7.959213	0.000355	3.549405	1.202571	-0.000142
 934	9.2834e+01	2.8267	7.821950	0.000345	3.447993	1.168212	-0.000138
 935	9.2933e+01	2.7962	7.656428	0.000416	4.157874	1.408726	-0.000166
 936	9.3032e+01	2.7448	7.494942	0.000406	4.056463	1.374367	-0.000162
 937	9.3132e+01	2.7015	7.377866	0.000294	2.940935	0.996416	-0.000118
 938	9.3231e+01	2.6759	7.280974	0.000243	2.433878	0.824620	-0.000097
 939	9.3331e+01	2.6245	7.176009	0.000264	2.636701	0.893338	-0.000105
 940	9.3430e+01	2.5828	7.050858	0.000314	3.143759	1.065134	-0.000126
 941	9.3530e+01	2.5475	6.929743	0.000304	3.042347	1.030775	-0.000122
 942	9.3629e+01	2.5074	6.760184	0.000426	4.259286	1.443085	-0.000170
 943	9.3729e+01	2.4593	6.663293	0.000243	2.433878	0.824620	-0.000097
 944	9.3829e+01	2.4272	6.521993	0.000355	3.549405	1.202571	-0.000142
 945	9.3928e+01	2.3871	6.421064	0.000254	2.535289	0.858979	-0.000101
 946	9.4028e+01	2.3486	6.255542	0.000416	4.157874	1.408726	-0.000166
 947	9.4127e+01	2.3053	6.077908	0.000446	4.462109	1.511803	-0.000179
 948	9.4227e+01	2.2604	5.997165	0.000203	2.028231	0.687183	-0.000081
 949	9.4326e+01	2.2267	5.843754	0.000385	3.853640	1.305648	-0.000154
 950	9.4425e+01	2.1898	5.702454	0.000355	3.549405	1.202571	-0.000142
 951	9.4525e+01	2.1465	5.589414	0.000284	2.839524	0.962057	-0.000114
 952	9.4624e+01	2.1192	5.367372	0.000558	5.577636	1.889754	-0.000223
 953	9.4724e+01	2.0759	5.278555	0.000223	2.231055	0.755902	-0.000089
 954	9.4823e+01	2.0374	5.113032	0.000416	4.157874	1.408726	-0.000166
 955	9.4923e+01	1.9828	4.999993	0.000284	2.839524	0.962057	-0.000114
 956	9.5022e+01	1.9443	4.838507	0.000406	4.056463	1.374367	-0.000162
 957	9.5122e+01	1.9171	4.749690	0.000223	2.231055	0.755902	-0.000089
 958	9.5222e+01	1.8705	4.608390	0.000355	3.549405	1.202571	-0.000142
 959	9.5321e+01	1.8320	4.487276	0.000304	3.042347	1.030775	-0.000122
 960	9.5421e+01	1.7935	4.378274	0.000274	2.738112	0.927698	-0.000110
 961	9.5520e+01	1.7518	4.200640	0.000446	4.462109	1.511803	-0.000179
 962	9.5620e+01	1.7053	4.091637	0.000274	2.738112	0.927698	-0.000110
 963	9.5719e+01	1.6684	3.930152	0.000406	4.056463	1.374367	-0.000162
 964	9.5819e+01	1.6331	3.792889	0.000345	3.447993	1.168212	-0.000138
 965	9.5918e+01	1.5850	3.635441	0.000396	3.955051	1.340008	-0.000158
 966	9.6017e+01	1.5529	3.546624	0.000223	2.231055	0.755902	-0.000089
 967	9.6117e+01	1.5128	3.381101	0.000416	4.157874	1.408726	-0.000166
 968	9.6216e+01	1.4695	3.227690	0.000385	3.853640	1.305648	-0.000154
 969	9.6316e+01	1.4358	3.118687	0.000274	2.738112	0.927698	-0.000110
 970	9.6415e+01	1.3973	2.949128	0.000426	4.259286	1.443085	-0.000170
 971	9.6515e+01	1.3572	2.807828	0.000355	3.549405	1.202571	-0.000142
 972	9.6615e+01	1.3107	2.634231	0.000436	4.360697	1.477444	-0.000174
 973	9.6714e+01	1.2738	2.533303	0.000254	2.535289	0.858979	-0.000101
 974	9.6814e+01	1.2417	2.359706	0.000436	4.360697	1.477444	-0.000174
 975	9.6913e+01	1.1984	2.242629	0.000294	2.940935	0.996416	-0.000118
 976	9.7013e+01	1.1486	2.129589	0.000284	2.839524	0.962057	-0.000114
 977	9.7112e+01	1.1149	2.040772	0.000223	2.231055	0.755902	-0.000089
 978	9.7212e+01	1.0620	1.915621	0.000314	3.143759	1.065134	-0.000126
 979	9.7311e+01	1.0363	1.770284	0.000365	3.650816	1.236930	-0.000146
 980	9.7410e+01	0.9946	1.633021	0.000345	3.447993	1.168212	-0.000138
 981	9.7510e+01	0.9513	1.507870	0.000314	3.143759	1.065134	-0.000126
 982	9.7609e+01	0.9192	1.390793	0.000294	2.940935	0.996416	-0.000118
 983	9.7709e+01	0.8727	1.205085	0.000466	4.664932	1.580522	-0.000187
 984	9.7808e+01	0.8310	1.092045	0.000284	2.839524	0.962057	-0.000114
 985	9.7908e+01	0.7845	1.003228	0.000223	2.231055	0.755902	-0.000089
 986	9.8007e+01	0.7620	0.825594	0.000446	4.462109	1.511803	-0.000179
 987	9.8107e+01	0.7155	0.692369	0.000335	3.346582	1.133853	-0.000134
 988	9.8207e+01	0.6818	0.583366	0.000274	2.738112	0.927698	-0.000110
 989	9.8306e+01	0.6433	0.393621	0.000477	4.766344	1.614881	-0.000191
 990	9.8406e+01	0.5888	0.215987	0.000446	4.462109	1.511803	-0.000179
 991	9.8505e+01	0.5535	0.119096	0.000243	2.433878	0.824620	-0.000097
 992	9.8605e+01	0.4973	-0.066613	0.000466	4.664932	1.580522	-0.000187
 993	9.8704e+01	0.4716	-0.199838	0.000335	3.346582	1.133853	-0.000134
 994	9.8803e+01	0.4364	-0.268470	0.000172	1.723997	0.584106	-0.000069
 995	9.8903e+01	0.3995	-0.409769	0.000355	3.549405	1.202571	-0.000142
 996	9.9002e+01	0.3577	-0.510698	0.000254	2.535289	0.858979	-0.000101
 997	9.9102e+01	0.3112	-0.619700	0.000274	2.738112	0.927698	-0.000110
 998	9.9201e+01	0.2856	-0.805409	0.000466	4.664932	1.580522	-0.000187
 999	9.9301e+01	0.2390	-0.930560	0.000314	3.143759	1.065134	-0.000126
1000	9.9400e+01	0.1813	-1.043600	0.000284	2.839524	0.962057	-0.000114
1001	9.9500e+01	0.1604	-1.188936	0.000365	3.650816	1.236930	-0.000146
1002	9.9600e+01	0.1219	-1.326199	0.000345	3.447993	1.168212	-0.000138
1003	9.9699e+01	0.0818	-1.463462	0.000345	3.447993	1.168212	-0.000138
1004	9.9799e+01	0.0449	-1.568427	0.000264	2.636701	0.893338	-0.000105
1005	9.9898e+01	0.0032	-1.721838	0.000385	3.853640	1.305648	-0.000154
1006	9.9998e+01	-0.0417	-1.834878	0.000284	2.839524	0.962057	-0.000114
1007	1.0010e+02	-0.0674	-1.984252	0.000375	3.752228	1.271289	-0.000150
1008	1.0020e+02	-0.1235	-2.165923	0.000456	4.563521	1.546163	-0.000183
1009	1.0030e+02	-0.1540	-2.283000	0.000294	2.940935	0.996416	-0.000118
1010	1.0040e+02	-0.1925	-2.444486	0.000406	4.056463	1.374367	-0.000162
1011	1.0050e+02	-0.2326	-2.553488	0.000274	2.738112	0.927698	-0.000110
1012	1.0059e+02	-0.2727	-2.674602	0.000304	3.042347	1.030775	-0.000122
1013	1.0069e+02	-0.3144	-2.819939	0.000365	3.650816	1.236930	-0.000146
1014	1.0079e+02	-0.3497	-2.888571	0.000172	1.723997	0.584106	-0.000069
1015	1.0089e+02	-0.3850	-3.017759	0.000325	3.245170	1.099493	-0.000130
1016	1.0099e+02	-0.4283	-3.114650	0.000243	2.433878	0.824620	-0.000097
1017	1.0109e+02	-0.4700	-3.280173	0.000416	4.157874	1.408726	-0.000166
1018	1.0119e+02	-0.5214	-3.421473	0.000355	3.549405	1.202571	-0.000142
1019	1.0129e+02	-0.5551	-3.558735	0.000345	3.447993	1.168212	-0.000138
1020	1.0139e+02	-0.6000	-3.704072	0.000365	3.650816	1.236930	-0.000146
1021	1.0149e+02	-0.6257	-3.841335	0.000345	3.447993	1.168212	-0.000138
1022	1.0159e+02	-0.6690	-3.958412	0.000294	2.940935	0.996416	-0.000118
1023	1.0169e+02	-0.7091	-4.091637	0.000335	3.346582	1.133853	-0.000134
1024	1.0179e+02	-0.7524	-4.241011	0.000375	3.752228	1.271289	-0.000150
1025	1.0189e+02	-0.7909	-4.366162	0.000314	3.143759	1.065134	-0.000126
1026	1.0199e+02	-0.8374	-4.519573	0.000385	3.853640	1.305648	-0.000154
1027	1.0209e+02	-0.8679	-4.685096	0.000416	4.157874	1.408726	-0.000166
1028	1.0219e+02	-0.9064	-4.826396	0.000355	3.549405	1.202571	-0.000142
1029	1.0229e+02	-0.9481	-4.963658	0.000345	3.447993	1.168212	-0.000138
1030	1.0239e+02	-1.0010	-5.092847	0.000325	3.245170	1.099493	-0.000130
1031	1.0248e+02	-1.0267	-5.242221	0.000375	3.752228	1.271289	-0.000150
1032	1.0258e+02	-1.0684	-5.351223	0.000274	2.738112	0.927698	-0.000110
1033	1.0268e+02	-1.1149	-5.468300	0.000294	2.940935	0.996416	-0.000118
1034	1.0278e+02	-1.1518	-5.621712	0.000385	3.853640	1.305648	-0.000154
1035	1.0288e+02	-1.1807	-5.738788	0.000294	2.940935	0.996416	-0.000118
1036	1.0298e+02	-1.2337	-5.867977	0.000325	3.245170	1.099493	-0.000130
1037	1.0308e+02	-1.2657	-5.952757	0.000213	2.129643	0.721543	-0.000085
1038	1.0318e+02	-1.3203	-6.138465	0.000466	4.664932	1.580522	-0.000187
1039	1.0328e+02	-1.3476	-6.259579	0.000304	3.042347	1.030775	-0.000122
1040	1.0338e+02	-1.3941	-6.372619	0.000284	2.839524	0.962057	-0.000114
1041	1.0348e+02	-1.4326	-6.501807	0.000325	3.245170	1.099493	-0.000130
1042	1.0358e+02	-1.4727	-6.630995	0.000325	3.245170	1.099493	-0.000130
1043	1.0368e+02	-1.5064	-6.739998	0.000274	2.738112	0.927698	-0.000110
1044	1.0378e+02	-1.5513	-6.889372	0.000375	3.752228	1.271289	-0.000150
1045	1.0388e+02	-1.5850	-7.050858	0.000406	4.056463	1.374367	-0.000162
1046	1.0398e+02	-1.6235	-7.224454	0.000436	4.360697	1.477444	-0.000174
1047	1.0408e+02	-1.6668	-7.349606	0.000314	3.143759	1.065134	-0.000126
1048	1.0418e+02	-1.7069	-7.454571	0.000264	2.636701	0.893338	-0.000105
1049	1.0428e+02	-1.7550	-7.575685	0.000304	3.042347	1.030775	-0.000122
1050	1.0438e+02	-1.7887	-7.676614	0.000254	2.535289	0.858979	-0.000101
1051	1.0447e+02	-1.8192	-7.809839	0.000335	3.346582	1.133853	-0.000134
1052	1.0457e+02	-1.8609	-7.967287	0.000396	3.955051	1.340008	-0.000158
1053	1.0467e+02	-1.9058	-8.039956	0.000183	1.825408	0.618465	-0.000073
1054	1.0477e+02	-1.9459	-8.193367	0.000385	3.853640	1.305648	-0.000154
1055	1.0487e+02	-1.9876	-8.306407	0.000284	2.839524	0.962057	-0.000114
1056	1.0497e+02	-2.0278	-8.459818	0.000385	3.853640	1.305648	-0.000154
1057	1.0507e+02	-2.0679	-8.560746	0.000254	2.535289	0.858979	-0.000101
1058	1.0517e+02	-2.1031	-8.669749	0.000274	2.738112	0.927698	-0.000110
1059	1.0527e+02	-2.1497	-8.835272	0.000416	4.157874	1.408726	-0.000166
1060	1.0537e+02	-2.1882	-8.976571	0.000355	3.549405	1.202571	-0.000142
1061	1.0547e+02	-2.2203	-9.073463	0.000243	2.433878	0.824620	-0.000097
1062	1.0557e+02	-2.2764	-9.267245	0.000487	4.867755	1.649240	-0.000195
1063	1.0567e+02	-2.3037	-9.400471	0.000335	3.346582	1.133853	-0.000134
1064	1.0577e+02	-2.3470	-9.525622	0.000314	3.143759	1.065134	-0.000126
1065	1.0587e+02	-2.3855	-9.699219	0.000436	4.360697	1.477444	-0.000174
1066	1.0597e+02	-2.4320	-9.808221	0.000274	2.738112	0.927698	-0.000110
1067	1.0607e+02	-2.4577	-9.925298	0.000294	2.940935	0.996416	-0.000118
1068	1.0617e+02	-2.5042	-10.078709	0.000385	3.853640	1.305648	-0.000154
1069	1.0627e+02	-2.5411	-10.143304	0.000162	1.622585	0.549747	-0.000065
1070	1.0637e+02	-2.5844	-10.296715	0.000385	3.853640	1.305648	-0.000154
1071	1.0647e+02	-2.6149	-10.429940	0.000335	3.346582	1.133853	-0.000134
1072	1.0656e+02	-2.6598	-10.522794	0.000233	2.332466	0.790261	-0.000093
1073	1.0666e+02	-2.7015	-10.660057	0.000345	3.447993	1.168212	-0.000138
1074	1.0676e+02	-2.7416	-10.797320	0.000345	3.447993	1.168212	-0.000138
1075	1.0686e+02	-2.7962	-10.950731	0.000385	3.853640	1.305648	-0.000154
1076	1.0696e+02	-2.8218	-11.075882	0.000314	3.143759	1.065134	-0.000126
1077	1.0706e+02	-2.8700	-11.188922	0.000284	2.839524	0.962057	-0.000114
1078	1.0716e+02	-2.8988	-11.305999	0.000294	2.940935	0.996416	-0.000118
1079	1.0726e+02	-2.9518	-11.471521	0.000416	4.157874	1.408726	-0.000166
1080	1.0736e+02	-2.9839	-11.564375	0.000233	2.332466	0.790261	-0.000093
1081	1.0746e+02	-3.0336	-11.733935	0.000426	4.259286	1.443085	-0.000170
1082	1.0756e+02	-3.0625	-11.842938	0.000274	2.738112	0.927698	-0.000110
1083	1.0766e+02	-3.1074	-12.024609	0.000456	4.563521	1.546163	-0.000183
1084	1.0776e+02	-3.1427	-12.157834	0.000335	3.346582	1.133853	-0.000134
1085	1.0786e+02	-3.1828	-12.307208	0.000375	3.752228	1.271289	-0.000150
1086	1.0796e+02	-3.2245	-12.404100	0.000243	2.433878	0.824620	-0.000097
1087	1.0806e+02	-3.2662	-12.513102	0.000274	2.738112	0.927698	-0.000110
1088	1.0816e+02	-3.2967	-12.609993	0.000243	2.433878	0.824620	-0.000097
1089	1.0826e+02	-3.3400	-12.735145	0.000314	3.143759	1.065134	-0.000126
1090	1.0836e+02	-3.3785	-12.892593	0.000396	3.955051	1.340008	-0.000158
1091	1.0845e+02	-3.4218	-12.989484	0.000243	2.433878	0.824620	-0.000097
1092	1.0855e+02	-3.4635	-13.118673	0.000325	3.245170	1.099493	-0.000130
1093	1.0865e+02	-3.5101	-13.247861	0.000325	3.245170	1.099493	-0.000130
1094	1.0875e+02	-3.5357	-13.385124	0.000345	3.447993	1.168212	-0.000138
1095	1.0885e+02	-3.5806	-13.550646	0.000416	4.157874	1.408726	-0.000166
1096	1.0895e+02	-3.6288	-13.643500	0.000233	2.332466	0.790261	-0.000093
1097	1.0905e+02	-3.6625	-13.784800	0.000355	3.549405	1.202571	-0.000142
1098	1.0915e+02	-3.7026	-13.926100	0.000355	3.549405	1.202571	-0.000142
1099	1.0925e+02	-3.7395	-14.051251	0.000314	3.143759	1.065134	-0.000126
1100	1.0935e+02	-3.7828	-14.196588	0.000365	3.650816	1.236930	-0.000146
1101	1.0945e+02	-3.8181	-14.345962	0.000375	3.752228	1.271289	-0.000150
1102	1.0955e+02	-3.8534	-14.471113	0.000314	3.143759	1.065134	-0.000126
1103	1.0965e+02	-3.8983	-14.652784	0.000456	4.563521	1.546163	-0.000183
1104	1.0975e+02	-3.9336	-14.733527	0.000203	2.028231	0.687183	-0.000081
1105	1.0985e+02	-3.9785	-14.854641	0.000304	3.042347	1.030775	-0.000122
1106	1.0995e+02	-4.0154	-14.959606	0.000264	2.636701	0.893338	-0.000105
1107	1.1005e+02	-4.0651	-15.040349	0.000203	2.028231	0.687183	-0.000081
1108	1.1015e+02	-4.0972	-15.209909	0.000426	4.259286	1.443085	-0.000170
1109	1.1025e+02	-4.1421	-15.302763	0.000233	2.332466	0.790261	-0.000093
1110	1.1035e+02	-4.1678	-15.435988	0.000335	3.346582	1.133853	-0.000134
1111	1.1044e+02	-4.2207	-15.561140	0.000314	3.143759	1.065134	-0.000126
1112	1.1054e+02	-4.2592	-15.694365	0.000335	3.346582	1.133853	-0.000134
1113	1.1064e+02	-4.3009	-15.795294	0.000254	2.535289	0.858979	-0.000101
1114	1.1074e+02	-4.3394	-15.924482	0.000325	3.245170	1.099493	-0.000130
1115	1.1084e+02	-4.3763	-16.077893	0.000385	3.853640	1.305648	-0.000154
1116	1.1094e+02	-4.4181	-16.194970	0.000294	2.940935	0.996416	-0.000118
1117	1.1104e+02	-4.4598	-16.328195	0.000335	3.346582	1.133853	-0.000134
1118	1.1114e+02	-4.4951	-16.481607	0.000385	3.853640	1.305648	-0.000154
1119	1.1124e+02	-4.5352	-16.582535	0.000254	2.535289	0.858979	-0.000101
1120	1.1134e+02	-4.5753	-16.768243	0.000466	4.664932	1.580522	-0.000187
1121	1.1144e+02	-4.6009	-16.889357	0.000304	3.042347	1.030775	-0.000122
1122	1.1154e+02	-4.6523	-17.018546	0.000325	3.245170	1.099493	-0.000130
1123	1.1164e+02	-4.6940	-17.131586	0.000284	2.839524	0.962057	-0.000114
1124	1.1174e+02	-4.7421	-17.276922	0.000365	3.650816	1.236930	-0.000146
1125	1.1184e+02	-4.7822	-17.333442	0.000142	1.419762	0.481028	-0.000057
1126	1.1194e+02	-4.8047	-17.482816	0.000375	3.752228	1.271289	-0.000150
1127	1.1204e+02	-4.8624	-17.571633	0.000223	2.231055	0.755902	-0.000089
1128	1.1214e+02	-4.9025	-17.745230	0.000436	4.360697	1.477444	-0.000174
1129	1.1224e+02	-4.9362	-17.866344	0.000304	3.042347	1.030775	-0.000122
1130	1.1234e+02	-4.9811	-18.019755	0.000385	3.853640	1.305648	-0.000154
1131	1.1244e+02	-5.0229	-18.128758	0.000274	2.738112	0.927698	-0.000110
1132	1.1253e+02	-5.0678	-18.237761	0.000274	2.738112	0.927698	-0.000110
1133	1.1263e+02	-5.0950	-18.362912	0.000314	3.143759	1.065134	-0.000126
1134	1.1273e+02	-5.1416	-18.520360	0.000396	3.955051	1.340008	-0.000158
1135	1.1283e+02	-5.1737	-18.697994	0.000446	4.462109	1.511803	-0.000179
1136	1.1293e+02	-5.2170	-18.802960	0.000264	2.636701	0.893338	-0.000105
1137	1.1303e+02	-5.2507	-18.940222	0.000345	3.447993	1.168212	-0.000138
1138	1.1313e+02	-5.2956	-19.061336	0.000304	3.042347	1.030775	-0.000122
1139	1.1323e+02	-5.3341	-19.198599	0.000345	3.447993	1.168212	-0.000138
1140	1.1333e+02	-5.3726	-19.335862	0.000345	3.447993	1.168212	-0.000138
1141	1.1343e+02	-5.4223	-19.452939	0.000294	2.940935	0.996416	-0.000118
1142	1.1353e+02	-5.4544	-19.570015	0.000294	2.940935	0.996416	-0.000118
1143	1.1363e+02	-5.4929	-19.650758	0.000203	2.028231	0.687183	-0.000081
1144	1.1373e+02	-5.5330	-19.775909	0.000314	3.143759	1.065134	-0.000126
1145	1.1383e+02	-5.5683	-19.945469	0.000426	4.259286	1.443085	-0.000170
1146	1.1393e+02	-5.6084	-20.022175	0.000193	1.926820	0.652824	-0.000077
1147	1.1403e+02	-5.6613	-20.159437	0.000345	3.447993	1.168212	-0.000138
1148	1.1413e+02	-5.6934	-20.256329	0.000243	2.433878	0.824620	-0.000097
1149	1.1423e+02	-5.7399	-20.401665	0.000365	3.650816	1.236930	-0.000146
1150	1.1433e+02	-5.7656	-20.510668	0.000274	2.738112	0.927698	-0.000110
1151	1.1442e+02	-5.8105	-20.664079	0.000385	3.853640	1.305648	-0.000154
1152	1.1452e+02	-5.8506	-20.825565	0.000406	4.056463	1.374367	-0.000162
1153	1.1462e+02	-5.8811	-20.970902	0.000365	3.650816	1.236930	-0.000146
1154	1.1472e+02	-5.9325	-21.100090	0.000325	3.245170	1.099493	-0.000130
1155	1.1482e+02	-5.9694	-21.201018	0.000254	2.535289	0.858979	-0.000101
1156	1.1492e+02	-6.0207	-21.362504	0.000406	4.056463	1.374367	-0.000162
1157	1.1502e+02	-6.0496	-21.479581	0.000294	2.940935	0.996416	-0.000118
1158	1.1512e+02	-6.0961	-21.616843	0.000345	3.447993	1.168212	-0.000138
1159	1.1522e+02	-6.1314	-21.713735	0.000243	2.433878	0.824620	-0.000097
1160	1.1532e+02	-6.1715	-21.859071	0.000365	3.650816	1.236930	-0.000146
1161	1.1542e+02	-6.2196	-21.935777	0.000193	1.926820	0.652824	-0.000077
1162	1.1552e+02	-6.2437	-22.044780	0.000274	2.738112	0.927698	-0.000110
1163	1.1562e+02	-6.2902	-22.141671	0.000243	2.433878	0.824620	-0.000097
1164	1.1572e+02	-6.3239	-22.270859	0.000325	3.245170	1.099493	-0.000130
1165	1.1582e+02	-6.3736	-22.416196	0.000365	3.650816	1.236930	-0.000146
1166	1.1592e+02	-6.4121	-22.553459	0.000345	3.447993	1.168212	-0.000138
1167	1.1602e+02	-6.4458	-22.638239	0.000213	2.129643	0.721543	-0.000085
1168	1.1612e+02	-6.4939	-22.763390	0.000314	3.143759	1.065134	-0.000126
1169	1.1622e+02	-6.5308	-22.844133	0.000203	2.028231	0.687183	-0.000081
1170	1.1632e+02	-6.5613	-23.017729	0.000436	4.360697	1.477444	-0.000174
1171	1.1642e+02	-6.6062	-23.191326	0.000436	4.360697	1.477444	-0.000174
1172	1.1651e+02	-6.6511	-23.328589	0.000345	3.447993	1.168212	-0.000138
1173	1.1661e+02	-6.6945	-23.453740	0.000314	3.143759	1.065134	-0.000126
1174	1.1671e+02	-6.7362	-23.566780	0.000284	2.839524	0.962057	-0.000114
1175	1.1681e+02	-6.7667	-23.667708	0.000254	2.535289	0.858979	-0.000101
1176	1.1691e+02	-6.7987	-23.768637	0.000254	2.535289	0.858979	-0.000101
1177	1.1701e+02	-6.8437	-23.913974	0.000365	3.650816	1.236930	-0.000146
1178	1.1711e+02	-6.8918	-24.051236	0.000345	3.447993	1.168212	-0.000138
1179	1.1721e+02	-6.9287	-24.127942	0.000193	1.926820	0.652824	-0.000077
1180	1.1731e+02	-6.9768	-24.277316	0.000375	3.752228	1.271289	-0.000150
1181	1.1741e+02	-7.0153	-24.402467	0.000314	3.143759	1.065134	-0.000126
1182	1.1751e+02	-7.0378	-24.475135	0.000183	1.825408	0.618465	-0.000073
1183	1.1761e+02	-7.0875	-24.616435	0.000355	3.549405	1.202571	-0.000142
1184	1.1771e+02	-7.1372	-24.693141	0.000193	1.926820	0.652824	-0.000077
1185	1.1781e+02	-7.1757	-24.874812	0.000456	4.563521	1.546163	-0.000183
1186	1.1791e+02	-7.2110	-24.979777	0.000264	2.636701	0.893338	-0.000105
1187	1.1801e+02	-7.2463	-25.096854	0.000294	2.940935	0.996416	-0.000118
1188	1.1811e+02	-7.2816	-25.242191	0.000365	3.650816	1.236930	-0.000146
1189	1.1821e+02	-7.3265	-25.318897	0.000193	1.926820	0.652824	-0.000077
1190	1.1831e+02	-7.3602	-25.520754	0.000507	5.070578	1.717958	-0.000203
1191	1.1841e+02	-7.4100	-25.621682	0.000254	2.535289	0.858979	-0.000101
1192	1.1850e+02	-7.4404	-25.783167	0.000406	4.056463	1.374367	-0.000162
1193	1.1860e+02	-7.4902	-25.924467	0.000355	3.549405	1.202571	-0.000142
1194	1.1870e+02	-7.5255	-26.029433	0.000264	2.636701	0.893338	-0.000105
1195	1.1880e+02	-7.5672	-26.122287	0.000233	2.332466	0.790261	-0.000093
1196	1.1890e+02	-7.6073	-26.259549	0.000345	3.447993	1.168212	-0.000138
1197	1.1900e+02	-7.6426	-26.400849	0.000355	3.549405	1.202571	-0.000142
1198	1.1910e+02	-7.6811	-26.465443	0.000162	1.622585	0.549747	-0.000065
1199	1.1920e+02	-7.7260	-26.582520	0.000294	2.940935	0.996416	-0.000118
1200	1.1930e+02	-7.7597	-26.711709	0.000325	3.245170	1.099493	-0.000130
1201	1.1940e+02	-7.8014	-26.812637	0.000254	2.535289	0.858979	-0.000101
1202	1.1950e+02	-7.8463	-26.925677	0.000284	2.839524	0.962057	-0.000114
1203	1.1960e+02	-7.8864	-27.079088	0.000385	3.853640	1.305648	-0.000154
1204	1.1970e+02	-7.9169	-27.175979	0.000243	2.433878	0.824620	-0.000097
1205	1.1980e+02	-7.9682	-27.268833	0.000233	2.332466	0.790261	-0.000093
1206	1.1990e+02	-7.9987	-27.426282	0.000396	3.955051	1.340008	-0.000158
1207	1.2000e+02	-8.0404	-27.571619	0.000365	3.650816	1.236930	-0.000146
1208	1.2010e+02	-8.0741	-27.704844	0.000335	3.346582	1.133853	-0.000134
1209	1.2020e+02	-8.1238	-27.842107	0.000345	3.447993	1.168212	-0.000138
1210	1.2030e+02	-8.1736	-27.955146	0.000284	2.839524	0.962057	-0.000114
1211	1.2039e+02	-8.1992	-28.056075	0.000254	2.535289	0.858979	-0.000101
1212	1.2049e+02	-8.2377	-28.177189	0.000304	3.042347	1.030775	-0.000122
1213	1.2059e+02	-8.2778	-28.290229	0.000284	2.839524	0.962057	-0.000114
1214	1.2069e+02	-8.3324	-28.439603	0.000375	3.752228	1.271289	-0.000150
1215	1.2079e+02	-8.3645	-28.524383	0.000213	2.129643	0.721543	-0.000085
1216	1.2089e+02	-8.3998	-28.605125	0.000203	2.028231	0.687183	-0.000081
1217	1.2099e+02	-8.4399	-28.762574	0.000396	3.955051	1.340008	-0.000158
1218	1.2109e+02	-8.4832	-28.819093	0.000142	1.419762	0.481028	-0.000057
1219	1.2119e+02	-8.5297	-28.936170	0.000294	2.940935	0.996416	-0.000118
1220	1.2129e+02	-8.5618	-29.085544	0.000375	3.752228	1.271289	-0.000150
1221	1.2139e+02	-8.6035	-29.186473	0.000254	2.535289	0.858979	-0.000101
1222	1.2149e+02	-8.6404	-29.327773	0.000355	3.549405	1.202571	-0.000142
1223	1.2159e+02	-8.6837	-29.440812	0.000284	2.839524	0.962057	-0.000114
1224	1.2169e+02	-8.7254	-29.537704	0.000243	2.433878	0.824620	-0.000097
1225	1.2179e+02	-8.7479	-29.674966	0.000345	3.447993	1.168212	-0.000138
1226	1.2189e+02	-8.7880	-29.796080	0.000304	3.042347	1.030775	-0.000122
1227	1.2199e+02	-8.8457	-29.937380	0.000355	3.549405	1.202571	-0.000142
1228	1.2209e+02	-8.8682	-30.082717	0.000365	3.650816	1.236930	-0.000146
1229	1.2219e+02	-8.9131	-30.167497	0.000213	2.129643	0.721543	-0.000085
1230	1.2229e+02	-8.9596	-30.296685	0.000325	3.245170	1.099493	-0.000130
1231	1.2239e+02	-8.9997	-30.437985	0.000355	3.549405	1.202571	-0.000142
1232	1.2248e+02	-9.0447	-30.518728	0.000203	2.028231	0.687183	-0.000081
1233	1.2258e+02	-9.0767	-30.607545	0.000223	2.231055	0.755902	-0.000089
1234	1.2268e+02	-9.1201	-30.688287	0.000203	2.028231	0.687183	-0.000081
1235	1.2278e+02	-9.1570	-30.865921	0.000446	4.462109	1.511803	-0.000179
1236	1.2288e+02	-9.1939	-30.930515	0.000162	1.622585	0.549747	-0.000065
1237	1.2298e+02	-9.2372	-31.079889	0.000375	3.752228	1.271289	-0.000150
1238	1.2308e+02	-9.2805	-31.168706	0.000223	2.231055	0.755902	-0.000089
1239	1.2318e+02	-9.3094	-31.301932	0.000335	3.346582	1.133853	-0.000134
1240	1.2328e+02	-9.3607	-31.402860	0.000254	2.535289	0.858979	-0.000101
1241	1.2338e+02	-9.3960	-31.528012	0.000314	3.143759	1.065134	-0.000126
1242	1.2348e+02	-9.4345	-31.632977	0.000264	2.636701	0.893338	-0.000105
1243	1.2358e+02	-9.4650	-31.778314	0.000365	3.650816	1.236930	-0.000146
1244	1.2368e+02	-9.5195	-31.911539	0.000335	3.346582	1.133853	-0.000134
1245	1.2378e+02	-9.5484	-32.060913	0.000375	3.752228	1.271289	-0.000150
1246	1.2388e+02	-9.5981	-32.173953	0.000284	2.839524	0.962057	-0.000114
1247	1.2398e+02	-9.6270	-32.274882	0.000254	2.535289	0.858979	-0.000101
1248	1.2408e+02	-9.6783	-32.395996	0.000304	3.042347	1.030775	-0.000122
1249	1.2418e+02	-9.7168	-32.537295	0.000355	3.549405	1.202571	-0.000142
1250	1.2428e+02	-9.7505	-32.589778	0.000132	1.318350	0.446669	-0.000053
1251	1.2438e+02	-9.7970	-32.759338	0.000426	4.259286	1.443085	-0.000170
1252	1.2447e+02	-9.8372	-32.832006	0.000183	1.825408	0.618465	-0.000073
1253	1.2457e+02	-9.8773	-32.953120	0.000304	3.042347	1.030775	-0.000122
1254	1.2467e+02	-9.9222	-33.029826	0.000193	1.926820	0.652824	-0.000077
1255	1.2477e+02	-9.9575	-33.150940	0.000304	3.042347	1.030775	-0.000122
1256	1.2487e+02	-9.9944	-33.235720	0.000213	2.129643	0.721543	-0.000085
1257	1.2497e+02	-10.0409	-33.360871	0.000314	3.143759	1.065134	-0.000126
1258	1.2507e+02	-10.0810	-33.494097	0.000335	3.346582	1.133853	-0.000134
1259	1.2517e+02	-10.1147	-33.655582	0.000406	4.056463	1.374367	-0.000162
1260	1.2527e+02	-10.1564	-33.736325	0.000203	2.028231	0.687183	-0.000081
1261	1.2537e+02	-10.1837	-33.796882	0.000152	1.521174	0.515388	-0.000061
1262	1.2547e+02	-10.2334	-33.982590	0.000466	4.664932	1.580522	-0.000187
1263	1.2557e+02	-10.2783	-34.119853	0.000345	3.447993	1.168212	-0.000138
1264	1.2567e+02	-10.3072	-34.269227	0.000375	3.752228	1.271289	-0.000150
1265	1.2577e+02	-10.3457	-34.370155	0.000254	2.535289	0.858979	-0.000101
1266	1.2587e+02	-10.3938	-34.471083	0.000254	2.535289	0.858979	-0.000101
1267	1.2597e+02	-10.4323	-34.600272	0.000325	3.245170	1.099493	-0.000130
1268	1.2607e+02	-10.4805	-34.705237	0.000264	2.636701	0.893338	-0.000105
1269	1.2617e+02	-10.5222	-34.830389	0.000314	3.143759	1.065134	-0.000126
1270	1.2627e+02	-10.5575	-34.947466	0.000294	2.940935	0.996416	-0.000118
1271	1.2636e+02	-10.5895	-35.076654	0.000325	3.245170	1.099493	-0.000130
1272	1.2646e+02	-10.6329	-35.108951	0.000081	0.811293	0.274873	-0.000032
1273	1.2656e+02	-10.6681	-35.221991	0.000284	2.839524	0.962057	-0.000114
1274	1.2666e+02	-10.7195	-35.314845	0.000233	2.332466	0.790261	-0.000093
1275	1.2676e+02	-10.7484	-35.472293	0.000396	3.955051	1.340008	-0.000158
1276	1.2686e+02	-10.7820	-35.573222	0.000254	2.535289	0.858979	-0.000101
1277	1.2696e+02	-10.8254	-35.653964	0.000203	2.028231	0.687183	-0.000081
1278	1.2706e+02	-10.8687	-35.762967	0.000274	2.738112	0.927698	-0.000110
1279	1.2716e+02	-10.9104	-35.920415	0.000396	3.955051	1.340008	-0.000158
1280	1.2726e+02	-10.9393	-36.041529	0.000304	3.042347	1.030775	-0.000122
1281	1.2736e+02	-10.9874	-36.194940	0.000385	3.853640	1.305648	-0.000154
1282	1.2746e+02	-11.0275	-36.287795	0.000233	2.332466	0.790261	-0.000093
1283	1.2756e+02	-11.0692	-36.416983	0.000325	3.245170	1.099493	-0.000130
1284	1.2766e+02	-11.1109	-36.505800	0.000223	2.231055	0.755902	-0.000089
1285	1.2776e+02	-11.1494	-36.618840	0.000284	2.839524	0.962057	-0.000114
1286	1.2786e+02	-11.1927	-36.780325	0.000406	4.056463	1.374367	-0.000162
1287	1.2796e+02	-11.2377	-36.877216	0.000243	2.433878	0.824620	-0.000097
1288	1.2806e+02	-11.2729	-36.970071	0.000233	2.332466	0.790261	-0.000093
1289	1.2816e+02	-11.3098	-37.050813	0.000203	2.028231	0.687183	-0.000081
1290	1.2826e+02	-11.3532	-37.184039	0.000335	3.346582	1.133853	-0.000134
1291	1.2835e+02	-11.3901	-37.252670	0.000172	1.723997	0.584106	-0.000069
1292	1.2845e+02	-11.4350	-37.389933	0.000345	3.447993	1.168212	-0.000138
1293	1.2855e+02	-11.4606	-37.490861	0.000254	2.535289	0.858979	-0.000101
1294	1.2865e+02	-11.5120	-37.595827	0.000264	2.636701	0.893338	-0.000105
1295	1.2875e+02	-11.5489	-37.737126	0.000355	3.549405	1.202571	-0.000142
1296	1.2885e+02	-11.6002	-37.825943	0.000223	2.231055	0.755902	-0.000089
1297	1.2895e+02	-11.6291	-38.023763	0.000497	4.969167	1.683599	-0.000199
1298	1.2905e+02	-11.6612	-38.108543	0.000213	2.129643	0.721543	-0.000085
1299	1.2915e+02	-11.6965	-38.253880	0.000365	3.650816	1.236930	-0.000146
1300	1.2925e+02	-11.7430	-38.366919	0.000284	2.839524	0.962057	-0.000114
1301	1.2935e+02	-11.7895	-38.467848	0.000254	2.535289	0.858979	-0.000101
1302	1.2945e+02	-11.8296	-38.592999	0.000314	3.143759	1.065134	-0.000126
1303	1.2955e+02	-11.8553	-38.677779	0.000213	2.129643	0.721543	-0.000085
1304	1.2965e+02	-11.9098	-38.782744	0.000264	2.636701	0.893338	-0.000105
1305	1.2975e+02	-11.9467	-38.928081	0.000365	3.650816	1.236930	-0.000146
1306	1.2985e+02	-11.9948	-39.057270	0.000325	3.245170	1.099493	-0.000130
1307	1.2995e+02	-12.0317	-39.182421	0.000314	3.143759	1.065134	-0.000126
1308	1.3005e+02	-12.0670	-39.230867	0.000122	1.216939	0.412310	-0.000049
1309	1.3015e+02	-12.1136	-39.347943	0.000294	2.940935	0.996416	-0.000118
1310	1.3025e+02	-12.1537	-39.392352	0.000112	1.115527	0.377951	-0.000045
1311	1.3034e+02	-12.1841	-39.569986	0.000446	4.462109	1.511803	-0.000179
1312	1.3044e+02	-12.2307	-39.666877	0.000243	2.433878	0.824620	-0.000097
1313	1.3054e+02	-12.2772	-39.792028	0.000314	3.143759	1.065134	-0.000126
1314	1.3064e+02	-12.3077	-39.896994	0.000264	2.636701	0.893338	-0.000105
1315	1.3074e+02	-12.3446	-40.022145	0.000314	3.143759	1.065134	-0.000126
1316	1.3084e+02	-12.3911	-40.114999	0.000233	2.332466	0.790261	-0.000093
1317	1.3094e+02	-12.4248	-40.252262	0.000345	3.447993	1.168212	-0.000138
1318	1.3104e+02	-12.4665	-40.421822	0.000426	4.259286	1.443085	-0.000170
1319	1.3114e+02	-12.5082	-40.498527	0.000193	1.926820	0.652824	-0.000077
1320	1.3124e+02	-12.5419	-40.595418	0.000243	2.433878	0.824620	-0.000097
1321	1.3134e+02	-12.5788	-40.740755	0.000365	3.650816	1.236930	-0.000146
1322	1.3144e+02	-12.6093	-40.821498	0.000203	2.028231	0.687183	-0.000081
1323	1.3154e+02	-12.6686	-40.950686	0.000325	3.245170	1.099493	-0.000130
1324	1.3164e+02	-12.6991	-41.023355	0.000183	1.825408	0.618465	-0.000073
1325	1.3174e+02	-12.7520	-41.136395	0.000284	2.839524	0.962057	-0.000114
1326	1.3184e+02	-12.7873	-41.273657	0.000345	3.447993	1.168212	-0.000138
1327	1.3194e+02	-12.8274	-41.318066	0.000112	1.115527	0.377951	-0.000045
1328	1.3204e+02	-12.8676	-41.447254	0.000325	3.245170	1.099493	-0.000130
1329	1.3214e+02	-12.9012	-41.572405	0.000314	3.143759	1.065134	-0.000126
1330	1.3224e+02	-12.9397	-41.689482	0.000294	2.940935	0.996416	-0.000118
1331	1.3234e+02	-12.9847	-41.770225	0.000203	2.028231	0.687183	-0.000081
1332	1.3243e+02	-13.0183	-41.895376	0.000314	3.143759	1.065134	-0.000126
1333	1.3253e+02	-13.0536	-42.004379	0.000274	2.738112	0.927698	-0.000110
1334	1.3263e+02	-13.1018	-42.133567	0.000325	3.245170	1.099493	-0.000130
1335	1.3273e+02	-13.1322	-42.274867	0.000355	3.549405	1.202571	-0.000142
1336	1.3283e+02	-13.1788	-42.367721	0.000233	2.332466	0.790261	-0.000093
1337	1.3293e+02	-13.2221	-42.504984	0.000345	3.447993	1.168212	-0.000138
1338	1.3303e+02	-13.2590	-42.626098	0.000304	3.042347	1.030775	-0.000122
1339	1.3313e+02	-13.3007	-42.718952	0.000233	2.332466	0.790261	-0.000093
1340	1.3323e+02	-13.3392	-42.795657	0.000193	1.926820	0.652824	-0.000077
1341	1.3333e+02	-13.3825	-42.900623	0.000264	2.636701	0.893338	-0.000105
1342	1.3343e+02	-13.4178	-43.054034	0.000385	3.853640	1.305648	-0.000154
1343	1.3353e+02	-13.4643	-43.134777	0.000203	2.028231	0.687183	-0.000081
1344	1.3363e+02	-13.4948	-43.251854	0.000294	2.940935	0.996416	-0.000118
1345	1.3373e+02	-13.5429	-43.364894	0.000284	2.839524	0.962057	-0.000114
1346	1.3383e+02	-13.5814	-43.437562	0.000183	1.825408	0.618465	-0.000073
1347	1.3393e+02	-13.6135	-43.534453	0.000243	2.433878	0.824620	-0.000097
1348	1.3403e+02	-13.6568	-43.639419	0.000264	2.636701	0.893338	-0.000105
1349	1.3413e+02	-13.7001	-43.740347	0.000254	2.535289	0.858979	-0.000101
1350	1.3423e+02	-13.7258	-43.829164	0.000223	2.231055	0.755902	-0.000089
1351	1.3432e+02	-13.7788	-43.970464	0.000355	3.549405	1.202571	-0.000142
1352	1.3442e+02	-13.8044	-44.127912	0.000396	3.955051	1.340008	-0.000158
1353	1.3452e+02	-13.8574	-44.232878	0.000264	2.636701	0.893338	-0.000105
1354	1.3462e+02	-13.9071	-44.362066	0.000325	3.245170	1.099493	-0.000130
1355	1.3472e+02	-13.9376	-44.430697	0.000172	1.723997	0.584106	-0.000069
1356	1.3482e+02	-13.9889	-44.588146	0.000396	3.955051	1.340008	-0.000158
1357	1.3492e+02	-14.0194	-44.681000	0.000233	2.332466	0.790261	-0.000093
1358	1.3502e+02	-14.0579	-44.798077	0.000294	2.940935	0.996416	-0.000118
1359	1.3512e+02	-14.0980	-44.870745	0.000183	1.825408	0.618465	-0.000073
1360	1.3522e+02	-14.1381	-45.040305	0.000426	4.259286	1.443085	-0.000170
1361	1.3532e+02	-14.1798	-45.121048	0.000203	2.028231	0.687183	-0.000081
1362	1.3542e+02	-14.2151	-45.217939	0.000243	2.433878	0.824620	-0.000097
1363	1.3552e+02	-14.2456	-45.343090	0.000314	3.143759	1.065134	-0.000126
1364	1.3562e+02	-14.3001	-45.431907	0.000223	2.231055	0.755902	-0.000089
1365	1.3572e+02	-14.3290	-45.492464	0.000152	1.521174	0.515388	-0.000061
1366	1.3582e+02	-14.3723	-45.605504	0.000284	2.839524	0.962057	-0.000114
1367	1.3592e+02	-14.4253	-45.762952	0.000396	3.955051	1.340008	-0.000158
1368	1.3602e+02	-14.4590	-45.863881	0.000254	2.535289	0.858979	-0.000101
1369	1.3612e+02	-14.4975	-45.976920	0.000284	2.839524	0.962057	-0.000114
1370	1.3622e+02	-14.5295	-46.093997	0.000294	2.940935	0.996416	-0.000118
1371	1.3631e+02	-14.5680	-46.207037	0.000284	2.839524	0.962057	-0.000114
1372	1.3641e+02	-14.6097	-46.295854	0.000223	2.231055	0.755902	-0.000089
1373	1.3651e+02	-14.6499	-46.441191	0.000365	3.650816	1.236930	-0.000146
1374	1.3661e+02	-14.7012	-46.513859	0.000183	1.825408	0.618465	-0.000073
1375	1.3671e+02	-14.7333	-46.610751	0.000243	2.433878	0.824620	-0.000097
1376	1.3681e+02	-14.7734	-46.711679	0.000254	2.535289	0.858979	-0.000101
1377	1.3691e+02	-14.8199	-46.885276	0.000436	4.360697	1.477444	-0.000174
1378	1.3701e+02	-14.8552	-46.994279	0.000274	2.738112	0.927698	-0.000110
1379	1.3711e+02	-14.8969	-47.075021	0.000203	2.028231	0.687183	-0.000081
1380	1.3721e+02	-14.9386	-47.147690	0.000183	1.825408	0.618465	-0.000073
1381	1.3731e+02	-14.9723	-47.280915	0.000335	3.346582	1.133853	-0.000134
1382	1.3741e+02	-15.0188	-47.369732	0.000223	2.231055	0.755902	-0.000089
1383	1.3751e+02	-15.0477	-47.450475	0.000203	2.028231	0.687183	-0.000081
1384	1.3761e+02	-15.0990	-47.523143	0.000183	1.825408	0.618465	-0.000073
1385	1.3771e+02	-15.1359	-47.611960	0.000223	2.231055	0.755902	-0.000089
1386	1.3781e+02	-15.1776	-47.753260	0.000355	3.549405	1.202571	-0.000142
1387	1.3791e+02	-15.1985	-47.858226	0.000264	2.636701	0.893338	-0.000105
1388	1.3801e+02	-15.2450	-48.007600	0.000375	3.752228	1.271289	-0.000150
1389	1.3811e+02	-15.2915	-48.092379	0.000213	2.129643	0.721543	-0.000085
1390	1.3821e+02	-15.3252	-48.221568	0.000325	3.245170	1.099493	-0.000130
1391	1.3831e+02	-15.3734	-48.322496	0.000254	2.535289	0.858979	-0.000101
1392	1.3840e+02	-15.4183	-48.395165	0.000183	1.825408	0.618465	-0.000073
1393	1.3850e+02	-15.4536	-48.520316	0.000314	3.143759	1.065134	-0.000126
1394	1.3860e+02	-15.4857	-48.649504	0.000325	3.245170	1.099493	-0.000130
1395	1.3870e+02	-15.5290	-48.726210	0.000193	1.926820	0.652824	-0.000077
1396	1.3880e+02	-15.5691	-48.887695	0.000406	4.056463	1.374367	-0.000162
1397	1.3890e+02	-15.6092	-48.907881	0.000051	0.507058	0.171796	-0.000020
1398	1.3900e+02	-15.6461	-49.073403	0.000416	4.157874	1.408726	-0.000166
1399	1.3910e+02	-15.7022	-49.182406	0.000274	2.738112	0.927698	-0.000110
1400	1.3920e+02	-15.7311	-49.242963	0.000152	1.521174	0.515388	-0.000061
1401	1.3930e+02	-15.7776	-49.356003	0.000284	2.839524	0.962057	-0.000114
1402	1.3940e+02	-15.8193	-49.444820	0.000223	2.231055	0.755902	-0.000089
1403	1.3950e+02	-15.8418	-49.525563	0.000203	2.028231	0.687183	-0.000081
1404	1.3960e+02	-15.8851	-49.646677	0.000304	3.042347	1.030775	-0.000122
1405	1.3970e+02	-15.9252	-49.783939	0.000345	3.447993	1.168212	-0.000138
1406	1.3980e+02	-15.9541	-49.905053	0.000304	3.042347	1.030775	-0.000122
1407	1.3990e+02	-16.0054	-49.969648	0.000162	1.622585	0.549747	-0.000065
1408	1.4000e+02	-16.0471	-50.098836	0.000325	3.245170	1.099493	-0.000130
1409	1.4010e+02	-16.0905	-50.179579	0.000203	2.028231	0.687183	-0.000081
1410	1.4020e+02	-16.1370	-50.316841	0.000345	3.447993	1.168212	-0.000138
1411	1.4029e+02	-16.1626	-50.466215	0.000375	3.752228	1.271289	-0.000150
1412	1.4039e+02	-16.2108	-50.510624	0.000112	1.115527	0.377951	-0.000045
1413	1.4049e+02	-16.2509	-50.651924	0.000355	3.549405	1.202571	-0.000142
1414	1.4059e+02	-16.2894	-50.752852	0.000254	2.535289	0.858979	-0.000101
1415	1.4069e+02	-16.3231	-50.857817	0.000264	2.636701	0.893338	-0.000105
1416	1.4079e+02	-16.3680	-50.958746	0.000254	2.535289	0.858979	-0.000101
1417	1.4089e+02	-16.4097	-51.055637	0.000243	2.433878	0.824620	-0.000097
1418	1.4099e+02	-16.4562	-51.168677	0.000284	2.839524	0.962057	-0.000114
1419	1.4109e+02	-16.4867	-51.245382	0.000193	1.926820	0.652824	-0.000077
1420	1.4119e+02	-16.5412	-51.370534	0.000314	3.143759	1.065134	-0.000126
1421	1.4129e+02	-16.5765	-51.431091	0.000152	1.521174	0.515388	-0.000061
1422	1.4139e+02	-16.6054	-51.564316	0.000335	3.346582	1.133853	-0.000134
1423	1.4149e+02	-16.6439	-51.673319	0.000274	2.738112	0.927698	-0.000110
1424	1.4159e+02	-16.6760	-51.810581	0.000345	3.447993	1.168212	-0.000138
1425	1.4169e+02	-16.7273	-51.907473	0.000243	2.433878	0.824620	-0.000097
1426	1.4179e+02	-16.7642	-51.996290	0.000223	2.231055	0.755902	-0.000089
1427	1.4189e+02	-16.8075	-52.117404	0.000304	3.042347	1.030775	-0.000122
1428	1.4199e+02	-16.8557	-52.242555	0.000314	3.143759	1.065134	-0.000126
1429	1.4209e+02	-16.8846	-52.379818	0.000345	3.447993	1.168212	-0.000138
1430	1.4219e+02	-16.9279	-52.432300	0.000132	1.318350	0.446669	-0.000053
1431	1.4228e+02	-16.9616	-52.557452	0.000314	3.143759	1.065134	-0.000126
1432	1.4238e+02	-16.9968	-52.642231	0.000213	2.129643	0.721543	-0.000085
1433	1.4248e+02	-17.0578	-52.771420	0.000325	3.245170	1.099493	-0.000130
1434	1.4258e+02	-17.0915	-52.872348	0.000254	2.535289	0.858979	-0.000101
1435	1.4268e+02	-17.1316	-52.961165	0.000223	2.231055	0.755902	-0.000089
1436	1.4278e+02	-17.1685	-53.086316	0.000314	3.143759	1.065134	-0.000126
1437	1.4288e+02	-17.2102	-53.191282	0.000264	2.636701	0.893338	-0.000105
1438	1.4298e+02	-17.2455	-53.312396	0.000304	3.042347	1.030775	-0.000122
1439	1.4308e+02	-17.2904	-53.340656	0.000071	0.709881	0.240514	-0.000028
1440	1.4318e+02	-17.3177	-53.457733	0.000294	2.940935	0.996416	-0.000118
1441	1.4328e+02	-17.3642	-53.607107	0.000375	3.752228	1.271289	-0.000150
1442	1.4338e+02	-17.4011	-53.691887	0.000213	2.129643	0.721543	-0.000085
1443	1.4348e+02	-17.4364	-53.788778	0.000243	2.433878	0.824620	-0.000097
1444	1.4358e+02	-17.4813	-53.938152	0.000375	3.752228	1.271289	-0.000150
1445	1.4368e+02	-17.5182	-54.043118	0.000264	2.636701	0.893338	-0.000105
1446	1.4378e+02	-17.5696	-54.135972	0.000233	2.332466	0.790261	-0.000093
1447	1.4388e+02	-17.6065	-54.277271	0.000355	3.549405	1.202571	-0.000142
1448	1.4398e+02	-17.6417	-54.353977	0.000193	1.926820	0.652824	-0.000077
1449	1.4408e+02	-17.6819	-54.471054	0.000294	2.940935	0.996416	-0.000118
1450	1.4418e+02	-17.7204	-54.567945	0.000243	2.433878	0.824620	-0.000097
1451	1.4428e+02	-17.7573	-54.656762	0.000223	2.231055	0.755902	-0.000089
1452	1.4437e+02	-17.7990	-54.769802	0.000284	2.839524	0.962057	-0.000114
1453	1.4447e+02	-17.8439	-54.886879	0.000294	2.940935	0.996416	-0.000118
1454	1.4457e+02	-17.8744	-54.971659	0.000213	2.129643	0.721543	-0.000085
1455	1.4467e+02	-17.9289	-55.092773	0.000304	3.042347	1.030775	-0.000122
1456	1.4477e+02	-17.9706	-55.205813	0.000284	2.839524	0.962057	-0.000114
1457	1.4487e+02	-18.0091	-55.294630	0.000223	2.231055	0.755902	-0.000089
1458	1.4497e+02	-18.0332	-55.371335	0.000193	1.926820	0.652824	-0.000077
1459	1.4507e+02	-18.0813	-55.528784	0.000396	3.955051	1.340008	-0.000158
1460	1.4517e+02	-18.1086	-55.637786	0.000274	2.738112	0.927698	-0.000110
1461	1.4527e+02	-18.1567	-55.799272	0.000406	4.056463	1.374367	-0.000162
1462	1.4537e+02	-18.2000	-55.888089	0.000223	2.231055	0.755902	-0.000089
1463	1.4547e+02	-18.2321	-55.964794	0.000193	1.926820	0.652824	-0.000077
1464	1.4557e+02	-18.2754	-56.130317	0.000416	4.157874	1.408726	-0.000166
1465	1.4567e+02	-18.3252	-56.202985	0.000183	1.825408	0.618465	-0.000073
1466	1.4577e+02	-18.3588	-56.340248	0.000345	3.447993	1.168212	-0.000138
1467	1.4587e+02	-18.3957	-56.449250	0.000274	2.738112	0.927698	-0.000110
1468	1.4597e+02	-18.4391	-56.578439	0.000325	3.245170	1.099493	-0.000130
1469	1.4607e+02	-18.4872	-56.715701	0.000345	3.447993	1.168212	-0.000138
1470	1.4617e+02	-18.5273	-56.780296	0.000162	1.622585	0.549747	-0.000065
1471	1.4626e+02	-18.5626	-56.921595	0.000355	3.549405	1.202571	-0.000142
1472	1.4636e+02	-18.6075	-57.010412	0.000223	2.231055	0.755902	-0.000089
1473	1.4646e+02	-18.6364	-57.135564	0.000314	3.143759	1.065134	-0.000126
1474	1.4656e+02	-18.6845	-57.248603	0.000284	2.839524	0.962057	-0.000114
1475	1.4666e+02	-18.7294	-57.337420	0.000223	2.231055	0.755902	-0.000089
1476	1.4676e+02	-18.7583	-57.438349	0.000254	2.535289	0.858979	-0.000101
1477	1.4686e+02	-18.7968	-57.555426	0.000294	2.940935	0.996416	-0.000118
1478	1.4696e+02	-18.8385	-57.692688	0.000345	3.447993	1.168212	-0.000138
1479	1.4706e+02	-18.8770	-57.838025	0.000365	3.650816	1.236930	-0.000146
1480	1.4716e+02	-18.9235	-57.951065	0.000284	2.839524	0.962057	-0.000114
1481	1.4726e+02	-18.9636	-58.039882	0.000223	2.231055	0.755902	-0.000089
1482	1.4736e+02	-19.0021	-58.152922	0.000284	2.839524	0.962057	-0.000114
1483	1.4746e+02	-19.0519	-58.298259	0.000365	3.650816	1.236930	-0.000146
1484	1.4756e+02	-19.0856	-58.383038	0.000213	2.129643	0.721543	-0.000085
1485	1.4766e+02	-19.1128	-58.520301	0.000345	3.447993	1.168212	-0.000138
1486	1.4776e+02	-19.1594	-58.677749	0.000396	3.955051	1.340008	-0.000158
1487	1.4786e+02	-19.1995	-58.758492	0.000203	2.028231	0.687183	-0.000081
1488	1.4796e+02	-19.2428	-58.871532	0.000284	2.839524	0.962057	-0.000114
1489	1.4806e+02	-19.2765	-58.996683	0.000314	3.143759	1.065134	-0.000126
1490	1.4816e+02	-19.3150	-59.113760	0.000294	2.940935	0.996416	-0.000118
1491	1.4825e+02	-19.3599	-59.251023	0.000345	3.447993	1.168212	-0.000138
1492	1.4835e+02	-19.4064	-59.355988	0.000264	2.636701	0.893338	-0.000105
1493	1.4845e+02	-19.4337	-59.464991	0.000274	2.738112	0.927698	-0.000110
1494	1.4855e+02	-19.4674	-59.533622	0.000172	1.723997	0.584106	-0.000069
1495	1.4865e+02	-19.5107	-59.682996	0.000375	3.752228	1.271289	-0.000150
1496	1.4875e+02	-19.5492	-59.816222	0.000335	3.346582	1.133853	-0.000134
1497	1.4885e+02	-19.5909	-59.977707	0.000406	4.056463	1.374367	-0.000162
1498	1.4895e+02	-19.6230	-60.046338	0.000172	1.723997	0.584106	-0.000069
1499	1.4905e+02	-19.6711	-60.219935	0.000436	4.360697	1.477444	-0.000174
1500	1.4915e+02	-19.7144	-60.308752	0.000223	2.231055	0.755902	-0.000089
1501	1.4925e+02	-19.7545	-60.433903	0.000314	3.143759	1.065134	-0.000126
1502	1.4935e+02	-19.8010	-60.571166	0.000345	3.447993	1.168212	-0.000138
1503	1.4945e+02	-19.8395	-60.712466	0.000355	3.549405	1.202571	-0.000142
1504	1.4955e+02	-19.8700	-60.809357	0.000243	2.433878	0.824620	-0.000097
1505	1.4965e+02	-19.9166	-60.942583	0.000335	3.346582	1.133853	-0.000134
1506	1.4975e+02	-19.9518	-61.035437	0.000233	2.332466	0.790261	-0.000093
1507	1.4985e+02	-19.9855	-61.217108	0.000456	4.563521	1.546163	-0.000183
1508	1.4995e+02	-19.9583	-61.160588	0.000142	1.419762	0.481028	0.000057
1509	1.5005e+02	-19.9005	-61.087919	0.000183	1.825408	0.618465	0.000073
1510	1.5015e+02	-19.8716	-61.035437	0.000132	1.318350	0.446669	0.000053
1511	1.5025e+02	-19.8331	-60.982954	0.000132	1.318350	0.446669	0.000053
1512	1.5034e+02	-19.7898	-60.898174	0.000213	2.129643	0.721543	0.000085
1513	1.5044e+02	-19.7609	-60.805320	0.000233	2.332466	0.790261	0.000093
1514	1.5054e+02	-19.7128	-60.777060	0.000071	0.709881	0.240514	0.000028
1515	1.5064e+02	-19.6775	-60.748800	0.000071	0.709881	0.240514	0.000028
1516	1.5074e+02	-19.6374	-60.664020	0.000213	2.129643	0.721543	0.000085
1517	1.5084e+02	-19.5973	-60.575203	0.000223	2.231055	0.755902	0.000089
1518	1.5094e+02	-19.5556	-60.563092	0.000030	0.304235	0.103078	0.000012
1519	1.5104e+02	-19.5139	-60.474275	0.000223	2.231055	0.755902	0.000089
1520	1.5114e+02	-19.4802	-60.397569	0.000193	1.926820	0.652824	0.000077
1521	1.5124e+02	-19.4353	-60.288567	0.000274	2.738112	0.927698	0.000110
1522	1.5134e+02	-19.4016	-60.256269	0.000081	0.811293	0.274873	0.000032
1523	1.5144e+02	-19.3599	-60.203787	0.000132	1.318350	0.446669	0.000053
1524	1.5154e+02	-19.3150	-60.127081	0.000193	1.926820	0.652824	0.000077
1525	1.5164e+02	-19.2781	-60.058450	0.000172	1.723997	0.584106	0.000069
1526	1.5174e+02	-19.2428	-60.010004	0.000122	1.216939	0.412310	0.000049
1527	1.5184e+02	-19.1995	-59.929261	0.000203	2.028231	0.687183	0.000081
1528	1.5194e+02	-19.1529	-59.824296	0.000264	2.636701	0.893338	0.000105
1529	1.5204e+02	-19.1241	-59.767776	0.000142	1.419762	0.481028	0.000057
1530	1.5214e+02	-19.0743	-59.670885	0.000243	2.433878	0.824620	0.000097
1531	1.5224e+02	-19.0310	-59.582068	0.000223	2.231055	0.755902	0.000089
1532	1.5233e+02	-19.0053	-59.517474	0.000162	1.622585	0.549747	0.000065
1533	1.5243e+02	-18.9588	-59.436731	0.000203	2.028231	0.687183	0.000081
1534	1.5253e+02	-18.9187	-59.392322	0.000112	1.115527	0.377951	0.000045
1535	1.5263e+02	-18.8770	-59.299468	0.000233	2.332466	0.790261	0.000093
1536	1.5273e+02	-18.8417	-59.226800	0.000183	1.825408	0.618465	0.000073
1537	1.5283e+02	-18.8048	-59.154131	0.000183	1.825408	0.618465	0.000073
1538	1.5293e+02	-18.7599	-59.065314	0.000223	2.231055	0.755902	0.000089
1539	1.5303e+02	-18.7134	-58.996683	0.000172	1.723997	0.584106	0.000069
1540	1.5313e+02	-18.6717	-58.883643	0.000284	2.839524	0.962057	0.000114
1541	1.5323e+02	-18.6428	-58.806938	0.000193	1.926820	0.652824	0.000077
1542	1.5333e+02	-18.6027	-58.718121	0.000223	2.231055	0.755902	0.000089
1543	1.5343e+02	-18.5610	-58.605081	0.000284	2.839524	0.962057	0.000114
1544	1.5353e+02	-18.5257	-58.528375	0.000193	1.926820	0.652824	0.000077
1545	1.5363e+02	-18.4888	-58.496078	0.000081	0.811293	0.274873	0.000032
1546	1.5373e+02	-18.4471	-58.407261	0.000223	2.231055	0.755902	0.000089
1547	1.5383e+02	-18.4006	-58.350741	0.000142	1.419762	0.481028	0.000057
1548	1.5393e+02	-18.3540	-58.269999	0.000203	2.028231	0.687183	0.000081
1549	1.5403e+02	-18.3219	-58.120625	0.000375	3.752228	1.271289	0.000150
1550	1.5413e+02	-18.2866	-58.068142	0.000132	1.318350	0.446669	0.000053
1551	1.5422e+02	-18.2369	-57.967213	0.000254	2.535289	0.858979	0.000101
1552	1.5432e+02	-18.2000	-57.858211	0.000274	2.738112	0.927698	0.000110
1553	1.5442e+02	-18.1647	-57.785542	0.000183	1.825408	0.618465	0.000073
1554	1.5452e+02	-18.1182	-57.652317	0.000335	3.346582	1.133853	0.000134
1555	1.5462e+02	-18.0733	-57.587723	0.000162	1.622585	0.549747	0.000065
1556	1.5472e+02	-18.0396	-57.490831	0.000243	2.433878	0.824620	0.000097
1557	1.5482e+02	-17.9995	-57.434312	0.000142	1.419762	0.481028	0.000057
1558	1.5492e+02	-17.9594	-57.321272	0.000284	2.839524	0.962057	0.000114
1559	1.5502e+02	-17.9241	-57.268789	0.000132	1.318350	0.446669	0.000053
1560	1.5512e+02	-17.8792	-57.119415	0.000375	3.752228	1.271289	0.000150
1561	1.5522e+02	-17.8439	-57.095192	0.000061	0.608469	0.206155	0.000024
1562	1.5532e+02	-17.8006	-56.998301	0.000243	2.433878	0.824620	0.000097
1563	1.5542e+02	-17.7573	-56.905447	0.000233	2.332466	0.790261	0.000093
1564	1.5552e+02	-17.7139	-56.820667	0.000213	2.129643	0.721543	0.000085
1565	1.5562e+02	-17.6819	-56.747999	0.000183	1.825408	0.618465	0.000073
1566	1.5572e+02	-17.6385	-56.691479	0.000142	1.419762	0.481028	0.000057
1567	1.5582e+02	-17.6032	-56.594587	0.000243	2.433878	0.824620	0.000097
1568	1.5592e+02	-17.5567	-56.457325	0.000345	3.447993	1.168212	0.000138
1569	1.5602e+02	-17.5278	-56.340248	0.000294	2.940935	0.996416	0.000118
1570	1.5612e+02	-17.4813	-56.316025	0.000061	0.608469	0.206155	0.000024
1571	1.5622e+02	-17.4524	-56.182799	0.000335	3.346582	1.133853	0.000134
1572	1.5631e+02	-17.4043	-56.114168	0.000172	1.723997	0.584106	0.000069
1573	1.5641e+02	-17.3594	-55.997091	0.000294	2.940935	0.996416	0.000118
1574	1.5651e+02	-17.3273	-55.920386	0.000193	1.926820	0.652824	0.000077
1575	1.5661e+02	-17.2904	-55.819457	0.000254	2.535289	0.858979	0.000101
1576	1.5671e+02	-17.2391	-55.726603	0.000233	2.332466	0.790261	0.000093
1577	1.5681e+02	-17.2022	-55.613563	0.000284	2.839524	0.962057	0.000114
1578	1.5691e+02	-17.1733	-55.569155	0.000112	1.115527	0.377951	0.000045
1579	1.5701e+02	-17.1204	-55.460152	0.000274	2.738112	0.927698	0.000110
1580	1.5711e+02	-17.0803	-55.391521	0.000172	1.723997	0.584106	0.000069
1581	1.5721e+02	-17.0482	-55.213887	0.000446	4.462109	1.511803	0.000179
1582	1.5731e+02	-17.0097	-55.258295	-0.000112	-1.115527	-0.377951	-0.000045
1583	1.5741e+02	-16.9632	-55.141218	0.000294	2.940935	0.996416	0.000118
1584	1.5751e+02	-16.9231	-55.052401	0.000223	2.231055	0.755902	0.000089
1585	1.5761e+02	-16.8797	-54.927250	0.000314	3.143759	1.065134	0.000126
1586	1.5771e+02	-16.8348	-54.802099	0.000314	3.143759	1.065134	0.000126
1587	1.5781e+02	-16.8092	-54.745579	0.000142	1.419762	0.481028	0.000057
1588	1.5791e+02	-16.7578	-54.616391	0.000325	3.245170	1.099493	0.000130
1589	1.5801e+02	-16.7209	-54.527574	0.000223	2.231055	0.755902	0.000089
1590	1.5811e+02	-16.6888	-54.462980	0.000162	1.622585	0.549747	0.000065
1591	1.5821e+02	-16.6407	-54.349940	0.000284	2.839524	0.962057	0.000114
1592	1.5830e+02	-16.6006	-54.253049	0.000243	2.433878	0.824620	0.000097
1593	1.5840e+02	-16.5701	-54.172306	0.000203	2.028231	0.687183	0.000081
1594	1.5850e+02	-16.5284	-54.071378	0.000254	2.535289	0.858979	0.000101
1595	1.5860e+02	-16.4851	-53.974486	0.000243	2.433878	0.824620	0.000097
1596	1.5870e+02	-16.4610	-53.909892	0.000162	1.622585	0.549747	0.000065
1597	1.5880e+02	-16.4017	-53.813001	0.000243	2.433878	0.824620	0.000097
1598	1.5890e+02	-16.3616	-53.703998	0.000274	2.738112	0.927698	0.000110
1599	1.5900e+02	-16.3215	-53.631330	0.000183	1.825408	0.618465	0.000073
1600	1.5910e+02	-16.2782	-53.566736	0.000162	1.622585	0.549747	0.000065
1601	1.5920e+02	-16.2525	-53.473881	0.000233	2.332466	0.790261	0.000093
1602	1.5930e+02	-16.2076	-53.381027	0.000233	2.332466	0.790261	0.000093
1603	1.5940e+02	-16.1675	-53.280099	0.000254	2.535289	0.858979	0.000101
1604	1.5950e+02	-16.1306	-53.158985	0.000304	3.042347	1.030775	0.000122
1605	1.5960e+02	-16.0905	-53.070168	0.000223	2.231055	0.755902	0.000089
1606	1.5970e+02	-16.0471	-52.924831	0.000365	3.650816	1.236930	0.000146
1607	1.5980e+02	-16.0054	-52.856200	0.000172	1.723997	0.584106	0.000069
1608	1.5990e+02	-15.9733	-52.759308	0.000243	2.433878	0.824620	0.000097
1609	1.6000e+02	-15.9300	-52.670491	0.000223	2.231055	0.755902	0.000089
1610	1.6010e+02	-15.8787	-52.541303	0.000325	3.245170	1.099493	0.000130
1611	1.6019e+02	-15.8530	-52.484783	0.000142	1.419762	0.481028	0.000057
1612	1.6029e+02	-15.8177	-52.343483	0.000355	3.549405	1.202571	0.000142
1613	1.6039e+02	-15.7648	-52.286964	0.000142	1.419762	0.481028	0.000057
1614	1.6049e+02	-15.7295	-52.202184	0.000213	2.129643	0.721543	0.000085
1615	1.6059e+02	-15.6894	-52.081070	0.000304	3.042347	1.030775	0.000122
1616	1.6069e+02	-15.6557	-51.972067	0.000274	2.738112	0.927698	0.000110
1617	1.6079e+02	-15.6156	-51.895361	0.000193	1.926820	0.652824	0.000077
1618	1.6089e+02	-15.5611	-51.846916	0.000122	1.216939	0.412310	0.000049
1619	1.6099e+02	-15.5354	-51.733876	0.000284	2.839524	0.962057	0.000114
1620	1.6109e+02	-15.4937	-51.620836	0.000284	2.839524	0.962057	0.000114
1621	1.6119e+02	-15.4584	-51.584502	0.000091	0.912704	0.309233	0.000037
1622	1.6129e+02	-15.4135	-51.427054	0.000396	3.955051	1.340008	0.000158
1623	1.6139e+02	-15.3734	-51.322088	0.000264	2.636701	0.893338	0.000105
1624	1.6149e+02	-15.3284	-51.209048	0.000284	2.839524	0.962057	0.000114
1625	1.6159e+02	-15.3012	-51.083897	0.000314	3.143759	1.065134	0.000126
1626	1.6169e+02	-15.2514	-51.007191	0.000193	1.926820	0.652824	0.000077
1627	1.6179e+02	-15.2113	-50.906263	0.000254	2.535289	0.858979	0.000101
1628	1.6189e+02	-15.1760	-50.845706	0.000152	1.521174	0.515388	0.000061
1629	1.6199e+02	-15.1375	-50.744778	0.000254	2.535289	0.858979	0.000101
1630	1.6209e+02	-15.0910	-50.651924	0.000233	2.332466	0.790261	0.000093
1631	1.6219e+02	-15.0589	-50.559069	0.000233	2.332466	0.790261	0.000093
1632	1.6228e+02	-15.0172	-50.458141	0.000254	2.535289	0.858979	0.000101
1633	1.6238e+02	-14.9755	-50.353175	0.000264	2.636701	0.893338	0.000105
1634	1.6248e+02	-14.9194	-50.292618	0.000152	1.521174	0.515388	0.000061
1635	1.6258e+02	-14.8937	-50.175542	0.000294	2.940935	0.996416	0.000118
1636	1.6268e+02	-14.8424	-50.102873	0.000183	1.825408	0.618465	0.000073
1637	1.6278e+02	-14.8071	-50.022130	0.000203	2.028231	0.687183	0.000081
1638	1.6288e+02	-14.7750	-49.965610	0.000142	1.419762	0.481028	0.000057
1639	1.6298e+02	-14.7333	-49.832385	0.000335	3.346582	1.133853	0.000134
1640	1.6308e+02	-14.6964	-49.759717	0.000183	1.825408	0.618465	0.000073
1641	1.6318e+02	-14.6515	-49.634565	0.000314	3.143759	1.065134	0.000126
1642	1.6328e+02	-14.6162	-49.529600	0.000264	2.636701	0.893338	0.000105
1643	1.6338e+02	-14.5712	-49.384263	0.000365	3.650816	1.236930	0.000146
1644	1.6348e+02	-14.5392	-49.335817	0.000122	1.216939	0.412310	0.000049
1645	1.6358e+02	-14.5039	-49.186443	0.000375	3.752228	1.271289	0.000150
1646	1.6368e+02	-14.4461	-49.133960	0.000132	1.318350	0.446669	0.000053
1647	1.6378e+02	-14.4124	-48.980549	0.000385	3.853640	1.305648	0.000154
1648	1.6388e+02	-14.3755	-48.903844	0.000193	1.926820	0.652824	0.000077
1649	1.6398e+02	-14.3354	-48.819064	0.000213	2.129643	0.721543	0.000085
1650	1.6408e+02	-14.3049	-48.730247	0.000223	2.231055	0.755902	0.000089
1651	1.6418e+02	-14.2536	-48.580873	0.000375	3.752228	1.271289	0.000150
1652	1.6427e+02	-14.2151	-48.528390	0.000132	1.318350	0.446669	0.000053
1653	1.6437e+02	-14.1782	-48.496093	0.000081	0.811293	0.274873	0.000032
1654	1.6447e+02	-14.1365	-48.358830	0.000345	3.447993	1.168212	0.000138
1655	1.6457e+02	-14.0932	-48.261939	0.000243	2.433878	0.824620	0.000097
1656	1.6467e+02	-14.0611	-48.148899	0.000284	2.839524	0.962057	0.000114
1657	1.6477e+02	-14.0146	-48.043934	0.000264	2.636701	0.893338	0.000105
1658	1.6487e+02	-13.9665	-47.979340	0.000162	1.622585	0.549747	0.000065
1659	1.6497e+02	-13.9392	-47.890523	0.000223	2.231055	0.755902	0.000089
1660	1.6507e+02	-13.9007	-47.716926	0.000436	4.360697	1.477444	0.000174
1661	1.6517e+02	-13.8654	-47.628109	0.000223	2.231055	0.755902	0.000089
1662	1.6527e+02	-13.8173	-47.519106	0.000274	2.738112	0.927698	0.000110
1663	1.6537e+02	-13.7820	-47.385881	0.000335	3.346582	1.133853	0.000134
1664	1.6547e+02	-13.7435	-47.317249	0.000172	1.723997	0.584106	0.000069
1665	1.6557e+02	-13.7001	-47.224395	0.000233	2.332466	0.790261	0.000093
1666	1.6567e+02	-13.6552	-47.095207	0.000325	3.245170	1.099493	0.000130
1667	1.6577e+02	-13.6231	-46.982167	0.000284	2.839524	0.962057	0.000114
1668	1.6587e+02	-13.5862	-46.901424	0.000203	2.028231	0.687183	0.000081
1669	1.6597e+02	-13.5349	-46.861053	0.000101	1.014116	0.343592	0.000041
1670	1.6607e+02	-13.4980	-46.748013	0.000284	2.839524	0.962057	0.000114
1671	1.6616e+02	-13.4515	-46.655159	0.000233	2.332466	0.790261	0.000093
1672	1.6626e+02	-13.4178	-46.554231	0.000254	2.535289	0.858979	0.000101
1673	1.6636e+02	-13.3873	-46.461377	0.000233	2.332466	0.790261	0.000093
1674	1.6646e+02	-13.3296	-46.372560	0.000223	2.231055	0.755902	0.000089
1675	1.6656e+02	-13.3023	-46.247408	0.000314	3.143759	1.065134	0.000126
1676	1.6666e+02	-13.2542	-46.198963	0.000122	1.216939	0.412310	0.000049
1677	1.6676e+02	-13.2221	-46.077849	0.000304	3.042347	1.030775	0.000122
1678	1.6686e+02	-13.1772	-45.932512	0.000365	3.650816	1.236930	0.000146
1679	1.6696e+02	-13.1515	-45.779101	0.000385	3.853640	1.305648	0.000154
1680	1.6706e+02	-13.0970	-45.730655	0.000122	1.216939	0.412310	0.000049
1681	1.6716e+02	-13.0633	-45.597430	0.000335	3.346582	1.133853	0.000134
1682	1.6726e+02	-13.0216	-45.508613	0.000223	2.231055	0.755902	0.000089
1683	1.6736e+02	-12.9718	-45.387499	0.000304	3.042347	1.030775	0.000122
1684	1.6746e+02	-12.9430	-45.258310	0.000325	3.245170	1.099493	0.000130
1685	1.6756e+02	-12.9028	-45.193716	0.000162	1.622585	0.549747	0.000065
1686	1.6766e+02	-12.8595	-45.084713	0.000274	2.738112	0.927698	0.000110
1687	1.6776e+02	-12.8194	-44.987822	0.000243	2.433878	0.824620	0.000097
1688	1.6786e+02	-12.7777	-44.919191	0.000172	1.723997	0.584106	0.000069
1689	1.6796e+02	-12.7376	-44.846522	0.000183	1.825408	0.618465	0.000073
1690	1.6806e+02	-12.6991	-44.709260	0.000345	3.447993	1.168212	0.000138
1691	1.6816e+02	-12.6654	-44.563923	0.000365	3.650816	1.236930	0.000146
1692	1.6825e+02	-12.6221	-44.491254	0.000183	1.825408	0.618465	0.000073
1693	1.6835e+02	-12.5804	-44.430697	0.000152	1.521174	0.515388	0.000061
1694	1.6845e+02	-12.5499	-44.333806	0.000243	2.433878	0.824620	0.000097
1695	1.6855e+02	-12.5082	-44.240952	0.000233	2.332466	0.790261	0.000093
1696	1.6865e+02	-12.4665	-44.095615	0.000365	3.650816	1.236930	0.000146
1697	1.6875e+02	-12.4296	-43.958352	0.000345	3.447993	1.168212	0.000138
1698	1.6885e+02	-12.3847	-43.889721	0.000172	1.723997	0.584106	0.000069
1699	1.6895e+02	-12.3494	-43.748421	0.000355	3.549405	1.202571	0.000142
1700	1.6905e+02	-12.3077	-43.639419	0.000274	2.738112	0.927698	0.000110
1701	1.6915e+02	-12.2628	-43.518305	0.000304	3.042347	1.030775	0.000122
1702	1.6925e+02	-12.2323	-43.449673	0.000172	1.723997	0.584106	0.000069
1703	1.6935e+02	-12.1809	-43.348745	0.000254	2.535289	0.858979	0.000101
1704	1.6945e+02	-12.1473	-43.259928	0.000223	2.231055	0.755902	0.000089
1705	1.6955e+02	-12.1023	-43.114591	0.000365	3.650816	1.236930	0.000146
1706	1.6965e+02	-12.0606	-43.054034	0.000152	1.521174	0.515388	0.000061
1707	1.6975e+02	-12.0221	-42.985403	0.000172	1.723997	0.584106	0.000069
1708	1.6985e+02	-11.9804	-42.836029	0.000375	3.752228	1.271289	0.000150
1709	1.6995e+02	-11.9467	-42.751249	0.000213	2.129643	0.721543	0.000085
1710	1.7005e+02	-11.8954	-42.658395	0.000233	2.332466	0.790261	0.000093
1711	1.7015e+02	-11.8665	-42.529206	0.000325	3.245170	1.099493	0.000130
1712	1.7024e+02	-11.8280	-42.416167	0.000284	2.839524	0.962057	0.000114
1713	1.7034e+02	-11.7895	-42.319275	0.000243	2.433878	0.824620	0.000097
1714	1.7044e+02	-11.7494	-42.210273	0.000274	2.738112	0.927698	0.000110
1715	1.7054e+02	-11.7141	-42.117419	0.000233	2.332466	0.790261	0.000093
1716	1.7064e+02	-11.6708	-42.004379	0.000284	2.839524	0.962057	0.000114
1717	1.7074e+02	-11.6243	-41.846930	0.000396	3.955051	1.340008	0.000158
1718	1.7084e+02	-11.5826	-41.717742	0.000325	3.245170	1.099493	0.000130
1719	1.7094e+02	-11.5505	-41.596628	0.000304	3.042347	1.030775	0.000122
1720	1.7104e+02	-11.5023	-41.499737	0.000243	2.433878	0.824620	0.000097
1721	1.7114e+02	-11.4735	-41.390734	0.000274	2.738112	0.927698	0.000110
1722	1.7124e+02	-11.4253	-41.338251	0.000132	1.318350	0.446669	0.000053
1723	1.7134e+02	-11.3852	-41.209063	0.000325	3.245170	1.099493	0.000130
1724	1.7144e+02	-11.3467	-41.100060	0.000274	2.738112	0.927698	0.000110
1725	1.7154e+02	-11.3098	-41.023355	0.000193	1.926820	0.652824	0.000077
1726	1.7164e+02	-11.2713	-40.914352	0.000274	2.738112	0.927698	0.000110
1727	1.7174e+02	-11.2312	-40.821498	0.000233	2.332466	0.790261	0.000093
1728	1.7184e+02	-11.1831	-40.728644	0.000233	2.332466	0.790261	0.000093
1729	1.7194e+02	-11.1462	-40.591381	0.000345	3.447993	1.168212	0.000138
1730	1.7204e+02	-11.1093	-40.462193	0.000325	3.245170	1.099493	0.000130
1731	1.7213e+02	-11.0676	-40.385487	0.000193	1.926820	0.652824	0.000077
1732	1.7223e+02	-11.0323	-40.284559	0.000254	2.535289	0.858979	0.000101
1733	1.7233e+02	-10.9922	-40.135185	0.000375	3.752228	1.271289	0.000150
1734	1.7243e+02	-10.9457	-40.018108	0.000294	2.940935	0.996416	0.000118
1735	1.7253e+02	-10.9136	-39.909105	0.000274	2.738112	0.927698	0.000110
1736	1.7263e+02	-10.8655	-39.767806	0.000355	3.549405	1.202571	0.000142
1737	1.7273e+02	-10.8254	-39.683026	0.000213	2.129643	0.721543	0.000085
1738	1.7283e+02	-10.7997	-39.545763	0.000345	3.447993	1.168212	0.000138
1739	1.7293e+02	-10.7548	-39.404463	0.000355	3.549405	1.202571	0.000142
1740	1.7303e+02	-10.7083	-39.351981	0.000132	1.318350	0.446669	0.000053
1741	1.7313e+02	-10.6730	-39.271238	0.000203	2.028231	0.687183	0.000081
1742	1.7323e+02	-10.6361	-39.194532	0.000193	1.926820	0.652824	0.000077
1743	1.7333e+02	-10.5879	-39.061307	0.000335	3.346582	1.133853	0.000134
1744	1.7343e+02	-10.5462	-38.964416	0.000243	2.433878	0.824620	0.000097
1745	1.7353e+02	-10.5077	-38.831190	0.000335	3.346582	1.133853	0.000134
1746	1.7363e+02	-10.4708	-38.734299	0.000243	2.433878	0.824620	0.000097
1747	1.7373e+02	-10.4323	-38.637408	0.000243	2.433878	0.824620	0.000097
1748	1.7383e+02	-10.3858	-38.528405	0.000274	2.738112	0.927698	0.000110
1749	1.7393e+02	-10.3521	-38.391142	0.000345	3.447993	1.168212	0.000138
1750	1.7403e+02	-10.3136	-38.294251	0.000243	2.433878	0.824620	0.000097
1751	1.7413e+02	-10.2735	-38.185248	0.000274	2.738112	0.927698	0.000110
1752	1.7422e+02	-10.2350	-38.064134	0.000304	3.042347	1.030775	0.000122
1753	1.7432e+02	-10.1917	-37.951095	0.000284	2.839524	0.962057	0.000114
1754	1.7442e+02	-10.1564	-37.813832	0.000345	3.447993	1.168212	0.000138
1755	1.7452e+02	-10.1179	-37.700792	0.000284	2.839524	0.962057	0.000114
1756	1.7462e+02	-10.0746	-37.616012	0.000213	2.129643	0.721543	0.000085
1757	1.7472e+02	-10.0329	-37.458564	0.000396	3.955051	1.340008	0.000158
1758	1.7482e+02	-9.9863	-37.369747	0.000223	2.231055	0.755902	0.000089
1759	1.7492e+02	-9.9607	-37.297079	0.000183	1.825408	0.618465	0.000073
1760	1.7502e+02	-9.9206	-37.200187	0.000243	2.433878	0.824620	0.000097
1761	1.7512e+02	-9.8724	-37.099259	0.000254	2.535289	0.858979	0.000101
1762	1.7522e+02	-9.8227	-36.978145	0.000304	3.042347	1.030775	0.000122
1763	1.7532e+02	-9.7987	-36.865105	0.000284	2.839524	0.962057	0.000114
1764	1.7542e+02	-9.7441	-36.752065	0.000284	2.839524	0.962057	0.000114
1765	1.7552e+02	-9.7072	-36.634988	0.000294	2.940935	0.996416	0.000118
1766	1.7562e+02	-9.6687	-36.538097	0.000243	2.433878	0.824620	0.000097
1767	1.7572e+02	-9.6366	-36.416983	0.000304	3.042347	1.030775	0.000122
1768	1.7582e+02	-9.5965	-36.328166	0.000223	2.231055	0.755902	0.000089
1769	1.7592e+02	-9.5564	-36.190903	0.000345	3.447993	1.168212	0.000138
1770	1.7602e+02	-9.5115	-36.061715	0.000325	3.245170	1.099493	0.000130
1771	1.7612e+02	-9.4810	-35.976935	0.000213	2.129643	0.721543	0.000085
1772	1.7621e+02	-9.4409	-35.827561	0.000375	3.752228	1.271289	0.000150
1773	1.7631e+02	-9.3928	-35.734707	0.000233	2.332466	0.790261	0.000093
1774	1.7641e+02	-9.3639	-35.605519	0.000325	3.245170	1.099493	0.000130
1775	1.7651e+02	-9.3158	-35.476330	0.000325	3.245170	1.099493	0.000130
1776	1.7661e+02	-9.2741	-35.395588	0.000203	2.028231	0.687183	0.000081
1777	1.7671e+02	-9.2340	-35.318882	0.000193	1.926820	0.652824	0.000077
1778	1.7681e+02	-9.1923	-35.169508	0.000375	3.752228	1.271289	0.000150
1779	1.7691e+02	-9.1602	-35.064542	0.000264	2.636701	0.893338	0.000105
1780	1.7701e+02	-9.1120	-34.935354	0.000325	3.245170	1.099493	0.000130
1781	1.7711e+02	-9.0800	-34.854611	0.000203	2.028231	0.687183	0.000081
1782	1.7721e+02	-9.0415	-34.697163	0.000396	3.955051	1.340008	0.000158
1783	1.7731e+02	-9.0030	-34.608346	0.000223	2.231055	0.755902	0.000089
1784	1.7741e+02	-8.9500	-34.458972	0.000375	3.752228	1.271289	0.000150
1785	1.7751e+02	-8.9147	-34.378229	0.000203	2.028231	0.687183	0.000081
1786	1.7761e+02	-8.8778	-34.253078	0.000314	3.143759	1.065134	0.000126
1787	1.7771e+02	-8.8393	-34.140038	0.000284	2.839524	0.962057	0.000114
1788	1.7781e+02	-8.7960	-34.051221	0.000223	2.231055	0.755902	0.000089
1789	1.7791e+02	-8.7591	-33.909922	0.000355	3.549405	1.202571	0.000142
1790	1.7801e+02	-8.7078	-33.792845	0.000294	2.940935	0.996416	0.000118
1791	1.7810e+02	-8.6741	-33.631359	0.000406	4.056463	1.374367	0.000162
1792	1.7820e+02	-8.6388	-33.534468	0.000243	2.433878	0.824620	0.000097
1793	1.7830e+02	-8.5939	-33.502171	0.000081	0.811293	0.274873	0.000032
1794	1.7840e+02	-8.5618	-33.381057	0.000304	3.042347	1.030775	0.000122
1795	1.7850e+02	-8.5201	-33.235720	0.000365	3.650816	1.236930	0.000146
1796	1.7860e+02	-8.4800	-33.134792	0.000254	2.535289	0.858979	0.000101
1797	1.7870e+02	-8.4463	-33.025789	0.000274	2.738112	0.927698	0.000110
1798	1.7880e+02	-8.4078	-32.908712	0.000294	2.940935	0.996416	0.000118
1799	1.7890e+02	-8.3661	-32.795672	0.000284	2.839524	0.962057	0.000114
1800	1.7900e+02	-8.3147	-32.666484	0.000325	3.245170	1.099493	0.000130
1801	1.7910e+02	-8.2810	-32.589778	0.000193	1.926820	0.652824	0.000077
1802	1.7920e+02	-8.2297	-32.484813	0.000264	2.636701	0.893338	0.000105
1803	1.7930e+02	-8.1976	-32.339476	0.000365	3.650816	1.236930	0.000146
1804	1.7940e+02	-8.1623	-32.238547	0.000254	2.535289	0.858979	0.000101
1805	1.7950e+02	-8.1174	-32.101285	0.000345	3.447993	1.168212	0.000138
1806	1.7960e+02	-8.0805	-31.964022	0.000345	3.447993	1.168212	0.000138
1807	1.7970e+02	-8.0549	-31.883279	0.000203	2.028231	0.687183	0.000081
1808	1.7980e+02	-8.0003	-31.758128	0.000314	3.143759	1.065134	0.000126
1809	1.7990e+02	-7.9538	-31.612791	0.000365	3.650816	1.236930	0.000146
1810	1.8000e+02	-7.9233	-31.572420	0.000101	1.014116	0.343592	0.000041
1811	1.8009e+02	-7.8800	-31.410935	0.000406	4.056463	1.374367	0.000162
1812	1.8019e+02	-7.8367	-31.322118	0.000223	2.231055	0.755902	0.000089
1813	1.8029e+02	-7.8062	-31.184855	0.000345	3.447993	1.168212	0.000138
1814	1.8039e+02	-7.7629	-31.104112	0.000203	2.028231	0.687183	0.000081
1815	1.8049e+02	-7.7180	-30.950701	0.000385	3.853640	1.305648	0.000154
1816	1.8059e+02	-7.6843	-30.853810	0.000243	2.433878	0.824620	0.000097
1817	1.8069e+02	-7.6329	-30.712510	0.000355	3.549405	1.202571	0.000142
1818	1.8079e+02	-7.5993	-30.635805	0.000193	1.926820	0.652824	0.000077
1819	1.8089e+02	-7.5656	-30.506616	0.000325	3.245170	1.099493	0.000130
1820	1.8099e+02	-7.5206	-30.401651	0.000264	2.636701	0.893338	0.000105
1821	1.8109e+02	-7.4886	-30.280537	0.000304	3.042347	1.030775	0.000122
1822	1.8119e+02	-7.4533	-30.155385	0.000314	3.143759	1.065134	0.000126
1823	1.8129e+02	-7.4051	-30.034271	0.000304	3.042347	1.030775	0.000122
1824	1.8139e+02	-7.3682	-29.937380	0.000243	2.433878	0.824620	0.000097
1825	1.8149e+02	-7.3249	-29.828377	0.000274	2.738112	0.927698	0.000110
1826	1.8159e+02	-7.2880	-29.658818	0.000426	4.259286	1.443085	0.000170
1827	1.8169e+02	-7.2367	-29.549815	0.000274	2.738112	0.927698	0.000110
1828	1.8179e+02	-7.1966	-29.477147	0.000183	1.825408	0.618465	0.000073
1829	1.8189e+02	-7.1693	-29.327773	0.000375	3.752228	1.271289	0.000150
1830	1.8199e+02	-7.1212	-29.230881	0.000243	2.433878	0.824620	0.000097
1831	1.8209e+02	-7.0875	-29.121879	0.000274	2.738112	0.927698	0.000110
1832	1.8218e+02	-7.0378	-29.033062	0.000223	2.231055	0.755902	0.000089
1833	1.8228e+02	-7.0041	-28.903873	0.000325	3.245170	1.099493	0.000130
1834	1.8238e+02	-6.9576	-28.758536	0.000365	3.650816	1.236930	0.000146
1835	1.8248e+02	-6.9223	-28.653571	0.000264	2.636701	0.893338	0.000105
1836	1.8258e+02	-6.8838	-28.548605	0.000264	2.636701	0.893338	0.000105
1837	1.8268e+02	-6.8453	-28.395194	0.000385	3.853640	1.305648	0.000154
1838	1.8278e+02	-6.8019	-28.294266	0.000254	2.535289	0.858979	0.000101
1839	1.8288e+02	-6.7618	-28.189300	0.000264	2.636701	0.893338	0.000105
1840	1.8298e+02	-6.7169	-28.031852	0.000396	3.955051	1.340008	0.000158
1841	1.8308e+02	-6.6913	-27.943035	0.000223	2.231055	0.755902	0.000089
1842	1.8318e+02	-6.6479	-27.809810	0.000335	3.346582	1.133853	0.000134
1843	1.8328e+02	-6.6014	-27.672547	0.000345	3.447993	1.168212	0.000138
1844	1.8338e+02	-6.5741	-27.547396	0.000314	3.143759	1.065134	0.000126
1845	1.8348e+02	-6.5292	-27.414170	0.000335	3.346582	1.133853	0.000134
1846	1.8358e+02	-6.4891	-27.293056	0.000304	3.042347	1.030775	0.000122
1847	1.8368e+02	-6.4394	-27.175979	0.000294	2.940935	0.996416	0.000118
1848	1.8378e+02	-6.4105	-27.127534	0.000122	1.216939	0.412310	0.000049
1849	1.8388e+02	-6.3656	-26.994308	0.000335	3.346582	1.133853	0.000134
1850	1.8398e+02	-6.3255	-26.885305	0.000274	2.738112	0.927698	0.000110
1851	1.8407e+02	-6.2918	-26.756117	0.000325	3.245170	1.099493	0.000130
1852	1.8417e+02	-6.2485	-26.679412	0.000193	1.926820	0.652824	0.000077
1853	1.8427e+02	-6.2100	-26.554260	0.000314	3.143759	1.065134	0.000126
1854	1.8437e+02	-6.1667	-26.416998	0.000345	3.447993	1.168212	0.000138
1855	1.8447e+02	-6.1282	-26.295884	0.000304	3.042347	1.030775	0.000122
1856	1.8457e+02	-6.0913	-26.158621	0.000345	3.447993	1.168212	0.000138
1857	1.8467e+02	-6.0447	-26.089990	0.000172	1.723997	0.584106	0.000069
1858	1.8477e+02	-6.0095	-25.940616	0.000375	3.752228	1.271289	0.000150
1859	1.8487e+02	-5.9758	-25.775093	0.000416	4.157874	1.408726	0.000166
1860	1.8497e+02	-5.9292	-25.714536	0.000152	1.521174	0.515388	0.000061
1861	1.8507e+02	-5.8940	-25.557088	0.000396	3.955051	1.340008	0.000158
1862	1.8517e+02	-5.8538	-25.427899	0.000325	3.245170	1.099493	0.000130
1863	1.8527e+02	-5.8073	-25.290637	0.000345	3.447993	1.168212	0.000138
1864	1.8537e+02	-5.7656	-25.165486	0.000314	3.143759	1.065134	0.000126
1865	1.8547e+02	-5.7303	-25.072632	0.000233	2.332466	0.790261	0.000093
1866	1.8557e+02	-5.6934	-24.999963	0.000183	1.825408	0.618465	0.000073
1867	1.8567e+02	-5.6613	-24.846552	0.000385	3.853640	1.305648	0.000154
1868	1.8577e+02	-5.6084	-24.749661	0.000243	2.433878	0.824620	0.000097
1869	1.8587e+02	-5.5715	-24.612398	0.000345	3.447993	1.168212	0.000138
1870	1.8597e+02	-5.5314	-24.487247	0.000314	3.143759	1.065134	0.000126
1871	1.8606e+02	-5.4961	-24.390356	0.000243	2.433878	0.824620	0.000097
1872	1.8616e+02	-5.4480	-24.249056	0.000355	3.549405	1.202571	0.000142
1873	1.8626e+02	-5.4111	-24.123905	0.000314	3.143759	1.065134	0.000126
1874	1.8636e+02	-5.3662	-23.990679	0.000335	3.346582	1.133853	0.000134
1875	1.8646e+02	-5.3325	-23.873602	0.000294	2.940935	0.996416	0.000118
1876	1.8656e+02	-5.2924	-23.764600	0.000274	2.738112	0.927698	0.000110
1877	1.8666e+02	-5.2507	-23.623300	0.000355	3.549405	1.202571	0.000142
1878	1.8676e+02	-5.2170	-23.546594	0.000193	1.926820	0.652824	0.000077
1879	1.8686e+02	-5.1753	-23.372997	0.000436	4.360697	1.477444	0.000174
1880	1.8696e+02	-5.1287	-23.223623	0.000375	3.752228	1.271289	0.000150
1881	1.8706e+02	-5.0902	-23.134806	0.000223	2.231055	0.755902	0.000089
1882	1.8716e+02	-5.0501	-23.009655	0.000314	3.143759	1.065134	0.000126
1883	1.8726e+02	-5.0212	-22.840095	0.000426	4.259286	1.443085	0.000170
1884	1.8736e+02	-4.9763	-22.731093	0.000274	2.738112	0.927698	0.000110
1885	1.8746e+02	-4.9346	-22.618053	0.000284	2.839524	0.962057	0.000114
1886	1.8756e+02	-4.8929	-22.529236	0.000223	2.231055	0.755902	0.000089
1887	1.8766e+02	-4.8576	-22.363713	0.000416	4.157874	1.408726	0.000166
1888	1.8776e+02	-4.8223	-22.266822	0.000243	2.433878	0.824620	0.000097
1889	1.8786e+02	-4.7774	-22.141671	0.000314	3.143759	1.065134	0.000126
1890	1.8796e+02	-4.7309	-21.988260	0.000385	3.853640	1.305648	0.000154
1891	1.8806e+02	-4.6972	-21.891369	0.000243	2.433878	0.824620	0.000097
1892	1.8815e+02	-4.6539	-21.737957	0.000385	3.853640	1.305648	0.000154
1893	1.8825e+02	-4.6154	-21.628955	0.000274	2.738112	0.927698	0.000110
1894	1.8835e+02	-4.5737	-21.536101	0.000233	2.332466	0.790261	0.000093
1895	1.8845e+02	-4.5304	-21.419024	0.000294	2.940935	0.996416	0.000118
1896	1.8855e+02	-4.4983	-21.310021	0.000274	2.738112	0.927698	0.000110
1897	1.8865e+02	-4.4662	-21.092016	0.000548	5.476225	1.855395	0.000219
1898	1.8875e+02	-4.4084	-20.991087	0.000254	2.535289	0.858979	0.000101
1899	1.8885e+02	-4.3747	-20.878047	0.000284	2.839524	0.962057	0.000114
1900	1.8895e+02	-4.3394	-20.724636	0.000385	3.853640	1.305648	0.000154
1901	1.8905e+02	-4.3009	-20.603522	0.000304	3.042347	1.030775	0.000122
1902	1.8915e+02	-4.2624	-20.490482	0.000284	2.839524	0.962057	0.000114
1903	1.8925e+02	-4.2143	-20.369368	0.000304	3.042347	1.030775	0.000122
1904	1.8935e+02	-4.1742	-20.232106	0.000345	3.447993	1.168212	0.000138
1905	1.8945e+02	-4.1293	-20.151363	0.000203	2.028231	0.687183	0.000081
1906	1.8955e+02	-4.1068	-20.038323	0.000284	2.839524	0.962057	0.000114
1907	1.8965e+02	-4.0667	-19.921246	0.000294	2.940935	0.996416	0.000118
1908	1.8975e+02	-4.0218	-19.763798	0.000396	3.955051	1.340008	0.000158
1909	1.8985e+02	-3.9769	-19.630573	0.000335	3.346582	1.133853	0.000134
1910	1.8995e+02	-3.9400	-19.509458	0.000304	3.042347	1.030775	0.000122
1911	1.9004e+02	-3.8967	-19.376233	0.000335	3.346582	1.133853	0.000134
1912	1.9014e+02	-3.8534	-19.287416	0.000223	2.231055	0.755902	0.000089
1913	1.9024e+02	-3.8213	-19.142079	0.000365	3.650816	1.236930	0.000146
1914	1.9034e+02	-3.7828	-18.988668	0.000385	3.853640	1.305648	0.000154
1915	1.9044e+02	-3.7507	-18.859480	0.000325	3.245170	1.099493	0.000130
1916	1.9054e+02	-3.6962	-18.734328	0.000314	3.143759	1.065134	0.000126
1917	1.9064e+02	-3.6657	-18.601103	0.000335	3.346582	1.133853	0.000134
1918	1.9074e+02	-3.6288	-18.463840	0.000345	3.447993	1.168212	0.000138
1919	1.9084e+02	-3.5710	-18.334652	0.000325	3.245170	1.099493	0.000130
1920	1.9094e+02	-3.5454	-18.181241	0.000385	3.853640	1.305648	0.000154
1921	1.9104e+02	-3.4988	-18.088387	0.000233	2.332466	0.790261	0.000093
1922	1.9114e+02	-3.4587	-17.995533	0.000233	2.332466	0.790261	0.000093
1923	1.9124e+02	-3.4250	-17.830010	0.000416	4.157874	1.408726	0.000166
1924	1.9134e+02	-3.3721	-17.729082	0.000254	2.535289	0.858979	0.000101
1925	1.9144e+02	-3.3464	-17.607968	0.000304	3.042347	1.030775	0.000122
1926	1.9154e+02	-3.3095	-17.470705	0.000345	3.447993	1.168212	0.000138
1927	1.9164e+02	-3.2646	-17.325368	0.000365	3.650816	1.236930	0.000146
1928	1.9174e+02	-3.2197	-17.240588	0.000213	2.129643	0.721543	0.000085
1929	1.9184e+02	-3.1748	-17.091214	0.000375	3.752228	1.271289	0.000150
1930	1.9194e+02	-3.1459	-16.957989	0.000335	3.346582	1.133853	0.000134
1931	1.9203e+02	-3.1026	-16.857060	0.000254	2.535289	0.858979	0.000101
1932	1.9213e+02	-3.0673	-16.671352	0.000466	4.664932	1.580522	0.000187
1933	1.9223e+02	-3.0256	-16.598684	0.000183	1.825408	0.618465	0.000073
1934	1.9233e+02	-2.9871	-16.457384	0.000355	3.549405	1.202571	0.000142
1935	1.9243e+02	-2.9454	-16.320121	0.000345	3.447993	1.168212	0.000138
1936	1.9253e+02	-2.9037	-16.178821	0.000355	3.549405	1.202571	0.000142
1937	1.9263e+02	-2.8620	-16.009262	0.000426	4.259286	1.443085	0.000170
1938	1.9273e+02	-2.8315	-15.924482	0.000213	2.129643	0.721543	0.000085
1939	1.9283e+02	-2.7753	-15.750885	0.000436	4.360697	1.477444	0.000174
1940	1.9293e+02	-2.7416	-15.706477	0.000112	1.115527	0.377951	0.000045
1941	1.9303e+02	-2.6967	-15.512694	0.000487	4.867755	1.649240	0.000195
1942	1.9313e+02	-2.6646	-15.395617	0.000294	2.940935	0.996416	0.000118
1943	1.9323e+02	-2.6229	-15.286614	0.000274	2.738112	0.927698	0.000110
1944	1.9333e+02	-2.5828	-15.201835	0.000213	2.129643	0.721543	0.000085
1945	1.9343e+02	-2.5539	-15.044386	0.000396	3.955051	1.340008	0.000158
1946	1.9353e+02	-2.4994	-14.927309	0.000294	2.940935	0.996416	0.000118
1947	1.9363e+02	-2.4673	-14.806195	0.000304	3.042347	1.030775	0.000122
1948	1.9373e+02	-2.4320	-14.640673	0.000416	4.157874	1.408726	0.000166
1949	1.9383e+02	-2.3999	-14.519559	0.000304	3.042347	1.030775	0.000122
1950	1.9393e+02	-2.3470	-14.378259	0.000355	3.549405	1.202571	0.000142
1951	1.9403e+02	-2.3085	-14.257145	0.000304	3.042347	1.030775	0.000122
1952	1.9412e+02	-2.2732	-14.127957	0.000325	3.245170	1.099493	0.000130
1953	1.9422e+02	-2.2299	-14.018954	0.000274	2.738112	0.927698	0.000110
1954	1.9432e+02	-2.1850	-13.865543	0.000385	3.853640	1.305648	0.000154
1955	1.9442e+02	-2.1513	-13.708094	0.000396	3.955051	1.340008	0.000158
1956	1.9452e+02	-2.1080	-13.566795	0.000355	3.549405	1.202571	0.000142
1957	1.9462e+02	-2.0743	-13.429532	0.000345	3.447993	1.168212	0.000138
1958	1.9472e+02	-2.0326	-13.300344	0.000325	3.245170	1.099493	0.000130
1959	1.9482e+02	-1.9844	-13.195378	0.000264	2.636701	0.893338	0.000105
1960	1.9492e+02	-1.9491	-13.106561	0.000223	2.231055	0.755902	0.000089
1961	1.9502e+02	-1.8978	-12.945076	0.000406	4.056463	1.374367	0.000162
1962	1.9512e+02	-1.8609	-12.872407	0.000183	1.825408	0.618465	0.000073
1963	1.9522e+02	-1.8336	-12.718996	0.000385	3.853640	1.305648	0.000154
1964	1.9532e+02	-1.7871	-12.577696	0.000355	3.549405	1.202571	0.000142
1965	1.9542e+02	-1.7502	-12.456582	0.000304	3.042347	1.030775	0.000122
1966	1.9552e+02	-1.7085	-12.323357	0.000335	3.346582	1.133853	0.000134
1967	1.9562e+02	-1.6700	-12.165909	0.000396	3.955051	1.340008	0.000158
1968	1.9572e+02	-1.6347	-12.048832	0.000294	2.940935	0.996416	0.000118
1969	1.9582e+02	-1.5946	-11.943866	0.000264	2.636701	0.893338	0.000105
1970	1.9592e+02	-1.5401	-11.842938	0.000254	2.535289	0.858979	0.000101
1971	1.9601e+02	-1.5224	-11.697601	0.000365	3.650816	1.236930	0.000146
1972	1.9611e+02	-1.4711	-11.588598	0.000274	2.738112	0.927698	0.000110
1973	1.9621e+02	-1.4278	-11.415001	0.000436	4.360697	1.477444	0.000174
1974	1.9631e+02	-1.3925	-11.273702	0.000355	3.549405	1.202571	0.000142
1975	1.9641e+02	-1.3572	-11.108179	0.000416	4.157874	1.408726	0.000166
1976	1.9651e+02	-1.3107	-11.023399	0.000213	2.129643	0.721543	0.000085
1977	1.9661e+02	-1.2706	-10.833654	0.000477	4.766344	1.614881	0.000191
1978	1.9671e+02	-1.2240	-10.744837	0.000223	2.231055	0.755902	0.000089
1979	1.9681e+02	-1.1919	-10.651983	0.000233	2.332466	0.790261	0.000093
1980	1.9691e+02	-1.1422	-10.530869	0.000304	3.042347	1.030775	0.000122
1981	1.9701e+02	-1.1117	-10.385532	0.000365	3.650816	1.236930	0.000146
1982	1.9711e+02	-1.0780	-10.268455	0.000294	2.940935	0.996416	0.000118
1983	1.9721e+02	-1.0267	-10.135229	0.000335	3.346582	1.133853	0.000134
1984	1.9731e+02	-0.9946	-10.022189	0.000284	2.839524	0.962057	0.000114
1985	1.9741e+02	-0.9497	-9.893001	0.000325	3.245170	1.099493	0.000130
1986	1.9751e+02	-0.9144	-9.759776	0.000335	3.346582	1.133853	0.000134
1987	1.9761e+02	-0.8599	-9.602327	0.000396	3.955051	1.340008	0.000158
1988	1.9771e+02	-0.8470	-9.477176	0.000314	3.143759	1.065134	0.000126
1989	1.9781e+02	-0.7909	-9.364136	0.000284	2.839524	0.962057	0.000114
1990	1.9791e+02	-0.7444	-9.182465	0.000456	4.563521	1.546163	0.000183
1991	1.9800e+02	-0.7091	-9.053277	0.000325	3.245170	1.099493	0.000130
1992	1.9810e+02	-0.6738	-8.932163	0.000304	3.042347	1.030775	0.000122
1993	1.9820e+02	-0.6353	-8.786826	0.000365	3.650816	1.236930	0.000146
1994	1.9830e+02	-0.5920	-8.649563	0.000345	3.447993	1.168212	0.000138
1995	1.9840e+02	-0.5535	-8.500189	0.000375	3.752228	1.271289	0.000150
1996	1.9850e+02	-0.5118	-8.395224	0.000264	2.636701	0.893338	0.000105
1997	1.9860e+02	-0.4716	-8.274110	0.000304	3.042347	1.030775	0.000122
1998	1.9870e+02	-0.4315	-8.128773	0.000365	3.650816	1.236930	0.000146
1999	1.9880e+02	-0.3962	-7.979399	0.000375	3.752228	1.271289	0.000150
2000	1.9890e+02	-0.3545	-7.898656	0.000203	2.028231	0.687183	0.000081
2001	1.9900e+02	-0.3112	-7.741208	0.000396	3.955051	1.340008	0.000158
2002	1.9910e+02	-0.2807	-7.644317	0.000243	2.433878	0.824620	0.000097
2003	1.9920e+02	-0.2310	-7.482831	0.000406	4.056463	1.374367	0.000162
2004	1.9930e+02	-0.1973	-7.333457	0.000375	3.752228	1.271289	0.000150
2005	1.9940e+02	-0.1492	-7.268863	0.000162	1.622585	0.549747	0.000065
2006	1.9950e+02	-0.1187	-7.103340	0.000416	4.157874	1.408726	0.000166
2007	1.9960e+02	-0.0786	-6.982226	0.000304	3.042347	1.030775	0.000122
2008	1.9970e+02	-0.0401	-6.804592	0.000446	4.462109	1.511803	0.000179
2009	1.9980e+02	0.0016	-6.695590	0.000446	4.462109	1.511803	0.000110

PMax (uC/cm2):	6.55e+01
Pr (uC/cm2):	2.51e+00
-Pr (uC/cm2):	-2.46e+00
PLoss (uC/cm2):	-2.43e+00
-Vc:	-7.51e-01
C (Max-Eff) (nF):	3.27e-01
K (Eff):	1.11e+03
Vert. (+/-Pr) Shift (uC/cm2):	2.42e-02
Offset (uC/cm2):	4.24e+00

A (Loop Area - uC/cm2·Volts):	3.54e-03



Hysteresis Version: 5.48.1 - Radiant Technologies, Inc., 1999 - 9/12/24

