»»»»»»»»»»»»»»»»»»»»»»»»»»»»»»»»»»»» Hysteresis ««««««««««««««««««««««««««««««««««««
»»»  Executed Version:	5.48.1
»»»  Vision Version:	5.48.4 (R)
»»»  Vision Compiled:	9/18/24
»»»  Driver Version:	5.47.0
»»»  Windows Version:	Windows 8 or 8.1
»»»  Processor Information:	x86 (AMD or Intel) - 32 Processors
»»»  Tester Name:	PMF21124-494 (100V)
»»»  Tester S/N:	PMF21124-494
»»»  Internal Amp Type:	100V RevK 270k
»»»  Internal Amp S/N:	iAB2-596/K     
»»»  Execution Count:	1
»»»»»»»»»»»»»»»»»»»»»»»»»»»»»»»»»»»»»»»»»»««««««««««««««««««««««««««««««««««««««««««

Stored:	6/19/2025 - 17:47:31
Configured:	06/19/25 10:04:32 AM
Executed:	06/19/25 05:47:09 PM

»»»»»»»»»»»»»»»»»»»»»»»»»»»»»»»»»»» Sample Info ««««««««««««««««««««««««««««««««««««
Sample Name:	
Lot Name:	
Wafer Name:	
Die Row/Column:	0/0
Capacitor Number:	0
Sample Area (cm2):	1.00e-04
Sample Thickness (microns):	3.00e-01

Amplifier:	Internal

»»»»»»»»»»»»»»»»»»»»»»»»»»»»»»»»»»» Tester Info «««««««««««««««««««««««««««««««««««
Tester Name:	PMF21124-494 (100V)
Tester Serial Number:	PMF21124-494
Return Signal Amp. Level:	0.19 [Index: 3]

»»»»»»»»»»»»»»»»»»»»»»»»»»»»»»»» Hysteresis Info ««««««««««««««««««««««««««««««««««
Task Name:	Hyst-1168
Volts:	20.00
Field:	666.67 (kV/cm)
DCBias:	0.00
DCField:	0.00 (kV/cm)
Hysteresis Period (ms):	2.00e+02
Preset:	Enabled
Preset Delay (ms):	1.00e+03
Profile:	Standard Bipolar

»»»»»»»»»»»»»»»»»»»»»»»»»»»»»»»»»»»»»» Data «««««««««««««««««««««««««««««««««««««««
Points:	2009

Valid Data

Point	Time (ms)	Drive Voltage	Measured Polarization (uC/cm2)	Capacitance (uF)	Normalized Capacitance (uF/cm2)	Dielectric Constant	Instantaneous Current (mA)
   1	0.0000e+00	0.0128	-4.487276	0.000162	1.622129	0.549592	0.000065
   2	9.9500e-02	0.0353	-4.422682	0.000162	1.622129	0.549592	0.000065
   3	1.9900e-01	0.0914	-4.293494	0.000324	3.244259	1.099185	0.000130
   4	2.9850e-01	0.1187	-4.140083	0.000385	3.852557	1.305282	0.000154
   5	3.9800e-01	0.1604	-4.039154	0.000253	2.534577	0.858738	0.000101
   6	4.9750e-01	0.1925	-3.922077	0.000294	2.940109	0.996136	0.000118
   7	5.9700e-01	0.2422	-3.809038	0.000284	2.838726	0.961787	0.000114
   8	6.9650e-01	0.2791	-3.716183	0.000233	2.331811	0.790039	0.000093
   9	7.9600e-01	0.3208	-3.599107	0.000294	2.940109	0.996136	0.000118
  10	8.9550e-01	0.3577	-3.461844	0.000345	3.447025	1.167884	0.000138
  11	9.9500e-01	0.3995	-3.356878	0.000264	2.635960	0.893087	0.000105
  12	1.0945e+00	0.4347	-3.175207	0.000456	4.562239	1.545728	0.000183
  13	1.1940e+00	0.4636	-3.066205	0.000274	2.737343	0.927437	0.000110
  14	1.2935e+00	0.5150	-2.937016	0.000324	3.244259	1.099185	0.000130
  15	1.3930e+00	0.5454	-2.811865	0.000314	3.142876	1.064835	0.000126
  16	1.4925e+00	0.5743	-2.670565	0.000355	3.548408	1.202233	0.000142
  17	1.5920e+00	0.6401	-2.565600	0.000264	2.635960	0.893087	0.000105
  18	1.6915e+00	0.6690	-2.416226	0.000375	3.751174	1.270932	0.000150
  19	1.7910e+00	0.7107	-2.291075	0.000314	3.142876	1.064835	0.000126
  20	1.8905e+00	0.7588	-2.169960	0.000304	3.041493	1.030486	0.000122
  21	1.9900e+00	0.7957	-2.052884	0.000294	2.940109	0.996136	0.000118
  22	2.0895e+00	0.8310	-1.899472	0.000385	3.852557	1.305282	0.000154
  23	2.1890e+00	0.8711	-1.782395	0.000294	2.940109	0.996136	0.000118
  24	2.2885e+00	0.9112	-1.701653	0.000203	2.027662	0.686990	0.000081
  25	2.3880e+00	0.9433	-1.548242	0.000385	3.852557	1.305282	0.000154
  26	2.4875e+00	0.9946	-1.439239	0.000274	2.737343	0.927437	0.000110
  27	2.5870e+00	1.0299	-1.326199	0.000284	2.838726	0.961787	0.000114
  28	2.6865e+00	1.0716	-1.156639	0.000426	4.258090	1.442680	0.000170
  29	2.7860e+00	1.1149	-1.067822	0.000223	2.230428	0.755689	0.000089
  30	2.8855e+00	1.1550	-0.898263	0.000426	4.258090	1.442680	0.000170
  31	2.9850e+00	1.1903	-0.748889	0.000375	3.751174	1.270932	0.000150
  32	3.0845e+00	1.2353	-0.676220	0.000182	1.824896	0.618291	0.000073
  33	3.1840e+00	1.2706	-0.502623	0.000436	4.359473	1.477029	0.000174
  34	3.2835e+00	1.3155	-0.377472	0.000314	3.142876	1.064835	0.000126
  35	3.3830e+00	1.3492	-0.292692	0.000213	2.129045	0.721340	0.000085
  36	3.4825e+00	1.3877	-0.111021	0.000456	4.562239	1.545728	0.000183
  37	3.5820e+00	1.4278	0.022204	0.000335	3.345642	1.133534	0.000134
  38	3.6815e+00	1.4679	0.131207	0.000274	2.737343	0.927437	0.000110
  39	3.7810e+00	1.5192	0.240210	0.000274	2.737343	0.927437	0.000110
  40	3.8805e+00	1.5561	0.377472	0.000345	3.447025	1.167884	0.000138
  41	3.9800e+00	1.5994	0.530883	0.000385	3.852557	1.305282	0.000154
  42	4.0795e+00	1.6187	0.619700	0.000223	2.230428	0.755689	0.000089
  43	4.1790e+00	1.6652	0.777149	0.000395	3.953940	1.339631	0.000158
  44	4.2785e+00	1.7037	0.874040	0.000243	2.433194	0.824388	0.000097
  45	4.3780e+00	1.7550	0.970931	0.000243	2.433194	0.824388	0.000097
  46	4.4775e+00	1.8016	1.096082	0.000314	3.142876	1.064835	0.000126
  47	4.5770e+00	1.8272	1.253531	0.000395	3.953940	1.339631	0.000158
  48	4.6765e+00	1.8737	1.406942	0.000385	3.852557	1.305282	0.000154
  49	4.7760e+00	1.9058	1.588613	0.000456	4.562239	1.545728	0.000183
  50	4.8755e+00	1.9491	1.697616	0.000274	2.737343	0.927437	0.000110
  51	4.9750e+00	1.9860	1.810655	0.000284	2.838726	0.961787	0.000114
  52	5.0745e+00	2.0358	1.972141	0.000406	4.055323	1.373981	0.000162
  53	5.1740e+00	2.0711	2.093255	0.000304	3.041493	1.030486	0.000122
  54	5.2735e+00	2.1096	2.194183	0.000253	2.534577	0.858738	0.000101
  55	5.3730e+00	2.1433	2.367780	0.000436	4.359473	1.477029	0.000174
  56	5.4725e+00	2.1914	2.480820	0.000284	2.838726	0.961787	0.000114
  57	5.5720e+00	2.2315	2.597897	0.000294	2.940109	0.996136	0.000118
  58	5.6715e+00	2.2764	2.743234	0.000365	3.649791	1.236583	0.000146
  59	5.7710e+00	2.3069	2.912793	0.000426	4.258090	1.442680	0.000170
  60	5.8705e+00	2.3422	3.009685	0.000243	2.433194	0.824388	0.000097
  61	5.9700e+00	2.3903	3.118687	0.000274	2.737343	0.927437	0.000110
  62	6.0695e+00	2.4288	3.280173	0.000406	4.055323	1.373981	0.000162
  63	6.1690e+00	2.4689	3.405324	0.000314	3.142876	1.064835	0.000126
  64	6.2685e+00	2.5138	3.542587	0.000345	3.447025	1.167884	0.000138
  65	6.3680e+00	2.5459	3.683886	0.000355	3.548408	1.202233	0.000142
  66	6.4675e+00	2.5940	3.829223	0.000365	3.649791	1.236583	0.000146
  67	6.5670e+00	2.6293	3.962449	0.000335	3.345642	1.133534	0.000134
  68	6.6665e+00	2.6743	4.063377	0.000253	2.534577	0.858738	0.000101
  69	6.7660e+00	2.7079	4.212751	0.000375	3.751174	1.270932	0.000150
  70	6.8655e+00	2.7432	4.382311	0.000426	4.258090	1.442680	0.000170
  71	6.9650e+00	2.7898	4.519573	0.000345	3.447025	1.167884	0.000138
  72	7.0645e+00	2.8283	4.632613	0.000284	2.838726	0.961787	0.000114
  73	7.1640e+00	2.8587	4.794099	0.000406	4.055323	1.373981	0.000162
  74	7.2635e+00	2.9085	4.866767	0.000182	1.824896	0.618291	0.000073
  75	7.3630e+00	2.9454	5.056513	0.000477	4.765005	1.614427	0.000191
  76	7.4625e+00	2.9871	5.197812	0.000355	3.548408	1.202233	0.000142
  77	7.5620e+00	3.0272	5.294704	0.000243	2.433194	0.824388	0.000097
  78	7.6615e+00	3.0657	5.476375	0.000456	4.562239	1.545728	0.000183
  79	7.7610e+00	3.1170	5.561154	0.000213	2.129045	0.721340	0.000085
  80	7.8605e+00	3.1459	5.682269	0.000304	3.041493	1.030486	0.000122
  81	7.9600e+00	3.1860	5.823568	0.000355	3.548408	1.202233	0.000142
  82	8.0595e+00	3.2261	5.948720	0.000314	3.142876	1.064835	0.000126
  83	8.1590e+00	3.2710	6.102131	0.000385	3.852557	1.305282	0.000154
  84	8.2585e+00	3.3031	6.251505	0.000375	3.751174	1.270932	0.000150
  85	8.3580e+00	3.3496	6.380693	0.000324	3.244259	1.099185	0.000130
  86	8.4575e+00	3.3849	6.489696	0.000274	2.737343	0.927437	0.000110
  87	8.5570e+00	3.4234	6.675404	0.000466	4.663622	1.580078	0.000187
  88	8.6565e+00	3.4667	6.816704	0.000355	3.548408	1.202233	0.000142
  89	8.7560e+00	3.5101	6.953966	0.000345	3.447025	1.167884	0.000138
  90	8.8555e+00	3.5357	7.087192	0.000335	3.345642	1.133534	0.000134
  91	8.9550e+00	3.5758	7.228492	0.000355	3.548408	1.202233	0.000142
  92	9.0545e+00	3.6272	7.365754	0.000345	3.447025	1.167884	0.000138
  93	9.1540e+00	3.6641	7.511091	0.000365	3.649791	1.236583	0.000146
  94	9.2535e+00	3.7042	7.640279	0.000324	3.244259	1.099185	0.000130
  95	9.3530e+00	3.7459	7.773505	0.000335	3.345642	1.133534	0.000134
  96	9.4525e+00	3.7844	7.918842	0.000365	3.649791	1.236583	0.000146
  97	9.5520e+00	3.8229	8.048030	0.000324	3.244259	1.099185	0.000130
  98	9.6515e+00	3.8582	8.165107	0.000294	2.940109	0.996136	0.000118
  99	9.7510e+00	3.8951	8.290258	0.000314	3.142876	1.064835	0.000126
 100	9.8505e+00	3.9464	8.447707	0.000395	3.953940	1.339631	0.000158
 101	9.9500e+00	3.9865	8.593043	0.000365	3.649791	1.236583	0.000146
 102	1.0050e+01	4.0202	8.706083	0.000284	2.838726	0.961787	0.000114
 103	1.0149e+01	4.0603	8.871606	0.000416	4.156706	1.408330	0.000166
 104	1.0248e+01	4.1100	8.976571	0.000264	2.635960	0.893087	0.000105
 105	1.0348e+01	4.1469	9.121908	0.000365	3.649791	1.236583	0.000146
 106	1.0447e+01	4.1870	9.295505	0.000436	4.359473	1.477029	0.000174
 107	1.0547e+01	4.2320	9.408545	0.000284	2.838726	0.961787	0.000114
 108	1.0646e+01	4.2560	9.529659	0.000304	3.041493	1.030486	0.000122
 109	1.0746e+01	4.3090	9.683070	0.000385	3.852557	1.305282	0.000154
 110	1.0845e+01	4.3427	9.824370	0.000355	3.548408	1.202233	0.000142
 111	1.0945e+01	4.3780	9.969707	0.000365	3.649791	1.236583	0.000146
 112	1.1044e+01	4.4229	10.115044	0.000365	3.649791	1.236583	0.000146
 113	1.1144e+01	4.4550	10.260380	0.000365	3.649791	1.236583	0.000146
 114	1.1243e+01	4.4983	10.401680	0.000355	3.548408	1.202233	0.000142
 115	1.1343e+01	4.5368	10.494534	0.000233	2.331811	0.790039	0.000093
 116	1.1443e+01	4.5849	10.639871	0.000365	3.649791	1.236583	0.000146
 117	1.1542e+01	4.6282	10.805394	0.000416	4.156706	1.408330	0.000166
 118	1.1642e+01	4.6603	10.930545	0.000314	3.142876	1.064835	0.000126
 119	1.1741e+01	4.6972	11.059733	0.000324	3.244259	1.099185	0.000130
 120	1.1841e+01	4.7389	11.225256	0.000416	4.156706	1.408330	0.000166
 121	1.1940e+01	4.7774	11.326184	0.000253	2.534577	0.858738	0.000101
 122	1.2040e+01	4.8191	11.475558	0.000375	3.751174	1.270932	0.000150
 123	1.2139e+01	4.8608	11.600710	0.000314	3.142876	1.064835	0.000126
 124	1.2239e+01	4.9009	11.758158	0.000395	3.953940	1.339631	0.000158
 125	1.2338e+01	4.9410	11.895420	0.000345	3.447025	1.167884	0.000138
 126	1.2438e+01	4.9779	12.012497	0.000294	2.940109	0.996136	0.000118
 127	1.2537e+01	5.0245	12.153797	0.000355	3.548408	1.202233	0.000142
 128	1.2636e+01	5.0598	12.323357	0.000426	4.258090	1.442680	0.000170
 129	1.2736e+01	5.0950	12.424285	0.000253	2.534577	0.858738	0.000101
 130	1.2835e+01	5.1335	12.565585	0.000355	3.548408	1.202233	0.000142
 131	1.2935e+01	5.1769	12.702848	0.000345	3.447025	1.167884	0.000138
 132	1.3034e+01	5.2154	12.823962	0.000304	3.041493	1.030486	0.000122
 133	1.3134e+01	5.2667	12.957187	0.000335	3.345642	1.133534	0.000134
 134	1.3233e+01	5.3052	13.070227	0.000284	2.838726	0.961787	0.000114
 135	1.3333e+01	5.3309	13.223638	0.000385	3.852557	1.305282	0.000154
 136	1.3432e+01	5.3758	13.397235	0.000436	4.359473	1.477029	0.000174
 137	1.3532e+01	5.4143	13.522386	0.000314	3.142876	1.064835	0.000126
 138	1.3632e+01	5.4560	13.639463	0.000294	2.940109	0.996136	0.000118
 139	1.3731e+01	5.4977	13.760577	0.000304	3.041493	1.030486	0.000122
 140	1.3831e+01	5.5330	13.909951	0.000375	3.751174	1.270932	0.000150
 141	1.3930e+01	5.5763	14.075474	0.000416	4.156706	1.408330	0.000166
 142	1.4030e+01	5.6212	14.176402	0.000253	2.534577	0.858738	0.000101
 143	1.4129e+01	5.6533	14.301553	0.000314	3.142876	1.064835	0.000126
 144	1.4229e+01	5.6934	14.450927	0.000375	3.751174	1.270932	0.000150
 145	1.4328e+01	5.7303	14.596264	0.000365	3.649791	1.236583	0.000146
 146	1.4428e+01	5.7784	14.737564	0.000355	3.548408	1.202233	0.000142
 147	1.4527e+01	5.8121	14.846567	0.000274	2.737343	0.927437	0.000110
 148	1.4627e+01	5.8458	14.959606	0.000284	2.838726	0.961787	0.000114
 149	1.4726e+01	5.8923	15.141278	0.000456	4.562239	1.545728	0.000183
 150	1.4825e+01	5.9341	15.242206	0.000253	2.534577	0.858738	0.000101
 151	1.4925e+01	5.9726	15.371394	0.000324	3.244259	1.099185	0.000130
 152	1.5024e+01	6.0095	15.516731	0.000365	3.649791	1.236583	0.000146
 153	1.5124e+01	6.0608	15.645920	0.000324	3.244259	1.099185	0.000130
 154	1.5223e+01	6.1025	15.807405	0.000406	4.055323	1.373981	0.000162
 155	1.5323e+01	6.1330	15.936593	0.000324	3.244259	1.099185	0.000130
 156	1.5422e+01	6.1747	16.049633	0.000284	2.838726	0.961787	0.000114
 157	1.5522e+01	6.2116	16.190933	0.000355	3.548408	1.202233	0.000142
 158	1.5621e+01	6.2597	16.332233	0.000355	3.548408	1.202233	0.000142
 159	1.5721e+01	6.2934	16.421050	0.000223	2.230428	0.755689	0.000089
 160	1.5820e+01	6.3367	16.582535	0.000406	4.055323	1.373981	0.000162
 161	1.5920e+01	6.3688	16.727872	0.000365	3.649791	1.236583	0.000146
 162	1.6020e+01	6.4153	16.889357	0.000406	4.055323	1.373981	0.000162
 163	1.6119e+01	6.4474	16.982211	0.000233	2.331811	0.790039	0.000093
 164	1.6218e+01	6.4875	17.143697	0.000406	4.055323	1.373981	0.000162
 165	1.6318e+01	6.5228	17.240588	0.000243	2.433194	0.824388	0.000097
 166	1.6418e+01	6.5725	17.365739	0.000314	3.142876	1.064835	0.000126
 167	1.6517e+01	6.6014	17.482816	0.000294	2.940109	0.996136	0.000118
 168	1.6616e+01	6.6624	17.656413	0.000436	4.359473	1.477029	0.000174
 169	1.6716e+01	6.6897	17.757342	0.000253	2.534577	0.858738	0.000101
 170	1.6816e+01	6.7346	17.874418	0.000294	2.940109	0.996136	0.000118
 171	1.6915e+01	6.7715	17.991495	0.000294	2.940109	0.996136	0.000118
 172	1.7015e+01	6.8068	18.157018	0.000416	4.156706	1.408330	0.000166
 173	1.7114e+01	6.8485	18.306392	0.000375	3.751174	1.270932	0.000150
 174	1.7213e+01	6.8934	18.407320	0.000253	2.534577	0.858738	0.000101
 175	1.7313e+01	6.9303	18.560732	0.000385	3.852557	1.305282	0.000154
 176	1.7413e+01	6.9832	18.681846	0.000304	3.041493	1.030486	0.000122
 177	1.7512e+01	7.0137	18.819108	0.000345	3.447025	1.167884	0.000138
 178	1.7611e+01	7.0522	18.960408	0.000355	3.548408	1.202233	0.000142
 179	1.7711e+01	7.0827	19.085559	0.000314	3.142876	1.064835	0.000126
 180	1.7811e+01	7.1324	19.190525	0.000264	2.635960	0.893087	0.000105
 181	1.7910e+01	7.1661	19.388344	0.000497	4.967771	1.683126	0.000199
 182	1.8009e+01	7.2110	19.452939	0.000162	1.622129	0.549592	0.000065
 183	1.8109e+01	7.2415	19.618461	0.000416	4.156706	1.408330	0.000166
 184	1.8209e+01	7.2896	19.723427	0.000264	2.635960	0.893087	0.000105
 185	1.8308e+01	7.3265	19.892986	0.000426	4.258090	1.442680	0.000170
 186	1.8407e+01	7.3682	20.030249	0.000345	3.447025	1.167884	0.000138
 187	1.8507e+01	7.4116	20.115029	0.000213	2.129045	0.721340	0.000085
 188	1.8607e+01	7.4565	20.272477	0.000395	3.953940	1.339631	0.000158
 189	1.8706e+01	7.4837	20.393591	0.000304	3.041493	1.030486	0.000122
 190	1.8805e+01	7.5287	20.478371	0.000213	2.129045	0.721340	0.000085
 191	1.8905e+01	7.5688	20.664079	0.000466	4.663622	1.580078	0.000187
 192	1.9005e+01	7.6089	20.760971	0.000243	2.433194	0.824388	0.000097
 193	1.9104e+01	7.6361	20.942642	0.000456	4.562239	1.545728	0.000183
 194	1.9203e+01	7.6779	21.055681	0.000284	2.838726	0.961787	0.000114
 195	1.9303e+01	7.7292	21.196981	0.000355	3.548408	1.202233	0.000142
 196	1.9402e+01	7.7677	21.318095	0.000304	3.041493	1.030486	0.000122
 197	1.9502e+01	7.8014	21.479581	0.000406	4.055323	1.373981	0.000162
 198	1.9602e+01	7.8511	21.596658	0.000294	2.940109	0.996136	0.000118
 199	1.9701e+01	7.8832	21.741995	0.000365	3.649791	1.236583	0.000146
 200	1.9800e+01	7.9249	21.850997	0.000274	2.737343	0.927437	0.000110
 201	1.9900e+01	7.9554	21.992297	0.000355	3.548408	1.202233	0.000142
 202	2.0000e+01	8.0083	22.117448	0.000314	3.142876	1.064835	0.000126
 203	2.0099e+01	8.0500	22.266822	0.000375	3.751174	1.270932	0.000150
 204	2.0198e+01	8.0725	22.416196	0.000375	3.751174	1.270932	0.000150
 205	2.0298e+01	8.1303	22.509050	0.000233	2.331811	0.790039	0.000093
 206	2.0398e+01	8.1768	22.630164	0.000304	3.041493	1.030486	0.000122
 207	2.0497e+01	8.1992	22.714944	0.000213	2.129045	0.721340	0.000085
 208	2.0596e+01	8.2474	22.868355	0.000385	3.852557	1.305282	0.000154
 209	2.0696e+01	8.2778	23.001581	0.000335	3.345642	1.133534	0.000134
 210	2.0796e+01	8.3196	23.191326	0.000477	4.765005	1.614427	0.000191
 211	2.0895e+01	8.3677	23.324552	0.000335	3.345642	1.133534	0.000134
 212	2.0994e+01	8.4078	23.425480	0.000253	2.534577	0.858738	0.000101
 213	2.1094e+01	8.4495	23.566780	0.000355	3.548408	1.202233	0.000142
 214	2.1194e+01	8.4816	23.712117	0.000365	3.649791	1.236583	0.000146
 215	2.1293e+01	8.5233	23.837268	0.000314	3.142876	1.064835	0.000126
 216	2.1392e+01	8.5618	23.978568	0.000355	3.548408	1.202233	0.000142
 217	2.1492e+01	8.5955	24.103719	0.000314	3.142876	1.064835	0.000126
 218	2.1591e+01	8.6452	24.240982	0.000345	3.447025	1.167884	0.000138
 219	2.1691e+01	8.6821	24.390356	0.000375	3.751174	1.270932	0.000150
 220	2.1791e+01	8.7334	24.519544	0.000324	3.244259	1.099185	0.000130
 221	2.1890e+01	8.7575	24.632584	0.000284	2.838726	0.961787	0.000114
 222	2.1989e+01	8.7992	24.777921	0.000365	3.649791	1.236583	0.000146
 223	2.2089e+01	8.8538	24.919220	0.000355	3.548408	1.202233	0.000142
 224	2.2189e+01	8.8858	25.052446	0.000335	3.345642	1.133534	0.000134
 225	2.2288e+01	8.9243	25.153374	0.000253	2.534577	0.858738	0.000101
 226	2.2387e+01	8.9661	25.258340	0.000264	2.635960	0.893087	0.000105
 227	2.2487e+01	8.9997	25.411751	0.000385	3.852557	1.305282	0.000154
 228	2.2587e+01	9.0431	25.597459	0.000466	4.663622	1.580078	0.000187
 229	2.2686e+01	9.0816	25.694350	0.000243	2.433194	0.824388	0.000097
 230	2.2785e+01	9.1249	25.863910	0.000426	4.258090	1.442680	0.000170
 231	2.2885e+01	9.1618	25.976950	0.000284	2.838726	0.961787	0.000114
 232	2.2985e+01	9.2003	26.126324	0.000375	3.751174	1.270932	0.000150
 233	2.3084e+01	9.2420	26.259549	0.000335	3.345642	1.133534	0.000134
 234	2.3183e+01	9.2725	26.408923	0.000375	3.751174	1.270932	0.000150
 235	2.3283e+01	9.3254	26.546186	0.000345	3.447025	1.167884	0.000138
 236	2.3383e+01	9.3559	26.679412	0.000335	3.345642	1.133534	0.000134
 237	2.3482e+01	9.4024	26.804563	0.000314	3.142876	1.064835	0.000126
 238	2.3581e+01	9.4489	26.897417	0.000233	2.331811	0.790039	0.000093
 239	2.3681e+01	9.4842	27.062939	0.000416	4.156706	1.408330	0.000166
 240	2.3780e+01	9.5211	27.216351	0.000385	3.852557	1.305282	0.000154
 241	2.3880e+01	9.5612	27.341502	0.000314	3.142876	1.064835	0.000126
 242	2.3980e+01	9.6013	27.474727	0.000335	3.345642	1.133534	0.000134
 243	2.4079e+01	9.6398	27.583730	0.000274	2.737343	0.927437	0.000110
 244	2.4178e+01	9.6783	27.684658	0.000253	2.534577	0.858738	0.000101
 245	2.4278e+01	9.7217	27.801735	0.000294	2.940109	0.996136	0.000118
 246	2.4378e+01	9.7569	27.995518	0.000487	4.866388	1.648777	0.000195
 247	2.4477e+01	9.8051	28.161040	0.000416	4.156706	1.408330	0.000166
 248	2.4576e+01	9.8420	28.290229	0.000324	3.244259	1.099185	0.000130
 249	2.4676e+01	9.8773	28.447677	0.000395	3.953940	1.339631	0.000158
 250	2.4776e+01	9.9093	28.568791	0.000304	3.041493	1.030486	0.000122
 251	2.4875e+01	9.9591	28.714128	0.000365	3.649791	1.236583	0.000146
 252	2.4974e+01	9.9944	28.819093	0.000264	2.635960	0.893087	0.000105
 253	2.5074e+01	10.0361	28.968467	0.000375	3.751174	1.270932	0.000150
 254	2.5174e+01	10.0698	29.105730	0.000345	3.447025	1.167884	0.000138
 255	2.5273e+01	10.1163	29.287401	0.000456	4.562239	1.545728	0.000183
 256	2.5372e+01	10.1612	29.372181	0.000213	2.129045	0.721340	0.000085
 257	2.5472e+01	10.1885	29.497332	0.000314	3.142876	1.064835	0.000126
 258	2.5572e+01	10.2398	29.642669	0.000365	3.649791	1.236583	0.000146
 259	2.5671e+01	10.2655	29.788006	0.000365	3.649791	1.236583	0.000146
 260	2.5770e+01	10.3232	29.913157	0.000314	3.142876	1.064835	0.000126
 261	2.5870e+01	10.3505	30.058494	0.000365	3.649791	1.236583	0.000146
 262	2.5970e+01	10.3874	30.183645	0.000314	3.142876	1.064835	0.000126
 263	2.6069e+01	10.4275	30.312834	0.000324	3.244259	1.099185	0.000130
 264	2.6169e+01	10.4901	30.442022	0.000324	3.244259	1.099185	0.000130
 265	2.6268e+01	10.5157	30.619656	0.000446	4.460856	1.511379	0.000179
 266	2.6367e+01	10.5575	30.720584	0.000253	2.534577	0.858738	0.000101
 267	2.6467e+01	10.5992	30.873996	0.000385	3.852557	1.305282	0.000154
 268	2.6567e+01	10.6425	30.999147	0.000314	3.142876	1.064835	0.000126
 269	2.6666e+01	10.6762	31.156595	0.000395	3.953940	1.339631	0.000158
 270	2.6765e+01	10.7211	31.245412	0.000223	2.230428	0.755689	0.000089
 271	2.6865e+01	10.7548	31.402860	0.000395	3.953940	1.339631	0.000158
 272	2.6965e+01	10.8013	31.568383	0.000416	4.156706	1.408330	0.000166
 273	2.7064e+01	10.8350	31.632977	0.000162	1.622129	0.549592	0.000065
 274	2.7163e+01	10.8767	31.822722	0.000477	4.765005	1.614427	0.000191
 275	2.7263e+01	10.9104	31.931725	0.000274	2.737343	0.927437	0.000110
 276	2.7363e+01	10.9553	32.109359	0.000446	4.460856	1.511379	0.000179
 277	2.7462e+01	11.0050	32.206250	0.000243	2.433194	0.824388	0.000097
 278	2.7561e+01	11.0291	32.343513	0.000345	3.447025	1.167884	0.000138
 279	2.7661e+01	11.0724	32.440404	0.000243	2.433194	0.824388	0.000097
 280	2.7761e+01	11.1141	32.609964	0.000426	4.258090	1.442680	0.000170
 281	2.7860e+01	11.1510	32.706855	0.000243	2.433194	0.824388	0.000097
 282	2.7959e+01	11.2104	32.832006	0.000314	3.142876	1.064835	0.000126
 283	2.8059e+01	11.2280	32.985418	0.000385	3.852557	1.305282	0.000154
 284	2.8159e+01	11.2697	33.167089	0.000456	4.562239	1.545728	0.000183
 285	2.8258e+01	11.3002	33.288203	0.000304	3.041493	1.030486	0.000122
 286	2.8358e+01	11.3451	33.393168	0.000264	2.635960	0.893087	0.000105
 287	2.8457e+01	11.3933	33.566765	0.000436	4.359473	1.477029	0.000174
 288	2.8556e+01	11.4302	33.691916	0.000314	3.142876	1.064835	0.000126
 289	2.8656e+01	11.4751	33.825142	0.000335	3.345642	1.133534	0.000134
 290	2.8756e+01	11.5168	33.970479	0.000365	3.649791	1.236583	0.000146
 291	2.8855e+01	11.5521	34.079481	0.000274	2.737343	0.927437	0.000110
 292	2.8954e+01	11.5890	34.240967	0.000406	4.055323	1.373981	0.000162
 293	2.9054e+01	11.6355	34.382267	0.000355	3.548408	1.202233	0.000142
 294	2.9154e+01	11.6756	34.511455	0.000324	3.244259	1.099185	0.000130
 295	2.9253e+01	11.7045	34.616420	0.000264	2.635960	0.893087	0.000105
 296	2.9352e+01	11.7478	34.749646	0.000335	3.345642	1.133534	0.000134
 297	2.9452e+01	11.7895	34.846537	0.000243	2.433194	0.824388	0.000097
 298	2.9552e+01	11.8424	34.991874	0.000365	3.649791	1.236583	0.000146
 299	2.9651e+01	11.8713	35.092802	0.000253	2.534577	0.858738	0.000101
 300	2.9750e+01	11.9050	35.230065	0.000345	3.447025	1.167884	0.000138
 301	2.9850e+01	11.9451	35.335031	0.000264	2.635960	0.893087	0.000105
 302	2.9950e+01	11.9932	35.540924	0.000517	5.170537	1.751825	0.000207
 303	3.0049e+01	12.0301	35.686261	0.000365	3.649791	1.236583	0.000146
 304	3.0148e+01	12.0767	35.783153	0.000243	2.433194	0.824388	0.000097
 305	3.0248e+01	12.1120	35.936564	0.000385	3.852557	1.305282	0.000154
 306	3.0348e+01	12.1553	36.085938	0.000375	3.751174	1.270932	0.000150
 307	3.0447e+01	12.1986	36.174755	0.000223	2.230428	0.755689	0.000089
 308	3.0547e+01	12.2194	36.316055	0.000355	3.548408	1.202233	0.000142
 309	3.0646e+01	12.2740	36.425057	0.000274	2.737343	0.927437	0.000110
 310	3.0745e+01	12.3061	36.598654	0.000436	4.359473	1.477029	0.000174
 311	3.0845e+01	12.3462	36.739954	0.000355	3.548408	1.202233	0.000142
 312	3.0945e+01	12.3879	36.861068	0.000304	3.041493	1.030486	0.000122
 313	3.1044e+01	12.4296	36.953922	0.000233	2.331811	0.790039	0.000093
 314	3.1143e+01	12.4777	37.075036	0.000304	3.041493	1.030486	0.000122
 315	3.1243e+01	12.5178	37.220373	0.000365	3.649791	1.236583	0.000146
 316	3.1343e+01	12.5579	37.357636	0.000345	3.447025	1.167884	0.000138
 317	3.1442e+01	12.5884	37.430304	0.000182	1.824896	0.618291	0.000073
 318	3.1541e+01	12.6221	37.527195	0.000243	2.433194	0.824388	0.000097
 319	3.1641e+01	12.6718	37.656384	0.000324	3.244259	1.099185	0.000130
 320	3.1741e+01	12.7119	37.854203	0.000497	4.967771	1.683126	0.000199
 321	3.1840e+01	12.7537	37.987429	0.000335	3.345642	1.133534	0.000134
 322	3.1939e+01	12.7954	38.177174	0.000477	4.765005	1.614427	0.000191
 323	3.2039e+01	12.8274	38.257917	0.000203	2.027662	0.686990	0.000081
 324	3.2139e+01	12.8692	38.391142	0.000335	3.345642	1.133534	0.000134
 325	3.2238e+01	12.9044	38.532442	0.000355	3.548408	1.202233	0.000142
 326	3.2337e+01	12.9494	38.629333	0.000243	2.433194	0.824388	0.000097
 327	3.2437e+01	12.9831	38.758522	0.000324	3.244259	1.099185	0.000130
 328	3.2536e+01	13.0167	38.871561	0.000284	2.838726	0.961787	0.000114
 329	3.2636e+01	13.0681	39.004787	0.000335	3.345642	1.133534	0.000134
 330	3.2736e+01	13.1018	39.113790	0.000274	2.737343	0.927437	0.000110
 331	3.2835e+01	13.1371	39.255089	0.000355	3.548408	1.202233	0.000142
 332	3.2934e+01	13.1852	39.372166	0.000294	2.940109	0.996136	0.000118
 333	3.3034e+01	13.2269	39.501355	0.000324	3.244259	1.099185	0.000130
 334	3.3133e+01	13.2670	39.598246	0.000243	2.433194	0.824388	0.000097
 335	3.3233e+01	13.3023	39.711286	0.000284	2.838726	0.961787	0.000114
 336	3.3333e+01	13.3456	39.828363	0.000294	2.940109	0.996136	0.000118
 337	3.3432e+01	13.3857	39.969662	0.000355	3.548408	1.202233	0.000142
 338	3.3532e+01	13.4274	40.106925	0.000345	3.447025	1.167884	0.000138
 339	3.3631e+01	13.4627	40.264373	0.000395	3.953940	1.339631	0.000158
 340	3.3730e+01	13.4996	40.401636	0.000345	3.447025	1.167884	0.000138
 341	3.3830e+01	13.5461	40.518713	0.000294	2.940109	0.996136	0.000118
 342	3.3929e+01	13.5782	40.627715	0.000274	2.737343	0.927437	0.000110
 343	3.4029e+01	13.6183	40.809387	0.000456	4.562239	1.545728	0.000183
 344	3.4129e+01	13.6584	40.873981	0.000162	1.622129	0.549592	0.000065
 345	3.4228e+01	13.7018	41.031429	0.000395	3.953940	1.339631	0.000158
 346	3.4328e+01	13.7403	41.144469	0.000284	2.838726	0.961787	0.000114
 347	3.4427e+01	13.7820	41.289806	0.000365	3.649791	1.236583	0.000146
 348	3.4526e+01	13.8124	41.410920	0.000304	3.041493	1.030486	0.000122
 349	3.4626e+01	13.8622	41.515885	0.000264	2.635960	0.893087	0.000105
 350	3.4725e+01	13.8991	41.657185	0.000355	3.548408	1.202233	0.000142
 351	3.4825e+01	13.9424	41.802522	0.000365	3.649791	1.236583	0.000146
 352	3.4925e+01	13.9825	41.875190	0.000182	1.824896	0.618291	0.000073
 353	3.5024e+01	14.0290	41.992267	0.000294	2.940109	0.996136	0.000118
 354	3.5123e+01	14.0595	42.113381	0.000304	3.041493	1.030486	0.000122
 355	3.5223e+01	14.1012	42.246607	0.000335	3.345642	1.133534	0.000134
 356	3.5322e+01	14.1349	42.351572	0.000264	2.635960	0.893087	0.000105
 357	3.5422e+01	14.1798	42.500946	0.000375	3.751174	1.270932	0.000150
 358	3.5522e+01	14.2151	42.666469	0.000416	4.156706	1.408330	0.000166
 359	3.5621e+01	14.2713	42.823917	0.000395	3.953940	1.339631	0.000158
 360	3.5721e+01	14.2905	42.920809	0.000243	2.433194	0.824388	0.000097
 361	3.5820e+01	14.3418	43.074220	0.000385	3.852557	1.305282	0.000154
 362	3.5919e+01	14.3707	43.138814	0.000162	1.622129	0.549592	0.000065
 363	3.6019e+01	14.4140	43.272039	0.000335	3.345642	1.133534	0.000134
 364	3.6118e+01	14.4622	43.421413	0.000375	3.751174	1.270932	0.000150
 365	3.6218e+01	14.4991	43.530416	0.000274	2.737343	0.927437	0.000110
 366	3.6318e+01	14.5392	43.643456	0.000284	2.838726	0.961787	0.000114
 367	3.6417e+01	14.5745	43.796867	0.000385	3.852557	1.305282	0.000154
 368	3.6517e+01	14.6081	43.917981	0.000304	3.041493	1.030486	0.000122
 369	3.6616e+01	14.6515	44.043132	0.000314	3.142876	1.064835	0.000126
 370	3.6715e+01	14.6980	44.188469	0.000365	3.649791	1.236583	0.000146
 371	3.6815e+01	14.7429	44.293435	0.000264	2.635960	0.893087	0.000105
 372	3.6914e+01	14.7734	44.362066	0.000172	1.723512	0.583942	0.000069
 373	3.7014e+01	14.8199	44.479143	0.000294	2.940109	0.996136	0.000118
 374	3.7114e+01	14.8616	44.588146	0.000274	2.737343	0.927437	0.000110
 375	3.7213e+01	14.9113	44.729445	0.000355	3.548408	1.202233	0.000142
 376	3.7313e+01	14.9338	44.882857	0.000385	3.852557	1.305282	0.000154
 377	3.7412e+01	14.9771	45.060491	0.000446	4.460856	1.511379	0.000179
 378	3.7511e+01	15.0092	45.149308	0.000223	2.230428	0.755689	0.000089
 379	3.7611e+01	15.0589	45.270422	0.000304	3.041493	1.030486	0.000122
 380	3.7711e+01	15.0926	45.391536	0.000304	3.041493	1.030486	0.000122
 381	3.7810e+01	15.1359	45.540910	0.000375	3.751174	1.270932	0.000150
 382	3.7910e+01	15.1776	45.686247	0.000365	3.649791	1.236583	0.000146
 383	3.8009e+01	15.2145	45.819472	0.000335	3.345642	1.133534	0.000134
 384	3.8108e+01	15.2498	45.924438	0.000264	2.635960	0.893087	0.000105
 385	3.8208e+01	15.2948	46.053626	0.000324	3.244259	1.099185	0.000130
 386	3.8307e+01	15.3429	46.227223	0.000436	4.359473	1.477029	0.000174
 387	3.8407e+01	15.3798	46.291817	0.000162	1.622129	0.549592	0.000065
 388	3.8507e+01	15.4199	46.465414	0.000436	4.359473	1.477029	0.000174
 389	3.8606e+01	15.4632	46.558268	0.000233	2.331811	0.790039	0.000093
 390	3.8706e+01	15.5001	46.643048	0.000213	2.129045	0.721340	0.000085
 391	3.8805e+01	15.5338	46.776273	0.000335	3.345642	1.133534	0.000134
 392	3.8904e+01	15.5739	46.889313	0.000284	2.838726	0.961787	0.000114
 393	3.9004e+01	15.6108	47.046761	0.000395	3.953940	1.339631	0.000158
 394	3.9103e+01	15.6509	47.208247	0.000406	4.055323	1.373981	0.000162
 395	3.9203e+01	15.7022	47.325324	0.000294	2.940109	0.996136	0.000118
 396	3.9303e+01	15.7327	47.470661	0.000365	3.649791	1.236583	0.000146
 397	3.9402e+01	15.7776	47.559478	0.000223	2.230428	0.755689	0.000089
 398	3.9502e+01	15.8097	47.700777	0.000355	3.548408	1.202233	0.000142
 399	3.9601e+01	15.8514	47.862263	0.000406	4.055323	1.373981	0.000162
 400	3.9700e+01	15.8899	47.963191	0.000253	2.534577	0.858738	0.000101
 401	3.9800e+01	15.9332	48.128714	0.000416	4.156706	1.408330	0.000166
 402	3.9900e+01	15.9653	48.193308	0.000162	1.622129	0.549592	0.000065
 403	3.9999e+01	16.0086	48.358830	0.000416	4.156706	1.408330	0.000166
 404	4.0099e+01	16.0520	48.492056	0.000335	3.345642	1.133534	0.000134
 405	4.0198e+01	16.0921	48.641430	0.000375	3.751174	1.270932	0.000150
 406	4.0297e+01	16.1322	48.722173	0.000203	2.027662	0.686990	0.000081
 407	4.0397e+01	16.1723	48.867510	0.000365	3.649791	1.236583	0.000146
 408	4.0496e+01	16.2140	49.008809	0.000355	3.548408	1.202233	0.000142
 409	4.0596e+01	16.2525	49.109738	0.000253	2.534577	0.858738	0.000101
 410	4.0696e+01	16.2942	49.202592	0.000233	2.331811	0.790039	0.000093
 411	4.0795e+01	16.3359	49.331780	0.000324	3.244259	1.099185	0.000130
 412	4.0895e+01	16.3712	49.469043	0.000345	3.447025	1.167884	0.000138
 413	4.0994e+01	16.4097	49.618417	0.000375	3.751174	1.270932	0.000150
 414	4.1093e+01	16.4546	49.751642	0.000335	3.345642	1.133534	0.000134
 415	4.1193e+01	16.4915	49.888905	0.000345	3.447025	1.167884	0.000138
 416	4.1292e+01	16.5220	49.977722	0.000223	2.230428	0.755689	0.000089
 417	4.1392e+01	16.5781	50.123059	0.000365	3.649791	1.236583	0.000146
 418	4.1492e+01	16.6102	50.252247	0.000324	3.244259	1.099185	0.000130
 419	4.1591e+01	16.6519	50.397584	0.000365	3.649791	1.236583	0.000146
 420	4.1691e+01	16.6904	50.542921	0.000365	3.649791	1.236583	0.000146
 421	4.1790e+01	16.7305	50.672109	0.000324	3.244259	1.099185	0.000130
 422	4.1889e+01	16.7674	50.785149	0.000284	2.838726	0.961787	0.000114
 423	4.1989e+01	16.8043	50.922412	0.000345	3.447025	1.167884	0.000138
 424	4.2089e+01	16.8493	51.039489	0.000294	2.940109	0.996136	0.000118
 425	4.2188e+01	16.8829	51.200974	0.000406	4.055323	1.373981	0.000162
 426	4.2288e+01	16.9327	51.305940	0.000264	2.635960	0.893087	0.000105
 427	4.2387e+01	16.9760	51.431091	0.000314	3.142876	1.064835	0.000126
 428	4.2486e+01	17.0081	51.564316	0.000335	3.345642	1.133534	0.000134
 429	4.2586e+01	17.0482	51.729839	0.000416	4.156706	1.408330	0.000166
 430	4.2685e+01	17.0947	51.834804	0.000264	2.635960	0.893087	0.000105
 431	4.2785e+01	17.1204	51.992253	0.000395	3.953940	1.339631	0.000158
 432	4.2885e+01	17.1749	52.101255	0.000274	2.737343	0.927437	0.000110
 433	4.2984e+01	17.2006	52.242555	0.000355	3.548408	1.202233	0.000142
 434	4.3084e+01	17.2503	52.375780	0.000335	3.345642	1.133534	0.000134
 435	4.3183e+01	17.2872	52.492857	0.000294	2.940109	0.996136	0.000118
 436	4.3282e+01	17.3241	52.638194	0.000365	3.649791	1.236583	0.000146
 437	4.3382e+01	17.3610	52.735086	0.000243	2.433194	0.824388	0.000097
 438	4.3481e+01	17.4059	52.844088	0.000274	2.737343	0.927437	0.000110
 439	4.3581e+01	17.4460	53.013648	0.000426	4.258090	1.442680	0.000170
 440	4.3681e+01	17.4861	53.110539	0.000243	2.433194	0.824388	0.000097
 441	4.3780e+01	17.5311	53.296247	0.000466	4.663622	1.580078	0.000187
 442	4.3880e+01	17.5696	53.389102	0.000233	2.331811	0.790039	0.000093
 443	4.3979e+01	17.6081	53.477919	0.000223	2.230428	0.755689	0.000089
 444	4.4078e+01	17.6466	53.639404	0.000406	4.055323	1.373981	0.000162
 445	4.4178e+01	17.6947	53.760518	0.000304	3.041493	1.030486	0.000122
 446	4.4278e+01	17.7188	53.889706	0.000324	3.244259	1.099185	0.000130
 447	4.4377e+01	17.7556	54.055229	0.000416	4.156706	1.408330	0.000166
 448	4.4477e+01	17.8102	54.140009	0.000213	2.129045	0.721340	0.000085
 449	4.4576e+01	17.8487	54.273234	0.000335	3.345642	1.133534	0.000134
 450	4.4675e+01	17.8872	54.426645	0.000385	3.852557	1.305282	0.000154
 451	4.4775e+01	17.9225	54.547760	0.000304	3.041493	1.030486	0.000122
 452	4.4874e+01	17.9498	54.676948	0.000324	3.244259	1.099185	0.000130
 453	4.4974e+01	18.0059	54.794025	0.000294	2.940109	0.996136	0.000118
 454	4.5074e+01	18.0396	54.947436	0.000385	3.852557	1.305282	0.000154
 455	4.5173e+01	18.0781	55.052401	0.000264	2.635960	0.893087	0.000105
 456	4.5273e+01	18.1246	55.193701	0.000355	3.548408	1.202233	0.000142
 457	4.5372e+01	18.1631	55.306741	0.000284	2.838726	0.961787	0.000114
 458	4.5471e+01	18.2000	55.419781	0.000284	2.838726	0.961787	0.000114
 459	4.5571e+01	18.2433	55.577229	0.000395	3.953940	1.339631	0.000158
 460	4.5670e+01	18.2883	55.698343	0.000304	3.041493	1.030486	0.000122
 461	4.5770e+01	18.3268	55.799272	0.000253	2.534577	0.858738	0.000101
 462	4.5870e+01	18.3620	55.948646	0.000375	3.751174	1.270932	0.000150
 463	4.5969e+01	18.3973	56.077834	0.000324	3.244259	1.099185	0.000130
 464	4.6069e+01	18.4471	56.215097	0.000345	3.447025	1.167884	0.000138
 465	4.6168e+01	18.4840	56.344285	0.000324	3.244259	1.099185	0.000130
 466	4.6267e+01	18.5209	56.465399	0.000304	3.041493	1.030486	0.000122
 467	4.6367e+01	18.5722	56.570365	0.000264	2.635960	0.893087	0.000105
 468	4.6467e+01	18.5995	56.691479	0.000304	3.041493	1.030486	0.000122
 469	4.6566e+01	18.6476	56.796444	0.000264	2.635960	0.893087	0.000105
 470	4.6666e+01	18.6797	56.949855	0.000385	3.852557	1.305282	0.000154
 471	4.6765e+01	18.7230	57.066932	0.000294	2.940109	0.996136	0.000118
 472	4.6864e+01	18.7663	57.192083	0.000314	3.142876	1.064835	0.000126
 473	4.6964e+01	18.8032	57.333383	0.000355	3.548408	1.202233	0.000142
 474	4.7063e+01	18.8417	57.482757	0.000375	3.751174	1.270932	0.000150
 475	4.7163e+01	18.8722	57.571574	0.000223	2.230428	0.755689	0.000089
 476	4.7263e+01	18.9155	57.684614	0.000284	2.838726	0.961787	0.000114
 477	4.7362e+01	18.9636	57.838025	0.000385	3.852557	1.305282	0.000154
 478	4.7462e+01	19.0086	57.959139	0.000304	3.041493	1.030486	0.000122
 479	4.7561e+01	19.0374	58.096402	0.000345	3.447025	1.167884	0.000138
 480	4.7660e+01	19.0840	58.189256	0.000233	2.331811	0.790039	0.000093
 481	4.7760e+01	19.1225	58.330556	0.000355	3.548408	1.202233	0.000142
 482	4.7859e+01	19.1738	58.455707	0.000314	3.142876	1.064835	0.000126
 483	4.7959e+01	19.1979	58.576821	0.000304	3.041493	1.030486	0.000122
 484	4.8059e+01	19.2460	58.718121	0.000355	3.548408	1.202233	0.000142
 485	4.8158e+01	19.2797	58.806938	0.000223	2.230428	0.755689	0.000089
 486	4.8258e+01	19.3182	58.928052	0.000304	3.041493	1.030486	0.000122
 487	4.8357e+01	19.3631	59.053203	0.000314	3.142876	1.064835	0.000126
 488	4.8456e+01	19.4016	59.186428	0.000335	3.345642	1.133534	0.000134
 489	4.8556e+01	19.4433	59.360025	0.000436	4.359473	1.477029	0.000174
 490	4.8656e+01	19.4802	59.444805	0.000213	2.129045	0.721340	0.000085
 491	4.8755e+01	19.5139	59.565919	0.000304	3.041493	1.030486	0.000122
 492	4.8855e+01	19.5524	59.695108	0.000324	3.244259	1.099185	0.000130
 493	4.8954e+01	19.5957	59.804110	0.000274	2.737343	0.927437	0.000110
 494	4.9053e+01	19.6374	59.945410	0.000355	3.548408	1.202233	0.000142
 495	4.9153e+01	19.6759	60.038264	0.000233	2.331811	0.790039	0.000093
 496	4.9252e+01	19.7176	60.171490	0.000335	3.345642	1.133534	0.000134
 497	4.9352e+01	19.7577	60.300678	0.000324	3.244259	1.099185	0.000130
 498	4.9452e+01	19.8026	60.425829	0.000314	3.142876	1.064835	0.000126
 499	4.9551e+01	19.8395	60.555018	0.000324	3.244259	1.099185	0.000130
 500	4.9651e+01	19.8716	60.696317	0.000355	3.548408	1.202233	0.000142
 501	4.9750e+01	19.9262	60.805320	0.000274	2.737343	0.927437	0.000110
 502	4.9849e+01	19.9583	60.849728	0.000112	1.115214	0.377845	0.000045
 503	4.9949e+01	19.9952	61.003140	0.000385	3.852557	1.305282	0.000154
 504	5.0048e+01	19.9567	60.877988	0.000314	3.142876	1.064835	-0.000126
 505	5.0148e+01	19.9182	60.805320	0.000182	1.824896	0.618291	-0.000073
 506	5.0248e+01	19.8716	60.696317	0.000274	2.737343	0.927437	-0.000110
 507	5.0347e+01	19.8412	60.623649	0.000182	1.824896	0.618291	-0.000073
 508	5.0447e+01	19.7946	60.502535	0.000304	3.041493	1.030486	-0.000122
 509	5.0546e+01	19.7641	60.397569	0.000264	2.635960	0.893087	-0.000105
 510	5.0645e+01	19.7144	60.284529	0.000284	2.838726	0.961787	-0.000114
 511	5.0745e+01	19.6791	60.171490	0.000284	2.838726	0.961787	-0.000114
 512	5.0844e+01	19.6246	60.054413	0.000294	2.940109	0.996136	-0.000118
 513	5.0944e+01	19.5957	59.977707	0.000193	1.926279	0.652641	-0.000077
 514	5.1044e+01	19.5636	59.852556	0.000314	3.142876	1.064835	-0.000126
 515	5.1143e+01	19.5235	59.767776	0.000213	2.129045	0.721340	-0.000085
 516	5.1242e+01	19.4722	59.630513	0.000345	3.447025	1.167884	-0.000138
 517	5.1342e+01	19.4401	59.517474	0.000284	2.838726	0.961787	-0.000114
 518	5.1441e+01	19.3936	59.436731	0.000203	2.027662	0.686990	-0.000081
 519	5.1541e+01	19.3615	59.299468	0.000345	3.447025	1.167884	-0.000138
 520	5.1641e+01	19.3230	59.222763	0.000193	1.926279	0.652641	-0.000077
 521	5.1740e+01	19.2829	59.089537	0.000335	3.345642	1.133534	-0.000134
 522	5.1840e+01	19.2524	58.964386	0.000314	3.142876	1.064835	-0.000126
 523	5.1939e+01	19.2091	58.911903	0.000132	1.317980	0.446544	-0.000053
 524	5.2038e+01	19.1610	58.746381	0.000416	4.156706	1.408330	-0.000166
 525	5.2138e+01	19.1241	58.588932	0.000395	3.953940	1.339631	-0.000158
 526	5.2237e+01	19.0759	58.508190	0.000203	2.027662	0.686990	-0.000081
 527	5.2337e+01	19.0422	58.435521	0.000182	1.824896	0.618291	-0.000073
 528	5.2437e+01	19.0053	58.314407	0.000304	3.041493	1.030486	-0.000122
 529	5.2536e+01	18.9604	58.197330	0.000294	2.940109	0.996136	-0.000118
 530	5.2636e+01	18.9251	58.100439	0.000243	2.433194	0.824388	-0.000097
 531	5.2735e+01	18.8850	57.930879	0.000426	4.258090	1.442680	-0.000170
 532	5.2834e+01	18.8433	57.854174	0.000193	1.926279	0.652641	-0.000077
 533	5.2934e+01	18.7984	57.745171	0.000274	2.737343	0.927437	-0.000110
 534	5.3033e+01	18.7711	57.607908	0.000345	3.447025	1.167884	-0.000138
 535	5.3133e+01	18.7214	57.502943	0.000264	2.635960	0.893087	-0.000105
 536	5.3233e+01	18.6845	57.406052	0.000243	2.433194	0.824388	-0.000097
 537	5.3332e+01	18.6396	57.288975	0.000294	2.940109	0.996136	-0.000118
 538	5.3431e+01	18.5995	57.192083	0.000243	2.433194	0.824388	-0.000097
 539	5.3531e+01	18.5594	57.050784	0.000355	3.548408	1.202233	-0.000142
 540	5.3630e+01	18.5241	56.957930	0.000233	2.331811	0.790039	-0.000093
 541	5.3730e+01	18.4840	56.844890	0.000284	2.838726	0.961787	-0.000114
 542	5.3830e+01	18.4487	56.731850	0.000284	2.838726	0.961787	-0.000114
 543	5.3929e+01	18.4086	56.618810	0.000284	2.838726	0.961787	-0.000114
 544	5.4029e+01	18.3588	56.485585	0.000335	3.345642	1.133534	-0.000134
 545	5.4128e+01	18.3268	56.348322	0.000345	3.447025	1.167884	-0.000138
 546	5.4227e+01	18.2818	56.247394	0.000253	2.534577	0.858738	-0.000101
 547	5.4327e+01	18.2530	56.130317	0.000294	2.940109	0.996136	-0.000118
 548	5.4426e+01	18.2064	55.989017	0.000355	3.548408	1.202233	-0.000142
 549	5.4526e+01	18.1615	55.884051	0.000264	2.635960	0.893087	-0.000105
 550	5.4626e+01	18.1262	55.775049	0.000274	2.737343	0.927437	-0.000110
 551	5.4725e+01	18.0925	55.682195	0.000233	2.331811	0.790039	-0.000093
 552	5.4825e+01	18.0364	55.573192	0.000274	2.737343	0.927437	-0.000110
 553	5.4924e+01	18.0075	55.435929	0.000345	3.447025	1.167884	-0.000138
 554	5.5023e+01	17.9578	55.335001	0.000253	2.534577	0.858738	-0.000101
 555	5.5123e+01	17.9289	55.230035	0.000264	2.635960	0.893087	-0.000105
 556	5.5222e+01	17.8840	55.137181	0.000233	2.331811	0.790039	-0.000093
 557	5.5322e+01	17.8487	55.020104	0.000294	2.940109	0.996136	-0.000118
 558	5.5422e+01	17.8006	54.866693	0.000385	3.852557	1.305282	-0.000154
 559	5.5521e+01	17.7637	54.781913	0.000213	2.129045	0.721340	-0.000085
 560	5.5620e+01	17.7236	54.644651	0.000345	3.447025	1.167884	-0.000138
 561	5.5720e+01	17.6947	54.588131	0.000142	1.419363	0.480893	-0.000057
 562	5.5819e+01	17.6401	54.458943	0.000324	3.244259	1.099185	-0.000130
 563	5.5919e+01	17.6065	54.313606	0.000365	3.649791	1.236583	-0.000146
 564	5.6019e+01	17.5631	54.164232	0.000375	3.751174	1.270932	-0.000150
 565	5.6118e+01	17.5295	54.107712	0.000142	1.419363	0.480893	-0.000057
 566	5.6218e+01	17.4829	53.966412	0.000355	3.548408	1.202233	-0.000142
 567	5.6317e+01	17.4460	53.893744	0.000182	1.824896	0.618291	-0.000073
 568	5.6416e+01	17.4156	53.752444	0.000355	3.548408	1.202233	-0.000142
 569	5.6516e+01	17.3626	53.651515	0.000253	2.534577	0.858738	-0.000101
 570	5.6615e+01	17.3177	53.554624	0.000243	2.433194	0.824388	-0.000097
 571	5.6715e+01	17.2888	53.405250	0.000375	3.751174	1.270932	-0.000150
 572	5.6815e+01	17.2487	53.304322	0.000253	2.534577	0.858738	-0.000101
 573	5.6914e+01	17.2086	53.191282	0.000284	2.838726	0.961787	-0.000114
 574	5.7014e+01	17.1637	53.110539	0.000203	2.027662	0.686990	-0.000081
 575	5.7113e+01	17.1316	52.961165	0.000375	3.751174	1.270932	-0.000150
 576	5.7212e+01	17.0899	52.827940	0.000335	3.345642	1.133534	-0.000134
 577	5.7312e+01	17.0450	52.714900	0.000284	2.838726	0.961787	-0.000114
 578	5.7411e+01	17.0129	52.613972	0.000253	2.534577	0.858738	-0.000101
 579	5.7511e+01	16.9696	52.517080	0.000243	2.433194	0.824388	-0.000097
 580	5.7611e+01	16.9295	52.404040	0.000284	2.838726	0.961787	-0.000114
 581	5.7710e+01	16.8878	52.254666	0.000375	3.751174	1.270932	-0.000150
 582	5.7809e+01	16.8412	52.165849	0.000223	2.230428	0.755689	-0.000089
 583	5.7909e+01	16.8075	52.064921	0.000253	2.534577	0.858738	-0.000101
 584	5.8008e+01	16.7723	51.923621	0.000355	3.548408	1.202233	-0.000142
 585	5.8108e+01	16.7289	51.810581	0.000284	2.838726	0.961787	-0.000114
 586	5.8208e+01	16.6920	51.701579	0.000274	2.737343	0.927437	-0.000110
 587	5.8307e+01	16.6551	51.624873	0.000193	1.926279	0.652641	-0.000077
 588	5.8407e+01	16.6118	51.495685	0.000324	3.244259	1.099185	-0.000130
 589	5.8506e+01	16.5669	51.354385	0.000355	3.548408	1.202233	-0.000142
 590	5.8605e+01	16.5204	51.269605	0.000213	2.129045	0.721340	-0.000085
 591	5.8705e+01	16.4867	51.136380	0.000335	3.345642	1.133534	-0.000134
 592	5.8804e+01	16.4691	51.023340	0.000284	2.838726	0.961787	-0.000114
 593	5.8904e+01	16.4097	50.926449	0.000243	2.433194	0.824388	-0.000097
 594	5.9004e+01	16.3712	50.793223	0.000335	3.345642	1.133534	-0.000134
 595	5.9103e+01	16.3327	50.696332	0.000243	2.433194	0.824388	-0.000097
 596	5.9203e+01	16.2958	50.587329	0.000274	2.737343	0.927437	-0.000110
 597	5.9302e+01	16.2525	50.466215	0.000304	3.041493	1.030486	-0.000122
 598	5.9401e+01	16.2092	50.365287	0.000253	2.534577	0.858738	-0.000101
 599	5.9501e+01	16.1739	50.232061	0.000335	3.345642	1.133534	-0.000134
 600	5.9600e+01	16.1450	50.106910	0.000314	3.142876	1.064835	-0.000126
 601	5.9700e+01	16.0905	50.026167	0.000203	2.027662	0.686990	-0.000081
 602	5.9800e+01	16.0520	49.880831	0.000365	3.649791	1.236583	-0.000146
 603	5.9899e+01	16.0135	49.767791	0.000284	2.838726	0.961787	-0.000114
 604	5.9998e+01	15.9621	49.638602	0.000324	3.244259	1.099185	-0.000130
 605	6.0098e+01	15.9461	49.553823	0.000213	2.129045	0.721340	-0.000085
 606	6.0197e+01	15.8931	49.428671	0.000314	3.142876	1.064835	-0.000126
 607	6.0297e+01	15.8610	49.307557	0.000304	3.041493	1.030486	-0.000122
 608	6.0397e+01	15.8145	49.190480	0.000294	2.940109	0.996136	-0.000118
 609	6.0496e+01	15.7728	49.093589	0.000243	2.433194	0.824388	-0.000097
 610	6.0596e+01	15.7295	48.944215	0.000375	3.751174	1.270932	-0.000150
 611	6.0695e+01	15.6974	48.827138	0.000294	2.940109	0.996136	-0.000118
 612	6.0794e+01	15.6573	48.734284	0.000233	2.331811	0.790039	-0.000093
 613	6.0894e+01	15.6124	48.588947	0.000365	3.649791	1.236583	-0.000146
 614	6.0993e+01	15.5771	48.516279	0.000182	1.824896	0.618291	-0.000073
 615	6.1093e+01	15.5338	48.362868	0.000385	3.852557	1.305282	-0.000154
 616	6.1193e+01	15.5065	48.286162	0.000193	1.926279	0.652641	-0.000077
 617	6.1292e+01	15.4520	48.144862	0.000355	3.548408	1.202233	-0.000142
 618	6.1392e+01	15.4151	48.039897	0.000264	2.635960	0.893087	-0.000105
 619	6.1491e+01	15.3782	47.943005	0.000243	2.433194	0.824388	-0.000097
 620	6.1590e+01	15.3365	47.757297	0.000466	4.663622	1.580078	-0.000187
 621	6.1690e+01	15.2964	47.656369	0.000253	2.534577	0.858738	-0.000101
 622	6.1789e+01	15.2595	47.571589	0.000213	2.129045	0.721340	-0.000085
 623	6.1889e+01	15.2081	47.470661	0.000253	2.534577	0.858738	-0.000101
 624	6.1989e+01	15.1648	47.305138	0.000416	4.156706	1.408330	-0.000166
 625	6.2088e+01	15.1327	47.204210	0.000253	2.534577	0.858738	-0.000101
 626	6.2188e+01	15.1006	47.107318	0.000243	2.433194	0.824388	-0.000097
 627	6.2287e+01	15.0670	47.006390	0.000253	2.534577	0.858738	-0.000101
 628	6.2386e+01	15.0140	46.905462	0.000253	2.534577	0.858738	-0.000101
 629	6.2486e+01	14.9723	46.735902	0.000426	4.258090	1.442680	-0.000170
 630	6.2586e+01	14.9370	46.626899	0.000274	2.737343	0.927437	-0.000110
 631	6.2685e+01	14.8889	46.521934	0.000264	2.635960	0.893087	-0.000105
 632	6.2785e+01	14.8536	46.392745	0.000324	3.244259	1.099185	-0.000130
 633	6.2884e+01	14.8231	46.283743	0.000274	2.737343	0.927437	-0.000110
 634	6.2983e+01	14.7766	46.174740	0.000274	2.737343	0.927437	-0.000110
 635	6.3083e+01	14.7285	46.045552	0.000324	3.244259	1.099185	-0.000130
 636	6.3182e+01	14.6964	45.956735	0.000223	2.230428	0.755689	-0.000089
 637	6.3282e+01	14.6691	45.819472	0.000345	3.447025	1.167884	-0.000138
 638	6.3382e+01	14.6242	45.706432	0.000284	2.838726	0.961787	-0.000114
 639	6.3481e+01	14.5809	45.553021	0.000385	3.852557	1.305282	-0.000154
 640	6.3581e+01	14.5360	45.439981	0.000284	2.838726	0.961787	-0.000114
 641	6.3680e+01	14.4958	45.306756	0.000335	3.345642	1.133534	-0.000134
 642	6.3779e+01	14.4606	45.181605	0.000314	3.142876	1.064835	-0.000126
 643	6.3879e+01	14.4140	45.064528	0.000294	2.940109	0.996136	-0.000118
 644	6.3978e+01	14.3868	44.951488	0.000284	2.838726	0.961787	-0.000114
 645	6.4078e+01	14.3434	44.850559	0.000253	2.534577	0.858738	-0.000101
 646	6.4177e+01	14.3033	44.697148	0.000385	3.852557	1.305282	-0.000154
 647	6.4277e+01	14.2632	44.592183	0.000264	2.635960	0.893087	-0.000105
 648	6.4376e+01	14.2231	44.454920	0.000345	3.447025	1.167884	-0.000138
 649	6.4476e+01	14.1878	44.366103	0.000223	2.230428	0.755689	-0.000089
 650	6.4576e+01	14.1397	44.216729	0.000375	3.751174	1.270932	-0.000150
 651	6.4675e+01	14.1012	44.087541	0.000324	3.244259	1.099185	-0.000130
 652	6.4775e+01	14.0579	43.966427	0.000304	3.041493	1.030486	-0.000122
 653	6.4874e+01	14.0210	43.877610	0.000223	2.230428	0.755689	-0.000089
 654	6.4974e+01	13.9793	43.704013	0.000436	4.359473	1.477029	-0.000174
 655	6.5073e+01	13.9376	43.599047	0.000264	2.635960	0.893087	-0.000105
 656	6.5172e+01	13.8975	43.486008	0.000284	2.838726	0.961787	-0.000114
 657	6.5272e+01	13.8606	43.397191	0.000223	2.230428	0.755689	-0.000089
 658	6.5371e+01	13.8205	43.219557	0.000446	4.460856	1.511379	-0.000179
 659	6.5471e+01	13.7788	43.114591	0.000264	2.635960	0.893087	-0.000105
 660	6.5570e+01	13.7435	42.957143	0.000395	3.953940	1.339631	-0.000158
 661	6.5670e+01	13.7018	42.872363	0.000213	2.129045	0.721340	-0.000085
 662	6.5769e+01	13.6649	42.735100	0.000345	3.447025	1.167884	-0.000138
 663	6.5869e+01	13.6199	42.626098	0.000274	2.737343	0.927437	-0.000110
 664	6.5969e+01	13.5879	42.525169	0.000253	2.534577	0.858738	-0.000101
 665	6.6068e+01	13.5413	42.371758	0.000385	3.852557	1.305282	-0.000154
 666	6.6168e+01	13.4948	42.270830	0.000253	2.534577	0.858738	-0.000101
 667	6.6267e+01	13.4627	42.145679	0.000314	3.142876	1.064835	-0.000126
 668	6.6367e+01	13.4274	42.004379	0.000355	3.548408	1.202233	-0.000142
 669	6.6466e+01	13.3841	41.850968	0.000385	3.852557	1.305282	-0.000154
 670	6.6566e+01	13.3456	41.737928	0.000284	2.838726	0.961787	-0.000114
 671	6.6665e+01	13.2959	41.645074	0.000233	2.331811	0.790039	-0.000093
 672	6.6764e+01	13.2526	41.495700	0.000375	3.751174	1.270932	-0.000150
 673	6.6864e+01	13.2253	41.370548	0.000314	3.142876	1.064835	-0.000126
 674	6.6963e+01	13.1724	41.269620	0.000253	2.534577	0.858738	-0.000101
 675	6.7063e+01	13.1579	41.136395	0.000335	3.345642	1.133534	-0.000134
 676	6.7162e+01	13.1066	41.011243	0.000314	3.142876	1.064835	-0.000126
 677	6.7262e+01	13.0697	40.861869	0.000375	3.751174	1.270932	-0.000150
 678	6.7362e+01	13.0264	40.756904	0.000264	2.635960	0.893087	-0.000105
 679	6.7461e+01	12.9847	40.623678	0.000335	3.345642	1.133534	-0.000134
 680	6.7561e+01	12.9446	40.474304	0.000375	3.751174	1.270932	-0.000150
 681	6.7660e+01	12.8996	40.328967	0.000365	3.649791	1.236583	-0.000146
 682	6.7760e+01	12.8708	40.252262	0.000193	1.926279	0.652641	-0.000077
 683	6.7859e+01	12.8258	40.098851	0.000385	3.852557	1.305282	-0.000154
 684	6.7959e+01	12.7809	40.010034	0.000223	2.230428	0.755689	-0.000089
 685	6.8058e+01	12.7472	39.828363	0.000456	4.562239	1.545728	-0.000183
 686	6.8157e+01	12.7007	39.739546	0.000223	2.230428	0.755689	-0.000089
 687	6.8257e+01	12.6654	39.590172	0.000375	3.751174	1.270932	-0.000150
 688	6.8356e+01	12.6317	39.489243	0.000253	2.534577	0.858738	-0.000101
 689	6.8456e+01	12.5884	39.364092	0.000314	3.142876	1.064835	-0.000126
 690	6.8555e+01	12.5515	39.251052	0.000284	2.838726	0.961787	-0.000114
 691	6.8655e+01	12.5098	39.121864	0.000324	3.244259	1.099185	-0.000130
 692	6.8754e+01	12.4777	39.008824	0.000284	2.838726	0.961787	-0.000114
 693	6.8854e+01	12.4328	38.847339	0.000406	4.055323	1.373981	-0.000162
 694	6.8954e+01	12.3879	38.750447	0.000243	2.433194	0.824388	-0.000097
 695	6.9053e+01	12.3590	38.609148	0.000355	3.548408	1.202233	-0.000142
 696	6.9153e+01	12.3013	38.475922	0.000335	3.345642	1.133534	-0.000134
 697	6.9252e+01	12.2676	38.374994	0.000253	2.534577	0.858738	-0.000101
 698	6.9352e+01	12.2307	38.233694	0.000355	3.548408	1.202233	-0.000142
 699	6.9451e+01	12.1825	38.120654	0.000284	2.838726	0.961787	-0.000114
 700	6.9550e+01	12.1473	37.971280	0.000375	3.751174	1.270932	-0.000150
 701	6.9650e+01	12.1039	37.825943	0.000365	3.649791	1.236583	-0.000146
 702	6.9749e+01	12.0783	37.712903	0.000284	2.838726	0.961787	-0.000114
 703	6.9849e+01	12.0366	37.632161	0.000203	2.027662	0.686990	-0.000081
 704	6.9948e+01	11.9868	37.450490	0.000456	4.562239	1.545728	-0.000183
 705	7.0048e+01	11.9499	37.321301	0.000324	3.244259	1.099185	-0.000130
 706	7.0147e+01	11.9066	37.204224	0.000294	2.940109	0.996136	-0.000118
 707	7.0247e+01	11.8745	37.075036	0.000324	3.244259	1.099185	-0.000130
 708	7.0347e+01	11.8248	36.957959	0.000294	2.940109	0.996136	-0.000118
 709	7.0446e+01	11.7831	36.804548	0.000385	3.852557	1.305282	-0.000154
 710	7.0546e+01	11.7510	36.699582	0.000264	2.635960	0.893087	-0.000105
 711	7.0645e+01	11.7173	36.594617	0.000264	2.635960	0.893087	-0.000105
 712	7.0745e+01	11.6660	36.445243	0.000375	3.751174	1.270932	-0.000150
 713	7.0844e+01	11.6323	36.348352	0.000243	2.433194	0.824388	-0.000097
 714	7.0944e+01	11.5922	36.150532	0.000497	4.967771	1.683126	-0.000199
 715	7.1043e+01	11.5617	36.089975	0.000152	1.520746	0.515243	-0.000061
 716	7.1142e+01	11.5056	35.940601	0.000375	3.751174	1.270932	-0.000150
 717	7.1242e+01	11.4655	35.851784	0.000223	2.230428	0.755689	-0.000089
 718	7.1341e+01	11.4286	35.722596	0.000324	3.244259	1.099185	-0.000130
 719	7.1441e+01	11.3965	35.548999	0.000436	4.359473	1.477029	-0.000174
 720	7.1540e+01	11.3548	35.464219	0.000213	2.129045	0.721340	-0.000085
 721	7.1640e+01	11.3130	35.351179	0.000284	2.838726	0.961787	-0.000114
 722	7.1740e+01	11.2729	35.238139	0.000284	2.838726	0.961787	-0.000114
 723	7.1839e+01	11.2232	35.060505	0.000446	4.460856	1.511379	-0.000179
 724	7.1939e+01	11.1943	34.927280	0.000335	3.345642	1.133534	-0.000134
 725	7.2038e+01	11.1510	34.814240	0.000284	2.838726	0.961787	-0.000114
 726	7.2138e+01	11.1221	34.693126	0.000304	3.041493	1.030486	-0.000122
 727	7.2237e+01	11.0740	34.620458	0.000182	1.824896	0.618291	-0.000073
 728	7.2337e+01	11.0339	34.475121	0.000365	3.649791	1.236583	-0.000146
 729	7.2436e+01	10.9954	34.321709	0.000385	3.852557	1.305282	-0.000154
 730	7.2535e+01	10.9585	34.204633	0.000294	2.940109	0.996136	-0.000118
 731	7.2635e+01	10.9152	34.067370	0.000345	3.447025	1.167884	-0.000138
 732	7.2734e+01	10.8719	33.950293	0.000294	2.940109	0.996136	-0.000118
 733	7.2834e+01	10.8382	33.841290	0.000274	2.737343	0.927437	-0.000110
 734	7.2933e+01	10.7933	33.704028	0.000345	3.447025	1.167884	-0.000138
 735	7.3033e+01	10.7644	33.615211	0.000223	2.230428	0.755689	-0.000089
 736	7.3132e+01	10.7211	33.465837	0.000375	3.751174	1.270932	-0.000150
 737	7.3232e+01	10.6730	33.340685	0.000314	3.142876	1.064835	-0.000126
 738	7.3332e+01	10.6521	33.215534	0.000314	3.142876	1.064835	-0.000126
 739	7.3431e+01	10.5944	33.090383	0.000314	3.142876	1.064835	-0.000126
 740	7.3531e+01	10.5591	32.997529	0.000233	2.331811	0.790039	-0.000093
 741	7.3630e+01	10.5222	32.852192	0.000365	3.649791	1.236583	-0.000146
 742	7.3730e+01	10.4724	32.735115	0.000294	2.940109	0.996136	-0.000118
 743	7.3829e+01	10.4371	32.577667	0.000395	3.953940	1.339631	-0.000158
 744	7.3928e+01	10.3954	32.444441	0.000335	3.345642	1.133534	-0.000134
 745	7.4028e+01	10.3537	32.339476	0.000264	2.635960	0.893087	-0.000105
 746	7.4127e+01	10.3184	32.222399	0.000294	2.940109	0.996136	-0.000118
 747	7.4227e+01	10.2767	32.113396	0.000274	2.737343	0.927437	-0.000110
 748	7.4326e+01	10.2302	31.959985	0.000385	3.852557	1.305282	-0.000154
 749	7.4426e+01	10.1933	31.830797	0.000324	3.244259	1.099185	-0.000130
 750	7.4525e+01	10.1500	31.701608	0.000324	3.244259	1.099185	-0.000130
 751	7.4625e+01	10.1115	31.576457	0.000314	3.142876	1.064835	-0.000126
 752	7.4725e+01	10.0762	31.483603	0.000233	2.331811	0.790039	-0.000093
 753	7.4824e+01	10.0425	31.358452	0.000314	3.142876	1.064835	-0.000126
 754	7.4924e+01	9.9896	31.213115	0.000365	3.649791	1.236583	-0.000146
 755	7.5023e+01	9.9559	31.116224	0.000243	2.433194	0.824388	-0.000097
 756	7.5123e+01	9.9142	30.978961	0.000345	3.447025	1.167884	-0.000138
 757	7.5222e+01	9.8821	30.841698	0.000345	3.447025	1.167884	-0.000138
 758	7.5322e+01	9.8404	30.708473	0.000335	3.345642	1.133534	-0.000134
 759	7.5421e+01	9.8019	30.599470	0.000274	2.737343	0.927437	-0.000110
 760	7.5520e+01	9.7666	30.482393	0.000294	2.940109	0.996136	-0.000118
 761	7.5620e+01	9.7233	30.365316	0.000294	2.940109	0.996136	-0.000118
 762	7.5719e+01	9.6751	30.224017	0.000355	3.548408	1.202233	-0.000142
 763	7.5819e+01	9.6366	30.098865	0.000314	3.142876	1.064835	-0.000126
 764	7.5918e+01	9.5981	29.977751	0.000304	3.041493	1.030486	-0.000122
 765	7.6018e+01	9.5532	29.840489	0.000345	3.447025	1.167884	-0.000138
 766	7.6118e+01	9.5179	29.779932	0.000152	1.520746	0.515243	-0.000061
 767	7.6217e+01	9.4826	29.606335	0.000436	4.359473	1.477029	-0.000174
 768	7.6317e+01	9.4425	29.473109	0.000335	3.345642	1.133534	-0.000134
 769	7.6416e+01	9.4040	29.335847	0.000345	3.447025	1.167884	-0.000138
 770	7.6516e+01	9.3687	29.255104	0.000203	2.027662	0.686990	-0.000081
 771	7.6615e+01	9.3158	29.109767	0.000365	3.649791	1.236583	-0.000146
 772	7.6715e+01	9.2805	28.976542	0.000335	3.345642	1.133534	-0.000134
 773	7.6814e+01	9.2420	28.907910	0.000172	1.723512	0.583942	-0.000069
 774	7.6913e+01	9.2051	28.714128	0.000487	4.866388	1.648777	-0.000195
 775	7.7013e+01	9.1634	28.601088	0.000284	2.838726	0.961787	-0.000114
 776	7.7112e+01	9.1217	28.471900	0.000324	3.244259	1.099185	-0.000130
 777	7.7212e+01	9.0735	28.330600	0.000355	3.548408	1.202233	-0.000142
 778	7.7311e+01	9.0382	28.241783	0.000223	2.230428	0.755689	-0.000089
 779	7.7411e+01	8.9917	28.100483	0.000355	3.548408	1.202233	-0.000142
 780	7.7510e+01	8.9628	27.971295	0.000324	3.244259	1.099185	-0.000130
 781	7.7610e+01	8.9195	27.825958	0.000365	3.649791	1.236583	-0.000146
 782	7.7710e+01	8.8778	27.708881	0.000294	2.940109	0.996136	-0.000118
 783	7.7809e+01	8.8361	27.636213	0.000182	1.824896	0.618291	-0.000073
 784	7.7909e+01	8.7992	27.478764	0.000395	3.953940	1.339631	-0.000158
 785	7.8008e+01	8.7703	27.321316	0.000395	3.953940	1.339631	-0.000158
 786	7.8108e+01	8.7302	27.171942	0.000375	3.751174	1.270932	-0.000150
 787	7.8207e+01	8.6901	27.054865	0.000294	2.940109	0.996136	-0.000118
 788	7.8306e+01	8.6436	26.925677	0.000324	3.244259	1.099185	-0.000130
 789	7.8406e+01	8.6067	26.824748	0.000253	2.534577	0.858738	-0.000101
 790	7.8505e+01	8.5650	26.695560	0.000324	3.244259	1.099185	-0.000130
 791	7.8605e+01	8.5217	26.574446	0.000304	3.041493	1.030486	-0.000122
 792	7.8704e+01	8.4816	26.433146	0.000355	3.548408	1.202233	-0.000142
 793	7.8804e+01	8.4399	26.328181	0.000264	2.635960	0.893087	-0.000105
 794	7.8903e+01	8.4078	26.194955	0.000335	3.345642	1.133534	-0.000134
 795	7.9003e+01	8.3677	26.094027	0.000253	2.534577	0.858738	-0.000101
 796	7.9103e+01	8.3131	25.972913	0.000304	3.041493	1.030486	-0.000122
 797	7.9202e+01	8.2794	25.795279	0.000446	4.460856	1.511379	-0.000179
 798	7.9302e+01	8.2522	25.694350	0.000253	2.534577	0.858738	-0.000101
 799	7.9401e+01	8.1992	25.553051	0.000355	3.548408	1.202233	-0.000142
 800	7.9501e+01	8.1720	25.431937	0.000304	3.041493	1.030486	-0.000122
 801	7.9600e+01	8.1270	25.262377	0.000426	4.258090	1.442680	-0.000170
 802	7.9700e+01	8.0789	25.181634	0.000203	2.027662	0.686990	-0.000081
 803	7.9799e+01	8.0436	25.028223	0.000385	3.852557	1.305282	-0.000154
 804	7.9898e+01	8.0099	24.882886	0.000365	3.649791	1.236583	-0.000146
 805	7.9998e+01	7.9730	24.737549	0.000365	3.649791	1.236583	-0.000146
 806	8.0097e+01	7.9297	24.624509	0.000284	2.838726	0.961787	-0.000114
 807	8.0197e+01	7.8912	24.511470	0.000284	2.838726	0.961787	-0.000114
 808	8.0296e+01	7.8511	24.394393	0.000294	2.940109	0.996136	-0.000118
 809	8.0396e+01	7.8078	24.232907	0.000406	4.055323	1.373981	-0.000162
 810	8.0496e+01	7.7661	24.140053	0.000233	2.331811	0.790039	-0.000093
 811	8.0595e+01	7.7308	23.990679	0.000375	3.751174	1.270932	-0.000150
 812	8.0695e+01	7.6827	23.857454	0.000335	3.345642	1.133534	-0.000134
 813	8.0794e+01	7.6474	23.748451	0.000274	2.737343	0.927437	-0.000110
 814	8.0894e+01	7.6105	23.591003	0.000395	3.953940	1.339631	-0.000158
 815	8.0993e+01	7.5688	23.494111	0.000243	2.433194	0.824388	-0.000097
 816	8.1093e+01	7.5222	23.344737	0.000375	3.751174	1.270932	-0.000150
 817	8.1192e+01	7.4821	23.199401	0.000365	3.649791	1.236583	-0.000146
 818	8.1291e+01	7.4452	23.090398	0.000274	2.737343	0.927437	-0.000110
 819	8.1391e+01	7.4003	22.945061	0.000365	3.649791	1.236583	-0.000146
 820	8.1490e+01	7.3666	22.787613	0.000395	3.953940	1.339631	-0.000158
 821	8.1590e+01	7.3378	22.694759	0.000233	2.331811	0.790039	-0.000093
 822	8.1689e+01	7.2880	22.561533	0.000335	3.345642	1.133534	-0.000134
 823	8.1789e+01	7.2527	22.400048	0.000406	4.055323	1.373981	-0.000162
 824	8.1888e+01	7.2110	22.226451	0.000436	4.359473	1.477029	-0.000174
 825	8.1988e+01	7.1677	22.113411	0.000284	2.838726	0.961787	-0.000114
 826	8.2088e+01	7.1420	22.004408	0.000274	2.737343	0.927437	-0.000110
 827	8.2187e+01	7.0955	21.883294	0.000304	3.041493	1.030486	-0.000122
 828	8.2287e+01	7.0522	21.754106	0.000324	3.244259	1.099185	-0.000130
 829	8.2386e+01	7.0153	21.632992	0.000304	3.041493	1.030486	-0.000122
 830	8.2486e+01	6.9608	21.479581	0.000385	3.852557	1.305282	-0.000154
 831	8.2585e+01	6.9319	21.346355	0.000335	3.345642	1.133534	-0.000134
 832	8.2684e+01	6.8886	21.201018	0.000365	3.649791	1.236583	-0.000146
 833	8.2784e+01	6.8501	21.067793	0.000335	3.345642	1.133534	-0.000134
 834	8.2883e+01	6.8052	20.942642	0.000314	3.142876	1.064835	-0.000126
 835	8.2983e+01	6.7747	20.829602	0.000284	2.838726	0.961787	-0.000114
 836	8.3082e+01	6.7265	20.680228	0.000375	3.751174	1.270932	-0.000150
 837	8.3182e+01	6.6961	20.502594	0.000446	4.460856	1.511379	-0.000179
 838	8.3281e+01	6.6528	20.433963	0.000172	1.723512	0.583942	-0.000069
 839	8.3381e+01	6.6191	20.260366	0.000436	4.359473	1.477029	-0.000174
 840	8.3481e+01	6.5822	20.131177	0.000324	3.244259	1.099185	-0.000130
 841	8.3580e+01	6.5372	20.026212	0.000264	2.635960	0.893087	-0.000105
 842	8.3680e+01	6.4971	19.832429	0.000487	4.866388	1.648777	-0.000195
 843	8.3779e+01	6.4651	19.674981	0.000395	3.953940	1.339631	-0.000158
 844	8.3879e+01	6.4266	19.586164	0.000223	2.230428	0.755689	-0.000089
 845	8.3978e+01	6.3784	19.485236	0.000253	2.534577	0.858738	-0.000101
 846	8.4078e+01	6.3271	19.327787	0.000395	3.953940	1.339631	-0.000158
 847	8.4177e+01	6.2966	19.198599	0.000324	3.244259	1.099185	-0.000130
 848	8.4276e+01	6.2517	19.089596	0.000274	2.737343	0.927437	-0.000110
 849	8.4376e+01	6.2116	18.944259	0.000365	3.649791	1.236583	-0.000146
 850	8.4475e+01	6.1811	18.790848	0.000385	3.852557	1.305282	-0.000154
 851	8.4575e+01	6.1410	18.657623	0.000335	3.345642	1.133534	-0.000134
 852	8.4674e+01	6.0929	18.492100	0.000416	4.156706	1.408330	-0.000166
 853	8.4774e+01	6.0544	18.383098	0.000274	2.737343	0.927437	-0.000110
 854	8.4874e+01	6.0143	18.274095	0.000274	2.737343	0.927437	-0.000110
 855	8.4973e+01	5.9742	18.136832	0.000345	3.447025	1.167884	-0.000138
 856	8.5073e+01	5.9341	18.027830	0.000274	2.737343	0.927437	-0.000110
 857	8.5172e+01	5.8940	17.870381	0.000395	3.953940	1.339631	-0.000158
 858	8.5272e+01	5.8538	17.696785	0.000436	4.359473	1.477029	-0.000174
 859	8.5371e+01	5.8137	17.616042	0.000203	2.027662	0.686990	-0.000081
 860	8.5471e+01	5.7784	17.458593	0.000395	3.953940	1.339631	-0.000158
 861	8.5570e+01	5.7415	17.317294	0.000355	3.548408	1.202233	-0.000142
 862	8.5669e+01	5.6966	17.196180	0.000304	3.041493	1.030486	-0.000122
 863	8.5769e+01	5.6565	17.058917	0.000345	3.447025	1.167884	-0.000138
 864	8.5868e+01	5.6164	16.913580	0.000365	3.649791	1.236583	-0.000146
 865	8.5968e+01	5.5699	16.760169	0.000385	3.852557	1.305282	-0.000154
 866	8.6067e+01	5.5298	16.626944	0.000335	3.345642	1.133534	-0.000134
 867	8.6167e+01	5.4977	16.542164	0.000213	2.129045	0.721340	-0.000085
 868	8.6266e+01	5.4592	16.380678	0.000406	4.055323	1.373981	-0.000162
 869	8.6366e+01	5.4079	16.255527	0.000314	3.142876	1.064835	-0.000126
 870	8.6466e+01	5.3742	16.102116	0.000385	3.852557	1.305282	-0.000154
 871	8.6565e+01	5.3421	15.948705	0.000385	3.852557	1.305282	-0.000154
 872	8.6665e+01	5.2924	15.835665	0.000284	2.838726	0.961787	-0.000114
 873	8.6764e+01	5.2667	15.670142	0.000416	4.156706	1.408330	-0.000166
 874	8.6864e+01	5.2234	15.569214	0.000253	2.534577	0.858738	-0.000101
 875	8.6963e+01	5.1769	15.423877	0.000365	3.649791	1.236583	-0.000146
 876	8.7063e+01	5.1384	15.294689	0.000324	3.244259	1.099185	-0.000130
 877	8.7162e+01	5.0983	15.177612	0.000294	2.940109	0.996136	-0.000118
 878	8.7261e+01	5.0565	15.028238	0.000375	3.751174	1.270932	-0.000150
 879	8.7361e+01	5.0180	14.886938	0.000355	3.548408	1.202233	-0.000142
 880	8.7460e+01	4.9827	14.717378	0.000426	4.258090	1.442680	-0.000170
 881	8.7560e+01	4.9458	14.592227	0.000314	3.142876	1.064835	-0.000126
 882	8.7659e+01	4.8993	14.503410	0.000223	2.230428	0.755689	-0.000089
 883	8.7759e+01	4.8560	14.341925	0.000406	4.055323	1.373981	-0.000162
 884	8.7859e+01	4.8159	14.208699	0.000335	3.345642	1.133534	-0.000134
 885	8.7958e+01	4.7774	14.055288	0.000385	3.852557	1.305282	-0.000154
 886	8.8058e+01	4.7373	13.938211	0.000294	2.940109	0.996136	-0.000118
 887	8.8157e+01	4.6988	13.792874	0.000365	3.649791	1.236583	-0.000146
 888	8.8257e+01	4.6635	13.675797	0.000294	2.940109	0.996136	-0.000118
 889	8.8356e+01	4.6122	13.566795	0.000274	2.737343	0.927437	-0.000110
 890	8.8456e+01	4.5721	13.389161	0.000446	4.460856	1.511379	-0.000179
 891	8.8555e+01	4.5400	13.272084	0.000294	2.940109	0.996136	-0.000118
 892	8.8654e+01	4.5111	13.171155	0.000253	2.534577	0.858738	-0.000101
 893	8.8754e+01	4.4501	13.017744	0.000385	3.852557	1.305282	-0.000154
 894	8.8853e+01	4.4293	12.900667	0.000294	2.940109	0.996136	-0.000118
 895	8.8953e+01	4.3812	12.739182	0.000406	4.055323	1.373981	-0.000162
 896	8.9052e+01	4.3394	12.646328	0.000233	2.331811	0.790039	-0.000093
 897	8.9152e+01	4.3026	12.448508	0.000497	4.967771	1.683126	-0.000199
 898	8.9251e+01	4.2673	12.355654	0.000233	2.331811	0.790039	-0.000093
 899	8.9351e+01	4.2239	12.230503	0.000314	3.142876	1.064835	-0.000126
 900	8.9451e+01	4.1822	12.085166	0.000365	3.649791	1.236583	-0.000146
 901	8.9550e+01	4.1341	11.972126	0.000284	2.838726	0.961787	-0.000114
 902	8.9650e+01	4.0940	11.814678	0.000395	3.953940	1.339631	-0.000158
 903	8.9749e+01	4.0667	11.693564	0.000304	3.041493	1.030486	-0.000122
 904	8.9849e+01	4.0234	11.560338	0.000335	3.345642	1.133534	-0.000134
 905	8.9948e+01	3.9769	11.447298	0.000284	2.838726	0.961787	-0.000114
 906	9.0047e+01	3.9480	11.314073	0.000335	3.345642	1.133534	-0.000134
 907	9.0147e+01	3.8983	11.184885	0.000324	3.244259	1.099185	-0.000130
 908	9.0246e+01	3.8678	11.015325	0.000426	4.258090	1.442680	-0.000170
 909	9.0346e+01	3.8213	10.886137	0.000324	3.244259	1.099185	-0.000130
 910	9.0445e+01	3.7796	10.769060	0.000294	2.940109	0.996136	-0.000118
 911	9.0545e+01	3.7330	10.615648	0.000385	3.852557	1.305282	-0.000154
 912	9.0644e+01	3.6913	10.458200	0.000395	3.953940	1.339631	-0.000158
 913	9.0744e+01	3.6705	10.357272	0.000253	2.534577	0.858738	-0.000101
 914	9.0844e+01	3.6256	10.228083	0.000324	3.244259	1.099185	-0.000130
 915	9.0943e+01	3.5871	10.098895	0.000324	3.244259	1.099185	-0.000130
 916	9.1043e+01	3.5438	9.969707	0.000324	3.244259	1.099185	-0.000130
 917	9.1142e+01	3.4988	9.860704	0.000274	2.737343	0.927437	-0.000110
 918	9.1242e+01	3.4716	9.743627	0.000294	2.940109	0.996136	-0.000118
 919	9.1341e+01	3.4298	9.602327	0.000355	3.548408	1.202233	-0.000142
 920	9.1441e+01	3.3881	9.456990	0.000365	3.649791	1.236583	-0.000146
 921	9.1540e+01	3.3400	9.291468	0.000416	4.156706	1.408330	-0.000166
 922	9.1639e+01	3.3127	9.174391	0.000294	2.940109	0.996136	-0.000118
 923	9.1739e+01	3.2694	9.081537	0.000233	2.331811	0.790039	-0.000093
 924	9.1838e+01	3.2261	8.916014	0.000416	4.156706	1.408330	-0.000166
 925	9.1938e+01	3.1812	8.786826	0.000324	3.244259	1.099185	-0.000130
 926	9.2037e+01	3.1395	8.689935	0.000243	2.433194	0.824388	-0.000097
 927	9.2137e+01	3.1058	8.544598	0.000365	3.649791	1.236583	-0.000146
 928	9.2237e+01	3.0625	8.387149	0.000395	3.953940	1.339631	-0.000158
 929	9.2336e+01	3.0240	8.270073	0.000294	2.940109	0.996136	-0.000118
 930	9.2436e+01	2.9951	8.165107	0.000264	2.635960	0.893087	-0.000105
 931	9.2535e+01	2.9454	8.007659	0.000395	3.953940	1.339631	-0.000158
 932	9.2635e+01	2.9101	7.939027	0.000172	1.723512	0.583942	-0.000069
 933	9.2734e+01	2.8684	7.761393	0.000446	4.460856	1.511379	-0.000179
 934	9.2834e+01	2.8283	7.607982	0.000385	3.852557	1.305282	-0.000154
 935	9.2933e+01	2.7882	7.539351	0.000172	1.723512	0.583942	-0.000069
 936	9.3032e+01	2.7464	7.381903	0.000395	3.953940	1.339631	-0.000158
 937	9.3132e+01	2.7112	7.236566	0.000365	3.649791	1.236583	-0.000146
 938	9.3231e+01	2.6694	7.087192	0.000375	3.751174	1.270932	-0.000150
 939	9.3331e+01	2.6229	6.933781	0.000385	3.852557	1.305282	-0.000154
 940	9.3430e+01	2.5828	6.840927	0.000233	2.331811	0.790039	-0.000093
 941	9.3530e+01	2.5507	6.687515	0.000385	3.852557	1.305282	-0.000154
 942	9.3629e+01	2.5058	6.534104	0.000385	3.852557	1.305282	-0.000154
 943	9.3729e+01	2.4625	6.425102	0.000274	2.737343	0.927437	-0.000110
 944	9.3829e+01	2.4288	6.308025	0.000294	2.940109	0.996136	-0.000118
 945	9.3928e+01	2.3935	6.146539	0.000406	4.055323	1.373981	-0.000162
 946	9.4028e+01	2.3470	6.049648	0.000243	2.433194	0.824388	-0.000097
 947	9.4127e+01	2.2957	5.876051	0.000436	4.359473	1.477029	-0.000174
 948	9.4227e+01	2.2652	5.775123	0.000253	2.534577	0.858738	-0.000101
 949	9.4326e+01	2.2251	5.666120	0.000274	2.737343	0.927437	-0.000110
 950	9.4425e+01	2.1914	5.520783	0.000365	3.649791	1.236583	-0.000146
 951	9.4525e+01	2.1417	5.419855	0.000253	2.534577	0.858738	-0.000101
 952	9.4624e+01	2.1048	5.274518	0.000365	3.649791	1.236583	-0.000146
 953	9.4724e+01	2.0743	5.165515	0.000274	2.737343	0.927437	-0.000110
 954	9.4823e+01	2.0294	5.040364	0.000314	3.142876	1.064835	-0.000126
 955	9.4923e+01	1.9844	4.854656	0.000466	4.663622	1.580078	-0.000187
 956	9.5022e+01	1.9491	4.761802	0.000233	2.331811	0.790039	-0.000093
 957	9.5122e+01	1.9090	4.576093	0.000466	4.663622	1.580078	-0.000187
 958	9.5222e+01	1.8770	4.442868	0.000335	3.345642	1.133534	-0.000134
 959	9.5321e+01	1.8352	4.337902	0.000264	2.635960	0.893087	-0.000105
 960	9.5421e+01	1.7935	4.204677	0.000335	3.345642	1.133534	-0.000134
 961	9.5520e+01	1.7598	4.055303	0.000375	3.751174	1.270932	-0.000150
 962	9.5620e+01	1.7117	3.881706	0.000436	4.359473	1.477029	-0.000174
 963	9.5719e+01	1.6636	3.813075	0.000172	1.723512	0.583942	-0.000069
 964	9.5819e+01	1.6251	3.683886	0.000324	3.244259	1.099185	-0.000130
 965	9.5918e+01	1.5946	3.542587	0.000355	3.548408	1.202233	-0.000142
 966	9.6017e+01	1.5465	3.368990	0.000436	4.359473	1.477029	-0.000174
 967	9.6117e+01	1.5048	3.284210	0.000213	2.129045	0.721340	-0.000085
 968	9.6216e+01	1.4615	3.146947	0.000345	3.447025	1.167884	-0.000138
 969	9.6316e+01	1.4406	3.001610	0.000365	3.649791	1.236583	-0.000146
 970	9.6415e+01	1.3957	2.860311	0.000355	3.548408	1.202233	-0.000142
 971	9.6515e+01	1.3508	2.755345	0.000264	2.635960	0.893087	-0.000105
 972	9.6615e+01	1.3139	2.618083	0.000345	3.447025	1.167884	-0.000138
 973	9.6714e+01	1.2706	2.513117	0.000264	2.635960	0.893087	-0.000105
 974	9.6814e+01	1.2321	2.339520	0.000436	4.359473	1.477029	-0.000174
 975	9.6913e+01	1.2080	2.210332	0.000324	3.244259	1.099185	-0.000130
 976	9.7013e+01	1.1534	2.052884	0.000395	3.953940	1.339631	-0.000158
 977	9.7112e+01	1.1214	1.903510	0.000375	3.751174	1.270932	-0.000150
 978	9.7212e+01	1.0732	1.770284	0.000335	3.345642	1.133534	-0.000134
 979	9.7311e+01	1.0395	1.649170	0.000304	3.041493	1.030486	-0.000122
 980	9.7410e+01	1.0042	1.524019	0.000314	3.142876	1.064835	-0.000126
 981	9.7510e+01	0.9529	1.390793	0.000335	3.345642	1.133534	-0.000134
 982	9.7609e+01	0.9160	1.241419	0.000375	3.751174	1.270932	-0.000150
 983	9.7709e+01	0.8663	1.120305	0.000304	3.041493	1.030486	-0.000122
 984	9.7808e+01	0.8422	0.966894	0.000385	3.852557	1.305282	-0.000154
 985	9.7908e+01	0.7957	0.845780	0.000304	3.041493	1.030486	-0.000122
 986	9.8007e+01	0.7572	0.700443	0.000365	3.649791	1.236583	-0.000146
 987	9.8107e+01	0.7219	0.542995	0.000395	3.953940	1.339631	-0.000158
 988	9.8207e+01	0.6786	0.413806	0.000324	3.244259	1.099185	-0.000130
 989	9.8306e+01	0.6305	0.316915	0.000243	2.433194	0.824388	-0.000097
 990	9.8406e+01	0.5855	0.147355	0.000426	4.258090	1.442680	-0.000170
 991	9.8505e+01	0.5503	0.018167	0.000324	3.244259	1.099185	-0.000130
 992	9.8605e+01	0.5182	-0.074687	0.000233	2.331811	0.790039	-0.000093
 993	9.8704e+01	0.4781	-0.207912	0.000335	3.345642	1.133534	-0.000134
 994	9.8803e+01	0.4460	-0.389584	0.000456	4.562239	1.545728	-0.000183
 995	9.8903e+01	0.3930	-0.486475	0.000243	2.433194	0.824388	-0.000097
 996	9.9002e+01	0.3561	-0.647960	0.000406	4.055323	1.373981	-0.000162
 997	9.9102e+01	0.3144	-0.736777	0.000223	2.230428	0.755689	-0.000089
 998	9.9201e+01	0.2856	-0.926523	0.000477	4.765005	1.614427	-0.000191
 999	9.9301e+01	0.2406	-1.047637	0.000304	3.041493	1.030486	-0.000122
1000	9.9400e+01	0.1957	-1.192974	0.000365	3.649791	1.236583	-0.000146
1001	9.9500e+01	0.1540	-1.326199	0.000335	3.345642	1.133534	-0.000134
1002	9.9600e+01	0.1155	-1.475573	0.000375	3.751174	1.270932	-0.000150
1003	9.9699e+01	0.0770	-1.592650	0.000294	2.940109	0.996136	-0.000118
1004	9.9799e+01	0.0385	-1.742024	0.000375	3.751174	1.270932	-0.000150
1005	9.9898e+01	0.0064	-1.830841	0.000223	2.230428	0.755689	-0.000089
1006	9.9998e+01	-0.0449	-1.984252	0.000385	3.852557	1.305282	-0.000154
1007	1.0010e+02	-0.0690	-2.097292	0.000284	2.838726	0.961787	-0.000114
1008	1.0020e+02	-0.1219	-2.270889	0.000436	4.359473	1.477029	-0.000174
1009	1.0030e+02	-0.1572	-2.379892	0.000274	2.737343	0.927437	-0.000110
1010	1.0040e+02	-0.1845	-2.537340	0.000395	3.953940	1.339631	-0.000158
1011	1.0050e+02	-0.2278	-2.658454	0.000304	3.041493	1.030486	-0.000122
1012	1.0059e+02	-0.2727	-2.811865	0.000385	3.852557	1.305282	-0.000154
1013	1.0069e+02	-0.3160	-2.977388	0.000416	4.156706	1.408330	-0.000166
1014	1.0079e+02	-0.3545	-3.082353	0.000264	2.635960	0.893087	-0.000105
1015	1.0089e+02	-0.3914	-3.219616	0.000345	3.447025	1.167884	-0.000138
1016	1.0099e+02	-0.4412	-3.364953	0.000365	3.649791	1.236583	-0.000146
1017	1.0109e+02	-0.4620	-3.490104	0.000314	3.142876	1.064835	-0.000126
1018	1.0119e+02	-0.5214	-3.611218	0.000304	3.041493	1.030486	-0.000122
1019	1.0129e+02	-0.5503	-3.752518	0.000355	3.548408	1.202233	-0.000142
1020	1.0139e+02	-0.5871	-3.897855	0.000365	3.649791	1.236583	-0.000146
1021	1.0149e+02	-0.6321	-4.055303	0.000395	3.953940	1.339631	-0.000158
1022	1.0159e+02	-0.6706	-4.172380	0.000294	2.940109	0.996136	-0.000118
1023	1.0169e+02	-0.7155	-4.317717	0.000365	3.649791	1.236583	-0.000146
1024	1.0179e+02	-0.7540	-4.430756	0.000284	2.838726	0.961787	-0.000114
1025	1.0189e+02	-0.8005	-4.563982	0.000335	3.345642	1.133534	-0.000134
1026	1.0199e+02	-0.8374	-4.672985	0.000274	2.737343	0.927437	-0.000110
1027	1.0209e+02	-0.8615	-4.810247	0.000345	3.447025	1.167884	-0.000138
1028	1.0219e+02	-0.9080	-4.971733	0.000406	4.055323	1.373981	-0.000162
1029	1.0229e+02	-0.9497	-5.100921	0.000324	3.244259	1.099185	-0.000130
1030	1.0239e+02	-0.9834	-5.217998	0.000294	2.940109	0.996136	-0.000118
1031	1.0248e+02	-1.0411	-5.387558	0.000426	4.258090	1.442680	-0.000170
1032	1.0258e+02	-1.0668	-5.516746	0.000324	3.244259	1.099185	-0.000130
1033	1.0268e+02	-1.1101	-5.654009	0.000345	3.447025	1.167884	-0.000138
1034	1.0278e+02	-1.1518	-5.795308	0.000355	3.548408	1.202233	-0.000142
1035	1.0288e+02	-1.1903	-5.924497	0.000324	3.244259	1.099185	-0.000130
1036	1.0298e+02	-1.2256	-6.077908	0.000385	3.852557	1.305282	-0.000154
1037	1.0308e+02	-1.2786	-6.211133	0.000335	3.345642	1.133534	-0.000134
1038	1.0318e+02	-1.3107	-6.332247	0.000304	3.041493	1.030486	-0.000122
1039	1.0328e+02	-1.3604	-6.477584	0.000365	3.649791	1.236583	-0.000146
1040	1.0338e+02	-1.3812	-6.602735	0.000314	3.142876	1.064835	-0.000126
1041	1.0348e+02	-1.4342	-6.735961	0.000335	3.345642	1.133534	-0.000134
1042	1.0358e+02	-1.4727	-6.865149	0.000324	3.244259	1.099185	-0.000130
1043	1.0368e+02	-1.5144	-7.046820	0.000456	4.562239	1.545728	-0.000183
1044	1.0378e+02	-1.5481	-7.151786	0.000264	2.635960	0.893087	-0.000105
1045	1.0388e+02	-1.5930	-7.268863	0.000294	2.940109	0.996136	-0.000118
1046	1.0398e+02	-1.6379	-7.361717	0.000233	2.331811	0.790039	-0.000093
1047	1.0408e+02	-1.6684	-7.523202	0.000406	4.055323	1.373981	-0.000162
1048	1.0418e+02	-1.7117	-7.652391	0.000324	3.244259	1.099185	-0.000130
1049	1.0428e+02	-1.7502	-7.809839	0.000395	3.953940	1.339631	-0.000158
1050	1.0438e+02	-1.7903	-7.959213	0.000375	3.751174	1.270932	-0.000150
1051	1.0447e+02	-1.8320	-8.092439	0.000335	3.345642	1.133534	-0.000134
1052	1.0457e+02	-1.8721	-8.197404	0.000264	2.635960	0.893087	-0.000105
1053	1.0467e+02	-1.9074	-8.334667	0.000345	3.447025	1.167884	-0.000138
1054	1.0477e+02	-1.9475	-8.471929	0.000345	3.447025	1.167884	-0.000138
1055	1.0487e+02	-1.9876	-8.605155	0.000335	3.345642	1.133534	-0.000134
1056	1.0497e+02	-2.0294	-8.778752	0.000436	4.359473	1.477029	-0.000174
1057	1.0507e+02	-2.0663	-8.839309	0.000152	1.520746	0.515243	-0.000061
1058	1.0517e+02	-2.1064	-9.008868	0.000426	4.258090	1.442680	-0.000170
1059	1.0527e+02	-2.1577	-9.105760	0.000243	2.433194	0.824388	-0.000097
1060	1.0537e+02	-2.1946	-9.243022	0.000345	3.447025	1.167884	-0.000138
1061	1.0547e+02	-2.2267	-9.392396	0.000375	3.751174	1.270932	-0.000150
1062	1.0557e+02	-2.2716	-9.509473	0.000294	2.940109	0.996136	-0.000118
1063	1.0567e+02	-2.3085	-9.662884	0.000385	3.852557	1.305282	-0.000154
1064	1.0577e+02	-2.3310	-9.747664	0.000213	2.129045	0.721340	-0.000085
1065	1.0587e+02	-2.3887	-9.844555	0.000243	2.433194	0.824388	-0.000097
1066	1.0597e+02	-2.4304	-10.006041	0.000406	4.055323	1.373981	-0.000162
1067	1.0607e+02	-2.4625	-10.147341	0.000355	3.548408	1.202233	-0.000142
1068	1.0617e+02	-2.5090	-10.316900	0.000426	4.258090	1.442680	-0.000170
1069	1.0627e+02	-2.5427	-10.409755	0.000233	2.331811	0.790039	-0.000093
1070	1.0637e+02	-2.5780	-10.551054	0.000355	3.548408	1.202233	-0.000142
1071	1.0647e+02	-2.6181	-10.684280	0.000335	3.345642	1.133534	-0.000134
1072	1.0656e+02	-2.6759	-10.829617	0.000365	3.649791	1.236583	-0.000146
1073	1.0666e+02	-2.7063	-10.938619	0.000274	2.737343	0.927437	-0.000110
1074	1.0676e+02	-2.7400	-11.087993	0.000375	3.751174	1.270932	-0.000150
1075	1.0686e+02	-2.7817	-11.201033	0.000284	2.838726	0.961787	-0.000114
1076	1.0696e+02	-2.8138	-11.330221	0.000324	3.244259	1.099185	-0.000130
1077	1.0706e+02	-2.8636	-11.443261	0.000284	2.838726	0.961787	-0.000114
1078	1.0716e+02	-2.8940	-11.568412	0.000314	3.142876	1.064835	-0.000126
1079	1.0726e+02	-2.9357	-11.762195	0.000487	4.866388	1.648777	-0.000195
1080	1.0736e+02	-2.9887	-11.867161	0.000264	2.635960	0.893087	-0.000105
1081	1.0746e+02	-3.0176	-11.960015	0.000233	2.331811	0.790039	-0.000093
1082	1.0756e+02	-3.0529	-12.060943	0.000253	2.534577	0.858738	-0.000101
1083	1.0766e+02	-3.1010	-12.190131	0.000324	3.244259	1.099185	-0.000130
1084	1.0776e+02	-3.1427	-12.315283	0.000314	3.142876	1.064835	-0.000126
1085	1.0786e+02	-3.1764	-12.472731	0.000395	3.953940	1.339631	-0.000158
1086	1.0796e+02	-3.2165	-12.589808	0.000294	2.940109	0.996136	-0.000118
1087	1.0806e+02	-3.2694	-12.706885	0.000294	2.940109	0.996136	-0.000118
1088	1.0816e+02	-3.3095	-12.832036	0.000314	3.142876	1.064835	-0.000126
1089	1.0826e+02	-3.3400	-12.997559	0.000416	4.156706	1.408330	-0.000166
1090	1.0836e+02	-3.3785	-13.078301	0.000203	2.027662	0.686990	-0.000081
1091	1.0845e+02	-3.4234	-13.255935	0.000446	4.460856	1.511379	-0.000179
1092	1.0855e+02	-3.4603	-13.356864	0.000253	2.534577	0.858738	-0.000101
1093	1.0865e+02	-3.5036	-13.490089	0.000335	3.345642	1.133534	-0.000134
1094	1.0875e+02	-3.5325	-13.603129	0.000284	2.838726	0.961787	-0.000114
1095	1.0885e+02	-3.5839	-13.740391	0.000345	3.447025	1.167884	-0.000138
1096	1.0895e+02	-3.6224	-13.853431	0.000284	2.838726	0.961787	-0.000114
1097	1.0905e+02	-3.6625	-13.982620	0.000324	3.244259	1.099185	-0.000130
1098	1.0915e+02	-3.7042	-14.144105	0.000406	4.055323	1.373981	-0.000162
1099	1.0925e+02	-3.7395	-14.212736	0.000172	1.723512	0.583942	-0.000069
1100	1.0935e+02	-3.7748	-14.362110	0.000375	3.751174	1.270932	-0.000150
1101	1.0945e+02	-3.8197	-14.463039	0.000253	2.534577	0.858738	-0.000101
1102	1.0955e+02	-3.8534	-14.588190	0.000314	3.142876	1.064835	-0.000126
1103	1.0965e+02	-3.9079	-14.729490	0.000355	3.548408	1.202233	-0.000142
1104	1.0975e+02	-3.9288	-14.858678	0.000324	3.244259	1.099185	-0.000130
1105	1.0985e+02	-3.9737	-15.008052	0.000375	3.751174	1.270932	-0.000150
1106	1.0995e+02	-4.0170	-15.113018	0.000264	2.635960	0.893087	-0.000105
1107	1.1005e+02	-4.0603	-15.270466	0.000395	3.953940	1.339631	-0.000158
1108	1.1015e+02	-4.1020	-15.343134	0.000182	1.824896	0.618291	-0.000073
1109	1.1025e+02	-4.1389	-15.488471	0.000365	3.649791	1.236583	-0.000146
1110	1.1035e+02	-4.1822	-15.645920	0.000395	3.953940	1.339631	-0.000158
1111	1.1044e+02	-4.2127	-15.742811	0.000243	2.433194	0.824388	-0.000097
1112	1.1054e+02	-4.2528	-15.851813	0.000274	2.737343	0.927437	-0.000110
1113	1.1064e+02	-4.2977	-15.989076	0.000345	3.447025	1.167884	-0.000138
1114	1.1074e+02	-4.3346	-16.146524	0.000395	3.953940	1.339631	-0.000158
1115	1.1084e+02	-4.3780	-16.223230	0.000193	1.926279	0.652641	-0.000077
1116	1.1094e+02	-4.4197	-16.388753	0.000416	4.156706	1.408330	-0.000166
1117	1.1104e+02	-4.4614	-16.461421	0.000182	1.824896	0.618291	-0.000073
1118	1.1114e+02	-4.4967	-16.590609	0.000324	3.244259	1.099185	-0.000130
1119	1.1124e+02	-4.5416	-16.707686	0.000294	2.940109	0.996136	-0.000118
1120	1.1134e+02	-4.5785	-16.812652	0.000264	2.635960	0.893087	-0.000105
1121	1.1144e+02	-4.6074	-16.913580	0.000253	2.534577	0.858738	-0.000101
1122	1.1154e+02	-4.6603	-17.058917	0.000365	3.649791	1.236583	-0.000146
1123	1.1164e+02	-4.7052	-17.208291	0.000375	3.751174	1.270932	-0.000150
1124	1.1174e+02	-4.7389	-17.353628	0.000365	3.649791	1.236583	-0.000146
1125	1.1184e+02	-4.7774	-17.478779	0.000314	3.142876	1.064835	-0.000126
1126	1.1194e+02	-4.8159	-17.620079	0.000355	3.548408	1.202233	-0.000142
1127	1.1204e+02	-4.8544	-17.733119	0.000284	2.838726	0.961787	-0.000114
1128	1.1214e+02	-4.8865	-17.817899	0.000213	2.129045	0.721340	-0.000085
1129	1.1224e+02	-4.9346	-17.943050	0.000314	3.142876	1.064835	-0.000126
1130	1.1234e+02	-4.9731	-18.088387	0.000365	3.649791	1.236583	-0.000146
1131	1.1244e+02	-5.0245	-18.225649	0.000345	3.447025	1.167884	-0.000138
1132	1.1253e+02	-5.0630	-18.302355	0.000193	1.926279	0.652641	-0.000077
1133	1.1263e+02	-5.0934	-18.492100	0.000477	4.765005	1.614427	-0.000191
1134	1.1273e+02	-5.1464	-18.601103	0.000274	2.737343	0.927437	-0.000110
1135	1.1283e+02	-5.1769	-18.722217	0.000304	3.041493	1.030486	-0.000122
1136	1.1293e+02	-5.2218	-18.839294	0.000294	2.940109	0.996136	-0.000118
1137	1.1303e+02	-5.2571	-18.976557	0.000345	3.447025	1.167884	-0.000138
1138	1.1313e+02	-5.2956	-19.077485	0.000253	2.534577	0.858738	-0.000101
1139	1.1323e+02	-5.3341	-19.230896	0.000385	3.852557	1.305282	-0.000154
1140	1.1333e+02	-5.3694	-19.364122	0.000335	3.345642	1.133534	-0.000134
1141	1.1343e+02	-5.4207	-19.485236	0.000304	3.041493	1.030486	-0.000122
1142	1.1353e+02	-5.4528	-19.606350	0.000304	3.041493	1.030486	-0.000122
1143	1.1363e+02	-5.4897	-19.719390	0.000284	2.838726	0.961787	-0.000114
1144	1.1373e+02	-5.5250	-19.860689	0.000355	3.548408	1.202233	-0.000142
1145	1.1383e+02	-5.5699	-19.993915	0.000335	3.345642	1.133534	-0.000134
1146	1.1393e+02	-5.6164	-20.135214	0.000355	3.548408	1.202233	-0.000142
1147	1.1403e+02	-5.6581	-20.211920	0.000193	1.926279	0.652641	-0.000077
1148	1.1413e+02	-5.6918	-20.349183	0.000345	3.447025	1.167884	-0.000138
1149	1.1423e+02	-5.7335	-20.502594	0.000385	3.852557	1.305282	-0.000154
1150	1.1433e+02	-5.7736	-20.571225	0.000172	1.723512	0.583942	-0.000069
1151	1.1442e+02	-5.8234	-20.760971	0.000477	4.765005	1.614427	-0.000191
1152	1.1452e+02	-5.8442	-20.890159	0.000324	3.244259	1.099185	-0.000130
1153	1.1462e+02	-5.8972	-20.987050	0.000243	2.433194	0.824388	-0.000097
1154	1.1472e+02	-5.9341	-21.108164	0.000304	3.041493	1.030486	-0.000122
1155	1.1482e+02	-5.9758	-21.217167	0.000274	2.737343	0.927437	-0.000110
1156	1.1492e+02	-6.0062	-21.354429	0.000345	3.447025	1.167884	-0.000138
1157	1.1502e+02	-6.0544	-21.475544	0.000304	3.041493	1.030486	-0.000122
1158	1.1512e+02	-6.0913	-21.584546	0.000274	2.737343	0.927437	-0.000110
1159	1.1522e+02	-6.1266	-21.709697	0.000314	3.142876	1.064835	-0.000126
1160	1.1532e+02	-6.1699	-21.842923	0.000335	3.345642	1.133534	-0.000134
1161	1.1542e+02	-6.2036	-21.972111	0.000324	3.244259	1.099185	-0.000130
1162	1.1552e+02	-6.2549	-22.113411	0.000355	3.548408	1.202233	-0.000142
1163	1.1562e+02	-6.2902	-22.234525	0.000304	3.041493	1.030486	-0.000122
1164	1.1572e+02	-6.3239	-22.367751	0.000335	3.345642	1.133534	-0.000134
1165	1.1582e+02	-6.3752	-22.480790	0.000284	2.838726	0.961787	-0.000114
1166	1.1592e+02	-6.4057	-22.630164	0.000375	3.751174	1.270932	-0.000150
1167	1.1602e+02	-6.4410	-22.735130	0.000264	2.635960	0.893087	-0.000105
1168	1.1612e+02	-6.4891	-22.836058	0.000253	2.534577	0.858738	-0.000101
1169	1.1622e+02	-6.5324	-22.989469	0.000385	3.852557	1.305282	-0.000154
1170	1.1632e+02	-6.5677	-23.122695	0.000335	3.345642	1.133534	-0.000134
1171	1.1642e+02	-6.5982	-23.247846	0.000314	3.142876	1.064835	-0.000126
1172	1.1651e+02	-6.6431	-23.389146	0.000355	3.548408	1.202233	-0.000142
1173	1.1661e+02	-6.6945	-23.477963	0.000223	2.230428	0.755689	-0.000089
1174	1.1671e+02	-6.7185	-23.586966	0.000274	2.737343	0.927437	-0.000110
1175	1.1681e+02	-6.7715	-23.748451	0.000406	4.055323	1.373981	-0.000162
1176	1.1691e+02	-6.8116	-23.885714	0.000345	3.447025	1.167884	-0.000138
1177	1.1701e+02	-6.8453	-24.018939	0.000335	3.345642	1.133534	-0.000134
1178	1.1711e+02	-6.8854	-24.140053	0.000304	3.041493	1.030486	-0.000122
1179	1.1721e+02	-6.9287	-24.216759	0.000193	1.926279	0.652641	-0.000077
1180	1.1731e+02	-6.9624	-24.390356	0.000436	4.359473	1.477029	-0.000174
1181	1.1741e+02	-7.0009	-24.491284	0.000253	2.534577	0.858738	-0.000101
1182	1.1751e+02	-7.0442	-24.584138	0.000233	2.331811	0.790039	-0.000093
1183	1.1761e+02	-7.0795	-24.725438	0.000355	3.548408	1.202233	-0.000142
1184	1.1771e+02	-7.1244	-24.854626	0.000324	3.244259	1.099185	-0.000130
1185	1.1781e+02	-7.1661	-24.991889	0.000345	3.447025	1.167884	-0.000138
1186	1.1791e+02	-7.1966	-25.129151	0.000345	3.447025	1.167884	-0.000138
1187	1.1801e+02	-7.2431	-25.270451	0.000355	3.548408	1.202233	-0.000142
1188	1.1811e+02	-7.2752	-25.347157	0.000193	1.926279	0.652641	-0.000077
1189	1.1821e+02	-7.3362	-25.516716	0.000426	4.258090	1.442680	-0.000170
1190	1.1831e+02	-7.3747	-25.605533	0.000223	2.230428	0.755689	-0.000089
1191	1.1841e+02	-7.4116	-25.730685	0.000314	3.142876	1.064835	-0.000126
1192	1.1850e+02	-7.4436	-25.876022	0.000365	3.649791	1.236583	-0.000146
1193	1.1860e+02	-7.4854	-25.989061	0.000284	2.838726	0.961787	-0.000114
1194	1.1870e+02	-7.5174	-26.130361	0.000355	3.548408	1.202233	-0.000142
1195	1.1880e+02	-7.5591	-26.271661	0.000355	3.548408	1.202233	-0.000142
1196	1.1890e+02	-7.6009	-26.344329	0.000182	1.824896	0.618291	-0.000073
1197	1.1900e+02	-7.6490	-26.497740	0.000385	3.852557	1.305282	-0.000154
1198	1.1910e+02	-7.6730	-26.610780	0.000284	2.838726	0.961787	-0.000114
1199	1.1920e+02	-7.7196	-26.711709	0.000253	2.534577	0.858738	-0.000101
1200	1.1930e+02	-7.7613	-26.812637	0.000253	2.534577	0.858738	-0.000101
1201	1.1940e+02	-7.8014	-26.945862	0.000335	3.345642	1.133534	-0.000134
1202	1.1950e+02	-7.8335	-27.127534	0.000456	4.562239	1.545728	-0.000183
1203	1.1960e+02	-7.8736	-27.236536	0.000274	2.737343	0.927437	-0.000110
1204	1.1970e+02	-7.9217	-27.369762	0.000335	3.345642	1.133534	-0.000134
1205	1.1980e+02	-7.9586	-27.434356	0.000162	1.622129	0.549592	-0.000065
1206	1.1990e+02	-8.0099	-27.591804	0.000395	3.953940	1.339631	-0.000158
1207	1.2000e+02	-8.0420	-27.712918	0.000304	3.041493	1.030486	-0.000122
1208	1.2010e+02	-8.0773	-27.838069	0.000314	3.142876	1.064835	-0.000126
1209	1.2020e+02	-8.1238	-27.938998	0.000253	2.534577	0.858738	-0.000101
1210	1.2030e+02	-8.1655	-28.056075	0.000294	2.940109	0.996136	-0.000118
1211	1.2039e+02	-8.1880	-28.205449	0.000375	3.751174	1.270932	-0.000150
1212	1.2049e+02	-8.2409	-28.358860	0.000385	3.852557	1.305282	-0.000154
1213	1.2059e+02	-8.2810	-28.471900	0.000284	2.838726	0.961787	-0.000114
1214	1.2069e+02	-8.3228	-28.580902	0.000274	2.737343	0.927437	-0.000110
1215	1.2079e+02	-8.3629	-28.706054	0.000314	3.142876	1.064835	-0.000126
1216	1.2089e+02	-8.3982	-28.794871	0.000223	2.230428	0.755689	-0.000089
1217	1.2099e+02	-8.4383	-28.895799	0.000253	2.534577	0.858738	-0.000101
1218	1.2109e+02	-8.4816	-29.000765	0.000264	2.635960	0.893087	-0.000105
1219	1.2119e+02	-8.5169	-29.162250	0.000406	4.055323	1.373981	-0.000162
1220	1.2129e+02	-8.5618	-29.271253	0.000274	2.737343	0.927437	-0.000110
1221	1.2139e+02	-8.6051	-29.380255	0.000274	2.737343	0.927437	-0.000110
1222	1.2149e+02	-8.6436	-29.493295	0.000284	2.838726	0.961787	-0.000114
1223	1.2159e+02	-8.6773	-29.642669	0.000375	3.751174	1.270932	-0.000150
1224	1.2169e+02	-8.7158	-29.735523	0.000233	2.331811	0.790039	-0.000093
1225	1.2179e+02	-8.7655	-29.872786	0.000345	3.447025	1.167884	-0.000138
1226	1.2189e+02	-8.8072	-29.989863	0.000294	2.940109	0.996136	-0.000118
1227	1.2199e+02	-8.8329	-30.082717	0.000233	2.331811	0.790039	-0.000093
1228	1.2209e+02	-8.8826	-30.244202	0.000406	4.055323	1.373981	-0.000162
1229	1.2219e+02	-8.9115	-30.337057	0.000233	2.331811	0.790039	-0.000093
1230	1.2229e+02	-8.9628	-30.530839	0.000487	4.866388	1.648777	-0.000195
1231	1.2239e+02	-8.9949	-30.595433	0.000162	1.622129	0.549592	-0.000065
1232	1.2248e+02	-9.0366	-30.720584	0.000314	3.142876	1.064835	-0.000126
1233	1.2258e+02	-9.0880	-30.853810	0.000335	3.345642	1.133534	-0.000134
1234	1.2268e+02	-9.1233	-30.898218	0.000112	1.115214	0.377845	-0.000045
1235	1.2278e+02	-9.1538	-31.051630	0.000385	3.852557	1.305282	-0.000154
1236	1.2288e+02	-9.2019	-31.156595	0.000264	2.635960	0.893087	-0.000105
1237	1.2298e+02	-9.2388	-31.285783	0.000324	3.244259	1.099185	-0.000130
1238	1.2308e+02	-9.2805	-31.346340	0.000152	1.520746	0.515243	-0.000061
1239	1.2318e+02	-9.3206	-31.491677	0.000365	3.649791	1.236583	-0.000146
1240	1.2328e+02	-9.3623	-31.604717	0.000284	2.838726	0.961787	-0.000114
1241	1.2338e+02	-9.3928	-31.725831	0.000304	3.041493	1.030486	-0.000122
1242	1.2348e+02	-9.4393	-31.818685	0.000233	2.331811	0.790039	-0.000093
1243	1.2358e+02	-9.4890	-31.959985	0.000355	3.548408	1.202233	-0.000142
1244	1.2368e+02	-9.5115	-32.056876	0.000243	2.433194	0.824388	-0.000097
1245	1.2378e+02	-9.5516	-32.186065	0.000324	3.244259	1.099185	-0.000130
1246	1.2388e+02	-9.5901	-32.323327	0.000345	3.447025	1.167884	-0.000138
1247	1.2398e+02	-9.6318	-32.456553	0.000335	3.345642	1.133534	-0.000134
1248	1.2408e+02	-9.6671	-32.593815	0.000345	3.447025	1.167884	-0.000138
1249	1.2418e+02	-9.7088	-32.727041	0.000335	3.345642	1.133534	-0.000134
1250	1.2428e+02	-9.7489	-32.799709	0.000182	1.824896	0.618291	-0.000073
1251	1.2438e+02	-9.8035	-32.904675	0.000264	2.635960	0.893087	-0.000105
1252	1.2447e+02	-9.8307	-32.997529	0.000233	2.331811	0.790039	-0.000093
1253	1.2457e+02	-9.8660	-33.094420	0.000243	2.433194	0.824388	-0.000097
1254	1.2467e+02	-9.9093	-33.167089	0.000182	1.824896	0.618291	-0.000073
1255	1.2477e+02	-9.9559	-33.280128	0.000284	2.838726	0.961787	-0.000114
1256	1.2487e+02	-9.9880	-33.401243	0.000304	3.041493	1.030486	-0.000122
1257	1.2497e+02	-10.0297	-33.534468	0.000335	3.345642	1.133534	-0.000134
1258	1.2507e+02	-10.0698	-33.655582	0.000304	3.041493	1.030486	-0.000122
1259	1.2517e+02	-10.1163	-33.780733	0.000314	3.142876	1.064835	-0.000126
1260	1.2527e+02	-10.1532	-33.845327	0.000162	1.622129	0.549592	-0.000065
1261	1.2537e+02	-10.1885	-33.978553	0.000335	3.345642	1.133534	-0.000134
1262	1.2547e+02	-10.2446	-34.103704	0.000314	3.142876	1.064835	-0.000126
1263	1.2557e+02	-10.2767	-34.208670	0.000264	2.635960	0.893087	-0.000105
1264	1.2567e+02	-10.3104	-34.325747	0.000294	2.940109	0.996136	-0.000118
1265	1.2577e+02	-10.3441	-34.483195	0.000395	3.953940	1.339631	-0.000158
1266	1.2587e+02	-10.3890	-34.580086	0.000243	2.433194	0.824388	-0.000097
1267	1.2597e+02	-10.4275	-34.725423	0.000365	3.649791	1.236583	-0.000146
1268	1.2607e+02	-10.4772	-34.850574	0.000314	3.142876	1.064835	-0.000126
1269	1.2617e+02	-10.5093	-34.939391	0.000223	2.230428	0.755689	-0.000089
1270	1.2627e+02	-10.5478	-35.020134	0.000203	2.027662	0.686990	-0.000081
1271	1.2636e+02	-10.5911	-35.129137	0.000274	2.737343	0.927437	-0.000110
1272	1.2646e+02	-10.6377	-35.242176	0.000284	2.838726	0.961787	-0.000114
1273	1.2656e+02	-10.6681	-35.286585	0.000112	1.115214	0.377845	-0.000045
1274	1.2666e+02	-10.7115	-35.407699	0.000304	3.041493	1.030486	-0.000122
1275	1.2676e+02	-10.7484	-35.536887	0.000324	3.244259	1.099185	-0.000130
1276	1.2686e+02	-10.7885	-35.649927	0.000284	2.838726	0.961787	-0.000114
1277	1.2696e+02	-10.8318	-35.779115	0.000324	3.244259	1.099185	-0.000130
1278	1.2706e+02	-10.8687	-35.867932	0.000223	2.230428	0.755689	-0.000089
1279	1.2716e+02	-10.9104	-35.980972	0.000284	2.838726	0.961787	-0.000114
1280	1.2726e+02	-10.9473	-36.081901	0.000253	2.534577	0.858738	-0.000101
1281	1.2736e+02	-10.9938	-36.243386	0.000406	4.055323	1.373981	-0.000162
1282	1.2746e+02	-11.0387	-36.356426	0.000284	2.838726	0.961787	-0.000114
1283	1.2756e+02	-11.0660	-36.457354	0.000253	2.534577	0.858738	-0.000101
1284	1.2766e+02	-11.1077	-36.598654	0.000355	3.548408	1.202233	-0.000142
1285	1.2776e+02	-11.1478	-36.703620	0.000264	2.635960	0.893087	-0.000105
1286	1.2786e+02	-11.1831	-36.824734	0.000304	3.041493	1.030486	-0.000122
1287	1.2796e+02	-11.2280	-36.937773	0.000284	2.838726	0.961787	-0.000114
1288	1.2806e+02	-11.2762	-37.075036	0.000345	3.447025	1.167884	-0.000138
1289	1.2816e+02	-11.3211	-37.139630	0.000162	1.622129	0.549592	-0.000065
1290	1.2826e+02	-11.3419	-37.220373	0.000203	2.027662	0.686990	-0.000081
1291	1.2835e+02	-11.3884	-37.305153	0.000213	2.129045	0.721340	-0.000085
1292	1.2845e+02	-11.4253	-37.438378	0.000335	3.345642	1.133534	-0.000134
1293	1.2855e+02	-11.4719	-37.523158	0.000213	2.129045	0.721340	-0.000085
1294	1.2865e+02	-11.5120	-37.644272	0.000304	3.041493	1.030486	-0.000122
1295	1.2875e+02	-11.5537	-37.741163	0.000243	2.433194	0.824388	-0.000097
1296	1.2885e+02	-11.5874	-37.894575	0.000385	3.852557	1.305282	-0.000154
1297	1.2895e+02	-11.6227	-37.983392	0.000223	2.230428	0.755689	-0.000089
1298	1.2905e+02	-11.6564	-38.104506	0.000304	3.041493	1.030486	-0.000122
1299	1.2915e+02	-11.7109	-38.205434	0.000253	2.534577	0.858738	-0.000101
1300	1.2925e+02	-11.7526	-38.330585	0.000314	3.142876	1.064835	-0.000126
1301	1.2935e+02	-11.7863	-38.463811	0.000335	3.345642	1.133534	-0.000134
1302	1.2945e+02	-11.8264	-38.572813	0.000274	2.737343	0.927437	-0.000110
1303	1.2955e+02	-11.8681	-38.718150	0.000365	3.649791	1.236583	-0.000146
1304	1.2965e+02	-11.9050	-38.823116	0.000264	2.635960	0.893087	-0.000105
1305	1.2975e+02	-11.9387	-38.920007	0.000243	2.433194	0.824388	-0.000097
1306	1.2985e+02	-11.9836	-39.037084	0.000294	2.940109	0.996136	-0.000118
1307	1.2995e+02	-12.0237	-39.158198	0.000304	3.041493	1.030486	-0.000122
1308	1.3005e+02	-12.0670	-39.218755	0.000152	1.520746	0.515243	-0.000061
1309	1.3015e+02	-12.0975	-39.291424	0.000182	1.824896	0.618291	-0.000073
1310	1.3025e+02	-12.1456	-39.412538	0.000304	3.041493	1.030486	-0.000122
1311	1.3034e+02	-12.1809	-39.505392	0.000233	2.331811	0.790039	-0.000093
1312	1.3044e+02	-12.2275	-39.683026	0.000446	4.460856	1.511379	-0.000179
1313	1.3054e+02	-12.2724	-39.771843	0.000223	2.230428	0.755689	-0.000089
1314	1.3064e+02	-12.3109	-39.860660	0.000223	2.230428	0.755689	-0.000089
1315	1.3074e+02	-12.3430	-39.937365	0.000193	1.926279	0.652641	-0.000077
1316	1.3084e+02	-12.3847	-40.090776	0.000385	3.852557	1.305282	-0.000154
1317	1.3094e+02	-12.4200	-40.236113	0.000365	3.649791	1.236583	-0.000146
1318	1.3104e+02	-12.4633	-40.345116	0.000274	2.737343	0.927437	-0.000110
1319	1.3114e+02	-12.5050	-40.494490	0.000375	3.751174	1.270932	-0.000150
1320	1.3124e+02	-12.5499	-40.587344	0.000233	2.331811	0.790039	-0.000093
1321	1.3134e+02	-12.5852	-40.692310	0.000264	2.635960	0.893087	-0.000105
1322	1.3144e+02	-12.6237	-40.845721	0.000385	3.852557	1.305282	-0.000154
1323	1.3154e+02	-12.6686	-40.958761	0.000284	2.838726	0.961787	-0.000114
1324	1.3164e+02	-12.7055	-41.007206	0.000122	1.216597	0.412194	-0.000049
1325	1.3174e+02	-12.7585	-41.124283	0.000294	2.940109	0.996136	-0.000118
1326	1.3184e+02	-12.7729	-41.265583	0.000355	3.548408	1.202233	-0.000142
1327	1.3194e+02	-12.8290	-41.305954	0.000101	1.013831	0.343495	-0.000041
1328	1.3204e+02	-12.8724	-41.410920	0.000264	2.635960	0.893087	-0.000105
1329	1.3214e+02	-12.9012	-41.540108	0.000324	3.244259	1.099185	-0.000130
1330	1.3224e+02	-12.9430	-41.636999	0.000243	2.433194	0.824388	-0.000097
1331	1.3234e+02	-12.9686	-41.725816	0.000223	2.230428	0.755689	-0.000089
1332	1.3243e+02	-13.0200	-41.875190	0.000375	3.751174	1.270932	-0.000150
1333	1.3253e+02	-13.0601	-41.996305	0.000304	3.041493	1.030486	-0.000122
1334	1.3263e+02	-13.1002	-42.117419	0.000304	3.041493	1.030486	-0.000122
1335	1.3273e+02	-13.1403	-42.234496	0.000294	2.940109	0.996136	-0.000118
1336	1.3283e+02	-13.1788	-42.371758	0.000345	3.447025	1.167884	-0.000138
1337	1.3293e+02	-13.2237	-42.525169	0.000385	3.852557	1.305282	-0.000154
1338	1.3303e+02	-13.2574	-42.609949	0.000213	2.129045	0.721340	-0.000085
1339	1.3313e+02	-13.3007	-42.747212	0.000345	3.447025	1.167884	-0.000138
1340	1.3323e+02	-13.3360	-42.860252	0.000284	2.838726	0.961787	-0.000114
1341	1.3333e+02	-13.3905	-42.957143	0.000243	2.433194	0.824388	-0.000097
1342	1.3343e+02	-13.4162	-43.098443	0.000355	3.548408	1.202233	-0.000142
1343	1.3353e+02	-13.4611	-43.203408	0.000264	2.635960	0.893087	-0.000105
1344	1.3363e+02	-13.5060	-43.247817	0.000112	1.115214	0.377845	-0.000045
1345	1.3373e+02	-13.5445	-43.393153	0.000365	3.649791	1.236583	-0.000146
1346	1.3383e+02	-13.5798	-43.437562	0.000112	1.115214	0.377845	-0.000045
1347	1.3393e+02	-13.6183	-43.590973	0.000385	3.852557	1.305282	-0.000154
1348	1.3403e+02	-13.6504	-43.631344	0.000101	1.013831	0.343495	-0.000041
1349	1.3413e+02	-13.6937	-43.768607	0.000345	3.447025	1.167884	-0.000138
1350	1.3423e+02	-13.7483	-43.901833	0.000335	3.345642	1.133534	-0.000134
1351	1.3432e+02	-13.7691	-44.022947	0.000304	3.041493	1.030486	-0.000122
1352	1.3442e+02	-13.8237	-44.135986	0.000284	2.838726	0.961787	-0.000114
1353	1.3452e+02	-13.8590	-44.232878	0.000243	2.433194	0.824388	-0.000097
1354	1.3462e+02	-13.9023	-44.329769	0.000243	2.433194	0.824388	-0.000097
1355	1.3472e+02	-13.9312	-44.487217	0.000395	3.953940	1.339631	-0.000158
1356	1.3482e+02	-13.9681	-44.636591	0.000375	3.751174	1.270932	-0.000150
1357	1.3492e+02	-14.0194	-44.713297	0.000193	1.926279	0.652641	-0.000077
1358	1.3502e+02	-14.0547	-44.866708	0.000385	3.852557	1.305282	-0.000154
1359	1.3512e+02	-14.0964	-44.995896	0.000324	3.244259	1.099185	-0.000130
1360	1.3522e+02	-14.1381	-45.072602	0.000193	1.926279	0.652641	-0.000077
1361	1.3532e+02	-14.1814	-45.181605	0.000274	2.737343	0.927437	-0.000110
1362	1.3542e+02	-14.2167	-45.322904	0.000355	3.548408	1.202233	-0.000142
1363	1.3552e+02	-14.2568	-45.379424	0.000142	1.419363	0.480893	-0.000057
1364	1.3562e+02	-14.2953	-45.484390	0.000264	2.635960	0.893087	-0.000105
1365	1.3572e+02	-14.3322	-45.569170	0.000213	2.129045	0.721340	-0.000085
1366	1.3582e+02	-14.3739	-45.694321	0.000314	3.142876	1.064835	-0.000126
1367	1.3592e+02	-14.4188	-45.823509	0.000324	3.244259	1.099185	-0.000130
1368	1.3602e+02	-14.4493	-45.871955	0.000122	1.216597	0.412194	-0.000049
1369	1.3612e+02	-14.4926	-46.033440	0.000406	4.055323	1.373981	-0.000162
1370	1.3622e+02	-14.5327	-46.102072	0.000172	1.723512	0.583942	-0.000069
1371	1.3631e+02	-14.5745	-46.235297	0.000335	3.345642	1.133534	-0.000134
1372	1.3641e+02	-14.6178	-46.336225	0.000253	2.534577	0.858738	-0.000101
1373	1.3651e+02	-14.6531	-46.473488	0.000345	3.447025	1.167884	-0.000138
1374	1.3661e+02	-14.6980	-46.598639	0.000314	3.142876	1.064835	-0.000126
1375	1.3671e+02	-14.7301	-46.739939	0.000355	3.548408	1.202233	-0.000142
1376	1.3681e+02	-14.7573	-46.861053	0.000304	3.041493	1.030486	-0.000122
1377	1.3691e+02	-14.8199	-46.966019	0.000264	2.635960	0.893087	-0.000105
1378	1.3701e+02	-14.8632	-47.079058	0.000284	2.838726	0.961787	-0.000114
1379	1.3711e+02	-14.8857	-47.167875	0.000223	2.230428	0.755689	-0.000089
1380	1.3721e+02	-14.9418	-47.256692	0.000223	2.230428	0.755689	-0.000089
1381	1.3731e+02	-14.9755	-47.377806	0.000304	3.041493	1.030486	-0.000122
1382	1.3741e+02	-15.0108	-47.486809	0.000274	2.737343	0.927437	-0.000110
1383	1.3751e+02	-15.0573	-47.571589	0.000213	2.129045	0.721340	-0.000085
1384	1.3761e+02	-15.0910	-47.640220	0.000172	1.723512	0.583942	-0.000069
1385	1.3771e+02	-15.1295	-47.745186	0.000264	2.635960	0.893087	-0.000105
1386	1.3781e+02	-15.1776	-47.850151	0.000264	2.635960	0.893087	-0.000105
1387	1.3791e+02	-15.2049	-47.975303	0.000314	3.142876	1.064835	-0.000126
1388	1.3801e+02	-15.2579	-48.068157	0.000233	2.331811	0.790039	-0.000093
1389	1.3811e+02	-15.2915	-48.124677	0.000142	1.419363	0.480893	-0.000057
1390	1.3821e+02	-15.3300	-48.282125	0.000395	3.953940	1.339631	-0.000158
1391	1.3831e+02	-15.3734	-48.439573	0.000395	3.953940	1.339631	-0.000158
1392	1.3840e+02	-15.4167	-48.544539	0.000264	2.635960	0.893087	-0.000105
1393	1.3850e+02	-15.4552	-48.685838	0.000355	3.548408	1.202233	-0.000142
1394	1.3860e+02	-15.4937	-48.758507	0.000182	1.824896	0.618291	-0.000073
1395	1.3870e+02	-15.5354	-48.891732	0.000335	3.345642	1.133534	-0.000134
1396	1.3880e+02	-15.5771	-48.984586	0.000233	2.331811	0.790039	-0.000093
1397	1.3890e+02	-15.6028	-49.073403	0.000223	2.230428	0.755689	-0.000089
1398	1.3900e+02	-15.6461	-49.226815	0.000385	3.852557	1.305282	-0.000154
1399	1.3910e+02	-15.6894	-49.307557	0.000203	2.027662	0.686990	-0.000081
1400	1.3920e+02	-15.7295	-49.416560	0.000274	2.737343	0.927437	-0.000110
1401	1.3930e+02	-15.7632	-49.444820	0.000071	0.709682	0.240447	-0.000028
1402	1.3940e+02	-15.8161	-49.561897	0.000294	2.940109	0.996136	-0.000118
1403	1.3950e+02	-15.8482	-49.650714	0.000223	2.230428	0.755689	-0.000089
1404	1.3960e+02	-15.8915	-49.739531	0.000223	2.230428	0.755689	-0.000089
1405	1.3970e+02	-15.9300	-49.864682	0.000314	3.142876	1.064835	-0.000126
1406	1.3980e+02	-15.9653	-49.977722	0.000284	2.838726	0.961787	-0.000114
1407	1.3990e+02	-16.0215	-50.074613	0.000243	2.433194	0.824388	-0.000097
1408	1.4000e+02	-16.0471	-50.199764	0.000314	3.142876	1.064835	-0.000126
1409	1.4010e+02	-16.0953	-50.276470	0.000193	1.926279	0.652641	-0.000077
1410	1.4020e+02	-16.1306	-50.437955	0.000406	4.055323	1.373981	-0.000162
1411	1.4029e+02	-16.1675	-50.530809	0.000233	2.331811	0.790039	-0.000093
1412	1.4039e+02	-16.1995	-50.647886	0.000294	2.940109	0.996136	-0.000118
1413	1.4049e+02	-16.2413	-50.760926	0.000284	2.838726	0.961787	-0.000114
1414	1.4059e+02	-16.2846	-50.882040	0.000304	3.041493	1.030486	-0.000122
1415	1.4069e+02	-16.3311	-50.962783	0.000203	2.027662	0.686990	-0.000081
1416	1.4079e+02	-16.3712	-51.083897	0.000304	3.041493	1.030486	-0.000122
1417	1.4089e+02	-16.4081	-51.196937	0.000284	2.838726	0.961787	-0.000114
1418	1.4099e+02	-16.4546	-51.309977	0.000284	2.838726	0.961787	-0.000114
1419	1.4109e+02	-16.4835	-51.382645	0.000182	1.824896	0.618291	-0.000073
1420	1.4119e+02	-16.5348	-51.471462	0.000223	2.230428	0.755689	-0.000089
1421	1.4129e+02	-16.5701	-51.556242	0.000213	2.129045	0.721340	-0.000085
1422	1.4139e+02	-16.6006	-51.657170	0.000253	2.534577	0.858738	-0.000101
1423	1.4149e+02	-16.6471	-51.713690	0.000142	1.419363	0.480893	-0.000057
1424	1.4159e+02	-16.6872	-51.842879	0.000324	3.244259	1.099185	-0.000130
1425	1.4169e+02	-16.7225	-51.903436	0.000152	1.520746	0.515243	-0.000061
1426	1.4179e+02	-16.7755	-52.036661	0.000335	3.345642	1.133534	-0.000134
1427	1.4189e+02	-16.8108	-52.121441	0.000213	2.129045	0.721340	-0.000085
1428	1.4199e+02	-16.8509	-52.299075	0.000446	4.460856	1.511379	-0.000179
1429	1.4209e+02	-16.8797	-52.367706	0.000172	1.723512	0.583942	-0.000069
1430	1.4219e+02	-16.9279	-52.496895	0.000324	3.244259	1.099185	-0.000130
1431	1.4228e+02	-16.9648	-52.585712	0.000223	2.230428	0.755689	-0.000089
1432	1.4238e+02	-17.0033	-52.682603	0.000243	2.433194	0.824388	-0.000097
1433	1.4248e+02	-17.0514	-52.819865	0.000345	3.447025	1.167884	-0.000138
1434	1.4258e+02	-17.0931	-52.912720	0.000233	2.331811	0.790039	-0.000093
1435	1.4268e+02	-17.1316	-52.997499	0.000213	2.129045	0.721340	-0.000085
1436	1.4278e+02	-17.1669	-53.154948	0.000395	3.953940	1.339631	-0.000158
1437	1.4288e+02	-17.2102	-53.247802	0.000233	2.331811	0.790039	-0.000093
1438	1.4298e+02	-17.2439	-53.312396	0.000162	1.622129	0.549592	-0.000065
1439	1.4308e+02	-17.2856	-53.393139	0.000203	2.027662	0.686990	-0.000081
1440	1.4318e+02	-17.3241	-53.498104	0.000264	2.635960	0.893087	-0.000105
1441	1.4328e+02	-17.3674	-53.599033	0.000253	2.534577	0.858738	-0.000101
1442	1.4338e+02	-17.4172	-53.675738	0.000193	1.926279	0.652641	-0.000077
1443	1.4348e+02	-17.4396	-53.788778	0.000284	2.838726	0.961787	-0.000114
1444	1.4358e+02	-17.4797	-53.885669	0.000243	2.433194	0.824388	-0.000097
1445	1.4368e+02	-17.5150	-54.031006	0.000365	3.649791	1.236583	-0.000146
1446	1.4378e+02	-17.5615	-54.156157	0.000314	3.142876	1.064835	-0.000126
1447	1.4388e+02	-17.6032	-54.253049	0.000243	2.433194	0.824388	-0.000097
1448	1.4398e+02	-17.6401	-54.378200	0.000314	3.142876	1.064835	-0.000126
1449	1.4408e+02	-17.6883	-54.487202	0.000274	2.737343	0.927437	-0.000110
1450	1.4418e+02	-17.7220	-54.592168	0.000264	2.635960	0.893087	-0.000105
1451	1.4428e+02	-17.7589	-54.693096	0.000253	2.534577	0.858738	-0.000101
1452	1.4437e+02	-17.8022	-54.745579	0.000132	1.317980	0.446544	-0.000053
1453	1.4447e+02	-17.8375	-54.874768	0.000324	3.244259	1.099185	-0.000130
1454	1.4457e+02	-17.8840	-54.999919	0.000314	3.142876	1.064835	-0.000126
1455	1.4467e+02	-17.9193	-55.088736	0.000223	2.230428	0.755689	-0.000089
1456	1.4477e+02	-17.9610	-55.213887	0.000314	3.142876	1.064835	-0.000126
1457	1.4487e+02	-18.0027	-55.302704	0.000223	2.230428	0.755689	-0.000089
1458	1.4497e+02	-18.0524	-55.387484	0.000213	2.129045	0.721340	-0.000085
1459	1.4507e+02	-18.0765	-55.452078	0.000162	1.622129	0.549592	-0.000065
1460	1.4517e+02	-18.1326	-55.565118	0.000284	2.838726	0.961787	-0.000114
1461	1.4527e+02	-18.1599	-55.649898	0.000213	2.129045	0.721340	-0.000085
1462	1.4537e+02	-18.2000	-55.758900	0.000274	2.737343	0.927437	-0.000110
1463	1.4547e+02	-18.2417	-55.896163	0.000345	3.447025	1.167884	-0.000138
1464	1.4557e+02	-18.2786	-56.057648	0.000406	4.055323	1.373981	-0.000162
1465	1.4567e+02	-18.3219	-56.114168	0.000142	1.419363	0.480893	-0.000057
1466	1.4577e+02	-18.3604	-56.283728	0.000426	4.258090	1.442680	-0.000170
1467	1.4587e+02	-18.4022	-56.376582	0.000233	2.331811	0.790039	-0.000093
1468	1.4597e+02	-18.4342	-56.469436	0.000233	2.331811	0.790039	-0.000093
1469	1.4607e+02	-18.4727	-56.558253	0.000223	2.230428	0.755689	-0.000089
1470	1.4617e+02	-18.5225	-56.695516	0.000345	3.447025	1.167884	-0.000138
1471	1.4626e+02	-18.5642	-56.784333	0.000223	2.230428	0.755689	-0.000089
1472	1.4636e+02	-18.6043	-56.925632	0.000355	3.548408	1.202233	-0.000142
1473	1.4646e+02	-18.6380	-57.026561	0.000253	2.534577	0.858738	-0.000101
1474	1.4656e+02	-18.6749	-57.147675	0.000304	3.041493	1.030486	-0.000122
1475	1.4666e+02	-18.7230	-57.212269	0.000162	1.622129	0.549592	-0.000065
1476	1.4676e+02	-18.7519	-57.345495	0.000335	3.345642	1.133534	-0.000134
1477	1.4686e+02	-18.8016	-57.462572	0.000294	2.940109	0.996136	-0.000118
1478	1.4696e+02	-18.8337	-57.551389	0.000223	2.230428	0.755689	-0.000089
1479	1.4706e+02	-18.8706	-57.652317	0.000253	2.534577	0.858738	-0.000101
1480	1.4716e+02	-18.9251	-57.716911	0.000162	1.622129	0.549592	-0.000065
1481	1.4726e+02	-18.9540	-57.858211	0.000355	3.548408	1.202233	-0.000142
1482	1.4736e+02	-18.9973	-58.027771	0.000426	4.258090	1.442680	-0.000170
1483	1.4746e+02	-19.0358	-58.120625	0.000233	2.331811	0.790039	-0.000093
1484	1.4756e+02	-19.0711	-58.286147	0.000416	4.156706	1.408330	-0.000166
1485	1.4766e+02	-19.1209	-58.395150	0.000274	2.737343	0.927437	-0.000110
1486	1.4776e+02	-19.1577	-58.508190	0.000284	2.838726	0.961787	-0.000114
1487	1.4786e+02	-19.1930	-58.625267	0.000294	2.940109	0.996136	-0.000118
1488	1.4796e+02	-19.2396	-58.730232	0.000264	2.635960	0.893087	-0.000105
1489	1.4806e+02	-19.2797	-58.831161	0.000253	2.534577	0.858738	-0.000101
1490	1.4816e+02	-19.3166	-58.936126	0.000264	2.635960	0.893087	-0.000105
1491	1.4825e+02	-19.3519	-59.077426	0.000355	3.548408	1.202233	-0.000142
1492	1.4835e+02	-19.4000	-59.158169	0.000203	2.027662	0.686990	-0.000081
1493	1.4845e+02	-19.4401	-59.295431	0.000345	3.447025	1.167884	-0.000138
1494	1.4855e+02	-19.4706	-59.428657	0.000335	3.345642	1.133534	-0.000134
1495	1.4865e+02	-19.5187	-59.505362	0.000193	1.926279	0.652641	-0.000077
1496	1.4875e+02	-19.5572	-59.594179	0.000223	2.230428	0.755689	-0.000089
1497	1.4885e+02	-19.5989	-59.707219	0.000284	2.838726	0.961787	-0.000114
1498	1.4895e+02	-19.6342	-59.832370	0.000314	3.142876	1.064835	-0.000126
1499	1.4905e+02	-19.6599	-60.001930	0.000426	4.258090	1.442680	-0.000170
1500	1.4915e+02	-19.7096	-60.175527	0.000436	4.359473	1.477029	-0.000174
1501	1.4925e+02	-19.7561	-60.236084	0.000152	1.520746	0.515243	-0.000061
1502	1.4935e+02	-19.7914	-60.349124	0.000284	2.838726	0.961787	-0.000114
1503	1.4945e+02	-19.8283	-60.458126	0.000274	2.737343	0.927437	-0.000110
1504	1.4955e+02	-19.8652	-60.635760	0.000446	4.460856	1.511379	-0.000179
1505	1.4965e+02	-19.9101	-60.777060	0.000355	3.548408	1.202233	-0.000142
1506	1.4975e+02	-19.9583	-60.886063	0.000274	2.737343	0.927437	-0.000110
1507	1.4985e+02	-19.9887	-61.003140	0.000294	2.940109	0.996136	-0.000118
1508	1.4995e+02	-19.9615	-60.926434	0.000193	1.926279	0.652641	0.000077
1509	1.5005e+02	-19.9198	-60.926434	0.000000	0.000000	0.000000	0.000000
1510	1.5015e+02	-19.8748	-60.841654	0.000213	2.129045	0.721340	0.000085
1511	1.5025e+02	-19.8331	-60.764949	0.000193	1.926279	0.652641	0.000077
1512	1.5034e+02	-19.7898	-60.712466	0.000132	1.317980	0.446544	0.000053
1513	1.5044e+02	-19.7625	-60.684206	0.000071	0.709682	0.240447	0.000028
1514	1.5054e+02	-19.7224	-60.575203	0.000274	2.737343	0.927437	0.000110
1515	1.5064e+02	-19.6807	-60.486386	0.000223	2.230428	0.755689	0.000089
1516	1.5074e+02	-19.6374	-60.441978	0.000112	1.115214	0.377845	0.000045
1517	1.5084e+02	-19.5973	-60.401606	0.000101	1.013831	0.343495	0.000041
1518	1.5094e+02	-19.5476	-60.337012	0.000162	1.622129	0.549592	0.000065
1519	1.5104e+02	-19.5075	-60.260307	0.000193	1.926279	0.652641	0.000077
1520	1.5114e+02	-19.4722	-60.211861	0.000122	1.216597	0.412194	0.000049
1521	1.5124e+02	-19.4385	-60.155341	0.000142	1.419363	0.480893	0.000057
1522	1.5134e+02	-19.3952	-60.070561	0.000213	2.129045	0.721340	0.000085
1523	1.5144e+02	-19.3535	-60.030190	0.000101	1.013831	0.343495	0.000041
1524	1.5154e+02	-19.3182	-59.925224	0.000264	2.635960	0.893087	0.000105
1525	1.5164e+02	-19.2829	-59.836407	0.000223	2.230428	0.755689	0.000089
1526	1.5174e+02	-19.2283	-59.771813	0.000162	1.622129	0.549592	0.000065
1527	1.5184e+02	-19.2011	-59.711256	0.000152	1.520746	0.515243	0.000061
1528	1.5194e+02	-19.1561	-59.610328	0.000253	2.534577	0.858738	0.000101
1529	1.5204e+02	-19.1176	-59.529585	0.000203	2.027662	0.686990	0.000081
1530	1.5214e+02	-19.0759	-59.477102	0.000132	1.317980	0.446544	0.000053
1531	1.5224e+02	-19.0406	-59.400397	0.000193	1.926279	0.652641	0.000077
1532	1.5233e+02	-18.9989	-59.295431	0.000264	2.635960	0.893087	0.000105
1533	1.5243e+02	-18.9556	-59.218726	0.000193	1.926279	0.652641	0.000077
1534	1.5253e+02	-18.9059	-59.117797	0.000253	2.534577	0.858738	0.000101
1535	1.5263e+02	-18.8770	-59.097612	0.000051	0.506915	0.171748	0.000020
1536	1.5273e+02	-18.8353	-59.028980	0.000172	1.723512	0.583942	0.000069
1537	1.5283e+02	-18.7936	-58.944200	0.000213	2.129045	0.721340	0.000085
1538	1.5293e+02	-18.7551	-58.883643	0.000152	1.520746	0.515243	0.000061
1539	1.5303e+02	-18.7198	-58.786752	0.000243	2.433194	0.824388	0.000097
1540	1.5313e+02	-18.6797	-58.718121	0.000172	1.723512	0.583942	0.000069
1541	1.5323e+02	-18.6460	-58.588932	0.000324	3.244259	1.099185	0.000130
1542	1.5333e+02	-18.6027	-58.552598	0.000091	0.912448	0.309146	0.000037
1543	1.5343e+02	-18.5610	-58.455707	0.000243	2.433194	0.824388	0.000097
1544	1.5353e+02	-18.5145	-58.383038	0.000182	1.824896	0.618291	0.000073
1545	1.5363e+02	-18.4743	-58.282110	0.000253	2.534577	0.858738	0.000101
1546	1.5373e+02	-18.4439	-58.201367	0.000203	2.027662	0.686990	0.000081
1547	1.5383e+02	-18.3989	-58.120625	0.000203	2.027662	0.686990	0.000081
1548	1.5393e+02	-18.3540	-58.080253	0.000101	1.013831	0.343495	0.000041
1549	1.5403e+02	-18.3187	-57.979325	0.000253	2.534577	0.858738	0.000101
1550	1.5413e+02	-18.2850	-57.838025	0.000355	3.548408	1.202233	0.000142
1551	1.5422e+02	-18.2433	-57.761320	0.000193	1.926279	0.652641	0.000077
1552	1.5432e+02	-18.1968	-57.672503	0.000223	2.230428	0.755689	0.000089
1553	1.5442e+02	-18.1631	-57.607908	0.000162	1.622129	0.549592	0.000065
1554	1.5452e+02	-18.1294	-57.571574	0.000091	0.912448	0.309146	0.000037
1555	1.5462e+02	-18.0861	-57.486794	0.000213	2.129045	0.721340	0.000085
1556	1.5472e+02	-18.0332	-57.393940	0.000233	2.331811	0.790039	0.000093
1557	1.5482e+02	-18.0043	-57.313198	0.000203	2.027662	0.686990	0.000081
1558	1.5492e+02	-17.9578	-57.224381	0.000223	2.230428	0.755689	0.000089
1559	1.5502e+02	-17.9225	-57.127489	0.000243	2.433194	0.824388	0.000097
1560	1.5512e+02	-17.8888	-56.990227	0.000345	3.447025	1.167884	0.000138
1561	1.5522e+02	-17.8423	-56.941781	0.000122	1.216597	0.412194	0.000049
1562	1.5532e+02	-17.8022	-56.840853	0.000253	2.534577	0.858738	0.000101
1563	1.5542e+02	-17.7701	-56.760110	0.000203	2.027662	0.686990	0.000081
1564	1.5552e+02	-17.7188	-56.659182	0.000253	2.534577	0.858738	0.000101
1565	1.5562e+02	-17.6819	-56.594587	0.000162	1.622129	0.549592	0.000065
1566	1.5572e+02	-17.6546	-56.550179	0.000112	1.115214	0.377845	0.000045
1567	1.5582e+02	-17.6129	-56.437139	0.000284	2.838726	0.961787	0.000114
1568	1.5592e+02	-17.5760	-56.283728	0.000385	3.852557	1.305282	0.000154
1569	1.5602e+02	-17.5246	-56.182799	0.000253	2.534577	0.858738	0.000101
1570	1.5612e+02	-17.4797	-56.110131	0.000182	1.824896	0.618291	0.000073
1571	1.5622e+02	-17.4396	-56.009203	0.000253	2.534577	0.858738	0.000101
1572	1.5631e+02	-17.3995	-55.960757	0.000122	1.216597	0.412194	0.000049
1573	1.5641e+02	-17.3610	-55.839643	0.000304	3.041493	1.030486	0.000122
1574	1.5651e+02	-17.3177	-55.775049	0.000162	1.622129	0.549592	0.000065
1575	1.5661e+02	-17.2824	-55.657972	0.000294	2.940109	0.996136	0.000118
1576	1.5671e+02	-17.2487	-55.573192	0.000213	2.129045	0.721340	0.000085
1577	1.5681e+02	-17.1990	-55.508598	0.000162	1.622129	0.549592	0.000065
1578	1.5691e+02	-17.1621	-55.439967	0.000172	1.723512	0.583942	0.000069
1579	1.5701e+02	-17.1268	-55.367298	0.000182	1.824896	0.618291	0.000073
1580	1.5711e+02	-17.0915	-55.225998	0.000355	3.548408	1.202233	0.000142
1581	1.5721e+02	-17.0562	-55.129107	0.000243	2.433194	0.824388	0.000097
1582	1.5731e+02	-16.9985	-55.060476	0.000172	1.723512	0.583942	0.000069
1583	1.5741e+02	-16.9680	-54.955510	0.000264	2.635960	0.893087	0.000105
1584	1.5751e+02	-16.9279	-54.838433	0.000294	2.940109	0.996136	0.000118
1585	1.5761e+02	-16.8878	-54.741542	0.000243	2.433194	0.824388	0.000097
1586	1.5771e+02	-16.8460	-54.648688	0.000233	2.331811	0.790039	0.000093
1587	1.5781e+02	-16.8124	-54.539685	0.000274	2.737343	0.927437	0.000110
1588	1.5791e+02	-16.7706	-54.438757	0.000253	2.534577	0.858738	0.000101
1589	1.5801e+02	-16.7289	-54.378200	0.000152	1.520746	0.515243	0.000061
1590	1.5811e+02	-16.6872	-54.244974	0.000335	3.345642	1.133534	0.000134
1591	1.5821e+02	-16.6391	-54.127897	0.000294	2.940109	0.996136	0.000118
1592	1.5830e+02	-16.6054	-54.111749	0.000041	0.405532	0.137398	0.000016
1593	1.5840e+02	-16.5653	-53.978523	0.000335	3.345642	1.133534	0.000134
1594	1.5850e+02	-16.5236	-53.893744	0.000213	2.129045	0.721340	0.000085
1595	1.5860e+02	-16.4883	-53.784741	0.000274	2.737343	0.927437	0.000110
1596	1.5870e+02	-16.4546	-53.728221	0.000142	1.419363	0.480893	0.000057
1597	1.5880e+02	-16.4113	-53.623255	0.000264	2.635960	0.893087	0.000105
1598	1.5890e+02	-16.3712	-53.494067	0.000324	3.244259	1.099185	0.000130
1599	1.5900e+02	-16.3359	-53.413324	0.000203	2.027662	0.686990	0.000081
1600	1.5910e+02	-16.2878	-53.324507	0.000223	2.230428	0.755689	0.000089
1601	1.5920e+02	-16.2541	-53.187245	0.000345	3.447025	1.167884	0.000138
1602	1.5930e+02	-16.2011	-53.114576	0.000182	1.824896	0.618291	0.000073
1603	1.5940e+02	-16.1691	-53.045945	0.000172	1.723512	0.583942	0.000069
1604	1.5950e+02	-16.1306	-52.920794	0.000314	3.142876	1.064835	0.000126
1605	1.5960e+02	-16.0937	-52.836014	0.000213	2.129045	0.721340	0.000085
1606	1.5970e+02	-16.0568	-52.682603	0.000385	3.852557	1.305282	0.000154
1607	1.5980e+02	-16.0038	-52.634157	0.000122	1.216597	0.412194	0.000049
1608	1.5990e+02	-15.9669	-52.525155	0.000274	2.737343	0.927437	0.000110
1609	1.6000e+02	-15.9284	-52.391929	0.000335	3.345642	1.133534	0.000134
1610	1.6010e+02	-15.8867	-52.347521	0.000112	1.115214	0.377845	0.000045
1611	1.6019e+02	-15.8514	-52.266778	0.000203	2.027662	0.686990	0.000081
1612	1.6029e+02	-15.8081	-52.157775	0.000274	2.737343	0.927437	0.000110
1613	1.6039e+02	-15.7728	-52.085107	0.000182	1.824896	0.618291	0.000073
1614	1.6049e+02	-15.7311	-51.963993	0.000304	3.041493	1.030486	0.000122
1615	1.6059e+02	-15.6910	-51.863064	0.000253	2.534577	0.858738	0.000101
1616	1.6069e+02	-15.6541	-51.774247	0.000223	2.230428	0.755689	0.000089
1617	1.6079e+02	-15.6108	-51.693505	0.000203	2.027662	0.686990	0.000081
1618	1.6089e+02	-15.5659	-51.556242	0.000345	3.447025	1.167884	0.000138
1619	1.6099e+02	-15.5354	-51.503759	0.000132	1.317980	0.446544	0.000053
1620	1.6109e+02	-15.4905	-51.382645	0.000304	3.041493	1.030486	0.000122
1621	1.6119e+02	-15.4472	-51.257494	0.000314	3.142876	1.064835	0.000126
1622	1.6129e+02	-15.4183	-51.176751	0.000203	2.027662	0.686990	0.000081
1623	1.6139e+02	-15.3766	-51.087934	0.000223	2.230428	0.755689	0.000089
1624	1.6149e+02	-15.3333	-50.930486	0.000395	3.953940	1.339631	0.000158
1625	1.6159e+02	-15.2883	-50.849743	0.000203	2.027662	0.686990	0.000081
1626	1.6169e+02	-15.2514	-50.756889	0.000233	2.331811	0.790039	0.000093
1627	1.6179e+02	-15.2161	-50.684221	0.000182	1.824896	0.618291	0.000073
1628	1.6189e+02	-15.1776	-50.579255	0.000264	2.635960	0.893087	0.000105
1629	1.6199e+02	-15.1343	-50.494475	0.000213	2.129045	0.721340	0.000085
1630	1.6209e+02	-15.0878	-50.381435	0.000284	2.838726	0.961787	0.000114
1631	1.6219e+02	-15.0525	-50.304730	0.000193	1.926279	0.652641	0.000077
1632	1.6228e+02	-15.0076	-50.183616	0.000304	3.041493	1.030486	0.000122
1633	1.6238e+02	-14.9723	-50.102873	0.000203	2.027662	0.686990	0.000081
1634	1.6248e+02	-14.9370	-49.977722	0.000314	3.142876	1.064835	0.000126
1635	1.6258e+02	-14.8969	-49.876793	0.000253	2.534577	0.858738	0.000101
1636	1.6268e+02	-14.8520	-49.812199	0.000162	1.622129	0.549592	0.000065
1637	1.6278e+02	-14.8119	-49.691085	0.000304	3.041493	1.030486	0.000122
1638	1.6288e+02	-14.7686	-49.569971	0.000304	3.041493	1.030486	0.000122
1639	1.6298e+02	-14.7397	-49.501340	0.000172	1.723512	0.583942	0.000069
1640	1.6308e+02	-14.7044	-49.424634	0.000193	1.926279	0.652641	0.000077
1641	1.6318e+02	-14.6611	-49.327743	0.000243	2.433194	0.824388	0.000097
1642	1.6328e+02	-14.6210	-49.222777	0.000264	2.635960	0.893087	0.000105
1643	1.6338e+02	-14.5745	-49.109738	0.000284	2.838726	0.961787	0.000114
1644	1.6348e+02	-14.5360	-49.033032	0.000193	1.926279	0.652641	0.000077
1645	1.6358e+02	-14.4926	-48.919992	0.000284	2.838726	0.961787	0.000114
1646	1.6368e+02	-14.4525	-48.815027	0.000264	2.635960	0.893087	0.000105
1647	1.6378e+02	-14.4076	-48.722173	0.000233	2.331811	0.790039	0.000093
1648	1.6388e+02	-14.3707	-48.609133	0.000284	2.838726	0.961787	0.000114
1649	1.6398e+02	-14.3386	-48.512242	0.000243	2.433194	0.824388	0.000097
1650	1.6408e+02	-14.2921	-48.403239	0.000274	2.737343	0.927437	0.000110
1651	1.6418e+02	-14.2520	-48.318459	0.000213	2.129045	0.721340	0.000085
1652	1.6427e+02	-14.2151	-48.209456	0.000274	2.737343	0.927437	0.000110
1653	1.6437e+02	-14.1766	-48.128714	0.000203	2.027662	0.686990	0.000081
1654	1.6447e+02	-14.1413	-48.031822	0.000243	2.433194	0.824388	0.000097
1655	1.6457e+02	-14.0948	-47.910708	0.000304	3.041493	1.030486	0.000122
1656	1.6467e+02	-14.0579	-47.829966	0.000203	2.027662	0.686990	0.000081
1657	1.6477e+02	-14.0178	-47.684629	0.000365	3.649791	1.236583	0.000146
1658	1.6487e+02	-13.9713	-47.644257	0.000101	1.013831	0.343495	0.000041
1659	1.6497e+02	-13.9440	-47.543329	0.000253	2.534577	0.858738	0.000101
1660	1.6507e+02	-13.9007	-47.462586	0.000203	2.027662	0.686990	0.000081
1661	1.6517e+02	-13.8574	-47.357621	0.000264	2.635960	0.893087	0.000105
1662	1.6527e+02	-13.8173	-47.276878	0.000203	2.027662	0.686990	0.000081
1663	1.6537e+02	-13.7836	-47.143653	0.000335	3.345642	1.133534	0.000134
1664	1.6547e+02	-13.7370	-47.018501	0.000314	3.142876	1.064835	0.000126
1665	1.6557e+02	-13.7034	-46.925647	0.000233	2.331811	0.790039	0.000093
1666	1.6567e+02	-13.6440	-46.800496	0.000314	3.142876	1.064835	0.000126
1667	1.6577e+02	-13.6167	-46.719753	0.000203	2.027662	0.686990	0.000081
1668	1.6587e+02	-13.5814	-46.602676	0.000294	2.940109	0.996136	0.000118
1669	1.6597e+02	-13.5429	-46.534045	0.000172	1.723512	0.583942	0.000069
1670	1.6607e+02	-13.5012	-46.453302	0.000203	2.027662	0.686990	0.000081
1671	1.6616e+02	-13.4595	-46.344300	0.000274	2.737343	0.927437	0.000110
1672	1.6626e+02	-13.4274	-46.247408	0.000243	2.433194	0.824388	0.000097
1673	1.6636e+02	-13.3873	-46.158591	0.000223	2.230428	0.755689	0.000089
1674	1.6646e+02	-13.3456	-46.045552	0.000284	2.838726	0.961787	0.000114
1675	1.6656e+02	-13.3103	-45.932512	0.000284	2.838726	0.961787	0.000114
1676	1.6666e+02	-13.2654	-45.871955	0.000152	1.520746	0.515243	0.000061
1677	1.6676e+02	-13.2301	-45.710469	0.000406	4.055323	1.373981	0.000162
1678	1.6686e+02	-13.1820	-45.686247	0.000061	0.608299	0.206097	0.000024
1679	1.6696e+02	-13.1403	-45.557058	0.000324	3.244259	1.099185	0.000130
1680	1.6706e+02	-13.0986	-45.500538	0.000142	1.419363	0.480893	0.000057
1681	1.6716e+02	-13.0536	-45.379424	0.000304	3.041493	1.030486	0.000122
1682	1.6726e+02	-13.0216	-45.282533	0.000243	2.433194	0.824388	0.000097
1683	1.6736e+02	-12.9798	-45.177567	0.000264	2.635960	0.893087	0.000105
1684	1.6746e+02	-12.9301	-45.060491	0.000294	2.940109	0.996136	0.000118
1685	1.6756e+02	-12.8916	-44.979748	0.000203	2.027662	0.686990	0.000081
1686	1.6766e+02	-12.8627	-44.866708	0.000284	2.838726	0.961787	0.000114
1687	1.6776e+02	-12.8274	-44.745594	0.000304	3.041493	1.030486	0.000122
1688	1.6786e+02	-12.7825	-44.644666	0.000253	2.534577	0.858738	0.000101
1689	1.6796e+02	-12.7424	-44.527589	0.000294	2.940109	0.996136	0.000118
1690	1.6806e+02	-12.6991	-44.471069	0.000142	1.419363	0.480893	0.000057
1691	1.6816e+02	-12.6638	-44.382252	0.000223	2.230428	0.755689	0.000089
1692	1.6825e+02	-12.6237	-44.273249	0.000274	2.737343	0.927437	0.000110
1693	1.6835e+02	-12.5900	-44.144061	0.000324	3.244259	1.099185	0.000130
1694	1.6845e+02	-12.5403	-44.039095	0.000264	2.635960	0.893087	0.000105
1695	1.6855e+02	-12.5098	-43.986612	0.000132	1.317980	0.446544	0.000053
1696	1.6865e+02	-12.4617	-43.861461	0.000314	3.142876	1.064835	0.000126
1697	1.6875e+02	-12.4296	-43.788793	0.000182	1.824896	0.618291	0.000073
1698	1.6885e+02	-12.3815	-43.679790	0.000274	2.737343	0.927437	0.000110
1699	1.6895e+02	-12.3414	-43.623270	0.000142	1.419363	0.480893	0.000057
1700	1.6905e+02	-12.2980	-43.490045	0.000335	3.345642	1.133534	0.000134
1701	1.6915e+02	-12.2612	-43.381042	0.000274	2.737343	0.927437	0.000110
1702	1.6925e+02	-12.2259	-43.255891	0.000314	3.142876	1.064835	0.000126
1703	1.6935e+02	-12.1793	-43.150925	0.000264	2.635960	0.893087	0.000105
1704	1.6945e+02	-12.1440	-43.086331	0.000162	1.622129	0.549592	0.000065
1705	1.6955e+02	-12.1023	-42.908697	0.000446	4.460856	1.511379	0.000179
1706	1.6965e+02	-12.0606	-42.848140	0.000152	1.520746	0.515243	0.000061
1707	1.6975e+02	-12.0285	-42.731063	0.000294	2.940109	0.996136	0.000118
1708	1.6985e+02	-11.9852	-42.650321	0.000203	2.027662	0.686990	0.000081
1709	1.6995e+02	-11.9419	-42.537281	0.000284	2.838726	0.961787	0.000114
1710	1.7005e+02	-11.9034	-42.448464	0.000223	2.230428	0.755689	0.000089
1711	1.7015e+02	-11.8681	-42.323313	0.000314	3.142876	1.064835	0.000126
1712	1.7024e+02	-11.8392	-42.234496	0.000223	2.230428	0.755689	0.000089
1713	1.7034e+02	-11.7831	-42.129530	0.000264	2.635960	0.893087	0.000105
1714	1.7044e+02	-11.7446	-42.008416	0.000304	3.041493	1.030486	0.000122
1715	1.7054e+02	-11.7109	-41.935747	0.000182	1.824896	0.618291	0.000073
1716	1.7064e+02	-11.6580	-41.830782	0.000264	2.635960	0.893087	0.000105
1717	1.7074e+02	-11.6243	-41.713705	0.000294	2.940109	0.996136	0.000118
1718	1.7084e+02	-11.5697	-41.657185	0.000142	1.419363	0.480893	0.000057
1719	1.7094e+02	-11.5441	-41.568368	0.000223	2.230428	0.755689	0.000089
1720	1.7104e+02	-11.5120	-41.439180	0.000324	3.244259	1.099185	0.000130
1721	1.7114e+02	-11.4655	-41.318066	0.000304	3.041493	1.030486	0.000122
1722	1.7124e+02	-11.4270	-41.172729	0.000365	3.649791	1.236583	0.000146
1723	1.7134e+02	-11.3884	-41.067763	0.000264	2.635960	0.893087	0.000105
1724	1.7144e+02	-11.3499	-40.999132	0.000172	1.723512	0.583942	0.000069
1725	1.7154e+02	-11.3018	-40.849758	0.000375	3.751174	1.270932	0.000150
1726	1.7164e+02	-11.2697	-40.756904	0.000233	2.331811	0.790039	0.000093
1727	1.7174e+02	-11.2328	-40.635790	0.000304	3.041493	1.030486	0.000122
1728	1.7184e+02	-11.1959	-40.538899	0.000243	2.433194	0.824388	0.000097
1729	1.7194e+02	-11.1510	-40.462193	0.000193	1.926279	0.652641	0.000077
1730	1.7204e+02	-11.1109	-40.328967	0.000335	3.345642	1.133534	0.000134
1731	1.7213e+02	-11.0692	-40.199779	0.000324	3.244259	1.099185	0.000130
1732	1.7223e+02	-11.0355	-40.135185	0.000162	1.622129	0.549592	0.000065
1733	1.7233e+02	-10.9890	-40.034257	0.000253	2.534577	0.858738	0.000101
1734	1.7243e+02	-10.9457	-39.884883	0.000375	3.751174	1.270932	0.000150
1735	1.7253e+02	-10.8959	-39.779917	0.000264	2.635960	0.893087	0.000105
1736	1.7263e+02	-10.8607	-39.703211	0.000193	1.926279	0.652641	0.000077
1737	1.7273e+02	-10.8238	-39.594209	0.000274	2.737343	0.927437	0.000110
1738	1.7283e+02	-10.7949	-39.465020	0.000324	3.244259	1.099185	0.000130
1739	1.7293e+02	-10.7419	-39.360055	0.000264	2.635960	0.893087	0.000105
1740	1.7303e+02	-10.7115	-39.251052	0.000274	2.737343	0.927437	0.000110
1741	1.7313e+02	-10.6714	-39.129938	0.000304	3.041493	1.030486	0.000122
1742	1.7323e+02	-10.6280	-39.033047	0.000243	2.433194	0.824388	0.000097
1743	1.7333e+02	-10.5944	-38.964416	0.000172	1.723512	0.583942	0.000069
1744	1.7343e+02	-10.5575	-38.802930	0.000406	4.055323	1.373981	0.000162
1745	1.7353e+02	-10.5093	-38.681816	0.000304	3.041493	1.030486	0.000122
1746	1.7363e+02	-10.4676	-38.617222	0.000162	1.622129	0.549592	0.000065
1747	1.7373e+02	-10.4355	-38.467848	0.000375	3.751174	1.270932	0.000150
1748	1.7383e+02	-10.3938	-38.374994	0.000233	2.331811	0.790039	0.000093
1749	1.7393e+02	-10.3537	-38.225620	0.000375	3.751174	1.270932	0.000150
1750	1.7403e+02	-10.3184	-38.148914	0.000193	1.926279	0.652641	0.000077
1751	1.7413e+02	-10.2687	-38.072209	0.000193	1.926279	0.652641	0.000077
1752	1.7422e+02	-10.2302	-37.922835	0.000375	3.751174	1.270932	0.000150
1753	1.7432e+02	-10.1901	-37.797683	0.000314	3.142876	1.064835	0.000126
1754	1.7442e+02	-10.1532	-37.741163	0.000142	1.419363	0.480893	0.000057
1755	1.7452e+02	-10.1115	-37.620049	0.000304	3.041493	1.030486	0.000122
1756	1.7462e+02	-10.0730	-37.494898	0.000314	3.142876	1.064835	0.000126
1757	1.7472e+02	-10.0329	-37.369747	0.000314	3.142876	1.064835	0.000126
1758	1.7482e+02	-9.9863	-37.260744	0.000274	2.737343	0.927437	0.000110
1759	1.7492e+02	-9.9591	-37.115407	0.000365	3.649791	1.236583	0.000146
1760	1.7502e+02	-9.9222	-36.978145	0.000345	3.447025	1.167884	0.000138
1761	1.7512e+02	-9.8708	-36.881254	0.000243	2.433194	0.824388	0.000097
1762	1.7522e+02	-9.8291	-36.760139	0.000304	3.041493	1.030486	0.000122
1763	1.7532e+02	-9.7906	-36.671322	0.000223	2.230428	0.755689	0.000089
1764	1.7542e+02	-9.7505	-36.550208	0.000304	3.041493	1.030486	0.000122
1765	1.7552e+02	-9.7152	-36.425057	0.000314	3.142876	1.064835	0.000126
1766	1.7562e+02	-9.6751	-36.328166	0.000243	2.433194	0.824388	0.000097
1767	1.7572e+02	-9.6430	-36.182829	0.000365	3.649791	1.236583	0.000146
1768	1.7582e+02	-9.5981	-36.077864	0.000264	2.635960	0.893087	0.000105
1769	1.7592e+02	-9.5596	-35.972898	0.000264	2.635960	0.893087	0.000105
1770	1.7602e+02	-9.5195	-35.867932	0.000264	2.635960	0.893087	0.000105
1771	1.7612e+02	-9.4714	-35.787190	0.000203	2.027662	0.686990	0.000081
1772	1.7621e+02	-9.4345	-35.690298	0.000243	2.433194	0.824388	0.000097
1773	1.7631e+02	-9.3960	-35.577259	0.000284	2.838726	0.961787	0.000114
1774	1.7641e+02	-9.3591	-35.460182	0.000294	2.940109	0.996136	0.000118
1775	1.7651e+02	-9.3206	-35.351179	0.000274	2.737343	0.927437	0.000110
1776	1.7661e+02	-9.2789	-35.221991	0.000324	3.244259	1.099185	0.000130
1777	1.7671e+02	-9.2388	-35.092802	0.000324	3.244259	1.099185	0.000130
1778	1.7681e+02	-9.1923	-34.959577	0.000335	3.345642	1.133534	0.000134
1779	1.7691e+02	-9.1554	-34.850574	0.000274	2.737343	0.927437	0.000110
1780	1.7701e+02	-9.1201	-34.733497	0.000294	2.940109	0.996136	0.000118
1781	1.7711e+02	-9.0784	-34.584123	0.000375	3.751174	1.270932	0.000150
1782	1.7721e+02	-9.0366	-34.487232	0.000243	2.433194	0.824388	0.000097
1783	1.7731e+02	-8.9997	-34.354007	0.000335	3.345642	1.133534	0.000134
1784	1.7741e+02	-8.9580	-34.245004	0.000274	2.737343	0.927437	0.000110
1785	1.7751e+02	-8.9276	-34.144076	0.000253	2.534577	0.858738	0.000101
1786	1.7761e+02	-8.8794	-34.002776	0.000355	3.548408	1.202233	0.000142
1787	1.7771e+02	-8.8377	-33.905884	0.000243	2.433194	0.824388	0.000097
1788	1.7781e+02	-8.7976	-33.800919	0.000264	2.635960	0.893087	0.000105
1789	1.7791e+02	-8.7479	-33.695953	0.000264	2.635960	0.893087	0.000105
1790	1.7801e+02	-8.7206	-33.615211	0.000203	2.027662	0.686990	0.000081
1791	1.7810e+02	-8.6725	-33.494097	0.000304	3.041493	1.030486	0.000122
1792	1.7820e+02	-8.6388	-33.368945	0.000314	3.142876	1.064835	0.000126
1793	1.7830e+02	-8.5955	-33.263980	0.000264	2.635960	0.893087	0.000105
1794	1.7840e+02	-8.5618	-33.122680	0.000355	3.548408	1.202233	0.000142
1795	1.7850e+02	-8.5265	-32.997529	0.000314	3.142876	1.064835	0.000126
1796	1.7860e+02	-8.4784	-32.872378	0.000314	3.142876	1.064835	0.000126
1797	1.7870e+02	-8.4415	-32.743189	0.000324	3.244259	1.099185	0.000130
1798	1.7880e+02	-8.3950	-32.642261	0.000253	2.534577	0.858738	0.000101
1799	1.7890e+02	-8.3645	-32.529221	0.000284	2.838726	0.961787	0.000114
1800	1.7900e+02	-8.3212	-32.347550	0.000456	4.562239	1.545728	0.000183
1801	1.7910e+02	-8.2907	-32.278919	0.000172	1.723512	0.583942	0.000069
1802	1.7920e+02	-8.2329	-32.157805	0.000304	3.041493	1.030486	0.000122
1803	1.7930e+02	-8.2008	-32.024579	0.000335	3.345642	1.133534	0.000134
1804	1.7940e+02	-8.1639	-31.955948	0.000172	1.723512	0.583942	0.000069
1805	1.7950e+02	-8.1335	-31.838871	0.000294	2.940109	0.996136	0.000118
1806	1.7960e+02	-8.0805	-31.746017	0.000233	2.331811	0.790039	0.000093
1807	1.7970e+02	-8.0372	-31.612791	0.000335	3.345642	1.133534	0.000134
1808	1.7980e+02	-7.9923	-31.536086	0.000193	1.926279	0.652641	0.000077
1809	1.7990e+02	-7.9586	-31.423046	0.000284	2.838726	0.961787	0.000114
1810	1.8000e+02	-7.9169	-31.301932	0.000304	3.041493	1.030486	0.000122
1811	1.8009e+02	-7.8800	-31.225226	0.000193	1.926279	0.652641	0.000077
1812	1.8019e+02	-7.8399	-31.059704	0.000416	4.156706	1.408330	0.000166
1813	1.8029e+02	-7.8110	-30.954738	0.000264	2.635960	0.893087	0.000105
1814	1.8039e+02	-7.7597	-30.781141	0.000436	4.359473	1.477029	0.000174
1815	1.8049e+02	-7.7212	-30.692324	0.000223	2.230428	0.755689	0.000089
1816	1.8059e+02	-7.6875	-30.579285	0.000284	2.838726	0.961787	0.000114
1817	1.8069e+02	-7.6426	-30.462208	0.000294	2.940109	0.996136	0.000118
1818	1.8079e+02	-7.6025	-30.308797	0.000385	3.852557	1.305282	0.000154
1819	1.8089e+02	-7.5656	-30.207868	0.000253	2.534577	0.858738	0.000101
1820	1.8099e+02	-7.5303	-30.062531	0.000365	3.649791	1.236583	0.000146
1821	1.8109e+02	-7.4902	-29.993900	0.000172	1.723512	0.583942	0.000069
1822	1.8119e+02	-7.4436	-29.880860	0.000284	2.838726	0.961787	0.000114
1823	1.8129e+02	-7.3987	-29.788006	0.000233	2.331811	0.790039	0.000093
1824	1.8139e+02	-7.3538	-29.683041	0.000264	2.635960	0.893087	0.000105
1825	1.8149e+02	-7.3217	-29.586149	0.000243	2.433194	0.824388	0.000097
1826	1.8159e+02	-7.2864	-29.444850	0.000355	3.548408	1.202233	0.000142
1827	1.8169e+02	-7.2415	-29.323735	0.000304	3.041493	1.030486	0.000122
1828	1.8179e+02	-7.1982	-29.226844	0.000243	2.433194	0.824388	0.000097
1829	1.8189e+02	-7.1597	-29.097656	0.000324	3.244259	1.099185	0.000130
1830	1.8199e+02	-7.1164	-29.000765	0.000243	2.433194	0.824388	0.000097
1831	1.8209e+02	-7.0907	-28.883688	0.000294	2.940109	0.996136	0.000118
1832	1.8218e+02	-7.0490	-28.734314	0.000375	3.751174	1.270932	0.000150
1833	1.8228e+02	-7.0089	-28.597051	0.000345	3.447025	1.167884	0.000138
1834	1.8238e+02	-6.9608	-28.475937	0.000304	3.041493	1.030486	0.000122
1835	1.8248e+02	-6.9255	-28.379046	0.000243	2.433194	0.824388	0.000097
1836	1.8258e+02	-6.8822	-28.237746	0.000355	3.548408	1.202233	0.000142
1837	1.8268e+02	-6.8372	-28.084335	0.000385	3.852557	1.305282	0.000154
1838	1.8278e+02	-6.8068	-28.019741	0.000162	1.622129	0.549592	0.000065
1839	1.8288e+02	-6.7715	-27.890552	0.000324	3.244259	1.099185	0.000130
1840	1.8298e+02	-6.7201	-27.789624	0.000253	2.534577	0.858738	0.000101
1841	1.8308e+02	-6.6816	-27.676584	0.000284	2.838726	0.961787	0.000114
1842	1.8318e+02	-6.6495	-27.607953	0.000172	1.723512	0.583942	0.000069
1843	1.8328e+02	-6.6014	-27.486839	0.000304	3.041493	1.030486	0.000122
1844	1.8338e+02	-6.5693	-27.369762	0.000294	2.940109	0.996136	0.000118
1845	1.8348e+02	-6.5244	-27.256722	0.000284	2.838726	0.961787	0.000114
1846	1.8358e+02	-6.4891	-27.184053	0.000182	1.824896	0.618291	0.000073
1847	1.8368e+02	-6.4362	-27.062939	0.000304	3.041493	1.030486	0.000122
1848	1.8378e+02	-6.4057	-26.966048	0.000243	2.433194	0.824388	0.000097
1849	1.8388e+02	-6.3720	-26.816674	0.000375	3.751174	1.270932	0.000150
1850	1.8398e+02	-6.3335	-26.715746	0.000253	2.534577	0.858738	0.000101
1851	1.8407e+02	-6.2982	-26.550223	0.000416	4.156706	1.408330	0.000166
1852	1.8417e+02	-6.2485	-26.400849	0.000375	3.751174	1.270932	0.000150
1853	1.8427e+02	-6.2116	-26.259549	0.000355	3.548408	1.202233	0.000142
1854	1.8437e+02	-6.1763	-26.170732	0.000223	2.230428	0.755689	0.000089
1855	1.8447e+02	-6.1394	-26.069804	0.000253	2.534577	0.858738	0.000101
1856	1.8457e+02	-6.0897	-25.956764	0.000284	2.838726	0.961787	0.000114
1857	1.8467e+02	-6.0480	-25.835650	0.000304	3.041493	1.030486	0.000122
1858	1.8477e+02	-6.0175	-25.702425	0.000335	3.345642	1.133534	0.000134
1859	1.8487e+02	-5.9742	-25.561125	0.000355	3.548408	1.202233	0.000142
1860	1.8497e+02	-5.9325	-25.504605	0.000142	1.419363	0.480893	0.000057
1861	1.8507e+02	-5.8859	-25.407714	0.000243	2.433194	0.824388	0.000097
1862	1.8517e+02	-5.8538	-25.306785	0.000253	2.534577	0.858738	0.000101
1863	1.8527e+02	-5.8202	-25.153374	0.000385	3.852557	1.305282	0.000154
1864	1.8537e+02	-5.7720	-25.040334	0.000284	2.838726	0.961787	0.000114
1865	1.8547e+02	-5.7319	-24.923257	0.000294	2.940109	0.996136	0.000118
1866	1.8557e+02	-5.6918	-24.830403	0.000233	2.331811	0.790039	0.000093
1867	1.8567e+02	-5.6469	-24.681029	0.000375	3.751174	1.270932	0.000150
1868	1.8577e+02	-5.6004	-24.576064	0.000264	2.635960	0.893087	0.000105
1869	1.8587e+02	-5.5859	-24.430727	0.000365	3.649791	1.236583	0.000146
1870	1.8597e+02	-5.5458	-24.285390	0.000365	3.649791	1.236583	0.000146
1871	1.8606e+02	-5.4961	-24.172350	0.000284	2.838726	0.961787	0.000114
1872	1.8616e+02	-5.4592	-24.055273	0.000294	2.940109	0.996136	0.000118
1873	1.8626e+02	-5.4175	-23.926085	0.000324	3.244259	1.099185	0.000130
1874	1.8636e+02	-5.3758	-23.804971	0.000304	3.041493	1.030486	0.000122
1875	1.8646e+02	-5.3421	-23.704042	0.000253	2.534577	0.858738	0.000101
1876	1.8656e+02	-5.2859	-23.522371	0.000456	4.562239	1.545728	0.000183
1877	1.8666e+02	-5.2539	-23.421443	0.000253	2.534577	0.858738	0.000101
1878	1.8676e+02	-5.2170	-23.348775	0.000182	1.824896	0.618291	0.000073
1879	1.8686e+02	-5.1817	-23.292255	0.000142	1.419363	0.480893	0.000057
1880	1.8696e+02	-5.1351	-23.126732	0.000416	4.156706	1.408330	0.000166
1881	1.8706e+02	-5.0918	-23.037915	0.000223	2.230428	0.755689	0.000089
1882	1.8716e+02	-5.0533	-22.900652	0.000345	3.447025	1.167884	0.000138
1883	1.8726e+02	-5.0180	-22.779538	0.000304	3.041493	1.030486	0.000122
1884	1.8736e+02	-4.9683	-22.702833	0.000193	1.926279	0.652641	0.000077
1885	1.8746e+02	-4.9330	-22.533273	0.000426	4.258090	1.442680	0.000170
1886	1.8756e+02	-4.8929	-22.420233	0.000284	2.838726	0.961787	0.000114
1887	1.8766e+02	-4.8576	-22.238562	0.000456	4.562239	1.545728	0.000183
1888	1.8776e+02	-4.8143	-22.153782	0.000213	2.129045	0.721340	0.000085
1889	1.8786e+02	-4.7742	-21.992297	0.000406	4.055323	1.373981	0.000162
1890	1.8796e+02	-4.7373	-21.891369	0.000253	2.534577	0.858738	0.000101
1891	1.8806e+02	-4.7020	-21.717772	0.000436	4.359473	1.477029	0.000174
1892	1.8815e+02	-4.6635	-21.628955	0.000223	2.230428	0.755689	0.000089
1893	1.8825e+02	-4.6186	-21.463432	0.000416	4.156706	1.408330	0.000166
1894	1.8835e+02	-4.5801	-21.386727	0.000193	1.926279	0.652641	0.000077
1895	1.8845e+02	-4.5400	-21.289835	0.000243	2.433194	0.824388	0.000097
1896	1.8855e+02	-4.4902	-21.180833	0.000274	2.737343	0.927437	0.000110
1897	1.8865e+02	-4.4550	-21.023384	0.000395	3.953940	1.339631	0.000158
1898	1.8875e+02	-4.4165	-20.922456	0.000253	2.534577	0.858738	0.000101
1899	1.8885e+02	-4.3828	-20.817490	0.000264	2.635960	0.893087	0.000105
1900	1.8895e+02	-4.3475	-20.684265	0.000335	3.345642	1.133534	0.000134
1901	1.8905e+02	-4.2929	-20.571225	0.000284	2.838726	0.961787	0.000114
1902	1.8915e+02	-4.2721	-20.421851	0.000375	3.751174	1.270932	0.000150
1903	1.8925e+02	-4.2175	-20.304774	0.000294	2.940109	0.996136	0.000118
1904	1.8935e+02	-4.1822	-20.187697	0.000294	2.940109	0.996136	0.000118
1905	1.8945e+02	-4.1469	-20.010063	0.000446	4.460856	1.511379	0.000179
1906	1.8955e+02	-4.0972	-19.933358	0.000193	1.926279	0.652641	0.000077
1907	1.8965e+02	-4.0571	-19.723427	0.000527	5.271920	1.786175	0.000211
1908	1.8975e+02	-4.0186	-19.650758	0.000182	1.824896	0.618291	0.000073
1909	1.8985e+02	-3.9897	-19.477161	0.000436	4.359473	1.477029	0.000174
1910	1.8995e+02	-3.9464	-19.364122	0.000284	2.838726	0.961787	0.000114
1911	1.9004e+02	-3.9031	-19.202636	0.000406	4.055323	1.373981	0.000162
1912	1.9014e+02	-3.8534	-19.113819	0.000223	2.230428	0.755689	0.000089
1913	1.9024e+02	-3.8325	-19.053262	0.000152	1.520746	0.515243	0.000061
1914	1.9034e+02	-3.7844	-18.924074	0.000324	3.244259	1.099185	0.000130
1915	1.9044e+02	-3.7411	-18.790848	0.000335	3.345642	1.133534	0.000134
1916	1.9054e+02	-3.6978	-18.641474	0.000375	3.751174	1.270932	0.000150
1917	1.9064e+02	-3.6657	-18.504212	0.000345	3.447025	1.167884	0.000138
1918	1.9074e+02	-3.6191	-18.403283	0.000253	2.534577	0.858738	0.000101
1919	1.9084e+02	-3.5774	-18.253909	0.000375	3.751174	1.270932	0.000150
1920	1.9094e+02	-3.5357	-18.124721	0.000324	3.244259	1.099185	0.000130
1921	1.9104e+02	-3.4956	-18.056090	0.000172	1.723512	0.583942	0.000069
1922	1.9114e+02	-3.4684	-17.858270	0.000497	4.967771	1.683126	0.000199
1923	1.9124e+02	-3.4138	-17.729082	0.000324	3.244259	1.099185	0.000130
1924	1.9134e+02	-3.3897	-17.583745	0.000365	3.649791	1.236583	0.000146
1925	1.9144e+02	-3.3416	-17.414185	0.000426	4.258090	1.442680	0.000170
1926	1.9154e+02	-3.3015	-17.309219	0.000264	2.635960	0.893087	0.000105
1927	1.9164e+02	-3.2694	-17.163883	0.000365	3.649791	1.236583	0.000146
1928	1.9174e+02	-3.2213	-17.022583	0.000355	3.548408	1.202233	0.000142
1929	1.9184e+02	-3.1812	-16.885320	0.000345	3.447025	1.167884	0.000138
1930	1.9194e+02	-3.1347	-16.796503	0.000223	2.230428	0.755689	0.000089
1931	1.9203e+02	-3.0994	-16.679426	0.000294	2.940109	0.996136	0.000118
1932	1.9213e+02	-3.0625	-16.586572	0.000233	2.331811	0.790039	0.000093
1933	1.9223e+02	-3.0272	-16.417012	0.000426	4.258090	1.442680	0.000170
1934	1.9233e+02	-2.9871	-16.312047	0.000264	2.635960	0.893087	0.000105
1935	1.9243e+02	-2.9518	-16.174784	0.000345	3.447025	1.167884	0.000138
1936	1.9253e+02	-2.9037	-16.053670	0.000304	3.041493	1.030486	0.000122
1937	1.9263e+02	-2.8603	-15.900259	0.000385	3.852557	1.305282	0.000154
1938	1.9273e+02	-2.8267	-15.775108	0.000314	3.142876	1.064835	0.000126
1939	1.9283e+02	-2.7849	-15.633808	0.000355	3.548408	1.202233	0.000142
1940	1.9293e+02	-2.7448	-15.496546	0.000345	3.447025	1.167884	0.000138
1941	1.9303e+02	-2.7047	-15.371394	0.000314	3.142876	1.064835	0.000126
1942	1.9313e+02	-2.6630	-15.278540	0.000233	2.331811	0.790039	0.000093
1943	1.9323e+02	-2.6165	-15.117055	0.000406	4.055323	1.373981	0.000162
1944	1.9333e+02	-2.5860	-14.923272	0.000487	4.866388	1.648777	0.000195
1945	1.9343e+02	-2.5555	-14.838492	0.000213	2.129045	0.721340	0.000085
1946	1.9353e+02	-2.5154	-14.693156	0.000365	3.649791	1.236583	0.000146
1947	1.9363e+02	-2.4705	-14.563967	0.000324	3.244259	1.099185	0.000130
1948	1.9373e+02	-2.4224	-14.430742	0.000335	3.345642	1.133534	0.000134
1949	1.9383e+02	-2.3871	-14.273293	0.000395	3.953940	1.339631	0.000158
1950	1.9393e+02	-2.3486	-14.192551	0.000203	2.027662	0.686990	0.000081
1951	1.9403e+02	-2.3149	-14.099697	0.000233	2.331811	0.790039	0.000093
1952	1.9412e+02	-2.2684	-13.942248	0.000395	3.953940	1.339631	0.000158
1953	1.9422e+02	-2.2251	-13.837283	0.000264	2.635960	0.893087	0.000105
1954	1.9432e+02	-2.1882	-13.691946	0.000365	3.649791	1.236583	0.000146
1955	1.9442e+02	-2.1497	-13.546609	0.000365	3.649791	1.236583	0.000146
1956	1.9452e+02	-2.1031	-13.393198	0.000385	3.852557	1.305282	0.000154
1957	1.9462e+02	-2.0695	-13.276121	0.000294	2.940109	0.996136	0.000118
1958	1.9472e+02	-2.0181	-13.159044	0.000294	2.940109	0.996136	0.000118
1959	1.9482e+02	-1.9957	-13.025818	0.000335	3.345642	1.133534	0.000134
1960	1.9492e+02	-1.9411	-12.852222	0.000436	4.359473	1.477029	0.000174
1961	1.9502e+02	-1.9122	-12.755330	0.000243	2.433194	0.824388	0.000097
1962	1.9512e+02	-1.8641	-12.573659	0.000456	4.562239	1.545728	0.000183
1963	1.9522e+02	-1.8272	-12.428322	0.000365	3.649791	1.236583	0.000146
1964	1.9532e+02	-1.7871	-12.274911	0.000385	3.852557	1.305282	0.000154
1965	1.9542e+02	-1.7502	-12.097277	0.000446	4.460856	1.511379	0.000179
1966	1.9552e+02	-1.6973	-12.036720	0.000152	1.520746	0.515243	0.000061
1967	1.9562e+02	-1.6684	-11.923680	0.000284	2.838726	0.961787	0.000114
1968	1.9572e+02	-1.6315	-11.794492	0.000324	3.244259	1.099185	0.000130
1969	1.9582e+02	-1.5850	-11.665304	0.000324	3.244259	1.099185	0.000130
1970	1.9592e+02	-1.5449	-11.560338	0.000264	2.635960	0.893087	0.000105
1971	1.9601e+02	-1.5144	-11.459410	0.000253	2.534577	0.858738	0.000101
1972	1.9611e+02	-1.4615	-11.269664	0.000477	4.765005	1.614427	0.000191
1973	1.9621e+02	-1.4278	-11.176810	0.000233	2.331811	0.790039	0.000093
1974	1.9631e+02	-1.3909	-11.015325	0.000406	4.055323	1.373981	0.000162
1975	1.9641e+02	-1.3508	-10.906322	0.000274	2.737343	0.927437	0.000110
1976	1.9651e+02	-1.3107	-10.756948	0.000375	3.751174	1.270932	0.000150
1977	1.9661e+02	-1.2738	-10.623723	0.000335	3.345642	1.133534	0.000134
1978	1.9671e+02	-1.2304	-10.506646	0.000294	2.940109	0.996136	0.000118
1979	1.9681e+02	-1.1968	-10.389569	0.000294	2.940109	0.996136	0.000118
1980	1.9691e+02	-1.1422	-10.215972	0.000436	4.359473	1.477029	0.000174
1981	1.9701e+02	-1.1262	-10.058524	0.000395	3.953940	1.339631	0.000158
1982	1.9711e+02	-1.0716	-9.933372	0.000314	3.142876	1.064835	0.000126
1983	1.9721e+02	-1.0347	-9.800147	0.000335	3.345642	1.133534	0.000134
1984	1.9731e+02	-0.9914	-9.699219	0.000253	2.534577	0.858738	0.000101
1985	1.9741e+02	-0.9513	-9.594253	0.000264	2.635960	0.893087	0.000105
1986	1.9751e+02	-0.9144	-9.456990	0.000345	3.447025	1.167884	0.000138
1987	1.9761e+02	-0.8647	-9.287431	0.000426	4.258090	1.442680	0.000170
1988	1.9771e+02	-0.8262	-9.190540	0.000243	2.433194	0.824388	0.000097
1989	1.9781e+02	-0.7909	-9.061351	0.000324	3.244259	1.099185	0.000130
1990	1.9791e+02	-0.7540	-8.936200	0.000314	3.142876	1.064835	0.000126
1991	1.9800e+02	-0.7075	-8.794900	0.000355	3.548408	1.202233	0.000142
1992	1.9810e+02	-0.6770	-8.681860	0.000284	2.838726	0.961787	0.000114
1993	1.9820e+02	-0.6369	-8.508264	0.000436	4.359473	1.477029	0.000174
1994	1.9830e+02	-0.5952	-8.379075	0.000324	3.244259	1.099185	0.000130
1995	1.9840e+02	-0.5519	-8.274110	0.000264	2.635960	0.893087	0.000105
1996	1.9850e+02	-0.5166	-8.132810	0.000355	3.548408	1.202233	0.000142
1997	1.9860e+02	-0.4765	-7.979399	0.000385	3.852557	1.305282	0.000154
1998	1.9870e+02	-0.4331	-7.858285	0.000304	3.041493	1.030486	0.000122
1999	1.9880e+02	-0.3995	-7.696799	0.000406	4.055323	1.373981	0.000162
2000	1.9890e+02	-0.3529	-7.571648	0.000314	3.142876	1.064835	0.000126
2001	1.9900e+02	-0.3144	-7.381903	0.000477	4.765005	1.614427	0.000191
2002	1.9910e+02	-0.2679	-7.321346	0.000152	1.520746	0.515243	0.000061
2003	1.9920e+02	-0.2294	-7.212343	0.000274	2.737343	0.927437	0.000110
2004	1.9930e+02	-0.1845	-7.026635	0.000466	4.663622	1.580078	0.000187
2005	1.9940e+02	-0.1588	-6.953966	0.000182	1.824896	0.618291	0.000073
2006	1.9950e+02	-0.1187	-6.836889	0.000294	2.940109	0.996136	0.000118
2007	1.9960e+02	-0.0674	-6.723850	0.000284	2.838726	0.961787	0.000114
2008	1.9970e+02	-0.0305	-6.562364	0.000406	4.055323	1.373981	0.000162
2009	1.9980e+02	0.0048	-6.449324	0.000406	4.055323	1.373981	0.000114

PMax (uC/cm2):	6.55e+01
Pr (uC/cm2):	2.61e+00
-Pr (uC/cm2):	-1.99e+00
PLoss (uC/cm2):	-1.96e+00
-Vc:	-7.64e-01
C (Max-Eff) (nF):	3.27e-01
K (Eff):	1.11e+03
Vert. (+/-Pr) Shift (uC/cm2):	3.09e-01
Offset (uC/cm2):	4.46e+00

A (Loop Area - uC/cm2·Volts):	2.76e-02



Hysteresis Version: 5.48.1 - Radiant Technologies, Inc., 1999 - 9/12/24

