»»»»»»»»»»»»»»»»»»»»»»»»»»»»»»»»»»»» Hysteresis ««««««««««««««««««««««««««««««««««««
»»»  Executed Version:	5.48.1
»»»  Vision Version:	5.48.4 (R)
»»»  Vision Compiled:	9/18/24
»»»  Driver Version:	5.47.0
»»»  Windows Version:	Windows 8 or 8.1
»»»  Processor Information:	x86 (AMD or Intel) - 32 Processors
»»»  Tester Name:	PMF21124-494 (100V)
»»»  Tester S/N:	PMF21124-494
»»»  Internal Amp Type:	100V RevK 270k
»»»  Internal Amp S/N:	iAB2-596/K     
»»»  Execution Count:	1
»»»»»»»»»»»»»»»»»»»»»»»»»»»»»»»»»»»»»»»»»»««««««««««««««««««««««««««««««««««««««««««

Stored:	6/19/2025 - 18:18:37
Configured:	06/19/25 10:04:32 AM
Executed:	06/19/25 06:18:01 PM

»»»»»»»»»»»»»»»»»»»»»»»»»»»»»»»»»»» Sample Info ««««««««««««««««««««««««««««««««««««
Sample Name:	
Lot Name:	
Wafer Name:	
Die Row/Column:	0/0
Capacitor Number:	0
Sample Area (cm2):	1.00e-04
Sample Thickness (microns):	3.00e-01

Amplifier:	Internal

»»»»»»»»»»»»»»»»»»»»»»»»»»»»»»»»»»» Tester Info «««««««««««««««««««««««««««««««««««
Tester Name:	PMF21124-494 (100V)
Tester Serial Number:	PMF21124-494
Return Signal Amp. Level:	0.19 [Index: 3]

»»»»»»»»»»»»»»»»»»»»»»»»»»»»»»»» Hysteresis Info ««««««««««««««««««««««««««««««««««
Task Name:	Hyst-1168
Volts:	20.00
Field:	666.67 (kV/cm)
DCBias:	0.00
DCField:	0.00 (kV/cm)
Hysteresis Period (ms):	2.00e+02
Preset:	Enabled
Preset Delay (ms):	1.00e+03
Profile:	Standard Bipolar

»»»»»»»»»»»»»»»»»»»»»»»»»»»»»»»»»»»»»» Data «««««««««««««««««««««««««««««««««««««««
Points:	2009

Valid Data

Point	Time (ms)	Drive Voltage	Measured Polarization (uC/cm2)	Capacitance (uF)	Normalized Capacitance (uF/cm2)	Dielectric Constant	Instantaneous Current (mA)
   1	0.0000e+00	0.0096	-5.359298	0.000253	2.533815	0.858480	0.000101
   2	9.9500e-02	0.0337	-5.258369	0.000253	2.533815	0.858480	0.000101
   3	1.9900e-01	0.0770	-5.177627	0.000203	2.027052	0.686784	0.000081
   4	2.9850e-01	0.1187	-5.012104	0.000416	4.155456	1.407907	0.000166
   5	3.9800e-01	0.1492	-4.919250	0.000233	2.331109	0.789801	0.000093
   6	4.9750e-01	0.1989	-4.757764	0.000405	4.054103	1.373567	0.000162
   7	5.9700e-01	0.2390	-4.632613	0.000314	3.141930	1.064515	0.000126
   8	6.9650e-01	0.2888	-4.507462	0.000314	3.141930	1.064515	0.000126
   9	7.9600e-01	0.3080	-4.366162	0.000355	3.547340	1.201871	0.000142
  10	8.9550e-01	0.3626	-4.257160	0.000274	2.736520	0.927158	0.000110
  11	9.9500e-01	0.3995	-4.127971	0.000324	3.243283	1.098854	0.000130
  12	1.0945e+00	0.4364	-4.010894	0.000294	2.939225	0.995836	0.000118
  13	1.1940e+00	0.4700	-3.861520	0.000375	3.750046	1.270550	0.000150
  14	1.2935e+00	0.5053	-3.724258	0.000345	3.445988	1.167532	0.000138
  15	1.3930e+00	0.5470	-3.607181	0.000294	2.939225	0.995836	0.000118
  16	1.4925e+00	0.5936	-3.494141	0.000284	2.837872	0.961497	0.000114
  17	1.5920e+00	0.6224	-3.377064	0.000294	2.939225	0.995836	0.000118
  18	1.6915e+00	0.6674	-3.203467	0.000436	4.358161	1.476585	0.000174
  19	1.7910e+00	0.7203	-3.138873	0.000162	1.621641	0.549427	0.000065
  20	1.8905e+00	0.7604	-2.941053	0.000497	4.966277	1.682620	0.000199
  21	1.9900e+00	0.7989	-2.836088	0.000264	2.635167	0.892819	0.000105
  22	2.0895e+00	0.8342	-2.723048	0.000284	2.837872	0.961497	0.000114
  23	2.1890e+00	0.8759	-2.545414	0.000446	4.459514	1.510924	0.000179
  24	2.2885e+00	0.9144	-2.436411	0.000274	2.736520	0.927158	0.000110
  25	2.3880e+00	0.9513	-2.295112	0.000355	3.547340	1.201871	0.000142
  26	2.4875e+00	1.0042	-2.157849	0.000345	3.445988	1.167532	0.000138
  27	2.5870e+00	1.0251	-2.012512	0.000365	3.648693	1.236211	0.000146
  28	2.6865e+00	1.0796	-1.927732	0.000213	2.128404	0.721123	0.000085
  29	2.7860e+00	1.1149	-1.774321	0.000385	3.851398	1.304889	0.000154
  30	2.8855e+00	1.1550	-1.604761	0.000426	4.256808	1.442246	0.000170
  31	2.9850e+00	1.1984	-1.487685	0.000294	2.939225	0.995836	0.000118
  32	3.0845e+00	1.2385	-1.402905	0.000213	2.128404	0.721123	0.000085
  33	3.1840e+00	1.2818	-1.229308	0.000436	4.358161	1.476585	0.000174
  34	3.2835e+00	1.3058	-1.116268	0.000284	2.837872	0.961497	0.000114
  35	3.3830e+00	1.3636	-0.938634	0.000446	4.459514	1.510924	0.000179
  36	3.4825e+00	1.3909	-0.833669	0.000264	2.635167	0.892819	0.000105
  37	3.5820e+00	1.4214	-0.684295	0.000375	3.750046	1.270550	0.000150
  38	3.6815e+00	1.4711	-0.534920	0.000375	3.750046	1.270550	0.000150
  39	3.7810e+00	1.5112	-0.438029	0.000243	2.432462	0.824140	0.000097
  40	3.8805e+00	1.5481	-0.292692	0.000365	3.648693	1.236211	0.000146
  41	3.9800e+00	1.5930	-0.163504	0.000324	3.243283	1.098854	0.000130
  42	4.0795e+00	1.6315	-0.010093	0.000385	3.851398	1.304889	0.000154
  43	4.1790e+00	1.6684	0.111021	0.000304	3.040577	1.030176	0.000122
  44	4.2785e+00	1.7197	0.236172	0.000314	3.141930	1.064515	0.000126
  45	4.3780e+00	1.7470	0.381509	0.000365	3.648693	1.236211	0.000146
  46	4.4775e+00	1.7983	0.490512	0.000274	2.736520	0.927158	0.000110
  47	4.5770e+00	1.8272	0.635849	0.000365	3.648693	1.236211	0.000146
  48	4.6765e+00	1.8802	0.789260	0.000385	3.851398	1.304889	0.000154
  49	4.7760e+00	1.9171	0.874040	0.000213	2.128404	0.721123	0.000085
  50	4.8755e+00	1.9507	1.035525	0.000405	4.054103	1.373567	0.000162
  51	4.9750e+00	1.9909	1.192974	0.000395	3.952751	1.339228	0.000158
  52	5.0745e+00	2.0294	1.306013	0.000284	2.837872	0.961497	0.000114
  53	5.1740e+00	2.0727	1.479610	0.000436	4.358161	1.476585	0.000174
  54	5.2735e+00	2.1064	1.580539	0.000253	2.533815	0.858480	0.000101
  55	5.3730e+00	2.1449	1.721838	0.000355	3.547340	1.201871	0.000142
  56	5.4725e+00	2.1882	1.891398	0.000426	4.256808	1.442246	0.000170
  57	5.5720e+00	2.2251	2.008475	0.000294	2.939225	0.995836	0.000118
  58	5.6715e+00	2.2636	2.109403	0.000253	2.533815	0.858480	0.000101
  59	5.7710e+00	2.3085	2.234555	0.000314	3.141930	1.064515	0.000126
  60	5.8705e+00	2.3438	2.387966	0.000385	3.851398	1.304889	0.000154
  61	5.9700e+00	2.3855	2.513117	0.000314	3.141930	1.064515	0.000126
  62	6.0695e+00	2.4368	2.670565	0.000395	3.952751	1.339228	0.000158
  63	6.1690e+00	2.4705	2.771494	0.000253	2.533815	0.858480	0.000101
  64	6.2685e+00	2.5074	2.920868	0.000375	3.750046	1.270550	0.000150
  65	6.3680e+00	2.5507	3.050056	0.000324	3.243283	1.098854	0.000130
  66	6.4675e+00	2.5956	3.187319	0.000345	3.445988	1.167532	0.000138
  67	6.5670e+00	2.6277	3.320544	0.000334	3.344635	1.133193	0.000134
  68	6.6665e+00	2.6727	3.461844	0.000355	3.547340	1.201871	0.000142
  69	6.7660e+00	2.7063	3.599107	0.000345	3.445988	1.167532	0.000138
  70	6.8655e+00	2.7464	3.732332	0.000334	3.344635	1.133193	0.000134
  71	6.9650e+00	2.7817	3.881706	0.000375	3.750046	1.270550	0.000150
  72	7.0645e+00	2.8299	4.031080	0.000375	3.750046	1.270550	0.000150
  73	7.1640e+00	2.8700	4.148157	0.000294	2.939225	0.995836	0.000118
  74	7.2635e+00	2.9037	4.281382	0.000334	3.344635	1.133193	0.000134
  75	7.3630e+00	2.9454	4.463054	0.000456	4.560866	1.545263	0.000183
  76	7.4625e+00	2.9839	4.592242	0.000324	3.243283	1.098854	0.000130
  77	7.5620e+00	3.0208	4.689133	0.000243	2.432462	0.824140	0.000097
  78	7.6615e+00	3.0689	4.878879	0.000476	4.763571	1.613942	0.000191
  79	7.7610e+00	3.1026	5.008067	0.000324	3.243283	1.098854	0.000130
  80	7.8605e+00	3.1475	5.149367	0.000355	3.547340	1.201871	0.000142
  81	7.9600e+00	3.1716	5.282592	0.000334	3.344635	1.133193	0.000134
  82	8.0595e+00	3.2406	5.403706	0.000304	3.040577	1.030176	0.000122
  83	8.1590e+00	3.2662	5.581340	0.000446	4.459514	1.510924	0.000179
  84	8.2585e+00	3.3095	5.718603	0.000345	3.445988	1.167532	0.000138
  85	8.3580e+00	3.3528	5.851828	0.000334	3.344635	1.133193	0.000134
  86	8.4575e+00	3.3849	5.976979	0.000314	3.141930	1.064515	0.000126
  87	8.5570e+00	3.4218	6.130391	0.000385	3.851398	1.304889	0.000154
  88	8.6565e+00	3.4651	6.255542	0.000314	3.141930	1.064515	0.000126
  89	8.7560e+00	3.5036	6.412990	0.000395	3.952751	1.339228	0.000158
  90	8.8555e+00	3.5454	6.550253	0.000345	3.445988	1.167532	0.000138
  91	8.9550e+00	3.5839	6.691552	0.000355	3.547340	1.201871	0.000142
  92	9.0545e+00	3.6224	6.808629	0.000294	2.939225	0.995836	0.000118
  93	9.1540e+00	3.6577	6.949929	0.000355	3.547340	1.201871	0.000142
  94	9.2535e+00	3.7010	7.046820	0.000243	2.432462	0.824140	0.000097
  95	9.3530e+00	3.7443	7.220417	0.000436	4.358161	1.476585	0.000174
  96	9.4525e+00	3.7812	7.333457	0.000284	2.837872	0.961497	0.000114
  97	9.5520e+00	3.8181	7.551462	0.000547	5.473039	1.854316	0.000219
  98	9.6515e+00	3.8614	7.628168	0.000193	1.925699	0.652445	0.000077
  99	9.7510e+00	3.9015	7.777542	0.000375	3.750046	1.270550	0.000150
 100	9.8505e+00	3.9368	7.926916	0.000375	3.750046	1.270550	0.000150
 101	9.9500e+00	3.9801	8.072253	0.000365	3.648693	1.236211	0.000146
 102	1.0050e+01	4.0234	8.181256	0.000274	2.736520	0.927158	0.000110
 103	1.0149e+01	4.0619	8.358890	0.000446	4.459514	1.510924	0.000179
 104	1.0248e+01	4.0924	8.484041	0.000314	3.141930	1.064515	0.000126
 105	1.0348e+01	4.1421	8.597081	0.000284	2.837872	0.961497	0.000114
 106	1.0447e+01	4.1806	8.750492	0.000385	3.851398	1.304889	0.000154
 107	1.0547e+01	4.2223	8.879680	0.000324	3.243283	1.098854	0.000130
 108	1.0646e+01	4.2641	9.029054	0.000375	3.750046	1.270550	0.000150
 109	1.0746e+01	4.3042	9.174391	0.000365	3.648693	1.236211	0.000146
 110	1.0845e+01	4.3443	9.323765	0.000375	3.750046	1.270550	0.000150
 111	1.0945e+01	4.3940	9.452953	0.000324	3.243283	1.098854	0.000130
 112	1.1044e+01	4.4181	9.590216	0.000345	3.445988	1.167532	0.000138
 113	1.1144e+01	4.4662	9.727479	0.000345	3.445988	1.167532	0.000138
 114	1.1243e+01	4.5063	9.844555	0.000294	2.939225	0.995836	0.000118
 115	1.1343e+01	4.5384	10.022189	0.000446	4.459514	1.510924	0.000179
 116	1.1443e+01	4.5849	10.115044	0.000233	2.331109	0.789801	0.000093
 117	1.1542e+01	4.6106	10.288640	0.000436	4.358161	1.476585	0.000174
 118	1.1642e+01	4.6635	10.421866	0.000334	3.344635	1.133193	0.000134
 119	1.1741e+01	4.7020	10.575277	0.000385	3.851398	1.304889	0.000154
 120	1.1841e+01	4.7405	10.712540	0.000345	3.445988	1.167532	0.000138
 121	1.1940e+01	4.7694	10.817505	0.000264	2.635167	0.892819	0.000105
 122	1.2040e+01	4.8175	10.962842	0.000365	3.648693	1.236211	0.000146
 123	1.2139e+01	4.8608	11.124328	0.000405	4.054103	1.373567	0.000162
 124	1.2239e+01	4.9009	11.253516	0.000324	3.243283	1.098854	0.000130
 125	1.2338e+01	4.9410	11.378667	0.000314	3.141930	1.064515	0.000126
 126	1.2438e+01	4.9731	11.580524	0.000507	5.067629	1.716959	0.000203
 127	1.2537e+01	5.0148	11.657229	0.000193	1.925699	0.652445	0.000077
 128	1.2636e+01	5.0598	11.830826	0.000436	4.358161	1.476585	0.000174
 129	1.2736e+01	5.0934	11.943866	0.000284	2.837872	0.961497	0.000114
 130	1.2835e+01	5.1400	12.093240	0.000375	3.750046	1.270550	0.000150
 131	1.2935e+01	5.1849	12.266837	0.000436	4.358161	1.476585	0.000174
 132	1.3034e+01	5.2250	12.347580	0.000203	2.027052	0.686784	0.000081
 133	1.3134e+01	5.2635	12.529251	0.000456	4.560866	1.545263	0.000183
 134	1.3233e+01	5.2972	12.630179	0.000253	2.533815	0.858480	0.000101
 135	1.3333e+01	5.3389	12.779553	0.000375	3.750046	1.270550	0.000150
 136	1.3432e+01	5.3790	12.912779	0.000334	3.344635	1.133193	0.000134
 137	1.3532e+01	5.4191	13.118673	0.000517	5.168982	1.751298	0.000207
 138	1.3632e+01	5.4464	13.175192	0.000142	1.418936	0.480749	0.000057
 139	1.3731e+01	5.4993	13.332641	0.000395	3.952751	1.339228	0.000158
 140	1.3831e+01	5.5378	13.486052	0.000385	3.851398	1.304889	0.000154
 141	1.3930e+01	5.5715	13.635426	0.000375	3.750046	1.270550	0.000150
 142	1.4030e+01	5.6148	13.784800	0.000375	3.750046	1.270550	0.000150
 143	1.4129e+01	5.6549	13.938211	0.000385	3.851398	1.304889	0.000154
 144	1.4229e+01	5.6902	14.055288	0.000294	2.939225	0.995836	0.000118
 145	1.4328e+01	5.7351	14.188514	0.000334	3.344635	1.133193	0.000134
 146	1.4428e+01	5.7736	14.370185	0.000456	4.560866	1.545263	0.000183
 147	1.4527e+01	5.8089	14.487262	0.000294	2.939225	0.995836	0.000118
 148	1.4627e+01	5.8571	14.600301	0.000284	2.837872	0.961497	0.000114
 149	1.4726e+01	5.8923	14.753713	0.000385	3.851398	1.304889	0.000154
 150	1.4825e+01	5.9341	14.866752	0.000284	2.837872	0.961497	0.000114
 151	1.4925e+01	5.9790	15.048423	0.000456	4.560866	1.545263	0.000183
 152	1.5024e+01	6.0175	15.165500	0.000294	2.939225	0.995836	0.000118
 153	1.5124e+01	6.0624	15.339097	0.000436	4.358161	1.476585	0.000174
 154	1.5223e+01	6.0945	15.480397	0.000355	3.547340	1.201871	0.000142
 155	1.5323e+01	6.1330	15.585363	0.000264	2.635167	0.892819	0.000105
 156	1.5422e+01	6.1811	15.718588	0.000334	3.344635	1.133193	0.000134
 157	1.5522e+01	6.2132	15.851813	0.000334	3.344635	1.133193	0.000134
 158	1.5621e+01	6.2517	16.021373	0.000426	4.256808	1.442246	0.000170
 159	1.5721e+01	6.2918	16.130376	0.000274	2.736520	0.927158	0.000110
 160	1.5820e+01	6.3351	16.312047	0.000456	4.560866	1.545263	0.000183
 161	1.5920e+01	6.3736	16.376641	0.000162	1.621641	0.549427	0.000065
 162	1.6020e+01	6.4153	16.554275	0.000446	4.459514	1.510924	0.000179
 163	1.6119e+01	6.4538	16.691538	0.000345	3.445988	1.167532	0.000138
 164	1.6218e+01	6.4955	16.804578	0.000284	2.837872	0.961497	0.000114
 165	1.6318e+01	6.5340	16.949914	0.000365	3.648693	1.236211	0.000146
 166	1.6418e+01	6.5725	17.083140	0.000334	3.344635	1.133193	0.000134
 167	1.6517e+01	6.6046	17.192143	0.000274	2.736520	0.927158	0.000110
 168	1.6616e+01	6.6479	17.369777	0.000446	4.459514	1.510924	0.000179
 169	1.6716e+01	6.6864	17.490891	0.000304	3.040577	1.030176	0.000122
 170	1.6816e+01	6.7298	17.676599	0.000466	4.662219	1.579602	0.000187
 171	1.6915e+01	6.7731	17.781564	0.000264	2.635167	0.892819	0.000105
 172	1.7015e+01	6.8100	17.918827	0.000345	3.445988	1.167532	0.000138
 173	1.7114e+01	6.8533	18.039941	0.000304	3.040577	1.030176	0.000122
 174	1.7213e+01	6.8773	18.177204	0.000345	3.445988	1.167532	0.000138
 175	1.7313e+01	6.9319	18.330615	0.000385	3.851398	1.304889	0.000154
 176	1.7413e+01	6.9752	18.467877	0.000345	3.445988	1.167532	0.000138
 177	1.7512e+01	7.0137	18.621289	0.000385	3.851398	1.304889	0.000154
 178	1.7611e+01	7.0506	18.738366	0.000294	2.939225	0.995836	0.000118
 179	1.7711e+01	7.0923	18.847368	0.000274	2.736520	0.927158	0.000110
 180	1.7811e+01	7.1276	18.980594	0.000334	3.344635	1.133193	0.000134
 181	1.7910e+01	7.1693	19.113819	0.000334	3.344635	1.133193	0.000134
 182	1.8009e+01	7.2094	19.279342	0.000416	4.155456	1.407907	0.000166
 183	1.8109e+01	7.2575	19.372196	0.000233	2.331109	0.789801	0.000093
 184	1.8209e+01	7.2961	19.557904	0.000466	4.662219	1.579602	0.000187
 185	1.8308e+01	7.3233	19.674981	0.000294	2.939225	0.995836	0.000118
 186	1.8407e+01	7.3682	19.832429	0.000395	3.952751	1.339228	0.000158
 187	1.8507e+01	7.4100	19.989878	0.000395	3.952751	1.339228	0.000158
 188	1.8607e+01	7.4501	20.090806	0.000253	2.533815	0.858480	0.000101
 189	1.8706e+01	7.4918	20.211920	0.000304	3.040577	1.030176	0.000122
 190	1.8805e+01	7.5303	20.393591	0.000456	4.560866	1.545263	0.000183
 191	1.8905e+01	7.5720	20.518742	0.000314	3.141930	1.064515	0.000126
 192	1.9005e+01	7.5976	20.651968	0.000334	3.344635	1.133193	0.000134
 193	1.9104e+01	7.6378	20.793268	0.000355	3.547340	1.201871	0.000142
 194	1.9203e+01	7.6843	20.918419	0.000314	3.141930	1.064515	0.000126
 195	1.9303e+01	7.7276	21.096053	0.000446	4.459514	1.510924	0.000179
 196	1.9402e+01	7.7741	21.192944	0.000243	2.432462	0.824140	0.000097
 197	1.9502e+01	7.8014	21.334244	0.000355	3.547340	1.201871	0.000142
 198	1.9602e+01	7.8335	21.483618	0.000375	3.750046	1.270550	0.000150
 199	1.9701e+01	7.8928	21.641066	0.000395	3.952751	1.339228	0.000158
 200	1.9800e+01	7.9201	21.725846	0.000213	2.128404	0.721123	0.000085
 201	1.9900e+01	7.9714	21.859071	0.000334	3.344635	1.133193	0.000134
 202	2.0000e+01	8.0003	22.036705	0.000446	4.459514	1.510924	0.000179
 203	2.0099e+01	8.0532	22.157819	0.000304	3.040577	1.030176	0.000122
 204	2.0198e+01	8.0853	22.319305	0.000405	4.054103	1.373567	0.000162
 205	2.0298e+01	8.1254	22.420233	0.000253	2.533815	0.858480	0.000101
 206	2.0398e+01	8.1623	22.569607	0.000375	3.750046	1.270550	0.000150
 207	2.0497e+01	8.2169	22.743204	0.000436	4.358161	1.476585	0.000174
 208	2.0596e+01	8.2554	22.852207	0.000274	2.736520	0.927158	0.000110
 209	2.0696e+01	8.2794	22.993507	0.000355	3.547340	1.201871	0.000142
 210	2.0796e+01	8.3179	23.134806	0.000355	3.547340	1.201871	0.000142
 211	2.0895e+01	8.3741	23.288218	0.000385	3.851398	1.304889	0.000154
 212	2.0994e+01	8.4014	23.413369	0.000314	3.141930	1.064515	0.000126
 213	2.1094e+01	8.4447	23.550631	0.000345	3.445988	1.167532	0.000138
 214	2.1194e+01	8.4848	23.679820	0.000324	3.243283	1.098854	0.000130
 215	2.1293e+01	8.5249	23.817082	0.000345	3.445988	1.167532	0.000138
 216	2.1392e+01	8.5570	23.982605	0.000416	4.155456	1.407907	0.000166
 217	2.1492e+01	8.5987	24.091608	0.000274	2.736520	0.927158	0.000110
 218	2.1591e+01	8.6388	24.212722	0.000304	3.040577	1.030176	0.000122
 219	2.1691e+01	8.6789	24.354021	0.000355	3.547340	1.201871	0.000142
 220	2.1791e+01	8.7286	24.511470	0.000395	3.952751	1.339228	0.000158
 221	2.1890e+01	8.7543	24.616435	0.000264	2.635167	0.892819	0.000105
 222	2.1989e+01	8.8040	24.757735	0.000355	3.547340	1.201871	0.000142
 223	2.2089e+01	8.8393	24.911146	0.000385	3.851398	1.304889	0.000154
 224	2.2189e+01	8.8810	25.052446	0.000355	3.547340	1.201871	0.000142
 225	2.2288e+01	8.9260	25.222006	0.000426	4.256808	1.442246	0.000170
 226	2.2387e+01	8.9677	25.326971	0.000264	2.635167	0.892819	0.000105
 227	2.2487e+01	9.0094	25.456159	0.000324	3.243283	1.098854	0.000130
 228	2.2587e+01	9.0447	25.589385	0.000334	3.344635	1.133193	0.000134
 229	2.2686e+01	9.0832	25.710499	0.000304	3.040577	1.030176	0.000122
 230	2.2785e+01	9.1185	25.839687	0.000324	3.243283	1.098854	0.000130
 231	2.2885e+01	9.1570	26.005210	0.000416	4.155456	1.407907	0.000166
 232	2.2985e+01	9.2051	26.118250	0.000284	2.837872	0.961497	0.000114
 233	2.3084e+01	9.2452	26.267624	0.000375	3.750046	1.270550	0.000150
 234	2.3183e+01	9.2853	26.429109	0.000405	4.054103	1.373567	0.000162
 235	2.3283e+01	9.3334	26.526000	0.000243	2.432462	0.824140	0.000097
 236	2.3383e+01	9.3607	26.667300	0.000355	3.547340	1.201871	0.000142
 237	2.3482e+01	9.4056	26.804563	0.000345	3.445988	1.167532	0.000138
 238	2.3581e+01	9.4377	26.962011	0.000395	3.952751	1.339228	0.000158
 239	2.3681e+01	9.4794	27.099274	0.000345	3.445988	1.167532	0.000138
 240	2.3780e+01	9.5179	27.208276	0.000274	2.736520	0.927158	0.000110
 241	2.3880e+01	9.5612	27.381873	0.000436	4.358161	1.476585	0.000174
 242	2.3980e+01	9.5997	27.494913	0.000284	2.837872	0.961497	0.000114
 243	2.4079e+01	9.6350	27.664473	0.000426	4.256808	1.442246	0.000170
 244	2.4178e+01	9.6735	27.809810	0.000365	3.648693	1.236211	0.000146
 245	2.4278e+01	9.7217	27.918812	0.000274	2.736520	0.927158	0.000110
 246	2.4378e+01	9.7618	28.048001	0.000324	3.243283	1.098854	0.000130
 247	2.4477e+01	9.8035	28.205449	0.000395	3.952751	1.339228	0.000158
 248	2.4576e+01	9.8323	28.350786	0.000365	3.648693	1.236211	0.000146
 249	2.4676e+01	9.8773	28.496123	0.000365	3.648693	1.236211	0.000146
 250	2.4776e+01	9.9206	28.653571	0.000395	3.952751	1.339228	0.000158
 251	2.4875e+01	9.9591	28.782759	0.000324	3.243283	1.098854	0.000130
 252	2.4974e+01	10.0024	28.911948	0.000324	3.243283	1.098854	0.000130
 253	2.5074e+01	10.0393	29.012876	0.000253	2.533815	0.858480	0.000101
 254	2.5174e+01	10.0762	29.214733	0.000507	5.067629	1.716959	0.000203
 255	2.5273e+01	10.1195	29.347958	0.000334	3.344635	1.133193	0.000134
 256	2.5372e+01	10.1596	29.489258	0.000355	3.547340	1.201871	0.000142
 257	2.5472e+01	10.1933	29.594224	0.000264	2.635167	0.892819	0.000105
 258	2.5572e+01	10.2350	29.759746	0.000416	4.155456	1.407907	0.000166
 259	2.5671e+01	10.2799	29.880860	0.000304	3.040577	1.030176	0.000122
 260	2.5770e+01	10.3168	30.014086	0.000334	3.344635	1.133193	0.000134
 261	2.5870e+01	10.3633	30.167497	0.000385	3.851398	1.304889	0.000154
 262	2.5970e+01	10.3986	30.312834	0.000365	3.648693	1.236211	0.000146
 263	2.6069e+01	10.4420	30.409725	0.000243	2.432462	0.824140	0.000097
 264	2.6169e+01	10.4788	30.635805	0.000568	5.675745	1.922994	0.000227
 265	2.6268e+01	10.5141	30.716547	0.000203	2.027052	0.686784	0.000081
 266	2.6367e+01	10.5542	30.821513	0.000264	2.635167	0.892819	0.000105
 267	2.6467e+01	10.5944	30.987035	0.000416	4.155456	1.407907	0.000166
 268	2.6567e+01	10.6377	31.079889	0.000233	2.331109	0.789801	0.000093
 269	2.6666e+01	10.6842	31.249449	0.000426	4.256808	1.442246	0.000170
 270	2.6765e+01	10.7179	31.378638	0.000324	3.243283	1.098854	0.000130
 271	2.6865e+01	10.7548	31.523974	0.000365	3.648693	1.236211	0.000146
 272	2.6965e+01	10.7949	31.620866	0.000243	2.432462	0.824140	0.000097
 273	2.7064e+01	10.8318	31.762165	0.000355	3.547340	1.201871	0.000142
 274	2.7163e+01	10.8671	31.923651	0.000405	4.054103	1.373567	0.000162
 275	2.7263e+01	10.9120	32.056876	0.000334	3.344635	1.133193	0.000134
 276	2.7363e+01	10.9569	32.206250	0.000375	3.750046	1.270550	0.000150
 277	2.7462e+01	10.9938	32.347550	0.000355	3.547340	1.201871	0.000142
 278	2.7561e+01	11.0291	32.500961	0.000385	3.851398	1.304889	0.000154
 279	2.7661e+01	11.0756	32.614001	0.000284	2.837872	0.961497	0.000114
 280	2.7761e+01	11.1173	32.747227	0.000334	3.344635	1.133193	0.000134
 281	2.7860e+01	11.1462	32.884489	0.000345	3.445988	1.167532	0.000138
 282	2.7959e+01	11.2008	33.033863	0.000375	3.750046	1.270550	0.000150
 283	2.8059e+01	11.2312	33.159014	0.000314	3.141930	1.064515	0.000126
 284	2.8159e+01	11.2697	33.288203	0.000324	3.243283	1.098854	0.000130
 285	2.8258e+01	11.3114	33.449688	0.000405	4.054103	1.373567	0.000162
 286	2.8358e+01	11.3516	33.570802	0.000304	3.040577	1.030176	0.000122
 287	2.8457e+01	11.3901	33.708065	0.000345	3.445988	1.167532	0.000138
 288	2.8556e+01	11.4334	33.829179	0.000304	3.040577	1.030176	0.000122
 289	2.8656e+01	11.4815	33.986627	0.000395	3.952751	1.339228	0.000158
 290	2.8756e+01	11.5088	34.095630	0.000274	2.736520	0.927158	0.000110
 291	2.8855e+01	11.5489	34.220781	0.000314	3.141930	1.064515	0.000126
 292	2.8954e+01	11.5858	34.370155	0.000375	3.750046	1.270550	0.000150
 293	2.9054e+01	11.6339	34.491269	0.000304	3.040577	1.030176	0.000122
 294	2.9154e+01	11.6788	34.632569	0.000355	3.547340	1.201871	0.000142
 295	2.9253e+01	11.7109	34.773869	0.000355	3.547340	1.201871	0.000142
 296	2.9352e+01	11.7526	34.882871	0.000274	2.736520	0.927158	0.000110
 297	2.9452e+01	11.7943	35.092802	0.000527	5.270334	1.785638	0.000211
 298	2.9552e+01	11.8360	35.161434	0.000172	1.722994	0.583766	0.000069
 299	2.9651e+01	11.8697	35.318882	0.000395	3.952751	1.339228	0.000158
 300	2.9750e+01	11.9114	35.464219	0.000365	3.648693	1.236211	0.000146
 301	2.9850e+01	11.9547	35.585333	0.000304	3.040577	1.030176	0.000122
 302	2.9950e+01	11.9836	35.738744	0.000385	3.851398	1.304889	0.000154
 303	3.0049e+01	12.0253	35.859858	0.000304	3.040577	1.030176	0.000122
 304	3.0148e+01	12.0670	36.005195	0.000365	3.648693	1.236211	0.000146
 305	3.0248e+01	12.0991	36.122272	0.000294	2.939225	0.995836	0.000118
 306	3.0348e+01	12.1489	36.259535	0.000345	3.445988	1.167532	0.000138
 307	3.0447e+01	12.1841	36.412946	0.000385	3.851398	1.304889	0.000154
 308	3.0547e+01	12.2291	36.513874	0.000253	2.533815	0.858480	0.000101
 309	3.0646e+01	12.2708	36.707657	0.000486	4.864924	1.648281	0.000195
 310	3.0745e+01	12.3045	36.808585	0.000253	2.533815	0.858480	0.000101
 311	3.0845e+01	12.3510	36.982182	0.000436	4.358161	1.476585	0.000174
 312	3.0945e+01	12.3863	37.103296	0.000304	3.040577	1.030176	0.000122
 313	3.1044e+01	12.4328	37.232484	0.000324	3.243283	1.098854	0.000130
 314	3.1143e+01	12.4697	37.385896	0.000385	3.851398	1.304889	0.000154
 315	3.1243e+01	12.5082	37.494898	0.000274	2.736520	0.927158	0.000110
 316	3.1343e+01	12.5467	37.664458	0.000426	4.256808	1.442246	0.000170
 317	3.1442e+01	12.5932	37.765386	0.000253	2.533815	0.858480	0.000101
 318	3.1541e+01	12.6301	37.898612	0.000334	3.344635	1.133193	0.000134
 319	3.1641e+01	12.6670	38.056060	0.000395	3.952751	1.339228	0.000158
 320	3.1741e+01	12.7071	38.181211	0.000314	3.141930	1.064515	0.000126
 321	3.1840e+01	12.7456	38.350771	0.000426	4.256808	1.442246	0.000170
 322	3.1939e+01	12.7905	38.475922	0.000314	3.141930	1.064515	0.000126
 323	3.2039e+01	12.8258	38.601073	0.000314	3.141930	1.064515	0.000126
 324	3.2139e+01	12.8676	38.726225	0.000314	3.141930	1.064515	0.000126
 325	3.2238e+01	12.9044	38.851376	0.000314	3.141930	1.064515	0.000126
 326	3.2337e+01	12.9510	38.980564	0.000324	3.243283	1.098854	0.000130
 327	3.2437e+01	12.9831	39.133975	0.000385	3.851398	1.304889	0.000154
 328	3.2536e+01	13.0248	39.259126	0.000314	3.141930	1.064515	0.000126
 329	3.2636e+01	13.0713	39.368129	0.000274	2.736520	0.927158	0.000110
 330	3.2736e+01	13.1098	39.493280	0.000314	3.141930	1.064515	0.000126
 331	3.2835e+01	13.1435	39.618432	0.000314	3.141930	1.064515	0.000126
 332	3.2934e+01	13.1836	39.775880	0.000395	3.952751	1.339228	0.000158
 333	3.3034e+01	13.2125	39.848548	0.000182	1.824346	0.618105	0.000073
 334	3.3133e+01	13.2574	40.018108	0.000426	4.256808	1.442246	0.000170
 335	3.3233e+01	13.2975	40.135185	0.000294	2.939225	0.995836	0.000118
 336	3.3333e+01	13.3360	40.292633	0.000395	3.952751	1.339228	0.000158
 337	3.3432e+01	13.3841	40.454119	0.000405	4.054103	1.373567	0.000162
 338	3.3532e+01	13.4210	40.542936	0.000223	2.229757	0.755462	0.000089
 339	3.3631e+01	13.4643	40.680198	0.000345	3.445988	1.167532	0.000138
 340	3.3730e+01	13.5012	40.829572	0.000375	3.750046	1.270550	0.000150
 341	3.3830e+01	13.5397	40.926464	0.000243	2.432462	0.824140	0.000097
 342	3.3929e+01	13.5846	41.071800	0.000365	3.648693	1.236211	0.000146
 343	3.4029e+01	13.6119	41.200989	0.000324	3.243283	1.098854	0.000130
 344	3.4129e+01	13.6584	41.309991	0.000274	2.736520	0.927158	0.000110
 345	3.4228e+01	13.6937	41.471477	0.000405	4.054103	1.373567	0.000162
 346	3.4328e+01	13.7338	41.584517	0.000284	2.837872	0.961497	0.000114
 347	3.4427e+01	13.7900	41.741965	0.000395	3.952751	1.339228	0.000158
 348	3.4526e+01	13.8205	41.834819	0.000233	2.331109	0.789801	0.000093
 349	3.4626e+01	13.8622	41.992267	0.000395	3.952751	1.339228	0.000158
 350	3.4725e+01	13.8975	42.133567	0.000355	3.547340	1.201871	0.000142
 351	3.4825e+01	13.9504	42.262755	0.000324	3.243283	1.098854	0.000130
 352	3.4925e+01	13.9841	42.424241	0.000405	4.054103	1.373567	0.000162
 353	3.5024e+01	14.0130	42.557466	0.000334	3.344635	1.133193	0.000134
 354	3.5123e+01	14.0643	42.674543	0.000294	2.939225	0.995836	0.000118
 355	3.5223e+01	14.0996	42.791620	0.000294	2.939225	0.995836	0.000118
 356	3.5322e+01	14.1365	42.969254	0.000446	4.459514	1.510924	0.000179
 357	3.5422e+01	14.1798	43.078257	0.000274	2.736520	0.927158	0.000110
 358	3.5522e+01	14.2295	43.199371	0.000304	3.040577	1.030176	0.000122
 359	3.5621e+01	14.2600	43.296262	0.000243	2.432462	0.824140	0.000097
 360	3.5721e+01	14.2937	43.469859	0.000436	4.358161	1.476585	0.000174
 361	3.5820e+01	14.3338	43.619233	0.000375	3.750046	1.270550	0.000150
 362	3.5919e+01	14.3803	43.724199	0.000264	2.635167	0.892819	0.000105
 363	3.6019e+01	14.4285	43.837238	0.000284	2.837872	0.961497	0.000114
 364	3.6118e+01	14.4525	44.006798	0.000426	4.256808	1.442246	0.000170
 365	3.6218e+01	14.4991	44.107727	0.000253	2.533815	0.858480	0.000101
 366	3.6318e+01	14.5424	44.273249	0.000416	4.155456	1.407907	0.000166
 367	3.6417e+01	14.5825	44.406475	0.000334	3.344635	1.133193	0.000134
 368	3.6517e+01	14.6114	44.535663	0.000324	3.243283	1.098854	0.000130
 369	3.6616e+01	14.6595	44.648703	0.000284	2.837872	0.961497	0.000114
 370	3.6715e+01	14.7028	44.785965	0.000345	3.445988	1.167532	0.000138
 371	3.6815e+01	14.7333	44.919191	0.000334	3.344635	1.133193	0.000134
 372	3.6914e+01	14.7734	45.048379	0.000324	3.243283	1.098854	0.000130
 373	3.7014e+01	14.8119	45.181605	0.000334	3.344635	1.133193	0.000134
 374	3.7114e+01	14.8568	45.326941	0.000365	3.648693	1.236211	0.000146
 375	3.7213e+01	14.8969	45.439981	0.000284	2.837872	0.961497	0.000114
 376	3.7313e+01	14.9402	45.577244	0.000345	3.445988	1.167532	0.000138
 377	3.7412e+01	14.9755	45.726618	0.000375	3.750046	1.270550	0.000150
 378	3.7511e+01	15.0220	45.855806	0.000324	3.243283	1.098854	0.000130
 379	3.7611e+01	15.0557	45.980957	0.000314	3.141930	1.064515	0.000126
 380	3.7711e+01	15.0958	46.102072	0.000304	3.040577	1.030176	0.000122
 381	3.7810e+01	15.1343	46.255483	0.000385	3.851398	1.304889	0.000154
 382	3.7910e+01	15.1680	46.396782	0.000355	3.547340	1.201871	0.000142
 383	3.8009e+01	15.2226	46.525971	0.000324	3.243283	1.098854	0.000130
 384	3.8108e+01	15.2579	46.639011	0.000284	2.837872	0.961497	0.000114
 385	3.8208e+01	15.2899	46.772236	0.000334	3.344635	1.133193	0.000134
 386	3.8307e+01	15.3333	46.949870	0.000446	4.459514	1.510924	0.000179
 387	3.8407e+01	15.3814	47.046761	0.000243	2.432462	0.824140	0.000097
 388	3.8507e+01	15.4263	47.171913	0.000314	3.141930	1.064515	0.000126
 389	3.8606e+01	15.4536	47.313212	0.000355	3.547340	1.201871	0.000142
 390	3.8706e+01	15.4937	47.402029	0.000223	2.229757	0.755462	0.000089
 391	3.8805e+01	15.5338	47.579663	0.000446	4.459514	1.510924	0.000179
 392	3.8904e+01	15.5739	47.692703	0.000284	2.837872	0.961497	0.000114
 393	3.9004e+01	15.6060	47.829966	0.000345	3.445988	1.167532	0.000138
 394	3.9103e+01	15.6445	47.951080	0.000304	3.040577	1.030176	0.000122
 395	3.9203e+01	15.6894	48.092379	0.000355	3.547340	1.201871	0.000142
 396	3.9303e+01	15.7359	48.205419	0.000284	2.837872	0.961497	0.000114
 397	3.9402e+01	15.7728	48.354793	0.000375	3.750046	1.270550	0.000150
 398	3.9502e+01	15.8161	48.500130	0.000365	3.648693	1.236211	0.000146
 399	3.9601e+01	15.8466	48.609133	0.000274	2.736520	0.927158	0.000110
 400	3.9700e+01	15.8963	48.693913	0.000213	2.128404	0.721123	0.000085
 401	3.9800e+01	15.9332	48.847324	0.000385	3.851398	1.304889	0.000154
 402	3.9900e+01	15.9750	48.940178	0.000233	2.331109	0.789801	0.000093
 403	3.9999e+01	16.0183	49.129923	0.000476	4.763571	1.613942	0.000191
 404	4.0099e+01	16.0520	49.251037	0.000304	3.040577	1.030176	0.000122
 405	4.0198e+01	16.0905	49.380226	0.000324	3.243283	1.098854	0.000130
 406	4.0297e+01	16.1225	49.501340	0.000304	3.040577	1.030176	0.000122
 407	4.0397e+01	16.1739	49.626491	0.000314	3.141930	1.064515	0.000126
 408	4.0496e+01	16.2140	49.763754	0.000345	3.445988	1.167532	0.000138
 409	4.0596e+01	16.2477	49.933313	0.000426	4.256808	1.442246	0.000170
 410	4.0696e+01	16.2926	50.086725	0.000385	3.851398	1.304889	0.000154
 411	4.0795e+01	16.3295	50.191690	0.000264	2.635167	0.892819	0.000105
 412	4.0895e+01	16.3712	50.361250	0.000426	4.256808	1.442246	0.000170
 413	4.0994e+01	16.4049	50.462178	0.000253	2.533815	0.858480	0.000101
 414	4.1093e+01	16.4530	50.595404	0.000334	3.344635	1.133193	0.000134
 415	4.1193e+01	16.4851	50.724592	0.000324	3.243283	1.098854	0.000130
 416	4.1292e+01	16.5348	50.890115	0.000416	4.155456	1.407907	0.000166
 417	4.1392e+01	16.5637	50.982969	0.000233	2.331109	0.789801	0.000093
 418	4.1492e+01	16.6086	51.164640	0.000456	4.560866	1.545263	0.000183
 419	4.1591e+01	16.6407	51.265568	0.000253	2.533815	0.858480	0.000101
 420	4.1691e+01	16.6920	51.414942	0.000375	3.750046	1.270550	0.000150
 421	4.1790e+01	16.7370	51.523945	0.000274	2.736520	0.927158	0.000110
 422	4.1889e+01	16.7755	51.681393	0.000395	3.952751	1.339228	0.000158
 423	4.1989e+01	16.8140	51.814619	0.000334	3.344635	1.133193	0.000134
 424	4.2089e+01	16.8589	51.907473	0.000233	2.331109	0.789801	0.000093
 425	4.2188e+01	16.8974	52.068958	0.000405	4.054103	1.373567	0.000162
 426	4.2288e+01	16.9279	52.194109	0.000314	3.141930	1.064515	0.000126
 427	4.2387e+01	16.9664	52.335409	0.000355	3.547340	1.201871	0.000142
 428	4.2486e+01	17.0161	52.509006	0.000436	4.358161	1.476585	0.000174
 429	4.2586e+01	17.0562	52.622046	0.000284	2.837872	0.961497	0.000114
 430	4.2685e+01	17.0867	52.755271	0.000334	3.344635	1.133193	0.000134
 431	4.2785e+01	17.1252	52.896571	0.000355	3.547340	1.201871	0.000142
 432	4.2885e+01	17.1733	53.021722	0.000314	3.141930	1.064515	0.000126
 433	4.2984e+01	17.2070	53.126688	0.000264	2.635167	0.892819	0.000105
 434	4.3084e+01	17.2487	53.284136	0.000395	3.952751	1.339228	0.000158
 435	4.3183e+01	17.2776	53.385064	0.000253	2.533815	0.858480	0.000101
 436	4.3282e+01	17.3257	53.494067	0.000274	2.736520	0.927158	0.000110
 437	4.3382e+01	17.3610	53.647478	0.000385	3.851398	1.304889	0.000154
 438	4.3481e+01	17.4123	53.784741	0.000345	3.445988	1.167532	0.000138
 439	4.3581e+01	17.4541	53.909892	0.000314	3.141930	1.064515	0.000126
 440	4.3681e+01	17.4893	54.055229	0.000365	3.648693	1.236211	0.000146
 441	4.3780e+01	17.5230	54.176343	0.000304	3.040577	1.030176	0.000122
 442	4.3880e+01	17.5696	54.321680	0.000365	3.648693	1.236211	0.000146
 443	4.3979e+01	17.6097	54.430683	0.000274	2.736520	0.927158	0.000110
 444	4.4078e+01	17.6546	54.596205	0.000416	4.155456	1.407907	0.000166
 445	4.4178e+01	17.6883	54.685022	0.000223	2.229757	0.755462	0.000089
 446	4.4278e+01	17.7284	54.842470	0.000395	3.952751	1.339228	0.000158
 447	4.4377e+01	17.7621	54.959547	0.000294	2.939225	0.995836	0.000118
 448	4.4477e+01	17.8038	55.104884	0.000365	3.648693	1.236211	0.000146
 449	4.4576e+01	17.8471	55.254258	0.000375	3.750046	1.270550	0.000150
 450	4.4675e+01	17.8792	55.411707	0.000395	3.952751	1.339228	0.000158
 451	4.4775e+01	17.9193	55.484375	0.000182	1.824346	0.618105	0.000073
 452	4.4874e+01	17.9610	55.617600	0.000334	3.344635	1.133193	0.000134
 453	4.4974e+01	18.0091	55.754863	0.000345	3.445988	1.167532	0.000138
 454	4.5074e+01	18.0364	55.855792	0.000253	2.533815	0.858480	0.000101
 455	4.5173e+01	18.0877	56.005166	0.000375	3.750046	1.270550	0.000150
 456	4.5273e+01	18.1262	56.174725	0.000426	4.256808	1.442246	0.000170
 457	4.5372e+01	18.1695	56.299876	0.000314	3.141930	1.064515	0.000126
 458	4.5471e+01	18.2048	56.420991	0.000304	3.040577	1.030176	0.000122
 459	4.5571e+01	18.2385	56.542105	0.000304	3.040577	1.030176	0.000122
 460	4.5670e+01	18.2883	56.659182	0.000294	2.939225	0.995836	0.000118
 461	4.5770e+01	18.3219	56.772221	0.000284	2.837872	0.961497	0.000114
 462	4.5870e+01	18.3637	56.921595	0.000375	3.750046	1.270550	0.000150
 463	4.5969e+01	18.3973	57.070969	0.000375	3.750046	1.270550	0.000150
 464	4.6069e+01	18.4391	57.208232	0.000345	3.445988	1.167532	0.000138
 465	4.6168e+01	18.4808	57.317235	0.000274	2.736520	0.927158	0.000110
 466	4.6267e+01	18.5289	57.466609	0.000375	3.750046	1.270550	0.000150
 467	4.6367e+01	18.5578	57.624057	0.000395	3.952751	1.339228	0.000158
 468	4.6467e+01	18.6043	57.733060	0.000274	2.736520	0.927158	0.000110
 469	4.6566e+01	18.6540	57.854174	0.000304	3.040577	1.030176	0.000122
 470	4.6666e+01	18.6813	57.959139	0.000264	2.635167	0.892819	0.000105
 471	4.6765e+01	18.7246	58.116588	0.000395	3.952751	1.339228	0.000158
 472	4.6864e+01	18.7679	58.241739	0.000314	3.141930	1.064515	0.000126
 473	4.6964e+01	18.7968	58.354779	0.000284	2.837872	0.961497	0.000114
 474	4.7063e+01	18.8433	58.496078	0.000355	3.547340	1.201871	0.000142
 475	4.7163e+01	18.8802	58.633341	0.000345	3.445988	1.167532	0.000138
 476	4.7263e+01	18.9299	58.766566	0.000334	3.344635	1.133193	0.000134
 477	4.7362e+01	18.9604	58.883643	0.000294	2.939225	0.995836	0.000118
 478	4.7462e+01	19.0021	59.012832	0.000324	3.243283	1.098854	0.000130
 479	4.7561e+01	19.0455	59.146057	0.000334	3.344635	1.133193	0.000134
 480	4.7660e+01	19.0775	59.291394	0.000365	3.648693	1.236211	0.000146
 481	4.7760e+01	19.1273	59.440768	0.000375	3.750046	1.270550	0.000150
 482	4.7859e+01	19.1594	59.549771	0.000274	2.736520	0.927158	0.000110
 483	4.7959e+01	19.1946	59.699145	0.000375	3.750046	1.270550	0.000150
 484	4.8059e+01	19.2444	59.808147	0.000274	2.736520	0.927158	0.000110
 485	4.8158e+01	19.2797	59.917150	0.000274	2.736520	0.927158	0.000110
 486	4.8258e+01	19.3214	60.086710	0.000426	4.256808	1.442246	0.000170
 487	4.8357e+01	19.3535	60.199750	0.000284	2.837872	0.961497	0.000114
 488	4.8456e+01	19.3984	60.369309	0.000426	4.256808	1.442246	0.000170
 489	4.8556e+01	19.4369	60.470238	0.000253	2.533815	0.858480	0.000101
 490	4.8656e+01	19.4850	60.595389	0.000314	3.141930	1.064515	0.000126
 491	4.8755e+01	19.5139	60.692280	0.000243	2.432462	0.824140	0.000097
 492	4.8855e+01	19.5636	60.833580	0.000355	3.547340	1.201871	0.000142
 493	4.8954e+01	19.5941	60.934508	0.000253	2.533815	0.858480	0.000101
 494	4.9053e+01	19.6326	61.095994	0.000405	4.054103	1.373567	0.000162
 495	4.9153e+01	19.6871	61.225182	0.000324	3.243283	1.098854	0.000130
 496	4.9252e+01	19.7224	61.330148	0.000264	2.635167	0.892819	0.000105
 497	4.9352e+01	19.7545	61.431076	0.000253	2.533815	0.858480	0.000101
 498	4.9452e+01	19.7946	61.572376	0.000355	3.547340	1.201871	0.000142
 499	4.9551e+01	19.8379	61.725787	0.000385	3.851398	1.304889	0.000154
 500	4.9651e+01	19.8797	61.846901	0.000304	3.040577	1.030176	0.000122
 501	4.9750e+01	19.9117	61.984164	0.000345	3.445988	1.167532	0.000138
 502	4.9849e+01	19.9599	62.085092	0.000253	2.533815	0.858480	0.000101
 503	4.9949e+01	19.9968	62.242540	0.000395	3.952751	1.339228	0.000158
 504	5.0048e+01	19.9599	62.133538	0.000274	2.736520	0.927158	-0.000110
 505	5.0148e+01	19.9198	62.040683	0.000233	2.331109	0.789801	-0.000093
 506	5.0248e+01	19.8732	61.923607	0.000294	2.939225	0.995836	-0.000118
 507	5.0347e+01	19.8395	61.830752	0.000233	2.331109	0.789801	-0.000093
 508	5.0447e+01	19.8010	61.717713	0.000284	2.837872	0.961497	-0.000114
 509	5.0546e+01	19.7561	61.584487	0.000334	3.344635	1.133193	-0.000134
 510	5.0645e+01	19.7224	61.471447	0.000284	2.837872	0.961497	-0.000114
 511	5.0745e+01	19.6791	61.378593	0.000233	2.331109	0.789801	-0.000093
 512	5.0844e+01	19.6422	61.322073	0.000142	1.418936	0.480749	-0.000057
 513	5.0944e+01	19.5973	61.160588	0.000405	4.054103	1.373567	-0.000162
 514	5.1044e+01	19.5588	61.075808	0.000213	2.128404	0.721123	-0.000085
 515	5.1143e+01	19.5251	60.982954	0.000233	2.331109	0.789801	-0.000093
 516	5.1242e+01	19.4818	60.849728	0.000334	3.344635	1.133193	-0.000134
 517	5.1342e+01	19.4353	60.700354	0.000375	3.750046	1.270550	-0.000150
 518	5.1441e+01	19.4032	60.651909	0.000122	1.216231	0.412070	-0.000049
 519	5.1541e+01	19.3519	60.494460	0.000395	3.952751	1.339228	-0.000158
 520	5.1641e+01	19.3246	60.413718	0.000203	2.027052	0.686784	-0.000081
 521	5.1740e+01	19.2813	60.312789	0.000253	2.533815	0.858480	-0.000101
 522	5.1840e+01	19.2460	60.211861	0.000253	2.533815	0.858480	-0.000101
 523	5.1939e+01	19.2091	60.086710	0.000314	3.141930	1.064515	-0.000126
 524	5.2038e+01	19.1658	59.949447	0.000345	3.445988	1.167532	-0.000138
 525	5.2138e+01	19.1144	59.828333	0.000304	3.040577	1.030176	-0.000122
 526	5.2237e+01	19.0904	59.751627	0.000193	1.925699	0.652445	-0.000077
 527	5.2337e+01	19.0374	59.638588	0.000284	2.837872	0.961497	-0.000114
 528	5.2437e+01	18.9957	59.517474	0.000304	3.040577	1.030176	-0.000122
 529	5.2536e+01	18.9476	59.408471	0.000274	2.736520	0.927158	-0.000110
 530	5.2636e+01	18.9251	59.275245	0.000334	3.344635	1.133193	-0.000134
 531	5.2735e+01	18.8818	59.198540	0.000193	1.925699	0.652445	-0.000077
 532	5.2834e+01	18.8417	59.081463	0.000294	2.939225	0.995836	-0.000118
 533	5.2934e+01	18.8000	58.972460	0.000274	2.736520	0.927158	-0.000110
 534	5.3033e+01	18.7551	58.831161	0.000355	3.547340	1.201871	-0.000142
 535	5.3133e+01	18.7230	58.738306	0.000233	2.331109	0.789801	-0.000093
 536	5.3233e+01	18.6861	58.613155	0.000314	3.141930	1.064515	-0.000126
 537	5.3332e+01	18.6380	58.463781	0.000375	3.750046	1.270550	-0.000150
 538	5.3431e+01	18.6027	58.395150	0.000172	1.722994	0.583766	-0.000069
 539	5.3531e+01	18.5626	58.286147	0.000274	2.736520	0.927158	-0.000110
 540	5.3630e+01	18.5305	58.140810	0.000365	3.648693	1.236211	-0.000146
 541	5.3730e+01	18.4824	58.019696	0.000304	3.040577	1.030176	-0.000122
 542	5.3830e+01	18.4439	57.938954	0.000203	2.027052	0.686784	-0.000081
 543	5.3929e+01	18.4102	57.793617	0.000365	3.648693	1.236211	-0.000146
 544	5.4029e+01	18.3669	57.672503	0.000304	3.040577	1.030176	-0.000122
 545	5.4128e+01	18.3268	57.579648	0.000233	2.331109	0.789801	-0.000093
 546	5.4227e+01	18.2883	57.474683	0.000264	2.635167	0.892819	-0.000105
 547	5.4327e+01	18.2498	57.357606	0.000294	2.939225	0.995836	-0.000118
 548	5.4426e+01	18.2048	57.224381	0.000334	3.344635	1.133193	-0.000134
 549	5.4526e+01	18.1744	57.143638	0.000203	2.027052	0.686784	-0.000081
 550	5.4626e+01	18.1326	57.018487	0.000314	3.141930	1.064515	-0.000126
 551	5.4725e+01	18.0797	56.913521	0.000264	2.635167	0.892819	-0.000105
 552	5.4825e+01	18.0396	56.788370	0.000314	3.141930	1.064515	-0.000126
 553	5.4924e+01	18.0059	56.667256	0.000304	3.040577	1.030176	-0.000122
 554	5.5023e+01	17.9642	56.538067	0.000324	3.243283	1.098854	-0.000130
 555	5.5123e+01	17.9353	56.445213	0.000233	2.331109	0.789801	-0.000093
 556	5.5222e+01	17.8824	56.275654	0.000426	4.256808	1.442246	-0.000170
 557	5.5322e+01	17.8423	56.186837	0.000223	2.229757	0.755462	-0.000089
 558	5.5422e+01	17.8134	56.081871	0.000264	2.635167	0.892819	-0.000105
 559	5.5521e+01	17.7621	56.001128	0.000203	2.027052	0.686784	-0.000081
 560	5.5620e+01	17.7171	55.835606	0.000416	4.155456	1.407907	-0.000166
 561	5.5720e+01	17.6786	55.730640	0.000264	2.635167	0.892819	-0.000105
 562	5.5819e+01	17.6482	55.613563	0.000294	2.939225	0.995836	-0.000118
 563	5.5919e+01	17.6209	55.488412	0.000314	3.141930	1.064515	-0.000126
 564	5.6019e+01	17.5712	55.367298	0.000304	3.040577	1.030176	-0.000122
 565	5.6118e+01	17.5262	55.270407	0.000243	2.432462	0.824140	-0.000097
 566	5.6218e+01	17.4829	55.108921	0.000405	4.054103	1.373567	-0.000162
 567	5.6317e+01	17.4444	55.024142	0.000213	2.128404	0.721123	-0.000085
 568	5.6416e+01	17.4107	54.870730	0.000385	3.851398	1.304889	-0.000154
 569	5.6516e+01	17.3642	54.789988	0.000203	2.027052	0.686784	-0.000081
 570	5.6615e+01	17.3305	54.652725	0.000345	3.445988	1.167532	-0.000138
 571	5.6715e+01	17.2872	54.507388	0.000365	3.648693	1.236211	-0.000146
 572	5.6815e+01	17.2423	54.378200	0.000324	3.243283	1.098854	-0.000130
 573	5.6914e+01	17.2022	54.281309	0.000243	2.432462	0.824140	-0.000097
 574	5.7014e+01	17.1813	54.200566	0.000203	2.027052	0.686784	-0.000081
 575	5.7113e+01	17.1380	54.055229	0.000365	3.648693	1.236211	-0.000146
 576	5.7212e+01	17.0883	53.909892	0.000365	3.648693	1.236211	-0.000146
 577	5.7312e+01	17.0450	53.821075	0.000223	2.229757	0.755462	-0.000089
 578	5.7411e+01	17.0049	53.736295	0.000213	2.128404	0.721123	-0.000085
 579	5.7511e+01	16.9760	53.599033	0.000345	3.445988	1.167532	-0.000138
 580	5.7611e+01	16.9407	53.518290	0.000203	2.027052	0.686784	-0.000081
 581	5.7710e+01	16.8910	53.393139	0.000314	3.141930	1.064515	-0.000126
 582	5.7809e+01	16.8428	53.263950	0.000324	3.243283	1.098854	-0.000130
 583	5.7909e+01	16.8124	53.146873	0.000294	2.939225	0.995836	-0.000118
 584	5.8008e+01	16.7690	53.037871	0.000274	2.736520	0.927158	-0.000110
 585	5.8108e+01	16.7305	52.912720	0.000314	3.141930	1.064515	-0.000126
 586	5.8208e+01	16.6904	52.807754	0.000264	2.635167	0.892819	-0.000105
 587	5.8307e+01	16.6567	52.686640	0.000304	3.040577	1.030176	-0.000122
 588	5.8407e+01	16.6102	52.565526	0.000304	3.040577	1.030176	-0.000122
 589	5.8506e+01	16.5765	52.472672	0.000233	2.331109	0.789801	-0.000093
 590	5.8605e+01	16.5236	52.367706	0.000264	2.635167	0.892819	-0.000105
 591	5.8705e+01	16.4867	52.202184	0.000416	4.155456	1.407907	-0.000166
 592	5.8804e+01	16.4514	52.089144	0.000284	2.837872	0.961497	-0.000114
 593	5.8904e+01	16.4065	51.992253	0.000243	2.432462	0.824140	-0.000097
 594	5.9004e+01	16.3760	51.842879	0.000375	3.750046	1.270550	-0.000150
 595	5.9103e+01	16.3231	51.733876	0.000274	2.736520	0.927158	-0.000110
 596	5.9203e+01	16.3006	51.641022	0.000233	2.331109	0.789801	-0.000093
 597	5.9302e+01	16.2637	51.532019	0.000274	2.736520	0.927158	-0.000110
 598	5.9401e+01	16.2140	51.382645	0.000375	3.750046	1.270550	-0.000150
 599	5.9501e+01	16.1771	51.265568	0.000294	2.939225	0.995836	-0.000118
 600	5.9600e+01	16.1193	51.152528	0.000284	2.837872	0.961497	-0.000114
 601	5.9700e+01	16.0921	51.023340	0.000324	3.243283	1.098854	-0.000130
 602	5.9800e+01	16.0439	50.922412	0.000253	2.533815	0.858480	-0.000101
 603	5.9899e+01	16.0167	50.797260	0.000314	3.141930	1.064515	-0.000126
 604	5.9998e+01	15.9653	50.668072	0.000324	3.243283	1.098854	-0.000130
 605	6.0098e+01	15.9397	50.563107	0.000264	2.635167	0.892819	-0.000105
 606	6.0197e+01	15.8899	50.450067	0.000284	2.837872	0.961497	-0.000114
 607	6.0297e+01	15.8466	50.328953	0.000304	3.040577	1.030176	-0.000122
 608	6.0397e+01	15.8097	50.207839	0.000304	3.040577	1.030176	-0.000122
 609	6.0496e+01	15.7712	50.106910	0.000253	2.533815	0.858480	-0.000101
 610	6.0596e+01	15.7247	49.981759	0.000314	3.141930	1.064515	-0.000126
 611	6.0695e+01	15.6894	49.844496	0.000345	3.445988	1.167532	-0.000138
 612	6.0794e+01	15.6589	49.727419	0.000294	2.939225	0.995836	-0.000118
 613	6.0894e+01	15.6108	49.582083	0.000365	3.648693	1.236211	-0.000146
 614	6.0993e+01	15.5819	49.489228	0.000233	2.331109	0.789801	-0.000093
 615	6.1093e+01	15.5354	49.384263	0.000264	2.635167	0.892819	-0.000105
 616	6.1193e+01	15.4873	49.230852	0.000385	3.851398	1.304889	-0.000154
 617	6.1292e+01	15.4600	49.129923	0.000253	2.533815	0.858480	-0.000101
 618	6.1392e+01	15.4087	49.033032	0.000243	2.432462	0.824140	-0.000097
 619	6.1491e+01	15.3750	48.875584	0.000395	3.952751	1.339228	-0.000158
 620	6.1590e+01	15.3300	48.782730	0.000233	2.331109	0.789801	-0.000093
 621	6.1690e+01	15.2980	48.697950	0.000213	2.128404	0.721123	-0.000085
 622	6.1789e+01	15.2579	48.492056	0.000517	5.168982	1.751298	-0.000207
 623	6.1889e+01	15.2210	48.419387	0.000182	1.824346	0.618105	-0.000073
 624	6.1989e+01	15.1776	48.298273	0.000304	3.040577	1.030176	-0.000122
 625	6.2088e+01	15.1311	48.161011	0.000345	3.445988	1.167532	-0.000138
 626	6.2188e+01	15.0926	48.052008	0.000274	2.736520	0.927158	-0.000110
 627	6.2287e+01	15.0493	47.890523	0.000405	4.054103	1.373567	-0.000162
 628	6.2386e+01	15.0140	47.809780	0.000203	2.027052	0.686784	-0.000081
 629	6.2486e+01	14.9739	47.720963	0.000223	2.229757	0.755462	-0.000089
 630	6.2586e+01	14.9370	47.587738	0.000334	3.344635	1.133193	-0.000134
 631	6.2685e+01	14.8985	47.434326	0.000385	3.851398	1.304889	-0.000154
 632	6.2785e+01	14.8552	47.309175	0.000314	3.141930	1.064515	-0.000126
 633	6.2884e+01	14.8103	47.212284	0.000243	2.432462	0.824140	-0.000097
 634	6.2983e+01	14.7846	47.075021	0.000345	3.445988	1.167532	-0.000138
 635	6.3083e+01	14.7317	46.937759	0.000345	3.445988	1.167532	-0.000138
 636	6.3182e+01	14.7012	46.852979	0.000213	2.128404	0.721123	-0.000085
 637	6.3282e+01	14.6531	46.711679	0.000355	3.547340	1.201871	-0.000142
 638	6.3382e+01	14.6210	46.590565	0.000304	3.040577	1.030176	-0.000122
 639	6.3481e+01	14.5825	46.473488	0.000294	2.939225	0.995836	-0.000118
 640	6.3581e+01	14.5376	46.384671	0.000223	2.229757	0.755462	-0.000089
 641	6.3680e+01	14.4910	46.255483	0.000324	3.243283	1.098854	-0.000130
 642	6.3779e+01	14.4493	46.098034	0.000395	3.952751	1.339228	-0.000158
 643	6.3879e+01	14.4253	45.997106	0.000253	2.533815	0.858480	-0.000101
 644	6.3978e+01	14.3787	45.871955	0.000314	3.141930	1.064515	-0.000126
 645	6.4078e+01	14.3450	45.754878	0.000294	2.939225	0.995836	-0.000118
 646	6.4177e+01	14.3001	45.625690	0.000324	3.243283	1.098854	-0.000130
 647	6.4277e+01	14.2616	45.500538	0.000314	3.141930	1.064515	-0.000126
 648	6.4376e+01	14.2135	45.383461	0.000294	2.939225	0.995836	-0.000118
 649	6.4476e+01	14.1766	45.282533	0.000253	2.533815	0.858480	-0.000101
 650	6.4576e+01	14.1397	45.149308	0.000334	3.344635	1.133193	-0.000134
 651	6.4675e+01	14.0996	45.036268	0.000284	2.837872	0.961497	-0.000114
 652	6.4775e+01	14.0579	44.907079	0.000324	3.243283	1.098854	-0.000130
 653	6.4874e+01	14.0242	44.781928	0.000314	3.141930	1.064515	-0.000126
 654	6.4974e+01	13.9825	44.652740	0.000324	3.243283	1.098854	-0.000130
 655	6.5073e+01	13.9424	44.563923	0.000223	2.229757	0.755462	-0.000089
 656	6.5172e+01	13.8943	44.430697	0.000334	3.344635	1.133193	-0.000134
 657	6.5272e+01	13.8509	44.269212	0.000405	4.054103	1.373567	-0.000162
 658	6.5371e+01	13.8157	44.148098	0.000304	3.040577	1.030176	-0.000122
 659	6.5471e+01	13.7772	44.039095	0.000274	2.736520	0.927158	-0.000110
 660	6.5570e+01	13.7370	43.881647	0.000395	3.952751	1.339228	-0.000158
 661	6.5670e+01	13.7034	43.784756	0.000243	2.432462	0.824140	-0.000097
 662	6.5769e+01	13.6697	43.659604	0.000314	3.141930	1.064515	-0.000126
 663	6.5869e+01	13.6199	43.518305	0.000355	3.547340	1.201871	-0.000142
 664	6.5969e+01	13.5798	43.393153	0.000314	3.141930	1.064515	-0.000126
 665	6.6068e+01	13.5429	43.288188	0.000264	2.635167	0.892819	-0.000105
 666	6.6168e+01	13.5060	43.122665	0.000416	4.155456	1.407907	-0.000166
 667	6.6267e+01	13.4627	43.037886	0.000213	2.128404	0.721123	-0.000085
 668	6.6367e+01	13.4258	42.876400	0.000405	4.054103	1.373567	-0.000162
 669	6.6466e+01	13.3841	42.771435	0.000264	2.635167	0.892819	-0.000105
 670	6.6566e+01	13.3504	42.646283	0.000314	3.141930	1.064515	-0.000126
 671	6.6665e+01	13.3007	42.496909	0.000375	3.750046	1.270550	-0.000150
 672	6.6764e+01	13.2606	42.379832	0.000294	2.939225	0.995836	-0.000118
 673	6.6864e+01	13.2221	42.270830	0.000274	2.736520	0.927158	-0.000110
 674	6.6963e+01	13.1852	42.125493	0.000365	3.648693	1.236211	-0.000146
 675	6.7063e+01	13.1435	42.036676	0.000223	2.229757	0.755462	-0.000089
 676	6.7162e+01	13.0986	41.875190	0.000405	4.054103	1.373567	-0.000162
 677	6.7262e+01	13.0569	41.758114	0.000294	2.939225	0.995836	-0.000118
 678	6.7362e+01	13.0360	41.669297	0.000223	2.229757	0.755462	-0.000089
 679	6.7461e+01	12.9798	41.515885	0.000385	3.851398	1.304889	-0.000154
 680	6.7561e+01	12.9430	41.394771	0.000304	3.040577	1.030176	-0.000122
 681	6.7660e+01	12.9028	41.253472	0.000355	3.547340	1.201871	-0.000142
 682	6.7760e+01	12.8788	41.172729	0.000203	2.027052	0.686784	-0.000081
 683	6.7859e+01	12.8178	40.999132	0.000436	4.358161	1.476585	-0.000174
 684	6.7959e+01	12.7922	40.910315	0.000223	2.229757	0.755462	-0.000089
 685	6.8058e+01	12.7408	40.764978	0.000365	3.648693	1.236211	-0.000146
 686	6.8157e+01	12.7087	40.668087	0.000243	2.432462	0.824140	-0.000097
 687	6.8257e+01	12.6670	40.502564	0.000416	4.155456	1.407907	-0.000166
 688	6.8356e+01	12.6285	40.377413	0.000314	3.141930	1.064515	-0.000126
 689	6.8456e+01	12.5852	40.280522	0.000243	2.432462	0.824140	-0.000097
 690	6.8555e+01	12.5371	40.135185	0.000365	3.648693	1.236211	-0.000146
 691	6.8655e+01	12.5050	40.010034	0.000314	3.141930	1.064515	-0.000126
 692	6.8754e+01	12.4697	39.852585	0.000395	3.952751	1.339228	-0.000158
 693	6.8854e+01	12.4232	39.731471	0.000304	3.040577	1.030176	-0.000122
 694	6.8954e+01	12.3959	39.642654	0.000223	2.229757	0.755462	-0.000089
 695	6.9053e+01	12.3526	39.493280	0.000375	3.750046	1.270550	-0.000150
 696	6.9153e+01	12.3093	39.372166	0.000304	3.040577	1.030176	-0.000122
 697	6.9252e+01	12.2676	39.222792	0.000375	3.750046	1.270550	-0.000150
 698	6.9352e+01	12.2243	39.125901	0.000243	2.432462	0.824140	-0.000097
 699	6.9451e+01	12.1890	38.968453	0.000395	3.952751	1.339228	-0.000158
 700	6.9550e+01	12.1521	38.835227	0.000334	3.344635	1.133193	-0.000134
 701	6.9650e+01	12.1087	38.766596	0.000172	1.722994	0.583766	-0.000069
 702	6.9749e+01	12.0670	38.617222	0.000375	3.750046	1.270550	-0.000150
 703	6.9849e+01	12.0301	38.492071	0.000314	3.141930	1.064515	-0.000126
 704	6.9948e+01	11.9948	38.358845	0.000334	3.344635	1.133193	-0.000134
 705	7.0048e+01	11.9483	38.209471	0.000375	3.750046	1.270550	-0.000150
 706	7.0147e+01	11.9082	38.144877	0.000162	1.621641	0.549427	-0.000065
 707	7.0247e+01	11.8713	37.975317	0.000426	4.256808	1.442246	-0.000170
 708	7.0347e+01	11.8312	37.821906	0.000385	3.851398	1.304889	-0.000154
 709	7.0446e+01	11.7927	37.749238	0.000182	1.824346	0.618105	-0.000073
 710	7.0546e+01	11.7494	37.595827	0.000385	3.851398	1.304889	-0.000154
 711	7.0645e+01	11.7157	37.462601	0.000334	3.344635	1.133193	-0.000134
 712	7.0745e+01	11.6740	37.373784	0.000223	2.229757	0.755462	-0.000089
 713	7.0844e+01	11.6339	37.236521	0.000345	3.445988	1.167532	-0.000138
 714	7.0944e+01	11.5986	37.111370	0.000314	3.141930	1.064515	-0.000126
 715	7.1043e+01	11.5569	36.941811	0.000426	4.256808	1.442246	-0.000170
 716	7.1142e+01	11.5136	36.852994	0.000223	2.229757	0.755462	-0.000089
 717	7.1242e+01	11.4735	36.735917	0.000294	2.939225	0.995836	-0.000118
 718	7.1341e+01	11.4270	36.562320	0.000436	4.358161	1.476585	-0.000174
 719	7.1441e+01	11.3997	36.457354	0.000264	2.635167	0.892819	-0.000105
 720	7.1540e+01	11.3532	36.336240	0.000304	3.040577	1.030176	-0.000122
 721	7.1640e+01	11.3147	36.223200	0.000284	2.837872	0.961497	-0.000114
 722	7.1740e+01	11.2569	36.094012	0.000324	3.243283	1.098854	-0.000130
 723	7.1839e+01	11.2312	35.924452	0.000426	4.256808	1.442246	-0.000170
 724	7.1939e+01	11.1911	35.839673	0.000213	2.128404	0.721123	-0.000085
 725	7.2038e+01	11.1558	35.678187	0.000405	4.054103	1.373567	-0.000162
 726	7.2138e+01	11.1109	35.540924	0.000345	3.445988	1.167532	-0.000138
 727	7.2237e+01	11.0756	35.427885	0.000284	2.837872	0.961497	-0.000114
 728	7.2337e+01	11.0387	35.258325	0.000426	4.256808	1.442246	-0.000170
 729	7.2436e+01	10.9938	35.197768	0.000152	1.520289	0.515088	-0.000061
 730	7.2535e+01	10.9601	35.032245	0.000416	4.155456	1.407907	-0.000166
 731	7.2635e+01	10.9168	34.935354	0.000243	2.432462	0.824140	-0.000097
 732	7.2734e+01	10.8767	34.761757	0.000436	4.358161	1.476585	-0.000174
 733	7.2834e+01	10.8350	34.660829	0.000253	2.533815	0.858480	-0.000101
 734	7.2933e+01	10.7949	34.519529	0.000355	3.547340	1.201871	-0.000142
 735	7.3033e+01	10.7500	34.394378	0.000314	3.141930	1.064515	-0.000126
 736	7.3132e+01	10.7099	34.245004	0.000375	3.750046	1.270550	-0.000150
 737	7.3232e+01	10.6698	34.123890	0.000304	3.040577	1.030176	-0.000122
 738	7.3332e+01	10.6329	34.010850	0.000284	2.837872	0.961497	-0.000114
 739	7.3431e+01	10.5944	33.845327	0.000416	4.155456	1.407907	-0.000166
 740	7.3531e+01	10.5623	33.724213	0.000304	3.040577	1.030176	-0.000122
 741	7.3630e+01	10.5174	33.643471	0.000203	2.027052	0.686784	-0.000081
 742	7.3730e+01	10.4788	33.457762	0.000466	4.662219	1.579602	-0.000187
 743	7.3829e+01	10.4403	33.364908	0.000233	2.331109	0.789801	-0.000093
 744	7.3928e+01	10.3954	33.227646	0.000345	3.445988	1.167532	-0.000138
 745	7.4028e+01	10.3489	33.159014	0.000172	1.722994	0.583766	-0.000069
 746	7.4127e+01	10.3168	33.017715	0.000355	3.547340	1.201871	-0.000142
 747	7.4227e+01	10.2719	32.844118	0.000436	4.358161	1.476585	-0.000174
 748	7.4326e+01	10.2382	32.710892	0.000334	3.344635	1.133193	-0.000134
 749	7.4426e+01	10.2061	32.630150	0.000203	2.027052	0.686784	-0.000081
 750	7.4525e+01	10.1548	32.472701	0.000395	3.952751	1.339228	-0.000158
 751	7.4625e+01	10.1195	32.347550	0.000314	3.141930	1.064515	-0.000126
 752	7.4725e+01	10.0714	32.218362	0.000324	3.243283	1.098854	-0.000130
 753	7.4824e+01	10.0345	32.097248	0.000304	3.040577	1.030176	-0.000122
 754	7.4924e+01	9.9976	31.959985	0.000345	3.445988	1.167532	-0.000138
 755	7.5023e+01	9.9559	31.834834	0.000314	3.141930	1.064515	-0.000126
 756	7.5123e+01	9.9286	31.729868	0.000264	2.635167	0.892819	-0.000105
 757	7.5222e+01	9.8853	31.637014	0.000233	2.331109	0.789801	-0.000093
 758	7.5322e+01	9.8291	31.467455	0.000426	4.256808	1.442246	-0.000170
 759	7.5421e+01	9.8003	31.370563	0.000243	2.432462	0.824140	-0.000097
 760	7.5520e+01	9.7585	31.213115	0.000395	3.952751	1.339228	-0.000158
 761	7.5620e+01	9.7184	31.120261	0.000233	2.331109	0.789801	-0.000093
 762	7.5719e+01	9.6831	30.962813	0.000395	3.952751	1.339228	-0.000158
 763	7.5819e+01	9.6318	30.809401	0.000385	3.851398	1.304889	-0.000154
 764	7.5918e+01	9.5949	30.720584	0.000223	2.229757	0.755462	-0.000089
 765	7.6018e+01	9.5660	30.623693	0.000243	2.432462	0.824140	-0.000097
 766	7.6118e+01	9.5147	30.433948	0.000476	4.763571	1.613942	-0.000191
 767	7.6217e+01	9.4746	30.345131	0.000223	2.229757	0.755462	-0.000089
 768	7.6317e+01	9.4393	30.195757	0.000375	3.750046	1.270550	-0.000150
 769	7.6416e+01	9.4008	30.046383	0.000375	3.750046	1.270550	-0.000150
 770	7.6516e+01	9.3607	29.917194	0.000324	3.243283	1.098854	-0.000130
 771	7.6615e+01	9.3238	29.767820	0.000375	3.750046	1.270550	-0.000150
 772	7.6715e+01	9.2821	29.723412	0.000111	1.114878	0.377731	-0.000045
 773	7.6814e+01	9.2420	29.513481	0.000527	5.270334	1.785638	-0.000211
 774	7.6913e+01	9.1923	29.428701	0.000213	2.128404	0.721123	-0.000085
 775	7.7013e+01	9.1554	29.271253	0.000395	3.952751	1.339228	-0.000158
 776	7.7112e+01	9.1217	29.166287	0.000264	2.635167	0.892819	-0.000105
 777	7.7212e+01	9.0800	29.029025	0.000345	3.445988	1.167532	-0.000138
 778	7.7311e+01	9.0334	28.883688	0.000365	3.648693	1.236211	-0.000146
 779	7.7411e+01	8.9933	28.750462	0.000334	3.344635	1.133193	-0.000134
 780	7.7510e+01	8.9612	28.665682	0.000213	2.128404	0.721123	-0.000085
 781	7.7610e+01	8.9163	28.504197	0.000405	4.054103	1.373567	-0.000162
 782	7.7710e+01	8.8858	28.366934	0.000345	3.445988	1.167532	-0.000138
 783	7.7809e+01	8.8473	28.245820	0.000304	3.040577	1.030176	-0.000122
 784	7.7909e+01	8.8088	28.136818	0.000274	2.736520	0.927158	-0.000110
 785	7.8008e+01	8.7623	28.007629	0.000324	3.243283	1.098854	-0.000130
 786	7.8108e+01	8.7238	27.862292	0.000365	3.648693	1.236211	-0.000146
 787	7.8207e+01	8.6869	27.704844	0.000395	3.952751	1.339228	-0.000158
 788	7.8306e+01	8.6484	27.587767	0.000294	2.939225	0.995836	-0.000118
 789	7.8406e+01	8.6035	27.434356	0.000385	3.851398	1.304889	-0.000154
 790	7.8505e+01	8.5650	27.349576	0.000213	2.128404	0.721123	-0.000085
 791	7.8605e+01	8.5281	27.180016	0.000426	4.256808	1.442246	-0.000170
 792	7.8704e+01	8.4928	27.079088	0.000253	2.533815	0.858480	-0.000101
 793	7.8804e+01	8.4415	26.970085	0.000274	2.736520	0.927158	-0.000110
 794	7.8903e+01	8.4030	26.836860	0.000334	3.344635	1.133193	-0.000134
 795	7.9003e+01	8.3629	26.699597	0.000345	3.445988	1.167532	-0.000138
 796	7.9103e+01	8.3131	26.558297	0.000355	3.547340	1.201871	-0.000142
 797	7.9202e+01	8.2794	26.421035	0.000345	3.445988	1.167532	-0.000138
 798	7.9302e+01	8.2361	26.251475	0.000426	4.256808	1.442246	-0.000170
 799	7.9401e+01	8.2121	26.118250	0.000334	3.344635	1.133193	-0.000134
 800	7.9501e+01	8.1623	25.980987	0.000345	3.445988	1.167532	-0.000138
 801	7.9600e+01	8.1270	25.863910	0.000294	2.939225	0.995836	-0.000118
 802	7.9700e+01	8.0853	25.803353	0.000152	1.520289	0.515088	-0.000061
 803	7.9799e+01	8.0372	25.609571	0.000486	4.864924	1.648281	-0.000195
 804	7.9898e+01	8.0035	25.476345	0.000334	3.344635	1.133193	-0.000134
 805	7.9998e+01	7.9650	25.379454	0.000243	2.432462	0.824140	-0.000097
 806	8.0097e+01	7.9233	25.222006	0.000395	3.952751	1.339228	-0.000158
 807	8.0197e+01	7.8848	25.117040	0.000264	2.635167	0.892819	-0.000105
 808	8.0296e+01	7.8543	24.967666	0.000375	3.750046	1.270550	-0.000150
 809	8.0396e+01	7.8126	24.838478	0.000324	3.243283	1.098854	-0.000130
 810	8.0496e+01	7.7597	24.717364	0.000304	3.040577	1.030176	-0.000122
 811	8.0595e+01	7.7244	24.551841	0.000416	4.155456	1.407907	-0.000166
 812	8.0695e+01	7.6923	24.450913	0.000253	2.533815	0.858480	-0.000101
 813	8.0794e+01	7.6458	24.317687	0.000334	3.344635	1.133193	-0.000134
 814	8.0894e+01	7.6137	24.180425	0.000345	3.445988	1.167532	-0.000138
 815	8.0993e+01	7.5704	24.075459	0.000264	2.635167	0.892819	-0.000105
 816	8.1093e+01	7.5335	23.938196	0.000345	3.445988	1.167532	-0.000138
 817	8.1192e+01	7.4902	23.813045	0.000314	3.141930	1.064515	-0.000126
 818	8.1291e+01	7.4372	23.663671	0.000375	3.750046	1.270550	-0.000150
 819	8.1391e+01	7.4100	23.518334	0.000365	3.648693	1.236211	-0.000146
 820	8.1490e+01	7.3682	23.449703	0.000172	1.722994	0.583766	-0.000069
 821	8.1590e+01	7.3281	23.296292	0.000385	3.851398	1.304889	-0.000154
 822	8.1689e+01	7.2961	23.163066	0.000334	3.344635	1.133193	-0.000134
 823	8.1789e+01	7.2463	23.033878	0.000324	3.243283	1.098854	-0.000130
 824	8.1888e+01	7.2014	22.880467	0.000385	3.851398	1.304889	-0.000154
 825	8.1988e+01	7.1709	22.767427	0.000284	2.837872	0.961497	-0.000114
 826	8.2088e+01	7.1212	22.585756	0.000456	4.560866	1.545263	-0.000183
 827	8.2187e+01	7.0971	22.456568	0.000324	3.243283	1.098854	-0.000130
 828	8.2287e+01	7.0426	22.359676	0.000243	2.432462	0.824140	-0.000097
 829	8.2386e+01	7.0137	22.226451	0.000334	3.344635	1.133193	-0.000134
 830	8.2486e+01	6.9656	22.056891	0.000426	4.256808	1.442246	-0.000170
 831	8.2585e+01	6.9271	21.955963	0.000253	2.533815	0.858480	-0.000101
 832	8.2684e+01	6.8918	21.810626	0.000365	3.648693	1.236211	-0.000146
 833	8.2784e+01	6.8485	21.669326	0.000355	3.547340	1.201871	-0.000142
 834	8.2883e+01	6.8084	21.519952	0.000375	3.750046	1.270550	-0.000150
 835	8.2983e+01	6.7699	21.390764	0.000324	3.243283	1.098854	-0.000130
 836	8.3082e+01	6.7346	21.273687	0.000294	2.939225	0.995836	-0.000118
 837	8.3182e+01	6.6880	21.108164	0.000416	4.155456	1.407907	-0.000166
 838	8.3281e+01	6.6511	20.991087	0.000294	2.939225	0.995836	-0.000118
 839	8.3381e+01	6.6191	20.821528	0.000426	4.256808	1.442246	-0.000170
 840	8.3481e+01	6.5822	20.724636	0.000243	2.432462	0.824140	-0.000097
 841	8.3580e+01	6.5292	20.551039	0.000436	4.358161	1.476585	-0.000174
 842	8.3680e+01	6.4907	20.446074	0.000264	2.635167	0.892819	-0.000105
 843	8.3779e+01	6.4490	20.320923	0.000314	3.141930	1.064515	-0.000126
 844	8.3879e+01	6.4137	20.187697	0.000334	3.344635	1.133193	-0.000134
 845	8.3978e+01	6.3768	20.042360	0.000365	3.648693	1.236211	-0.000146
 846	8.4078e+01	6.3367	19.925283	0.000294	2.939225	0.995836	-0.000118
 847	8.4177e+01	6.2902	19.800132	0.000314	3.141930	1.064515	-0.000126
 848	8.4276e+01	6.2549	19.614424	0.000466	4.662219	1.579602	-0.000187
 849	8.4376e+01	6.2148	19.525607	0.000223	2.229757	0.755462	-0.000089
 850	8.4475e+01	6.1731	19.364122	0.000405	4.054103	1.373567	-0.000162
 851	8.4575e+01	6.1378	19.259156	0.000264	2.635167	0.892819	-0.000105
 852	8.4674e+01	6.0913	19.121893	0.000345	3.445988	1.167532	-0.000138
 853	8.4774e+01	6.0592	18.956371	0.000416	4.155456	1.407907	-0.000166
 854	8.4874e+01	6.0111	18.847368	0.000274	2.736520	0.927158	-0.000110
 855	8.4973e+01	5.9661	18.681846	0.000416	4.155456	1.407907	-0.000166
 856	8.5073e+01	5.9421	18.580917	0.000253	2.533815	0.858480	-0.000101
 857	8.5172e+01	5.8956	18.439617	0.000355	3.547340	1.201871	-0.000142
 858	8.5272e+01	5.8554	18.326578	0.000284	2.837872	0.961497	-0.000114
 859	8.5371e+01	5.8137	18.161055	0.000416	4.155456	1.407907	-0.000166
 860	8.5471e+01	5.7752	18.060127	0.000253	2.533815	0.858480	-0.000101
 861	8.5570e+01	5.7399	17.898641	0.000405	4.054103	1.373567	-0.000162
 862	8.5669e+01	5.6982	17.777527	0.000304	3.040577	1.030176	-0.000122
 863	8.5769e+01	5.6581	17.620079	0.000395	3.952751	1.339228	-0.000158
 864	8.5868e+01	5.6180	17.494928	0.000314	3.141930	1.064515	-0.000126
 865	8.5968e+01	5.5811	17.381888	0.000284	2.837872	0.961497	-0.000114
 866	8.6067e+01	5.5346	17.236551	0.000365	3.648693	1.236211	-0.000146
 867	8.6167e+01	5.4913	17.046806	0.000476	4.763571	1.613942	-0.000191
 868	8.6266e+01	5.4656	16.966063	0.000203	2.027052	0.686784	-0.000081
 869	8.6366e+01	5.4191	16.808615	0.000395	3.952751	1.339228	-0.000158
 870	8.6466e+01	5.3854	16.671352	0.000345	3.445988	1.167532	-0.000138
 871	8.6565e+01	5.3341	16.542164	0.000324	3.243283	1.098854	-0.000130
 872	8.6665e+01	5.2988	16.425087	0.000294	2.939225	0.995836	-0.000118
 873	8.6764e+01	5.2523	16.283787	0.000355	3.547340	1.201871	-0.000142
 874	8.6864e+01	5.2105	16.126339	0.000395	3.952751	1.339228	-0.000158
 875	8.6963e+01	5.1865	16.017336	0.000274	2.736520	0.927158	-0.000110
 876	8.7063e+01	5.1384	15.855851	0.000405	4.054103	1.373567	-0.000162
 877	8.7162e+01	5.0934	15.730699	0.000314	3.141930	1.064515	-0.000126
 878	8.7261e+01	5.0630	15.597474	0.000334	3.344635	1.133193	-0.000134
 879	8.7361e+01	5.0212	15.472323	0.000314	3.141930	1.064515	-0.000126
 880	8.7460e+01	4.9779	15.331023	0.000355	3.547340	1.201871	-0.000142
 881	8.7560e+01	4.9426	15.197797	0.000334	3.344635	1.133193	-0.000134
 882	8.7659e+01	4.9025	15.076683	0.000304	3.040577	1.030176	-0.000122
 883	8.7759e+01	4.8640	14.931347	0.000365	3.648693	1.236211	-0.000146
 884	8.7859e+01	4.8239	14.765824	0.000416	4.155456	1.407907	-0.000166
 885	8.7958e+01	4.7790	14.652784	0.000284	2.837872	0.961497	-0.000114
 886	8.8058e+01	4.7405	14.531670	0.000304	3.040577	1.030176	-0.000122
 887	8.8157e+01	4.7020	14.378259	0.000385	3.851398	1.304889	-0.000154
 888	8.8257e+01	4.6507	14.285405	0.000233	2.331109	0.789801	-0.000093
 889	8.8356e+01	4.6186	14.140068	0.000365	3.648693	1.236211	-0.000146
 890	8.8456e+01	4.5769	14.010880	0.000324	3.243283	1.098854	-0.000130
 891	8.8555e+01	4.5464	13.845357	0.000416	4.155456	1.407907	-0.000166
 892	8.8654e+01	4.5031	13.744429	0.000253	2.533815	0.858480	-0.000101
 893	8.8754e+01	4.4646	13.570832	0.000436	4.358161	1.476585	-0.000174
 894	8.8853e+01	4.4181	13.433569	0.000345	3.445988	1.167532	-0.000138
 895	8.8953e+01	4.3828	13.296307	0.000345	3.445988	1.167532	-0.000138
 896	8.9052e+01	4.3443	13.163081	0.000334	3.344635	1.133193	-0.000134
 897	8.9152e+01	4.2993	13.029856	0.000334	3.344635	1.133193	-0.000134
 898	8.9251e+01	4.2624	12.904704	0.000314	3.141930	1.064515	-0.000126
 899	8.9351e+01	4.2207	12.743219	0.000405	4.054103	1.373567	-0.000162
 900	8.9451e+01	4.1742	12.638253	0.000264	2.635167	0.892819	-0.000105
 901	8.9550e+01	4.1437	12.468694	0.000426	4.256808	1.442246	-0.000170
 902	8.9650e+01	4.1052	12.315283	0.000385	3.851398	1.304889	-0.000154
 903	8.9749e+01	4.0603	12.198206	0.000294	2.939225	0.995836	-0.000118
 904	8.9849e+01	4.0218	12.032683	0.000416	4.155456	1.407907	-0.000166
 905	8.9948e+01	3.9833	11.887346	0.000365	3.648693	1.236211	-0.000146
 906	9.0047e+01	3.9384	11.786418	0.000253	2.533815	0.858480	-0.000101
 907	9.0147e+01	3.9047	11.689527	0.000243	2.432462	0.824140	-0.000097
 908	9.0246e+01	3.8614	11.548227	0.000355	3.547340	1.201871	-0.000142
 909	9.0346e+01	3.8261	11.370593	0.000446	4.459514	1.510924	-0.000179
 910	9.0445e+01	3.7796	11.245442	0.000314	3.141930	1.064515	-0.000126
 911	9.0545e+01	3.7411	11.108179	0.000345	3.445988	1.167532	-0.000138
 912	9.0644e+01	3.6945	10.999176	0.000274	2.736520	0.927158	-0.000110
 913	9.0744e+01	3.6769	10.865951	0.000334	3.344635	1.133193	-0.000134
 914	9.0844e+01	3.6224	10.716577	0.000375	3.750046	1.270550	-0.000150
 915	9.0943e+01	3.5887	10.599500	0.000294	2.939225	0.995836	-0.000118
 916	9.1043e+01	3.5357	10.466274	0.000334	3.344635	1.133193	-0.000134
 917	9.1142e+01	3.5085	10.304789	0.000405	4.054103	1.373567	-0.000162
 918	9.1242e+01	3.4716	10.163489	0.000355	3.547340	1.201871	-0.000142
 919	9.1341e+01	3.4234	10.010078	0.000385	3.851398	1.304889	-0.000154
 920	9.1441e+01	3.3881	9.937410	0.000182	1.824346	0.618105	-0.000073
 921	9.1540e+01	3.3496	9.804184	0.000334	3.344635	1.133193	-0.000134
 922	9.1639e+01	3.3111	9.634624	0.000426	4.256808	1.442246	-0.000170
 923	9.1739e+01	3.2694	9.537733	0.000243	2.432462	0.824140	-0.000097
 924	9.1838e+01	3.2213	9.376248	0.000405	4.054103	1.373567	-0.000162
 925	9.1938e+01	3.1812	9.263208	0.000284	2.837872	0.961497	-0.000114
 926	9.2037e+01	3.1427	9.142094	0.000304	3.040577	1.030176	-0.000122
 927	9.2137e+01	3.0994	8.992720	0.000375	3.750046	1.270550	-0.000150
 928	9.2237e+01	3.0769	8.851420	0.000355	3.547340	1.201871	-0.000142
 929	9.2336e+01	3.0192	8.722232	0.000324	3.243283	1.098854	-0.000130
 930	9.2436e+01	2.9823	8.568821	0.000385	3.851398	1.304889	-0.000154
 931	9.2535e+01	2.9486	8.439632	0.000324	3.243283	1.098854	-0.000130
 932	9.2635e+01	2.8988	8.274110	0.000416	4.155456	1.407907	-0.000166
 933	9.2734e+01	2.8636	8.140884	0.000334	3.344635	1.133193	-0.000134
 934	9.2834e+01	2.8234	8.043993	0.000243	2.432462	0.824140	-0.000097
 935	9.2933e+01	2.7914	7.902693	0.000355	3.547340	1.201871	-0.000142
 936	9.3032e+01	2.7561	7.773505	0.000324	3.243283	1.098854	-0.000130
 937	9.3132e+01	2.6983	7.652391	0.000304	3.040577	1.030176	-0.000122
 938	9.3231e+01	2.6710	7.494942	0.000395	3.952751	1.339228	-0.000158
 939	9.3331e+01	2.6358	7.385940	0.000274	2.736520	0.927158	-0.000110
 940	9.3430e+01	2.5796	7.228492	0.000395	3.952751	1.339228	-0.000158
 941	9.3530e+01	2.5523	7.115452	0.000284	2.837872	0.961497	-0.000114
 942	9.3629e+01	2.5074	6.953966	0.000405	4.054103	1.373567	-0.000162
 943	9.3729e+01	2.4785	6.849001	0.000264	2.635167	0.892819	-0.000105
 944	9.3829e+01	2.4352	6.727887	0.000304	3.040577	1.030176	-0.000122
 945	9.3928e+01	2.3951	6.546216	0.000456	4.560866	1.545263	-0.000183
 946	9.4028e+01	2.3534	6.433176	0.000284	2.837872	0.961497	-0.000114
 947	9.4127e+01	2.3069	6.303987	0.000324	3.243283	1.098854	-0.000130
 948	9.4227e+01	2.2668	6.146539	0.000395	3.952751	1.339228	-0.000158
 949	9.4326e+01	2.2315	6.029462	0.000294	2.939225	0.995836	-0.000118
 950	9.4425e+01	2.1818	5.892200	0.000345	3.445988	1.167532	-0.000138
 951	9.4525e+01	2.1513	5.771086	0.000304	3.040577	1.030176	-0.000122
 952	9.4624e+01	2.1096	5.569229	0.000507	5.067629	1.716959	-0.000203
 953	9.4724e+01	2.0679	5.468300	0.000253	2.533815	0.858480	-0.000101
 954	9.4823e+01	2.0374	5.343149	0.000314	3.141930	1.064515	-0.000126
 955	9.4923e+01	1.9957	5.197812	0.000365	3.648693	1.236211	-0.000146
 956	9.5022e+01	1.9459	5.032290	0.000416	4.155456	1.407907	-0.000166
 957	9.5122e+01	1.9138	4.923287	0.000274	2.736520	0.927158	-0.000110
 958	9.5222e+01	1.8721	4.777950	0.000365	3.648693	1.236211	-0.000146
 959	9.5321e+01	1.8240	4.640688	0.000345	3.445988	1.167532	-0.000138
 960	9.5421e+01	1.7871	4.503425	0.000345	3.445988	1.167532	-0.000138
 961	9.5520e+01	1.7406	4.390385	0.000284	2.837872	0.961497	-0.000114
 962	9.5620e+01	1.7117	4.236974	0.000385	3.851398	1.304889	-0.000154
 963	9.5719e+01	1.6748	4.107786	0.000324	3.243283	1.098854	-0.000130
 964	9.5819e+01	1.6347	3.950337	0.000395	3.952751	1.339228	-0.000158
 965	9.5918e+01	1.5914	3.845372	0.000264	2.635167	0.892819	-0.000105
 966	9.6017e+01	1.5497	3.695998	0.000375	3.750046	1.270550	-0.000150
 967	9.6117e+01	1.5144	3.578921	0.000294	2.939225	0.995836	-0.000118
 968	9.6216e+01	1.4679	3.381101	0.000497	4.966277	1.682620	-0.000199
 969	9.6316e+01	1.4326	3.308433	0.000182	1.824346	0.618105	-0.000073
 970	9.6415e+01	1.3909	3.171170	0.000345	3.445988	1.167532	-0.000138
 971	9.6515e+01	1.3572	3.037945	0.000334	3.344635	1.133193	-0.000134
 972	9.6615e+01	1.3123	2.884533	0.000385	3.851398	1.304889	-0.000154
 973	9.6714e+01	1.2802	2.735159	0.000375	3.750046	1.270550	-0.000150
 974	9.6814e+01	1.2353	2.605971	0.000324	3.243283	1.098854	-0.000130
 975	9.6913e+01	1.1935	2.468709	0.000345	3.445988	1.167532	-0.000138
 976	9.7013e+01	1.1567	2.339520	0.000324	3.243283	1.098854	-0.000130
 977	9.7112e+01	1.1085	2.194183	0.000365	3.648693	1.236211	-0.000146
 978	9.7212e+01	1.0764	2.093255	0.000253	2.533815	0.858480	-0.000101
 979	9.7311e+01	1.0444	1.972141	0.000304	3.040577	1.030176	-0.000122
 980	9.7410e+01	0.9898	1.851027	0.000304	3.040577	1.030176	-0.000122
 981	9.7510e+01	0.9529	1.673393	0.000446	4.459514	1.510924	-0.000179
 982	9.7609e+01	0.9064	1.536130	0.000345	3.445988	1.167532	-0.000138
 983	9.7709e+01	0.8775	1.386756	0.000375	3.750046	1.270550	-0.000150
 984	9.7808e+01	0.8390	1.289865	0.000243	2.432462	0.824140	-0.000097
 985	9.7908e+01	0.7909	1.148565	0.000355	3.547340	1.201871	-0.000142
 986	9.8007e+01	0.7524	1.023414	0.000314	3.141930	1.064515	-0.000126
 987	9.8107e+01	0.7187	0.910374	0.000284	2.837872	0.961497	-0.000114
 988	9.8207e+01	0.6738	0.756963	0.000385	3.851398	1.304889	-0.000154
 989	9.8306e+01	0.6321	0.583366	0.000436	4.358161	1.476585	-0.000174
 990	9.8406e+01	0.5984	0.454178	0.000324	3.243283	1.098854	-0.000130
 991	9.8505e+01	0.5647	0.345175	0.000274	2.736520	0.927158	-0.000110
 992	9.8605e+01	0.5182	0.195801	0.000375	3.750046	1.270550	-0.000150
 993	9.8704e+01	0.4797	0.066613	0.000324	3.243283	1.098854	-0.000130
 994	9.8803e+01	0.4299	-0.086798	0.000385	3.851398	1.304889	-0.000154
 995	9.8903e+01	0.4027	-0.232135	0.000365	3.648693	1.236211	-0.000146
 996	9.9002e+01	0.3497	-0.353249	0.000304	3.040577	1.030176	-0.000122
 997	9.9102e+01	0.3176	-0.534920	0.000456	4.560866	1.545263	-0.000183
 998	9.9201e+01	0.2791	-0.595478	0.000152	1.520289	0.515088	-0.000061
 999	9.9301e+01	0.2406	-0.773111	0.000446	4.459514	1.510924	-0.000179
1000	9.9400e+01	0.1957	-0.898263	0.000314	3.141930	1.064515	-0.000126
1001	9.9500e+01	0.1524	-1.083971	0.000466	4.662219	1.579602	-0.000187
1002	9.9600e+01	0.1139	-1.156639	0.000182	1.824346	0.618105	-0.000073
1003	9.9699e+01	0.0850	-1.362533	0.000517	5.168982	1.751298	-0.000207
1004	9.9799e+01	0.0369	-1.471536	0.000274	2.736520	0.927158	-0.000110
1005	9.9898e+01	0.0032	-1.604761	0.000334	3.344635	1.133193	-0.000134
1006	9.9998e+01	-0.0305	-1.729913	0.000314	3.141930	1.064515	-0.000126
1007	1.0010e+02	-0.0642	-1.846990	0.000294	2.939225	0.995836	-0.000118
1008	1.0020e+02	-0.1123	-2.016549	0.000426	4.256808	1.442246	-0.000170
1009	1.0030e+02	-0.1572	-2.153812	0.000345	3.445988	1.167532	-0.000138
1010	1.0040e+02	-0.1973	-2.278963	0.000314	3.141930	1.064515	-0.000126
1011	1.0050e+02	-0.2262	-2.404114	0.000314	3.141930	1.064515	-0.000126
1012	1.0059e+02	-0.2743	-2.561563	0.000395	3.952751	1.339228	-0.000158
1013	1.0069e+02	-0.3160	-2.706900	0.000365	3.648693	1.236211	-0.000146
1014	1.0079e+02	-0.3561	-2.823976	0.000294	2.939225	0.995836	-0.000118
1015	1.0089e+02	-0.3882	-2.957202	0.000334	3.344635	1.133193	-0.000134
1016	1.0099e+02	-0.4315	-3.078316	0.000304	3.040577	1.030176	-0.000122
1017	1.0109e+02	-0.4749	-3.255950	0.000446	4.459514	1.510924	-0.000179
1018	1.0119e+02	-0.5150	-3.364953	0.000274	2.736520	0.927158	-0.000110
1019	1.0129e+02	-0.5422	-3.526438	0.000405	4.054103	1.373567	-0.000162
1020	1.0139e+02	-0.5904	-3.659664	0.000334	3.344635	1.133193	-0.000134
1021	1.0149e+02	-0.6321	-3.768666	0.000274	2.736520	0.927158	-0.000110
1022	1.0159e+02	-0.6674	-3.930152	0.000405	4.054103	1.373567	-0.000162
1023	1.0169e+02	-0.7123	-4.035117	0.000264	2.635167	0.892819	-0.000105
1024	1.0179e+02	-0.7476	-4.196603	0.000405	4.054103	1.373567	-0.000162
1025	1.0189e+02	-0.7845	-4.277345	0.000203	2.027052	0.686784	-0.000081
1026	1.0199e+02	-0.8294	-4.463054	0.000466	4.662219	1.579602	-0.000187
1027	1.0209e+02	-0.8663	-4.563982	0.000253	2.533815	0.858480	-0.000101
1028	1.0219e+02	-0.9064	-4.753727	0.000476	4.763571	1.613942	-0.000191
1029	1.0229e+02	-0.9529	-4.854656	0.000253	2.533815	0.858480	-0.000101
1030	1.0239e+02	-0.9866	-5.008067	0.000385	3.851398	1.304889	-0.000154
1031	1.0248e+02	-1.0251	-5.125144	0.000294	2.939225	0.995836	-0.000118
1032	1.0258e+02	-1.0636	-5.298741	0.000436	4.358161	1.476585	-0.000174
1033	1.0268e+02	-1.1165	-5.436003	0.000345	3.445988	1.167532	-0.000138
1034	1.0278e+02	-1.1518	-5.524820	0.000223	2.229757	0.755462	-0.000089
1035	1.0288e+02	-1.1855	-5.678231	0.000385	3.851398	1.304889	-0.000154
1036	1.0298e+02	-1.2304	-5.819531	0.000355	3.547340	1.201871	-0.000142
1037	1.0308e+02	-1.2754	-5.960831	0.000355	3.547340	1.201871	-0.000142
1038	1.0318e+02	-1.3219	-6.045611	0.000213	2.128404	0.721123	-0.000085
1039	1.0328e+02	-1.3556	-6.239393	0.000486	4.864924	1.648281	-0.000195
1040	1.0338e+02	-1.3909	-6.360507	0.000304	3.040577	1.030176	-0.000122
1041	1.0348e+02	-1.4326	-6.505844	0.000365	3.648693	1.236211	-0.000146
1042	1.0358e+02	-1.4615	-6.610810	0.000264	2.635167	0.892819	-0.000105
1043	1.0368e+02	-1.5160	-6.744035	0.000334	3.344635	1.133193	-0.000134
1044	1.0378e+02	-1.5481	-6.873224	0.000324	3.243283	1.098854	-0.000130
1045	1.0388e+02	-1.5914	-7.026635	0.000385	3.851398	1.304889	-0.000154
1046	1.0398e+02	-1.6299	-7.163897	0.000345	3.445988	1.167532	-0.000138
1047	1.0408e+02	-1.6700	-7.272900	0.000274	2.736520	0.927158	-0.000110
1048	1.0418e+02	-1.7069	-7.434385	0.000405	4.054103	1.373567	-0.000162
1049	1.0428e+02	-1.7454	-7.583759	0.000375	3.750046	1.270550	-0.000150
1050	1.0438e+02	-1.7903	-7.684688	0.000253	2.533815	0.858480	-0.000101
1051	1.0447e+02	-1.8320	-7.809839	0.000314	3.141930	1.064515	-0.000126
1052	1.0457e+02	-1.8689	-7.967287	0.000395	3.952751	1.339228	-0.000158
1053	1.0467e+02	-1.9058	-8.084364	0.000294	2.939225	0.995836	-0.000118
1054	1.0477e+02	-1.9524	-8.217590	0.000334	3.344635	1.133193	-0.000134
1055	1.0487e+02	-1.9812	-8.375038	0.000395	3.952751	1.339228	-0.000158
1056	1.0497e+02	-2.0229	-8.516338	0.000355	3.547340	1.201871	-0.000142
1057	1.0507e+02	-2.0679	-8.653600	0.000345	3.445988	1.167532	-0.000138
1058	1.0517e+02	-2.1048	-8.794900	0.000355	3.547340	1.201871	-0.000142
1059	1.0527e+02	-2.1449	-8.907940	0.000284	2.837872	0.961497	-0.000114
1060	1.0537e+02	-2.1802	-9.053277	0.000365	3.648693	1.236211	-0.000146
1061	1.0547e+02	-2.2283	-9.230911	0.000446	4.459514	1.510924	-0.000179
1062	1.0557e+02	-2.2732	-9.315691	0.000213	2.128404	0.721123	-0.000085
1063	1.0567e+02	-2.3021	-9.424693	0.000274	2.736520	0.927158	-0.000110
1064	1.0577e+02	-2.3486	-9.594253	0.000426	4.256808	1.442246	-0.000170
1065	1.0587e+02	-2.3871	-9.723441	0.000324	3.243283	1.098854	-0.000130
1066	1.0597e+02	-2.4304	-9.884927	0.000405	4.054103	1.373567	-0.000162
1067	1.0607e+02	-2.4609	-9.989892	0.000264	2.635167	0.892819	-0.000105
1068	1.0617e+02	-2.5026	-10.123118	0.000334	3.344635	1.133193	-0.000134
1069	1.0627e+02	-2.5411	-10.272492	0.000375	3.750046	1.270550	-0.000150
1070	1.0637e+02	-2.5908	-10.429940	0.000395	3.952751	1.339228	-0.000158
1071	1.0647e+02	-2.6261	-10.510683	0.000203	2.027052	0.686784	-0.000081
1072	1.0656e+02	-2.6550	-10.672168	0.000405	4.054103	1.373567	-0.000162
1073	1.0666e+02	-2.7063	-10.789245	0.000294	2.939225	0.995836	-0.000118
1074	1.0676e+02	-2.7400	-10.934582	0.000365	3.648693	1.236211	-0.000146
1075	1.0686e+02	-2.7849	-11.108179	0.000436	4.358161	1.476585	-0.000174
1076	1.0696e+02	-2.8267	-11.237367	0.000324	3.243283	1.098854	-0.000130
1077	1.0706e+02	-2.8652	-11.354444	0.000294	2.939225	0.995836	-0.000118
1078	1.0716e+02	-2.9037	-11.479595	0.000314	3.141930	1.064515	-0.000126
1079	1.0726e+02	-2.9486	-11.600710	0.000304	3.040577	1.030176	-0.000122
1080	1.0736e+02	-2.9823	-11.709712	0.000274	2.736520	0.927158	-0.000110
1081	1.0746e+02	-3.0208	-11.838901	0.000324	3.243283	1.098854	-0.000130
1082	1.0756e+02	-3.0625	-11.955977	0.000294	2.939225	0.995836	-0.000118
1083	1.0766e+02	-3.0994	-12.109389	0.000385	3.851398	1.304889	-0.000154
1084	1.0776e+02	-3.1395	-12.234540	0.000314	3.141930	1.064515	-0.000126
1085	1.0786e+02	-3.1876	-12.363728	0.000324	3.243283	1.098854	-0.000130
1086	1.0796e+02	-3.2181	-12.488879	0.000314	3.141930	1.064515	-0.000126
1087	1.0806e+02	-3.2630	-12.630179	0.000355	3.547340	1.201871	-0.000142
1088	1.0816e+02	-3.3111	-12.771479	0.000355	3.547340	1.201871	-0.000142
1089	1.0826e+02	-3.3400	-12.872407	0.000253	2.533815	0.858480	-0.000101
1090	1.0836e+02	-3.3817	-13.021781	0.000375	3.750046	1.270550	-0.000150
1091	1.0845e+02	-3.4282	-13.130784	0.000274	2.736520	0.927158	-0.000110
1092	1.0855e+02	-3.4571	-13.296307	0.000416	4.155456	1.407907	-0.000166
1093	1.0865e+02	-3.5036	-13.413383	0.000294	2.939225	0.995836	-0.000118
1094	1.0875e+02	-3.5341	-13.530460	0.000294	2.939225	0.995836	-0.000118
1095	1.0885e+02	-3.5710	-13.663686	0.000334	3.344635	1.133193	-0.000134
1096	1.0895e+02	-3.6143	-13.764614	0.000253	2.533815	0.858480	-0.000101
1097	1.0905e+02	-3.6528	-13.913988	0.000375	3.750046	1.270550	-0.000150
1098	1.0915e+02	-3.7026	-14.043177	0.000324	3.243283	1.098854	-0.000130
1099	1.0925e+02	-3.7427	-14.196588	0.000385	3.851398	1.304889	-0.000154
1100	1.0935e+02	-3.7844	-14.333850	0.000345	3.445988	1.167532	-0.000138
1101	1.0945e+02	-3.8213	-14.459002	0.000314	3.141930	1.064515	-0.000126
1102	1.0955e+02	-3.8598	-14.543781	0.000213	2.128404	0.721123	-0.000085
1103	1.0965e+02	-3.8951	-14.685081	0.000355	3.547340	1.201871	-0.000142
1104	1.0975e+02	-3.9432	-14.870789	0.000466	4.662219	1.579602	-0.000187
1105	1.0985e+02	-3.9817	-14.963644	0.000233	2.331109	0.789801	-0.000093
1106	1.0995e+02	-4.0170	-15.092832	0.000324	3.243283	1.098854	-0.000130
1107	1.1005e+02	-4.0635	-15.238169	0.000365	3.648693	1.236211	-0.000146
1108	1.1015e+02	-4.0956	-15.363320	0.000314	3.141930	1.064515	-0.000126
1109	1.1025e+02	-4.1421	-15.484434	0.000304	3.040577	1.030176	-0.000122
1110	1.1035e+02	-4.1806	-15.597474	0.000284	2.837872	0.961497	-0.000114
1111	1.1044e+02	-4.2239	-15.746848	0.000375	3.750046	1.270550	-0.000150
1112	1.1054e+02	-4.2608	-15.900259	0.000385	3.851398	1.304889	-0.000154
1113	1.1064e+02	-4.2945	-16.001187	0.000253	2.533815	0.858480	-0.000101
1114	1.1074e+02	-4.3394	-16.162673	0.000405	4.054103	1.373567	-0.000162
1115	1.1084e+02	-4.3812	-16.219193	0.000142	1.418936	0.480749	-0.000057
1116	1.1094e+02	-4.4084	-16.421050	0.000507	5.067629	1.716959	-0.000203
1117	1.1104e+02	-4.4501	-16.538127	0.000294	2.939225	0.995836	-0.000118
1118	1.1114e+02	-4.4983	-16.667315	0.000324	3.243283	1.098854	-0.000130
1119	1.1124e+02	-4.5368	-16.792466	0.000314	3.141930	1.064515	-0.000126
1120	1.1134e+02	-4.5801	-16.877246	0.000213	2.128404	0.721123	-0.000085
1121	1.1144e+02	-4.6218	-17.026620	0.000375	3.750046	1.270550	-0.000150
1122	1.1154e+02	-4.6603	-17.163883	0.000345	3.445988	1.167532	-0.000138
1123	1.1164e+02	-4.7052	-17.317294	0.000385	3.851398	1.304889	-0.000154
1124	1.1174e+02	-4.7261	-17.430334	0.000284	2.837872	0.961497	-0.000114
1125	1.1184e+02	-4.7838	-17.547410	0.000294	2.939225	0.995836	-0.000118
1126	1.1194e+02	-4.8255	-17.692747	0.000365	3.648693	1.236211	-0.000146
1127	1.1204e+02	-4.8560	-17.797713	0.000264	2.635167	0.892819	-0.000105
1128	1.1214e+02	-4.8897	-17.930938	0.000334	3.344635	1.133193	-0.000134
1129	1.1224e+02	-4.9266	-18.072238	0.000355	3.547340	1.201871	-0.000142
1130	1.1234e+02	-4.9779	-18.209501	0.000345	3.445988	1.167532	-0.000138
1131	1.1244e+02	-5.0148	-18.358875	0.000375	3.750046	1.270550	-0.000150
1132	1.1253e+02	-5.0485	-18.471915	0.000284	2.837872	0.961497	-0.000114
1133	1.1263e+02	-5.0999	-18.588992	0.000294	2.939225	0.995836	-0.000118
1134	1.1273e+02	-5.1271	-18.702031	0.000284	2.837872	0.961497	-0.000114
1135	1.1283e+02	-5.1737	-18.827183	0.000314	3.141930	1.064515	-0.000126
1136	1.1293e+02	-5.2154	-19.000779	0.000436	4.358161	1.476585	-0.000174
1137	1.1303e+02	-5.2571	-19.129968	0.000324	3.243283	1.098854	-0.000130
1138	1.1313e+02	-5.2908	-19.279342	0.000375	3.750046	1.270550	-0.000150
1139	1.1323e+02	-5.3405	-19.376233	0.000243	2.432462	0.824140	-0.000097
1140	1.1333e+02	-5.3662	-19.517533	0.000355	3.547340	1.201871	-0.000142
1141	1.1343e+02	-5.4175	-19.578090	0.000152	1.520289	0.515088	-0.000061
1142	1.1353e+02	-5.4496	-19.755724	0.000446	4.459514	1.510924	-0.000179
1143	1.1363e+02	-5.4881	-19.888949	0.000334	3.344635	1.133193	-0.000134
1144	1.1373e+02	-5.5394	-19.977766	0.000223	2.229757	0.755462	-0.000089
1145	1.1383e+02	-5.5715	-20.135214	0.000395	3.952751	1.339228	-0.000158
1146	1.1393e+02	-5.6164	-20.256329	0.000304	3.040577	1.030176	-0.000122
1147	1.1403e+02	-5.6533	-20.337071	0.000203	2.027052	0.686784	-0.000081
1148	1.1413e+02	-5.6966	-20.494520	0.000395	3.952751	1.339228	-0.000158
1149	1.1423e+02	-5.7335	-20.615634	0.000304	3.040577	1.030176	-0.000122
1150	1.1433e+02	-5.7752	-20.752896	0.000345	3.445988	1.167532	-0.000138
1151	1.1442e+02	-5.8153	-20.882085	0.000324	3.243283	1.098854	-0.000130
1152	1.1452e+02	-5.8506	-20.995124	0.000284	2.837872	0.961497	-0.000114
1153	1.1462e+02	-5.8956	-21.116238	0.000304	3.040577	1.030176	-0.000122
1154	1.1472e+02	-5.9292	-21.253501	0.000345	3.445988	1.167532	-0.000138
1155	1.1482e+02	-5.9742	-21.382689	0.000324	3.243283	1.098854	-0.000130
1156	1.1492e+02	-6.0079	-21.515915	0.000334	3.344635	1.133193	-0.000134
1157	1.1502e+02	-6.0512	-21.641066	0.000314	3.141930	1.064515	-0.000126
1158	1.1512e+02	-6.0977	-21.758143	0.000294	2.939225	0.995836	-0.000118
1159	1.1522e+02	-6.1330	-21.842923	0.000213	2.128404	0.721123	-0.000085
1160	1.1532e+02	-6.1651	-22.024594	0.000456	4.560866	1.545263	-0.000183
1161	1.1542e+02	-6.2116	-22.157819	0.000334	3.344635	1.133193	-0.000134
1162	1.1552e+02	-6.2549	-22.274896	0.000294	2.939225	0.995836	-0.000118
1163	1.1562e+02	-6.2934	-22.440419	0.000416	4.155456	1.407907	-0.000166
1164	1.1572e+02	-6.3303	-22.541347	0.000253	2.533815	0.858480	-0.000101
1165	1.1582e+02	-6.3865	-22.658424	0.000294	2.939225	0.995836	-0.000118
1166	1.1592e+02	-6.4153	-22.807798	0.000375	3.750046	1.270550	-0.000150
1167	1.1602e+02	-6.4522	-22.936987	0.000324	3.243283	1.098854	-0.000130
1168	1.1612e+02	-6.4907	-23.058101	0.000304	3.040577	1.030176	-0.000122
1169	1.1622e+02	-6.5276	-23.179215	0.000304	3.040577	1.030176	-0.000122
1170	1.1632e+02	-6.5597	-23.263995	0.000213	2.128404	0.721123	-0.000085
1171	1.1642e+02	-6.6078	-23.453740	0.000476	4.763571	1.613942	-0.000191
1172	1.1651e+02	-6.6463	-23.562743	0.000274	2.736520	0.927158	-0.000110
1173	1.1661e+02	-6.6832	-23.695968	0.000334	3.344635	1.133193	-0.000134
1174	1.1671e+02	-6.7298	-23.813045	0.000294	2.939225	0.995836	-0.000118
1175	1.1681e+02	-6.7618	-23.930122	0.000294	2.939225	0.995836	-0.000118
1176	1.1691e+02	-6.8036	-24.063348	0.000334	3.344635	1.133193	-0.000134
1177	1.1701e+02	-6.8356	-24.196573	0.000334	3.344635	1.133193	-0.000134
1178	1.1711e+02	-6.8790	-24.345947	0.000375	3.750046	1.270550	-0.000150
1179	1.1721e+02	-6.9303	-24.467061	0.000304	3.040577	1.030176	-0.000122
1180	1.1731e+02	-6.9720	-24.620472	0.000385	3.851398	1.304889	-0.000154
1181	1.1741e+02	-7.0009	-24.713326	0.000233	2.331109	0.789801	-0.000093
1182	1.1751e+02	-7.0426	-24.850589	0.000345	3.445988	1.167532	-0.000138
1183	1.1761e+02	-7.0891	-24.971703	0.000304	3.040577	1.030176	-0.000122
1184	1.1771e+02	-7.1180	-25.080706	0.000274	2.736520	0.927158	-0.000110
1185	1.1781e+02	-7.1661	-25.238154	0.000395	3.952751	1.339228	-0.000158
1186	1.1791e+02	-7.2046	-25.371380	0.000334	3.344635	1.133193	-0.000134
1187	1.1801e+02	-7.2399	-25.440011	0.000172	1.722994	0.583766	-0.000069
1188	1.1811e+02	-7.2880	-25.565162	0.000314	3.141930	1.064515	-0.000126
1189	1.1821e+02	-7.3217	-25.710499	0.000365	3.648693	1.236211	-0.000146
1190	1.1831e+02	-7.3666	-25.827576	0.000294	2.939225	0.995836	-0.000118
1191	1.1841e+02	-7.3987	-25.948690	0.000304	3.040577	1.030176	-0.000122
1192	1.1850e+02	-7.4436	-26.081915	0.000334	3.344635	1.133193	-0.000134
1193	1.1860e+02	-7.4837	-26.182844	0.000253	2.533815	0.858480	-0.000101
1194	1.1870e+02	-7.5255	-26.348366	0.000416	4.155456	1.407907	-0.000166
1195	1.1880e+02	-7.5591	-26.449295	0.000253	2.533815	0.858480	-0.000101
1196	1.1890e+02	-7.6105	-26.578483	0.000324	3.243283	1.098854	-0.000130
1197	1.1900e+02	-7.6506	-26.699597	0.000304	3.040577	1.030176	-0.000122
1198	1.1910e+02	-7.6843	-26.857045	0.000395	3.952751	1.339228	-0.000158
1199	1.1920e+02	-7.7340	-26.953937	0.000243	2.432462	0.824140	-0.000097
1200	1.1930e+02	-7.7629	-27.079088	0.000314	3.141930	1.064515	-0.000126
1201	1.1940e+02	-7.7902	-27.232499	0.000385	3.851398	1.304889	-0.000154
1202	1.1950e+02	-7.8383	-27.321316	0.000223	2.229757	0.755462	-0.000089
1203	1.1960e+02	-7.8912	-27.434356	0.000284	2.837872	0.961497	-0.000114
1204	1.1970e+02	-7.9185	-27.543359	0.000274	2.736520	0.927158	-0.000110
1205	1.1980e+02	-7.9650	-27.700807	0.000395	3.952751	1.339228	-0.000158
1206	1.1990e+02	-8.0035	-27.842107	0.000355	3.547340	1.201871	-0.000142
1207	1.2000e+02	-8.0404	-27.963221	0.000304	3.040577	1.030176	-0.000122
1208	1.2010e+02	-8.0853	-28.056075	0.000233	2.331109	0.789801	-0.000093
1209	1.2020e+02	-8.1126	-28.205449	0.000375	3.750046	1.270550	-0.000150
1210	1.2030e+02	-8.1671	-28.306377	0.000253	2.533815	0.858480	-0.000101
1211	1.2039e+02	-8.2024	-28.435566	0.000324	3.243283	1.098854	-0.000130
1212	1.2049e+02	-8.2361	-28.568791	0.000334	3.344635	1.133193	-0.000134
1213	1.2059e+02	-8.2762	-28.669719	0.000253	2.533815	0.858480	-0.000101
1214	1.2069e+02	-8.3179	-28.851391	0.000456	4.560866	1.545263	-0.000183
1215	1.2079e+02	-8.3677	-28.944245	0.000233	2.331109	0.789801	-0.000093
1216	1.2089e+02	-8.4046	-29.049210	0.000264	2.635167	0.892819	-0.000105
1217	1.2099e+02	-8.4415	-29.206658	0.000395	3.952751	1.339228	-0.000158
1218	1.2109e+02	-8.4784	-29.287401	0.000203	2.027052	0.686784	-0.000081
1219	1.2119e+02	-8.5169	-29.408515	0.000304	3.040577	1.030176	-0.000122
1220	1.2129e+02	-8.5634	-29.537704	0.000324	3.243283	1.098854	-0.000130
1221	1.2139e+02	-8.5971	-29.658818	0.000304	3.040577	1.030176	-0.000122
1222	1.2149e+02	-8.6340	-29.763783	0.000264	2.635167	0.892819	-0.000105
1223	1.2159e+02	-8.6869	-29.901046	0.000345	3.445988	1.167532	-0.000138
1224	1.2169e+02	-8.7206	-30.030234	0.000324	3.243283	1.098854	-0.000130
1225	1.2179e+02	-8.7607	-30.143274	0.000284	2.837872	0.961497	-0.000114
1226	1.2189e+02	-8.7944	-30.276499	0.000334	3.344635	1.133193	-0.000134
1227	1.2199e+02	-8.8409	-30.421836	0.000365	3.648693	1.236211	-0.000146
1228	1.2209e+02	-8.8778	-30.506616	0.000213	2.128404	0.721123	-0.000085
1229	1.2219e+02	-8.9195	-30.631767	0.000314	3.141930	1.064515	-0.000126
1230	1.2229e+02	-8.9532	-30.777104	0.000365	3.648693	1.236211	-0.000146
1231	1.2239e+02	-9.0046	-30.898218	0.000304	3.040577	1.030176	-0.000122
1232	1.2248e+02	-9.0334	-31.011258	0.000284	2.837872	0.961497	-0.000114
1233	1.2258e+02	-9.0800	-31.128335	0.000294	2.939225	0.995836	-0.000118
1234	1.2268e+02	-9.1153	-31.213115	0.000213	2.128404	0.721123	-0.000085
1235	1.2278e+02	-9.1618	-31.346340	0.000334	3.344635	1.133193	-0.000134
1236	1.2288e+02	-9.1923	-31.532049	0.000466	4.662219	1.579602	-0.000187
1237	1.2298e+02	-9.2452	-31.641051	0.000274	2.736520	0.927158	-0.000110
1238	1.2308e+02	-9.2741	-31.766203	0.000314	3.141930	1.064515	-0.000126
1239	1.2318e+02	-9.3190	-31.871168	0.000264	2.635167	0.892819	-0.000105
1240	1.2328e+02	-9.3607	-32.040728	0.000426	4.256808	1.442246	-0.000170
1241	1.2338e+02	-9.3944	-32.141656	0.000253	2.533815	0.858480	-0.000101
1242	1.2348e+02	-9.4441	-32.262770	0.000304	3.040577	1.030176	-0.000122
1243	1.2358e+02	-9.4858	-32.359662	0.000243	2.432462	0.824140	-0.000097
1244	1.2368e+02	-9.5163	-32.488850	0.000324	3.243283	1.098854	-0.000130
1245	1.2378e+02	-9.5612	-32.618038	0.000324	3.243283	1.098854	-0.000130
1246	1.2388e+02	-9.6045	-32.686670	0.000172	1.722994	0.583766	-0.000069
1247	1.2398e+02	-9.6318	-32.811821	0.000314	3.141930	1.064515	-0.000126
1248	1.2408e+02	-9.6719	-32.953120	0.000355	3.547340	1.201871	-0.000142
1249	1.2418e+02	-9.7200	-33.066160	0.000284	2.837872	0.961497	-0.000114
1250	1.2428e+02	-9.7585	-33.211497	0.000365	3.648693	1.236211	-0.000146
1251	1.2438e+02	-9.7890	-33.300314	0.000223	2.229757	0.755462	-0.000089
1252	1.2447e+02	-9.8436	-33.421428	0.000304	3.040577	1.030176	-0.000122
1253	1.2457e+02	-9.8644	-33.530431	0.000274	2.736520	0.927158	-0.000110
1254	1.2467e+02	-9.9158	-33.623285	0.000233	2.331109	0.789801	-0.000093
1255	1.2477e+02	-9.9559	-33.756510	0.000334	3.344635	1.133193	-0.000134
1256	1.2487e+02	-9.9992	-33.897810	0.000355	3.547340	1.201871	-0.000142
1257	1.2497e+02	-10.0409	-33.998739	0.000253	2.533815	0.858480	-0.000101
1258	1.2507e+02	-10.0762	-34.127927	0.000324	3.243283	1.098854	-0.000130
1259	1.2517e+02	-10.1083	-34.240967	0.000284	2.837872	0.961497	-0.000114
1260	1.2527e+02	-10.1612	-34.374192	0.000334	3.344635	1.133193	-0.000134
1261	1.2537e+02	-10.1917	-34.483195	0.000274	2.736520	0.927158	-0.000110
1262	1.2547e+02	-10.2286	-34.612383	0.000324	3.243283	1.098854	-0.000130
1263	1.2557e+02	-10.2799	-34.717349	0.000264	2.635167	0.892819	-0.000105
1264	1.2567e+02	-10.3136	-34.830389	0.000284	2.837872	0.961497	-0.000114
1265	1.2577e+02	-10.3585	-34.931317	0.000253	2.533815	0.858480	-0.000101
1266	1.2587e+02	-10.3938	-35.024171	0.000233	2.331109	0.789801	-0.000093
1267	1.2597e+02	-10.4355	-35.157397	0.000334	3.344635	1.133193	-0.000134
1268	1.2607e+02	-10.4837	-35.246214	0.000223	2.229757	0.755462	-0.000089
1269	1.2617e+02	-10.5029	-35.452107	0.000517	5.168982	1.751298	-0.000207
1270	1.2627e+02	-10.5494	-35.536887	0.000213	2.128404	0.721123	-0.000085
1271	1.2636e+02	-10.5976	-35.649927	0.000284	2.837872	0.961497	-0.000114
1272	1.2646e+02	-10.6361	-35.811413	0.000405	4.054103	1.373567	-0.000162
1273	1.2656e+02	-10.6681	-35.884081	0.000182	1.824346	0.618105	-0.000073
1274	1.2666e+02	-10.7050	-36.029418	0.000365	3.648693	1.236211	-0.000146
1275	1.2676e+02	-10.7500	-36.102086	0.000182	1.824346	0.618105	-0.000073
1276	1.2686e+02	-10.7885	-36.239349	0.000345	3.445988	1.167532	-0.000138
1277	1.2696e+02	-10.8238	-36.364500	0.000314	3.141930	1.064515	-0.000126
1278	1.2706e+02	-10.8671	-36.485614	0.000304	3.040577	1.030176	-0.000122
1279	1.2716e+02	-10.9120	-36.622877	0.000345	3.445988	1.167532	-0.000138
1280	1.2726e+02	-10.9585	-36.711694	0.000223	2.229757	0.755462	-0.000089
1281	1.2736e+02	-10.9938	-36.804548	0.000233	2.331109	0.789801	-0.000093
1282	1.2746e+02	-11.0307	-36.941811	0.000345	3.445988	1.167532	-0.000138
1283	1.2756e+02	-11.0692	-37.058888	0.000294	2.939225	0.995836	-0.000118
1284	1.2766e+02	-11.1109	-37.204224	0.000365	3.648693	1.236211	-0.000146
1285	1.2776e+02	-11.1510	-37.313227	0.000274	2.736520	0.927158	-0.000110
1286	1.2786e+02	-11.1911	-37.426267	0.000284	2.837872	0.961497	-0.000114
1287	1.2796e+02	-11.2264	-37.543344	0.000294	2.939225	0.995836	-0.000118
1288	1.2806e+02	-11.2729	-37.656384	0.000284	2.837872	0.961497	-0.000114
1289	1.2816e+02	-11.3147	-37.789609	0.000334	3.344635	1.133193	-0.000134
1290	1.2826e+02	-11.3483	-37.854203	0.000162	1.621641	0.549427	-0.000065
1291	1.2835e+02	-11.3868	-38.015689	0.000405	4.054103	1.373567	-0.000162
1292	1.2845e+02	-11.4253	-38.092394	0.000193	1.925699	0.652445	-0.000077
1293	1.2855e+02	-11.4687	-38.205434	0.000284	2.837872	0.961497	-0.000114
1294	1.2865e+02	-11.5023	-38.354808	0.000375	3.750046	1.270550	-0.000150
1295	1.2875e+02	-11.5489	-38.447662	0.000233	2.331109	0.789801	-0.000093
1296	1.2885e+02	-11.5858	-38.564739	0.000294	2.939225	0.995836	-0.000118
1297	1.2895e+02	-11.6243	-38.706039	0.000355	3.547340	1.201871	-0.000142
1298	1.2905e+02	-11.6612	-38.786782	0.000203	2.027052	0.686784	-0.000081
1299	1.2915e+02	-11.7109	-38.915970	0.000324	3.243283	1.098854	-0.000130
1300	1.2925e+02	-11.7430	-39.024973	0.000274	2.736520	0.927158	-0.000110
1301	1.2935e+02	-11.7767	-39.150124	0.000314	3.141930	1.064515	-0.000126
1302	1.2945e+02	-11.8136	-39.271238	0.000304	3.040577	1.030176	-0.000122
1303	1.2955e+02	-11.8649	-39.388315	0.000294	2.939225	0.995836	-0.000118
1304	1.2965e+02	-11.9114	-39.497317	0.000274	2.736520	0.927158	-0.000110
1305	1.2975e+02	-11.9499	-39.642654	0.000365	3.648693	1.236211	-0.000146
1306	1.2985e+02	-11.9804	-39.719360	0.000193	1.925699	0.652445	-0.000077
1307	1.2995e+02	-12.0221	-39.868734	0.000375	3.750046	1.270550	-0.000150
1308	1.3005e+02	-12.0670	-39.953514	0.000213	2.128404	0.721123	-0.000085
1309	1.3015e+02	-12.1087	-40.110962	0.000395	3.952751	1.339228	-0.000158
1310	1.3025e+02	-12.1424	-40.187668	0.000193	1.925699	0.652445	-0.000077
1311	1.3034e+02	-12.1825	-40.312819	0.000314	3.141930	1.064515	-0.000126
1312	1.3044e+02	-12.2243	-40.417784	0.000264	2.635167	0.892819	-0.000105
1313	1.3054e+02	-12.2676	-40.522750	0.000264	2.635167	0.892819	-0.000105
1314	1.3064e+02	-12.2964	-40.603493	0.000203	2.027052	0.686784	-0.000081
1315	1.3074e+02	-12.3494	-40.752867	0.000375	3.750046	1.270550	-0.000150
1316	1.3084e+02	-12.3847	-40.922426	0.000426	4.256808	1.442246	-0.000170
1317	1.3094e+02	-12.4296	-41.011243	0.000223	2.229757	0.755462	-0.000089
1318	1.3104e+02	-12.4681	-41.091986	0.000203	2.027052	0.686784	-0.000081
1319	1.3114e+02	-12.5018	-41.205026	0.000284	2.837872	0.961497	-0.000114
1320	1.3124e+02	-12.5435	-41.289806	0.000213	2.128404	0.721123	-0.000085
1321	1.3134e+02	-12.5884	-41.443217	0.000385	3.851398	1.304889	-0.000154
1322	1.3144e+02	-12.6237	-41.556257	0.000284	2.837872	0.961497	-0.000114
1323	1.3154e+02	-12.6622	-41.669297	0.000284	2.837872	0.961497	-0.000114
1324	1.3164e+02	-12.6991	-41.770225	0.000253	2.533815	0.858480	-0.000101
1325	1.3174e+02	-12.7424	-41.863079	0.000233	2.331109	0.789801	-0.000093
1326	1.3184e+02	-12.7841	-41.972082	0.000274	2.736520	0.927158	-0.000110
1327	1.3194e+02	-12.8146	-42.121456	0.000375	3.750046	1.270550	-0.000150
1328	1.3204e+02	-12.8627	-42.246607	0.000314	3.141930	1.064515	-0.000126
1329	1.3214e+02	-12.9028	-42.347535	0.000253	2.533815	0.858480	-0.000101
1330	1.3224e+02	-12.9365	-42.416167	0.000172	1.722994	0.583766	-0.000069
1331	1.3234e+02	-12.9766	-42.585726	0.000426	4.256808	1.442246	-0.000170
1332	1.3243e+02	-13.0232	-42.714915	0.000324	3.243283	1.098854	-0.000130
1333	1.3253e+02	-13.0665	-42.787583	0.000182	1.824346	0.618105	-0.000073
1334	1.3263e+02	-13.1018	-42.932920	0.000365	3.648693	1.236211	-0.000146
1335	1.3273e+02	-13.1403	-43.021737	0.000223	2.229757	0.755462	-0.000089
1336	1.3283e+02	-13.1756	-43.126703	0.000264	2.635167	0.892819	-0.000105
1337	1.3293e+02	-13.2173	-43.284151	0.000395	3.952751	1.339228	-0.000158
1338	1.3303e+02	-13.2622	-43.445636	0.000405	4.054103	1.373567	-0.000162
1339	1.3313e+02	-13.3055	-43.522342	0.000193	1.925699	0.652445	-0.000077
1340	1.3323e+02	-13.3328	-43.631344	0.000274	2.736520	0.927158	-0.000110
1341	1.3333e+02	-13.3761	-43.736310	0.000264	2.635167	0.892819	-0.000105
1342	1.3343e+02	-13.4274	-43.849350	0.000284	2.837872	0.961497	-0.000114
1343	1.3353e+02	-13.4611	-43.966427	0.000294	2.939225	0.995836	-0.000118
1344	1.3363e+02	-13.5012	-44.079467	0.000284	2.837872	0.961497	-0.000114
1345	1.3373e+02	-13.5381	-44.228841	0.000375	3.750046	1.270550	-0.000150
1346	1.3383e+02	-13.5718	-44.313620	0.000213	2.128404	0.721123	-0.000085
1347	1.3393e+02	-13.6199	-44.426660	0.000284	2.837872	0.961497	-0.000114
1348	1.3403e+02	-13.6552	-44.571997	0.000365	3.648693	1.236211	-0.000146
1349	1.3413e+02	-13.7018	-44.644666	0.000182	1.824346	0.618105	-0.000073
1350	1.3423e+02	-13.7338	-44.749631	0.000264	2.635167	0.892819	-0.000105
1351	1.3432e+02	-13.7772	-44.890931	0.000355	3.547340	1.201871	-0.000142
1352	1.3442e+02	-13.8237	-44.999934	0.000274	2.736520	0.927158	-0.000110
1353	1.3452e+02	-13.8493	-45.125085	0.000314	3.141930	1.064515	-0.000126
1354	1.3462e+02	-13.9007	-45.234087	0.000274	2.736520	0.927158	-0.000110
1355	1.3472e+02	-13.9424	-45.347127	0.000284	2.837872	0.961497	-0.000114
1356	1.3482e+02	-13.9777	-45.488427	0.000355	3.547340	1.201871	-0.000142
1357	1.3492e+02	-14.0162	-45.569170	0.000203	2.027052	0.686784	-0.000081
1358	1.3502e+02	-14.0531	-45.674135	0.000264	2.635167	0.892819	-0.000105
1359	1.3512e+02	-14.0948	-45.831583	0.000395	3.952751	1.339228	-0.000158
1360	1.3522e+02	-14.1317	-45.896178	0.000162	1.621641	0.549427	-0.000065
1361	1.3532e+02	-14.1734	-46.021329	0.000314	3.141930	1.064515	-0.000126
1362	1.3542e+02	-14.2135	-46.146480	0.000314	3.141930	1.064515	-0.000126
1363	1.3552e+02	-14.2600	-46.227223	0.000203	2.027052	0.686784	-0.000081
1364	1.3562e+02	-14.3017	-46.364485	0.000345	3.445988	1.167532	-0.000138
1365	1.3572e+02	-14.3370	-46.513859	0.000375	3.750046	1.270550	-0.000150
1366	1.3582e+02	-14.3755	-46.618825	0.000264	2.635167	0.892819	-0.000105
1367	1.3592e+02	-14.4140	-46.739939	0.000304	3.040577	1.030176	-0.000122
1368	1.3602e+02	-14.4557	-46.816645	0.000193	1.925699	0.652445	-0.000077
1369	1.3612e+02	-14.4958	-46.921610	0.000264	2.635167	0.892819	-0.000105
1370	1.3622e+02	-14.5343	-47.062910	0.000355	3.547340	1.201871	-0.000142
1371	1.3631e+02	-14.5857	-47.135578	0.000182	1.824346	0.618105	-0.000073
1372	1.3641e+02	-14.6194	-47.260730	0.000314	3.141930	1.064515	-0.000126
1373	1.3651e+02	-14.6531	-47.385881	0.000314	3.141930	1.064515	-0.000126
1374	1.3661e+02	-14.6980	-47.462586	0.000193	1.925699	0.652445	-0.000077
1375	1.3671e+02	-14.7301	-47.595812	0.000334	3.344635	1.133193	-0.000134
1376	1.3681e+02	-14.7766	-47.725000	0.000324	3.243283	1.098854	-0.000130
1377	1.3691e+02	-14.8023	-47.821891	0.000243	2.432462	0.824140	-0.000097
1378	1.3701e+02	-14.8568	-47.926857	0.000264	2.635167	0.892819	-0.000105
1379	1.3711e+02	-14.8953	-48.080268	0.000385	3.851398	1.304889	-0.000154
1380	1.3721e+02	-14.9306	-48.136788	0.000142	1.418936	0.480749	-0.000057
1381	1.3731e+02	-14.9691	-48.257902	0.000304	3.040577	1.030176	-0.000122
1382	1.3741e+02	-15.0188	-48.362868	0.000264	2.635167	0.892819	-0.000105
1383	1.3751e+02	-15.0461	-48.524353	0.000405	4.054103	1.373567	-0.000162
1384	1.3761e+02	-15.0894	-48.645467	0.000304	3.040577	1.030176	-0.000122
1385	1.3771e+02	-15.1359	-48.730247	0.000213	2.128404	0.721123	-0.000085
1386	1.3781e+02	-15.1744	-48.831175	0.000253	2.533815	0.858480	-0.000101
1387	1.3791e+02	-15.2242	-48.895769	0.000162	1.621641	0.549427	-0.000065
1388	1.3801e+02	-15.2482	-49.077441	0.000456	4.560866	1.545263	-0.000183
1389	1.3811e+02	-15.2899	-49.178369	0.000253	2.533815	0.858480	-0.000101
1390	1.3821e+02	-15.3333	-49.251037	0.000182	1.824346	0.618105	-0.000073
1391	1.3831e+02	-15.3766	-49.412523	0.000405	4.054103	1.373567	-0.000162
1392	1.3840e+02	-15.4119	-49.501340	0.000223	2.229757	0.755462	-0.000089
1393	1.3850e+02	-15.4488	-49.594194	0.000233	2.331109	0.789801	-0.000093
1394	1.3860e+02	-15.4776	-49.715308	0.000304	3.040577	1.030176	-0.000122
1395	1.3870e+02	-15.5322	-49.860645	0.000365	3.648693	1.236211	-0.000146
1396	1.3880e+02	-15.5739	-49.953499	0.000233	2.331109	0.789801	-0.000093
1397	1.3890e+02	-15.6108	-50.090762	0.000345	3.445988	1.167532	-0.000138
1398	1.3900e+02	-15.6445	-50.191690	0.000253	2.533815	0.858480	-0.000101
1399	1.3910e+02	-15.7006	-50.304730	0.000284	2.837872	0.961497	-0.000114
1400	1.3920e+02	-15.7343	-50.429881	0.000314	3.141930	1.064515	-0.000126
1401	1.3930e+02	-15.7744	-50.482364	0.000132	1.317584	0.446409	-0.000053
1402	1.3940e+02	-15.8097	-50.647886	0.000416	4.155456	1.407907	-0.000166
1403	1.3950e+02	-15.8530	-50.744778	0.000243	2.432462	0.824140	-0.000097
1404	1.3960e+02	-15.8851	-50.821483	0.000193	1.925699	0.652445	-0.000077
1405	1.3970e+02	-15.9332	-50.991043	0.000426	4.256808	1.442246	-0.000170
1406	1.3980e+02	-15.9637	-51.071786	0.000203	2.027052	0.686784	-0.000081
1407	1.3990e+02	-16.0135	-51.192900	0.000304	3.040577	1.030176	-0.000122
1408	1.4000e+02	-16.0568	-51.322088	0.000324	3.243283	1.098854	-0.000130
1409	1.4010e+02	-16.0872	-51.423016	0.000253	2.533815	0.858480	-0.000101
1410	1.4020e+02	-16.1257	-51.523945	0.000253	2.533815	0.858480	-0.000101
1411	1.4029e+02	-16.1755	-51.681393	0.000395	3.952751	1.339228	-0.000158
1412	1.4039e+02	-16.2124	-51.754062	0.000182	1.824346	0.618105	-0.000073
1413	1.4049e+02	-16.2493	-51.818656	0.000162	1.621641	0.549427	-0.000065
1414	1.4059e+02	-16.2814	-51.939770	0.000304	3.040577	1.030176	-0.000122
1415	1.4069e+02	-16.3263	-52.064921	0.000314	3.141930	1.064515	-0.000126
1416	1.4079e+02	-16.3696	-52.186035	0.000304	3.040577	1.030176	-0.000122
1417	1.4089e+02	-16.3969	-52.274852	0.000223	2.229757	0.755462	-0.000089
1418	1.4099e+02	-16.4434	-52.355595	0.000203	2.027052	0.686784	-0.000081
1419	1.4109e+02	-16.4883	-52.504969	0.000375	3.750046	1.270550	-0.000150
1420	1.4119e+02	-16.5332	-52.585712	0.000203	2.027052	0.686784	-0.000081
1421	1.4129e+02	-16.5653	-52.690677	0.000264	2.635167	0.892819	-0.000105
1422	1.4139e+02	-16.6054	-52.819865	0.000324	3.243283	1.098854	-0.000130
1423	1.4149e+02	-16.6455	-52.876385	0.000142	1.418936	0.480749	-0.000057
1424	1.4159e+02	-16.6840	-53.001537	0.000314	3.141930	1.064515	-0.000126
1425	1.4169e+02	-16.7241	-53.134762	0.000334	3.344635	1.133193	-0.000134
1426	1.4179e+02	-16.7626	-53.207430	0.000182	1.824346	0.618105	-0.000073
1427	1.4189e+02	-16.8059	-53.381027	0.000436	4.358161	1.476585	-0.000174
1428	1.4199e+02	-16.8396	-53.405250	0.000061	0.608115	0.206035	-0.000024
1429	1.4209e+02	-16.8797	-53.522327	0.000294	2.939225	0.995836	-0.000118
1430	1.4219e+02	-16.9231	-53.655553	0.000334	3.344635	1.133193	-0.000134
1431	1.4228e+02	-16.9648	-53.760518	0.000264	2.635167	0.892819	-0.000105
1432	1.4238e+02	-17.0065	-53.889706	0.000324	3.243283	1.098854	-0.000130
1433	1.4248e+02	-17.0353	-53.978523	0.000223	2.229757	0.755462	-0.000089
1434	1.4258e+02	-17.0835	-54.087526	0.000274	2.736520	0.927158	-0.000110
1435	1.4268e+02	-17.1220	-54.216714	0.000324	3.243283	1.098854	-0.000130
1436	1.4278e+02	-17.1733	-54.305531	0.000223	2.229757	0.755462	-0.000089
1437	1.4288e+02	-17.2054	-54.406460	0.000253	2.533815	0.858480	-0.000101
1438	1.4298e+02	-17.2423	-54.539685	0.000334	3.344635	1.133193	-0.000134
1439	1.4308e+02	-17.2872	-54.656762	0.000294	2.939225	0.995836	-0.000118
1440	1.4318e+02	-17.3337	-54.769802	0.000284	2.837872	0.961497	-0.000114
1441	1.4328e+02	-17.3738	-54.854582	0.000213	2.128404	0.721123	-0.000085
1442	1.4338e+02	-17.4059	-54.967622	0.000284	2.837872	0.961497	-0.000114
1443	1.4348e+02	-17.4428	-55.072587	0.000264	2.635167	0.892819	-0.000105
1444	1.4358e+02	-17.4685	-55.169478	0.000243	2.432462	0.824140	-0.000097
1445	1.4368e+02	-17.5262	-55.270407	0.000253	2.533815	0.858480	-0.000101
1446	1.4378e+02	-17.5567	-55.391521	0.000304	3.040577	1.030176	-0.000122
1447	1.4388e+02	-17.6049	-55.468226	0.000193	1.925699	0.652445	-0.000077
1448	1.4398e+02	-17.6369	-55.617600	0.000375	3.750046	1.270550	-0.000150
1449	1.4408e+02	-17.6819	-55.730640	0.000284	2.837872	0.961497	-0.000114
1450	1.4418e+02	-17.7075	-55.827532	0.000243	2.432462	0.824140	-0.000097
1451	1.4428e+02	-17.7701	-55.960757	0.000334	3.344635	1.133193	-0.000134
1452	1.4437e+02	-17.8006	-56.049574	0.000223	2.229757	0.755462	-0.000089
1453	1.4447e+02	-17.8407	-56.182799	0.000334	3.344635	1.133193	-0.000134
1454	1.4457e+02	-17.8728	-56.255468	0.000182	1.824346	0.618105	-0.000073
1455	1.4467e+02	-17.9225	-56.332174	0.000193	1.925699	0.652445	-0.000077
1456	1.4477e+02	-17.9786	-56.505770	0.000436	4.358161	1.476585	-0.000174
1457	1.4487e+02	-18.0043	-56.618810	0.000284	2.837872	0.961497	-0.000114
1458	1.4497e+02	-18.0396	-56.756073	0.000345	3.445988	1.167532	-0.000138
1459	1.4507e+02	-18.0877	-56.836815	0.000203	2.027052	0.686784	-0.000081
1460	1.4517e+02	-18.1310	-56.905447	0.000172	1.722994	0.583766	-0.000069
1461	1.4527e+02	-18.1535	-57.079044	0.000436	4.358161	1.476585	-0.000174
1462	1.4537e+02	-18.2000	-57.135564	0.000142	1.418936	0.480749	-0.000057
1463	1.4547e+02	-18.2353	-57.248603	0.000284	2.837872	0.961497	-0.000114
1464	1.4557e+02	-18.2931	-57.373755	0.000314	3.141930	1.064515	-0.000126
1465	1.4567e+02	-18.3252	-57.430274	0.000142	1.418936	0.480749	-0.000057
1466	1.4577e+02	-18.3556	-57.579648	0.000375	3.750046	1.270550	-0.000150
1467	1.4587e+02	-18.3925	-57.652317	0.000182	1.824346	0.618105	-0.000073
1468	1.4597e+02	-18.4439	-57.793617	0.000355	3.547340	1.201871	-0.000142
1469	1.4607e+02	-18.4824	-57.906656	0.000284	2.837872	0.961497	-0.000114
1470	1.4617e+02	-18.5241	-57.999511	0.000233	2.331109	0.789801	-0.000093
1471	1.4626e+02	-18.5626	-58.144847	0.000365	3.648693	1.236211	-0.000146
1472	1.4636e+02	-18.5995	-58.249813	0.000264	2.635167	0.892819	-0.000105
1473	1.4646e+02	-18.6364	-58.354779	0.000264	2.635167	0.892819	-0.000105
1474	1.4656e+02	-18.6765	-58.447633	0.000233	2.331109	0.789801	-0.000093
1475	1.4666e+02	-18.7230	-58.576821	0.000324	3.243283	1.098854	-0.000130
1476	1.4676e+02	-18.7631	-58.693898	0.000294	2.939225	0.995836	-0.000118
1477	1.4686e+02	-18.8032	-58.782715	0.000223	2.229757	0.755462	-0.000089
1478	1.4696e+02	-18.8369	-58.899792	0.000294	2.939225	0.995836	-0.000118
1479	1.4706e+02	-18.8690	-58.996683	0.000243	2.432462	0.824140	-0.000097
1480	1.4716e+02	-18.9155	-59.178354	0.000456	4.560866	1.545263	-0.000183
1481	1.4726e+02	-18.9636	-59.214688	0.000091	0.912173	0.309053	-0.000037
1482	1.4736e+02	-19.0070	-59.343877	0.000324	3.243283	1.098854	-0.000130
1483	1.4746e+02	-19.0390	-59.432694	0.000223	2.229757	0.755462	-0.000089
1484	1.4756e+02	-19.0823	-59.578031	0.000365	3.648693	1.236211	-0.000146
1485	1.4766e+02	-19.1128	-59.654736	0.000193	1.925699	0.652445	-0.000077
1486	1.4776e+02	-19.1594	-59.775850	0.000304	3.040577	1.030176	-0.000122
1487	1.4786e+02	-19.1882	-59.937336	0.000405	4.054103	1.373567	-0.000162
1488	1.4796e+02	-19.2396	-59.993856	0.000142	1.418936	0.480749	-0.000057
1489	1.4806e+02	-19.2749	-60.110933	0.000294	2.939225	0.995836	-0.000118
1490	1.4816e+02	-19.3166	-60.228010	0.000294	2.939225	0.995836	-0.000118
1491	1.4825e+02	-19.3551	-60.357198	0.000324	3.243283	1.098854	-0.000130
1492	1.4835e+02	-19.3904	-60.446015	0.000223	2.229757	0.755462	-0.000089
1493	1.4845e+02	-19.4385	-60.595389	0.000375	3.750046	1.270550	-0.000150
1494	1.4855e+02	-19.4802	-60.668057	0.000182	1.824346	0.618105	-0.000073
1495	1.4865e+02	-19.5075	-60.781097	0.000284	2.837872	0.961497	-0.000114
1496	1.4875e+02	-19.5524	-60.946620	0.000416	4.155456	1.407907	-0.000166
1497	1.4885e+02	-19.5973	-61.079845	0.000334	3.344635	1.133193	-0.000134
1498	1.4895e+02	-19.6374	-61.160588	0.000203	2.027052	0.686784	-0.000081
1499	1.4905e+02	-19.6727	-61.285739	0.000314	3.141930	1.064515	-0.000126
1500	1.4915e+02	-19.7144	-61.418965	0.000334	3.344635	1.133193	-0.000134
1501	1.4925e+02	-19.7529	-61.532004	0.000284	2.837872	0.961497	-0.000114
1502	1.4935e+02	-19.7978	-61.645044	0.000284	2.837872	0.961497	-0.000114
1503	1.4945e+02	-19.8363	-61.750010	0.000264	2.635167	0.892819	-0.000105
1504	1.4955e+02	-19.8652	-61.842864	0.000233	2.331109	0.789801	-0.000093
1505	1.4965e+02	-19.9085	-62.020498	0.000446	4.459514	1.510924	-0.000179
1506	1.4975e+02	-19.9470	-62.129500	0.000274	2.736520	0.927158	-0.000110
1507	1.4985e+02	-20.0016	-62.242540	0.000284	2.837872	0.961497	-0.000114
1508	1.4995e+02	-19.9454	-62.157760	0.000213	2.128404	0.721123	0.000085
1509	1.5005e+02	-19.9133	-62.129500	0.000071	0.709468	0.240374	0.000028
1510	1.5015e+02	-19.8668	-62.068943	0.000152	1.520289	0.515088	0.000061
1511	1.5025e+02	-19.8283	-62.060869	0.000020	0.202705	0.068678	0.000008
1512	1.5034e+02	-19.7882	-61.976089	0.000213	2.128404	0.721123	0.000085
1513	1.5044e+02	-19.7593	-61.850938	0.000314	3.141930	1.064515	0.000126
1514	1.5054e+02	-19.7080	-61.810567	0.000101	1.013526	0.343392	0.000041
1515	1.5064e+02	-19.6743	-61.770195	0.000101	1.013526	0.343392	0.000041
1516	1.5074e+02	-19.6278	-61.661193	0.000274	2.736520	0.927158	0.000110
1517	1.5084e+02	-19.5941	-61.616784	0.000111	1.114878	0.377731	0.000045
1518	1.5094e+02	-19.5636	-61.519893	0.000243	2.432462	0.824140	0.000097
1519	1.5104e+02	-19.5171	-61.471447	0.000122	1.216231	0.412070	0.000049
1520	1.5114e+02	-19.4722	-61.394742	0.000193	1.925699	0.652445	0.000077
1521	1.5124e+02	-19.4385	-61.342259	0.000132	1.317584	0.446409	0.000053
1522	1.5134e+02	-19.3855	-61.241331	0.000253	2.533815	0.858480	0.000101
1523	1.5144e+02	-19.3519	-61.196922	0.000111	1.114878	0.377731	0.000045
1524	1.5154e+02	-19.3118	-61.087919	0.000274	2.736520	0.927158	0.000110
1525	1.5164e+02	-19.2781	-61.027362	0.000152	1.520289	0.515088	0.000061
1526	1.5174e+02	-19.2428	-60.938545	0.000223	2.229757	0.755462	0.000089
1527	1.5184e+02	-19.2027	-60.882025	0.000142	1.418936	0.480749	0.000057
1528	1.5194e+02	-19.1561	-60.756874	0.000314	3.141930	1.064515	0.000126
1529	1.5204e+02	-19.1273	-60.692280	0.000162	1.621641	0.549427	0.000065
1530	1.5214e+02	-19.0775	-60.639797	0.000132	1.317584	0.446409	0.000053
1531	1.5224e+02	-19.0326	-60.603463	0.000091	0.912173	0.309053	0.000037
1532	1.5233e+02	-18.9909	-60.486386	0.000294	2.939225	0.995836	0.000118
1533	1.5243e+02	-18.9540	-60.381421	0.000264	2.635167	0.892819	0.000105
1534	1.5253e+02	-18.9187	-60.300678	0.000203	2.027052	0.686784	0.000081
1535	1.5263e+02	-18.8754	-60.244158	0.000142	1.418936	0.480749	0.000057
1536	1.5273e+02	-18.8401	-60.171490	0.000182	1.824346	0.618105	0.000073
1537	1.5283e+02	-18.7904	-60.062487	0.000274	2.736520	0.927158	0.000110
1538	1.5293e+02	-18.7631	-60.010004	0.000132	1.317584	0.446409	0.000053
1539	1.5303e+02	-18.7150	-59.909076	0.000253	2.533815	0.858480	0.000101
1540	1.5313e+02	-18.6733	-59.783925	0.000314	3.141930	1.064515	0.000126
1541	1.5323e+02	-18.6332	-59.735479	0.000122	1.216231	0.412070	0.000049
1542	1.5333e+02	-18.5915	-59.703182	0.000081	0.810821	0.274713	0.000032
1543	1.5343e+02	-18.5642	-59.569956	0.000334	3.344635	1.133193	0.000134
1544	1.5353e+02	-18.5225	-59.525548	0.000111	1.114878	0.377731	0.000045
1545	1.5363e+02	-18.4727	-59.448842	0.000193	1.925699	0.652445	0.000077
1546	1.5373e+02	-18.4358	-59.307543	0.000355	3.547340	1.201871	0.000142
1547	1.5383e+02	-18.4006	-59.234874	0.000182	1.824346	0.618105	0.000073
1548	1.5393e+02	-18.3620	-59.109723	0.000314	3.141930	1.064515	0.000126
1549	1.5403e+02	-18.3171	-59.061277	0.000122	1.216231	0.412070	0.000049
1550	1.5413e+02	-18.2738	-58.960349	0.000253	2.533815	0.858480	0.000101
1551	1.5422e+02	-18.2369	-58.915940	0.000111	1.114878	0.377731	0.000045
1552	1.5432e+02	-18.2064	-58.806938	0.000274	2.736520	0.927158	0.000110
1553	1.5442e+02	-18.1535	-58.730232	0.000193	1.925699	0.652445	0.000077
1554	1.5452e+02	-18.1278	-58.629304	0.000253	2.533815	0.858480	0.000101
1555	1.5462e+02	-18.0749	-58.564710	0.000162	1.621641	0.549427	0.000065
1556	1.5472e+02	-18.0444	-58.479930	0.000213	2.128404	0.721123	0.000085
1557	1.5482e+02	-18.0043	-58.383038	0.000243	2.432462	0.824140	0.000097
1558	1.5492e+02	-17.9546	-58.302296	0.000203	2.027052	0.686784	0.000081
1559	1.5502e+02	-17.9113	-58.233664	0.000172	1.722994	0.583766	0.000069
1560	1.5512e+02	-17.8728	-58.120625	0.000284	2.837872	0.961497	0.000114
1561	1.5522e+02	-17.8407	-58.047956	0.000182	1.824346	0.618105	0.000073
1562	1.5532e+02	-17.8022	-57.930879	0.000294	2.939225	0.995836	0.000118
1563	1.5542e+02	-17.7621	-57.906656	0.000061	0.608115	0.206035	0.000024
1564	1.5552e+02	-17.7268	-57.769394	0.000345	3.445988	1.167532	0.000138
1565	1.5562e+02	-17.6802	-57.704800	0.000162	1.621641	0.549427	0.000065
1566	1.5572e+02	-17.6401	-57.607908	0.000243	2.432462	0.824140	0.000097
1567	1.5582e+02	-17.6097	-57.535240	0.000182	1.824346	0.618105	0.000073
1568	1.5592e+02	-17.5680	-57.462572	0.000182	1.824346	0.618105	0.000073
1569	1.5602e+02	-17.5150	-57.357606	0.000264	2.635167	0.892819	0.000105
1570	1.5612e+02	-17.4813	-57.248603	0.000274	2.736520	0.927158	0.000110
1571	1.5622e+02	-17.4412	-57.204195	0.000111	1.114878	0.377731	0.000045
1572	1.5631e+02	-17.4059	-57.119415	0.000213	2.128404	0.721123	0.000085
1573	1.5641e+02	-17.3642	-56.994264	0.000314	3.141930	1.064515	0.000126
1574	1.5651e+02	-17.3209	-56.897373	0.000243	2.432462	0.824140	0.000097
1575	1.5661e+02	-17.2760	-56.836815	0.000152	1.520289	0.515088	0.000061
1576	1.5671e+02	-17.2423	-56.743961	0.000233	2.331109	0.789801	0.000093
1577	1.5681e+02	-17.2070	-56.634959	0.000274	2.736520	0.927158	0.000110
1578	1.5691e+02	-17.1669	-56.594587	0.000101	1.013526	0.343392	0.000041
1579	1.5701e+02	-17.1172	-56.449250	0.000365	3.648693	1.236211	0.000146
1580	1.5711e+02	-17.0851	-56.336211	0.000284	2.837872	0.961497	0.000114
1581	1.5721e+02	-17.0466	-56.271616	0.000162	1.621641	0.549427	0.000065
1582	1.5731e+02	-17.0065	-56.146465	0.000314	3.141930	1.064515	0.000126
1583	1.5741e+02	-16.9632	-56.069760	0.000193	1.925699	0.652445	0.000077
1584	1.5751e+02	-16.9391	-55.980943	0.000223	2.229757	0.755462	0.000089
1585	1.5761e+02	-16.8733	-55.932497	0.000122	1.216231	0.412070	0.000049
1586	1.5771e+02	-16.8477	-55.791197	0.000355	3.547340	1.201871	0.000142
1587	1.5781e+02	-16.8140	-55.698343	0.000233	2.331109	0.789801	0.000093
1588	1.5791e+02	-16.7787	-55.597415	0.000253	2.533815	0.858480	0.000101
1589	1.5801e+02	-16.7225	-55.500524	0.000243	2.432462	0.824140	0.000097
1590	1.5811e+02	-16.6872	-55.403632	0.000243	2.432462	0.824140	0.000097
1591	1.5821e+02	-16.6359	-55.298667	0.000264	2.635167	0.892819	0.000105
1592	1.5830e+02	-16.6038	-55.205813	0.000233	2.331109	0.789801	0.000093
1593	1.5840e+02	-16.5589	-55.161404	0.000111	1.114878	0.377731	0.000045
1594	1.5850e+02	-16.5252	-55.016067	0.000365	3.648693	1.236211	0.000146
1595	1.5860e+02	-16.4835	-54.971659	0.000111	1.114878	0.377731	0.000045
1596	1.5870e+02	-16.4466	-54.842470	0.000324	3.243283	1.098854	0.000130
1597	1.5880e+02	-16.4113	-54.753653	0.000223	2.229757	0.755462	0.000089
1598	1.5890e+02	-16.3760	-54.676948	0.000193	1.925699	0.652445	0.000077
1599	1.5900e+02	-16.3247	-54.563908	0.000284	2.837872	0.961497	0.000114
1600	1.5910e+02	-16.2926	-54.462980	0.000253	2.533815	0.858480	0.000101
1601	1.5920e+02	-16.2525	-54.370126	0.000233	2.331109	0.789801	0.000093
1602	1.5930e+02	-16.2060	-54.257086	0.000284	2.837872	0.961497	0.000114
1603	1.5940e+02	-16.1578	-54.148083	0.000274	2.736520	0.927158	0.000110
1604	1.5950e+02	-16.1225	-54.087526	0.000152	1.520289	0.515088	0.000061
1605	1.5960e+02	-16.0969	-53.982561	0.000264	2.635167	0.892819	0.000105
1606	1.5970e+02	-16.0536	-53.922003	0.000152	1.520289	0.515088	0.000061
1607	1.5980e+02	-16.0054	-53.776667	0.000365	3.648693	1.236211	0.000146
1608	1.5990e+02	-15.9621	-53.712072	0.000162	1.621641	0.549427	0.000065
1609	1.6000e+02	-15.9252	-53.594995	0.000294	2.939225	0.995836	0.000118
1610	1.6010e+02	-15.8915	-53.510216	0.000213	2.128404	0.721123	0.000085
1611	1.6019e+02	-15.8418	-53.393139	0.000294	2.939225	0.995836	0.000118
1612	1.6029e+02	-15.8049	-53.328545	0.000162	1.621641	0.549427	0.000065
1613	1.6039e+02	-15.7760	-53.207430	0.000304	3.040577	1.030176	0.000122
1614	1.6049e+02	-15.7327	-53.122651	0.000213	2.128404	0.721123	0.000085
1615	1.6059e+02	-15.6862	-53.021722	0.000253	2.533815	0.858480	0.000101
1616	1.6069e+02	-15.6557	-52.936942	0.000213	2.128404	0.721123	0.000085
1617	1.6079e+02	-15.6172	-52.823903	0.000284	2.837872	0.961497	0.000114
1618	1.6089e+02	-15.5659	-52.739123	0.000213	2.128404	0.721123	0.000085
1619	1.6099e+02	-15.5338	-52.642231	0.000243	2.432462	0.824140	0.000097
1620	1.6109e+02	-15.4953	-52.541303	0.000253	2.533815	0.858480	0.000101
1621	1.6119e+02	-15.4520	-52.428263	0.000284	2.837872	0.961497	0.000114
1622	1.6129e+02	-15.4151	-52.331372	0.000243	2.432462	0.824140	0.000097
1623	1.6139e+02	-15.3702	-52.274852	0.000142	1.418936	0.480749	0.000057
1624	1.6149e+02	-15.3381	-52.117404	0.000395	3.952751	1.339228	0.000158
1625	1.6159e+02	-15.2996	-52.032624	0.000213	2.128404	0.721123	0.000085
1626	1.6169e+02	-15.2563	-51.947844	0.000213	2.128404	0.721123	0.000085
1627	1.6179e+02	-15.2161	-51.850953	0.000243	2.432462	0.824140	0.000097
1628	1.6189e+02	-15.1632	-51.758099	0.000233	2.331109	0.789801	0.000093
1629	1.6199e+02	-15.1407	-51.669282	0.000223	2.229757	0.755462	0.000089
1630	1.6209e+02	-15.0894	-51.540093	0.000324	3.243283	1.098854	0.000130
1631	1.6219e+02	-15.0461	-51.507796	0.000081	0.810821	0.274713	0.000032
1632	1.6228e+02	-15.0156	-51.374571	0.000334	3.344635	1.133193	0.000134
1633	1.6238e+02	-14.9659	-51.277680	0.000243	2.432462	0.824140	0.000097
1634	1.6248e+02	-14.9322	-51.172714	0.000264	2.635167	0.892819	0.000105
1635	1.6258e+02	-14.8889	-51.071786	0.000253	2.533815	0.858480	0.000101
1636	1.6268e+02	-14.8552	-50.982969	0.000223	2.229757	0.755462	0.000089
1637	1.6278e+02	-14.8119	-50.865892	0.000294	2.939225	0.995836	0.000118
1638	1.6288e+02	-14.7734	-50.797260	0.000172	1.722994	0.583766	0.000069
1639	1.6298e+02	-14.7397	-50.688258	0.000274	2.736520	0.927158	0.000110
1640	1.6308e+02	-14.6948	-50.567144	0.000304	3.040577	1.030176	0.000122
1641	1.6318e+02	-14.6531	-50.466215	0.000253	2.533815	0.858480	0.000101
1642	1.6328e+02	-14.6033	-50.365287	0.000253	2.533815	0.858480	0.000101
1643	1.6338e+02	-14.5761	-50.300693	0.000162	1.621641	0.549427	0.000065
1644	1.6348e+02	-14.5408	-50.187653	0.000284	2.837872	0.961497	0.000114
1645	1.6358e+02	-14.4942	-50.106910	0.000203	2.027052	0.686784	0.000081
1646	1.6368e+02	-14.4509	-49.993870	0.000284	2.837872	0.961497	0.000114
1647	1.6378e+02	-14.4124	-49.913128	0.000203	2.027052	0.686784	0.000081
1648	1.6388e+02	-14.3691	-49.787976	0.000314	3.141930	1.064515	0.000126
1649	1.6398e+02	-14.3306	-49.687048	0.000253	2.533815	0.858480	0.000101
1650	1.6408e+02	-14.2985	-49.574008	0.000284	2.837872	0.961497	0.000114
1651	1.6418e+02	-14.2584	-49.424634	0.000375	3.750046	1.270550	0.000150
1652	1.6427e+02	-14.2199	-49.384263	0.000101	1.013526	0.343392	0.000041
1653	1.6437e+02	-14.1734	-49.291409	0.000233	2.331109	0.789801	0.000093
1654	1.6447e+02	-14.1381	-49.178369	0.000284	2.837872	0.961497	0.000114
1655	1.6457e+02	-14.0980	-49.073403	0.000264	2.635167	0.892819	0.000105
1656	1.6467e+02	-14.0563	-48.972475	0.000253	2.533815	0.858480	0.000101
1657	1.6477e+02	-14.0162	-48.875584	0.000243	2.432462	0.824140	0.000097
1658	1.6487e+02	-13.9761	-48.762544	0.000284	2.837872	0.961497	0.000114
1659	1.6497e+02	-13.9440	-48.657578	0.000264	2.635167	0.892819	0.000105
1660	1.6507e+02	-13.9023	-48.540502	0.000294	2.939225	0.995836	0.000118
1661	1.6517e+02	-13.8542	-48.439573	0.000253	2.533815	0.858480	0.000101
1662	1.6527e+02	-13.8157	-48.354793	0.000213	2.128404	0.721123	0.000085
1663	1.6537e+02	-13.7739	-48.290199	0.000162	1.621641	0.549427	0.000065
1664	1.6547e+02	-13.7306	-48.120639	0.000426	4.256808	1.442246	0.000170
1665	1.6557e+02	-13.7018	-48.047971	0.000182	1.824346	0.618105	0.000073
1666	1.6567e+02	-13.6536	-47.963191	0.000213	2.128404	0.721123	0.000085
1667	1.6577e+02	-13.6296	-47.858226	0.000264	2.635167	0.892819	0.000105
1668	1.6587e+02	-13.5798	-47.781520	0.000193	1.925699	0.652445	0.000077
1669	1.6597e+02	-13.5397	-47.628109	0.000385	3.851398	1.304889	0.000154
1670	1.6607e+02	-13.4996	-47.595812	0.000081	0.810821	0.274713	0.000032
1671	1.6616e+02	-13.4595	-47.470661	0.000314	3.141930	1.064515	0.000126
1672	1.6626e+02	-13.4178	-47.406066	0.000162	1.621641	0.549427	0.000065
1673	1.6636e+02	-13.3761	-47.276878	0.000324	3.243283	1.098854	0.000130
1674	1.6646e+02	-13.3344	-47.139615	0.000345	3.445988	1.167532	0.000138
1675	1.6656e+02	-13.2991	-47.095207	0.000111	1.114878	0.377731	0.000045
1676	1.6666e+02	-13.2702	-46.974093	0.000304	3.040577	1.030176	0.000122
1677	1.6676e+02	-13.2221	-46.877202	0.000243	2.432462	0.824140	0.000097
1678	1.6686e+02	-13.1756	-46.764162	0.000284	2.837872	0.961497	0.000114
1679	1.6696e+02	-13.1371	-46.643048	0.000304	3.040577	1.030176	0.000122
1680	1.6706e+02	-13.0921	-46.570379	0.000182	1.824346	0.618105	0.000073
1681	1.6716e+02	-13.0552	-46.461377	0.000274	2.736520	0.927158	0.000110
1682	1.6726e+02	-13.0216	-46.312003	0.000375	3.750046	1.270550	0.000150
1683	1.6736e+02	-12.9863	-46.267594	0.000111	1.114878	0.377731	0.000045
1684	1.6746e+02	-12.9349	-46.134369	0.000334	3.344635	1.133193	0.000134
1685	1.6756e+02	-12.8964	-46.041515	0.000233	2.331109	0.789801	0.000093
1686	1.6766e+02	-12.8643	-45.960772	0.000203	2.027052	0.686784	0.000081
1687	1.6776e+02	-12.8162	-45.847732	0.000284	2.837872	0.961497	0.000114
1688	1.6786e+02	-12.7922	-45.771026	0.000193	1.925699	0.652445	0.000077
1689	1.6796e+02	-12.7520	-45.645875	0.000314	3.141930	1.064515	0.000126
1690	1.6806e+02	-12.7087	-45.569170	0.000193	1.925699	0.652445	0.000077
1691	1.6816e+02	-12.6718	-45.435944	0.000334	3.344635	1.133193	0.000134
1692	1.6825e+02	-12.6173	-45.339053	0.000243	2.432462	0.824140	0.000097
1693	1.6835e+02	-12.5868	-45.213902	0.000314	3.141930	1.064515	0.000126
1694	1.6845e+02	-12.5435	-45.137196	0.000193	1.925699	0.652445	0.000077
1695	1.6855e+02	-12.5082	-45.036268	0.000253	2.533815	0.858480	0.000101
1696	1.6865e+02	-12.4649	-44.899005	0.000345	3.445988	1.167532	0.000138
1697	1.6875e+02	-12.4232	-44.798077	0.000253	2.533815	0.858480	0.000101
1698	1.6885e+02	-12.3927	-44.721371	0.000193	1.925699	0.652445	0.000077
1699	1.6895e+02	-12.3494	-44.604294	0.000294	2.939225	0.995836	0.000118
1700	1.6905e+02	-12.3013	-44.531626	0.000182	1.824346	0.618105	0.000073
1701	1.6915e+02	-12.2547	-44.406475	0.000314	3.141930	1.064515	0.000126
1702	1.6925e+02	-12.2226	-44.277286	0.000324	3.243283	1.098854	0.000130
1703	1.6935e+02	-12.1890	-44.172321	0.000264	2.635167	0.892819	0.000105
1704	1.6945e+02	-12.1440	-44.107727	0.000162	1.621641	0.549427	0.000065
1705	1.6955e+02	-12.1071	-43.986612	0.000304	3.040577	1.030176	0.000122
1706	1.6965e+02	-12.0670	-43.893758	0.000233	2.331109	0.789801	0.000093
1707	1.6975e+02	-12.0285	-43.800904	0.000233	2.331109	0.789801	0.000093
1708	1.6985e+02	-11.9852	-43.655567	0.000365	3.648693	1.236211	0.000146
1709	1.6995e+02	-11.9371	-43.562713	0.000233	2.331109	0.789801	0.000093
1710	1.7005e+02	-11.8986	-43.457748	0.000264	2.635167	0.892819	0.000105
1711	1.7015e+02	-11.8681	-43.360856	0.000243	2.432462	0.824140	0.000097
1712	1.7024e+02	-11.8232	-43.259928	0.000253	2.533815	0.858480	0.000101
1713	1.7034e+02	-11.7799	-43.126703	0.000334	3.344635	1.133193	0.000134
1714	1.7044e+02	-11.7430	-43.062108	0.000162	1.621641	0.549427	0.000065
1715	1.7054e+02	-11.7093	-42.957143	0.000264	2.635167	0.892819	0.000105
1716	1.7064e+02	-11.6596	-42.827954	0.000324	3.243283	1.098854	0.000130
1717	1.7074e+02	-11.6275	-42.739137	0.000223	2.229757	0.755462	0.000089
1718	1.7084e+02	-11.5777	-42.601875	0.000345	3.445988	1.167532	0.000138
1719	1.7094e+02	-11.5457	-42.525169	0.000193	1.925699	0.652445	0.000077
1720	1.7104e+02	-11.5120	-42.379832	0.000365	3.648693	1.236211	0.000146
1721	1.7114e+02	-11.4671	-42.299090	0.000203	2.027052	0.686784	0.000081
1722	1.7124e+02	-11.4205	-42.182013	0.000294	2.939225	0.995836	0.000118
1723	1.7134e+02	-11.3949	-42.048787	0.000334	3.344635	1.133193	0.000134
1724	1.7144e+02	-11.3532	-41.915562	0.000334	3.344635	1.133193	0.000134
1725	1.7154e+02	-11.3034	-41.895376	0.000051	0.506763	0.171696	0.000020
1726	1.7164e+02	-11.2697	-41.770225	0.000314	3.141930	1.064515	0.000126
1727	1.7174e+02	-11.2360	-41.649111	0.000304	3.040577	1.030176	0.000122
1728	1.7184e+02	-11.1863	-41.519922	0.000324	3.243283	1.098854	0.000130
1729	1.7194e+02	-11.1590	-41.423031	0.000243	2.432462	0.824140	0.000097
1730	1.7204e+02	-11.1109	-41.338251	0.000213	2.128404	0.721123	0.000085
1731	1.7213e+02	-11.0724	-41.221174	0.000294	2.939225	0.995836	0.000118
1732	1.7223e+02	-11.0307	-41.108135	0.000284	2.837872	0.961497	0.000114
1733	1.7233e+02	-10.9938	-40.995095	0.000284	2.837872	0.961497	0.000114
1734	1.7243e+02	-10.9505	-40.926464	0.000172	1.722994	0.583766	0.000069
1735	1.7253e+02	-10.9136	-40.801312	0.000314	3.141930	1.064515	0.000126
1736	1.7263e+02	-10.8719	-40.680198	0.000304	3.040577	1.030176	0.000122
1737	1.7273e+02	-10.8318	-40.591381	0.000223	2.229757	0.755462	0.000089
1738	1.7283e+02	-10.7901	-40.470267	0.000304	3.040577	1.030176	0.000122
1739	1.7293e+02	-10.7452	-40.369339	0.000253	2.533815	0.858480	0.000101
1740	1.7303e+02	-10.7163	-40.264373	0.000264	2.635167	0.892819	0.000105
1741	1.7313e+02	-10.6746	-40.143259	0.000304	3.040577	1.030176	0.000122
1742	1.7323e+02	-10.6264	-40.054442	0.000223	2.229757	0.755462	0.000089
1743	1.7333e+02	-10.5927	-39.941402	0.000284	2.837872	0.961497	0.000114
1744	1.7343e+02	-10.5446	-39.836437	0.000264	2.635167	0.892819	0.000105
1745	1.7353e+02	-10.5093	-39.723397	0.000284	2.837872	0.961497	0.000114
1746	1.7363e+02	-10.4756	-39.614394	0.000274	2.736520	0.927158	0.000110
1747	1.7373e+02	-10.4307	-39.493280	0.000304	3.040577	1.030176	0.000122
1748	1.7383e+02	-10.3858	-39.384278	0.000274	2.736520	0.927158	0.000110
1749	1.7393e+02	-10.3537	-39.263164	0.000304	3.040577	1.030176	0.000122
1750	1.7403e+02	-10.3136	-39.158198	0.000264	2.635167	0.892819	0.000105
1751	1.7413e+02	-10.2783	-39.061307	0.000243	2.432462	0.824140	0.000097
1752	1.7422e+02	-10.2318	-38.952304	0.000274	2.736520	0.927158	0.000110
1753	1.7432e+02	-10.1869	-38.823116	0.000324	3.243283	1.098854	0.000130
1754	1.7442e+02	-10.1452	-38.726225	0.000243	2.432462	0.824140	0.000097
1755	1.7452e+02	-10.1195	-38.580888	0.000365	3.648693	1.236211	0.000146
1756	1.7462e+02	-10.0714	-38.479959	0.000253	2.533815	0.858480	0.000101
1757	1.7472e+02	-10.0329	-38.387105	0.000233	2.331109	0.789801	0.000093
1758	1.7482e+02	-9.9944	-38.257917	0.000324	3.243283	1.098854	0.000130
1759	1.7492e+02	-9.9543	-38.132766	0.000314	3.141930	1.064515	0.000126
1760	1.7502e+02	-9.9110	-38.007614	0.000314	3.141930	1.064515	0.000126
1761	1.7512e+02	-9.8757	-37.886500	0.000304	3.040577	1.030176	0.000122
1762	1.7522e+02	-9.8275	-37.801720	0.000213	2.128404	0.721123	0.000085
1763	1.7532e+02	-9.7987	-37.668495	0.000334	3.344635	1.133193	0.000134
1764	1.7542e+02	-9.7602	-37.571604	0.000243	2.432462	0.824140	0.000097
1765	1.7552e+02	-9.7184	-37.430304	0.000355	3.547340	1.201871	0.000142
1766	1.7562e+02	-9.6751	-37.321301	0.000274	2.736520	0.927158	0.000110
1767	1.7572e+02	-9.6430	-37.192113	0.000324	3.243283	1.098854	0.000130
1768	1.7582e+02	-9.5917	-37.131556	0.000152	1.520289	0.515088	0.000061
1769	1.7592e+02	-9.5596	-37.010442	0.000304	3.040577	1.030176	0.000122
1770	1.7602e+02	-9.5179	-36.861068	0.000375	3.750046	1.270550	0.000150
1771	1.7612e+02	-9.4698	-36.764177	0.000243	2.432462	0.824140	0.000097
1772	1.7621e+02	-9.4345	-36.675360	0.000223	2.229757	0.755462	0.000089
1773	1.7631e+02	-9.3912	-36.521948	0.000385	3.851398	1.304889	0.000154
1774	1.7641e+02	-9.3511	-36.457354	0.000162	1.621641	0.549427	0.000065
1775	1.7651e+02	-9.3078	-36.312017	0.000365	3.648693	1.236211	0.000146
1776	1.7661e+02	-9.2725	-36.239349	0.000182	1.824346	0.618105	0.000073
1777	1.7671e+02	-9.2452	-36.094012	0.000365	3.648693	1.236211	0.000146
1778	1.7681e+02	-9.1971	-35.944638	0.000375	3.750046	1.270550	0.000150
1779	1.7691e+02	-9.1521	-35.863895	0.000203	2.027052	0.686784	0.000081
1780	1.7701e+02	-9.1201	-35.722596	0.000355	3.547340	1.201871	0.000142
1781	1.7711e+02	-9.0848	-35.617630	0.000264	2.635167	0.892819	0.000105
1782	1.7721e+02	-9.0463	-35.520739	0.000243	2.432462	0.824140	0.000097
1783	1.7731e+02	-8.9949	-35.411736	0.000274	2.736520	0.927158	0.000110
1784	1.7741e+02	-8.9628	-35.266399	0.000365	3.648693	1.236211	0.000146
1785	1.7751e+02	-8.9211	-35.177582	0.000223	2.229757	0.755462	0.000089
1786	1.7761e+02	-8.8762	-35.084728	0.000233	2.331109	0.789801	0.000093
1787	1.7771e+02	-8.8345	-34.923243	0.000405	4.054103	1.373567	0.000162
1788	1.7781e+02	-8.7960	-34.818277	0.000264	2.635167	0.892819	0.000105
1789	1.7791e+02	-8.7607	-34.713312	0.000264	2.635167	0.892819	0.000105
1790	1.7801e+02	-8.7222	-34.580086	0.000334	3.344635	1.133193	0.000134
1791	1.7810e+02	-8.6757	-34.495306	0.000213	2.128404	0.721123	0.000085
1792	1.7820e+02	-8.6340	-34.422638	0.000182	1.824346	0.618105	0.000073
1793	1.7830e+02	-8.5971	-34.216744	0.000517	5.168982	1.751298	0.000207
1794	1.7840e+02	-8.5618	-34.115816	0.000253	2.533815	0.858480	0.000101
1795	1.7850e+02	-8.5137	-34.047184	0.000172	1.722994	0.583766	0.000069
1796	1.7860e+02	-8.4768	-33.913959	0.000334	3.344635	1.133193	0.000134
1797	1.7870e+02	-8.4415	-33.808993	0.000264	2.635167	0.892819	0.000105
1798	1.7880e+02	-8.4030	-33.675768	0.000334	3.344635	1.133193	0.000134
1799	1.7890e+02	-8.3548	-33.566765	0.000274	2.736520	0.927158	0.000110
1800	1.7900e+02	-8.3228	-33.457762	0.000274	2.736520	0.927158	0.000110
1801	1.7910e+02	-8.2810	-33.312426	0.000365	3.648693	1.236211	0.000146
1802	1.7920e+02	-8.2442	-33.239757	0.000182	1.824346	0.618105	0.000073
1803	1.7930e+02	-8.1992	-33.118643	0.000304	3.040577	1.030176	0.000122
1804	1.7940e+02	-8.1543	-32.961195	0.000395	3.952751	1.339228	0.000158
1805	1.7950e+02	-8.1174	-32.860266	0.000253	2.533815	0.858480	0.000101
1806	1.7960e+02	-8.0805	-32.735115	0.000314	3.141930	1.064515	0.000126
1807	1.7970e+02	-8.0468	-32.630150	0.000264	2.635167	0.892819	0.000105
1808	1.7980e+02	-8.0051	-32.500961	0.000324	3.243283	1.098854	0.000130
1809	1.7990e+02	-7.9666	-32.367736	0.000334	3.344635	1.133193	0.000134
1810	1.8000e+02	-7.9201	-32.323327	0.000111	1.114878	0.377731	0.000045
1811	1.8009e+02	-7.8768	-32.133582	0.000476	4.763571	1.613942	0.000191
1812	1.8019e+02	-7.8415	-32.044765	0.000223	2.229757	0.755462	0.000089
1813	1.8029e+02	-7.8014	-31.903465	0.000355	3.547340	1.201871	0.000142
1814	1.8039e+02	-7.7629	-31.778314	0.000314	3.141930	1.064515	0.000126
1815	1.8049e+02	-7.7212	-31.693534	0.000213	2.128404	0.721123	0.000085
1816	1.8059e+02	-7.6811	-31.523974	0.000426	4.256808	1.442246	0.000170
1817	1.8069e+02	-7.6442	-31.467455	0.000142	1.418936	0.480749	0.000057
1818	1.8079e+02	-7.5976	-31.285783	0.000456	4.560866	1.545263	0.000183
1819	1.8089e+02	-7.5575	-31.196966	0.000223	2.229757	0.755462	0.000089
1820	1.8099e+02	-7.5239	-31.047592	0.000375	3.750046	1.270550	0.000150
1821	1.8109e+02	-7.4886	-30.954738	0.000233	2.331109	0.789801	0.000093
1822	1.8119e+02	-7.4404	-30.841698	0.000284	2.837872	0.961497	0.000114
1823	1.8129e+02	-7.4067	-30.692324	0.000375	3.750046	1.270550	0.000150
1824	1.8139e+02	-7.3602	-30.587359	0.000264	2.635167	0.892819	0.000105
1825	1.8149e+02	-7.3169	-30.450096	0.000345	3.445988	1.167532	0.000138
1826	1.8159e+02	-7.2848	-30.349168	0.000253	2.533815	0.858480	0.000101
1827	1.8169e+02	-7.2463	-30.228054	0.000304	3.040577	1.030176	0.000122
1828	1.8179e+02	-7.1966	-30.110977	0.000294	2.939225	0.995836	0.000118
1829	1.8189e+02	-7.1645	-30.046383	0.000162	1.621641	0.549427	0.000065
1830	1.8199e+02	-7.1244	-29.880860	0.000416	4.155456	1.407907	0.000166
1831	1.8209e+02	-7.0907	-29.743598	0.000345	3.445988	1.167532	0.000138
1832	1.8218e+02	-7.0490	-29.638632	0.000264	2.635167	0.892819	0.000105
1833	1.8228e+02	-7.0121	-29.533666	0.000264	2.635167	0.892819	0.000105
1834	1.8238e+02	-6.9576	-29.420627	0.000284	2.837872	0.961497	0.000114
1835	1.8248e+02	-6.9239	-29.267216	0.000385	3.851398	1.304889	0.000154
1836	1.8258e+02	-6.8854	-29.178399	0.000223	2.229757	0.755462	0.000089
1837	1.8268e+02	-6.8453	-29.037099	0.000355	3.547340	1.201871	0.000142
1838	1.8278e+02	-6.8003	-28.948282	0.000223	2.229757	0.755462	0.000089
1839	1.8288e+02	-6.7779	-28.827168	0.000304	3.040577	1.030176	0.000122
1840	1.8298e+02	-6.7282	-28.681831	0.000365	3.648693	1.236211	0.000146
1841	1.8308e+02	-6.6800	-28.564754	0.000294	2.939225	0.995836	0.000118
1842	1.8318e+02	-6.6447	-28.504197	0.000152	1.520289	0.515088	0.000061
1843	1.8328e+02	-6.6030	-28.326563	0.000446	4.459514	1.510924	0.000179
1844	1.8338e+02	-6.5806	-28.229672	0.000243	2.432462	0.824140	0.000097
1845	1.8348e+02	-6.5276	-28.104520	0.000314	3.141930	1.064515	0.000126
1846	1.8358e+02	-6.4843	-28.023778	0.000203	2.027052	0.686784	0.000081
1847	1.8368e+02	-6.4362	-27.846144	0.000446	4.459514	1.510924	0.000179
1848	1.8378e+02	-6.4105	-27.761364	0.000213	2.128404	0.721123	0.000085
1849	1.8388e+02	-6.3736	-27.644287	0.000294	2.939225	0.995836	0.000118
1850	1.8398e+02	-6.3191	-27.498950	0.000365	3.648693	1.236211	0.000146
1851	1.8407e+02	-6.2854	-27.422245	0.000193	1.925699	0.652445	0.000077
1852	1.8417e+02	-6.2469	-27.297093	0.000314	3.141930	1.064515	0.000126
1853	1.8427e+02	-6.2084	-27.180016	0.000294	2.939225	0.995836	0.000118
1854	1.8437e+02	-6.1683	-27.030642	0.000375	3.750046	1.270550	0.000150
1855	1.8447e+02	-6.1250	-26.953937	0.000193	1.925699	0.652445	0.000077
1856	1.8457e+02	-6.0913	-26.812637	0.000355	3.547340	1.201871	0.000142
1857	1.8467e+02	-6.0496	-26.675374	0.000345	3.445988	1.167532	0.000138
1858	1.8477e+02	-6.0095	-26.566372	0.000274	2.736520	0.927158	0.000110
1859	1.8487e+02	-5.9758	-26.437183	0.000324	3.243283	1.098854	0.000130
1860	1.8497e+02	-5.9260	-26.316069	0.000304	3.040577	1.030176	0.000122
1861	1.8507e+02	-5.8956	-26.174770	0.000355	3.547340	1.201871	0.000142
1862	1.8517e+02	-5.8474	-26.053655	0.000304	3.040577	1.030176	0.000122
1863	1.8527e+02	-5.8153	-25.952727	0.000253	2.533815	0.858480	0.000101
1864	1.8537e+02	-5.7656	-25.811427	0.000355	3.547340	1.201871	0.000142
1865	1.8547e+02	-5.7367	-25.710499	0.000253	2.533815	0.858480	0.000101
1866	1.8557e+02	-5.6886	-25.593422	0.000294	2.939225	0.995836	0.000118
1867	1.8567e+02	-5.6533	-25.496531	0.000243	2.432462	0.824140	0.000097
1868	1.8577e+02	-5.6116	-25.343120	0.000385	3.851398	1.304889	0.000154
1869	1.8587e+02	-5.5683	-25.197783	0.000365	3.648693	1.236211	0.000146
1870	1.8597e+02	-5.5314	-25.096854	0.000253	2.533815	0.858480	0.000101
1871	1.8606e+02	-5.4897	-24.995926	0.000253	2.533815	0.858480	0.000101
1872	1.8616e+02	-5.4480	-24.822329	0.000436	4.358161	1.476585	0.000174
1873	1.8626e+02	-5.4175	-24.737549	0.000213	2.128404	0.721123	0.000085
1874	1.8636e+02	-5.3710	-24.624509	0.000284	2.837872	0.961497	0.000114
1875	1.8646e+02	-5.3293	-24.479173	0.000365	3.648693	1.236211	0.000146
1876	1.8656e+02	-5.2876	-24.333836	0.000365	3.648693	1.236211	0.000146
1877	1.8666e+02	-5.2539	-24.228870	0.000264	2.635167	0.892819	0.000105
1878	1.8676e+02	-5.2122	-24.115830	0.000284	2.837872	0.961497	0.000114
1879	1.8686e+02	-5.1913	-24.002791	0.000284	2.837872	0.961497	0.000114
1880	1.8696e+02	-5.1319	-23.853417	0.000375	3.750046	1.270550	0.000150
1881	1.8706e+02	-5.0966	-23.732302	0.000304	3.040577	1.030176	0.000122
1882	1.8716e+02	-5.0453	-23.643485	0.000223	2.229757	0.755462	0.000089
1883	1.8726e+02	-5.0148	-23.494111	0.000375	3.750046	1.270550	0.000150
1884	1.8736e+02	-4.9844	-23.336663	0.000395	3.952751	1.339228	0.000158
1885	1.8746e+02	-4.9378	-23.215549	0.000304	3.040577	1.030176	0.000122
1886	1.8756e+02	-4.8929	-23.106546	0.000274	2.736520	0.927158	0.000110
1887	1.8766e+02	-4.8576	-22.977358	0.000324	3.243283	1.098854	0.000130
1888	1.8776e+02	-4.8207	-22.860281	0.000294	2.939225	0.995836	0.000118
1889	1.8786e+02	-4.7838	-22.731093	0.000324	3.243283	1.098854	0.000130
1890	1.8796e+02	-4.7357	-22.593830	0.000345	3.445988	1.167532	0.000138
1891	1.8806e+02	-4.6892	-22.488865	0.000264	2.635167	0.892819	0.000105
1892	1.8815e+02	-4.6555	-22.363713	0.000314	3.141930	1.064515	0.000126
1893	1.8825e+02	-4.6106	-22.222414	0.000355	3.547340	1.201871	0.000142
1894	1.8835e+02	-4.5801	-22.113411	0.000274	2.736520	0.927158	0.000110
1895	1.8845e+02	-4.5464	-21.988260	0.000314	3.141930	1.064515	0.000126
1896	1.8855e+02	-4.4983	-21.859071	0.000324	3.243283	1.098854	0.000130
1897	1.8865e+02	-4.4582	-21.717772	0.000355	3.547340	1.201871	0.000142
1898	1.8875e+02	-4.4245	-21.612806	0.000264	2.635167	0.892819	0.000105
1899	1.8885e+02	-4.3715	-21.487655	0.000314	3.141930	1.064515	0.000126
1900	1.8895e+02	-4.3411	-21.342318	0.000365	3.648693	1.236211	0.000146
1901	1.8905e+02	-4.2897	-21.237353	0.000264	2.635167	0.892819	0.000105
1902	1.8915e+02	-4.2560	-21.124313	0.000284	2.837872	0.961497	0.000114
1903	1.8925e+02	-4.2191	-20.954753	0.000426	4.256808	1.442246	0.000170
1904	1.8935e+02	-4.1774	-20.857862	0.000243	2.432462	0.824140	0.000097
1905	1.8945e+02	-4.1421	-20.732711	0.000314	3.141930	1.064515	0.000126
1906	1.8955e+02	-4.1036	-20.595448	0.000345	3.445988	1.167532	0.000138
1907	1.8965e+02	-4.0587	-20.446074	0.000375	3.750046	1.270550	0.000150
1908	1.8975e+02	-4.0266	-20.365331	0.000203	2.027052	0.686784	0.000081
1909	1.8985e+02	-3.9817	-20.240180	0.000314	3.141930	1.064515	0.000126
1910	1.8995e+02	-3.9432	-20.110992	0.000324	3.243283	1.098854	0.000130
1911	1.9004e+02	-3.9063	-19.953543	0.000395	3.952751	1.339228	0.000158
1912	1.9014e+02	-3.8550	-19.856652	0.000243	2.432462	0.824140	0.000097
1913	1.9024e+02	-3.8229	-19.731501	0.000314	3.141930	1.064515	0.000126
1914	1.9034e+02	-3.7780	-19.594238	0.000345	3.445988	1.167532	0.000138
1915	1.9044e+02	-3.7395	-19.448901	0.000365	3.648693	1.236211	0.000146
1916	1.9054e+02	-3.6962	-19.299527	0.000375	3.750046	1.270550	0.000150
1917	1.9064e+02	-3.6609	-19.190525	0.000274	2.736520	0.927158	0.000110
1918	1.9074e+02	-3.6272	-19.057299	0.000334	3.344635	1.133193	0.000134
1919	1.9084e+02	-3.5790	-18.940222	0.000294	2.939225	0.995836	0.000118
1920	1.9094e+02	-3.5341	-18.819108	0.000304	3.040577	1.030176	0.000122
1921	1.9104e+02	-3.5117	-18.669734	0.000375	3.750046	1.270550	0.000150
1922	1.9114e+02	-3.4667	-18.552657	0.000294	2.939225	0.995836	0.000118
1923	1.9124e+02	-3.4170	-18.383098	0.000426	4.256808	1.442246	0.000170
1924	1.9134e+02	-3.3737	-18.257946	0.000314	3.141930	1.064515	0.000126
1925	1.9144e+02	-3.3400	-18.132795	0.000314	3.141930	1.064515	0.000126
1926	1.9154e+02	-3.2951	-17.983421	0.000375	3.750046	1.270550	0.000150
1927	1.9164e+02	-3.2566	-17.854233	0.000324	3.243283	1.098854	0.000130
1928	1.9174e+02	-3.2181	-17.704859	0.000375	3.750046	1.270550	0.000150
1929	1.9184e+02	-3.1892	-17.620079	0.000213	2.128404	0.721123	0.000085
1930	1.9194e+02	-3.1427	-17.466668	0.000385	3.851398	1.304889	0.000154
1931	1.9203e+02	-3.1058	-17.361702	0.000264	2.635167	0.892819	0.000105
1932	1.9213e+02	-3.0609	-17.216365	0.000365	3.648693	1.236211	0.000146
1933	1.9223e+02	-3.0192	-17.050843	0.000416	4.155456	1.407907	0.000166
1934	1.9233e+02	-2.9871	-16.962026	0.000223	2.229757	0.755462	0.000089
1935	1.9243e+02	-2.9486	-16.812652	0.000375	3.750046	1.270550	0.000150
1936	1.9253e+02	-2.9037	-16.671352	0.000355	3.547340	1.201871	0.000142
1937	1.9263e+02	-2.8700	-16.534089	0.000345	3.445988	1.167532	0.000138
1938	1.9273e+02	-2.8267	-16.396827	0.000345	3.445988	1.167532	0.000138
1939	1.9283e+02	-2.7946	-16.255527	0.000355	3.547340	1.201871	0.000142
1940	1.9293e+02	-2.7400	-16.186896	0.000172	1.722994	0.583766	0.000069
1941	1.9303e+02	-2.7128	-16.045596	0.000355	3.547340	1.201871	0.000142
1942	1.9313e+02	-2.6614	-15.884111	0.000405	4.054103	1.373567	0.000162
1943	1.9323e+02	-2.6197	-15.734737	0.000375	3.750046	1.270550	0.000150
1944	1.9333e+02	-2.5908	-15.633808	0.000253	2.533815	0.858480	0.000101
1945	1.9343e+02	-2.5523	-15.435988	0.000497	4.966277	1.682620	0.000199
1946	1.9353e+02	-2.5058	-15.363320	0.000182	1.824346	0.618105	0.000073
1947	1.9363e+02	-2.4673	-15.213946	0.000375	3.750046	1.270550	0.000150
1948	1.9373e+02	-2.4272	-15.108980	0.000264	2.635167	0.892819	0.000105
1949	1.9383e+02	-2.3791	-14.915198	0.000486	4.864924	1.648281	0.000195
1950	1.9393e+02	-2.3486	-14.818307	0.000243	2.432462	0.824140	0.000097
1951	1.9403e+02	-2.2989	-14.660858	0.000395	3.952751	1.339228	0.000158
1952	1.9412e+02	-2.2620	-14.576079	0.000213	2.128404	0.721123	0.000085
1953	1.9422e+02	-2.2267	-14.406519	0.000426	4.256808	1.442246	0.000170
1954	1.9432e+02	-2.1834	-14.305590	0.000253	2.533815	0.858480	0.000101
1955	1.9442e+02	-2.1400	-14.184476	0.000304	3.040577	1.030176	0.000122
1956	1.9452e+02	-2.1192	-13.994731	0.000476	4.763571	1.613942	0.000191
1957	1.9462e+02	-2.0518	-13.913988	0.000203	2.027052	0.686784	0.000081
1958	1.9472e+02	-2.0229	-13.736354	0.000446	4.459514	1.510924	0.000179
1959	1.9482e+02	-1.9828	-13.578906	0.000395	3.952751	1.339228	0.000158
1960	1.9492e+02	-1.9475	-13.490089	0.000223	2.229757	0.755462	0.000089
1961	1.9502e+02	-1.9138	-13.352826	0.000345	3.445988	1.167532	0.000138
1962	1.9512e+02	-1.8689	-13.219601	0.000334	3.344635	1.133193	0.000134
1963	1.9522e+02	-1.8304	-13.106561	0.000284	2.837872	0.961497	0.000114
1964	1.9532e+02	-1.7823	-12.932964	0.000436	4.358161	1.476585	0.000174
1965	1.9542e+02	-1.7534	-12.791665	0.000355	3.547340	1.201871	0.000142
1966	1.9552e+02	-1.7133	-12.686699	0.000264	2.635167	0.892819	0.000105
1967	1.9562e+02	-1.6572	-12.573659	0.000284	2.837872	0.961497	0.000114
1968	1.9572e+02	-1.6347	-12.400062	0.000436	4.358161	1.476585	0.000174
1969	1.9582e+02	-1.5946	-12.307208	0.000233	2.331109	0.789801	0.000093
1970	1.9592e+02	-1.5465	-12.141686	0.000416	4.155456	1.407907	0.000166
1971	1.9601e+02	-1.5144	-12.016535	0.000314	3.141930	1.064515	0.000126
1972	1.9611e+02	-1.4663	-11.891383	0.000314	3.141930	1.064515	0.000126
1973	1.9621e+02	-1.4358	-11.770269	0.000304	3.040577	1.030176	0.000122
1974	1.9631e+02	-1.3861	-11.628969	0.000355	3.547340	1.201871	0.000142
1975	1.9641e+02	-1.3524	-11.435187	0.000486	4.864924	1.648281	0.000195
1976	1.9651e+02	-1.3091	-11.334259	0.000253	2.533815	0.858480	0.000101
1977	1.9661e+02	-1.2754	-11.205070	0.000324	3.243283	1.098854	0.000130
1978	1.9671e+02	-1.2288	-11.059733	0.000365	3.648693	1.236211	0.000146
1979	1.9681e+02	-1.1839	-10.954768	0.000264	2.635167	0.892819	0.000105
1980	1.9691e+02	-1.1486	-10.781171	0.000436	4.358161	1.476585	0.000174
1981	1.9701e+02	-1.1101	-10.660057	0.000304	3.040577	1.030176	0.000122
1982	1.9711e+02	-1.0732	-10.522794	0.000345	3.445988	1.167532	0.000138
1983	1.9721e+02	-1.0347	-10.401680	0.000304	3.040577	1.030176	0.000122
1984	1.9731e+02	-0.9866	-10.280566	0.000304	3.040577	1.030176	0.000122
1985	1.9741e+02	-0.9545	-10.143304	0.000345	3.445988	1.167532	0.000138
1986	1.9751e+02	-0.9160	-9.953558	0.000476	4.763571	1.613942	0.000191
1987	1.9761e+02	-0.8775	-9.812258	0.000355	3.547340	1.201871	0.000142
1988	1.9771e+02	-0.8294	-9.711330	0.000253	2.533815	0.858480	0.000101
1989	1.9781e+02	-0.7957	-9.557919	0.000385	3.851398	1.304889	0.000154
1990	1.9791e+02	-0.7492	-9.428731	0.000324	3.243283	1.098854	0.000130
1991	1.9800e+02	-0.7075	-9.299542	0.000324	3.243283	1.098854	0.000130
1992	1.9810e+02	-0.6738	-9.142094	0.000395	3.952751	1.339228	0.000158
1993	1.9820e+02	-0.6289	-9.004831	0.000345	3.445988	1.167532	0.000138
1994	1.9830e+02	-0.5920	-8.867569	0.000345	3.445988	1.167532	0.000138
1995	1.9840e+02	-0.5535	-8.746455	0.000304	3.040577	1.030176	0.000122
1996	1.9850e+02	-0.5198	-8.613229	0.000334	3.344635	1.133193	0.000134
1997	1.9860e+02	-0.4668	-8.459818	0.000385	3.851398	1.304889	0.000154
1998	1.9870e+02	-0.4331	-8.342741	0.000294	2.939225	0.995836	0.000118
1999	1.9880e+02	-0.3898	-8.189330	0.000385	3.851398	1.304889	0.000154
2000	1.9890e+02	-0.3545	-8.072253	0.000294	2.939225	0.995836	0.000118
2001	1.9900e+02	-0.3208	-7.947102	0.000314	3.141930	1.064515	0.000126
2002	1.9910e+02	-0.2743	-7.809839	0.000345	3.445988	1.167532	0.000138
2003	1.9920e+02	-0.2310	-7.672576	0.000345	3.445988	1.167532	0.000138
2004	1.9930e+02	-0.1909	-7.535314	0.000345	3.445988	1.167532	0.000138
2005	1.9940e+02	-0.1572	-7.402088	0.000334	3.344635	1.133193	0.000134
2006	1.9950e+02	-0.1139	-7.268863	0.000334	3.344635	1.133193	0.000134
2007	1.9960e+02	-0.0642	-7.107377	0.000405	4.054103	1.373567	0.000162
2008	1.9970e+02	-0.0497	-6.998375	0.000274	2.736520	0.927158	0.000110
2009	1.9980e+02	-0.0032	-6.857075	0.000274	2.736520	0.927158	0.000142

PMax (uC/cm2):	6.76e+01
Pr (uC/cm2):	3.74e+00
-Pr (uC/cm2):	-1.50e+00
PLoss (uC/cm2):	-1.50e+00
-Vc:	-1.09e+00
C (Max-Eff) (nF):	3.38e-01
K (Eff):	1.15e+03
Vert. (+/-Pr) Shift (uC/cm2):	1.12e+00
Offset (uC/cm2):	5.36e+00

A (Loop Area - uC/cm2·Volts):	1.74e-02



Hysteresis Version: 5.48.1 - Radiant Technologies, Inc., 1999 - 9/12/24

