»»»»»»»»»»»»»»»»»»»»»»»»»»»»»»»»»»»» Hysteresis ««««««««««««««««««««««««««««««««««««
»»»  Executed Version:	5.48.1
»»»  Vision Version:	5.48.4 (R)
»»»  Vision Compiled:	9/18/24
»»»  Driver Version:	5.47.0
»»»  Windows Version:	Windows 8 or 8.1
»»»  Processor Information:	x86 (AMD or Intel) - 32 Processors
»»»  Tester Name:	PMF21124-494 (100V)
»»»  Tester S/N:	PMF21124-494
»»»  Internal Amp Type:	100V RevK 270k
»»»  Internal Amp S/N:	iAB2-596/K     
»»»  Execution Count:	1
»»»»»»»»»»»»»»»»»»»»»»»»»»»»»»»»»»»»»»»»»»««««««««««««««««««««««««««««««««««««««««««

Stored:	6/19/2025 - 18:6:4
Configured:	06/19/25 10:04:32 AM
Executed:	06/19/25 06:05:12 PM

»»»»»»»»»»»»»»»»»»»»»»»»»»»»»»»»»»» Sample Info ««««««««««««««««««««««««««««««««««««
Sample Name:	
Lot Name:	
Wafer Name:	
Die Row/Column:	0/0
Capacitor Number:	0
Sample Area (cm2):	1.00e-04
Sample Thickness (microns):	3.00e-01

Amplifier:	Internal

»»»»»»»»»»»»»»»»»»»»»»»»»»»»»»»»»»» Tester Info «««««««««««««««««««««««««««««««««««
Tester Name:	PMF21124-494 (100V)
Tester Serial Number:	PMF21124-494
Return Signal Amp. Level:	0.19 [Index: 3]

»»»»»»»»»»»»»»»»»»»»»»»»»»»»»»»» Hysteresis Info ««««««««««««««««««««««««««««««««««
Task Name:	Hyst-1168
Volts:	20.00
Field:	666.67 (kV/cm)
DCBias:	0.00
DCField:	0.00 (kV/cm)
Hysteresis Period (ms):	2.00e+02
Preset:	Enabled
Preset Delay (ms):	1.00e+03
Profile:	Standard Bipolar

»»»»»»»»»»»»»»»»»»»»»»»»»»»»»»»»»»»»»» Data «««««««««««««««««««««««««««««««««««««««
Points:	2009

Valid Data

Point	Time (ms)	Drive Voltage	Measured Polarization (uC/cm2)	Capacitance (uF)	Normalized Capacitance (uF/cm2)	Dielectric Constant	Instantaneous Current (mA)
   1	0.0000e+00	0.0016	-4.402497	0.000162	1.622227	0.549625	0.000065
   2	9.9500e-02	0.0401	-4.337902	0.000162	1.622227	0.549625	0.000065
   3	1.9900e-01	0.0834	-4.220825	0.000294	2.940286	0.996196	0.000118
   4	2.9850e-01	0.1187	-4.071451	0.000375	3.751400	1.271009	0.000150
   5	3.9800e-01	0.1572	-3.938226	0.000335	3.345843	1.133602	0.000134
   6	4.9750e-01	0.1989	-3.784815	0.000385	3.852789	1.305360	0.000154
   7	5.9700e-01	0.2390	-3.659664	0.000314	3.143065	1.064899	0.000126
   8	6.9650e-01	0.2904	-3.570847	0.000223	2.230562	0.755735	0.000089
   9	7.9600e-01	0.3192	-3.469918	0.000253	2.534730	0.858790	0.000101
  10	8.9550e-01	0.3545	-3.364953	0.000264	2.636119	0.893141	0.000105
  11	9.9500e-01	0.3898	-3.191356	0.000436	4.359735	1.477118	0.000174
  12	1.0945e+00	0.4444	-3.070242	0.000304	3.041676	1.030548	0.000122
  13	1.1940e+00	0.4781	-2.985462	0.000213	2.129173	0.721383	0.000085
  14	1.2935e+00	0.5053	-2.844162	0.000355	3.548622	1.202306	0.000142
  15	1.3930e+00	0.5567	-2.694788	0.000375	3.751400	1.271009	0.000150
  16	1.4925e+00	0.5888	-2.597897	0.000243	2.433340	0.824438	0.000097
  17	1.5920e+00	0.6337	-2.452560	0.000365	3.650011	1.236657	0.000146
  18	1.6915e+00	0.6754	-2.351632	0.000253	2.534730	0.858790	0.000101
  19	1.7910e+00	0.7123	-2.226480	0.000314	3.143065	1.064899	0.000126
  20	1.8905e+00	0.7524	-2.036735	0.000477	4.765292	1.614525	0.000191
  21	1.9900e+00	0.7925	-1.960029	0.000193	1.926395	0.652680	0.000077
  22	2.0895e+00	0.8438	-1.822767	0.000345	3.447232	1.167954	0.000138
  23	2.1890e+00	0.8791	-1.689541	0.000335	3.345843	1.133602	0.000134
  24	2.2885e+00	0.9224	-1.515944	0.000436	4.359735	1.477118	0.000174
  25	2.3880e+00	0.9561	-1.443276	0.000183	1.825005	0.618329	0.000073
  26	2.4875e+00	0.9946	-1.249494	0.000487	4.866681	1.648876	0.000195
  27	2.5870e+00	1.0283	-1.140491	0.000274	2.737508	0.927493	0.000110
  28	2.6865e+00	1.0796	-1.015340	0.000314	3.143065	1.064899	0.000126
  29	2.7860e+00	1.1165	-0.865966	0.000375	3.751400	1.271009	0.000150
  30	2.8855e+00	1.1583	-0.781186	0.000213	2.129173	0.721383	0.000085
  31	2.9850e+00	1.1919	-0.631812	0.000375	3.751400	1.271009	0.000150
  32	3.0845e+00	1.2240	-0.494549	0.000345	3.447232	1.167954	0.000138
  33	3.1840e+00	1.2689	-0.361324	0.000335	3.345843	1.133602	0.000134
  34	3.2835e+00	1.3187	-0.232135	0.000324	3.244454	1.099251	0.000130
  35	3.3830e+00	1.3460	-0.098910	0.000335	3.345843	1.133602	0.000134
  36	3.4825e+00	1.3909	0.042390	0.000355	3.548622	1.202306	0.000142
  37	3.5820e+00	1.4294	0.147355	0.000264	2.636119	0.893141	0.000105
  38	3.6815e+00	1.4695	0.308841	0.000406	4.055567	1.374063	0.000162
  39	3.7810e+00	1.5160	0.413806	0.000264	2.636119	0.893141	0.000105
  40	3.8805e+00	1.5609	0.555106	0.000355	3.548622	1.202306	0.000142
  41	3.9800e+00	1.5914	0.704480	0.000375	3.751400	1.271009	0.000150
  42	4.0795e+00	1.6251	0.817520	0.000284	2.838897	0.961844	0.000114
  43	4.1790e+00	1.6684	0.970931	0.000385	3.852789	1.305360	0.000154
  44	4.2785e+00	1.7053	1.079934	0.000274	2.737508	0.927493	0.000110
  45	4.3780e+00	1.7518	1.192974	0.000284	2.838897	0.961844	0.000114
  46	4.4775e+00	1.7871	1.326199	0.000335	3.345843	1.133602	0.000134
  47	4.5770e+00	1.8272	1.463462	0.000345	3.447232	1.167954	0.000138
  48	4.6765e+00	1.8721	1.620910	0.000395	3.954178	1.339712	0.000158
  49	4.7760e+00	1.9138	1.737987	0.000294	2.940286	0.996196	0.000118
  50	4.8755e+00	1.9507	1.875250	0.000345	3.447232	1.167954	0.000138
  51	4.9750e+00	1.9925	1.996364	0.000304	3.041676	1.030548	0.000122
  52	5.0745e+00	2.0261	2.117478	0.000304	3.041676	1.030548	0.000122
  53	5.1740e+00	2.0630	2.291075	0.000436	4.359735	1.477118	0.000174
  54	5.2735e+00	2.1064	2.375854	0.000213	2.129173	0.721383	0.000085
  55	5.3730e+00	2.1561	2.541377	0.000416	4.156957	1.408415	0.000166
  56	5.4725e+00	2.1914	2.678640	0.000345	3.447232	1.167954	0.000138
  57	5.5720e+00	2.2363	2.791679	0.000284	2.838897	0.961844	0.000114
  58	5.6715e+00	2.2700	2.949128	0.000395	3.954178	1.339712	0.000158
  59	5.7710e+00	2.3085	3.070242	0.000304	3.041676	1.030548	0.000122
  60	5.8705e+00	2.3454	3.195393	0.000314	3.143065	1.064899	0.000126
  61	5.9700e+00	2.3887	3.312470	0.000294	2.940286	0.996196	0.000118
  62	6.0695e+00	2.4352	3.457807	0.000365	3.650011	1.236657	0.000146
  63	6.1690e+00	2.4673	3.582958	0.000314	3.143065	1.064899	0.000126
  64	6.2685e+00	2.5026	3.671775	0.000223	2.230562	0.755735	0.000089
  65	6.3680e+00	2.5475	3.825186	0.000385	3.852789	1.305360	0.000154
  66	6.4675e+00	2.5876	3.954374	0.000324	3.244454	1.099251	0.000130
  67	6.5670e+00	2.6213	4.123934	0.000426	4.258346	1.442767	0.000170
  68	6.6665e+00	2.6630	4.220825	0.000243	2.433340	0.824438	0.000097
  69	6.7660e+00	2.7063	4.362125	0.000355	3.548622	1.202306	0.000142
  70	6.8655e+00	2.7448	4.527648	0.000416	4.156957	1.408415	0.000166
  71	6.9650e+00	2.7833	4.644725	0.000294	2.940286	0.996196	0.000118
  72	7.0645e+00	2.8283	4.757764	0.000284	2.838897	0.961844	0.000114
  73	7.1640e+00	2.8636	4.854656	0.000243	2.433340	0.824438	0.000097
  74	7.2635e+00	2.9149	5.056513	0.000507	5.069459	1.717579	0.000203
  75	7.3630e+00	2.9470	5.153404	0.000243	2.433340	0.824438	0.000097
  76	7.4625e+00	2.9839	5.302778	0.000375	3.751400	1.271009	0.000150
  77	7.5620e+00	3.0208	5.456189	0.000385	3.852789	1.305360	0.000154
  78	7.6615e+00	3.0673	5.601526	0.000365	3.650011	1.236657	0.000146
  79	7.7610e+00	3.1122	5.666120	0.000162	1.622227	0.549625	0.000065
  80	7.8605e+00	3.1379	5.843754	0.000446	4.461124	1.511470	0.000179
  81	7.9600e+00	3.1828	5.968905	0.000314	3.143065	1.064899	0.000126
  82	8.0595e+00	3.2245	6.081945	0.000284	2.838897	0.961844	0.000114
  83	8.1590e+00	3.2774	6.255542	0.000436	4.359735	1.477118	0.000174
  84	8.2585e+00	3.3015	6.356470	0.000253	2.534730	0.858790	0.000101
  85	8.3580e+00	3.3464	6.485659	0.000324	3.244454	1.099251	0.000130
  86	8.4575e+00	3.3946	6.626958	0.000355	3.548622	1.202306	0.000142
  87	8.5570e+00	3.4266	6.784407	0.000395	3.954178	1.339712	0.000158
  88	8.6565e+00	3.4603	6.885335	0.000253	2.534730	0.858790	0.000101
  89	8.7560e+00	3.5020	7.050858	0.000416	4.156957	1.408415	0.000166
  90	8.8555e+00	3.5486	7.176009	0.000314	3.143065	1.064899	0.000126
  91	8.9550e+00	3.5951	7.313271	0.000345	3.447232	1.167954	0.000138
  92	9.0545e+00	3.6320	7.422274	0.000274	2.737508	0.927493	0.000110
  93	9.1540e+00	3.6625	7.579722	0.000395	3.954178	1.339712	0.000158
  94	9.2535e+00	3.7026	7.708911	0.000324	3.244454	1.099251	0.000130
  95	9.3530e+00	3.7507	7.842136	0.000335	3.345843	1.133602	0.000134
  96	9.4525e+00	3.7908	7.963250	0.000304	3.041676	1.030548	0.000122
  97	9.5520e+00	3.8261	8.104550	0.000355	3.548622	1.202306	0.000142
  98	9.6515e+00	3.8678	8.197404	0.000233	2.331951	0.790086	0.000093
  99	9.7510e+00	3.9015	8.371001	0.000436	4.359735	1.477118	0.000174
 100	9.8505e+00	3.9448	8.475966	0.000264	2.636119	0.893141	0.000105
 101	9.9500e+00	3.9849	8.605155	0.000324	3.244454	1.099251	0.000130
 102	1.0050e+01	4.0266	8.742417	0.000345	3.447232	1.167954	0.000138
 103	1.0149e+01	4.0667	8.907940	0.000416	4.156957	1.408415	0.000166
 104	1.0248e+01	4.0988	8.984646	0.000193	1.926395	0.652680	0.000077
 105	1.0348e+01	4.1502	9.186502	0.000507	5.069459	1.717579	0.000203
 106	1.0447e+01	4.1726	9.291468	0.000264	2.636119	0.893141	0.000105
 107	1.0547e+01	4.2159	9.416619	0.000314	3.143065	1.064899	0.000126
 108	1.0646e+01	4.2576	9.578105	0.000406	4.055567	1.374063	0.000162
 109	1.0746e+01	4.3026	9.674996	0.000243	2.433340	0.824438	0.000097
 110	1.0845e+01	4.3443	9.816296	0.000355	3.548622	1.202306	0.000142
 111	1.0945e+01	4.3796	9.957595	0.000355	3.548622	1.202306	0.000142
 112	1.1044e+01	4.4132	10.074672	0.000294	2.940286	0.996196	0.000118
 113	1.1144e+01	4.4646	10.211935	0.000345	3.447232	1.167954	0.000138
 114	1.1243e+01	4.5111	10.324975	0.000284	2.838897	0.961844	0.000114
 115	1.1343e+01	4.5400	10.421866	0.000243	2.433340	0.824438	0.000097
 116	1.1443e+01	4.5849	10.603537	0.000456	4.562513	1.545821	0.000183
 117	1.1542e+01	4.6218	10.736762	0.000335	3.345843	1.133602	0.000134
 118	1.1642e+01	4.6571	10.861914	0.000314	3.143065	1.064899	0.000126
 119	1.1741e+01	4.6972	10.930545	0.000172	1.723616	0.583977	0.000069
 120	1.1841e+01	4.7453	11.071845	0.000355	3.548622	1.202306	0.000142
 121	1.1940e+01	4.7806	11.221219	0.000375	3.751400	1.271009	0.000150
 122	1.2040e+01	4.8207	11.362519	0.000355	3.548622	1.202306	0.000142
 123	1.2139e+01	4.8528	11.459410	0.000243	2.433340	0.824438	0.000097
 124	1.2239e+01	4.9009	11.641081	0.000456	4.562513	1.545821	0.000183
 125	1.2338e+01	4.9298	11.746046	0.000264	2.636119	0.893141	0.000105
 126	1.2438e+01	4.9795	11.903495	0.000395	3.954178	1.339712	0.000158
 127	1.2537e+01	5.0180	11.996349	0.000233	2.331951	0.790086	0.000093
 128	1.2636e+01	5.0646	12.161871	0.000416	4.156957	1.408415	0.000166
 129	1.2736e+01	5.1031	12.242614	0.000203	2.027784	0.687032	0.000081
 130	1.2835e+01	5.1432	12.400062	0.000395	3.954178	1.339712	0.000158
 131	1.2935e+01	5.1785	12.541362	0.000355	3.548622	1.202306	0.000142
 132	1.3034e+01	5.2186	12.682662	0.000355	3.548622	1.202306	0.000142
 133	1.3134e+01	5.2539	12.827999	0.000365	3.650011	1.236657	0.000146
 134	1.3233e+01	5.3020	12.912779	0.000213	2.129173	0.721383	0.000085
 135	1.3333e+01	5.3469	13.102524	0.000477	4.765292	1.614525	0.000191
 136	1.3432e+01	5.3742	13.211527	0.000274	2.737508	0.927493	0.000110
 137	1.3532e+01	5.4159	13.368975	0.000395	3.954178	1.339712	0.000158
 138	1.3632e+01	5.4528	13.453755	0.000213	2.129173	0.721383	0.000085
 139	1.3731e+01	5.4929	13.603129	0.000375	3.751400	1.271009	0.000150
 140	1.3831e+01	5.5298	13.728280	0.000314	3.143065	1.064899	0.000126
 141	1.3930e+01	5.5763	13.889766	0.000406	4.055567	1.374063	0.000162
 142	1.4030e+01	5.6148	13.998768	0.000274	2.737508	0.927493	0.000110
 143	1.4129e+01	5.6533	14.156216	0.000395	3.954178	1.339712	0.000158
 144	1.4229e+01	5.7047	14.257145	0.000253	2.534730	0.858790	0.000101
 145	1.4328e+01	5.7399	14.406519	0.000375	3.751400	1.271009	0.000150
 146	1.4428e+01	5.7704	14.543781	0.000345	3.447232	1.167954	0.000138
 147	1.4527e+01	5.8202	14.664896	0.000304	3.041676	1.030548	0.000122
 148	1.4627e+01	5.8458	14.818307	0.000385	3.852789	1.305360	0.000154
 149	1.4726e+01	5.8891	14.943458	0.000314	3.143065	1.064899	0.000126
 150	1.4825e+01	5.9357	15.032275	0.000223	2.230562	0.755735	0.000089
 151	1.4925e+01	5.9742	15.189723	0.000395	3.954178	1.339712	0.000158
 152	1.5024e+01	6.0111	15.306800	0.000294	2.940286	0.996196	0.000118
 153	1.5124e+01	6.0608	15.456174	0.000375	3.751400	1.271009	0.000150
 154	1.5223e+01	6.0945	15.605548	0.000375	3.751400	1.271009	0.000150
 155	1.5323e+01	6.1426	15.750885	0.000365	3.650011	1.236657	0.000146
 156	1.5422e+01	6.1747	15.843739	0.000233	2.331951	0.790086	0.000093
 157	1.5522e+01	6.2244	15.976965	0.000335	3.345843	1.133602	0.000134
 158	1.5621e+01	6.2485	16.090004	0.000284	2.838897	0.961844	0.000114
 159	1.5721e+01	6.2982	16.251490	0.000406	4.055567	1.374063	0.000162
 160	1.5820e+01	6.3415	16.368567	0.000294	2.940286	0.996196	0.000118
 161	1.5920e+01	6.3672	16.477570	0.000274	2.737508	0.927493	0.000110
 162	1.6020e+01	6.4233	16.626944	0.000375	3.751400	1.271009	0.000150
 163	1.6119e+01	6.4522	16.780355	0.000385	3.852789	1.305360	0.000154
 164	1.6218e+01	6.4795	16.909543	0.000324	3.244454	1.099251	0.000130
 165	1.6318e+01	6.5421	17.038731	0.000324	3.244454	1.099251	0.000130
 166	1.6418e+01	6.5741	17.171957	0.000335	3.345843	1.133602	0.000134
 167	1.6517e+01	6.6126	17.305182	0.000335	3.345843	1.133602	0.000134
 168	1.6616e+01	6.6576	17.422259	0.000294	2.940286	0.996196	0.000118
 169	1.6716e+01	6.6913	17.583745	0.000406	4.055567	1.374063	0.000162
 170	1.6816e+01	6.7378	17.712933	0.000324	3.244454	1.099251	0.000130
 171	1.6915e+01	6.7634	17.805787	0.000233	2.331951	0.790086	0.000093
 172	1.7015e+01	6.8132	17.967273	0.000406	4.055567	1.374063	0.000162
 173	1.7114e+01	6.8597	18.124721	0.000395	3.954178	1.339712	0.000158
 174	1.7213e+01	6.8886	18.237761	0.000284	2.838897	0.961844	0.000114
 175	1.7313e+01	6.9303	18.326578	0.000223	2.230562	0.755735	0.000089
 176	1.7413e+01	6.9768	18.488063	0.000406	4.055567	1.374063	0.000162
 177	1.7512e+01	7.0137	18.609177	0.000304	3.041676	1.030548	0.000122
 178	1.7611e+01	7.0506	18.766625	0.000395	3.954178	1.339712	0.000158
 179	1.7711e+01	7.0859	18.907925	0.000355	3.548622	1.202306	0.000142
 180	1.7811e+01	7.1292	19.061336	0.000385	3.852789	1.305360	0.000154
 181	1.7910e+01	7.1741	19.182450	0.000304	3.041676	1.030548	0.000122
 182	1.8009e+01	7.2078	19.287416	0.000264	2.636119	0.893141	0.000105
 183	1.8109e+01	7.2543	19.396419	0.000274	2.737508	0.927493	0.000110
 184	1.8209e+01	7.2896	19.561941	0.000416	4.156957	1.408415	0.000166
 185	1.8308e+01	7.3265	19.715352	0.000385	3.852789	1.305360	0.000154
 186	1.8407e+01	7.3698	19.852615	0.000345	3.447232	1.167954	0.000138
 187	1.8507e+01	7.4083	19.949506	0.000243	2.433340	0.824438	0.000097
 188	1.8607e+01	7.4420	20.110992	0.000406	4.055567	1.374063	0.000162
 189	1.8706e+01	7.4934	20.224031	0.000284	2.838897	0.961844	0.000114
 190	1.8805e+01	7.5351	20.373406	0.000375	3.751400	1.271009	0.000150
 191	1.8905e+01	7.5640	20.502594	0.000324	3.244454	1.099251	0.000130
 192	1.9005e+01	7.5976	20.615634	0.000284	2.838897	0.961844	0.000114
 193	1.9104e+01	7.6554	20.777119	0.000406	4.055567	1.374063	0.000162
 194	1.9203e+01	7.6923	20.930530	0.000385	3.852789	1.305360	0.000154
 195	1.9303e+01	7.7340	21.031459	0.000253	2.534730	0.858790	0.000101
 196	1.9402e+01	7.7709	21.188907	0.000395	3.954178	1.339712	0.000158
 197	1.9502e+01	7.8126	21.305984	0.000294	2.940286	0.996196	0.000118
 198	1.9602e+01	7.8431	21.479581	0.000436	4.359735	1.477118	0.000174
 199	1.9701e+01	7.8928	21.628955	0.000375	3.751400	1.271009	0.000150
 200	1.9800e+01	7.9217	21.729883	0.000253	2.534730	0.858790	0.000101
 201	1.9900e+01	7.9602	21.899443	0.000426	4.258346	1.442767	0.000170
 202	2.0000e+01	8.0003	22.016520	0.000294	2.940286	0.996196	0.000118
 203	2.0099e+01	8.0404	22.141671	0.000314	3.143065	1.064899	0.000126
 204	2.0198e+01	8.0837	22.266822	0.000314	3.143065	1.064899	0.000126
 205	2.0298e+01	8.1367	22.412159	0.000365	3.650011	1.236657	0.000146
 206	2.0398e+01	8.1575	22.557496	0.000365	3.650011	1.236657	0.000146
 207	2.0497e+01	8.2121	22.702833	0.000365	3.650011	1.236657	0.000146
 208	2.0596e+01	8.2393	22.819910	0.000294	2.940286	0.996196	0.000118
 209	2.0696e+01	8.2810	22.973321	0.000385	3.852789	1.305360	0.000154
 210	2.0796e+01	8.3260	23.106546	0.000335	3.345843	1.133602	0.000134
 211	2.0895e+01	8.3693	23.231698	0.000314	3.143065	1.064899	0.000126
 212	2.0994e+01	8.3982	23.405294	0.000436	4.359735	1.477118	0.000174
 213	2.1094e+01	8.4367	23.510260	0.000264	2.636119	0.893141	0.000105
 214	2.1194e+01	8.4896	23.659634	0.000375	3.751400	1.271009	0.000150
 215	2.1293e+01	8.5217	23.800934	0.000355	3.548622	1.202306	0.000142
 216	2.1392e+01	8.5730	23.913974	0.000284	2.838897	0.961844	0.000114
 217	2.1492e+01	8.5971	24.039125	0.000314	3.143065	1.064899	0.000126
 218	2.1591e+01	8.6452	24.164276	0.000314	3.143065	1.064899	0.000126
 219	2.1691e+01	8.6885	24.329799	0.000416	4.156957	1.408415	0.000166
 220	2.1791e+01	8.7126	24.446875	0.000294	2.940286	0.996196	0.000118
 221	2.1890e+01	8.7575	24.576064	0.000324	3.244454	1.099251	0.000130
 222	2.1989e+01	8.7992	24.705252	0.000324	3.244454	1.099251	0.000130
 223	2.2089e+01	8.8457	24.822329	0.000294	2.940286	0.996196	0.000118
 224	2.2189e+01	8.8891	24.991889	0.000426	4.258346	1.442767	0.000170
 225	2.2288e+01	8.9292	25.137226	0.000365	3.650011	1.236657	0.000146
 226	2.2387e+01	8.9645	25.242191	0.000264	2.636119	0.893141	0.000105
 227	2.2487e+01	8.9949	25.379454	0.000345	3.447232	1.167954	0.000138
 228	2.2587e+01	9.0415	25.524791	0.000365	3.650011	1.236657	0.000146
 229	2.2686e+01	9.0767	25.666090	0.000355	3.548622	1.202306	0.000142
 230	2.2785e+01	9.1217	25.775093	0.000274	2.737508	0.927493	0.000110
 231	2.2885e+01	9.1730	25.904281	0.000324	3.244454	1.099251	0.000130
 232	2.2985e+01	9.1955	26.077878	0.000436	4.359735	1.477118	0.000174
 233	2.3084e+01	9.2372	26.182844	0.000264	2.636119	0.893141	0.000105
 234	2.3183e+01	9.2853	26.320106	0.000345	3.447232	1.167954	0.000138
 235	2.3283e+01	9.3270	26.457369	0.000345	3.447232	1.167954	0.000138
 236	2.3383e+01	9.3655	26.578483	0.000304	3.041676	1.030548	0.000122
 237	2.3482e+01	9.4008	26.699597	0.000304	3.041676	1.030548	0.000122
 238	2.3581e+01	9.4457	26.857045	0.000395	3.954178	1.339712	0.000158
 239	2.3681e+01	9.4842	26.994308	0.000345	3.447232	1.167954	0.000138
 240	2.3780e+01	9.5243	27.139645	0.000365	3.650011	1.236657	0.000146
 241	2.3880e+01	9.5676	27.212313	0.000183	1.825005	0.618329	0.000073
 242	2.3980e+01	9.5949	27.373799	0.000406	4.055567	1.374063	0.000162
 243	2.4079e+01	9.6479	27.535284	0.000406	4.055567	1.374063	0.000162
 244	2.4178e+01	9.6767	27.656398	0.000304	3.041676	1.030548	0.000122
 245	2.4278e+01	9.7184	27.781550	0.000314	3.143065	1.064899	0.000126
 246	2.4378e+01	9.7602	27.922849	0.000355	3.548622	1.202306	0.000142
 247	2.4477e+01	9.8051	28.076260	0.000385	3.852789	1.305360	0.000154
 248	2.4576e+01	9.8372	28.201412	0.000314	3.143065	1.064899	0.000126
 249	2.4676e+01	9.8837	28.286192	0.000213	2.129173	0.721383	0.000085
 250	2.4776e+01	9.9142	28.423454	0.000345	3.447232	1.167954	0.000138
 251	2.4875e+01	9.9623	28.588977	0.000416	4.156957	1.408415	0.000166
 252	2.4974e+01	9.9960	28.706054	0.000294	2.940286	0.996196	0.000118
 253	2.5074e+01	10.0361	28.867539	0.000406	4.055567	1.374063	0.000162
 254	2.5174e+01	10.0794	29.012876	0.000365	3.650011	1.236657	0.000146
 255	2.5273e+01	10.1211	29.150139	0.000345	3.447232	1.167954	0.000138
 256	2.5372e+01	10.1660	29.247030	0.000243	2.433340	0.824438	0.000097
 257	2.5472e+01	10.1917	29.376218	0.000324	3.244454	1.099251	0.000130
 258	2.5572e+01	10.2382	29.505407	0.000324	3.244454	1.099251	0.000130
 259	2.5671e+01	10.2767	29.670929	0.000416	4.156957	1.408415	0.000166
 260	2.5770e+01	10.3200	29.812229	0.000355	3.548622	1.202306	0.000142
 261	2.5870e+01	10.3489	29.901046	0.000223	2.230562	0.755735	0.000089
 262	2.5970e+01	10.3986	30.062531	0.000406	4.055567	1.374063	0.000162
 263	2.6069e+01	10.4323	30.183645	0.000304	3.041676	1.030548	0.000122
 264	2.6169e+01	10.4821	30.300722	0.000294	2.940286	0.996196	0.000118
 265	2.6268e+01	10.5157	30.454133	0.000385	3.852789	1.305360	0.000154
 266	2.6367e+01	10.5542	30.575248	0.000304	3.041676	1.030548	0.000122
 267	2.6467e+01	10.5960	30.704436	0.000324	3.244454	1.099251	0.000130
 268	2.6567e+01	10.6393	30.841698	0.000345	3.447232	1.167954	0.000138
 269	2.6666e+01	10.6698	30.978961	0.000345	3.447232	1.167954	0.000138
 270	2.6765e+01	10.7050	31.116224	0.000345	3.447232	1.167954	0.000138
 271	2.6865e+01	10.7532	31.253486	0.000345	3.447232	1.167954	0.000138
 272	2.6965e+01	10.7965	31.366526	0.000284	2.838897	0.961844	0.000114
 273	2.7064e+01	10.8414	31.491677	0.000314	3.143065	1.064899	0.000126
 274	2.7163e+01	10.8703	31.632977	0.000355	3.548622	1.202306	0.000142
 275	2.7263e+01	10.9168	31.741980	0.000274	2.737508	0.927493	0.000110
 276	2.7363e+01	10.9521	31.899428	0.000395	3.954178	1.339712	0.000158
 277	2.7462e+01	10.9922	31.996319	0.000243	2.433340	0.824438	0.000097
 278	2.7561e+01	11.0291	32.105322	0.000274	2.737508	0.927493	0.000110
 279	2.7661e+01	11.0708	32.234510	0.000324	3.244454	1.099251	0.000130
 280	2.7761e+01	11.1093	32.395996	0.000406	4.055567	1.374063	0.000162
 281	2.7860e+01	11.1478	32.533258	0.000345	3.447232	1.167954	0.000138
 282	2.7959e+01	11.1959	32.646298	0.000284	2.838897	0.961844	0.000114
 283	2.8059e+01	11.2264	32.739152	0.000233	2.331951	0.790086	0.000093
 284	2.8159e+01	11.2713	32.904675	0.000416	4.156957	1.408415	0.000166
 285	2.8258e+01	11.3130	33.050012	0.000365	3.650011	1.236657	0.000146
 286	2.8358e+01	11.3596	33.187274	0.000345	3.447232	1.167954	0.000138
 287	2.8457e+01	11.3965	33.272054	0.000213	2.129173	0.721383	0.000085
 288	2.8556e+01	11.4286	33.401243	0.000324	3.244454	1.099251	0.000130
 289	2.8656e+01	11.4751	33.530431	0.000324	3.244454	1.099251	0.000130
 290	2.8756e+01	11.5007	33.667693	0.000345	3.447232	1.167954	0.000138
 291	2.8855e+01	11.5521	33.792845	0.000314	3.143065	1.064899	0.000126
 292	2.8954e+01	11.6002	33.905884	0.000284	2.838897	0.961844	0.000114
 293	2.9054e+01	11.6259	33.986627	0.000203	2.027784	0.687032	0.000081
 294	2.9154e+01	11.6628	34.180410	0.000487	4.866681	1.648876	0.000195
 295	2.9253e+01	11.7173	34.321709	0.000355	3.548622	1.202306	0.000142
 296	2.9352e+01	11.7478	34.390341	0.000172	1.723616	0.583977	0.000069
 297	2.9452e+01	11.7911	34.539715	0.000375	3.751400	1.271009	0.000150
 298	2.9552e+01	11.8360	34.693126	0.000385	3.852789	1.305360	0.000154
 299	2.9651e+01	11.8697	34.810203	0.000294	2.940286	0.996196	0.000118
 300	2.9750e+01	11.9114	34.915168	0.000264	2.636119	0.893141	0.000105
 301	2.9850e+01	11.9515	35.072617	0.000395	3.954178	1.339712	0.000158
 302	2.9950e+01	11.9900	35.217954	0.000365	3.650011	1.236657	0.000146
 303	3.0049e+01	12.0269	35.330993	0.000284	2.838897	0.961844	0.000114
 304	3.0148e+01	12.0622	35.419810	0.000223	2.230562	0.755735	0.000089
 305	3.0248e+01	12.1120	35.573222	0.000385	3.852789	1.305360	0.000154
 306	3.0348e+01	12.1424	35.694336	0.000304	3.041676	1.030548	0.000122
 307	3.0447e+01	12.1906	35.876007	0.000456	4.562513	1.545821	0.000183
 308	3.0547e+01	12.2259	35.964824	0.000223	2.230562	0.755735	0.000089
 309	3.0646e+01	12.2708	36.077864	0.000284	2.838897	0.961844	0.000114
 310	3.0745e+01	12.3173	36.235312	0.000395	3.954178	1.339712	0.000158
 311	3.0845e+01	12.3590	36.352389	0.000294	2.940286	0.996196	0.000118
 312	3.0945e+01	12.3975	36.489651	0.000345	3.447232	1.167954	0.000138
 313	3.1044e+01	12.4312	36.622877	0.000335	3.345843	1.133602	0.000134
 314	3.1143e+01	12.4697	36.683434	0.000152	1.520838	0.515274	0.000061
 315	3.1243e+01	12.5114	36.857031	0.000436	4.359735	1.477118	0.000174
 316	3.1343e+01	12.5435	36.974108	0.000294	2.940286	0.996196	0.000118
 317	3.1442e+01	12.5932	37.131556	0.000395	3.954178	1.339712	0.000158
 318	3.1541e+01	12.6349	37.212299	0.000203	2.027784	0.687032	0.000081
 319	3.1641e+01	12.6734	37.377821	0.000416	4.156957	1.408415	0.000166
 320	3.1741e+01	12.7103	37.486824	0.000274	2.737508	0.927493	0.000110
 321	3.1840e+01	12.7553	37.656384	0.000426	4.258346	1.442767	0.000170
 322	3.1939e+01	12.7873	37.753275	0.000243	2.433340	0.824438	0.000097
 323	3.2039e+01	12.8274	37.862278	0.000274	2.737508	0.927493	0.000110
 324	3.2139e+01	12.8643	38.003577	0.000355	3.548622	1.202306	0.000142
 325	3.2238e+01	12.9061	38.144877	0.000355	3.548622	1.202306	0.000142
 326	3.2337e+01	12.9397	38.237731	0.000233	2.331951	0.790086	0.000093
 327	3.2437e+01	12.9798	38.391142	0.000385	3.852789	1.305360	0.000154
 328	3.2536e+01	13.0183	38.475922	0.000213	2.129173	0.721383	0.000085
 329	3.2636e+01	13.0729	38.601073	0.000314	3.143065	1.064899	0.000126
 330	3.2736e+01	13.1002	38.734299	0.000335	3.345843	1.133602	0.000134
 331	3.2835e+01	13.1419	38.867524	0.000335	3.345843	1.133602	0.000134
 332	3.2934e+01	13.1820	39.008824	0.000355	3.548622	1.202306	0.000142
 333	3.3034e+01	13.2269	39.121864	0.000284	2.838897	0.961844	0.000114
 334	3.3133e+01	13.2670	39.238941	0.000294	2.940286	0.996196	0.000118
 335	3.3233e+01	13.2975	39.368129	0.000324	3.244454	1.099251	0.000130
 336	3.3333e+01	13.3440	39.525577	0.000395	3.954178	1.339712	0.000158
 337	3.3432e+01	13.3809	39.642654	0.000294	2.940286	0.996196	0.000118
 338	3.3532e+01	13.4178	39.755694	0.000284	2.838897	0.961844	0.000114
 339	3.3631e+01	13.4627	39.860660	0.000264	2.636119	0.893141	0.000105
 340	3.3730e+01	13.5060	39.961588	0.000253	2.534730	0.858790	0.000101
 341	3.3830e+01	13.5542	40.159408	0.000497	4.968070	1.683228	0.000199
 342	3.3929e+01	13.5782	40.276485	0.000294	2.940286	0.996196	0.000118
 343	3.4029e+01	13.6264	40.429896	0.000385	3.852789	1.305360	0.000154
 344	3.4129e+01	13.6616	40.514676	0.000213	2.129173	0.721383	0.000085
 345	3.4228e+01	13.7001	40.660013	0.000365	3.650011	1.236657	0.000146
 346	3.4328e+01	13.7322	40.773052	0.000284	2.838897	0.961844	0.000114
 347	3.4427e+01	13.7772	40.946649	0.000436	4.359735	1.477118	0.000174
 348	3.4526e+01	13.8205	41.031429	0.000213	2.129173	0.721383	0.000085
 349	3.4626e+01	13.8654	41.120246	0.000223	2.230562	0.755735	0.000089
 350	3.4725e+01	13.9087	41.322103	0.000507	5.069459	1.717579	0.000203
 351	3.4825e+01	13.9360	41.427068	0.000264	2.636119	0.893141	0.000105
 352	3.4925e+01	13.9793	41.548182	0.000304	3.041676	1.030548	0.000122
 353	3.5024e+01	14.0226	41.677371	0.000324	3.244454	1.099251	0.000130
 354	3.5123e+01	14.0595	41.762151	0.000213	2.129173	0.721383	0.000085
 355	3.5223e+01	14.1044	41.915562	0.000385	3.852789	1.305360	0.000154
 356	3.5322e+01	14.1429	42.032639	0.000294	2.940286	0.996196	0.000118
 357	3.5422e+01	14.1814	42.210273	0.000446	4.461124	1.511470	0.000179
 358	3.5522e+01	14.2215	42.291015	0.000203	2.027784	0.687032	0.000081
 359	3.5621e+01	14.2680	42.424241	0.000335	3.345843	1.133602	0.000134
 360	3.5721e+01	14.3017	42.557466	0.000335	3.345843	1.133602	0.000134
 361	3.5820e+01	14.3418	42.714915	0.000395	3.954178	1.339712	0.000158
 362	3.5919e+01	14.3707	42.803732	0.000223	2.230562	0.755735	0.000089
 363	3.6019e+01	14.4204	42.973291	0.000426	4.258346	1.442767	0.000170
 364	3.6118e+01	14.4541	43.086331	0.000284	2.838897	0.961844	0.000114
 365	3.6218e+01	14.5023	43.199371	0.000284	2.838897	0.961844	0.000114
 366	3.6318e+01	14.5520	43.332596	0.000335	3.345843	1.133602	0.000134
 367	3.6417e+01	14.5777	43.469859	0.000345	3.447232	1.167954	0.000138
 368	3.6517e+01	14.6114	43.619233	0.000375	3.751400	1.271009	0.000150
 369	3.6616e+01	14.6531	43.748421	0.000324	3.244454	1.099251	0.000130
 370	3.6715e+01	14.6996	43.865498	0.000294	2.940286	0.996196	0.000118
 371	3.6815e+01	14.7397	44.006798	0.000355	3.548622	1.202306	0.000142
 372	3.6914e+01	14.7766	44.135986	0.000324	3.244454	1.099251	0.000130
 373	3.7014e+01	14.8215	44.269212	0.000335	3.345843	1.133602	0.000134
 374	3.7114e+01	14.8536	44.390326	0.000304	3.041676	1.030548	0.000122
 375	3.7213e+01	14.8953	44.543737	0.000385	3.852789	1.305360	0.000154
 376	3.7313e+01	14.9322	44.668888	0.000314	3.143065	1.064899	0.000126
 377	3.7412e+01	14.9835	44.761742	0.000233	2.331951	0.790086	0.000093
 378	3.7511e+01	15.0108	44.903042	0.000355	3.548622	1.202306	0.000142
 379	3.7611e+01	15.0589	45.032231	0.000324	3.244454	1.099251	0.000130
 380	3.7711e+01	15.1006	45.153345	0.000304	3.041676	1.030548	0.000122
 381	3.7810e+01	15.1375	45.318867	0.000416	4.156957	1.408415	0.000166
 382	3.7910e+01	15.1728	45.403647	0.000213	2.129173	0.721383	0.000085
 383	3.8009e+01	15.2145	45.540910	0.000345	3.447232	1.167954	0.000138
 384	3.8108e+01	15.2530	45.682209	0.000355	3.548622	1.202306	0.000142
 385	3.8208e+01	15.2883	45.815435	0.000335	3.345843	1.133602	0.000134
 386	3.8307e+01	15.3429	45.904252	0.000223	2.230562	0.755735	0.000089
 387	3.8407e+01	15.3782	46.057663	0.000385	3.852789	1.305360	0.000154
 388	3.8507e+01	15.4151	46.198963	0.000355	3.548622	1.202306	0.000142
 389	3.8606e+01	15.4600	46.316040	0.000294	2.940286	0.996196	0.000118
 390	3.8706e+01	15.4937	46.437154	0.000304	3.041676	1.030548	0.000122
 391	3.8805e+01	15.5306	46.550194	0.000284	2.838897	0.961844	0.000114
 392	3.8904e+01	15.5659	46.699568	0.000375	3.751400	1.271009	0.000150
 393	3.9004e+01	15.6108	46.816645	0.000294	2.940286	0.996196	0.000118
 394	3.9103e+01	15.6621	46.941796	0.000314	3.143065	1.064899	0.000126
 395	3.9203e+01	15.7006	47.066947	0.000314	3.143065	1.064899	0.000126
 396	3.9303e+01	15.7423	47.208247	0.000355	3.548622	1.202306	0.000142
 397	3.9402e+01	15.7776	47.325324	0.000294	2.940286	0.996196	0.000118
 398	3.9502e+01	15.8225	47.446438	0.000304	3.041676	1.030548	0.000122
 399	3.9601e+01	15.8514	47.551403	0.000264	2.636119	0.893141	0.000105
 400	3.9700e+01	15.8819	47.725000	0.000436	4.359735	1.477118	0.000174
 401	3.9800e+01	15.9332	47.834003	0.000274	2.737508	0.927493	0.000110
 402	3.9900e+01	15.9717	47.963191	0.000324	3.244454	1.099251	0.000130
 403	3.9999e+01	16.0070	48.060082	0.000243	2.433340	0.824438	0.000097
 404	4.0099e+01	16.0455	48.201382	0.000355	3.548622	1.202306	0.000142
 405	4.0198e+01	16.0953	48.326533	0.000314	3.143065	1.064899	0.000126
 406	4.0297e+01	16.1402	48.483982	0.000395	3.954178	1.339712	0.000158
 407	4.0397e+01	16.1691	48.605096	0.000304	3.041676	1.030548	0.000122
 408	4.0496e+01	16.2124	48.706024	0.000253	2.534730	0.858790	0.000101
 409	4.0596e+01	16.2525	48.883658	0.000446	4.461124	1.511470	0.000179
 410	4.0696e+01	16.2894	48.932104	0.000122	1.216670	0.412219	0.000049
 411	4.0795e+01	16.3327	49.093589	0.000406	4.055567	1.374063	0.000162
 412	4.0895e+01	16.3712	49.230852	0.000345	3.447232	1.167954	0.000138
 413	4.0994e+01	16.4081	49.315632	0.000213	2.129173	0.721383	0.000085
 414	4.1093e+01	16.4514	49.489228	0.000436	4.359735	1.477118	0.000174
 415	4.1193e+01	16.4931	49.586120	0.000243	2.433340	0.824438	0.000097
 416	4.1292e+01	16.5332	49.723382	0.000345	3.447232	1.167954	0.000138
 417	4.1392e+01	16.5781	49.860645	0.000345	3.447232	1.167954	0.000138
 418	4.1492e+01	16.6166	50.038279	0.000446	4.461124	1.511470	0.000179
 419	4.1591e+01	16.6471	50.086725	0.000122	1.216670	0.412219	0.000049
 420	4.1691e+01	16.6776	50.195727	0.000274	2.737508	0.927493	0.000110
 421	4.1790e+01	16.7321	50.373361	0.000446	4.461124	1.511470	0.000179
 422	4.1889e+01	16.7787	50.518698	0.000365	3.650011	1.236657	0.000146
 423	4.1989e+01	16.8156	50.635775	0.000294	2.940286	0.996196	0.000118
 424	4.2089e+01	16.8541	50.728629	0.000233	2.331951	0.790086	0.000093
 425	4.2188e+01	16.8878	50.853780	0.000314	3.143065	1.064899	0.000126
 426	4.2288e+01	16.9214	51.007191	0.000385	3.852789	1.305360	0.000154
 427	4.2387e+01	16.9648	51.083897	0.000193	1.926395	0.652680	0.000077
 428	4.2486e+01	17.0097	51.241345	0.000395	3.954178	1.339712	0.000158
 429	4.2586e+01	17.0450	51.374571	0.000335	3.345843	1.133602	0.000134
 430	4.2685e+01	17.0883	51.447239	0.000183	1.825005	0.618329	0.000073
 431	4.2785e+01	17.1348	51.616799	0.000426	4.258346	1.442767	0.000170
 432	4.2885e+01	17.1701	51.745987	0.000324	3.244454	1.099251	0.000130
 433	4.2984e+01	17.2054	51.899398	0.000385	3.852789	1.305360	0.000154
 434	4.3084e+01	17.2455	51.988215	0.000223	2.230562	0.755735	0.000089
 435	4.3183e+01	17.2856	52.101255	0.000284	2.838897	0.961844	0.000114
 436	4.3282e+01	17.3321	52.226406	0.000314	3.143065	1.064899	0.000126
 437	4.3382e+01	17.3674	52.363669	0.000345	3.447232	1.167954	0.000138
 438	4.3481e+01	17.4027	52.480746	0.000294	2.940286	0.996196	0.000118
 439	4.3581e+01	17.4508	52.605897	0.000314	3.143065	1.064899	0.000126
 440	4.3681e+01	17.4910	52.767383	0.000406	4.055567	1.374063	0.000162
 441	4.3780e+01	17.5246	52.880422	0.000284	2.838897	0.961844	0.000114
 442	4.3880e+01	17.5631	52.973277	0.000233	2.331951	0.790086	0.000093
 443	4.3979e+01	17.6049	53.074205	0.000253	2.534730	0.858790	0.000101
 444	4.4078e+01	17.6450	53.219542	0.000365	3.650011	1.236657	0.000146
 445	4.4178e+01	17.6786	53.320470	0.000253	2.534730	0.858790	0.000101
 446	4.4278e+01	17.7332	53.425436	0.000264	2.636119	0.893141	0.000105
 447	4.4377e+01	17.7717	53.574810	0.000375	3.751400	1.271009	0.000150
 448	4.4477e+01	17.8086	53.703998	0.000324	3.244454	1.099251	0.000130
 449	4.4576e+01	17.8391	53.829149	0.000314	3.143065	1.064899	0.000126
 450	4.4675e+01	17.8840	53.934115	0.000264	2.636119	0.893141	0.000105
 451	4.4775e+01	17.9289	54.055229	0.000304	3.041676	1.030548	0.000122
 452	4.4874e+01	17.9610	54.164232	0.000274	2.737508	0.927493	0.000110
 453	4.4974e+01	18.0091	54.341866	0.000446	4.461124	1.511470	0.000179
 454	4.5074e+01	18.0460	54.430683	0.000223	2.230562	0.755735	0.000089
 455	4.5173e+01	18.0893	54.543722	0.000284	2.838897	0.961844	0.000114
 456	4.5273e+01	18.1294	54.656762	0.000284	2.838897	0.961844	0.000114
 457	4.5372e+01	18.1631	54.769802	0.000284	2.838897	0.961844	0.000114
 458	4.5471e+01	18.2032	54.890916	0.000304	3.041676	1.030548	0.000122
 459	4.5571e+01	18.2369	55.003956	0.000284	2.838897	0.961844	0.000114
 460	4.5670e+01	18.2866	55.145256	0.000355	3.548622	1.202306	0.000142
 461	4.5770e+01	18.3235	55.254258	0.000274	2.737508	0.927493	0.000110
 462	4.5870e+01	18.3588	55.383447	0.000324	3.244454	1.099251	0.000130
 463	4.5969e+01	18.4054	55.500524	0.000294	2.940286	0.996196	0.000118
 464	4.6069e+01	18.4407	55.637786	0.000345	3.447232	1.167954	0.000138
 465	4.6168e+01	18.4904	55.734677	0.000243	2.433340	0.824438	0.000097
 466	4.6267e+01	18.5193	55.847717	0.000284	2.838897	0.961844	0.000114
 467	4.6367e+01	18.5578	56.001128	0.000385	3.852789	1.305360	0.000154
 468	4.6467e+01	18.5963	56.106094	0.000264	2.636119	0.893141	0.000105
 469	4.6566e+01	18.6380	56.207022	0.000253	2.534730	0.858790	0.000101
 470	4.6666e+01	18.6925	56.344285	0.000345	3.447232	1.167954	0.000138
 471	4.6765e+01	18.7214	56.481548	0.000345	3.447232	1.167954	0.000138
 472	4.6864e+01	18.7583	56.594587	0.000284	2.838897	0.961844	0.000114
 473	4.6964e+01	18.8080	56.719739	0.000314	3.143065	1.064899	0.000126
 474	4.7063e+01	18.8481	56.873150	0.000385	3.852789	1.305360	0.000154
 475	4.7163e+01	18.8754	56.949855	0.000193	1.926395	0.652680	0.000077
 476	4.7263e+01	18.9171	57.111341	0.000406	4.055567	1.374063	0.000162
 477	4.7362e+01	18.9684	57.208232	0.000243	2.433340	0.824438	0.000097
 478	4.7462e+01	19.0005	57.337420	0.000324	3.244454	1.099251	0.000130
 479	4.7561e+01	19.0455	57.478720	0.000355	3.548622	1.202306	0.000142
 480	4.7660e+01	19.0759	57.575611	0.000243	2.433340	0.824438	0.000097
 481	4.7760e+01	19.1257	57.700763	0.000314	3.143065	1.064899	0.000126
 482	4.7859e+01	19.1545	57.838025	0.000345	3.447232	1.167954	0.000138
 483	4.7959e+01	19.2075	57.930879	0.000233	2.331951	0.790086	0.000093
 484	4.8059e+01	19.2476	58.076216	0.000365	3.650011	1.236657	0.000146
 485	4.8158e+01	19.2813	58.201367	0.000314	3.143065	1.064899	0.000126
 486	4.8258e+01	19.3262	58.261924	0.000152	1.520838	0.515274	0.000061
 487	4.8357e+01	19.3438	58.435521	0.000436	4.359735	1.477118	0.000174
 488	4.8456e+01	19.3904	58.572784	0.000345	3.447232	1.167954	0.000138
 489	4.8556e+01	19.4513	58.681787	0.000274	2.737508	0.927493	0.000110
 490	4.8656e+01	19.4802	58.790789	0.000274	2.737508	0.927493	0.000110
 491	4.8755e+01	19.5139	58.911903	0.000304	3.041676	1.030548	0.000122
 492	4.8855e+01	19.5492	59.057240	0.000365	3.650011	1.236657	0.000146
 493	4.8954e+01	19.5973	59.146057	0.000223	2.230562	0.755735	0.000089
 494	4.9053e+01	19.6326	59.263134	0.000294	2.940286	0.996196	0.000118
 495	4.9153e+01	19.6791	59.376174	0.000284	2.838897	0.961844	0.000114
 496	4.9252e+01	19.7192	59.505362	0.000324	3.244454	1.099251	0.000130
 497	4.9352e+01	19.7658	59.642625	0.000345	3.447232	1.167954	0.000138
 498	4.9452e+01	19.7994	59.759702	0.000294	2.940286	0.996196	0.000118
 499	4.9551e+01	19.8428	59.880816	0.000304	3.041676	1.030548	0.000122
 500	4.9651e+01	19.8764	59.997893	0.000294	2.940286	0.996196	0.000118
 501	4.9750e+01	19.9085	60.110933	0.000284	2.838897	0.961844	0.000114
 502	4.9849e+01	19.9583	60.228010	0.000294	2.940286	0.996196	0.000118
 503	4.9949e+01	19.9919	60.345086	0.000294	2.940286	0.996196	0.000118
 504	5.0048e+01	19.9486	60.264344	0.000203	2.027784	0.687032	-0.000081
 505	5.0148e+01	19.9182	60.159378	0.000264	2.636119	0.893141	-0.000105
 506	5.0248e+01	19.8732	60.050376	0.000274	2.737508	0.927493	-0.000110
 507	5.0347e+01	19.8412	59.933299	0.000294	2.940286	0.996196	-0.000118
 508	5.0447e+01	19.7914	59.860630	0.000183	1.825005	0.618329	-0.000073
 509	5.0546e+01	19.7577	59.731442	0.000324	3.244454	1.099251	-0.000130
 510	5.0645e+01	19.7160	59.618402	0.000284	2.838897	0.961844	-0.000114
 511	5.0745e+01	19.6775	59.529585	0.000223	2.230562	0.755735	-0.000089
 512	5.0844e+01	19.6422	59.416545	0.000284	2.838897	0.961844	-0.000114
 513	5.0944e+01	19.6005	59.347914	0.000172	1.723616	0.583977	-0.000069
 514	5.1044e+01	19.5540	59.230837	0.000294	2.940286	0.996196	-0.000118
 515	5.1143e+01	19.5139	59.129909	0.000253	2.534730	0.858790	-0.000101
 516	5.1242e+01	19.4818	59.016869	0.000284	2.838897	0.961844	-0.000114
 517	5.1342e+01	19.4417	58.907866	0.000274	2.737508	0.927493	-0.000110
 518	5.1441e+01	19.3984	58.827123	0.000203	2.027784	0.687032	-0.000081
 519	5.1541e+01	19.3535	58.673712	0.000385	3.852789	1.305360	-0.000154
 520	5.1641e+01	19.3214	58.568747	0.000264	2.636119	0.893141	-0.000105
 521	5.1740e+01	19.2668	58.451670	0.000294	2.940286	0.996196	-0.000118
 522	5.1840e+01	19.2444	58.354779	0.000243	2.433340	0.824438	-0.000097
 523	5.1939e+01	19.1995	58.261924	0.000233	2.331951	0.790086	-0.000093
 524	5.2038e+01	19.1594	58.165033	0.000243	2.433340	0.824438	-0.000097
 525	5.2138e+01	19.1144	58.031808	0.000335	3.345843	1.133602	-0.000134
 526	5.2237e+01	19.0759	57.930879	0.000253	2.534730	0.858790	-0.000101
 527	5.2337e+01	19.0487	57.870322	0.000152	1.520838	0.515274	-0.000061
 528	5.2437e+01	19.0005	57.729022	0.000355	3.548622	1.202306	-0.000142
 529	5.2536e+01	18.9620	57.587723	0.000355	3.548622	1.202306	-0.000142
 530	5.2636e+01	18.9267	57.502943	0.000213	2.129173	0.721383	-0.000085
 531	5.2735e+01	18.8738	57.426237	0.000193	1.926395	0.652680	-0.000077
 532	5.2834e+01	18.8449	57.317235	0.000274	2.737508	0.927493	-0.000110
 533	5.2934e+01	18.8032	57.192083	0.000314	3.143065	1.064899	-0.000126
 534	5.3033e+01	18.7551	57.087118	0.000264	2.636119	0.893141	-0.000105
 535	5.3133e+01	18.7230	57.006375	0.000203	2.027784	0.687032	-0.000081
 536	5.3233e+01	18.6829	56.873150	0.000335	3.345843	1.133602	-0.000134
 537	5.3332e+01	18.6396	56.776258	0.000243	2.433340	0.824438	-0.000097
 538	5.3431e+01	18.6059	56.655144	0.000304	3.041676	1.030548	-0.000122
 539	5.3531e+01	18.5642	56.574402	0.000203	2.027784	0.687032	-0.000081
 540	5.3630e+01	18.5273	56.457325	0.000294	2.940286	0.996196	-0.000118
 541	5.3730e+01	18.4920	56.316025	0.000355	3.548622	1.202306	-0.000142
 542	5.3830e+01	18.4471	56.194911	0.000304	3.041676	1.030548	-0.000122
 543	5.3929e+01	18.4022	56.114168	0.000203	2.027784	0.687032	-0.000081
 544	5.4029e+01	18.3669	56.005166	0.000274	2.737508	0.927493	-0.000110
 545	5.4128e+01	18.3332	55.924423	0.000203	2.027784	0.687032	-0.000081
 546	5.4227e+01	18.2802	55.771012	0.000385	3.852789	1.305360	-0.000154
 547	5.4327e+01	18.2530	55.698343	0.000183	1.825005	0.618329	-0.000073
 548	5.4426e+01	18.2096	55.565118	0.000335	3.345843	1.133602	-0.000134
 549	5.4526e+01	18.1711	55.488412	0.000193	1.926395	0.652680	-0.000077
 550	5.4626e+01	18.1278	55.355187	0.000335	3.345843	1.133602	-0.000134
 551	5.4725e+01	18.0909	55.242147	0.000284	2.838897	0.961844	-0.000114
 552	5.4825e+01	18.0540	55.161404	0.000203	2.027784	0.687032	-0.000081
 553	5.4924e+01	18.0091	55.052401	0.000274	2.737508	0.927493	-0.000110
 554	5.5023e+01	17.9642	54.923213	0.000324	3.244454	1.099251	-0.000130
 555	5.5123e+01	17.9257	54.822285	0.000253	2.534730	0.858790	-0.000101
 556	5.5222e+01	17.8920	54.676948	0.000365	3.650011	1.236657	-0.000146
 557	5.5322e+01	17.8391	54.576019	0.000253	2.534730	0.858790	-0.000101
 558	5.5422e+01	17.8150	54.507388	0.000172	1.723616	0.583977	-0.000069
 559	5.5521e+01	17.7653	54.329754	0.000446	4.461124	1.511470	-0.000179
 560	5.5620e+01	17.7364	54.236900	0.000233	2.331951	0.790086	-0.000093
 561	5.5720e+01	17.6835	54.103675	0.000335	3.345843	1.133602	-0.000134
 562	5.5819e+01	17.6466	54.006783	0.000243	2.433340	0.824438	-0.000097
 563	5.5919e+01	17.6016	53.930078	0.000193	1.926395	0.652680	-0.000077
 564	5.6019e+01	17.5647	53.772629	0.000395	3.954178	1.339712	-0.000158
 565	5.6118e+01	17.5391	53.659590	0.000284	2.838897	0.961844	-0.000114
 566	5.6218e+01	17.4926	53.586921	0.000183	1.825005	0.618329	-0.000073
 567	5.6317e+01	17.4524	53.433510	0.000385	3.852789	1.305360	-0.000154
 568	5.6416e+01	17.4139	53.356804	0.000193	1.926395	0.652680	-0.000077
 569	5.6516e+01	17.3658	53.223579	0.000335	3.345843	1.133602	-0.000134
 570	5.6615e+01	17.3241	53.098428	0.000314	3.143065	1.064899	-0.000126
 571	5.6715e+01	17.2792	52.993462	0.000264	2.636119	0.893141	-0.000105
 572	5.6815e+01	17.2407	52.908682	0.000213	2.129173	0.721383	-0.000085
 573	5.6914e+01	17.2022	52.779494	0.000324	3.244454	1.099251	-0.000130
 574	5.7014e+01	17.1685	52.694714	0.000213	2.129173	0.721383	-0.000085
 575	5.7113e+01	17.1236	52.565526	0.000324	3.244454	1.099251	-0.000130
 576	5.7212e+01	17.0787	52.444412	0.000304	3.041676	1.030548	-0.000122
 577	5.7312e+01	17.0482	52.327335	0.000294	2.940286	0.996196	-0.000118
 578	5.7411e+01	17.0129	52.214295	0.000284	2.838897	0.961844	-0.000114
 579	5.7511e+01	16.9760	52.121441	0.000233	2.331951	0.790086	-0.000093
 580	5.7611e+01	16.9359	51.996290	0.000314	3.143065	1.064899	-0.000126
 581	5.7710e+01	16.8862	51.879213	0.000294	2.940286	0.996196	-0.000118
 582	5.7809e+01	16.8444	51.733876	0.000365	3.650011	1.236657	-0.000146
 583	5.7909e+01	16.8059	51.665245	0.000172	1.723616	0.583977	-0.000069
 584	5.8008e+01	16.7642	51.544131	0.000304	3.041676	1.030548	-0.000122
 585	5.8108e+01	16.7241	51.451276	0.000233	2.331951	0.790086	-0.000093
 586	5.8208e+01	16.6824	51.318051	0.000335	3.345843	1.133602	-0.000134
 587	5.8307e+01	16.6455	51.192900	0.000314	3.143065	1.064899	-0.000126
 588	5.8407e+01	16.6118	51.075823	0.000294	2.940286	0.996196	-0.000118
 589	5.8506e+01	16.5653	50.966820	0.000274	2.737508	0.927493	-0.000110
 590	5.8605e+01	16.5348	50.857817	0.000274	2.737508	0.927493	-0.000110
 591	5.8705e+01	16.4899	50.724592	0.000335	3.345843	1.133602	-0.000134
 592	5.8804e+01	16.4482	50.619626	0.000264	2.636119	0.893141	-0.000105
 593	5.8904e+01	16.4129	50.510624	0.000274	2.737508	0.927493	-0.000110
 594	5.9004e+01	16.3744	50.385473	0.000314	3.143065	1.064899	-0.000126
 595	5.9103e+01	16.3343	50.260321	0.000314	3.143065	1.064899	-0.000126
 596	5.9203e+01	16.2846	50.167467	0.000233	2.331951	0.790086	-0.000093
 597	5.9302e+01	16.2493	50.058465	0.000274	2.737508	0.927493	-0.000110
 598	5.9401e+01	16.2028	49.913128	0.000365	3.650011	1.236657	-0.000146
 599	5.9501e+01	16.1739	49.808162	0.000264	2.636119	0.893141	-0.000105
 600	5.9600e+01	16.1418	49.683011	0.000314	3.143065	1.064899	-0.000126
 601	5.9700e+01	16.0937	49.606305	0.000193	1.926395	0.652680	-0.000077
 602	5.9800e+01	16.0503	49.440783	0.000416	4.156957	1.408415	-0.000166
 603	5.9899e+01	16.0118	49.335817	0.000264	2.636119	0.893141	-0.000105
 604	5.9998e+01	15.9637	49.214703	0.000304	3.041676	1.030548	-0.000122
 605	6.0098e+01	15.9364	49.137998	0.000193	1.926395	0.652680	-0.000077
 606	6.0197e+01	15.8915	48.996698	0.000355	3.548622	1.202306	-0.000142
 607	6.0297e+01	15.8610	48.843287	0.000385	3.852789	1.305360	-0.000154
 608	6.0397e+01	15.8193	48.718136	0.000314	3.143065	1.064899	-0.000126
 609	6.0496e+01	15.7808	48.625281	0.000233	2.331951	0.790086	-0.000093
 610	6.0596e+01	15.7359	48.488019	0.000345	3.447232	1.167954	-0.000138
 611	6.0695e+01	15.6990	48.411313	0.000193	1.926395	0.652680	-0.000077
 612	6.0794e+01	15.6573	48.257902	0.000385	3.852789	1.305360	-0.000154
 613	6.0894e+01	15.6092	48.165048	0.000233	2.331951	0.790086	-0.000093
 614	6.0993e+01	15.5739	48.052008	0.000284	2.838897	0.961844	-0.000114
 615	6.1093e+01	15.5386	47.918783	0.000335	3.345843	1.133602	-0.000134
 616	6.1193e+01	15.5001	47.801706	0.000294	2.940286	0.996196	-0.000118
 617	6.1292e+01	15.4600	47.692703	0.000274	2.737508	0.927493	-0.000110
 618	6.1392e+01	15.4119	47.555440	0.000345	3.447232	1.167954	-0.000138
 619	6.1491e+01	15.3830	47.438363	0.000294	2.940286	0.996196	-0.000118
 620	6.1590e+01	15.3397	47.317249	0.000304	3.041676	1.030548	-0.000122
 621	6.1690e+01	15.2964	47.179987	0.000345	3.447232	1.167954	-0.000138
 622	6.1789e+01	15.2546	47.070984	0.000274	2.737508	0.927493	-0.000110
 623	6.1889e+01	15.2210	46.937759	0.000335	3.345843	1.133602	-0.000134
 624	6.1989e+01	15.1793	46.832793	0.000264	2.636119	0.893141	-0.000105
 625	6.2088e+01	15.1359	46.699568	0.000335	3.345843	1.133602	-0.000134
 626	6.2188e+01	15.1022	46.562305	0.000345	3.447232	1.167954	-0.000138
 627	6.2287e+01	15.0621	46.465414	0.000243	2.433340	0.824438	-0.000097
 628	6.2386e+01	15.0236	46.364485	0.000253	2.534730	0.858790	-0.000101
 629	6.2486e+01	14.9771	46.203000	0.000406	4.055567	1.374063	-0.000162
 630	6.2586e+01	14.9450	46.081886	0.000304	3.041676	1.030548	-0.000122
 631	6.2685e+01	14.9001	45.989032	0.000233	2.331951	0.790086	-0.000093
 632	6.2785e+01	14.8632	45.843695	0.000365	3.650011	1.236657	-0.000146
 633	6.2884e+01	14.8135	45.734692	0.000274	2.737508	0.927493	-0.000110
 634	6.2983e+01	14.7766	45.613578	0.000304	3.041676	1.030548	-0.000122
 635	6.3083e+01	14.7285	45.448056	0.000416	4.156957	1.408415	-0.000166
 636	6.3182e+01	14.7092	45.367313	0.000203	2.027784	0.687032	-0.000081
 637	6.3282e+01	14.6563	45.274459	0.000233	2.331951	0.790086	-0.000093
 638	6.3382e+01	14.6162	45.108936	0.000416	4.156957	1.408415	-0.000166
 639	6.3481e+01	14.5809	44.995896	0.000284	2.838897	0.961844	-0.000114
 640	6.3581e+01	14.5424	44.894968	0.000253	2.534730	0.858790	-0.000101
 641	6.3680e+01	14.5087	44.765780	0.000324	3.244454	1.099251	-0.000130
 642	6.3779e+01	14.4573	44.644666	0.000304	3.041676	1.030548	-0.000122
 643	6.3879e+01	14.4188	44.535663	0.000274	2.737508	0.927493	-0.000110
 644	6.3978e+01	14.3819	44.402437	0.000335	3.345843	1.133602	-0.000134
 645	6.4078e+01	14.3418	44.257101	0.000365	3.650011	1.236657	-0.000146
 646	6.4177e+01	14.2969	44.160209	0.000243	2.433340	0.824438	-0.000097
 647	6.4277e+01	14.2632	44.018910	0.000355	3.548622	1.202306	-0.000142
 648	6.4376e+01	14.2247	43.930093	0.000223	2.230562	0.755735	-0.000089
 649	6.4476e+01	14.1782	43.792830	0.000345	3.447232	1.167954	-0.000138
 650	6.4576e+01	14.1381	43.663642	0.000324	3.244454	1.099251	-0.000130
 651	6.4675e+01	14.0964	43.534453	0.000324	3.244454	1.099251	-0.000130
 652	6.4775e+01	14.0579	43.461785	0.000183	1.825005	0.618329	-0.000073
 653	6.4874e+01	14.0258	43.308374	0.000385	3.852789	1.305360	-0.000154
 654	6.4974e+01	13.9793	43.195334	0.000284	2.838897	0.961844	-0.000114
 655	6.5073e+01	13.9440	43.082294	0.000284	2.838897	0.961844	-0.000114
 656	6.5172e+01	13.9039	42.928883	0.000385	3.852789	1.305360	-0.000154
 657	6.5272e+01	13.8622	42.836029	0.000233	2.331951	0.790086	-0.000093
 658	6.5371e+01	13.8140	42.690692	0.000365	3.650011	1.236657	-0.000146
 659	6.5471e+01	13.7788	42.585726	0.000264	2.636119	0.893141	-0.000105
 660	6.5570e+01	13.7419	42.472687	0.000284	2.838897	0.961844	-0.000114
 661	6.5670e+01	13.6969	42.323313	0.000375	3.751400	1.271009	-0.000150
 662	6.5769e+01	13.6600	42.210273	0.000284	2.838897	0.961844	-0.000114
 663	6.5869e+01	13.6167	42.077047	0.000335	3.345843	1.133602	-0.000134
 664	6.5969e+01	13.5862	41.988230	0.000223	2.230562	0.755735	-0.000089
 665	6.6068e+01	13.5381	41.834819	0.000385	3.852789	1.305360	-0.000154
 666	6.6168e+01	13.4996	41.693519	0.000355	3.548622	1.202306	-0.000142
 667	6.6267e+01	13.4627	41.592591	0.000253	2.534730	0.858790	-0.000101
 668	6.6367e+01	13.4242	41.503774	0.000223	2.230562	0.755735	-0.000089
 669	6.6466e+01	13.3825	41.334214	0.000426	4.258346	1.442767	-0.000170
 670	6.6566e+01	13.3472	41.221174	0.000284	2.838897	0.961844	-0.000114
 671	6.6665e+01	13.3007	41.116209	0.000264	2.636119	0.893141	-0.000105
 672	6.6764e+01	13.2590	40.970872	0.000365	3.650011	1.236657	-0.000146
 673	6.6864e+01	13.2285	40.865907	0.000264	2.636119	0.893141	-0.000105
 674	6.6963e+01	13.1804	40.720570	0.000365	3.650011	1.236657	-0.000146
 675	6.7063e+01	13.1371	40.611567	0.000274	2.737508	0.927493	-0.000110
 676	6.7162e+01	13.1034	40.474304	0.000345	3.447232	1.167954	-0.000138
 677	6.7262e+01	13.0697	40.357227	0.000294	2.940286	0.996196	-0.000118
 678	6.7362e+01	13.0264	40.248225	0.000274	2.737508	0.927493	-0.000110
 679	6.7461e+01	12.9863	40.147296	0.000253	2.534730	0.858790	-0.000101
 680	6.7561e+01	12.9397	40.005997	0.000355	3.548622	1.202306	-0.000142
 681	6.7660e+01	12.9157	39.860660	0.000365	3.650011	1.236657	-0.000146
 682	6.7760e+01	12.8724	39.751657	0.000274	2.737508	0.927493	-0.000110
 683	6.7859e+01	12.8258	39.638617	0.000284	2.838897	0.961844	-0.000114
 684	6.7959e+01	12.7905	39.529615	0.000274	2.737508	0.927493	-0.000110
 685	6.8058e+01	12.7456	39.400426	0.000324	3.244454	1.099251	-0.000130
 686	6.8157e+01	12.7184	39.283349	0.000294	2.940286	0.996196	-0.000118
 687	6.8257e+01	12.6686	39.142050	0.000355	3.548622	1.202306	-0.000142
 688	6.8356e+01	12.6301	39.041121	0.000253	2.534730	0.858790	-0.000101
 689	6.8456e+01	12.5804	38.928081	0.000284	2.838897	0.961844	-0.000114
 690	6.8555e+01	12.5483	38.762559	0.000416	4.156957	1.408415	-0.000166
 691	6.8655e+01	12.5082	38.669705	0.000233	2.331951	0.790086	-0.000093
 692	6.8754e+01	12.4697	38.536479	0.000335	3.345843	1.133602	-0.000134
 693	6.8854e+01	12.4408	38.419402	0.000294	2.940286	0.996196	-0.000118
 694	6.8954e+01	12.4007	38.310400	0.000274	2.737508	0.927493	-0.000110
 695	6.9053e+01	12.3494	38.189286	0.000304	3.041676	1.030548	-0.000122
 696	6.9153e+01	12.3045	38.056060	0.000335	3.345843	1.133602	-0.000134
 697	6.9252e+01	12.2756	37.943020	0.000284	2.838897	0.961844	-0.000114
 698	6.9352e+01	12.2307	37.805758	0.000345	3.447232	1.167954	-0.000138
 699	6.9451e+01	12.1874	37.688681	0.000294	2.940286	0.996196	-0.000118
 700	6.9550e+01	12.1456	37.611975	0.000193	1.926395	0.652680	-0.000077
 701	6.9650e+01	12.1087	37.462601	0.000375	3.751400	1.271009	-0.000150
 702	6.9749e+01	12.0751	37.337450	0.000314	3.143065	1.064899	-0.000126
 703	6.9849e+01	12.0285	37.248633	0.000223	2.230562	0.755735	-0.000089
 704	6.9948e+01	11.9948	37.083110	0.000416	4.156957	1.408415	-0.000166
 705	7.0048e+01	11.9499	36.949885	0.000335	3.345843	1.133602	-0.000134
 706	7.0147e+01	11.9082	36.869142	0.000203	2.027784	0.687032	-0.000081
 707	7.0247e+01	11.8713	36.760139	0.000274	2.737508	0.927493	-0.000110
 708	7.0347e+01	11.8328	36.618840	0.000355	3.548622	1.202306	-0.000142
 709	7.0446e+01	11.7927	36.513874	0.000264	2.636119	0.893141	-0.000105
 710	7.0546e+01	11.7446	36.388723	0.000314	3.143065	1.064899	-0.000126
 711	7.0645e+01	11.7045	36.239349	0.000375	3.751400	1.271009	-0.000150
 712	7.0745e+01	11.6708	36.158606	0.000203	2.027784	0.687032	-0.000081
 713	7.0844e+01	11.6259	35.997121	0.000406	4.055567	1.374063	-0.000162
 714	7.0944e+01	11.5858	35.904267	0.000233	2.331951	0.790086	-0.000093
 715	7.1043e+01	11.5553	35.775078	0.000324	3.244454	1.099251	-0.000130
 716	7.1142e+01	11.5104	35.645890	0.000324	3.244454	1.099251	-0.000130
 717	7.1242e+01	11.4767	35.557073	0.000223	2.230562	0.755735	-0.000089
 718	7.1341e+01	11.4398	35.343105	0.000537	5.373627	1.820634	-0.000215
 719	7.1441e+01	11.3868	35.306771	0.000091	0.912503	0.309164	-0.000037
 720	7.1540e+01	11.3499	35.145285	0.000406	4.055567	1.374063	-0.000162
 721	7.1640e+01	11.3130	35.052431	0.000233	2.331951	0.790086	-0.000093
 722	7.1740e+01	11.2713	34.923243	0.000324	3.244454	1.099251	-0.000130
 723	7.1839e+01	11.2200	34.826351	0.000243	2.433340	0.824438	-0.000097
 724	7.1939e+01	11.1991	34.660829	0.000416	4.156957	1.408415	-0.000166
 725	7.2038e+01	11.1542	34.519529	0.000355	3.548622	1.202306	-0.000142
 726	7.2138e+01	11.1157	34.386304	0.000335	3.345843	1.133602	-0.000134
 727	7.2237e+01	11.0740	34.297487	0.000223	2.230562	0.755735	-0.000089
 728	7.2337e+01	11.0355	34.184447	0.000284	2.838897	0.961844	-0.000114
 729	7.2436e+01	10.9938	34.047184	0.000345	3.447232	1.167954	-0.000138
 730	7.2535e+01	10.9537	33.942219	0.000264	2.636119	0.893141	-0.000105
 731	7.2635e+01	10.9136	33.796882	0.000365	3.650011	1.236657	-0.000146
 732	7.2734e+01	10.8735	33.663656	0.000335	3.345843	1.133602	-0.000134
 733	7.2834e+01	10.8382	33.518319	0.000365	3.650011	1.236657	-0.000146
 734	7.2933e+01	10.7885	33.449688	0.000172	1.723616	0.583977	-0.000069
 735	7.3033e+01	10.7692	33.280128	0.000426	4.258346	1.442767	-0.000170
 736	7.3132e+01	10.7195	33.187274	0.000233	2.331951	0.790086	-0.000093
 737	7.3232e+01	10.6778	33.054049	0.000335	3.345843	1.133602	-0.000134
 738	7.3332e+01	10.6393	32.932935	0.000304	3.041676	1.030548	-0.000122
 739	7.3431e+01	10.5992	32.803746	0.000324	3.244454	1.099251	-0.000130
 740	7.3531e+01	10.5591	32.658410	0.000365	3.650011	1.236657	-0.000146
 741	7.3630e+01	10.5174	32.569593	0.000223	2.230562	0.755735	-0.000089
 742	7.3730e+01	10.4885	32.416181	0.000385	3.852789	1.305360	-0.000154
 743	7.3829e+01	10.4468	32.299104	0.000294	2.940286	0.996196	-0.000118
 744	7.3928e+01	10.3954	32.173953	0.000314	3.143065	1.064899	-0.000126
 745	7.4028e+01	10.3521	32.081099	0.000233	2.331951	0.790086	-0.000093
 746	7.4127e+01	10.3248	31.935762	0.000365	3.650011	1.236657	-0.000146
 747	7.4227e+01	10.2735	31.814648	0.000304	3.041676	1.030548	-0.000122
 748	7.4326e+01	10.2382	31.681423	0.000335	3.345843	1.133602	-0.000134
 749	7.4426e+01	10.1965	31.523974	0.000395	3.954178	1.339712	-0.000158
 750	7.4525e+01	10.1660	31.439195	0.000213	2.129173	0.721383	-0.000085
 751	7.4625e+01	10.1163	31.326155	0.000284	2.838897	0.961844	-0.000114
 752	7.4725e+01	10.0730	31.192929	0.000335	3.345843	1.133602	-0.000134
 753	7.4824e+01	10.0329	31.043555	0.000375	3.751400	1.271009	-0.000150
 754	7.4924e+01	10.0008	30.954738	0.000223	2.230562	0.755735	-0.000089
 755	7.5023e+01	9.9527	30.805364	0.000375	3.751400	1.271009	-0.000150
 756	7.5123e+01	9.9206	30.668102	0.000345	3.447232	1.167954	-0.000138
 757	7.5222e+01	9.8805	30.546988	0.000304	3.041676	1.030548	-0.000122
 758	7.5322e+01	9.8452	30.437985	0.000274	2.737508	0.927493	-0.000110
 759	7.5421e+01	9.7970	30.341094	0.000243	2.433340	0.824438	-0.000097
 760	7.5520e+01	9.7537	30.163460	0.000446	4.461124	1.511470	-0.000179
 761	7.5620e+01	9.7136	30.058494	0.000264	2.636119	0.893141	-0.000105
 762	7.5719e+01	9.6848	29.917194	0.000355	3.548622	1.202306	-0.000142
 763	7.5819e+01	9.6414	29.792043	0.000314	3.143065	1.064899	-0.000126
 764	7.5918e+01	9.5949	29.695152	0.000243	2.433340	0.824438	-0.000097
 765	7.6018e+01	9.5676	29.557889	0.000345	3.447232	1.167954	-0.000138
 766	7.6118e+01	9.5099	29.388330	0.000426	4.258346	1.442767	-0.000170
 767	7.6217e+01	9.4874	29.295475	0.000233	2.331951	0.790086	-0.000093
 768	7.6317e+01	9.4377	29.150139	0.000365	3.650011	1.236657	-0.000146
 769	7.6416e+01	9.4072	29.065359	0.000213	2.129173	0.721383	-0.000085
 770	7.6516e+01	9.3639	28.944245	0.000304	3.041676	1.030548	-0.000122
 771	7.6615e+01	9.3190	28.782759	0.000406	4.055567	1.374063	-0.000162
 772	7.6715e+01	9.2853	28.649534	0.000335	3.345843	1.133602	-0.000134
 773	7.6814e+01	9.2372	28.504197	0.000365	3.650011	1.236657	-0.000146
 774	7.6913e+01	9.1971	28.419417	0.000213	2.129173	0.721383	-0.000085
 775	7.7013e+01	9.1698	28.278117	0.000355	3.548622	1.202306	-0.000142
 776	7.7112e+01	9.1217	28.148929	0.000324	3.244454	1.099251	-0.000130
 777	7.7212e+01	9.0928	27.991481	0.000395	3.954178	1.339712	-0.000158
 778	7.7311e+01	9.0318	27.910738	0.000203	2.027784	0.687032	-0.000081
 779	7.7411e+01	9.0062	27.805772	0.000264	2.636119	0.893141	-0.000105
 780	7.7510e+01	8.9580	27.611990	0.000487	4.866681	1.648876	-0.000195
 781	7.7610e+01	8.9324	27.478764	0.000335	3.345843	1.133602	-0.000134
 782	7.7710e+01	8.8778	27.361687	0.000294	2.940286	0.996196	-0.000118
 783	7.7809e+01	8.8377	27.228462	0.000335	3.345843	1.133602	-0.000134
 784	7.7909e+01	8.8056	27.139645	0.000223	2.230562	0.755735	-0.000089
 785	7.8008e+01	8.7623	26.974122	0.000416	4.156957	1.408415	-0.000166
 786	7.8108e+01	8.7254	26.877231	0.000243	2.433340	0.824438	-0.000097
 787	7.8207e+01	8.6853	26.687486	0.000477	4.765292	1.614525	-0.000191
 788	7.8306e+01	8.6452	26.570409	0.000294	2.940286	0.996196	-0.000118
 789	7.8406e+01	8.6067	26.433146	0.000345	3.447232	1.167954	-0.000138
 790	7.8505e+01	8.5650	26.295884	0.000345	3.447232	1.167954	-0.000138
 791	7.8605e+01	8.5297	26.166695	0.000324	3.244454	1.099251	-0.000130
 792	7.8704e+01	8.4864	26.029433	0.000345	3.447232	1.167954	-0.000138
 793	7.8804e+01	8.4415	25.928504	0.000253	2.534730	0.858790	-0.000101
 794	7.8903e+01	8.4094	25.758945	0.000426	4.258346	1.442767	-0.000170
 795	7.9003e+01	8.3645	25.629756	0.000324	3.244454	1.099251	-0.000130
 796	7.9103e+01	8.3212	25.540939	0.000223	2.230562	0.755735	-0.000089
 797	7.9202e+01	8.2827	25.363305	0.000446	4.461124	1.511470	-0.000179
 798	7.9302e+01	8.2409	25.246228	0.000294	2.940286	0.996196	-0.000118
 799	7.9401e+01	8.2040	25.104929	0.000355	3.548622	1.202306	-0.000142
 800	7.9501e+01	8.1623	24.983815	0.000304	3.041676	1.030548	-0.000122
 801	7.9600e+01	8.1222	24.886923	0.000243	2.433340	0.824438	-0.000097
 802	7.9700e+01	8.0853	24.713326	0.000436	4.359735	1.477118	-0.000174
 803	7.9799e+01	8.0484	24.604324	0.000274	2.737508	0.927493	-0.000110
 804	7.9898e+01	8.0019	24.426690	0.000446	4.461124	1.511470	-0.000179
 805	7.9998e+01	7.9682	24.321724	0.000264	2.636119	0.893141	-0.000105
 806	8.0097e+01	7.9313	24.176387	0.000365	3.650011	1.236657	-0.000146
 807	8.0197e+01	7.8864	24.047199	0.000324	3.244454	1.099251	-0.000130
 808	8.0296e+01	7.8447	23.946271	0.000253	2.534730	0.858790	-0.000101
 809	8.0396e+01	7.8110	23.800934	0.000365	3.650011	1.236657	-0.000146
 810	8.0496e+01	7.7677	23.683857	0.000294	2.940286	0.996196	-0.000118
 811	8.0595e+01	7.7244	23.542557	0.000355	3.548622	1.202306	-0.000142
 812	8.0695e+01	7.6859	23.397220	0.000365	3.650011	1.236657	-0.000146
 813	8.0794e+01	7.6490	23.268032	0.000324	3.244454	1.099251	-0.000130
 814	8.0894e+01	7.6089	23.175178	0.000233	2.331951	0.790086	-0.000093
 815	8.0993e+01	7.5672	23.045989	0.000324	3.244454	1.099251	-0.000130
 816	8.1093e+01	7.5287	22.896615	0.000375	3.751400	1.271009	-0.000150
 817	8.1192e+01	7.4950	22.747241	0.000375	3.751400	1.271009	-0.000150
 818	8.1291e+01	7.4501	22.654387	0.000233	2.331951	0.790086	-0.000093
 819	8.1391e+01	7.4035	22.513087	0.000355	3.548622	1.202306	-0.000142
 820	8.1490e+01	7.3714	22.343528	0.000426	4.258346	1.442767	-0.000170
 821	8.1590e+01	7.3394	22.250674	0.000233	2.331951	0.790086	-0.000093
 822	8.1689e+01	7.2928	22.085151	0.000416	4.156957	1.408415	-0.000166
 823	8.1789e+01	7.2511	21.972111	0.000284	2.838897	0.961844	-0.000114
 824	8.1888e+01	7.2110	21.859071	0.000284	2.838897	0.961844	-0.000114
 825	8.1988e+01	7.1613	21.725846	0.000335	3.345843	1.133602	-0.000134
 826	8.2088e+01	7.1292	21.544175	0.000456	4.562513	1.545821	-0.000183
 827	8.2187e+01	7.0795	21.431135	0.000284	2.838897	0.961844	-0.000114
 828	8.2287e+01	7.0554	21.322132	0.000274	2.737508	0.927493	-0.000110
 829	8.2386e+01	7.0089	21.196981	0.000314	3.143065	1.064899	-0.000126
 830	8.2486e+01	6.9704	21.051644	0.000365	3.650011	1.236657	-0.000146
 831	8.2585e+01	6.9335	20.914382	0.000345	3.447232	1.167954	-0.000138
 832	8.2684e+01	6.8934	20.797305	0.000294	2.940286	0.996196	-0.000118
 833	8.2784e+01	6.8533	20.647931	0.000375	3.751400	1.271009	-0.000150
 834	8.2883e+01	6.8100	20.498557	0.000375	3.751400	1.271009	-0.000150
 835	8.2983e+01	6.7667	20.393591	0.000264	2.636119	0.893141	-0.000105
 836	8.3082e+01	6.7298	20.264403	0.000324	3.244454	1.099251	-0.000130
 837	8.3182e+01	6.6993	20.098880	0.000416	4.156957	1.408415	-0.000166
 838	8.3281e+01	6.6479	19.993915	0.000264	2.636119	0.893141	-0.000105
 839	8.3381e+01	6.6094	19.864726	0.000324	3.244454	1.099251	-0.000130
 840	8.3481e+01	6.5709	19.731501	0.000335	3.345843	1.133602	-0.000134
 841	8.3580e+01	6.5324	19.606350	0.000314	3.143065	1.064899	-0.000126
 842	8.3680e+01	6.4907	19.465050	0.000355	3.548622	1.202306	-0.000142
 843	8.3779e+01	6.4570	19.307602	0.000395	3.954178	1.339712	-0.000158
 844	8.3879e+01	6.4121	19.166302	0.000355	3.548622	1.202306	-0.000142
 845	8.3978e+01	6.3720	19.057299	0.000274	2.737508	0.927493	-0.000110
 846	8.4078e+01	6.3319	18.887740	0.000426	4.258346	1.442767	-0.000170
 847	8.4177e+01	6.2918	18.782774	0.000264	2.636119	0.893141	-0.000105
 848	8.4276e+01	6.2613	18.685883	0.000243	2.433340	0.824438	-0.000097
 849	8.4376e+01	6.2228	18.544583	0.000355	3.548622	1.202306	-0.000142
 850	8.4475e+01	6.1683	18.383098	0.000406	4.055567	1.374063	-0.000162
 851	8.4575e+01	6.1410	18.286206	0.000243	2.433340	0.824438	-0.000097
 852	8.4674e+01	6.0929	18.165092	0.000304	3.041676	1.030548	-0.000122
 853	8.4774e+01	6.0608	17.975347	0.000477	4.765292	1.614525	-0.000191
 854	8.4874e+01	6.0159	17.862307	0.000284	2.838897	0.961844	-0.000114
 855	8.4973e+01	5.9838	17.725044	0.000345	3.447232	1.167954	-0.000138
 856	8.5073e+01	5.9308	17.624116	0.000253	2.534730	0.858790	-0.000101
 857	8.5172e+01	5.8956	17.494928	0.000324	3.244454	1.099251	-0.000130
 858	8.5272e+01	5.8522	17.377851	0.000294	2.940286	0.996196	-0.000118
 859	8.5371e+01	5.8073	17.236551	0.000355	3.548622	1.202306	-0.000142
 860	8.5471e+01	5.7720	17.119474	0.000294	2.940286	0.996196	-0.000118
 861	8.5570e+01	5.7351	16.957989	0.000406	4.055567	1.374063	-0.000162
 862	8.5669e+01	5.6998	16.881283	0.000193	1.926395	0.652680	-0.000077
 863	8.5769e+01	5.6597	16.739983	0.000355	3.548622	1.202306	-0.000142
 864	8.5868e+01	5.6196	16.610795	0.000324	3.244454	1.099251	-0.000130
 865	8.5968e+01	5.5779	16.481607	0.000324	3.244454	1.099251	-0.000130
 866	8.6067e+01	5.5458	16.336270	0.000365	3.650011	1.236657	-0.000146
 867	8.6167e+01	5.5009	16.182859	0.000385	3.852789	1.305360	-0.000154
 868	8.6266e+01	5.4608	16.073856	0.000274	2.737508	0.927493	-0.000110
 869	8.6366e+01	5.4239	15.956779	0.000294	2.940286	0.996196	-0.000118
 870	8.6466e+01	5.3838	15.815479	0.000355	3.548622	1.202306	-0.000142
 871	8.6565e+01	5.3405	15.682254	0.000335	3.345843	1.133602	-0.000134
 872	8.6665e+01	5.3020	15.553065	0.000324	3.244454	1.099251	-0.000130
 873	8.6764e+01	5.2571	15.444063	0.000274	2.737508	0.927493	-0.000110
 874	8.6864e+01	5.2202	15.290652	0.000385	3.852789	1.305360	-0.000154
 875	8.6963e+01	5.1769	15.185686	0.000264	2.636119	0.893141	-0.000105
 876	8.7063e+01	5.1416	15.036312	0.000375	3.751400	1.271009	-0.000150
 877	8.7162e+01	5.0999	14.911161	0.000314	3.143065	1.064899	-0.000126
 878	8.7261e+01	5.0565	14.786010	0.000314	3.143065	1.064899	-0.000126
 879	8.7361e+01	5.0180	14.672970	0.000284	2.838897	0.961844	-0.000114
 880	8.7460e+01	4.9844	14.483224	0.000477	4.765292	1.614525	-0.000191
 881	8.7560e+01	4.9378	14.378259	0.000264	2.636119	0.893141	-0.000105
 882	8.7659e+01	4.9090	14.289442	0.000223	2.230562	0.755735	-0.000089
 883	8.7759e+01	4.8624	14.152179	0.000345	3.447232	1.167954	-0.000138
 884	8.7859e+01	4.8191	14.010880	0.000355	3.548622	1.202306	-0.000142
 885	8.7958e+01	4.7790	13.893803	0.000294	2.940286	0.996196	-0.000118
 886	8.8058e+01	4.7341	13.764614	0.000324	3.244454	1.099251	-0.000130
 887	8.8157e+01	4.7052	13.603129	0.000406	4.055567	1.374063	-0.000162
 888	8.8257e+01	4.6603	13.510275	0.000233	2.331951	0.790086	-0.000093
 889	8.8356e+01	4.6346	13.332641	0.000446	4.461124	1.511470	-0.000179
 890	8.8456e+01	4.5849	13.235750	0.000243	2.433340	0.824438	-0.000097
 891	8.8555e+01	4.5416	13.098487	0.000345	3.447232	1.167954	-0.000138
 892	8.8654e+01	4.5095	12.985447	0.000284	2.838897	0.961844	-0.000114
 893	8.8754e+01	4.4550	12.832036	0.000385	3.852789	1.305360	-0.000154
 894	8.8853e+01	4.4165	12.698810	0.000335	3.345843	1.133602	-0.000134
 895	8.8953e+01	4.3860	12.565585	0.000335	3.345843	1.133602	-0.000134
 896	8.9052e+01	4.3459	12.436397	0.000324	3.244454	1.099251	-0.000130
 897	8.9152e+01	4.2977	12.291060	0.000365	3.650011	1.236657	-0.000146
 898	8.9251e+01	4.2624	12.202243	0.000223	2.230562	0.755735	-0.000089
 899	8.9351e+01	4.2159	12.040757	0.000406	4.055567	1.374063	-0.000162
 900	8.9451e+01	4.1742	11.903495	0.000345	3.447232	1.167954	-0.000138
 901	8.9550e+01	4.1373	11.794492	0.000274	2.737508	0.927493	-0.000110
 902	8.9650e+01	4.0924	11.657229	0.000345	3.447232	1.167954	-0.000138
 903	8.9749e+01	4.0635	11.519967	0.000345	3.447232	1.167954	-0.000138
 904	8.9849e+01	4.0234	11.374630	0.000365	3.650011	1.236657	-0.000146
 905	8.9948e+01	3.9769	11.217182	0.000395	3.954178	1.339712	-0.000158
 906	9.0047e+01	3.9576	11.087993	0.000324	3.244454	1.099251	-0.000130
 907	9.0147e+01	3.8967	10.991102	0.000243	2.433340	0.824438	-0.000097
 908	9.0246e+01	3.8614	10.841728	0.000375	3.751400	1.271009	-0.000150
 909	9.0346e+01	3.8277	10.720614	0.000304	3.041676	1.030548	-0.000122
 910	9.0445e+01	3.7844	10.587388	0.000335	3.345843	1.133602	-0.000134
 911	9.0545e+01	3.7443	10.478386	0.000274	2.737508	0.927493	-0.000110
 912	9.0644e+01	3.7042	10.284603	0.000487	4.866681	1.648876	-0.000195
 913	9.0744e+01	3.6609	10.232121	0.000132	1.318059	0.446571	-0.000053
 914	9.0844e+01	3.6175	10.050449	0.000456	4.562513	1.545821	-0.000183
 915	9.0943e+01	3.5823	9.925298	0.000314	3.143065	1.064899	-0.000126
 916	9.1043e+01	3.5373	9.816296	0.000274	2.737508	0.927493	-0.000110
 917	9.1142e+01	3.5036	9.723441	0.000233	2.331951	0.790086	-0.000093
 918	9.1242e+01	3.4651	9.553882	0.000426	4.258346	1.442767	-0.000170
 919	9.1341e+01	3.4186	9.404508	0.000375	3.751400	1.271009	-0.000150
 920	9.1441e+01	3.3913	9.247059	0.000395	3.954178	1.339712	-0.000158
 921	9.1540e+01	3.3368	9.150168	0.000243	2.433340	0.824438	-0.000097
 922	9.1639e+01	3.3047	9.016943	0.000335	3.345843	1.133602	-0.000134
 923	9.1739e+01	3.2694	8.855457	0.000406	4.055567	1.374063	-0.000162
 924	9.1838e+01	3.2293	8.762603	0.000233	2.331951	0.790086	-0.000093
 925	9.1938e+01	3.1748	8.605155	0.000395	3.954178	1.339712	-0.000158
 926	9.2037e+01	3.1523	8.496152	0.000274	2.737508	0.927493	-0.000110
 927	9.2137e+01	3.1122	8.366964	0.000324	3.244454	1.099251	-0.000130
 928	9.2237e+01	3.0657	8.237775	0.000324	3.244454	1.099251	-0.000130
 929	9.2336e+01	3.0288	8.096476	0.000355	3.548622	1.202306	-0.000142
 930	9.2436e+01	2.9903	7.999584	0.000243	2.433340	0.824438	-0.000097
 931	9.2535e+01	2.9390	7.801765	0.000497	4.968070	1.683228	-0.000199
 932	9.2635e+01	2.9053	7.668539	0.000335	3.345843	1.133602	-0.000134
 933	9.2734e+01	2.8700	7.599908	0.000172	1.723616	0.583977	-0.000069
 934	9.2834e+01	2.8218	7.426311	0.000436	4.359735	1.477118	-0.000174
 935	9.2933e+01	2.7817	7.333457	0.000233	2.331951	0.790086	-0.000093
 936	9.3032e+01	2.7545	7.135637	0.000497	4.968070	1.683228	-0.000199
 937	9.3132e+01	2.7079	7.050858	0.000213	2.129173	0.721383	-0.000085
 938	9.3231e+01	2.6662	6.877261	0.000436	4.359735	1.477118	-0.000174
 939	9.3331e+01	2.6342	6.788444	0.000223	2.230562	0.755735	-0.000089
 940	9.3430e+01	2.5892	6.610810	0.000446	4.461124	1.511470	-0.000179
 941	9.3530e+01	2.5523	6.461436	0.000375	3.751400	1.271009	-0.000150
 942	9.3629e+01	2.5090	6.348396	0.000284	2.838897	0.961844	-0.000114
 943	9.3729e+01	2.4689	6.263616	0.000213	2.129173	0.721383	-0.000085
 944	9.3829e+01	2.4304	6.098094	0.000416	4.156957	1.408415	-0.000166
 945	9.3928e+01	2.3871	5.972942	0.000314	3.143065	1.064899	-0.000126
 946	9.4028e+01	2.3422	5.791271	0.000456	4.562513	1.545821	-0.000183
 947	9.4127e+01	2.3101	5.734751	0.000142	1.419449	0.480922	-0.000057
 948	9.4227e+01	2.2780	5.585377	0.000375	3.751400	1.271009	-0.000150
 949	9.4326e+01	2.2379	5.427929	0.000395	3.954178	1.339712	-0.000158
 950	9.4425e+01	2.1914	5.290666	0.000345	3.447232	1.167954	-0.000138
 951	9.4525e+01	2.1497	5.129181	0.000406	4.055567	1.374063	-0.000162
 952	9.4624e+01	2.1096	4.987881	0.000355	3.548622	1.202306	-0.000142
 953	9.4724e+01	2.0743	4.895027	0.000233	2.331951	0.790086	-0.000093
 954	9.4823e+01	2.0310	4.709319	0.000466	4.663903	1.580173	-0.000187
 955	9.4923e+01	1.9925	4.572056	0.000345	3.447232	1.167954	-0.000138
 956	9.5022e+01	1.9556	4.479202	0.000233	2.331951	0.790086	-0.000093
 957	9.5122e+01	1.9058	4.341939	0.000345	3.447232	1.167954	-0.000138
 958	9.5222e+01	1.8721	4.212751	0.000324	3.244454	1.099251	-0.000130
 959	9.5321e+01	1.8320	4.055303	0.000395	3.954178	1.339712	-0.000158
 960	9.5421e+01	1.7935	3.877669	0.000446	4.461124	1.511470	-0.000179
 961	9.5520e+01	1.7598	3.760592	0.000294	2.940286	0.996196	-0.000118
 962	9.5620e+01	1.7149	3.591032	0.000426	4.258346	1.442767	-0.000170
 963	9.5719e+01	1.6748	3.494141	0.000243	2.433340	0.824438	-0.000097
 964	9.5819e+01	1.6331	3.368990	0.000314	3.143065	1.064899	-0.000126
 965	9.5918e+01	1.5898	3.235764	0.000335	3.345843	1.133602	-0.000134
 966	9.6017e+01	1.5561	3.098502	0.000345	3.447232	1.167954	-0.000138
 967	9.6117e+01	1.5064	2.985462	0.000284	2.838897	0.961844	-0.000114
 968	9.6216e+01	1.4631	2.787642	0.000497	4.968070	1.683228	-0.000199
 969	9.6316e+01	1.4326	2.694788	0.000233	2.331951	0.790086	-0.000093
 970	9.6415e+01	1.3861	2.525228	0.000426	4.258346	1.442767	-0.000170
 971	9.6515e+01	1.3508	2.428337	0.000243	2.433340	0.824438	-0.000097
 972	9.6615e+01	1.3107	2.246666	0.000456	4.562513	1.545821	-0.000183
 973	9.6714e+01	1.2754	2.129589	0.000294	2.940286	0.996196	-0.000118
 974	9.6814e+01	1.2321	2.044809	0.000213	2.129173	0.721383	-0.000085
 975	9.6913e+01	1.1935	1.899472	0.000365	3.650011	1.236657	-0.000146
 976	9.7013e+01	1.1534	1.766247	0.000335	3.345843	1.133602	-0.000134
 977	9.7112e+01	1.1182	1.576502	0.000477	4.765292	1.614525	-0.000191
 978	9.7212e+01	1.0732	1.515944	0.000152	1.520838	0.515274	-0.000061
 979	9.7311e+01	1.0315	1.346385	0.000426	4.258346	1.442767	-0.000170
 980	9.7410e+01	0.9898	1.168751	0.000446	4.461124	1.511470	-0.000179
 981	9.7510e+01	0.9433	1.112231	0.000142	1.419449	0.480922	-0.000057
 982	9.7609e+01	0.9160	0.954783	0.000395	3.954178	1.339712	-0.000158
 983	9.7709e+01	0.8679	0.781186	0.000436	4.359735	1.477118	-0.000174
 984	9.7808e+01	0.8454	0.704480	0.000193	1.926395	0.652680	-0.000077
 985	9.7908e+01	0.7957	0.563180	0.000355	3.548622	1.202306	-0.000142
 986	9.8007e+01	0.7508	0.377472	0.000466	4.663903	1.580173	-0.000187
 987	9.8107e+01	0.7139	0.276544	0.000253	2.534730	0.858790	-0.000101
 988	9.8207e+01	0.6722	0.135244	0.000355	3.548622	1.202306	-0.000142
 989	9.8306e+01	0.6337	0.042390	0.000233	2.331951	0.790086	-0.000093
 990	9.8406e+01	0.6000	-0.098910	0.000355	3.548622	1.202306	-0.000142
 991	9.8505e+01	0.5567	-0.256358	0.000395	3.954178	1.339712	-0.000158
 992	9.8605e+01	0.5118	-0.381509	0.000314	3.143065	1.064899	-0.000126
 993	9.8704e+01	0.4716	-0.551069	0.000426	4.258346	1.442767	-0.000170
 994	9.8803e+01	0.4460	-0.672183	0.000304	3.041676	1.030548	-0.000122
 995	9.8903e+01	0.3930	-0.797334	0.000314	3.143065	1.064899	-0.000126
 996	9.9002e+01	0.3513	-0.930560	0.000335	3.345843	1.133602	-0.000134
 997	9.9102e+01	0.3160	-1.059748	0.000324	3.244454	1.099251	-0.000130
 998	9.9201e+01	0.2759	-1.217196	0.000395	3.954178	1.339712	-0.000158
 999	9.9301e+01	0.2390	-1.350422	0.000335	3.345843	1.133602	-0.000134
1000	9.9400e+01	0.1877	-1.471536	0.000304	3.041676	1.030548	-0.000122
1001	9.9500e+01	0.1540	-1.600724	0.000324	3.244454	1.099251	-0.000130
1002	9.9600e+01	0.1171	-1.733950	0.000335	3.345843	1.133602	-0.000134
1003	9.9699e+01	0.0722	-1.887361	0.000385	3.852789	1.305360	-0.000154
1004	9.9799e+01	0.0401	-2.000401	0.000284	2.838897	0.961844	-0.000114
1005	9.9898e+01	0.0096	-2.105366	0.000264	2.636119	0.893141	-0.000105
1006	9.9998e+01	-0.0337	-2.218406	0.000284	2.838897	0.961844	-0.000114
1007	1.0010e+02	-0.0770	-2.387966	0.000426	4.258346	1.442767	-0.000170
1008	1.0020e+02	-0.1219	-2.517154	0.000324	3.244454	1.099251	-0.000130
1009	1.0030e+02	-0.1540	-2.642305	0.000314	3.143065	1.064899	-0.000126
1010	1.0040e+02	-0.1941	-2.787642	0.000365	3.650011	1.236657	-0.000146
1011	1.0050e+02	-0.2374	-2.920868	0.000335	3.345843	1.133602	-0.000134
1012	1.0059e+02	-0.2759	-3.041982	0.000304	3.041676	1.030548	-0.000122
1013	1.0069e+02	-0.3112	-3.191356	0.000375	3.751400	1.271009	-0.000150
1014	1.0079e+02	-0.3545	-3.332656	0.000355	3.548622	1.202306	-0.000142
1015	1.0089e+02	-0.3962	-3.413398	0.000203	2.027784	0.687032	-0.000081
1016	1.0099e+02	-0.4331	-3.566809	0.000385	3.852789	1.305360	-0.000154
1017	1.0109e+02	-0.4797	-3.704072	0.000345	3.447232	1.167954	-0.000138
1018	1.0119e+02	-0.5134	-3.837298	0.000335	3.345843	1.133602	-0.000134
1019	1.0129e+02	-0.5486	-3.978597	0.000355	3.548622	1.202306	-0.000142
1020	1.0139e+02	-0.5952	-4.091637	0.000284	2.838897	0.961844	-0.000114
1021	1.0149e+02	-0.6337	-4.253123	0.000406	4.055567	1.374063	-0.000162
1022	1.0159e+02	-0.6690	-4.382311	0.000324	3.244454	1.099251	-0.000130
1023	1.0169e+02	-0.7107	-4.463054	0.000203	2.027784	0.687032	-0.000081
1024	1.0179e+02	-0.7476	-4.632613	0.000426	4.258346	1.442767	-0.000170
1025	1.0189e+02	-0.7925	-4.761802	0.000324	3.244454	1.099251	-0.000130
1026	1.0199e+02	-0.8246	-4.911176	0.000375	3.751400	1.271009	-0.000150
1027	1.0209e+02	-0.8711	-5.060550	0.000375	3.751400	1.271009	-0.000150
1028	1.0219e+02	-0.9064	-5.133218	0.000183	1.825005	0.618329	-0.000073
1029	1.0229e+02	-0.9561	-5.274518	0.000355	3.548622	1.202306	-0.000142
1030	1.0239e+02	-0.9882	-5.427929	0.000385	3.852789	1.305360	-0.000154
1031	1.0248e+02	-1.0203	-5.553080	0.000314	3.143065	1.064899	-0.000126
1032	1.0258e+02	-1.0764	-5.678231	0.000314	3.143065	1.064899	-0.000126
1033	1.0268e+02	-1.1117	-5.750900	0.000183	1.825005	0.618329	-0.000073
1034	1.0278e+02	-1.1486	-5.900274	0.000375	3.751400	1.271009	-0.000150
1035	1.0288e+02	-1.1839	-6.049648	0.000375	3.751400	1.271009	-0.000150
1036	1.0298e+02	-1.2304	-6.166725	0.000294	2.940286	0.996196	-0.000118
1037	1.0308e+02	-1.2706	-6.303987	0.000345	3.447232	1.167954	-0.000138
1038	1.0318e+02	-1.3042	-6.425102	0.000304	3.041676	1.030548	-0.000122
1039	1.0328e+02	-1.3460	-6.546216	0.000304	3.041676	1.030548	-0.000122
1040	1.0338e+02	-1.3941	-6.703664	0.000395	3.954178	1.339712	-0.000158
1041	1.0348e+02	-1.4197	-6.820741	0.000294	2.940286	0.996196	-0.000118
1042	1.0358e+02	-1.4615	-6.945892	0.000314	3.143065	1.064899	-0.000126
1043	1.0368e+02	-1.5080	-7.018560	0.000183	1.825005	0.618329	-0.000073
1044	1.0378e+02	-1.5497	-7.163897	0.000365	3.650011	1.236657	-0.000146
1045	1.0388e+02	-1.5930	-7.309234	0.000365	3.650011	1.236657	-0.000146
1046	1.0398e+02	-1.6283	-7.426311	0.000294	2.940286	0.996196	-0.000118
1047	1.0408e+02	-1.6684	-7.575685	0.000375	3.751400	1.271009	-0.000150
1048	1.0418e+02	-1.7053	-7.696799	0.000304	3.041676	1.030548	-0.000122
1049	1.0428e+02	-1.7502	-7.838099	0.000355	3.548622	1.202306	-0.000142
1050	1.0438e+02	-1.7839	-7.930953	0.000233	2.331951	0.790086	-0.000093
1051	1.0447e+02	-1.8240	-8.088401	0.000395	3.954178	1.339712	-0.000158
1052	1.0457e+02	-1.8673	-8.205478	0.000294	2.940286	0.996196	-0.000118
1053	1.0467e+02	-1.9122	-8.286221	0.000203	2.027784	0.687032	-0.000081
1054	1.0477e+02	-1.9491	-8.435595	0.000375	3.751400	1.271009	-0.000150
1055	1.0487e+02	-1.9780	-8.609192	0.000436	4.359735	1.477118	-0.000174
1056	1.0497e+02	-2.0261	-8.714157	0.000264	2.636119	0.893141	-0.000105
1057	1.0507e+02	-2.0743	-8.823160	0.000274	2.737508	0.927493	-0.000110
1058	1.0517e+02	-2.1064	-8.952348	0.000324	3.244454	1.099251	-0.000130
1059	1.0527e+02	-2.1497	-9.117871	0.000416	4.156957	1.408415	-0.000166
1060	1.0537e+02	-2.1818	-9.267245	0.000375	3.751400	1.271009	-0.000150
1061	1.0547e+02	-2.2267	-9.356062	0.000223	2.230562	0.755735	-0.000089
1062	1.0557e+02	-2.2636	-9.473139	0.000294	2.940286	0.996196	-0.000118
1063	1.0567e+02	-2.3037	-9.634624	0.000406	4.055567	1.374063	-0.000162
1064	1.0577e+02	-2.3406	-9.779961	0.000365	3.650011	1.236657	-0.000146
1065	1.0587e+02	-2.3855	-9.905113	0.000314	3.143065	1.064899	-0.000126
1066	1.0597e+02	-2.4224	-10.030264	0.000314	3.143065	1.064899	-0.000126
1067	1.0607e+02	-2.4657	-10.147341	0.000294	2.940286	0.996196	-0.000118
1068	1.0617e+02	-2.5010	-10.268455	0.000304	3.041676	1.030548	-0.000122
1069	1.0627e+02	-2.5475	-10.377457	0.000274	2.737508	0.927493	-0.000110
1070	1.0637e+02	-2.5796	-10.555091	0.000446	4.461124	1.511470	-0.000179
1071	1.0647e+02	-2.6261	-10.668131	0.000284	2.838897	0.961844	-0.000114
1072	1.0656e+02	-2.6662	-10.801357	0.000335	3.345843	1.133602	-0.000134
1073	1.0666e+02	-2.7031	-10.902285	0.000253	2.534730	0.858790	-0.000101
1074	1.0676e+02	-2.7400	-11.051659	0.000375	3.751400	1.271009	-0.000150
1075	1.0686e+02	-2.7882	-11.164699	0.000284	2.838897	0.961844	-0.000114
1076	1.0696e+02	-2.8138	-11.281776	0.000294	2.940286	0.996196	-0.000118
1077	1.0706e+02	-2.8684	-11.406927	0.000314	3.143065	1.064899	-0.000126
1078	1.0716e+02	-2.9037	-11.544190	0.000345	3.447232	1.167954	-0.000138
1079	1.0726e+02	-2.9390	-11.669341	0.000314	3.143065	1.064899	-0.000126
1080	1.0736e+02	-2.9775	-11.778344	0.000274	2.737508	0.927493	-0.000110
1081	1.0746e+02	-3.0224	-11.883309	0.000264	2.636119	0.893141	-0.000105
1082	1.0756e+02	-3.0657	-12.040757	0.000395	3.954178	1.339712	-0.000158
1083	1.0766e+02	-3.1042	-12.157834	0.000294	2.940286	0.996196	-0.000118
1084	1.0776e+02	-3.1411	-12.291060	0.000335	3.345843	1.133602	-0.000134
1085	1.0786e+02	-3.1908	-12.456582	0.000416	4.156957	1.408415	-0.000166
1086	1.0796e+02	-3.2181	-12.537325	0.000203	2.027784	0.687032	-0.000081
1087	1.0806e+02	-3.2614	-12.686699	0.000375	3.751400	1.271009	-0.000150
1088	1.0816e+02	-3.3079	-12.815887	0.000324	3.244454	1.099251	-0.000130
1089	1.0826e+02	-3.3480	-12.916816	0.000253	2.534730	0.858790	-0.000101
1090	1.0836e+02	-3.3865	-13.029856	0.000284	2.838897	0.961844	-0.000114
1091	1.0845e+02	-3.4250	-13.183267	0.000385	3.852789	1.305360	-0.000154
1092	1.0855e+02	-3.4603	-13.312455	0.000324	3.244454	1.099251	-0.000130
1093	1.0865e+02	-3.5036	-13.417421	0.000264	2.636119	0.893141	-0.000105
1094	1.0875e+02	-3.5341	-13.558720	0.000355	3.548622	1.202306	-0.000142
1095	1.0885e+02	-3.5823	-13.659649	0.000253	2.534730	0.858790	-0.000101
1096	1.0895e+02	-3.6175	-13.833246	0.000436	4.359735	1.477118	-0.000174
1097	1.0905e+02	-3.6641	-13.930137	0.000243	2.433340	0.824438	-0.000097
1098	1.0915e+02	-3.7026	-14.059325	0.000324	3.244454	1.099251	-0.000130
1099	1.0925e+02	-3.7427	-14.176402	0.000294	2.940286	0.996196	-0.000118
1100	1.0935e+02	-3.7812	-14.317702	0.000355	3.548622	1.202306	-0.000142
1101	1.0945e+02	-3.8101	-14.426705	0.000274	2.737508	0.927493	-0.000110
1102	1.0955e+02	-3.8550	-14.531670	0.000264	2.636119	0.893141	-0.000105
1103	1.0965e+02	-3.9031	-14.697193	0.000416	4.156957	1.408415	-0.000166
1104	1.0975e+02	-3.9352	-14.870789	0.000436	4.359735	1.477118	-0.000174
1105	1.0985e+02	-3.9801	-14.967681	0.000243	2.433340	0.824438	-0.000097
1106	1.0995e+02	-4.0186	-15.088795	0.000304	3.041676	1.030548	-0.000122
1107	1.1005e+02	-4.0555	-15.197797	0.000274	2.737508	0.927493	-0.000110
1108	1.1015e+02	-4.0972	-15.371394	0.000436	4.359735	1.477118	-0.000174
1109	1.1025e+02	-4.1325	-15.476360	0.000264	2.636119	0.893141	-0.000105
1110	1.1035e+02	-4.1822	-15.621697	0.000365	3.650011	1.236657	-0.000146
1111	1.1044e+02	-4.2127	-15.702439	0.000203	2.027784	0.687032	-0.000081
1112	1.1054e+02	-4.2624	-15.811442	0.000274	2.737508	0.927493	-0.000110
1113	1.1064e+02	-4.3042	-15.940630	0.000324	3.244454	1.099251	-0.000130
1114	1.1074e+02	-4.3459	-16.110190	0.000426	4.258346	1.442767	-0.000170
1115	1.1084e+02	-4.3796	-16.219193	0.000274	2.737508	0.927493	-0.000110
1116	1.1094e+02	-4.4165	-16.388753	0.000426	4.258346	1.442767	-0.000170
1117	1.1104e+02	-4.4566	-16.497755	0.000274	2.737508	0.927493	-0.000110
1118	1.1114e+02	-4.5031	-16.639055	0.000355	3.548622	1.202306	-0.000142
1119	1.1124e+02	-4.5320	-16.764206	0.000314	3.143065	1.064899	-0.000126
1120	1.1134e+02	-4.5769	-16.836875	0.000183	1.825005	0.618329	-0.000073
1121	1.1144e+02	-4.6106	-16.990286	0.000385	3.852789	1.305360	-0.000154
1122	1.1154e+02	-4.6603	-17.115437	0.000314	3.143065	1.064899	-0.000126
1123	1.1164e+02	-4.6908	-17.260774	0.000365	3.650011	1.236657	-0.000146
1124	1.1174e+02	-4.7357	-17.373814	0.000284	2.838897	0.961844	-0.000114
1125	1.1184e+02	-4.7774	-17.539336	0.000416	4.156957	1.408415	-0.000166
1126	1.1194e+02	-4.8143	-17.644302	0.000264	2.636119	0.893141	-0.000105
1127	1.1204e+02	-4.8544	-17.785601	0.000355	3.548622	1.202306	-0.000142
1128	1.1214e+02	-4.9009	-17.922864	0.000345	3.447232	1.167954	-0.000138
1129	1.1224e+02	-4.9410	-18.052052	0.000324	3.244454	1.099251	-0.000130
1130	1.1234e+02	-4.9731	-18.181241	0.000324	3.244454	1.099251	-0.000130
1131	1.1244e+02	-5.0196	-18.322541	0.000355	3.548622	1.202306	-0.000142
1132	1.1253e+02	-5.0517	-18.435580	0.000284	2.838897	0.961844	-0.000114
1133	1.1263e+02	-5.0902	-18.548620	0.000284	2.838897	0.961844	-0.000114
1134	1.1273e+02	-5.1384	-18.710106	0.000406	4.055567	1.374063	-0.000162
1135	1.1283e+02	-5.1753	-18.823145	0.000284	2.838897	0.961844	-0.000114
1136	1.1293e+02	-5.2218	-18.924074	0.000253	2.534730	0.858790	-0.000101
1137	1.1303e+02	-5.2507	-19.057299	0.000335	3.345843	1.133602	-0.000134
1138	1.1313e+02	-5.2892	-19.162265	0.000264	2.636119	0.893141	-0.000105
1139	1.1323e+02	-5.3293	-19.303565	0.000355	3.548622	1.202306	-0.000142
1140	1.1333e+02	-5.3710	-19.436790	0.000335	3.345843	1.133602	-0.000134
1141	1.1343e+02	-5.4191	-19.578090	0.000355	3.548622	1.202306	-0.000142
1142	1.1353e+02	-5.4512	-19.670944	0.000233	2.331951	0.790086	-0.000093
1143	1.1363e+02	-5.4961	-19.812244	0.000355	3.548622	1.202306	-0.000142
1144	1.1373e+02	-5.5282	-19.921246	0.000274	2.737508	0.927493	-0.000110
1145	1.1383e+02	-5.5635	-20.066583	0.000365	3.650011	1.236657	-0.000146
1146	1.1393e+02	-5.6100	-20.191734	0.000314	3.143065	1.064899	-0.000126
1147	1.1403e+02	-5.6549	-20.337071	0.000365	3.650011	1.236657	-0.000146
1148	1.1413e+02	-5.6918	-20.450111	0.000284	2.838897	0.961844	-0.000114
1149	1.1423e+02	-5.7367	-20.567188	0.000294	2.940286	0.996196	-0.000118
1150	1.1433e+02	-5.7768	-20.708488	0.000355	3.548622	1.202306	-0.000142
1151	1.1442e+02	-5.8186	-20.809416	0.000253	2.534730	0.858790	-0.000101
1152	1.1452e+02	-5.8490	-20.934567	0.000314	3.143065	1.064899	-0.000126
1153	1.1462e+02	-5.8923	-21.071830	0.000345	3.447232	1.167954	-0.000138
1154	1.1472e+02	-5.9405	-21.192944	0.000304	3.041676	1.030548	-0.000122
1155	1.1482e+02	-5.9694	-21.314058	0.000304	3.041676	1.030548	-0.000122
1156	1.1492e+02	-6.0079	-21.414987	0.000253	2.534730	0.858790	-0.000101
1157	1.1502e+02	-6.0544	-21.556286	0.000355	3.548622	1.202306	-0.000142
1158	1.1512e+02	-6.0784	-21.685475	0.000324	3.244454	1.099251	-0.000130
1159	1.1522e+02	-6.1234	-21.774292	0.000223	2.230562	0.755735	-0.000089
1160	1.1532e+02	-6.1619	-21.915591	0.000355	3.548622	1.202306	-0.000142
1161	1.1542e+02	-6.2132	-22.036705	0.000304	3.041676	1.030548	-0.000122
1162	1.1552e+02	-6.2517	-22.198191	0.000406	4.055567	1.374063	-0.000162
1163	1.1562e+02	-6.2902	-22.299119	0.000253	2.534730	0.858790	-0.000101
1164	1.1572e+02	-6.3335	-22.436382	0.000345	3.447232	1.167954	-0.000138
1165	1.1582e+02	-6.3656	-22.549422	0.000284	2.838897	0.961844	-0.000114
1166	1.1592e+02	-6.4121	-22.686684	0.000345	3.447232	1.167954	-0.000138
1167	1.1602e+02	-6.4458	-22.795687	0.000274	2.737508	0.927493	-0.000110
1168	1.1612e+02	-6.4891	-22.920838	0.000314	3.143065	1.064899	-0.000126
1169	1.1622e+02	-6.5212	-23.017729	0.000243	2.433340	0.824438	-0.000097
1170	1.1632e+02	-6.5677	-23.167103	0.000375	3.751400	1.271009	-0.000150
1171	1.1642e+02	-6.6110	-23.251883	0.000213	2.129173	0.721383	-0.000085
1172	1.1651e+02	-6.6511	-23.405294	0.000385	3.852789	1.305360	-0.000154
1173	1.1661e+02	-6.6752	-23.526409	0.000304	3.041676	1.030548	-0.000122
1174	1.1671e+02	-6.7249	-23.611188	0.000213	2.129173	0.721383	-0.000085
1175	1.1681e+02	-6.7683	-23.829194	0.000548	5.475016	1.854986	-0.000219
1176	1.1691e+02	-6.7939	-23.922048	0.000233	2.331951	0.790086	-0.000093
1177	1.1701e+02	-6.8356	-24.006828	0.000213	2.129173	0.721383	-0.000085
1178	1.1711e+02	-6.8854	-24.156202	0.000375	3.751400	1.271009	-0.000150
1179	1.1721e+02	-6.9287	-24.245019	0.000223	2.230562	0.755735	-0.000089
1180	1.1731e+02	-6.9624	-24.390356	0.000365	3.650011	1.236657	-0.000146
1181	1.1741e+02	-7.0073	-24.503395	0.000284	2.838897	0.961844	-0.000114
1182	1.1751e+02	-7.0554	-24.681029	0.000446	4.461124	1.511470	-0.000179
1183	1.1761e+02	-7.0811	-24.749661	0.000172	1.723616	0.583977	-0.000069
1184	1.1771e+02	-7.1276	-24.870775	0.000304	3.041676	1.030548	-0.000122
1185	1.1781e+02	-7.1741	-24.991889	0.000304	3.041676	1.030548	-0.000122
1186	1.1791e+02	-7.1982	-25.092817	0.000253	2.534730	0.858790	-0.000101
1187	1.1801e+02	-7.2399	-25.238154	0.000365	3.650011	1.236657	-0.000146
1188	1.1811e+02	-7.2848	-25.343120	0.000264	2.636119	0.893141	-0.000105
1189	1.1821e+02	-7.3281	-25.480382	0.000345	3.447232	1.167954	-0.000138
1190	1.1831e+02	-7.3570	-25.593422	0.000284	2.838897	0.961844	-0.000114
1191	1.1841e+02	-7.3987	-25.714536	0.000304	3.041676	1.030548	-0.000122
1192	1.1850e+02	-7.4404	-25.823539	0.000274	2.737508	0.927493	-0.000110
1193	1.1860e+02	-7.4902	-25.928504	0.000264	2.636119	0.893141	-0.000105
1194	1.1870e+02	-7.5206	-26.049618	0.000304	3.041676	1.030548	-0.000122
1195	1.1880e+02	-7.5607	-26.170732	0.000304	3.041676	1.030548	-0.000122
1196	1.1890e+02	-7.6041	-26.283772	0.000284	2.838897	0.961844	-0.000114
1197	1.1900e+02	-7.6506	-26.404886	0.000304	3.041676	1.030548	-0.000122
1198	1.1910e+02	-7.6714	-26.554260	0.000375	3.751400	1.271009	-0.000150
1199	1.1920e+02	-7.7212	-26.663263	0.000274	2.737508	0.927493	-0.000110
1200	1.1930e+02	-7.7677	-26.804563	0.000355	3.548622	1.202306	-0.000142
1201	1.1940e+02	-7.8110	-26.881268	0.000193	1.926395	0.652680	-0.000077
1202	1.1950e+02	-7.8367	-26.982197	0.000253	2.534730	0.858790	-0.000101
1203	1.1960e+02	-7.8832	-27.131571	0.000375	3.751400	1.271009	-0.000150
1204	1.1970e+02	-7.9233	-27.204239	0.000183	1.825005	0.618329	-0.000073
1205	1.1980e+02	-7.9682	-27.333428	0.000324	3.244454	1.099251	-0.000130
1206	1.1990e+02	-7.9971	-27.490876	0.000395	3.954178	1.339712	-0.000158
1207	1.2000e+02	-8.0404	-27.563544	0.000183	1.825005	0.618329	-0.000073
1208	1.2010e+02	-8.0805	-27.696770	0.000335	3.345843	1.133602	-0.000134
1209	1.2020e+02	-8.1254	-27.817884	0.000304	3.041676	1.030548	-0.000122
1210	1.2030e+02	-8.1671	-27.914775	0.000243	2.433340	0.824438	-0.000097
1211	1.2039e+02	-8.2040	-28.027815	0.000284	2.838897	0.961844	-0.000114
1212	1.2049e+02	-8.2329	-28.144892	0.000294	2.940286	0.996196	-0.000118
1213	1.2059e+02	-8.2827	-28.233709	0.000223	2.230562	0.755735	-0.000089
1214	1.2069e+02	-8.3196	-28.387120	0.000385	3.852789	1.305360	-0.000154
1215	1.2079e+02	-8.3548	-28.455751	0.000172	1.723616	0.583977	-0.000069
1216	1.2089e+02	-8.3933	-28.621274	0.000416	4.156957	1.408415	-0.000166
1217	1.2099e+02	-8.4335	-28.730276	0.000274	2.737508	0.927493	-0.000110
1218	1.2109e+02	-8.4720	-28.855428	0.000314	3.143065	1.064899	-0.000126
1219	1.2119e+02	-8.5201	-28.936170	0.000203	2.027784	0.687032	-0.000081
1220	1.2129e+02	-8.5618	-29.085544	0.000375	3.751400	1.271009	-0.000150
1221	1.2139e+02	-8.5955	-29.206658	0.000304	3.041676	1.030548	-0.000122
1222	1.2149e+02	-8.6420	-29.311624	0.000264	2.636119	0.893141	-0.000105
1223	1.2159e+02	-8.6821	-29.436775	0.000314	3.143065	1.064899	-0.000126
1224	1.2169e+02	-8.7206	-29.545778	0.000274	2.737508	0.927493	-0.000110
1225	1.2179e+02	-8.7591	-29.662855	0.000294	2.940286	0.996196	-0.000118
1226	1.2189e+02	-8.7928	-29.735523	0.000183	1.825005	0.618329	-0.000073
1227	1.2199e+02	-8.8361	-29.872786	0.000345	3.447232	1.167954	-0.000138
1228	1.2209e+02	-8.8826	-29.989863	0.000294	2.940286	0.996196	-0.000118
1229	1.2219e+02	-8.9243	-30.119051	0.000324	3.244454	1.099251	-0.000130
1230	1.2229e+02	-8.9548	-30.240165	0.000304	3.041676	1.030548	-0.000122
1231	1.2239e+02	-8.9949	-30.357242	0.000294	2.940286	0.996196	-0.000118
1232	1.2248e+02	-9.0399	-30.409725	0.000132	1.318059	0.446571	-0.000053
1233	1.2258e+02	-9.0816	-30.575248	0.000416	4.156957	1.408415	-0.000166
1234	1.2268e+02	-9.1153	-30.716547	0.000355	3.548622	1.202306	-0.000142
1235	1.2278e+02	-9.1634	-30.817476	0.000253	2.534730	0.858790	-0.000101
1236	1.2288e+02	-9.1987	-30.938590	0.000304	3.041676	1.030548	-0.000122
1237	1.2298e+02	-9.2324	-31.015295	0.000193	1.926395	0.652680	-0.000077
1238	1.2308e+02	-9.2741	-31.172744	0.000395	3.954178	1.339712	-0.000158
1239	1.2318e+02	-9.3078	-31.277709	0.000264	2.636119	0.893141	-0.000105
1240	1.2328e+02	-9.3559	-31.374600	0.000243	2.433340	0.824438	-0.000097
1241	1.2338e+02	-9.4040	-31.511863	0.000345	3.447232	1.167954	-0.000138
1242	1.2348e+02	-9.4409	-31.588569	0.000193	1.926395	0.652680	-0.000077
1243	1.2358e+02	-9.4714	-31.766203	0.000446	4.461124	1.511470	-0.000179
1244	1.2368e+02	-9.5211	-31.830797	0.000162	1.622227	0.549625	-0.000065
1245	1.2378e+02	-9.5532	-31.927688	0.000243	2.433340	0.824438	-0.000097
1246	1.2388e+02	-9.5949	-32.068988	0.000355	3.548622	1.202306	-0.000142
1247	1.2398e+02	-9.6350	-32.202213	0.000335	3.345843	1.133602	-0.000134
1248	1.2408e+02	-9.6831	-32.278919	0.000193	1.926395	0.652680	-0.000077
1249	1.2418e+02	-9.7168	-32.395996	0.000294	2.940286	0.996196	-0.000118
1250	1.2428e+02	-9.7602	-32.509036	0.000284	2.838897	0.961844	-0.000114
1251	1.2438e+02	-9.7938	-32.618038	0.000274	2.737508	0.927493	-0.000110
1252	1.2447e+02	-9.8323	-32.755301	0.000345	3.447232	1.167954	-0.000138
1253	1.2457e+02	-9.8773	-32.876415	0.000304	3.041676	1.030548	-0.000122
1254	1.2467e+02	-9.9142	-32.977343	0.000253	2.534730	0.858790	-0.000101
1255	1.2477e+02	-9.9559	-33.062123	0.000213	2.129173	0.721383	-0.000085
1256	1.2487e+02	-9.9944	-33.203423	0.000355	3.548622	1.202306	-0.000142
1257	1.2497e+02	-10.0329	-33.304351	0.000253	2.534730	0.858790	-0.000101
1258	1.2507e+02	-10.0746	-33.364908	0.000152	1.520838	0.515274	-0.000061
1259	1.2517e+02	-10.1147	-33.534468	0.000426	4.258346	1.442767	-0.000170
1260	1.2527e+02	-10.1548	-33.627322	0.000233	2.331951	0.790086	-0.000093
1261	1.2537e+02	-10.1997	-33.784770	0.000395	3.954178	1.339712	-0.000158
1262	1.2547e+02	-10.2382	-33.865513	0.000203	2.027784	0.687032	-0.000081
1263	1.2557e+02	-10.2623	-34.002776	0.000345	3.447232	1.167954	-0.000138
1264	1.2567e+02	-10.3120	-34.087556	0.000213	2.129173	0.721383	-0.000085
1265	1.2577e+02	-10.3521	-34.228855	0.000355	3.548622	1.202306	-0.000142
1266	1.2587e+02	-10.3954	-34.341895	0.000284	2.838897	0.961844	-0.000114
1267	1.2597e+02	-10.4323	-34.450898	0.000274	2.737508	0.927493	-0.000110
1268	1.2607e+02	-10.4628	-34.584123	0.000335	3.345843	1.133602	-0.000134
1269	1.2617e+02	-10.5045	-34.640643	0.000142	1.419449	0.480922	-0.000057
1270	1.2627e+02	-10.5575	-34.757720	0.000294	2.940286	0.996196	-0.000118
1271	1.2636e+02	-10.5927	-34.890946	0.000335	3.345843	1.133602	-0.000134
1272	1.2646e+02	-10.6296	-34.967651	0.000193	1.926395	0.652680	-0.000077
1273	1.2656e+02	-10.6714	-35.072617	0.000264	2.636119	0.893141	-0.000105
1274	1.2666e+02	-10.7115	-35.234102	0.000406	4.055567	1.374063	-0.000162
1275	1.2676e+02	-10.7548	-35.326956	0.000233	2.331951	0.790086	-0.000093
1276	1.2686e+02	-10.7917	-35.476330	0.000375	3.751400	1.271009	-0.000150
1277	1.2696e+02	-10.8350	-35.561110	0.000213	2.129173	0.721383	-0.000085
1278	1.2706e+02	-10.8623	-35.649927	0.000223	2.230562	0.755735	-0.000089
1279	1.2716e+02	-10.9120	-35.791227	0.000355	3.548622	1.202306	-0.000142
1280	1.2726e+02	-10.9489	-35.908304	0.000294	2.940286	0.996196	-0.000118
1281	1.2736e+02	-10.9938	-35.997121	0.000223	2.230562	0.755735	-0.000089
1282	1.2746e+02	-11.0291	-36.158606	0.000406	4.055567	1.374063	-0.000162
1283	1.2756e+02	-11.0644	-36.267609	0.000274	2.737508	0.927493	-0.000110
1284	1.2766e+02	-11.1013	-36.425057	0.000395	3.954178	1.339712	-0.000158
1285	1.2776e+02	-11.1510	-36.517911	0.000233	2.331951	0.790086	-0.000093
1286	1.2786e+02	-11.1959	-36.634988	0.000294	2.940286	0.996196	-0.000118
1287	1.2796e+02	-11.2264	-36.731880	0.000243	2.433340	0.824438	-0.000097
1288	1.2806e+02	-11.2762	-36.877216	0.000365	3.650011	1.236657	-0.000146
1289	1.2816e+02	-11.3002	-36.953922	0.000193	1.926395	0.652680	-0.000077
1290	1.2826e+02	-11.3516	-37.054850	0.000253	2.534730	0.858790	-0.000101
1291	1.2835e+02	-11.3852	-37.171927	0.000294	2.940286	0.996196	-0.000118
1292	1.2845e+02	-11.4237	-37.293041	0.000304	3.041676	1.030548	-0.000122
1293	1.2855e+02	-11.4655	-37.410118	0.000294	2.940286	0.996196	-0.000118
1294	1.2865e+02	-11.5072	-37.523158	0.000284	2.838897	0.961844	-0.000114
1295	1.2875e+02	-11.5505	-37.660421	0.000345	3.447232	1.167954	-0.000138
1296	1.2885e+02	-11.5890	-37.737126	0.000193	1.926395	0.652680	-0.000077
1297	1.2895e+02	-11.6275	-37.846129	0.000274	2.737508	0.927493	-0.000110
1298	1.2905e+02	-11.6740	-37.971280	0.000314	3.143065	1.064899	-0.000126
1299	1.2915e+02	-11.7045	-38.116617	0.000365	3.650011	1.236657	-0.000146
1300	1.2925e+02	-11.7398	-38.221583	0.000264	2.636119	0.893141	-0.000105
1301	1.2935e+02	-11.7831	-38.334622	0.000284	2.838897	0.961844	-0.000114
1302	1.2945e+02	-11.8168	-38.407291	0.000183	1.825005	0.618329	-0.000073
1303	1.2955e+02	-11.8697	-38.556665	0.000375	3.751400	1.271009	-0.000150
1304	1.2965e+02	-11.9082	-38.641445	0.000213	2.129173	0.721383	-0.000085
1305	1.2975e+02	-11.9419	-38.758522	0.000294	2.940286	0.996196	-0.000118
1306	1.2985e+02	-11.9948	-38.875599	0.000294	2.940286	0.996196	-0.000118
1307	1.2995e+02	-12.0285	-38.992676	0.000294	2.940286	0.996196	-0.000118
1308	1.3005e+02	-12.0638	-39.113790	0.000304	3.041676	1.030548	-0.000122
1309	1.3015e+02	-12.1023	-39.230867	0.000294	2.940286	0.996196	-0.000118
1310	1.3025e+02	-12.1489	-39.331795	0.000253	2.534730	0.858790	-0.000101
1311	1.3034e+02	-12.1890	-39.448872	0.000294	2.940286	0.996196	-0.000118
1312	1.3044e+02	-12.2243	-39.561912	0.000284	2.838897	0.961844	-0.000114
1313	1.3054e+02	-12.2660	-39.687063	0.000314	3.143065	1.064899	-0.000126
1314	1.3064e+02	-12.3061	-39.787991	0.000253	2.534730	0.858790	-0.000101
1315	1.3074e+02	-12.3430	-39.872771	0.000213	2.129173	0.721383	-0.000085
1316	1.3084e+02	-12.3847	-40.026182	0.000385	3.852789	1.305360	-0.000154
1317	1.3094e+02	-12.4232	-40.147296	0.000304	3.041676	1.030548	-0.000122
1318	1.3104e+02	-12.4569	-40.232076	0.000213	2.129173	0.721383	-0.000085
1319	1.3114e+02	-12.5098	-40.296670	0.000162	1.622227	0.549625	-0.000065
1320	1.3124e+02	-12.5499	-40.425859	0.000324	3.244454	1.099251	-0.000130
1321	1.3134e+02	-12.5884	-40.587344	0.000406	4.055567	1.374063	-0.000162
1322	1.3144e+02	-12.6141	-40.651938	0.000162	1.622227	0.549625	-0.000065
1323	1.3154e+02	-12.6590	-40.801312	0.000375	3.751400	1.271009	-0.000150
1324	1.3164e+02	-12.7071	-40.898204	0.000243	2.433340	0.824438	-0.000097
1325	1.3174e+02	-12.7456	-40.970872	0.000183	1.825005	0.618329	-0.000073
1326	1.3184e+02	-12.7777	-41.116209	0.000365	3.650011	1.236657	-0.000146
1327	1.3194e+02	-12.8242	-41.205026	0.000223	2.230562	0.755735	-0.000089
1328	1.3204e+02	-12.8627	-41.297880	0.000233	2.331951	0.790086	-0.000093
1329	1.3214e+02	-12.9028	-41.439180	0.000355	3.548622	1.202306	-0.000142
1330	1.3224e+02	-12.9413	-41.564331	0.000314	3.143065	1.064899	-0.000126
1331	1.3234e+02	-12.9798	-41.661222	0.000243	2.433340	0.824438	-0.000097
1332	1.3243e+02	-13.0119	-41.766188	0.000264	2.636119	0.893141	-0.000105
1333	1.3253e+02	-13.0536	-41.814633	0.000122	1.216670	0.412219	-0.000049
1334	1.3263e+02	-13.1002	-41.968045	0.000385	3.852789	1.305360	-0.000154
1335	1.3273e+02	-13.1387	-42.113381	0.000365	3.650011	1.236657	-0.000146
1336	1.3283e+02	-13.1820	-42.214310	0.000253	2.534730	0.858790	-0.000101
1337	1.3293e+02	-13.2189	-42.303127	0.000223	2.230562	0.755735	-0.000089
1338	1.3303e+02	-13.2606	-42.408092	0.000264	2.636119	0.893141	-0.000105
1339	1.3313e+02	-13.2943	-42.517095	0.000274	2.737508	0.927493	-0.000110
1340	1.3323e+02	-13.3360	-42.686655	0.000426	4.258346	1.442767	-0.000170
1341	1.3333e+02	-13.3729	-42.771435	0.000213	2.129173	0.721383	-0.000085
1342	1.3343e+02	-13.4226	-42.868326	0.000243	2.433340	0.824438	-0.000097
1343	1.3353e+02	-13.4627	-42.953106	0.000213	2.129173	0.721383	-0.000085
1344	1.3363e+02	-13.4900	-43.082294	0.000324	3.244454	1.099251	-0.000130
1345	1.3373e+02	-13.5429	-43.223594	0.000355	3.548622	1.202306	-0.000142
1346	1.3383e+02	-13.5686	-43.320485	0.000243	2.433340	0.824438	-0.000097
1347	1.3393e+02	-13.6183	-43.433525	0.000284	2.838897	0.961844	-0.000114
1348	1.3403e+02	-13.6616	-43.518305	0.000213	2.129173	0.721383	-0.000085
1349	1.3413e+02	-13.6985	-43.647493	0.000324	3.244454	1.099251	-0.000130
1350	1.3423e+02	-13.7306	-43.740347	0.000233	2.331951	0.790086	-0.000093
1351	1.3432e+02	-13.7820	-43.853387	0.000284	2.838897	0.961844	-0.000114
1352	1.3442e+02	-13.8108	-43.938167	0.000213	2.129173	0.721383	-0.000085
1353	1.3452e+02	-13.8638	-44.071392	0.000335	3.345843	1.133602	-0.000134
1354	1.3462e+02	-13.8975	-44.172321	0.000253	2.534730	0.858790	-0.000101
1355	1.3472e+02	-13.9360	-44.244989	0.000183	1.825005	0.618329	-0.000073
1356	1.3482e+02	-13.9809	-44.398400	0.000385	3.852789	1.305360	-0.000154
1357	1.3492e+02	-14.0274	-44.471069	0.000183	1.825005	0.618329	-0.000073
1358	1.3502e+02	-14.0579	-44.588146	0.000294	2.940286	0.996196	-0.000118
1359	1.3512e+02	-14.0980	-44.721371	0.000335	3.345843	1.133602	-0.000134
1360	1.3522e+02	-14.1333	-44.822300	0.000253	2.534730	0.858790	-0.000101
1361	1.3532e+02	-14.1830	-44.886894	0.000162	1.622227	0.549625	-0.000065
1362	1.3542e+02	-14.2151	-45.016082	0.000324	3.244454	1.099251	-0.000130
1363	1.3552e+02	-14.2568	-45.137196	0.000304	3.041676	1.030548	-0.000122
1364	1.3562e+02	-14.3001	-45.234087	0.000243	2.433340	0.824438	-0.000097
1365	1.3572e+02	-14.3386	-45.306756	0.000183	1.825005	0.618329	-0.000073
1366	1.3582e+02	-14.3675	-45.431907	0.000314	3.143065	1.064899	-0.000126
1367	1.3592e+02	-14.4124	-45.516687	0.000213	2.129173	0.721383	-0.000085
1368	1.3602e+02	-14.4525	-45.629727	0.000284	2.838897	0.961844	-0.000114
1369	1.3612e+02	-14.4975	-45.742766	0.000284	2.838897	0.961844	-0.000114
1370	1.3622e+02	-14.5295	-45.859843	0.000294	2.940286	0.996196	-0.000118
1371	1.3631e+02	-14.5616	-45.944623	0.000213	2.129173	0.721383	-0.000085
1372	1.3641e+02	-14.6114	-46.057663	0.000284	2.838897	0.961844	-0.000114
1373	1.3651e+02	-14.6531	-46.142443	0.000213	2.129173	0.721383	-0.000085
1374	1.3661e+02	-14.6900	-46.231260	0.000223	2.230562	0.755735	-0.000089
1375	1.3671e+02	-14.7349	-46.384671	0.000385	3.852789	1.305360	-0.000154
1376	1.3681e+02	-14.7798	-46.477525	0.000233	2.331951	0.790086	-0.000093
1377	1.3691e+02	-14.8183	-46.570379	0.000233	2.331951	0.790086	-0.000093
1378	1.3701e+02	-14.8648	-46.715716	0.000365	3.650011	1.236657	-0.000146
1379	1.3711e+02	-14.8953	-46.756088	0.000101	1.013892	0.343516	-0.000041
1380	1.3721e+02	-14.9370	-46.848942	0.000233	2.331951	0.790086	-0.000093
1381	1.3731e+02	-14.9755	-46.945833	0.000243	2.433340	0.824438	-0.000097
1382	1.3741e+02	-15.0204	-47.066947	0.000304	3.041676	1.030548	-0.000122
1383	1.3751e+02	-15.0557	-47.184024	0.000294	2.940286	0.996196	-0.000118
1384	1.3761e+02	-15.0942	-47.284952	0.000253	2.534730	0.858790	-0.000101
1385	1.3771e+02	-15.1359	-47.377806	0.000233	2.331951	0.790086	-0.000093
1386	1.3781e+02	-15.1712	-47.446438	0.000172	1.723616	0.583977	-0.000069
1387	1.3791e+02	-15.2129	-47.591775	0.000365	3.650011	1.236657	-0.000146
1388	1.3801e+02	-15.2354	-47.680592	0.000223	2.230562	0.755735	-0.000089
1389	1.3811e+02	-15.2899	-47.781520	0.000253	2.534730	0.858790	-0.000101
1390	1.3821e+02	-15.3317	-47.858226	0.000193	1.926395	0.652680	-0.000077
1391	1.3831e+02	-15.3637	-47.943005	0.000213	2.129173	0.721383	-0.000085
1392	1.3840e+02	-15.4183	-48.096417	0.000385	3.852789	1.305360	-0.000154
1393	1.3850e+02	-15.4536	-48.189271	0.000233	2.331951	0.790086	-0.000093
1394	1.3860e+02	-15.4921	-48.310385	0.000304	3.041676	1.030548	-0.000122
1395	1.3870e+02	-15.5322	-48.403239	0.000233	2.331951	0.790086	-0.000093
1396	1.3880e+02	-15.5755	-48.532427	0.000324	3.244454	1.099251	-0.000130
1397	1.3890e+02	-15.6092	-48.657578	0.000314	3.143065	1.064899	-0.000126
1398	1.3900e+02	-15.6509	-48.722173	0.000162	1.622227	0.549625	-0.000065
1399	1.3910e+02	-15.6910	-48.843287	0.000304	3.041676	1.030548	-0.000122
1400	1.3920e+02	-15.7279	-48.924029	0.000203	2.027784	0.687032	-0.000081
1401	1.3930e+02	-15.7728	-49.024958	0.000253	2.534730	0.858790	-0.000101
1402	1.3940e+02	-15.8129	-49.166258	0.000355	3.548622	1.202306	-0.000142
1403	1.3950e+02	-15.8530	-49.230852	0.000162	1.622227	0.549625	-0.000065
1404	1.3960e+02	-15.8867	-49.360040	0.000324	3.244454	1.099251	-0.000130
1405	1.3970e+02	-15.9332	-49.460968	0.000253	2.534730	0.858790	-0.000101
1406	1.3980e+02	-15.9717	-49.578045	0.000294	2.940286	0.996196	-0.000118
1407	1.3990e+02	-16.0086	-49.646677	0.000172	1.723616	0.583977	-0.000069
1408	1.4000e+02	-16.0407	-49.747605	0.000253	2.534730	0.858790	-0.000101
1409	1.4010e+02	-16.0889	-49.909091	0.000406	4.055567	1.374063	-0.000162
1410	1.4020e+02	-16.1322	-49.973685	0.000162	1.622227	0.549625	-0.000065
1411	1.4029e+02	-16.1755	-50.050390	0.000193	1.926395	0.652680	-0.000077
1412	1.4039e+02	-16.2044	-50.155356	0.000264	2.636119	0.893141	-0.000105
1413	1.4049e+02	-16.2509	-50.308767	0.000385	3.852789	1.305360	-0.000154
1414	1.4059e+02	-16.2862	-50.405658	0.000243	2.433340	0.824438	-0.000097
1415	1.4069e+02	-16.3215	-50.494475	0.000223	2.230562	0.755735	-0.000089
1416	1.4079e+02	-16.3680	-50.591367	0.000243	2.433340	0.824438	-0.000097
1417	1.4089e+02	-16.4049	-50.736703	0.000365	3.650011	1.236657	-0.000146
1418	1.4099e+02	-16.4450	-50.760926	0.000061	0.608335	0.206110	-0.000024
1419	1.4109e+02	-16.4803	-50.902226	0.000355	3.548622	1.202306	-0.000142
1420	1.4119e+02	-16.5316	-50.995080	0.000233	2.331951	0.790086	-0.000093
1421	1.4129e+02	-16.5685	-51.091971	0.000243	2.433340	0.824438	-0.000097
1422	1.4139e+02	-16.6022	-51.225197	0.000335	3.345843	1.133602	-0.000134
1423	1.4149e+02	-16.6407	-51.297865	0.000183	1.825005	0.618329	-0.000073
1424	1.4159e+02	-16.6888	-51.394757	0.000243	2.433340	0.824438	-0.000097
1425	1.4169e+02	-16.7257	-51.515871	0.000304	3.041676	1.030548	-0.000122
1426	1.4179e+02	-16.7723	-51.624873	0.000274	2.737508	0.927493	-0.000110
1427	1.4189e+02	-16.8059	-51.697542	0.000183	1.825005	0.618329	-0.000073
1428	1.4199e+02	-16.8444	-51.846916	0.000375	3.751400	1.271009	-0.000150
1429	1.4209e+02	-16.8862	-51.919584	0.000183	1.825005	0.618329	-0.000073
1430	1.4219e+02	-16.9214	-52.000327	0.000203	2.027784	0.687032	-0.000081
1431	1.4228e+02	-16.9712	-52.097218	0.000243	2.433340	0.824438	-0.000097
1432	1.4238e+02	-17.0065	-52.230444	0.000335	3.345843	1.133602	-0.000134
1433	1.4248e+02	-17.0466	-52.339446	0.000274	2.737508	0.927493	-0.000110
1434	1.4258e+02	-17.0851	-52.420189	0.000203	2.027784	0.687032	-0.000081
1435	1.4268e+02	-17.1204	-52.521117	0.000253	2.534730	0.858790	-0.000101
1436	1.4278e+02	-17.1669	-52.650306	0.000324	3.244454	1.099251	-0.000130
1437	1.4288e+02	-17.2054	-52.731048	0.000203	2.027784	0.687032	-0.000081
1438	1.4298e+02	-17.2407	-52.807754	0.000193	1.926395	0.652680	-0.000077
1439	1.4308e+02	-17.2840	-52.949054	0.000355	3.548622	1.202306	-0.000142
1440	1.4318e+02	-17.3241	-53.062094	0.000284	2.838897	0.961844	-0.000114
1441	1.4328e+02	-17.3594	-53.146873	0.000213	2.129173	0.721383	-0.000085
1442	1.4338e+02	-17.4059	-53.255876	0.000274	2.737508	0.927493	-0.000110
1443	1.4348e+02	-17.4524	-53.348730	0.000233	2.331951	0.790086	-0.000093
1444	1.4358e+02	-17.4781	-53.465807	0.000294	2.940286	0.996196	-0.000118
1445	1.4368e+02	-17.5214	-53.538476	0.000183	1.825005	0.618329	-0.000073
1446	1.4378e+02	-17.5615	-53.675738	0.000345	3.447232	1.167954	-0.000138
1447	1.4388e+02	-17.5984	-53.788778	0.000284	2.838897	0.961844	-0.000114
1448	1.4398e+02	-17.6482	-53.869521	0.000203	2.027784	0.687032	-0.000081
1449	1.4408e+02	-17.6754	-53.978523	0.000274	2.737508	0.927493	-0.000110
1450	1.4418e+02	-17.7268	-54.091563	0.000284	2.838897	0.961844	-0.000114
1451	1.4428e+02	-17.7717	-54.228826	0.000345	3.447232	1.167954	-0.000138
1452	1.4437e+02	-17.7958	-54.305531	0.000193	1.926395	0.652680	-0.000077
1453	1.4447e+02	-17.8535	-54.450868	0.000365	3.650011	1.236657	-0.000146
1454	1.4457e+02	-17.8888	-54.547760	0.000243	2.433340	0.824438	-0.000097
1455	1.4467e+02	-17.9241	-54.632539	0.000213	2.129173	0.721383	-0.000085
1456	1.4477e+02	-17.9658	-54.753653	0.000304	3.041676	1.030548	-0.000122
1457	1.4487e+02	-18.0043	-54.862656	0.000274	2.737508	0.927493	-0.000110
1458	1.4497e+02	-18.0396	-54.927250	0.000162	1.622227	0.549625	-0.000065
1459	1.4507e+02	-18.0813	-55.056439	0.000324	3.244454	1.099251	-0.000130
1460	1.4517e+02	-18.1182	-55.169478	0.000284	2.838897	0.961844	-0.000114
1461	1.4527e+02	-18.1535	-55.290593	0.000304	3.041676	1.030548	-0.000122
1462	1.4537e+02	-18.2000	-55.407669	0.000294	2.940286	0.996196	-0.000118
1463	1.4547e+02	-18.2257	-55.540895	0.000335	3.345843	1.133602	-0.000134
1464	1.4557e+02	-18.2754	-55.662009	0.000304	3.041676	1.030548	-0.000122
1465	1.4567e+02	-18.3139	-55.738715	0.000193	1.926395	0.652680	-0.000077
1466	1.4577e+02	-18.3669	-55.803309	0.000162	1.622227	0.549625	-0.000065
1467	1.4587e+02	-18.4022	-55.952683	0.000375	3.751400	1.271009	-0.000150
1468	1.4597e+02	-18.4487	-56.001128	0.000122	1.216670	0.412219	-0.000049
1469	1.4607e+02	-18.4872	-56.134354	0.000335	3.345843	1.133602	-0.000134
1470	1.4617e+02	-18.5145	-56.259505	0.000314	3.143065	1.064899	-0.000126
1471	1.4626e+02	-18.5562	-56.396768	0.000345	3.447232	1.167954	-0.000138
1472	1.4636e+02	-18.5995	-56.489622	0.000233	2.331951	0.790086	-0.000093
1473	1.4646e+02	-18.6348	-56.566327	0.000193	1.926395	0.652680	-0.000077
1474	1.4656e+02	-18.6765	-56.683404	0.000294	2.940286	0.996196	-0.000118
1475	1.4666e+02	-18.7198	-56.804518	0.000304	3.041676	1.030548	-0.000122
1476	1.4676e+02	-18.7599	-56.893335	0.000223	2.230562	0.755735	-0.000089
1477	1.4686e+02	-18.7936	-56.982152	0.000223	2.230562	0.755735	-0.000089
1478	1.4696e+02	-18.8337	-57.139601	0.000395	3.954178	1.339712	-0.000158
1479	1.4706e+02	-18.8770	-57.236492	0.000243	2.433340	0.824438	-0.000097
1480	1.4716e+02	-18.9171	-57.321272	0.000213	2.129173	0.721383	-0.000085
1481	1.4726e+02	-18.9508	-57.418163	0.000243	2.433340	0.824438	-0.000097
1482	1.4736e+02	-18.9957	-57.551389	0.000335	3.345843	1.133602	-0.000134
1483	1.4746e+02	-19.0438	-57.676540	0.000314	3.143065	1.064899	-0.000126
1484	1.4756e+02	-19.0791	-57.801691	0.000314	3.143065	1.064899	-0.000126
1485	1.4766e+02	-19.1176	-57.930879	0.000324	3.244454	1.099251	-0.000130
1486	1.4776e+02	-19.1690	-57.995473	0.000162	1.622227	0.549625	-0.000065
1487	1.4786e+02	-19.2011	-58.096402	0.000253	2.534730	0.858790	-0.000101
1488	1.4796e+02	-19.2364	-58.229627	0.000335	3.345843	1.133602	-0.000134
1489	1.4806e+02	-19.2765	-58.330556	0.000253	2.534730	0.858790	-0.000101
1490	1.4816e+02	-19.3150	-58.443596	0.000284	2.838897	0.961844	-0.000114
1491	1.4825e+02	-19.3535	-58.532412	0.000223	2.230562	0.755735	-0.000089
1492	1.4835e+02	-19.3984	-58.625267	0.000233	2.331951	0.790086	-0.000093
1493	1.4845e+02	-19.4385	-58.754455	0.000324	3.244454	1.099251	-0.000130
1494	1.4855e+02	-19.4706	-58.855383	0.000253	2.534730	0.858790	-0.000101
1495	1.4865e+02	-19.5187	-58.988609	0.000335	3.345843	1.133602	-0.000134
1496	1.4875e+02	-19.5572	-59.121834	0.000335	3.345843	1.133602	-0.000134
1497	1.4885e+02	-19.5973	-59.214688	0.000233	2.331951	0.790086	-0.000093
1498	1.4895e+02	-19.6310	-59.323691	0.000274	2.737508	0.927493	-0.000110
1499	1.4905e+02	-19.6807	-59.436731	0.000284	2.838897	0.961844	-0.000114
1500	1.4915e+02	-19.7080	-59.565919	0.000324	3.244454	1.099251	-0.000130
1501	1.4925e+02	-19.7513	-59.682996	0.000294	2.940286	0.996196	-0.000118
1502	1.4935e+02	-19.7978	-59.800073	0.000294	2.940286	0.996196	-0.000118
1503	1.4945e+02	-19.8347	-59.852556	0.000132	1.318059	0.446571	-0.000053
1504	1.4955e+02	-19.8716	-60.014041	0.000406	4.055567	1.374063	-0.000162
1505	1.4965e+02	-19.9133	-60.114970	0.000253	2.534730	0.858790	-0.000101
1506	1.4975e+02	-19.9551	-60.256269	0.000355	3.548622	1.202306	-0.000142
1507	1.4985e+02	-19.9871	-60.345086	0.000223	2.230562	0.755735	-0.000089
1508	1.4995e+02	-19.9583	-60.324901	0.000051	0.506946	0.171758	0.000020
1509	1.5005e+02	-19.9149	-60.256269	0.000172	1.723616	0.583977	0.000069
1510	1.5015e+02	-19.8748	-60.195712	0.000152	1.520838	0.515274	0.000061
1511	1.5025e+02	-19.8395	-60.143230	0.000132	1.318059	0.446571	0.000053
1512	1.5034e+02	-19.7962	-60.070561	0.000183	1.825005	0.618329	0.000073
1513	1.5044e+02	-19.7561	-60.050376	0.000051	0.506946	0.171758	0.000020
1514	1.5054e+02	-19.7240	-59.961559	0.000223	2.230562	0.755735	0.000089
1515	1.5064e+02	-19.6807	-59.872742	0.000223	2.230562	0.755735	0.000089
1516	1.5074e+02	-19.6310	-59.771813	0.000253	2.534730	0.858790	0.000101
1517	1.5084e+02	-19.5893	-59.743553	0.000071	0.709724	0.240461	0.000028
1518	1.5094e+02	-19.5508	-59.695108	0.000122	1.216670	0.412219	0.000049
1519	1.5104e+02	-19.5123	-59.618402	0.000193	1.926395	0.652680	0.000077
1520	1.5114e+02	-19.4786	-59.505362	0.000284	2.838897	0.961844	0.000114
1521	1.5124e+02	-19.4337	-59.448842	0.000142	1.419449	0.480922	0.000057
1522	1.5134e+02	-19.3888	-59.368100	0.000203	2.027784	0.687032	0.000081
1523	1.5144e+02	-19.3454	-59.291394	0.000193	1.926395	0.652680	0.000077
1524	1.5154e+02	-19.3053	-59.234874	0.000142	1.419449	0.480922	0.000057
1525	1.5164e+02	-19.2765	-59.150094	0.000213	2.129173	0.721383	0.000085
1526	1.5174e+02	-19.2492	-59.109723	0.000101	1.013892	0.343516	0.000041
1527	1.5184e+02	-19.1979	-59.016869	0.000233	2.331951	0.790086	0.000093
1528	1.5194e+02	-19.1561	-58.952275	0.000162	1.622227	0.549625	0.000065
1529	1.5204e+02	-19.1128	-58.839235	0.000284	2.838897	0.961844	0.000114
1530	1.5214e+02	-19.0791	-58.774641	0.000162	1.622227	0.549625	0.000065
1531	1.5224e+02	-19.0310	-58.701972	0.000183	1.825005	0.618329	0.000073
1532	1.5233e+02	-19.0102	-58.629304	0.000183	1.825005	0.618329	0.000073
1533	1.5243e+02	-18.9556	-58.560672	0.000172	1.723616	0.583977	0.000069
1534	1.5253e+02	-18.9235	-58.451670	0.000274	2.737508	0.927493	0.000110
1535	1.5263e+02	-18.8690	-58.334593	0.000294	2.940286	0.996196	0.000118
1536	1.5273e+02	-18.8433	-58.302296	0.000081	0.811113	0.274813	0.000032
1537	1.5283e+02	-18.7968	-58.181182	0.000304	3.041676	1.030548	0.000122
1538	1.5293e+02	-18.7567	-58.128699	0.000132	1.318059	0.446571	0.000053
1539	1.5303e+02	-18.7086	-58.031808	0.000243	2.433340	0.824438	0.000097
1540	1.5313e+02	-18.6781	-57.906656	0.000314	3.143065	1.064899	0.000126
1541	1.5323e+02	-18.6364	-57.833988	0.000183	1.825005	0.618329	0.000073
1542	1.5333e+02	-18.5931	-57.781505	0.000132	1.318059	0.446571	0.000053
1543	1.5343e+02	-18.5722	-57.696725	0.000213	2.129173	0.721383	0.000085
1544	1.5353e+02	-18.5128	-57.636168	0.000152	1.520838	0.515274	0.000061
1545	1.5363e+02	-18.4792	-57.519091	0.000294	2.940286	0.996196	0.000118
1546	1.5373e+02	-18.4342	-57.430274	0.000223	2.230562	0.755735	0.000089
1547	1.5383e+02	-18.3893	-57.373755	0.000142	1.419449	0.480922	0.000057
1548	1.5393e+02	-18.3637	-57.268789	0.000264	2.636119	0.893141	0.000105
1549	1.5403e+02	-18.3139	-57.111341	0.000395	3.954178	1.339712	0.000158
1550	1.5413e+02	-18.2786	-57.042709	0.000172	1.723616	0.583977	0.000069
1551	1.5422e+02	-18.2449	-56.998301	0.000112	1.115281	0.377867	0.000045
1552	1.5432e+02	-18.1984	-56.917558	0.000203	2.027784	0.687032	0.000081
1553	1.5442e+02	-18.1631	-56.792407	0.000314	3.143065	1.064899	0.000126
1554	1.5452e+02	-18.1182	-56.723776	0.000172	1.723616	0.583977	0.000069
1555	1.5462e+02	-18.0829	-56.634959	0.000223	2.230562	0.755735	0.000089
1556	1.5472e+02	-18.0364	-56.554216	0.000203	2.027784	0.687032	0.000081
1557	1.5482e+02	-18.0107	-56.534030	0.000051	0.506946	0.171758	0.000020
1558	1.5492e+02	-17.9546	-56.380619	0.000385	3.852789	1.305360	0.000154
1559	1.5502e+02	-17.9241	-56.267579	0.000284	2.838897	0.961844	0.000114
1560	1.5512e+02	-17.8856	-56.170688	0.000243	2.433340	0.824438	0.000097
1561	1.5522e+02	-17.8423	-56.114168	0.000142	1.419449	0.480922	0.000057
1562	1.5532e+02	-17.8006	-56.037463	0.000193	1.926395	0.652680	0.000077
1563	1.5542e+02	-17.7701	-55.944608	0.000233	2.331951	0.790086	0.000093
1564	1.5552e+02	-17.7171	-55.875977	0.000172	1.723616	0.583977	0.000069
1565	1.5562e+02	-17.6835	-55.726603	0.000375	3.751400	1.271009	0.000150
1566	1.5572e+02	-17.6417	-55.662009	0.000162	1.622227	0.549625	0.000065
1567	1.5582e+02	-17.5968	-55.577229	0.000213	2.129173	0.721383	0.000085
1568	1.5592e+02	-17.5647	-55.484375	0.000233	2.331951	0.790086	0.000093
1569	1.5602e+02	-17.5278	-55.448041	0.000091	0.912503	0.309164	0.000037
1570	1.5612e+02	-17.4813	-55.314815	0.000335	3.345843	1.133602	0.000134
1571	1.5622e+02	-17.4492	-55.217924	0.000243	2.433340	0.824438	0.000097
1572	1.5631e+02	-17.3947	-55.137181	0.000203	2.027784	0.687032	0.000081
1573	1.5641e+02	-17.3562	-55.072587	0.000162	1.622227	0.549625	0.000065
1574	1.5651e+02	-17.3225	-54.967622	0.000264	2.636119	0.893141	0.000105
1575	1.5661e+02	-17.2840	-54.866693	0.000253	2.534730	0.858790	0.000101
1576	1.5671e+02	-17.2407	-54.785951	0.000203	2.027784	0.687032	0.000081
1577	1.5681e+02	-17.1942	-54.721356	0.000162	1.622227	0.549625	0.000065
1578	1.5691e+02	-17.1637	-54.600242	0.000304	3.041676	1.030548	0.000122
1579	1.5701e+02	-17.1220	-54.523537	0.000193	1.926395	0.652680	0.000077
1580	1.5711e+02	-17.0867	-54.394348	0.000324	3.244454	1.099251	0.000130
1581	1.5721e+02	-17.0514	-54.305531	0.000223	2.230562	0.755735	0.000089
1582	1.5731e+02	-17.0081	-54.269197	0.000091	0.912503	0.309164	0.000037
1583	1.5741e+02	-16.9712	-54.168269	0.000253	2.534730	0.858790	0.000101
1584	1.5751e+02	-16.9198	-54.083489	0.000213	2.129173	0.721383	0.000085
1585	1.5761e+02	-16.8878	-53.974486	0.000274	2.737508	0.927493	0.000110
1586	1.5771e+02	-16.8509	-53.881632	0.000233	2.331951	0.790086	0.000093
1587	1.5781e+02	-16.8011	-53.792815	0.000223	2.230562	0.755735	0.000089
1588	1.5791e+02	-16.7626	-53.699961	0.000233	2.331951	0.790086	0.000093
1589	1.5801e+02	-16.7273	-53.586921	0.000284	2.838897	0.961844	0.000114
1590	1.5811e+02	-16.6808	-53.490030	0.000243	2.433340	0.824438	0.000097
1591	1.5821e+02	-16.6375	-53.393139	0.000243	2.433340	0.824438	0.000097
1592	1.5830e+02	-16.6134	-53.332582	0.000152	1.520838	0.515274	0.000061
1593	1.5840e+02	-16.5701	-53.223579	0.000274	2.737508	0.927493	0.000110
1594	1.5850e+02	-16.5332	-53.118613	0.000264	2.636119	0.893141	0.000105
1595	1.5860e+02	-16.4819	-53.045945	0.000183	1.825005	0.618329	0.000073
1596	1.5870e+02	-16.4482	-52.924831	0.000304	3.041676	1.030548	0.000122
1597	1.5880e+02	-16.4017	-52.819865	0.000264	2.636119	0.893141	0.000105
1598	1.5890e+02	-16.3712	-52.743160	0.000193	1.926395	0.652680	0.000077
1599	1.5900e+02	-16.3295	-52.638194	0.000264	2.636119	0.893141	0.000105
1600	1.5910e+02	-16.2990	-52.529192	0.000274	2.737508	0.927493	0.000110
1601	1.5920e+02	-16.2477	-52.460560	0.000172	1.723616	0.583977	0.000069
1602	1.5930e+02	-16.2028	-52.351558	0.000274	2.737508	0.927493	0.000110
1603	1.5940e+02	-16.1675	-52.286964	0.000162	1.622227	0.549625	0.000065
1604	1.5950e+02	-16.1338	-52.202184	0.000213	2.129173	0.721383	0.000085
1605	1.5960e+02	-16.0872	-52.085107	0.000294	2.940286	0.996196	0.000118
1606	1.5970e+02	-16.0536	-52.020513	0.000162	1.622227	0.549625	0.000065
1607	1.5980e+02	-16.0086	-51.955918	0.000162	1.622227	0.549625	0.000065
1608	1.5990e+02	-15.9701	-51.850953	0.000264	2.636119	0.893141	0.000105
1609	1.6000e+02	-15.9204	-51.681393	0.000426	4.258346	1.442767	0.000170
1610	1.6010e+02	-15.8899	-51.632948	0.000122	1.216670	0.412219	0.000049
1611	1.6019e+02	-15.8402	-51.568353	0.000162	1.622227	0.549625	0.000065
1612	1.6029e+02	-15.8097	-51.443202	0.000314	3.143065	1.064899	0.000126
1613	1.6039e+02	-15.7664	-51.346311	0.000243	2.433340	0.824438	0.000097
1614	1.6049e+02	-15.7279	-51.233271	0.000284	2.838897	0.961844	0.000114
1615	1.6059e+02	-15.6846	-51.156566	0.000193	1.926395	0.652680	0.000077
1616	1.6069e+02	-15.6509	-51.104083	0.000132	1.318059	0.446571	0.000053
1617	1.6079e+02	-15.6060	-50.987006	0.000294	2.940286	0.996196	0.000118
1618	1.6089e+02	-15.5675	-50.865892	0.000304	3.041676	1.030548	0.000122
1619	1.6099e+02	-15.5370	-50.817446	0.000122	1.216670	0.412219	0.000049
1620	1.6109e+02	-15.5017	-50.696332	0.000304	3.041676	1.030548	0.000122
1621	1.6119e+02	-15.4504	-50.631738	0.000162	1.622227	0.549625	0.000065
1622	1.6129e+02	-15.4199	-50.518698	0.000284	2.838897	0.961844	0.000114
1623	1.6139e+02	-15.3766	-50.425844	0.000233	2.331951	0.790086	0.000093
1624	1.6149e+02	-15.3413	-50.312804	0.000284	2.838897	0.961844	0.000114
1625	1.6159e+02	-15.2915	-50.223987	0.000223	2.230562	0.755735	0.000089
1626	1.6169e+02	-15.2498	-50.131133	0.000233	2.331951	0.790086	0.000093
1627	1.6179e+02	-15.2129	-50.062502	0.000172	1.723616	0.583977	0.000069
1628	1.6189e+02	-15.1648	-49.961573	0.000253	2.534730	0.858790	0.000101
1629	1.6199e+02	-15.1375	-49.892942	0.000172	1.723616	0.583977	0.000069
1630	1.6209e+02	-15.0862	-49.816236	0.000193	1.926395	0.652680	0.000077
1631	1.6219e+02	-15.0525	-49.699160	0.000294	2.940286	0.996196	0.000118
1632	1.6228e+02	-15.0044	-49.638602	0.000152	1.520838	0.515274	0.000061
1633	1.6238e+02	-14.9739	-49.521526	0.000294	2.940286	0.996196	0.000118
1634	1.6248e+02	-14.9402	-49.420597	0.000253	2.534730	0.858790	0.000101
1635	1.6258e+02	-14.8889	-49.303520	0.000294	2.940286	0.996196	0.000118
1636	1.6268e+02	-14.8536	-49.251037	0.000132	1.318059	0.446571	0.000053
1637	1.6278e+02	-14.8199	-49.178369	0.000183	1.825005	0.618329	0.000073
1638	1.6288e+02	-14.7670	-49.049181	0.000324	3.244454	1.099251	0.000130
1639	1.6298e+02	-14.7301	-48.919992	0.000324	3.244454	1.099251	0.000130
1640	1.6308e+02	-14.6932	-48.855398	0.000162	1.622227	0.549625	0.000065
1641	1.6318e+02	-14.6547	-48.746395	0.000274	2.737508	0.927493	0.000110
1642	1.6328e+02	-14.6258	-48.681801	0.000162	1.622227	0.549625	0.000065
1643	1.6338e+02	-14.5761	-48.576836	0.000264	2.636119	0.893141	0.000105
1644	1.6348e+02	-14.5311	-48.508204	0.000172	1.723616	0.583977	0.000069
1645	1.6358e+02	-14.4894	-48.415350	0.000233	2.331951	0.790086	0.000093
1646	1.6368e+02	-14.4525	-48.298273	0.000294	2.940286	0.996196	0.000118
1647	1.6378e+02	-14.4188	-48.177159	0.000304	3.041676	1.030548	0.000122
1648	1.6388e+02	-14.3819	-48.096417	0.000203	2.027784	0.687032	0.000081
1649	1.6398e+02	-14.3402	-48.027785	0.000172	1.723616	0.583977	0.000069
1650	1.6408e+02	-14.2985	-47.902634	0.000314	3.143065	1.064899	0.000126
1651	1.6418e+02	-14.2616	-47.781520	0.000304	3.041676	1.030548	0.000122
1652	1.6427e+02	-14.2167	-47.737112	0.000112	1.115281	0.377867	0.000045
1653	1.6437e+02	-14.1846	-47.620035	0.000294	2.940286	0.996196	0.000118
1654	1.6447e+02	-14.1301	-47.498921	0.000304	3.041676	1.030548	0.000122
1655	1.6457e+02	-14.0996	-47.402029	0.000243	2.433340	0.824438	0.000097
1656	1.6467e+02	-14.0451	-47.325324	0.000193	1.926395	0.652680	0.000077
1657	1.6477e+02	-14.0162	-47.175950	0.000375	3.751400	1.271009	0.000150
1658	1.6487e+02	-13.9825	-47.123467	0.000132	1.318059	0.446571	0.000053
1659	1.6497e+02	-13.9328	-47.010427	0.000284	2.838897	0.961844	0.000114
1660	1.6507e+02	-13.8959	-46.945833	0.000162	1.622227	0.549625	0.000065
1661	1.6517e+02	-13.8558	-46.840867	0.000264	2.636119	0.893141	0.000105
1662	1.6527e+02	-13.8189	-46.743976	0.000243	2.433340	0.824438	0.000097
1663	1.6537e+02	-13.7755	-46.655159	0.000223	2.230562	0.755735	0.000089
1664	1.6547e+02	-13.7451	-46.554231	0.000253	2.534730	0.858790	0.000101
1665	1.6557e+02	-13.7034	-46.457340	0.000243	2.433340	0.824438	0.000097
1666	1.6567e+02	-13.6552	-46.368523	0.000223	2.230562	0.755735	0.000089
1667	1.6577e+02	-13.6167	-46.223186	0.000365	3.650011	1.236657	0.000146
1668	1.6587e+02	-13.5782	-46.166666	0.000142	1.419449	0.480922	0.000057
1669	1.6597e+02	-13.5349	-46.033440	0.000335	3.345843	1.133602	0.000134
1670	1.6607e+02	-13.5060	-45.948660	0.000213	2.129173	0.721383	0.000085
1671	1.6616e+02	-13.4643	-45.875992	0.000183	1.825005	0.618329	0.000073
1672	1.6626e+02	-13.4178	-45.771026	0.000264	2.636119	0.893141	0.000105
1673	1.6636e+02	-13.3809	-45.629727	0.000355	3.548622	1.202306	0.000142
1674	1.6646e+02	-13.3376	-45.524761	0.000264	2.636119	0.893141	0.000105
1675	1.6656e+02	-13.3023	-45.460167	0.000162	1.622227	0.549625	0.000065
1676	1.6666e+02	-13.2654	-45.371350	0.000223	2.230562	0.755735	0.000089
1677	1.6676e+02	-13.2189	-45.238125	0.000335	3.345843	1.133602	0.000134
1678	1.6686e+02	-13.1724	-45.181605	0.000142	1.419449	0.480922	0.000057
1679	1.6696e+02	-13.1387	-45.056453	0.000314	3.143065	1.064899	0.000126
1680	1.6706e+02	-13.0970	-44.987822	0.000172	1.723616	0.583977	0.000069
1681	1.6716e+02	-13.0520	-44.882857	0.000264	2.636119	0.893141	0.000105
1682	1.6726e+02	-13.0232	-44.777891	0.000264	2.636119	0.893141	0.000105
1683	1.6736e+02	-12.9782	-44.676963	0.000253	2.534730	0.858790	0.000101
1684	1.6746e+02	-12.9349	-44.511440	0.000416	4.156957	1.408415	0.000166
1685	1.6756e+02	-12.8980	-44.471069	0.000101	1.013892	0.343516	0.000041
1686	1.6766e+02	-12.8595	-44.366103	0.000264	2.636119	0.893141	0.000105
1687	1.6776e+02	-12.8226	-44.277286	0.000223	2.230562	0.755735	0.000089
1688	1.6786e+02	-12.7857	-44.168284	0.000274	2.737508	0.927493	0.000110
1689	1.6796e+02	-12.7488	-44.035058	0.000335	3.345843	1.133602	0.000134
1690	1.6806e+02	-12.6959	-43.958352	0.000193	1.926395	0.652680	0.000077
1691	1.6816e+02	-12.6606	-43.865498	0.000233	2.331951	0.790086	0.000093
1692	1.6825e+02	-12.6205	-43.740347	0.000314	3.143065	1.064899	0.000126
1693	1.6835e+02	-12.5868	-43.623270	0.000294	2.940286	0.996196	0.000118
1694	1.6845e+02	-12.5435	-43.514268	0.000274	2.737508	0.927493	0.000110
1695	1.6855e+02	-12.5002	-43.397191	0.000294	2.940286	0.996196	0.000118
1696	1.6865e+02	-12.4617	-43.356819	0.000101	1.013892	0.343516	0.000041
1697	1.6875e+02	-12.4232	-43.215520	0.000355	3.548622	1.202306	0.000142
1698	1.6885e+02	-12.3895	-43.098443	0.000294	2.940286	0.996196	0.000118
1699	1.6895e+02	-12.3446	-43.021737	0.000193	1.926395	0.652680	0.000077
1700	1.6905e+02	-12.3093	-42.912734	0.000274	2.737508	0.927493	0.000110
1701	1.6915e+02	-12.2595	-42.827954	0.000213	2.129173	0.721383	0.000085
1702	1.6925e+02	-12.2339	-42.698766	0.000324	3.244454	1.099251	0.000130
1703	1.6935e+02	-12.1809	-42.589763	0.000274	2.737508	0.927493	0.000110
1704	1.6945e+02	-12.1424	-42.484798	0.000264	2.636119	0.893141	0.000105
1705	1.6955e+02	-12.1055	-42.359647	0.000314	3.143065	1.064899	0.000126
1706	1.6965e+02	-12.0590	-42.250644	0.000274	2.737508	0.927493	0.000110
1707	1.6975e+02	-12.0237	-42.137604	0.000284	2.838897	0.961844	0.000114
1708	1.6985e+02	-11.9868	-42.020527	0.000294	2.940286	0.996196	0.000118
1709	1.6995e+02	-11.9403	-41.964007	0.000142	1.419449	0.480922	0.000057
1710	1.7005e+02	-11.9050	-41.834819	0.000324	3.244454	1.099251	0.000130
1711	1.7015e+02	-11.8777	-41.750039	0.000213	2.129173	0.721383	0.000085
1712	1.7024e+02	-11.8152	-41.628925	0.000304	3.041676	1.030548	0.000122
1713	1.7034e+02	-11.7847	-41.556257	0.000183	1.825005	0.618329	0.000073
1714	1.7044e+02	-11.7334	-41.382660	0.000436	4.359735	1.477118	0.000174
1715	1.7054e+02	-11.7045	-41.309991	0.000183	1.825005	0.618329	0.000073
1716	1.7064e+02	-11.6531	-41.221174	0.000223	2.230562	0.755735	0.000089
1717	1.7074e+02	-11.6259	-41.112172	0.000274	2.737508	0.927493	0.000110
1718	1.7084e+02	-11.5810	-40.970872	0.000355	3.548622	1.202306	0.000142
1719	1.7094e+02	-11.5489	-40.845721	0.000314	3.143065	1.064899	0.000126
1720	1.7104e+02	-11.5136	-40.764978	0.000203	2.027784	0.687032	0.000081
1721	1.7114e+02	-11.4767	-40.676161	0.000223	2.230562	0.755735	0.000089
1722	1.7124e+02	-11.4334	-40.567158	0.000274	2.737508	0.927493	0.000110
1723	1.7134e+02	-11.3788	-40.458156	0.000274	2.737508	0.927493	0.000110
1724	1.7144e+02	-11.3467	-40.328967	0.000324	3.244454	1.099251	0.000130
1725	1.7154e+02	-11.3082	-40.224002	0.000264	2.636119	0.893141	0.000105
1726	1.7164e+02	-11.2633	-40.127111	0.000243	2.433340	0.824438	0.000097
1727	1.7174e+02	-11.2360	-40.022145	0.000264	2.636119	0.893141	0.000105
1728	1.7184e+02	-11.1911	-39.905068	0.000294	2.940286	0.996196	0.000118
1729	1.7194e+02	-11.1526	-39.804140	0.000253	2.534730	0.858790	0.000101
1730	1.7204e+02	-11.1173	-39.695137	0.000274	2.737508	0.927493	0.000110
1731	1.7213e+02	-11.0772	-39.582097	0.000284	2.838897	0.961844	0.000114
1732	1.7223e+02	-11.0323	-39.469058	0.000284	2.838897	0.961844	0.000114
1733	1.7233e+02	-10.9970	-39.364092	0.000264	2.636119	0.893141	0.000105
1734	1.7243e+02	-10.9505	-39.242978	0.000304	3.041676	1.030548	0.000122
1735	1.7253e+02	-10.9088	-39.150124	0.000233	2.331951	0.790086	0.000093
1736	1.7263e+02	-10.8735	-39.024973	0.000314	3.143065	1.064899	0.000126
1737	1.7273e+02	-10.8318	-38.932118	0.000233	2.331951	0.790086	0.000093
1738	1.7283e+02	-10.7804	-38.851376	0.000203	2.027784	0.687032	0.000081
1739	1.7293e+02	-10.7596	-38.734299	0.000294	2.940286	0.996196	0.000118
1740	1.7303e+02	-10.7099	-38.597036	0.000345	3.447232	1.167954	0.000138
1741	1.7313e+02	-10.6842	-38.508219	0.000223	2.230562	0.755735	0.000089
1742	1.7323e+02	-10.6345	-38.387105	0.000304	3.041676	1.030548	0.000122
1743	1.7333e+02	-10.5895	-38.318474	0.000172	1.723616	0.583977	0.000069
1744	1.7343e+02	-10.5510	-38.193323	0.000314	3.143065	1.064899	0.000126
1745	1.7353e+02	-10.5141	-38.072209	0.000304	3.041676	1.030548	0.000122
1746	1.7363e+02	-10.4692	-37.983392	0.000223	2.230562	0.755735	0.000089
1747	1.7373e+02	-10.4323	-37.854203	0.000324	3.244454	1.099251	0.000130
1748	1.7383e+02	-10.3970	-37.757312	0.000243	2.433340	0.824438	0.000097
1749	1.7393e+02	-10.3409	-37.611975	0.000365	3.650011	1.236657	0.000146
1750	1.7403e+02	-10.3168	-37.498935	0.000284	2.838897	0.961844	0.000114
1751	1.7413e+02	-10.2703	-37.426267	0.000183	1.825005	0.618329	0.000073
1752	1.7422e+02	-10.2270	-37.301116	0.000314	3.143065	1.064899	0.000126
1753	1.7432e+02	-10.1933	-37.139630	0.000406	4.055567	1.374063	0.000162
1754	1.7442e+02	-10.1548	-37.050813	0.000223	2.230562	0.755735	0.000089
1755	1.7452e+02	-10.1163	-36.978145	0.000183	1.825005	0.618329	0.000073
1756	1.7462e+02	-10.0730	-36.861068	0.000294	2.940286	0.996196	0.000118
1757	1.7472e+02	-10.0361	-36.743991	0.000294	2.940286	0.996196	0.000118
1758	1.7482e+02	-9.9912	-36.651137	0.000233	2.331951	0.790086	0.000093
1759	1.7492e+02	-9.9591	-36.530023	0.000304	3.041676	1.030548	0.000122
1760	1.7502e+02	-9.9174	-36.396797	0.000335	3.345843	1.133602	0.000134
1761	1.7512e+02	-9.8644	-36.279720	0.000294	2.940286	0.996196	0.000118
1762	1.7522e+02	-9.8291	-36.174755	0.000264	2.636119	0.893141	0.000105
1763	1.7532e+02	-9.7954	-36.089975	0.000213	2.129173	0.721383	0.000085
1764	1.7542e+02	-9.7553	-35.948675	0.000355	3.548622	1.202306	0.000142
1765	1.7552e+02	-9.7040	-35.827561	0.000304	3.041676	1.030548	0.000122
1766	1.7562e+02	-9.6735	-35.710484	0.000294	2.940286	0.996196	0.000118
1767	1.7572e+02	-9.6382	-35.621667	0.000223	2.230562	0.755735	0.000089
1768	1.7582e+02	-9.5981	-35.544962	0.000193	1.926395	0.652680	0.000077
1769	1.7592e+02	-9.5564	-35.407699	0.000345	3.447232	1.167954	0.000138
1770	1.7602e+02	-9.5147	-35.294659	0.000284	2.838897	0.961844	0.000114
1771	1.7612e+02	-9.4698	-35.165471	0.000324	3.244454	1.099251	0.000130
1772	1.7621e+02	-9.4329	-35.080691	0.000213	2.129173	0.721383	0.000085
1773	1.7631e+02	-9.3928	-34.983800	0.000243	2.433340	0.824438	0.000097
1774	1.7641e+02	-9.3559	-34.899020	0.000213	2.129173	0.721383	0.000085
1775	1.7651e+02	-9.3190	-34.769832	0.000324	3.244454	1.099251	0.000130
1776	1.7661e+02	-9.2837	-34.656792	0.000284	2.838897	0.961844	0.000114
1777	1.7671e+02	-9.2372	-34.543752	0.000284	2.838897	0.961844	0.000114
1778	1.7681e+02	-9.2019	-34.442824	0.000253	2.534730	0.858790	0.000101
1779	1.7691e+02	-9.1618	-34.333821	0.000274	2.737508	0.927493	0.000110
1780	1.7701e+02	-9.1136	-34.204633	0.000324	3.244454	1.099251	0.000130
1781	1.7711e+02	-9.0800	-34.043147	0.000406	4.055567	1.374063	0.000162
1782	1.7721e+02	-9.0415	-33.990664	0.000132	1.318059	0.446571	0.000053
1783	1.7731e+02	-8.9965	-33.877625	0.000284	2.838897	0.961844	0.000114
1784	1.7741e+02	-8.9677	-33.776696	0.000253	2.534730	0.858790	0.000101
1785	1.7751e+02	-8.9163	-33.651545	0.000314	3.143065	1.064899	0.000126
1786	1.7761e+02	-8.8762	-33.538505	0.000284	2.838897	0.961844	0.000114
1787	1.7771e+02	-8.8506	-33.441614	0.000243	2.433340	0.824438	0.000097
1788	1.7781e+02	-8.7976	-33.328574	0.000284	2.838897	0.961844	0.000114
1789	1.7791e+02	-8.7543	-33.235720	0.000233	2.331951	0.790086	0.000093
1790	1.7801e+02	-8.7142	-33.122680	0.000284	2.838897	0.961844	0.000114
1791	1.7810e+02	-8.6757	-33.025789	0.000243	2.433340	0.824438	0.000097
1792	1.7820e+02	-8.6452	-32.949083	0.000193	1.926395	0.652680	0.000077
1793	1.7830e+02	-8.6003	-32.759338	0.000477	4.765292	1.614525	0.000191
1794	1.7840e+02	-8.5570	-32.678595	0.000203	2.027784	0.687032	0.000081
1795	1.7850e+02	-8.5153	-32.553444	0.000314	3.143065	1.064899	0.000126
1796	1.7860e+02	-8.4784	-32.448478	0.000264	2.636119	0.893141	0.000105
1797	1.7870e+02	-8.4335	-32.331402	0.000294	2.940286	0.996196	0.000118
1798	1.7880e+02	-8.3998	-32.214325	0.000294	2.940286	0.996196	0.000118
1799	1.7890e+02	-8.3597	-32.109359	0.000264	2.636119	0.893141	0.000105
1800	1.7900e+02	-8.3196	-32.044765	0.000162	1.622227	0.549625	0.000065
1801	1.7910e+02	-8.2810	-31.875205	0.000426	4.258346	1.442767	0.000170
1802	1.7920e+02	-8.2442	-31.782351	0.000233	2.331951	0.790086	0.000093
1803	1.7930e+02	-8.1976	-31.637014	0.000365	3.650011	1.236657	0.000146
1804	1.7940e+02	-8.1655	-31.556271	0.000203	2.027784	0.687032	0.000081
1805	1.7950e+02	-8.1254	-31.423046	0.000335	3.345843	1.133602	0.000134
1806	1.7960e+02	-8.0805	-31.338266	0.000213	2.129173	0.721383	0.000085
1807	1.7970e+02	-8.0549	-31.225226	0.000284	2.838897	0.961844	0.000114
1808	1.7980e+02	-8.0035	-31.108149	0.000294	2.940286	0.996196	0.000118
1809	1.7990e+02	-7.9586	-31.003184	0.000264	2.636119	0.893141	0.000105
1810	1.8000e+02	-7.9265	-30.914367	0.000223	2.230562	0.755735	0.000089
1811	1.8009e+02	-7.8784	-30.752881	0.000406	4.055567	1.374063	0.000162
1812	1.8019e+02	-7.8351	-30.676176	0.000193	1.926395	0.652680	0.000077
1813	1.8029e+02	-7.8062	-30.546988	0.000324	3.244454	1.099251	0.000130
1814	1.8039e+02	-7.7661	-30.466245	0.000203	2.027784	0.687032	0.000081
1815	1.8049e+02	-7.7212	-30.345131	0.000304	3.041676	1.030548	0.000122
1816	1.8059e+02	-7.6843	-30.252277	0.000233	2.331951	0.790086	0.000093
1817	1.8069e+02	-7.6442	-30.082717	0.000426	4.258346	1.442767	0.000170
1818	1.8079e+02	-7.6057	-30.006011	0.000193	1.926395	0.652680	0.000077
1819	1.8089e+02	-7.5543	-29.897009	0.000274	2.737508	0.927493	0.000110
1820	1.8099e+02	-7.5239	-29.743598	0.000385	3.852789	1.305360	0.000154
1821	1.8109e+02	-7.4870	-29.662855	0.000203	2.027784	0.687032	0.000081
1822	1.8119e+02	-7.4436	-29.553852	0.000274	2.737508	0.927493	0.000110
1823	1.8129e+02	-7.4035	-29.440812	0.000284	2.838897	0.961844	0.000114
1824	1.8139e+02	-7.3586	-29.299513	0.000355	3.548622	1.202306	0.000142
1825	1.8149e+02	-7.3281	-29.214733	0.000213	2.129173	0.721383	0.000085
1826	1.8159e+02	-7.2784	-29.065359	0.000375	3.751400	1.271009	0.000150
1827	1.8169e+02	-7.2495	-28.988653	0.000193	1.926395	0.652680	0.000077
1828	1.8179e+02	-7.2078	-28.871576	0.000294	2.940286	0.996196	0.000118
1829	1.8189e+02	-7.1661	-28.730276	0.000355	3.548622	1.202306	0.000142
1830	1.8199e+02	-7.1228	-28.613200	0.000294	2.940286	0.996196	0.000118
1831	1.8209e+02	-7.0859	-28.504197	0.000274	2.737508	0.927493	0.000110
1832	1.8218e+02	-7.0506	-28.370971	0.000335	3.345843	1.133602	0.000134
1833	1.8228e+02	-7.0041	-28.282154	0.000223	2.230562	0.755735	0.000089
1834	1.8238e+02	-6.9592	-28.213523	0.000172	1.723616	0.583977	0.000069
1835	1.8248e+02	-6.9271	-28.076260	0.000345	3.447232	1.167954	0.000138
1836	1.8258e+02	-6.8806	-27.906701	0.000426	4.258346	1.442767	0.000170
1837	1.8268e+02	-6.8421	-27.825958	0.000203	2.027784	0.687032	0.000081
1838	1.8278e+02	-6.8036	-27.704844	0.000304	3.041676	1.030548	0.000122
1839	1.8288e+02	-6.7811	-27.579693	0.000314	3.143065	1.064899	0.000126
1840	1.8298e+02	-6.7265	-27.482802	0.000243	2.433340	0.824438	0.000097
1841	1.8308e+02	-6.6848	-27.357650	0.000314	3.143065	1.064899	0.000126
1842	1.8318e+02	-6.6431	-27.272870	0.000213	2.129173	0.721383	0.000085
1843	1.8328e+02	-6.6046	-27.131571	0.000355	3.548622	1.202306	0.000142
1844	1.8338e+02	-6.5693	-27.050828	0.000203	2.027784	0.687032	0.000081
1845	1.8348e+02	-6.5276	-26.885305	0.000416	4.156957	1.408415	0.000166
1846	1.8358e+02	-6.4859	-26.764191	0.000304	3.041676	1.030548	0.000122
1847	1.8368e+02	-6.4426	-26.683449	0.000203	2.027784	0.687032	0.000081
1848	1.8378e+02	-6.4217	-26.562335	0.000304	3.041676	1.030548	0.000122
1849	1.8388e+02	-6.3800	-26.457369	0.000264	2.636119	0.893141	0.000105
1850	1.8398e+02	-6.3271	-26.340292	0.000294	2.940286	0.996196	0.000118
1851	1.8407e+02	-6.2902	-26.182844	0.000395	3.954178	1.339712	0.000158
1852	1.8417e+02	-6.2517	-26.106138	0.000193	1.926395	0.652680	0.000077
1853	1.8427e+02	-6.2116	-25.985024	0.000304	3.041676	1.030548	0.000122
1854	1.8437e+02	-6.1699	-25.807390	0.000446	4.461124	1.511470	0.000179
1855	1.8447e+02	-6.1201	-25.698388	0.000274	2.737508	0.927493	0.000110
1856	1.8457e+02	-6.0897	-25.641868	0.000142	1.419449	0.480922	0.000057
1857	1.8467e+02	-6.0592	-25.468271	0.000436	4.359735	1.477118	0.000174
1858	1.8477e+02	-6.0207	-25.351194	0.000294	2.940286	0.996196	0.000118
1859	1.8487e+02	-5.9710	-25.234117	0.000294	2.940286	0.996196	0.000118
1860	1.8497e+02	-5.9308	-25.100891	0.000335	3.345843	1.133602	0.000134
1861	1.8507e+02	-5.8923	-25.032260	0.000172	1.723616	0.583977	0.000069
1862	1.8517e+02	-5.8474	-24.903072	0.000324	3.244454	1.099251	0.000130
1863	1.8527e+02	-5.8105	-24.798106	0.000264	2.636119	0.893141	0.000105
1864	1.8537e+02	-5.7784	-24.652769	0.000365	3.650011	1.236657	0.000146
1865	1.8547e+02	-5.7351	-24.543767	0.000274	2.737508	0.927493	0.000110
1866	1.8557e+02	-5.6982	-24.410541	0.000335	3.345843	1.133602	0.000134
1867	1.8567e+02	-5.6485	-24.293464	0.000294	2.940286	0.996196	0.000118
1868	1.8577e+02	-5.6068	-24.192536	0.000253	2.534730	0.858790	0.000101
1869	1.8587e+02	-5.5779	-24.035088	0.000395	3.954178	1.339712	0.000158
1870	1.8597e+02	-5.5362	-23.909936	0.000314	3.143065	1.064899	0.000126
1871	1.8606e+02	-5.5009	-23.813045	0.000243	2.433340	0.824438	0.000097
1872	1.8616e+02	-5.4560	-23.647523	0.000416	4.156957	1.408415	0.000166
1873	1.8626e+02	-5.4111	-23.546594	0.000253	2.534730	0.858790	0.000101
1874	1.8636e+02	-5.3790	-23.401257	0.000365	3.650011	1.236657	0.000146
1875	1.8646e+02	-5.3261	-23.328589	0.000183	1.825005	0.618329	0.000073
1876	1.8656e+02	-5.2876	-23.195363	0.000335	3.345843	1.133602	0.000134
1877	1.8666e+02	-5.2555	-23.058101	0.000345	3.447232	1.167954	0.000138
1878	1.8676e+02	-5.2122	-22.928912	0.000324	3.244454	1.099251	0.000130
1879	1.8686e+02	-5.1769	-22.823947	0.000264	2.636119	0.893141	0.000105
1880	1.8696e+02	-5.1368	-22.674573	0.000375	3.751400	1.271009	0.000150
1881	1.8706e+02	-5.0870	-22.557496	0.000294	2.940286	0.996196	0.000118
1882	1.8716e+02	-5.0662	-22.416196	0.000355	3.548622	1.202306	0.000142
1883	1.8726e+02	-5.0084	-22.363713	0.000132	1.318059	0.446571	0.000053
1884	1.8736e+02	-4.9699	-22.173968	0.000477	4.765292	1.614525	0.000191
1885	1.8746e+02	-4.9410	-22.060928	0.000284	2.838897	0.961844	0.000114
1886	1.8756e+02	-4.9041	-21.931740	0.000324	3.244454	1.099251	0.000130
1887	1.8766e+02	-4.8496	-21.814663	0.000294	2.940286	0.996196	0.000118
1888	1.8776e+02	-4.8175	-21.689512	0.000314	3.143065	1.064899	0.000126
1889	1.8786e+02	-4.7758	-21.540138	0.000375	3.751400	1.271009	0.000150
1890	1.8796e+02	-4.7325	-21.427098	0.000284	2.838897	0.961844	0.000114
1891	1.8806e+02	-4.6892	-21.273687	0.000385	3.852789	1.305360	0.000154
1892	1.8815e+02	-4.6555	-21.192944	0.000203	2.027784	0.687032	0.000081
1893	1.8825e+02	-4.6170	-21.035496	0.000395	3.954178	1.339712	0.000158
1894	1.8835e+02	-4.5849	-20.930530	0.000264	2.636119	0.893141	0.000105
1895	1.8845e+02	-4.5368	-20.825565	0.000264	2.636119	0.893141	0.000105
1896	1.8855e+02	-4.5015	-20.740785	0.000213	2.129173	0.721383	0.000085
1897	1.8865e+02	-4.4582	-20.547002	0.000487	4.866681	1.648876	0.000195
1898	1.8875e+02	-4.4197	-20.413777	0.000335	3.345843	1.133602	0.000134
1899	1.8885e+02	-4.3715	-20.308811	0.000264	2.636119	0.893141	0.000105
1900	1.8895e+02	-4.3314	-20.183660	0.000314	3.143065	1.064899	0.000126
1901	1.8905e+02	-4.2945	-20.054472	0.000324	3.244454	1.099251	0.000130
1902	1.8915e+02	-4.2480	-19.965655	0.000223	2.230562	0.755735	0.000089
1903	1.8925e+02	-4.2191	-19.808206	0.000395	3.954178	1.339712	0.000158
1904	1.8935e+02	-4.1742	-19.723427	0.000213	2.129173	0.721383	0.000085
1905	1.8945e+02	-4.1518	-19.545793	0.000446	4.461124	1.511470	0.000179
1906	1.8955e+02	-4.1020	-19.384307	0.000406	4.055567	1.374063	0.000162
1907	1.8965e+02	-4.0475	-19.315676	0.000172	1.723616	0.583977	0.000069
1908	1.8975e+02	-4.0250	-19.190525	0.000314	3.143065	1.064899	0.000126
1909	1.8985e+02	-3.9769	-19.073448	0.000294	2.940286	0.996196	0.000118
1910	1.8995e+02	-3.9416	-18.948297	0.000314	3.143065	1.064899	0.000126
1911	1.9004e+02	-3.8999	-18.802960	0.000365	3.650011	1.236657	0.000146
1912	1.9014e+02	-3.8598	-18.681846	0.000304	3.041676	1.030548	0.000122
1913	1.9024e+02	-3.8165	-18.572843	0.000274	2.737508	0.927493	0.000110
1914	1.9034e+02	-3.7748	-18.431543	0.000355	3.548622	1.202306	0.000142
1915	1.9044e+02	-3.7395	-18.298318	0.000335	3.345843	1.133602	0.000134
1916	1.9054e+02	-3.7042	-18.173167	0.000314	3.143065	1.064899	0.000126
1917	1.9064e+02	-3.6593	-18.039941	0.000335	3.345843	1.133602	0.000134
1918	1.9074e+02	-3.6175	-17.951124	0.000223	2.230562	0.755735	0.000089
1919	1.9084e+02	-3.5790	-17.757342	0.000487	4.866681	1.648876	0.000195
1920	1.9094e+02	-3.5373	-17.708896	0.000122	1.216670	0.412219	0.000049
1921	1.9104e+02	-3.4988	-17.535299	0.000436	4.359735	1.477118	0.000174
1922	1.9114e+02	-3.4555	-17.426296	0.000274	2.737508	0.927493	0.000110
1923	1.9124e+02	-3.4202	-17.293071	0.000335	3.345843	1.133602	0.000134
1924	1.9134e+02	-3.3737	-17.184068	0.000274	2.737508	0.927493	0.000110
1925	1.9144e+02	-3.3416	-17.010471	0.000436	4.359735	1.477118	0.000174
1926	1.9154e+02	-3.3095	-16.897432	0.000284	2.838897	0.961844	0.000114
1927	1.9164e+02	-3.2598	-16.784392	0.000284	2.838897	0.961844	0.000114
1928	1.9174e+02	-3.2229	-16.622906	0.000406	4.055567	1.374063	0.000162
1929	1.9184e+02	-3.1796	-16.521978	0.000253	2.534730	0.858790	0.000101
1930	1.9194e+02	-3.1459	-16.368567	0.000385	3.852789	1.305360	0.000154
1931	1.9203e+02	-3.0994	-16.255527	0.000284	2.838897	0.961844	0.000114
1932	1.9213e+02	-3.0577	-16.162673	0.000233	2.331951	0.790086	0.000093
1933	1.9223e+02	-3.0304	-16.029447	0.000335	3.345843	1.133602	0.000134
1934	1.9233e+02	-2.9839	-15.900259	0.000324	3.244454	1.099251	0.000130
1935	1.9243e+02	-2.9293	-15.799331	0.000253	2.534730	0.858790	0.000101
1936	1.9253e+02	-2.9005	-15.658031	0.000355	3.548622	1.202306	0.000142
1937	1.9263e+02	-2.8684	-15.565177	0.000233	2.331951	0.790086	0.000093
1938	1.9273e+02	-2.8186	-15.387543	0.000446	4.461124	1.511470	0.000179
1939	1.9283e+02	-2.7705	-15.258355	0.000324	3.244454	1.099251	0.000130
1940	1.9293e+02	-2.7368	-15.137240	0.000304	3.041676	1.030548	0.000122
1941	1.9303e+02	-2.7047	-15.024201	0.000284	2.838897	0.961844	0.000114
1942	1.9313e+02	-2.6775	-14.834455	0.000477	4.765292	1.614525	0.000191
1943	1.9323e+02	-2.6149	-14.753713	0.000203	2.027784	0.687032	0.000081
1944	1.9333e+02	-2.5844	-14.628561	0.000314	3.143065	1.064899	0.000126
1945	1.9343e+02	-2.5379	-14.519559	0.000274	2.737508	0.927493	0.000110
1946	1.9353e+02	-2.5074	-14.390370	0.000324	3.244454	1.099251	0.000130
1947	1.9363e+02	-2.4689	-14.200625	0.000477	4.765292	1.614525	0.000191
1948	1.9373e+02	-2.4272	-14.136031	0.000162	1.622227	0.549625	0.000065
1949	1.9383e+02	-2.3791	-13.978582	0.000395	3.954178	1.339712	0.000158
1950	1.9393e+02	-2.3422	-13.909951	0.000172	1.723616	0.583977	0.000069
1951	1.9403e+02	-2.3085	-13.760577	0.000375	3.751400	1.271009	0.000150
1952	1.9412e+02	-2.2716	-13.651574	0.000274	2.737508	0.927493	0.000110
1953	1.9422e+02	-2.2395	-13.490089	0.000406	4.055567	1.374063	0.000162
1954	1.9432e+02	-2.1882	-13.389161	0.000253	2.534730	0.858790	0.000101
1955	1.9442e+02	-2.1400	-13.243824	0.000365	3.650011	1.236657	0.000146
1956	1.9452e+02	-2.0951	-13.134821	0.000274	2.737508	0.927493	0.000110
1957	1.9462e+02	-2.0630	-13.013707	0.000304	3.041676	1.030548	0.000122
1958	1.9472e+02	-2.0197	-12.856259	0.000395	3.954178	1.339712	0.000158
1959	1.9482e+02	-1.9828	-12.807813	0.000122	1.216670	0.412219	0.000049
1960	1.9492e+02	-1.9507	-12.642291	0.000416	4.156957	1.408415	0.000166
1961	1.9502e+02	-1.9122	-12.492917	0.000375	3.751400	1.271009	0.000150
1962	1.9512e+02	-1.8657	-12.371802	0.000304	3.041676	1.030548	0.000122
1963	1.9522e+02	-1.8288	-12.230503	0.000355	3.548622	1.202306	0.000142
1964	1.9532e+02	-1.7919	-12.129574	0.000253	2.534730	0.858790	0.000101
1965	1.9542e+02	-1.7614	-11.988275	0.000355	3.548622	1.202306	0.000142
1966	1.9552e+02	-1.7053	-11.863123	0.000314	3.143065	1.064899	0.000126
1967	1.9562e+02	-1.6652	-11.778344	0.000213	2.129173	0.721383	0.000085
1968	1.9572e+02	-1.6219	-11.657229	0.000304	3.041676	1.030548	0.000122
1969	1.9582e+02	-1.5946	-11.475558	0.000456	4.562513	1.545821	0.000183
1970	1.9592e+02	-1.5481	-11.394816	0.000203	2.027784	0.687032	0.000081
1971	1.9601e+02	-1.5064	-11.217182	0.000446	4.461124	1.511470	0.000179
1972	1.9611e+02	-1.4647	-11.079919	0.000345	3.447232	1.167954	0.000138
1973	1.9621e+02	-1.4326	-11.019362	0.000152	1.520838	0.515274	0.000061
1974	1.9631e+02	-1.4069	-10.898248	0.000304	3.041676	1.030548	0.000122
1975	1.9641e+02	-1.3411	-10.736762	0.000406	4.055567	1.374063	0.000162
1976	1.9651e+02	-1.3091	-10.595463	0.000355	3.548622	1.202306	0.000142
1977	1.9661e+02	-1.2754	-10.470312	0.000314	3.143065	1.064899	0.000126
1978	1.9671e+02	-1.2272	-10.341123	0.000324	3.244454	1.099251	0.000130
1979	1.9681e+02	-1.1903	-10.211935	0.000324	3.244454	1.099251	0.000130
1980	1.9691e+02	-1.1567	-10.098895	0.000284	2.838897	0.961844	0.000114
1981	1.9701e+02	-1.1133	-9.965670	0.000335	3.345843	1.133602	0.000134
1982	1.9711e+02	-1.0732	-9.832444	0.000335	3.345843	1.133602	0.000134
1983	1.9721e+02	-1.0331	-9.683070	0.000375	3.751400	1.271009	0.000150
1984	1.9731e+02	-0.9882	-9.586179	0.000243	2.433340	0.824438	0.000097
1985	1.9741e+02	-0.9513	-9.456990	0.000324	3.244454	1.099251	0.000130
1986	1.9751e+02	-0.9192	-9.356062	0.000253	2.534730	0.858790	0.000101
1987	1.9761e+02	-0.8711	-9.182465	0.000436	4.359735	1.477118	0.000174
1988	1.9771e+02	-0.8358	-9.061351	0.000304	3.041676	1.030548	0.000122
1989	1.9781e+02	-0.7973	-8.911977	0.000375	3.751400	1.271009	0.000150
1990	1.9791e+02	-0.7492	-8.819123	0.000233	2.331951	0.790086	0.000093
1991	1.9800e+02	-0.7107	-8.661675	0.000395	3.954178	1.339712	0.000158
1992	1.9810e+02	-0.6674	-8.540561	0.000304	3.041676	1.030548	0.000122
1993	1.9820e+02	-0.6337	-8.447707	0.000233	2.331951	0.790086	0.000093
1994	1.9830e+02	-0.5888	-8.274110	0.000436	4.359735	1.477118	0.000174
1995	1.9840e+02	-0.5503	-8.148958	0.000314	3.143065	1.064899	0.000126
1996	1.9850e+02	-0.5150	-8.035919	0.000284	2.838897	0.961844	0.000114
1997	1.9860e+02	-0.4700	-7.906730	0.000324	3.244454	1.099251	0.000130
1998	1.9870e+02	-0.4347	-7.777542	0.000324	3.244454	1.099251	0.000130
1999	1.9880e+02	-0.3914	-7.620094	0.000395	3.954178	1.339712	0.000158
2000	1.9890e+02	-0.3529	-7.515128	0.000264	2.636119	0.893141	0.000105
2001	1.9900e+02	-0.3160	-7.402088	0.000284	2.838897	0.961844	0.000114
2002	1.9910e+02	-0.2823	-7.260789	0.000355	3.548622	1.202306	0.000142
2003	1.9920e+02	-0.2294	-7.107377	0.000385	3.852789	1.305360	0.000154
2004	1.9930e+02	-0.1973	-6.982226	0.000314	3.143065	1.064899	0.000126
2005	1.9940e+02	-0.1636	-6.873224	0.000274	2.737508	0.927493	0.000110
2006	1.9950e+02	-0.1219	-6.715775	0.000395	3.954178	1.339712	0.000158
2007	1.9960e+02	-0.0738	-6.626958	0.000223	2.230562	0.755735	0.000089
2008	1.9970e+02	-0.0257	-6.489696	0.000345	3.447232	1.167954	0.000138
2009	1.9980e+02	-0.0016	-6.364544	0.000345	3.447232	1.167954	0.000126

PMax (uC/cm2):	6.47e+01
Pr (uC/cm2):	2.26e+00
-Pr (uC/cm2):	-1.97e+00
PLoss (uC/cm2):	-1.96e+00
-Vc:	-6.73e-01
C (Max-Eff) (nF):	3.24e-01
K (Eff):	1.10e+03
Vert. (+/-Pr) Shift (uC/cm2):	1.43e-01
Offset (uC/cm2):	4.39e+00

A (Loop Area - uC/cm2·Volts):	-8.15e-03



Hysteresis Version: 5.48.1 - Radiant Technologies, Inc., 1999 - 9/12/24

