»»»»»»»»»»»»»»»»»»»»»»»»»»»»»»»»»»»» Hysteresis ««««««««««««««««««««««««««««««««««««
»»»  Executed Version:	5.48.1
»»»  Vision Version:	5.48.4 (R)
»»»  Vision Compiled:	9/18/24
»»»  Driver Version:	5.47.0
»»»  Windows Version:	Windows 8 or 8.1
»»»  Processor Information:	x86 (AMD or Intel) - 32 Processors
»»»  Tester Name:	PMF21124-494 (100V)
»»»  Tester S/N:	PMF21124-494
»»»  Internal Amp Type:	100V RevK 270k
»»»  Internal Amp S/N:	iAB2-596/K     
»»»  Execution Count:	1
»»»»»»»»»»»»»»»»»»»»»»»»»»»»»»»»»»»»»»»»»»««««««««««««««««««««««««««««««««««««««««««

Stored:	6/19/2025 - 18:9:35
Configured:	06/19/25 10:04:32 AM
Executed:	06/19/25 06:09:15 PM

»»»»»»»»»»»»»»»»»»»»»»»»»»»»»»»»»»» Sample Info ««««««««««««««««««««««««««««««««««««
Sample Name:	
Lot Name:	
Wafer Name:	
Die Row/Column:	0/0
Capacitor Number:	0
Sample Area (cm2):	1.00e-04
Sample Thickness (microns):	3.00e-01

Amplifier:	Internal

»»»»»»»»»»»»»»»»»»»»»»»»»»»»»»»»»»» Tester Info «««««««««««««««««««««««««««««««««««
Tester Name:	PMF21124-494 (100V)
Tester Serial Number:	PMF21124-494
Return Signal Amp. Level:	0.19 [Index: 3]

»»»»»»»»»»»»»»»»»»»»»»»»»»»»»»»» Hysteresis Info ««««««««««««««««««««««««««««««««««
Task Name:	Hyst-1168
Volts:	20.00
Field:	666.67 (kV/cm)
DCBias:	0.00
DCField:	0.00 (kV/cm)
Hysteresis Period (ms):	2.00e+02
Preset:	Enabled
Preset Delay (ms):	1.00e+03
Profile:	Standard Bipolar

»»»»»»»»»»»»»»»»»»»»»»»»»»»»»»»»»»»»»» Data «««««««««««««««««««««««««««««««««««««««
Points:	2009

Valid Data

Point	Time (ms)	Drive Voltage	Measured Polarization (uC/cm2)	Capacitance (uF)	Normalized Capacitance (uF/cm2)	Dielectric Constant	Instantaneous Current (mA)
   1	0.0000e+00	0.0064	-4.608390	0.000284	2.837986	0.961536	0.000114
   2	9.9500e-02	0.0337	-4.495351	0.000284	2.837986	0.961536	0.000114
   3	1.9900e-01	0.0722	-4.354051	0.000355	3.547483	1.201920	0.000142
   4	2.9850e-01	0.1203	-4.285420	0.000172	1.723063	0.583790	0.000069
   5	3.9800e-01	0.1588	-4.103748	0.000456	4.561049	1.545325	0.000183
   6	4.9750e-01	0.1989	-3.990709	0.000284	2.837986	0.961536	0.000114
   7	5.9700e-01	0.2342	-3.869595	0.000304	3.040699	1.030217	0.000122
   8	6.9650e-01	0.2711	-3.732332	0.000345	3.446126	1.167579	0.000138
   9	7.9600e-01	0.3176	-3.595069	0.000345	3.446126	1.167579	0.000138
  10	8.9550e-01	0.3545	-3.490104	0.000264	2.635273	0.892855	0.000105
  11	9.9500e-01	0.3962	-3.340730	0.000375	3.750196	1.270601	0.000150
  12	1.0945e+00	0.4412	-3.195393	0.000365	3.648839	1.236260	0.000146
  13	1.1940e+00	0.4749	-3.086390	0.000274	2.736630	0.927195	0.000110
  14	1.2935e+00	0.5182	-2.941053	0.000365	3.648839	1.236260	0.000146
  15	1.3930e+00	0.5470	-2.828014	0.000284	2.837986	0.961536	0.000114
  16	1.4925e+00	0.5968	-2.654417	0.000436	4.358336	1.476644	0.000174
  17	1.5920e+00	0.6433	-2.537340	0.000294	2.939343	0.995876	0.000118
  18	1.6915e+00	0.6802	-2.396040	0.000355	3.547483	1.201920	0.000142
  19	1.7910e+00	0.7043	-2.307223	0.000223	2.229846	0.755492	0.000089
  20	1.8905e+00	0.7540	-2.149775	0.000395	3.952909	1.339282	0.000158
  21	1.9900e+00	0.8037	-2.028661	0.000304	3.040699	1.030217	0.000122
  22	2.0895e+00	0.8406	-1.895435	0.000334	3.344769	1.133239	0.000134
  23	2.1890e+00	0.8743	-1.806618	0.000223	2.229846	0.755492	0.000089
  24	2.2885e+00	0.9176	-1.612836	0.000487	4.865119	1.648347	0.000195
  25	2.3880e+00	0.9513	-1.499796	0.000284	2.837986	0.961536	0.000114
  26	2.4875e+00	0.9930	-1.382719	0.000294	2.939343	0.995876	0.000118
  27	2.5870e+00	1.0299	-1.257568	0.000314	3.142056	1.064557	0.000126
  28	2.6865e+00	1.0748	-1.112231	0.000365	3.648839	1.236260	0.000146
  29	2.7860e+00	1.1133	-0.991117	0.000304	3.040699	1.030217	0.000122
  30	2.8855e+00	1.1486	-0.793297	0.000497	4.966476	1.682688	0.000199
  31	2.9850e+00	1.1968	-0.668146	0.000314	3.142056	1.064557	0.000126
  32	3.0845e+00	1.2272	-0.559143	0.000274	2.736630	0.927195	0.000110
  33	3.1840e+00	1.2754	-0.409769	0.000375	3.750196	1.270601	0.000150
  34	3.2835e+00	1.3091	-0.268470	0.000355	3.547483	1.201920	0.000142
  35	3.3830e+00	1.3524	-0.102947	0.000416	4.155623	1.407963	0.000166
  36	3.4825e+00	1.4037	0.054501	0.000395	3.952909	1.339282	0.000158
  37	3.5820e+00	1.4374	0.163504	0.000274	2.736630	0.927195	0.000110
  38	3.6815e+00	1.4775	0.316915	0.000385	3.851553	1.304941	0.000154
  39	3.7810e+00	1.5112	0.401695	0.000213	2.128490	0.721152	0.000085
  40	3.8805e+00	1.5481	0.547032	0.000365	3.648839	1.236260	0.000146
  41	3.9800e+00	1.5962	0.668146	0.000304	3.040699	1.030217	0.000122
  42	4.0795e+00	1.6267	0.853854	0.000466	4.662406	1.579666	0.000187
  43	4.1790e+00	1.6732	0.954783	0.000253	2.533916	0.858514	0.000101
  44	4.2785e+00	1.7021	1.112231	0.000395	3.952909	1.339282	0.000158
  45	4.3780e+00	1.7486	1.209122	0.000243	2.432560	0.824173	0.000097
  46	4.4775e+00	1.8016	1.334273	0.000314	3.142056	1.064557	0.000126
  47	4.5770e+00	1.8352	1.491722	0.000395	3.952909	1.339282	0.000158
  48	4.6765e+00	1.8689	1.596687	0.000264	2.635273	0.892855	0.000105
  49	4.7760e+00	1.9122	1.782395	0.000466	4.662406	1.579666	0.000187
  50	4.8755e+00	1.9491	1.915621	0.000334	3.344769	1.133239	0.000134
  51	4.9750e+00	1.9860	2.093255	0.000446	4.459693	1.510985	0.000179
  52	5.0745e+00	2.0342	2.242629	0.000375	3.750196	1.270601	0.000150
  53	5.1740e+00	2.0791	2.404114	0.000405	4.054266	1.373622	0.000162
  54	5.2735e+00	2.1080	2.553488	0.000375	3.750196	1.270601	0.000150
  55	5.3730e+00	2.1513	2.670565	0.000294	2.939343	0.995876	0.000118
  56	5.4725e+00	2.1946	2.815902	0.000365	3.648839	1.236260	0.000146
  57	5.5720e+00	2.2315	2.953165	0.000345	3.446126	1.167579	0.000138
  58	5.6715e+00	2.2700	3.086390	0.000334	3.344769	1.133239	0.000134
  59	5.7710e+00	2.3101	3.179244	0.000233	2.331203	0.789833	0.000093
  60	5.8705e+00	2.3486	3.340730	0.000405	4.054266	1.373622	0.000162
  61	5.9700e+00	2.3839	3.490104	0.000375	3.750196	1.270601	0.000150
  62	6.0695e+00	2.4304	3.607181	0.000294	2.939343	0.995876	0.000118
  63	6.1690e+00	2.4689	3.764629	0.000395	3.952909	1.339282	0.000158
  64	6.2685e+00	2.5122	3.893817	0.000324	3.243413	1.098898	0.000130
  65	6.3680e+00	2.5443	4.047229	0.000385	3.851553	1.304941	0.000154
  66	6.4675e+00	2.5924	4.188528	0.000355	3.547483	1.201920	0.000142
  67	6.5670e+00	2.6245	4.305605	0.000294	2.939343	0.995876	0.000118
  68	6.6665e+00	2.6630	4.463054	0.000395	3.952909	1.339282	0.000158
  69	6.7660e+00	2.7144	4.628576	0.000416	4.155623	1.407963	0.000166
  70	6.8655e+00	2.7400	4.769876	0.000355	3.547483	1.201920	0.000142
  71	6.9650e+00	2.7833	4.931361	0.000405	4.054266	1.373622	0.000162
  72	7.0645e+00	2.8218	5.048438	0.000294	2.939343	0.995876	0.000118
  73	7.1640e+00	2.8620	5.242221	0.000487	4.865119	1.648347	0.000195
  74	7.2635e+00	2.9053	5.351223	0.000274	2.736630	0.927195	0.000110
  75	7.3630e+00	2.9422	5.508672	0.000395	3.952909	1.339282	0.000158
  76	7.4625e+00	2.9935	5.629786	0.000304	3.040699	1.030217	0.000122
  77	7.5620e+00	3.0288	5.710529	0.000203	2.027133	0.686811	0.000081
  78	7.6615e+00	3.0641	5.884125	0.000436	4.358336	1.476644	0.000174
  79	7.7610e+00	3.1026	6.001202	0.000294	2.939343	0.995876	0.000118
  80	7.8605e+00	3.1507	6.170762	0.000426	4.256979	1.442304	0.000170
  81	7.9600e+00	3.1876	6.295913	0.000314	3.142056	1.064557	0.000126
  82	8.0595e+00	3.2229	6.445287	0.000375	3.750196	1.270601	0.000150
  83	8.1590e+00	3.2678	6.574476	0.000324	3.243413	1.098898	0.000130
  84	8.2585e+00	3.2967	6.707701	0.000334	3.344769	1.133239	0.000134
  85	8.3580e+00	3.3561	6.824778	0.000294	2.939343	0.995876	0.000118
  86	8.4575e+00	3.3865	6.982226	0.000395	3.952909	1.339282	0.000158
  87	8.5570e+00	3.4234	7.159860	0.000446	4.459693	1.510985	0.000179
  88	8.6565e+00	3.4635	7.280974	0.000304	3.040699	1.030217	0.000122
  89	8.7560e+00	3.5020	7.470720	0.000476	4.763762	1.614006	0.000191
  90	8.8555e+00	3.5438	7.632205	0.000405	4.054266	1.373622	0.000162
  91	8.9550e+00	3.5871	7.761393	0.000324	3.243413	1.098898	0.000130
  92	9.0545e+00	3.6288	7.914805	0.000385	3.851553	1.304941	0.000154
  93	9.1540e+00	3.6593	8.048030	0.000334	3.344769	1.133239	0.000134
  94	9.2535e+00	3.6978	8.197404	0.000375	3.750196	1.270601	0.000150
  95	9.3530e+00	3.7491	8.302370	0.000264	2.635273	0.892855	0.000105
  96	9.4525e+00	3.7748	8.455781	0.000385	3.851553	1.304941	0.000154
  97	9.5520e+00	3.8277	8.560746	0.000264	2.635273	0.892855	0.000105
  98	9.6515e+00	3.8598	8.726269	0.000416	4.155623	1.407963	0.000166
  99	9.7510e+00	3.8999	8.851420	0.000314	3.142056	1.064557	0.000126
 100	9.8505e+00	3.9496	9.012906	0.000405	4.054266	1.373622	0.000162
 101	9.9500e+00	3.9865	9.129982	0.000294	2.939343	0.995876	0.000118
 102	1.0050e+01	4.0170	9.275319	0.000365	3.648839	1.236260	0.000146
 103	1.0149e+01	4.0651	9.432768	0.000395	3.952909	1.339282	0.000158
 104	1.0248e+01	4.0924	9.557919	0.000314	3.142056	1.064557	0.000126
 105	1.0348e+01	4.1485	9.703256	0.000365	3.648839	1.236260	0.000146
 106	1.0447e+01	4.1694	9.860704	0.000395	3.952909	1.339282	0.000158
 107	1.0547e+01	4.2159	9.965670	0.000264	2.635273	0.892855	0.000105
 108	1.0646e+01	4.2641	10.155415	0.000476	4.763762	1.614006	0.000191
 109	1.0746e+01	4.2961	10.308826	0.000385	3.851553	1.304941	0.000154
 110	1.0845e+01	4.3491	10.470312	0.000405	4.054266	1.373622	0.000162
 111	1.0945e+01	4.3892	10.567203	0.000243	2.432560	0.824173	0.000097
 112	1.1044e+01	4.4229	10.740800	0.000436	4.358336	1.476644	0.000174
 113	1.1144e+01	4.4582	10.861914	0.000304	3.040699	1.030217	0.000122
 114	1.1243e+01	4.5111	10.978991	0.000294	2.939343	0.995876	0.000118
 115	1.1343e+01	4.5336	11.148550	0.000426	4.256979	1.442304	0.000170
 116	1.1443e+01	4.5881	11.253516	0.000264	2.635273	0.892855	0.000105
 117	1.1542e+01	4.6122	11.330221	0.000193	1.925776	0.652471	0.000077
 118	1.1642e+01	4.6683	11.536115	0.000517	5.169189	1.751369	0.000207
 119	1.1741e+01	4.6956	11.653192	0.000294	2.939343	0.995876	0.000118
 120	1.1841e+01	4.7405	11.798529	0.000365	3.648839	1.236260	0.000146
 121	1.1940e+01	4.7870	11.943866	0.000365	3.648839	1.236260	0.000146
 122	1.2040e+01	4.8175	12.081129	0.000345	3.446126	1.167579	0.000138
 123	1.2139e+01	4.8608	12.250688	0.000426	4.256979	1.442304	0.000170
 124	1.2239e+01	4.9090	12.323357	0.000182	1.824420	0.618130	0.000073
 125	1.2338e+01	4.9394	12.509065	0.000466	4.662406	1.579666	0.000187
 126	1.2438e+01	4.9699	12.618068	0.000274	2.736630	0.927195	0.000110
 127	1.2537e+01	5.0116	12.795702	0.000446	4.459693	1.510985	0.000179
 128	1.2636e+01	5.0565	12.977373	0.000456	4.561049	1.545325	0.000183
 129	1.2736e+01	5.1015	13.090413	0.000284	2.837986	0.961536	0.000114
 130	1.2835e+01	5.1464	13.243824	0.000385	3.851553	1.304941	0.000154
 131	1.2935e+01	5.1865	13.368975	0.000314	3.142056	1.064557	0.000126
 132	1.3034e+01	5.2266	13.490089	0.000304	3.040699	1.030217	0.000122
 133	1.3134e+01	5.2619	13.631389	0.000355	3.547483	1.201920	0.000142
 134	1.3233e+01	5.3020	13.728280	0.000243	2.432560	0.824173	0.000097
 135	1.3333e+01	5.3389	13.889766	0.000405	4.054266	1.373622	0.000162
 136	1.3432e+01	5.3870	14.027028	0.000345	3.446126	1.167579	0.000138
 137	1.3532e+01	5.4223	14.160254	0.000334	3.344769	1.133239	0.000134
 138	1.3632e+01	5.4560	14.313665	0.000385	3.851553	1.304941	0.000154
 139	1.3731e+01	5.4977	14.450927	0.000345	3.446126	1.167579	0.000138
 140	1.3831e+01	5.5442	14.551856	0.000253	2.533916	0.858514	0.000101
 141	1.3930e+01	5.5747	14.717378	0.000416	4.155623	1.407963	0.000166
 142	1.4030e+01	5.6148	14.850604	0.000334	3.344769	1.133239	0.000134
 143	1.4129e+01	5.6597	14.995941	0.000365	3.648839	1.236260	0.000146
 144	1.4229e+01	5.6966	15.153389	0.000395	3.952909	1.339282	0.000158
 145	1.4328e+01	5.7335	15.322949	0.000426	4.256979	1.442304	0.000170
 146	1.4428e+01	5.7736	15.444063	0.000304	3.040699	1.030217	0.000122
 147	1.4527e+01	5.8169	15.577288	0.000334	3.344769	1.133239	0.000134
 148	1.4627e+01	5.8506	15.726662	0.000375	3.750196	1.270601	0.000150
 149	1.4726e+01	5.8940	15.851813	0.000314	3.142056	1.064557	0.000126
 150	1.4825e+01	5.9341	15.956779	0.000264	2.635273	0.892855	0.000105
 151	1.4925e+01	5.9726	16.065782	0.000274	2.736630	0.927195	0.000110
 152	1.5024e+01	6.0207	16.227267	0.000405	4.054266	1.373622	0.000162
 153	1.5124e+01	6.0560	16.336270	0.000274	2.736630	0.927195	0.000110
 154	1.5223e+01	6.0993	16.501792	0.000416	4.155623	1.407963	0.000166
 155	1.5323e+01	6.1330	16.606758	0.000264	2.635273	0.892855	0.000105
 156	1.5422e+01	6.1747	16.760169	0.000385	3.851553	1.304941	0.000154
 157	1.5522e+01	6.2164	16.889357	0.000324	3.243413	1.098898	0.000130
 158	1.5621e+01	6.2517	17.071028	0.000456	4.561049	1.545325	0.000183
 159	1.5721e+01	6.3062	17.200217	0.000324	3.243413	1.098898	0.000130
 160	1.5820e+01	6.3287	17.297108	0.000243	2.432560	0.824173	0.000097
 161	1.5920e+01	6.3672	17.462631	0.000416	4.155623	1.407963	0.000166
 162	1.6020e+01	6.4121	17.559522	0.000243	2.432560	0.824173	0.000097
 163	1.6119e+01	6.4554	17.773490	0.000537	5.371902	1.820050	0.000215
 164	1.6218e+01	6.4795	17.878456	0.000264	2.635273	0.892855	0.000105
 165	1.6318e+01	6.5356	18.027830	0.000375	3.750196	1.270601	0.000150
 166	1.6418e+01	6.5693	18.213538	0.000466	4.662406	1.579666	0.000187
 167	1.6517e+01	6.6110	18.370986	0.000395	3.952909	1.339282	0.000158
 168	1.6616e+01	6.6624	18.475952	0.000264	2.635273	0.892855	0.000105
 169	1.6716e+01	6.6961	18.576880	0.000253	2.533916	0.858514	0.000101
 170	1.6816e+01	6.7314	18.685883	0.000274	2.736630	0.927195	0.000110
 171	1.6915e+01	6.7763	18.827183	0.000355	3.547483	1.201920	0.000142
 172	1.7015e+01	6.8196	18.932148	0.000264	2.635273	0.892855	0.000105
 173	1.7114e+01	6.8469	19.121893	0.000476	4.763762	1.614006	0.000191
 174	1.7213e+01	6.8870	19.247045	0.000314	3.142056	1.064557	0.000126
 175	1.7313e+01	6.9223	19.396419	0.000375	3.750196	1.270601	0.000150
 176	1.7413e+01	6.9608	19.513496	0.000294	2.939343	0.995876	0.000118
 177	1.7512e+01	7.0185	19.638647	0.000314	3.142056	1.064557	0.000126
 178	1.7611e+01	7.0506	19.792058	0.000385	3.851553	1.304941	0.000154
 179	1.7711e+01	7.0795	19.913172	0.000304	3.040699	1.030217	0.000122
 180	1.7811e+01	7.1324	20.094843	0.000456	4.561049	1.545325	0.000183
 181	1.7910e+01	7.1677	20.191734	0.000243	2.432560	0.824173	0.000097
 182	1.8009e+01	7.2126	20.353220	0.000405	4.054266	1.373622	0.000162
 183	1.8109e+01	7.2511	20.526817	0.000436	4.358336	1.476644	0.000174
 184	1.8209e+01	7.2912	20.688302	0.000405	4.054266	1.373622	0.000162
 185	1.8308e+01	7.3265	20.841713	0.000385	3.851553	1.304941	0.000154
 186	1.8407e+01	7.3714	20.962827	0.000304	3.040699	1.030217	0.000122
 187	1.8507e+01	7.4035	21.112201	0.000375	3.750196	1.270601	0.000150
 188	1.8607e+01	7.4452	21.201018	0.000223	2.229846	0.755492	0.000089
 189	1.8706e+01	7.4854	21.301947	0.000253	2.533916	0.858514	0.000101
 190	1.8805e+01	7.5319	21.479581	0.000446	4.459693	1.510985	0.000179
 191	1.8905e+01	7.5656	21.604732	0.000314	3.142056	1.064557	0.000126
 192	1.9005e+01	7.6089	21.774292	0.000426	4.256979	1.442304	0.000170
 193	1.9104e+01	7.6554	21.871183	0.000243	2.432560	0.824173	0.000097
 194	1.9203e+01	7.6923	22.000371	0.000324	3.243413	1.098898	0.000130
 195	1.9303e+01	7.7308	22.141671	0.000355	3.547483	1.201920	0.000142
 196	1.9402e+01	7.7645	22.315268	0.000436	4.358336	1.476644	0.000174
 197	1.9502e+01	7.8062	22.428308	0.000284	2.837986	0.961536	0.000114
 198	1.9602e+01	7.8431	22.589793	0.000405	4.054266	1.373622	0.000162
 199	1.9701e+01	7.8928	22.743204	0.000385	3.851553	1.304941	0.000154
 200	1.9800e+01	7.9265	22.872393	0.000324	3.243413	1.098898	0.000130
 201	1.9900e+01	7.9650	23.017729	0.000365	3.648839	1.236260	0.000146
 202	2.0000e+01	8.0035	23.231698	0.000537	5.371902	1.820050	0.000215
 203	2.0099e+01	8.0516	23.352812	0.000304	3.040699	1.030217	0.000122
 204	2.0198e+01	8.0789	23.449703	0.000243	2.432560	0.824173	0.000097
 205	2.0298e+01	8.1367	23.550631	0.000253	2.533916	0.858514	0.000101
 206	2.0398e+01	8.1623	23.700005	0.000375	3.750196	1.270601	0.000150
 207	2.0497e+01	8.2040	23.853417	0.000385	3.851553	1.304941	0.000154
 208	2.0596e+01	8.2377	24.010865	0.000395	3.952909	1.339282	0.000158
 209	2.0696e+01	8.2875	24.144090	0.000334	3.344769	1.133239	0.000134
 210	2.0796e+01	8.3340	24.285390	0.000355	3.547483	1.201920	0.000142
 211	2.0895e+01	8.3725	24.454950	0.000426	4.256979	1.442304	0.000170
 212	2.0994e+01	8.3998	24.584138	0.000324	3.243413	1.098898	0.000130
 213	2.1094e+01	8.4511	24.685066	0.000253	2.533916	0.858514	0.000101
 214	2.1194e+01	8.4864	24.850589	0.000416	4.155623	1.407963	0.000166
 215	2.1293e+01	8.5281	24.991889	0.000355	3.547483	1.201920	0.000142
 216	2.1392e+01	8.5666	25.104929	0.000284	2.837986	0.961536	0.000114
 217	2.1492e+01	8.5987	25.270451	0.000416	4.155623	1.407963	0.000166
 218	2.1591e+01	8.6532	25.419825	0.000375	3.750196	1.270601	0.000150
 219	2.1691e+01	8.6901	25.569199	0.000375	3.750196	1.270601	0.000150
 220	2.1791e+01	8.7270	25.726647	0.000395	3.952909	1.339282	0.000158
 221	2.1890e+01	8.7687	25.863910	0.000345	3.446126	1.167579	0.000138
 222	2.1989e+01	8.8072	26.029433	0.000416	4.155623	1.407963	0.000166
 223	2.2089e+01	8.8506	26.146510	0.000294	2.939343	0.995876	0.000118
 224	2.2189e+01	8.8858	26.263587	0.000294	2.939343	0.995876	0.000118
 225	2.2288e+01	8.9179	26.425072	0.000405	4.054266	1.373622	0.000162
 226	2.2387e+01	8.9612	26.546186	0.000304	3.040699	1.030217	0.000122
 227	2.2487e+01	9.0046	26.699597	0.000385	3.851553	1.304941	0.000154
 228	2.2587e+01	9.0382	26.832823	0.000334	3.344769	1.133239	0.000134
 229	2.2686e+01	9.0864	26.962011	0.000324	3.243413	1.098898	0.000130
 230	2.2785e+01	9.1281	27.103311	0.000355	3.547483	1.201920	0.000142
 231	2.2885e+01	9.1666	27.236536	0.000334	3.344769	1.133239	0.000134
 232	2.2985e+01	9.1955	27.398022	0.000405	4.054266	1.373622	0.000162
 233	2.3084e+01	9.2436	27.511061	0.000284	2.837986	0.961536	0.000114
 234	2.3183e+01	9.2837	27.688695	0.000446	4.459693	1.510985	0.000179
 235	2.3283e+01	9.3142	27.825958	0.000345	3.446126	1.167579	0.000138
 236	2.3383e+01	9.3639	27.955146	0.000324	3.243413	1.098898	0.000130
 237	2.3482e+01	9.3992	28.124706	0.000426	4.256979	1.442304	0.000170
 238	2.3581e+01	9.4457	28.257932	0.000334	3.344769	1.133239	0.000134
 239	2.3681e+01	9.4810	28.407306	0.000375	3.750196	1.270601	0.000150
 240	2.3780e+01	9.5195	28.564754	0.000395	3.952909	1.339282	0.000158
 241	2.3880e+01	9.5628	28.710091	0.000365	3.648839	1.236260	0.000146
 242	2.3980e+01	9.5917	28.863502	0.000385	3.851553	1.304941	0.000154
 243	2.4079e+01	9.6398	28.948282	0.000213	2.128490	0.721152	0.000085
 244	2.4178e+01	9.6783	29.101693	0.000385	3.851553	1.304941	0.000154
 245	2.4278e+01	9.7233	29.234918	0.000334	3.344769	1.133239	0.000134
 246	2.4378e+01	9.7602	29.392367	0.000395	3.952909	1.339282	0.000158
 247	2.4477e+01	9.7906	29.541741	0.000375	3.750196	1.270601	0.000150
 248	2.4576e+01	9.8372	29.642669	0.000253	2.533916	0.858514	0.000101
 249	2.4676e+01	9.8805	29.816266	0.000436	4.358336	1.476644	0.000174
 250	2.4776e+01	9.9222	29.905083	0.000223	2.229846	0.755492	0.000089
 251	2.4875e+01	9.9559	30.046383	0.000355	3.547483	1.201920	0.000142
 252	2.4974e+01	9.9960	30.203831	0.000395	3.952909	1.339282	0.000158
 253	2.5074e+01	10.0297	30.357242	0.000385	3.851553	1.304941	0.000154
 254	2.5174e+01	10.0714	30.514690	0.000395	3.952909	1.339282	0.000158
 255	2.5273e+01	10.1163	30.643879	0.000324	3.243413	1.098898	0.000130
 256	2.5372e+01	10.1612	30.797290	0.000385	3.851553	1.304941	0.000154
 257	2.5472e+01	10.1981	30.934553	0.000345	3.446126	1.167579	0.000138
 258	2.5572e+01	10.2414	31.079889	0.000365	3.648839	1.236260	0.000146
 259	2.5671e+01	10.2799	31.241375	0.000405	4.054266	1.373622	0.000162
 260	2.5770e+01	10.3232	31.394786	0.000385	3.851553	1.304941	0.000154
 261	2.5870e+01	10.3617	31.495714	0.000253	2.533916	0.858514	0.000101
 262	2.5970e+01	10.4002	31.645088	0.000375	3.750196	1.270601	0.000150
 263	2.6069e+01	10.4355	31.782351	0.000345	3.446126	1.167579	0.000138
 264	2.6169e+01	10.4821	31.895391	0.000284	2.837986	0.961536	0.000114
 265	2.6268e+01	10.5109	32.024579	0.000324	3.243413	1.098898	0.000130
 266	2.6367e+01	10.5526	32.157805	0.000334	3.344769	1.133239	0.000134
 267	2.6467e+01	10.6040	32.323327	0.000416	4.155623	1.407963	0.000166
 268	2.6567e+01	10.6361	32.452516	0.000324	3.243413	1.098898	0.000130
 269	2.6666e+01	10.6746	32.565555	0.000284	2.837986	0.961536	0.000114
 270	2.6765e+01	10.7179	32.706855	0.000355	3.547483	1.201920	0.000142
 271	2.6865e+01	10.7500	32.876415	0.000426	4.256979	1.442304	0.000170
 272	2.6965e+01	10.7933	33.041937	0.000416	4.155623	1.407963	0.000166
 273	2.7064e+01	10.8334	33.146903	0.000264	2.635273	0.892855	0.000105
 274	2.7163e+01	10.8751	33.312426	0.000416	4.155623	1.407963	0.000166
 275	2.7263e+01	10.9136	33.417391	0.000264	2.635273	0.892855	0.000105
 276	2.7363e+01	10.9617	33.619248	0.000507	5.067832	1.717028	0.000203
 277	2.7462e+01	10.9906	33.720176	0.000253	2.533916	0.858514	0.000101
 278	2.7561e+01	11.0419	33.865513	0.000365	3.648839	1.236260	0.000146
 279	2.7661e+01	11.0820	33.978553	0.000284	2.837986	0.961536	0.000114
 280	2.7761e+01	11.1173	34.115816	0.000345	3.446126	1.167579	0.000138
 281	2.7860e+01	11.1510	34.240967	0.000314	3.142056	1.064557	0.000126
 282	2.7959e+01	11.1911	34.370155	0.000324	3.243413	1.098898	0.000130
 283	2.8059e+01	11.2264	34.495306	0.000314	3.142056	1.064557	0.000126
 284	2.8159e+01	11.2794	34.668903	0.000436	4.358336	1.476644	0.000174
 285	2.8258e+01	11.3082	34.781943	0.000284	2.837986	0.961536	0.000114
 286	2.8358e+01	11.3644	34.878834	0.000243	2.432560	0.824173	0.000097
 287	2.8457e+01	11.3997	35.076654	0.000497	4.966476	1.682688	0.000199
 288	2.8556e+01	11.4382	35.197768	0.000304	3.040699	1.030217	0.000122
 289	2.8656e+01	11.4622	35.339068	0.000355	3.547483	1.201920	0.000142
 290	2.8756e+01	11.5120	35.444033	0.000264	2.635273	0.892855	0.000105
 291	2.8855e+01	11.5569	35.573222	0.000324	3.243413	1.098898	0.000130
 292	2.8954e+01	11.5954	35.714521	0.000355	3.547483	1.201920	0.000142
 293	2.9054e+01	11.6307	35.916378	0.000507	5.067832	1.717028	0.000203
 294	2.9154e+01	11.6740	36.045566	0.000324	3.243413	1.098898	0.000130
 295	2.9253e+01	11.7061	36.207052	0.000405	4.054266	1.373622	0.000162
 296	2.9352e+01	11.7574	36.287795	0.000203	2.027133	0.686811	0.000081
 297	2.9452e+01	11.7863	36.421020	0.000334	3.344769	1.133239	0.000134
 298	2.9552e+01	11.8392	36.517911	0.000243	2.432560	0.824173	0.000097
 299	2.9651e+01	11.8649	36.663248	0.000365	3.648839	1.236260	0.000146
 300	2.9750e+01	11.9130	36.796474	0.000334	3.344769	1.133239	0.000134
 301	2.9850e+01	11.9419	36.957959	0.000405	4.054266	1.373622	0.000162
 302	2.9950e+01	11.9948	37.079073	0.000304	3.040699	1.030217	0.000122
 303	3.0049e+01	12.0221	37.212299	0.000334	3.344769	1.133239	0.000134
 304	3.0148e+01	12.0751	37.349561	0.000345	3.446126	1.167579	0.000138
 305	3.0248e+01	12.1087	37.462601	0.000284	2.837986	0.961536	0.000114
 306	3.0348e+01	12.1553	37.620049	0.000395	3.952909	1.339282	0.000158
 307	3.0447e+01	12.1874	37.761349	0.000355	3.547483	1.201920	0.000142
 308	3.0547e+01	12.2275	37.910723	0.000375	3.750196	1.270601	0.000150
 309	3.0646e+01	12.2612	38.003577	0.000233	2.331203	0.789833	0.000093
 310	3.0745e+01	12.3045	38.104506	0.000253	2.533916	0.858514	0.000101
 311	3.0845e+01	12.3462	38.257917	0.000385	3.851553	1.304941	0.000154
 312	3.0945e+01	12.3831	38.439588	0.000456	4.561049	1.545325	0.000183
 313	3.1044e+01	12.4280	38.605110	0.000416	4.155623	1.407963	0.000166
 314	3.1143e+01	12.4665	38.685853	0.000203	2.027133	0.686811	0.000081
 315	3.1243e+01	12.5002	38.827153	0.000355	3.547483	1.201920	0.000142
 316	3.1343e+01	12.5531	38.944230	0.000294	2.939343	0.995876	0.000118
 317	3.1442e+01	12.5820	39.033047	0.000223	2.229846	0.755492	0.000089
 318	3.1541e+01	12.6381	39.194532	0.000405	4.054266	1.373622	0.000162
 319	3.1641e+01	12.6574	39.351981	0.000395	3.952909	1.339282	0.000158
 320	3.1741e+01	12.7055	39.436760	0.000213	2.128490	0.721152	0.000085
 321	3.1840e+01	12.7472	39.549800	0.000284	2.837986	0.961536	0.000114
 322	3.1939e+01	12.7889	39.695137	0.000365	3.648839	1.236260	0.000146
 323	3.2039e+01	12.8307	39.844511	0.000375	3.750196	1.270601	0.000150
 324	3.2139e+01	12.8708	39.969662	0.000314	3.142056	1.064557	0.000126
 325	3.2238e+01	12.9093	40.070591	0.000253	2.533916	0.858514	0.000101
 326	3.2337e+01	12.9462	40.191705	0.000304	3.040699	1.030217	0.000122
 327	3.2437e+01	12.9847	40.361265	0.000426	4.256979	1.442304	0.000170
 328	3.2536e+01	13.0264	40.454119	0.000233	2.331203	0.789833	0.000093
 329	3.2636e+01	13.0601	40.639827	0.000466	4.662406	1.579666	0.000187
 330	3.2736e+01	13.1050	40.764978	0.000314	3.142056	1.064557	0.000126
 331	3.2835e+01	13.1387	40.938575	0.000436	4.358336	1.476644	0.000174
 332	3.2934e+01	13.1756	41.079875	0.000355	3.547483	1.201920	0.000142
 333	3.3034e+01	13.2189	41.200989	0.000304	3.040699	1.030217	0.000122
 334	3.3133e+01	13.2622	41.346326	0.000365	3.648839	1.236260	0.000146
 335	3.3233e+01	13.2911	41.418994	0.000182	1.824420	0.618130	0.000073
 336	3.3333e+01	13.3392	41.532034	0.000284	2.837986	0.961536	0.000114
 337	3.3432e+01	13.3825	41.669297	0.000345	3.446126	1.167579	0.000138
 338	3.3532e+01	13.4146	41.822708	0.000385	3.851553	1.304941	0.000154
 339	3.3631e+01	13.4627	41.943822	0.000304	3.040699	1.030217	0.000122
 340	3.3730e+01	13.4916	42.081084	0.000345	3.446126	1.167579	0.000138
 341	3.3830e+01	13.5413	42.186050	0.000264	2.635273	0.892855	0.000105
 342	3.3929e+01	13.5830	42.295053	0.000274	2.736630	0.927195	0.000110
 343	3.4029e+01	13.6247	42.460575	0.000416	4.155623	1.407963	0.000166
 344	3.4129e+01	13.6600	42.581689	0.000304	3.040699	1.030217	0.000122
 345	3.4228e+01	13.7114	42.727026	0.000365	3.648839	1.236260	0.000146
 346	3.4328e+01	13.7370	42.904660	0.000446	4.459693	1.510985	0.000179
 347	3.4427e+01	13.7820	43.017700	0.000284	2.837986	0.961536	0.000114
 348	3.4526e+01	13.8285	43.122665	0.000264	2.635273	0.892855	0.000105
 349	3.4626e+01	13.8622	43.272039	0.000375	3.750196	1.270601	0.000150
 350	3.4725e+01	13.8927	43.445636	0.000436	4.358336	1.476644	0.000174
 351	3.4825e+01	13.9408	43.590973	0.000365	3.648839	1.236260	0.000146
 352	3.4925e+01	13.9857	43.699976	0.000274	2.736630	0.927195	0.000110
 353	3.5024e+01	14.0306	43.804941	0.000264	2.635273	0.892855	0.000105
 354	3.5123e+01	14.0627	43.901833	0.000243	2.432560	0.824173	0.000097
 355	3.5223e+01	14.0964	44.055244	0.000385	3.851553	1.304941	0.000154
 356	3.5322e+01	14.1429	44.160209	0.000264	2.635273	0.892855	0.000105
 357	3.5422e+01	14.1782	44.305546	0.000365	3.648839	1.236260	0.000146
 358	3.5522e+01	14.2183	44.446846	0.000355	3.547483	1.201920	0.000142
 359	3.5621e+01	14.2600	44.563923	0.000294	2.939343	0.995876	0.000118
 360	3.5721e+01	14.3001	44.709260	0.000365	3.648839	1.236260	0.000146
 361	3.5820e+01	14.3322	44.806151	0.000243	2.432560	0.824173	0.000097
 362	3.5919e+01	14.3771	44.979748	0.000436	4.358336	1.476644	0.000174
 363	3.6019e+01	14.4188	45.096825	0.000294	2.939343	0.995876	0.000118
 364	3.6118e+01	14.4557	45.242162	0.000365	3.648839	1.236260	0.000146
 365	3.6218e+01	14.5071	45.395573	0.000385	3.851553	1.304941	0.000154
 366	3.6318e+01	14.5376	45.500538	0.000264	2.635273	0.892855	0.000105
 367	3.6417e+01	14.5825	45.637801	0.000345	3.446126	1.167579	0.000138
 368	3.6517e+01	14.6162	45.795249	0.000395	3.952909	1.339282	0.000158
 369	3.6616e+01	14.6579	45.960772	0.000416	4.155623	1.407963	0.000166
 370	3.6715e+01	14.6996	46.077849	0.000294	2.939343	0.995876	0.000118
 371	3.6815e+01	14.7269	46.247408	0.000426	4.256979	1.442304	0.000170
 372	3.6914e+01	14.7894	46.320077	0.000182	1.824420	0.618130	0.000073
 373	3.7014e+01	14.8247	46.404857	0.000213	2.128490	0.721152	0.000085
 374	3.7114e+01	14.8584	46.590565	0.000466	4.662406	1.579666	0.000187
 375	3.7213e+01	14.9065	46.739939	0.000375	3.750196	1.270601	0.000150
 376	3.7313e+01	14.9402	46.836830	0.000243	2.432560	0.824173	0.000097
 377	3.7412e+01	14.9707	46.937759	0.000253	2.533916	0.858514	0.000101
 378	3.7511e+01	15.0108	47.095207	0.000395	3.952909	1.339282	0.000158
 379	3.7611e+01	15.0605	47.220358	0.000314	3.142056	1.064557	0.000126
 380	3.7711e+01	15.1055	47.361658	0.000355	3.547483	1.201920	0.000142
 381	3.7810e+01	15.1359	47.478735	0.000294	2.939343	0.995876	0.000118
 382	3.7910e+01	15.1793	47.620035	0.000355	3.547483	1.201920	0.000142
 383	3.8009e+01	15.2210	47.757297	0.000345	3.446126	1.167579	0.000138
 384	3.8108e+01	15.2482	47.898597	0.000355	3.547483	1.201920	0.000142
 385	3.8208e+01	15.2932	48.027785	0.000324	3.243413	1.098898	0.000130
 386	3.8307e+01	15.3365	48.173122	0.000365	3.648839	1.236260	0.000146
 387	3.8407e+01	15.3750	48.330570	0.000395	3.952909	1.339282	0.000158
 388	3.8507e+01	15.4199	48.500130	0.000426	4.256979	1.442304	0.000170
 389	3.8606e+01	15.4552	48.629319	0.000324	3.243413	1.098898	0.000130
 390	3.8706e+01	15.4905	48.750433	0.000304	3.040699	1.030217	0.000122
 391	3.8805e+01	15.5386	48.915955	0.000416	4.155623	1.407963	0.000166
 392	3.8904e+01	15.5771	48.996698	0.000203	2.027133	0.686811	0.000081
 393	3.9004e+01	15.6108	49.146072	0.000375	3.750196	1.270601	0.000150
 394	3.9103e+01	15.6493	49.247000	0.000253	2.533916	0.858514	0.000101
 395	3.9203e+01	15.6974	49.384263	0.000345	3.446126	1.167579	0.000138
 396	3.9303e+01	15.7327	49.481154	0.000243	2.432560	0.824173	0.000097
 397	3.9402e+01	15.7840	49.662825	0.000456	4.561049	1.545325	0.000183
 398	3.9502e+01	15.8097	49.767791	0.000264	2.635273	0.892855	0.000105
 399	3.9601e+01	15.8610	49.925239	0.000395	3.952909	1.339282	0.000158
 400	3.9700e+01	15.8979	50.066539	0.000355	3.547483	1.201920	0.000142
 401	3.9800e+01	15.9364	50.159393	0.000233	2.331203	0.789833	0.000093
 402	3.9900e+01	15.9750	50.300693	0.000355	3.547483	1.201920	0.000142
 403	3.9999e+01	16.0118	50.486401	0.000466	4.662406	1.579666	0.000187
 404	4.0099e+01	16.0552	50.611552	0.000314	3.142056	1.064557	0.000126
 405	4.0198e+01	16.0905	50.740741	0.000324	3.243413	1.098898	0.000130
 406	4.0297e+01	16.1257	50.930486	0.000476	4.763762	1.614006	0.000191
 407	4.0397e+01	16.1675	51.051600	0.000304	3.040699	1.030217	0.000122
 408	4.0496e+01	16.2092	51.184825	0.000334	3.344769	1.133239	0.000134
 409	4.0596e+01	16.2364	51.318051	0.000334	3.344769	1.133239	0.000134
 410	4.0696e+01	16.3006	51.439165	0.000304	3.040699	1.030217	0.000122
 411	4.0795e+01	16.3359	51.564316	0.000314	3.142056	1.064557	0.000126
 412	4.0895e+01	16.3808	51.669282	0.000264	2.635273	0.892855	0.000105
 413	4.0994e+01	16.4177	51.802507	0.000334	3.344769	1.133239	0.000134
 414	4.1093e+01	16.4546	51.907473	0.000264	2.635273	0.892855	0.000105
 415	4.1193e+01	16.4899	52.072995	0.000416	4.155623	1.407963	0.000166
 416	4.1292e+01	16.5284	52.186035	0.000284	2.837986	0.961536	0.000114
 417	4.1392e+01	16.5717	52.299075	0.000284	2.837986	0.961536	0.000114
 418	4.1492e+01	16.6102	52.432300	0.000334	3.344769	1.133239	0.000134
 419	4.1591e+01	16.6584	52.565526	0.000334	3.344769	1.133239	0.000134
 420	4.1691e+01	16.6888	52.718937	0.000385	3.851553	1.304941	0.000154
 421	4.1790e+01	16.7289	52.827940	0.000274	2.736630	0.927195	0.000110
 422	4.1889e+01	16.7755	53.005574	0.000446	4.459693	1.510985	0.000179
 423	4.1989e+01	16.8156	53.134762	0.000324	3.243413	1.098898	0.000130
 424	4.2089e+01	16.8460	53.316433	0.000456	4.561049	1.545325	0.000183
 425	4.2188e+01	16.8910	53.397176	0.000203	2.027133	0.686811	0.000081
 426	4.2288e+01	16.9214	53.582884	0.000466	4.662406	1.579666	0.000187
 427	4.2387e+01	16.9696	53.736295	0.000385	3.851553	1.304941	0.000154
 428	4.2486e+01	17.0097	53.841261	0.000264	2.635273	0.892855	0.000105
 429	4.2586e+01	17.0482	53.994672	0.000385	3.851553	1.304941	0.000154
 430	4.2685e+01	17.0979	54.111749	0.000294	2.939343	0.995876	0.000118
 431	4.2785e+01	17.1316	54.208640	0.000243	2.432560	0.824173	0.000097
 432	4.2885e+01	17.1669	54.313606	0.000264	2.635273	0.892855	0.000105
 433	4.2984e+01	17.2054	54.462980	0.000375	3.750196	1.270601	0.000150
 434	4.3084e+01	17.2439	54.580057	0.000294	2.939343	0.995876	0.000118
 435	4.3183e+01	17.2840	54.693096	0.000284	2.837986	0.961536	0.000114
 436	4.3282e+01	17.3321	54.838433	0.000365	3.648839	1.236260	0.000146
 437	4.3382e+01	17.3626	54.991844	0.000385	3.851553	1.304941	0.000154
 438	4.3481e+01	17.4059	55.108921	0.000294	2.939343	0.995876	0.000118
 439	4.3581e+01	17.4476	55.238110	0.000324	3.243413	1.098898	0.000130
 440	4.3681e+01	17.4893	55.367298	0.000324	3.243413	1.098898	0.000130
 441	4.3780e+01	17.5182	55.520709	0.000385	3.851553	1.304941	0.000154
 442	4.3880e+01	17.5631	55.653935	0.000334	3.344769	1.133239	0.000134
 443	4.3979e+01	17.6016	55.843680	0.000476	4.763762	1.614006	0.000191
 444	4.4078e+01	17.6498	55.964794	0.000304	3.040699	1.030217	0.000122
 445	4.4178e+01	17.6883	56.077834	0.000284	2.837986	0.961536	0.000114
 446	4.4278e+01	17.7236	56.223171	0.000365	3.648839	1.236260	0.000146
 447	4.4377e+01	17.7573	56.324099	0.000253	2.533916	0.858514	0.000101
 448	4.4477e+01	17.8022	56.469436	0.000365	3.648839	1.236260	0.000146
 449	4.4576e+01	17.8455	56.602662	0.000334	3.344769	1.133239	0.000134
 450	4.4675e+01	17.8936	56.683404	0.000203	2.027133	0.686811	0.000081
 451	4.4775e+01	17.9257	56.780296	0.000243	2.432560	0.824173	0.000097
 452	4.4874e+01	17.9690	56.921595	0.000355	3.547483	1.201920	0.000142
 453	4.4974e+01	17.9995	57.038672	0.000294	2.939343	0.995876	0.000118
 454	4.5074e+01	18.0476	57.192083	0.000385	3.851553	1.304941	0.000154
 455	4.5173e+01	18.0813	57.333383	0.000355	3.547483	1.201920	0.000142
 456	4.5273e+01	18.1246	57.450460	0.000294	2.939343	0.995876	0.000118
 457	4.5372e+01	18.1727	57.571574	0.000304	3.040699	1.030217	0.000122
 458	4.5471e+01	18.2064	57.708837	0.000345	3.446126	1.167579	0.000138
 459	4.5571e+01	18.2514	57.829951	0.000304	3.040699	1.030217	0.000122
 460	4.5670e+01	18.2818	57.987399	0.000395	3.952909	1.339282	0.000158
 461	4.5770e+01	18.3252	58.152922	0.000416	4.155623	1.407963	0.000166
 462	4.5870e+01	18.3717	58.261924	0.000274	2.736630	0.927195	0.000110
 463	4.5969e+01	18.3909	58.395150	0.000334	3.344769	1.133239	0.000134
 464	4.6069e+01	18.4439	58.540487	0.000365	3.648839	1.236260	0.000146
 465	4.6168e+01	18.4840	58.677749	0.000345	3.446126	1.167579	0.000138
 466	4.6267e+01	18.5257	58.802901	0.000314	3.142056	1.064557	0.000126
 467	4.6367e+01	18.5658	58.948237	0.000365	3.648839	1.236260	0.000146
 468	4.6467e+01	18.5979	59.033017	0.000213	2.128490	0.721152	0.000085
 469	4.6566e+01	18.6508	59.146057	0.000284	2.837986	0.961536	0.000114
 470	4.6666e+01	18.6845	59.255060	0.000274	2.736630	0.927195	0.000110
 471	4.6765e+01	18.7214	59.388285	0.000334	3.344769	1.133239	0.000134
 472	4.6864e+01	18.7647	59.513436	0.000314	3.142056	1.064557	0.000126
 473	4.6964e+01	18.8048	59.606291	0.000233	2.331203	0.789833	0.000093
 474	4.7063e+01	18.8369	59.731442	0.000314	3.142056	1.064557	0.000126
 475	4.7163e+01	18.8754	59.848519	0.000294	2.939343	0.995876	0.000118
 476	4.7263e+01	18.9299	59.977707	0.000324	3.243413	1.098898	0.000130
 477	4.7362e+01	18.9572	60.123044	0.000365	3.648839	1.236260	0.000146
 478	4.7462e+01	18.9957	60.260307	0.000345	3.446126	1.167579	0.000138
 479	4.7561e+01	19.0374	60.429866	0.000426	4.256979	1.442304	0.000170
 480	4.7660e+01	19.0823	60.571166	0.000355	3.547483	1.201920	0.000142
 481	4.7760e+01	19.1289	60.668057	0.000243	2.432560	0.824173	0.000097
 482	4.7859e+01	19.1610	60.813394	0.000365	3.648839	1.236260	0.000146
 483	4.7959e+01	19.2075	60.950657	0.000345	3.446126	1.167579	0.000138
 484	4.8059e+01	19.2508	61.079845	0.000324	3.243413	1.098898	0.000130
 485	4.8158e+01	19.2813	61.180774	0.000253	2.533916	0.858514	0.000101
 486	4.8258e+01	19.3118	61.293813	0.000284	2.837986	0.961536	0.000114
 487	4.8357e+01	19.3631	61.431076	0.000345	3.446126	1.167579	0.000138
 488	4.8456e+01	19.3936	61.503744	0.000182	1.824420	0.618130	0.000073
 489	4.8556e+01	19.4417	61.628896	0.000314	3.142056	1.064557	0.000126
 490	4.8656e+01	19.4770	61.745973	0.000294	2.939343	0.995876	0.000118
 491	4.8755e+01	19.5203	61.863049	0.000294	2.939343	0.995876	0.000118
 492	4.8855e+01	19.5572	62.016461	0.000385	3.851553	1.304941	0.000154
 493	4.8954e+01	19.6021	62.101240	0.000213	2.128490	0.721152	0.000085
 494	4.9053e+01	19.6374	62.266763	0.000416	4.155623	1.407963	0.000166
 495	4.9153e+01	19.6775	62.375766	0.000274	2.736630	0.927195	0.000110
 496	4.9252e+01	19.7192	62.533214	0.000395	3.952909	1.339282	0.000158
 497	4.9352e+01	19.7641	62.666439	0.000334	3.344769	1.133239	0.000134
 498	4.9452e+01	19.7914	62.864259	0.000497	4.966476	1.682688	0.000199
 499	4.9551e+01	19.8363	62.961150	0.000243	2.432560	0.824173	0.000097
 500	4.9651e+01	19.8813	63.066116	0.000264	2.635273	0.892855	0.000105
 501	4.9750e+01	19.9149	63.191267	0.000314	3.142056	1.064557	0.000126
 502	4.9849e+01	19.9615	63.328530	0.000345	3.446126	1.167579	0.000138
 503	4.9949e+01	19.9952	63.485978	0.000395	3.952909	1.339282	0.000158
 504	5.0048e+01	19.9599	63.376975	0.000274	2.736630	0.927195	-0.000110
 505	5.0148e+01	19.9182	63.207416	0.000426	4.256979	1.442304	-0.000170
 506	5.0248e+01	19.8780	63.106487	0.000253	2.533916	0.858514	-0.000101
 507	5.0347e+01	19.8363	62.936928	0.000426	4.256979	1.442304	-0.000170
 508	5.0447e+01	19.7946	62.872333	0.000162	1.621706	0.549449	-0.000065
 509	5.0546e+01	19.7561	62.759294	0.000284	2.837986	0.961536	-0.000114
 510	5.0645e+01	19.7128	62.646254	0.000284	2.837986	0.961536	-0.000114
 511	5.0745e+01	19.6807	62.513028	0.000334	3.344769	1.133239	-0.000134
 512	5.0844e+01	19.6374	62.440360	0.000182	1.824420	0.618130	-0.000073
 513	5.0944e+01	19.6005	62.343469	0.000243	2.432560	0.824173	-0.000097
 514	5.1044e+01	19.5556	62.214280	0.000324	3.243413	1.098898	-0.000130
 515	5.1143e+01	19.5155	62.105278	0.000274	2.736630	0.927195	-0.000110
 516	5.1242e+01	19.4722	62.024535	0.000203	2.027133	0.686811	-0.000081
 517	5.1342e+01	19.4385	61.923607	0.000253	2.533916	0.858514	-0.000101
 518	5.1441e+01	19.3984	61.814604	0.000274	2.736630	0.927195	-0.000110
 519	5.1541e+01	19.3631	61.697527	0.000294	2.939343	0.995876	-0.000118
 520	5.1641e+01	19.3102	61.616784	0.000203	2.027133	0.686811	-0.000081
 521	5.1740e+01	19.2749	61.491633	0.000314	3.142056	1.064557	-0.000126
 522	5.1840e+01	19.2380	61.370519	0.000304	3.040699	1.030217	-0.000122
 523	5.1939e+01	19.2027	61.249405	0.000304	3.040699	1.030217	-0.000122
 524	5.2038e+01	19.1674	61.128291	0.000304	3.040699	1.030217	-0.000122
 525	5.2138e+01	19.1176	60.954694	0.000436	4.358336	1.476644	-0.000174
 526	5.2237e+01	19.0840	60.849728	0.000264	2.635273	0.892855	-0.000105
 527	5.2337e+01	19.0455	60.740726	0.000274	2.736630	0.927195	-0.000110
 528	5.2437e+01	19.0021	60.623649	0.000294	2.939343	0.995876	-0.000118
 529	5.2536e+01	18.9508	60.498498	0.000314	3.142056	1.064557	-0.000126
 530	5.2636e+01	18.9219	60.417755	0.000203	2.027133	0.686811	-0.000081
 531	5.2735e+01	18.8754	60.280492	0.000345	3.446126	1.167579	-0.000138
 532	5.2834e+01	18.8481	60.167452	0.000284	2.837986	0.961536	-0.000114
 533	5.2934e+01	18.8048	60.086710	0.000203	2.027133	0.686811	-0.000081
 534	5.3033e+01	18.7631	60.001930	0.000213	2.128490	0.721152	-0.000085
 535	5.3133e+01	18.7262	59.905039	0.000243	2.432560	0.824173	-0.000097
 536	5.3233e+01	18.6797	59.759702	0.000365	3.648839	1.236260	-0.000146
 537	5.3332e+01	18.6396	59.687033	0.000182	1.824420	0.618130	-0.000073
 538	5.3431e+01	18.5979	59.533622	0.000385	3.851553	1.304941	-0.000154
 539	5.3531e+01	18.5690	59.440768	0.000233	2.331203	0.789833	-0.000093
 540	5.3630e+01	18.5209	59.299468	0.000355	3.547483	1.201920	-0.000142
 541	5.3730e+01	18.4808	59.162206	0.000345	3.446126	1.167579	-0.000138
 542	5.3830e+01	18.4407	59.057240	0.000264	2.635273	0.892855	-0.000105
 543	5.3929e+01	18.4166	58.928052	0.000324	3.243413	1.098898	-0.000130
 544	5.4029e+01	18.3604	58.782715	0.000365	3.648839	1.236260	-0.000146
 545	5.4128e+01	18.3252	58.665638	0.000294	2.939343	0.995876	-0.000118
 546	5.4227e+01	18.2850	58.524338	0.000355	3.547483	1.201920	-0.000142
 547	5.4327e+01	18.2449	58.451670	0.000182	1.824420	0.618130	-0.000073
 548	5.4426e+01	18.2016	58.338630	0.000284	2.837986	0.961536	-0.000114
 549	5.4526e+01	18.1727	58.197330	0.000355	3.547483	1.201920	-0.000142
 550	5.4626e+01	18.1262	58.080253	0.000294	2.939343	0.995876	-0.000118
 551	5.4725e+01	18.0797	57.975288	0.000264	2.635273	0.892855	-0.000105
 552	5.4825e+01	18.0380	57.886471	0.000223	2.229846	0.755492	-0.000089
 553	5.4924e+01	18.0059	57.809765	0.000193	1.925776	0.652471	-0.000077
 554	5.5023e+01	17.9690	57.700763	0.000274	2.736630	0.927195	-0.000110
 555	5.5123e+01	17.9257	57.624057	0.000193	1.925776	0.652471	-0.000077
 556	5.5222e+01	17.8872	57.474683	0.000375	3.750196	1.270601	-0.000150
 557	5.5322e+01	17.8455	57.373755	0.000253	2.533916	0.858514	-0.000101
 558	5.5422e+01	17.8070	57.256678	0.000294	2.939343	0.995876	-0.000118
 559	5.5521e+01	17.7653	57.139601	0.000294	2.939343	0.995876	-0.000118
 560	5.5620e+01	17.7284	56.998301	0.000355	3.547483	1.201920	-0.000142
 561	5.5720e+01	17.6931	56.905447	0.000233	2.331203	0.789833	-0.000093
 562	5.5819e+01	17.6562	56.711664	0.000487	4.865119	1.648347	-0.000195
 563	5.5919e+01	17.6032	56.570365	0.000355	3.547483	1.201920	-0.000142
 564	5.6019e+01	17.5663	56.489622	0.000203	2.027133	0.686811	-0.000081
 565	5.6118e+01	17.5166	56.340248	0.000375	3.750196	1.270601	-0.000150
 566	5.6218e+01	17.4958	56.271616	0.000172	1.723063	0.583790	-0.000069
 567	5.6317e+01	17.4428	56.158577	0.000284	2.837986	0.961536	-0.000114
 568	5.6416e+01	17.4204	56.005166	0.000385	3.851553	1.304941	-0.000154
 569	5.6516e+01	17.3690	55.884051	0.000304	3.040699	1.030217	-0.000122
 570	5.6615e+01	17.3353	55.783123	0.000253	2.533916	0.858514	-0.000101
 571	5.6715e+01	17.2968	55.722566	0.000152	1.520350	0.515108	-0.000061
 572	5.6815e+01	17.2503	55.577229	0.000365	3.648839	1.236260	-0.000146
 573	5.6914e+01	17.2102	55.508598	0.000172	1.723063	0.583790	-0.000069
 574	5.7014e+01	17.1621	55.411707	0.000243	2.432560	0.824173	-0.000097
 575	5.7113e+01	17.1252	55.262333	0.000375	3.750196	1.270601	-0.000150
 576	5.7212e+01	17.0979	55.149293	0.000284	2.837986	0.961536	-0.000114
 577	5.7312e+01	17.0466	55.040290	0.000274	2.736630	0.927195	-0.000110
 578	5.7411e+01	17.0113	54.955510	0.000213	2.128490	0.721152	-0.000085
 579	5.7511e+01	16.9680	54.802099	0.000385	3.851553	1.304941	-0.000154
 580	5.7611e+01	16.9311	54.668874	0.000334	3.344769	1.133239	-0.000134
 581	5.7710e+01	16.8974	54.527574	0.000355	3.547483	1.201920	-0.000142
 582	5.7809e+01	16.8428	54.394348	0.000334	3.344769	1.133239	-0.000134
 583	5.7909e+01	16.8172	54.281309	0.000284	2.837986	0.961536	-0.000114
 584	5.8008e+01	16.7674	54.152120	0.000324	3.243413	1.098898	-0.000130
 585	5.8108e+01	16.7354	54.022932	0.000324	3.243413	1.098898	-0.000130
 586	5.8208e+01	16.6824	53.885669	0.000345	3.446126	1.167579	-0.000138
 587	5.8307e+01	16.6423	53.784741	0.000253	2.533916	0.858514	-0.000101
 588	5.8407e+01	16.6134	53.667664	0.000294	2.939343	0.995876	-0.000118
 589	5.8506e+01	16.5637	53.558661	0.000274	2.736630	0.927195	-0.000110
 590	5.8605e+01	16.5348	53.465807	0.000233	2.331203	0.789833	-0.000093
 591	5.8705e+01	16.4899	53.372953	0.000233	2.331203	0.789833	-0.000093
 592	5.8804e+01	16.4546	53.235690	0.000345	3.446126	1.167579	-0.000138
 593	5.8904e+01	16.4065	53.126688	0.000274	2.736630	0.927195	-0.000110
 594	5.9004e+01	16.3616	53.045945	0.000203	2.027133	0.686811	-0.000081
 595	5.9103e+01	16.3295	52.896571	0.000375	3.750196	1.270601	-0.000150
 596	5.9203e+01	16.2910	52.783531	0.000284	2.837986	0.961536	-0.000114
 597	5.9302e+01	16.2477	52.682603	0.000253	2.533916	0.858514	-0.000101
 598	5.9401e+01	16.2108	52.557452	0.000314	3.142056	1.064557	-0.000126
 599	5.9501e+01	16.1739	52.440375	0.000294	2.939343	0.995876	-0.000118
 600	5.9600e+01	16.1338	52.291001	0.000375	3.750196	1.270601	-0.000150
 601	5.9700e+01	16.0921	52.153738	0.000345	3.446126	1.167579	-0.000138
 602	5.9800e+01	16.0584	52.040698	0.000284	2.837986	0.961536	-0.000114
 603	5.9899e+01	16.0102	51.895361	0.000365	3.648839	1.236260	-0.000146
 604	5.9998e+01	15.9733	51.786359	0.000274	2.736630	0.927195	-0.000110
 605	6.0098e+01	15.9300	51.645059	0.000355	3.547483	1.201920	-0.000142
 606	6.0197e+01	15.8963	51.536056	0.000274	2.736630	0.927195	-0.000110
 607	6.0297e+01	15.8530	51.418979	0.000294	2.939343	0.995876	-0.000118
 608	6.0397e+01	15.8161	51.309977	0.000274	2.736630	0.927195	-0.000110
 609	6.0496e+01	15.7744	51.184825	0.000314	3.142056	1.064557	-0.000126
 610	6.0596e+01	15.7295	51.116194	0.000172	1.723063	0.583790	-0.000069
 611	6.0695e+01	15.6926	50.995080	0.000304	3.040699	1.030217	-0.000122
 612	6.0794e+01	15.6605	50.849743	0.000365	3.648839	1.236260	-0.000146
 613	6.0894e+01	15.6124	50.732666	0.000294	2.939343	0.995876	-0.000118
 614	6.0993e+01	15.5787	50.627701	0.000264	2.635273	0.892855	-0.000105
 615	6.1093e+01	15.5370	50.490438	0.000345	3.446126	1.167579	-0.000138
 616	6.1193e+01	15.4969	50.357213	0.000334	3.344769	1.133239	-0.000134
 617	6.1292e+01	15.4504	50.248210	0.000274	2.736630	0.927195	-0.000110
 618	6.1392e+01	15.4247	50.151319	0.000243	2.432560	0.824173	-0.000097
 619	6.1491e+01	15.3750	49.993870	0.000395	3.952909	1.339282	-0.000158
 620	6.1590e+01	15.3365	49.832385	0.000405	4.054266	1.373622	-0.000162
 621	6.1690e+01	15.2899	49.719345	0.000284	2.837986	0.961536	-0.000114
 622	6.1789e+01	15.2482	49.561897	0.000395	3.952909	1.339282	-0.000158
 623	6.1889e+01	15.2145	49.420597	0.000355	3.547483	1.201920	-0.000142
 624	6.1989e+01	15.1793	49.295446	0.000314	3.142056	1.064557	-0.000126
 625	6.2088e+01	15.1327	49.174332	0.000304	3.040699	1.030217	-0.000122
 626	6.2188e+01	15.1006	49.081478	0.000233	2.331203	0.789833	-0.000093
 627	6.2287e+01	15.0557	48.964401	0.000294	2.939343	0.995876	-0.000118
 628	6.2386e+01	15.0204	48.891732	0.000182	1.824420	0.618130	-0.000073
 629	6.2486e+01	14.9771	48.734284	0.000395	3.952909	1.339282	-0.000158
 630	6.2586e+01	14.9370	48.629319	0.000264	2.635273	0.892855	-0.000105
 631	6.2685e+01	14.9001	48.516279	0.000284	2.837986	0.961536	-0.000114
 632	6.2785e+01	14.8616	48.419387	0.000243	2.432560	0.824173	-0.000097
 633	6.2884e+01	14.8151	48.257902	0.000405	4.054266	1.373622	-0.000162
 634	6.2983e+01	14.7782	48.148899	0.000274	2.736630	0.927195	-0.000110
 635	6.3083e+01	14.7301	47.991451	0.000395	3.952909	1.339282	-0.000158
 636	6.3182e+01	14.6996	47.874374	0.000294	2.939343	0.995876	-0.000118
 637	6.3282e+01	14.6595	47.720963	0.000385	3.851553	1.304941	-0.000154
 638	6.3382e+01	14.6306	47.567552	0.000385	3.851553	1.304941	-0.000154
 639	6.3481e+01	14.5680	47.418178	0.000375	3.750196	1.270601	-0.000150
 640	6.3581e+01	14.5472	47.325324	0.000233	2.331203	0.789833	-0.000093
 641	6.3680e+01	14.5119	47.192098	0.000334	3.344769	1.133239	-0.000134
 642	6.3779e+01	14.4638	47.022539	0.000426	4.256979	1.442304	-0.000170
 643	6.3879e+01	14.4124	46.913536	0.000274	2.736630	0.927195	-0.000110
 644	6.3978e+01	14.3787	46.808570	0.000264	2.635273	0.892855	-0.000105
 645	6.4078e+01	14.3531	46.707642	0.000253	2.533916	0.858514	-0.000101
 646	6.4177e+01	14.3033	46.598639	0.000274	2.736630	0.927195	-0.000110
 647	6.4277e+01	14.2568	46.453302	0.000365	3.648839	1.236260	-0.000146
 648	6.4376e+01	14.2231	46.320077	0.000334	3.344769	1.133239	-0.000134
 649	6.4476e+01	14.1782	46.211074	0.000274	2.736630	0.927195	-0.000110
 650	6.4576e+01	14.1349	46.061700	0.000375	3.750196	1.270601	-0.000150
 651	6.4675e+01	14.0996	45.948660	0.000284	2.837986	0.961536	-0.000114
 652	6.4775e+01	14.0579	45.803324	0.000365	3.648839	1.236260	-0.000146
 653	6.4874e+01	14.0242	45.670098	0.000334	3.344769	1.133239	-0.000134
 654	6.4974e+01	13.9825	45.557058	0.000284	2.837986	0.961536	-0.000114
 655	6.5073e+01	13.9424	45.431907	0.000314	3.142056	1.064557	-0.000126
 656	6.5172e+01	13.9039	45.286570	0.000365	3.648839	1.236260	-0.000146
 657	6.5272e+01	13.8461	45.108936	0.000446	4.459693	1.510985	-0.000179
 658	6.5371e+01	13.8140	44.991859	0.000294	2.939343	0.995876	-0.000118
 659	6.5471e+01	13.7836	44.854597	0.000345	3.446126	1.167579	-0.000138
 660	6.5570e+01	13.7435	44.745594	0.000274	2.736630	0.927195	-0.000110
 661	6.5670e+01	13.7066	44.620443	0.000314	3.142056	1.064557	-0.000126
 662	6.5769e+01	13.6649	44.446846	0.000436	4.358336	1.476644	-0.000174
 663	6.5869e+01	13.6231	44.337843	0.000274	2.736630	0.927195	-0.000110
 664	6.5969e+01	13.5814	44.240952	0.000243	2.432560	0.824173	-0.000097
 665	6.6068e+01	13.5397	44.144061	0.000243	2.432560	0.824173	-0.000097
 666	6.6168e+01	13.5028	43.998724	0.000365	3.648839	1.236260	-0.000146
 667	6.6267e+01	13.4611	43.889721	0.000274	2.736630	0.927195	-0.000110
 668	6.6367e+01	13.4290	43.724199	0.000416	4.155623	1.407963	-0.000166
 669	6.6466e+01	13.3825	43.663642	0.000152	1.520350	0.515108	-0.000061
 670	6.6566e+01	13.3472	43.514268	0.000375	3.750196	1.270601	-0.000150
 671	6.6665e+01	13.3055	43.372968	0.000355	3.547483	1.201920	-0.000142
 672	6.6764e+01	13.2654	43.243779	0.000324	3.243413	1.098898	-0.000130
 673	6.6864e+01	13.2253	43.114591	0.000324	3.243413	1.098898	-0.000130
 674	6.6963e+01	13.1868	42.993477	0.000304	3.040699	1.030217	-0.000122
 675	6.7063e+01	13.1531	42.848140	0.000365	3.648839	1.236260	-0.000146
 676	6.7162e+01	13.0954	42.698766	0.000375	3.750196	1.270601	-0.000150
 677	6.7262e+01	13.0745	42.525169	0.000436	4.358336	1.476644	-0.000174
 678	6.7362e+01	13.0248	42.387907	0.000345	3.446126	1.167579	-0.000138
 679	6.7461e+01	12.9815	42.311201	0.000193	1.925776	0.652471	-0.000077
 680	6.7561e+01	12.9510	42.129530	0.000456	4.561049	1.545325	-0.000183
 681	6.7660e+01	12.9125	42.024564	0.000264	2.635273	0.892855	-0.000105
 682	6.7760e+01	12.8724	41.895376	0.000324	3.243413	1.098898	-0.000130
 683	6.7859e+01	12.8274	41.822708	0.000182	1.824420	0.618130	-0.000073
 684	6.7959e+01	12.7825	41.701594	0.000304	3.040699	1.030217	-0.000122
 685	6.8058e+01	12.7456	41.588554	0.000284	2.837986	0.961536	-0.000114
 686	6.8157e+01	12.7023	41.427068	0.000405	4.054266	1.373622	-0.000162
 687	6.8257e+01	12.6718	41.293843	0.000334	3.344769	1.133239	-0.000134
 688	6.8356e+01	12.6237	41.164655	0.000324	3.243413	1.098898	-0.000130
 689	6.8456e+01	12.5900	41.019318	0.000365	3.648839	1.236260	-0.000146
 690	6.8555e+01	12.5515	40.926464	0.000233	2.331203	0.789833	-0.000093
 691	6.8655e+01	12.5050	40.785164	0.000355	3.547483	1.201920	-0.000142
 692	6.8754e+01	12.4729	40.655975	0.000324	3.243413	1.098898	-0.000130
 693	6.8854e+01	12.4360	40.494490	0.000405	4.054266	1.373622	-0.000162
 694	6.8954e+01	12.3911	40.377413	0.000294	2.939343	0.995876	-0.000118
 695	6.9053e+01	12.3478	40.240150	0.000345	3.446126	1.167579	-0.000138
 696	6.9153e+01	12.2997	40.119036	0.000304	3.040699	1.030217	-0.000122
 697	6.9252e+01	12.2724	39.949477	0.000426	4.256979	1.442304	-0.000170
 698	6.9352e+01	12.2307	39.820288	0.000324	3.243413	1.098898	-0.000130
 699	6.9451e+01	12.1938	39.719360	0.000253	2.533916	0.858514	-0.000101
 700	6.9550e+01	12.1521	39.574023	0.000365	3.648839	1.236260	-0.000146
 701	6.9650e+01	12.1120	39.460983	0.000284	2.837986	0.961536	-0.000114
 702	6.9749e+01	12.0702	39.331795	0.000324	3.243413	1.098898	-0.000130
 703	6.9849e+01	12.0221	39.259126	0.000182	1.824420	0.618130	-0.000073
 704	6.9948e+01	11.9948	39.142050	0.000294	2.939343	0.995876	-0.000118
 705	7.0048e+01	11.9499	38.968453	0.000436	4.358336	1.476644	-0.000174
 706	7.0147e+01	11.9130	38.895784	0.000182	1.824420	0.618130	-0.000073
 707	7.0247e+01	11.8729	38.754485	0.000355	3.547483	1.201920	-0.000142
 708	7.0347e+01	11.8248	38.609148	0.000365	3.648839	1.236260	-0.000146
 709	7.0446e+01	11.7943	38.467848	0.000355	3.547483	1.201920	-0.000142
 710	7.0546e+01	11.7478	38.330585	0.000345	3.446126	1.167579	-0.000138
 711	7.0645e+01	11.7061	38.213508	0.000294	2.939343	0.995876	-0.000118
 712	7.0745e+01	11.6660	38.052023	0.000405	4.054266	1.373622	-0.000162
 713	7.0844e+01	11.6339	37.922835	0.000324	3.243413	1.098898	-0.000130
 714	7.0944e+01	11.5890	37.769423	0.000385	3.851553	1.304941	-0.000154
 715	7.1043e+01	11.5553	37.648309	0.000304	3.040699	1.030217	-0.000122
 716	7.1142e+01	11.5088	37.494898	0.000385	3.851553	1.304941	-0.000154
 717	7.1242e+01	11.4719	37.373784	0.000304	3.040699	1.030217	-0.000122
 718	7.1341e+01	11.4366	37.272856	0.000253	2.533916	0.858514	-0.000101
 719	7.1441e+01	11.3981	37.155779	0.000294	2.939343	0.995876	-0.000118
 720	7.1540e+01	11.3580	37.038702	0.000294	2.939343	0.995876	-0.000118
 721	7.1640e+01	11.3130	36.961996	0.000193	1.925776	0.652471	-0.000077
 722	7.1740e+01	11.2681	36.857031	0.000264	2.635273	0.892855	-0.000105
 723	7.1839e+01	11.2393	36.707657	0.000375	3.750196	1.270601	-0.000150
 724	7.1939e+01	11.1863	36.534060	0.000436	4.358336	1.476644	-0.000174
 725	7.2038e+01	11.1510	36.437169	0.000243	2.432560	0.824173	-0.000097
 726	7.2138e+01	11.1157	36.307980	0.000324	3.243413	1.098898	-0.000130
 727	7.2237e+01	11.0708	36.166681	0.000355	3.547483	1.201920	-0.000142
 728	7.2337e+01	11.0323	36.065752	0.000253	2.533916	0.858514	-0.000101
 729	7.2436e+01	10.9906	35.944638	0.000304	3.040699	1.030217	-0.000122
 730	7.2535e+01	10.9473	35.795264	0.000375	3.750196	1.270601	-0.000150
 731	7.2635e+01	10.9120	35.617630	0.000446	4.459693	1.510985	-0.000179
 732	7.2734e+01	10.8767	35.456145	0.000405	4.054266	1.373622	-0.000162
 733	7.2834e+01	10.8446	35.363290	0.000233	2.331203	0.789833	-0.000093
 734	7.2933e+01	10.8029	35.221991	0.000355	3.547483	1.201920	-0.000142
 735	7.3033e+01	10.7532	35.080691	0.000355	3.547483	1.201920	-0.000142
 736	7.3132e+01	10.7147	34.987837	0.000233	2.331203	0.789833	-0.000093
 737	7.3232e+01	10.6794	34.834426	0.000385	3.851553	1.304941	-0.000154
 738	7.3332e+01	10.6345	34.705237	0.000324	3.243413	1.098898	-0.000130
 739	7.3431e+01	10.5944	34.676977	0.000071	0.709497	0.240384	-0.000028
 740	7.3531e+01	10.5575	34.515492	0.000405	4.054266	1.373622	-0.000162
 741	7.3630e+01	10.5206	34.382267	0.000334	3.344769	1.133239	-0.000134
 742	7.3730e+01	10.4740	34.281338	0.000253	2.533916	0.858514	-0.000101
 743	7.3829e+01	10.4371	34.127927	0.000385	3.851553	1.304941	-0.000154
 744	7.3928e+01	10.4083	34.002776	0.000314	3.142056	1.064557	-0.000126
 745	7.4028e+01	10.3473	33.889736	0.000284	2.837986	0.961536	-0.000114
 746	7.4127e+01	10.3184	33.744399	0.000365	3.648839	1.236260	-0.000146
 747	7.4227e+01	10.2751	33.611174	0.000334	3.344769	1.133239	-0.000134
 748	7.4326e+01	10.2334	33.498134	0.000284	2.837986	0.961536	-0.000114
 749	7.4426e+01	10.2045	33.352797	0.000365	3.648839	1.236260	-0.000146
 750	7.4525e+01	10.1548	33.243794	0.000274	2.736630	0.927195	-0.000110
 751	7.4625e+01	10.1211	33.045975	0.000497	4.966476	1.682688	-0.000199
 752	7.4725e+01	10.0730	32.924861	0.000304	3.040699	1.030217	-0.000122
 753	7.4824e+01	10.0393	32.755301	0.000426	4.256979	1.442304	-0.000170
 754	7.4924e+01	10.0056	32.618038	0.000345	3.446126	1.167579	-0.000138
 755	7.5023e+01	9.9559	32.541333	0.000193	1.925776	0.652471	-0.000077
 756	7.5123e+01	9.9126	32.420219	0.000304	3.040699	1.030217	-0.000122
 757	7.5222e+01	9.8789	32.250659	0.000426	4.256979	1.442304	-0.000170
 758	7.5322e+01	9.8356	32.206250	0.000111	1.114923	0.377746	-0.000045
 759	7.5421e+01	9.8019	32.056876	0.000375	3.750196	1.270601	-0.000150
 760	7.5520e+01	9.7602	31.919614	0.000345	3.446126	1.167579	-0.000138
 761	7.5620e+01	9.7168	31.822722	0.000243	2.432560	0.824173	-0.000097
 762	7.5719e+01	9.6848	31.685460	0.000345	3.446126	1.167579	-0.000138
 763	7.5819e+01	9.6430	31.564346	0.000304	3.040699	1.030217	-0.000122
 764	7.5918e+01	9.6029	31.419009	0.000365	3.648839	1.236260	-0.000146
 765	7.6018e+01	9.5580	31.314043	0.000264	2.635273	0.892855	-0.000105
 766	7.6118e+01	9.5227	31.156595	0.000395	3.952909	1.339282	-0.000158
 767	7.6217e+01	9.4826	30.995110	0.000405	4.054266	1.373622	-0.000162
 768	7.6317e+01	9.4409	30.898218	0.000243	2.432560	0.824173	-0.000097
 769	7.6416e+01	9.4201	30.712510	0.000466	4.662406	1.579666	-0.000187
 770	7.6516e+01	9.3543	30.575248	0.000345	3.446126	1.167579	-0.000138
 771	7.6615e+01	9.3222	30.429911	0.000365	3.648839	1.236260	-0.000146
 772	7.6715e+01	9.2933	30.288611	0.000355	3.547483	1.201920	-0.000142
 773	7.6814e+01	9.2468	30.183645	0.000264	2.635273	0.892855	-0.000105
 774	7.6913e+01	9.2019	30.054457	0.000324	3.243413	1.098898	-0.000130
 775	7.7013e+01	9.1618	29.901046	0.000385	3.851553	1.304941	-0.000154
 776	7.7112e+01	9.1185	29.804155	0.000243	2.432560	0.824173	-0.000097
 777	7.7212e+01	9.0767	29.715338	0.000223	2.229846	0.755492	-0.000089
 778	7.7311e+01	9.0399	29.578075	0.000345	3.446126	1.167579	-0.000138
 779	7.7411e+01	9.0014	29.448887	0.000324	3.243413	1.098898	-0.000130
 780	7.7510e+01	8.9612	29.259141	0.000476	4.763762	1.614006	-0.000191
 781	7.7610e+01	8.9195	29.174361	0.000213	2.128490	0.721152	-0.000085
 782	7.7710e+01	8.8778	29.012876	0.000405	4.054266	1.373622	-0.000162
 783	7.7809e+01	8.8457	28.875613	0.000345	3.446126	1.167579	-0.000138
 784	7.7909e+01	8.8040	28.750462	0.000314	3.142056	1.064557	-0.000126
 785	7.8008e+01	8.7687	28.625311	0.000314	3.142056	1.064557	-0.000126
 786	7.8108e+01	8.7270	28.475937	0.000375	3.750196	1.270601	-0.000150
 787	7.8207e+01	8.6773	28.366934	0.000274	2.736630	0.927195	-0.000110
 788	7.8306e+01	8.6404	28.185263	0.000456	4.561049	1.545325	-0.000183
 789	7.8406e+01	8.6099	28.039926	0.000365	3.648839	1.236260	-0.000146
 790	7.8505e+01	8.5666	27.882478	0.000395	3.952909	1.339282	-0.000158
 791	7.8605e+01	8.5217	27.769438	0.000284	2.837986	0.961536	-0.000114
 792	7.8704e+01	8.4960	27.599878	0.000426	4.256979	1.442304	-0.000170
 793	7.8804e+01	8.4431	27.494913	0.000264	2.635273	0.892855	-0.000105
 794	7.8903e+01	8.3982	27.418207	0.000193	1.925776	0.652471	-0.000077
 795	7.9003e+01	8.3661	27.264796	0.000385	3.851553	1.304941	-0.000154
 796	7.9103e+01	8.3260	27.147719	0.000294	2.939343	0.995876	-0.000118
 797	7.9202e+01	8.2843	26.978160	0.000426	4.256979	1.442304	-0.000170
 798	7.9302e+01	8.2490	26.861083	0.000294	2.939343	0.995876	-0.000118
 799	7.9401e+01	8.1992	26.719783	0.000355	3.547483	1.201920	-0.000142
 800	7.9501e+01	8.1671	26.606743	0.000284	2.837986	0.961536	-0.000114
 801	7.9600e+01	8.1303	26.445258	0.000405	4.054266	1.373622	-0.000162
 802	7.9700e+01	8.0837	26.324144	0.000304	3.040699	1.030217	-0.000122
 803	7.9799e+01	8.0436	26.186881	0.000345	3.446126	1.167579	-0.000138
 804	7.9898e+01	8.0067	26.057693	0.000324	3.243413	1.098898	-0.000130
 805	7.9998e+01	7.9762	25.900244	0.000395	3.952909	1.339282	-0.000158
 806	8.0097e+01	7.9233	25.726647	0.000436	4.358336	1.476644	-0.000174
 807	8.0197e+01	7.8848	25.561125	0.000416	4.155623	1.407963	-0.000166
 808	8.0296e+01	7.8431	25.423862	0.000345	3.446126	1.167579	-0.000138
 809	8.0396e+01	7.8174	25.274488	0.000375	3.750196	1.270601	-0.000150
 810	8.0496e+01	7.7693	25.161448	0.000284	2.837986	0.961536	-0.000114
 811	8.0595e+01	7.7244	25.020149	0.000355	3.547483	1.201920	-0.000142
 812	8.0695e+01	7.6827	24.882886	0.000345	3.446126	1.167579	-0.000138
 813	8.0794e+01	7.6378	24.806181	0.000193	1.925776	0.652471	-0.000077
 814	8.0894e+01	7.6089	24.636621	0.000426	4.256979	1.442304	-0.000170
 815	8.0993e+01	7.5656	24.507432	0.000324	3.243413	1.098898	-0.000130
 816	8.1093e+01	7.5206	24.337873	0.000426	4.256979	1.442304	-0.000170
 817	8.1192e+01	7.4918	24.240982	0.000243	2.432560	0.824173	-0.000097
 818	8.1291e+01	7.4501	24.119867	0.000304	3.040699	1.030217	-0.000122
 819	8.1391e+01	7.4019	23.962419	0.000395	3.952909	1.339282	-0.000158
 820	8.1490e+01	7.3602	23.809008	0.000385	3.851553	1.304941	-0.000154
 821	8.1590e+01	7.3249	23.655597	0.000385	3.851553	1.304941	-0.000154
 822	8.1689e+01	7.2880	23.546594	0.000274	2.736630	0.927195	-0.000110
 823	8.1789e+01	7.2479	23.381072	0.000416	4.155623	1.407963	-0.000166
 824	8.1888e+01	7.2142	23.223623	0.000395	3.952909	1.339282	-0.000158
 825	8.1988e+01	7.1693	23.090398	0.000334	3.344769	1.133239	-0.000134
 826	8.2088e+01	7.1324	22.928912	0.000405	4.054266	1.373622	-0.000162
 827	8.2187e+01	7.0859	22.803761	0.000314	3.142056	1.064557	-0.000126
 828	8.2287e+01	7.0458	22.622090	0.000456	4.561049	1.545325	-0.000183
 829	8.2386e+01	7.0073	22.509050	0.000284	2.837986	0.961536	-0.000114
 830	8.2486e+01	6.9768	22.363713	0.000365	3.648839	1.236260	-0.000146
 831	8.2585e+01	6.9239	22.282971	0.000203	2.027133	0.686811	-0.000081
 832	8.2684e+01	6.8918	22.169931	0.000284	2.837986	0.961536	-0.000114
 833	8.2784e+01	6.8485	22.004408	0.000416	4.155623	1.407963	-0.000166
 834	8.2883e+01	6.8132	21.907517	0.000243	2.432560	0.824173	-0.000097
 835	8.2983e+01	6.7699	21.741995	0.000416	4.155623	1.407963	-0.000166
 836	8.3082e+01	6.7394	21.620880	0.000304	3.040699	1.030217	-0.000122
 837	8.3182e+01	6.6897	21.475544	0.000365	3.648839	1.236260	-0.000146
 838	8.3281e+01	6.6495	21.314058	0.000405	4.054266	1.373622	-0.000162
 839	8.3381e+01	6.6078	21.172758	0.000355	3.547483	1.201920	-0.000142
 840	8.3481e+01	6.5645	21.019347	0.000385	3.851553	1.304941	-0.000154
 841	8.3580e+01	6.5340	20.886122	0.000334	3.344769	1.133239	-0.000134
 842	8.3680e+01	6.4875	20.765008	0.000304	3.040699	1.030217	-0.000122
 843	8.3779e+01	6.4538	20.619671	0.000365	3.648839	1.236260	-0.000146
 844	8.3879e+01	6.4105	20.470297	0.000375	3.750196	1.270601	-0.000150
 845	8.3978e+01	6.3816	20.300737	0.000426	4.256979	1.442304	-0.000170
 846	8.4078e+01	6.3367	20.143289	0.000395	3.952909	1.339282	-0.000158
 847	8.4177e+01	6.2934	19.985840	0.000395	3.952909	1.339282	-0.000158
 848	8.4276e+01	6.2565	19.832429	0.000385	3.851553	1.304941	-0.000154
 849	8.4376e+01	6.2148	19.719390	0.000284	2.837986	0.961536	-0.000114
 850	8.4475e+01	6.1731	19.594238	0.000314	3.142056	1.064557	-0.000126
 851	8.4575e+01	6.1282	19.477161	0.000294	2.939343	0.995876	-0.000118
 852	8.4674e+01	6.0849	19.339899	0.000345	3.446126	1.167579	-0.000138
 853	8.4774e+01	6.0608	19.230896	0.000274	2.736630	0.927195	-0.000110
 854	8.4874e+01	6.0271	19.105745	0.000314	3.142056	1.064557	-0.000126
 855	8.4973e+01	5.9774	18.940222	0.000416	4.155623	1.407963	-0.000166
 856	8.5073e+01	5.9421	18.839294	0.000253	2.533916	0.858514	-0.000101
 857	8.5172e+01	5.8956	18.710106	0.000324	3.243413	1.098898	-0.000130
 858	8.5272e+01	5.8538	18.504212	0.000517	5.169189	1.751369	-0.000207
 859	8.5371e+01	5.8153	18.366949	0.000345	3.446126	1.167579	-0.000138
 860	8.5471e+01	5.7801	18.225649	0.000355	3.547483	1.201920	-0.000142
 861	8.5570e+01	5.7351	18.092424	0.000334	3.344769	1.133239	-0.000134
 862	8.5669e+01	5.6998	17.959198	0.000334	3.344769	1.133239	-0.000134
 863	8.5769e+01	5.6645	17.830010	0.000324	3.243413	1.098898	-0.000130
 864	8.5868e+01	5.6228	17.628153	0.000507	5.067832	1.717028	-0.000203
 865	8.5968e+01	5.5763	17.543373	0.000213	2.128490	0.721152	-0.000085
 866	8.6067e+01	5.5490	17.361702	0.000456	4.561049	1.545325	-0.000183
 867	8.6167e+01	5.4993	17.212328	0.000375	3.750196	1.270601	-0.000150
 868	8.6266e+01	5.4544	17.087177	0.000314	3.142056	1.064557	-0.000126
 869	8.6366e+01	5.4223	16.994323	0.000233	2.331203	0.789833	-0.000093
 870	8.6466e+01	5.3806	16.893394	0.000253	2.533916	0.858514	-0.000101
 871	8.6565e+01	5.3341	16.731909	0.000405	4.054266	1.373622	-0.000162
 872	8.6665e+01	5.2892	16.578498	0.000385	3.851553	1.304941	-0.000154
 873	8.6764e+01	5.2507	16.429124	0.000375	3.750196	1.270601	-0.000150
 874	8.6864e+01	5.2122	16.344344	0.000213	2.128490	0.721152	-0.000085
 875	8.6963e+01	5.1817	16.207081	0.000345	3.446126	1.167579	-0.000138
 876	8.7063e+01	5.1351	16.085967	0.000304	3.040699	1.030217	-0.000122
 877	8.7162e+01	5.0918	15.867962	0.000547	5.473259	1.854390	-0.000219
 878	8.7261e+01	5.0614	15.787219	0.000203	2.027133	0.686811	-0.000081
 879	8.7361e+01	5.0148	15.649957	0.000345	3.446126	1.167579	-0.000138
 880	8.7460e+01	4.9763	15.476360	0.000436	4.358336	1.476644	-0.000174
 881	8.7560e+01	4.9298	15.363320	0.000284	2.837986	0.961536	-0.000114
 882	8.7659e+01	4.8977	15.209909	0.000385	3.851553	1.304941	-0.000154
 883	8.7759e+01	4.8672	15.020164	0.000476	4.763762	1.614006	-0.000191
 884	8.7859e+01	4.8223	14.846567	0.000436	4.358336	1.476644	-0.000174
 885	8.7958e+01	4.7774	14.713341	0.000334	3.344769	1.133239	-0.000134
 886	8.8058e+01	4.7453	14.604339	0.000274	2.736630	0.927195	-0.000110
 887	8.8157e+01	4.7004	14.515522	0.000223	2.229846	0.755492	-0.000089
 888	8.8257e+01	4.6491	14.390370	0.000314	3.142056	1.064557	-0.000126
 889	8.8356e+01	4.6170	14.240996	0.000375	3.750196	1.270601	-0.000150
 890	8.8456e+01	4.5817	14.103734	0.000345	3.446126	1.167579	-0.000138
 891	8.8555e+01	4.5432	14.006842	0.000243	2.432560	0.824173	-0.000097
 892	8.8654e+01	4.4967	13.853431	0.000385	3.851553	1.304941	-0.000154
 893	8.8754e+01	4.4614	13.740391	0.000284	2.837986	0.961536	-0.000114
 894	8.8853e+01	4.4261	13.607166	0.000334	3.344769	1.133239	-0.000134
 895	8.8953e+01	4.3747	13.502200	0.000264	2.635273	0.892855	-0.000105
 896	8.9052e+01	4.3411	13.312455	0.000476	4.763762	1.614006	-0.000191
 897	8.9152e+01	4.2993	13.199415	0.000284	2.837986	0.961536	-0.000114
 898	8.9251e+01	4.2576	13.050041	0.000375	3.750196	1.270601	-0.000150
 899	8.9351e+01	4.2191	12.912779	0.000345	3.446126	1.167579	-0.000138
 900	8.9451e+01	4.1742	12.767442	0.000365	3.648839	1.236260	-0.000146
 901	8.9550e+01	4.1421	12.626142	0.000355	3.547483	1.201920	-0.000142
 902	8.9650e+01	4.0988	12.488879	0.000345	3.446126	1.167579	-0.000138
 903	8.9749e+01	4.0571	12.331431	0.000395	3.952909	1.339282	-0.000158
 904	8.9849e+01	4.0186	12.210317	0.000304	3.040699	1.030217	-0.000122
 905	8.9948e+01	3.9865	12.077092	0.000334	3.344769	1.133239	-0.000134
 906	9.0047e+01	3.9448	11.951940	0.000314	3.142056	1.064557	-0.000126
 907	9.0147e+01	3.9063	11.814678	0.000345	3.446126	1.167579	-0.000138
 908	9.0246e+01	3.8534	11.677415	0.000345	3.446126	1.167579	-0.000138
 909	9.0346e+01	3.8277	11.564375	0.000284	2.837986	0.961536	-0.000114
 910	9.0445e+01	3.7812	11.435187	0.000324	3.243413	1.098898	-0.000130
 911	9.0545e+01	3.7443	11.289850	0.000365	3.648839	1.236260	-0.000146
 912	9.0644e+01	3.7010	11.136439	0.000385	3.851553	1.304941	-0.000154
 913	9.0744e+01	3.6689	11.035511	0.000253	2.533916	0.858514	-0.000101
 914	9.0844e+01	3.6208	10.890174	0.000365	3.648839	1.236260	-0.000146
 915	9.0943e+01	3.5742	10.736762	0.000385	3.851553	1.304941	-0.000154
 916	9.1043e+01	3.5438	10.591426	0.000365	3.648839	1.236260	-0.000146
 917	9.1142e+01	3.5165	10.466274	0.000314	3.142056	1.064557	-0.000126
 918	9.1242e+01	3.4587	10.337086	0.000324	3.243413	1.098898	-0.000130
 919	9.1341e+01	3.4266	10.203861	0.000334	3.344769	1.133239	-0.000134
 920	9.1441e+01	3.3833	10.022189	0.000456	4.561049	1.545325	-0.000183
 921	9.1540e+01	3.3545	9.876853	0.000365	3.648839	1.236260	-0.000146
 922	9.1639e+01	3.3095	9.719404	0.000395	3.952909	1.339282	-0.000158
 923	9.1739e+01	3.2662	9.622513	0.000243	2.432560	0.824173	-0.000097
 924	9.1838e+01	3.2341	9.469102	0.000385	3.851553	1.304941	-0.000154
 925	9.1938e+01	3.1892	9.356062	0.000284	2.837986	0.961536	-0.000114
 926	9.2037e+01	3.1427	9.202651	0.000385	3.851553	1.304941	-0.000154
 927	9.2137e+01	3.1058	9.033091	0.000426	4.256979	1.442304	-0.000170
 928	9.2237e+01	3.0721	8.899866	0.000334	3.344769	1.133239	-0.000134
 929	9.2336e+01	3.0256	8.786826	0.000284	2.837986	0.961536	-0.000114
 930	9.2436e+01	2.9871	8.673786	0.000284	2.837986	0.961536	-0.000114
 931	9.2535e+01	2.9422	8.520375	0.000385	3.851553	1.304941	-0.000154
 932	9.2635e+01	2.9133	8.403298	0.000294	2.939343	0.995876	-0.000118
 933	9.2734e+01	2.8652	8.237775	0.000416	4.155623	1.407963	-0.000166
 934	9.2834e+01	2.8202	8.088401	0.000375	3.750196	1.270601	-0.000150
 935	9.2933e+01	2.7914	7.983436	0.000264	2.635273	0.892855	-0.000105
 936	9.3032e+01	2.7513	7.878470	0.000264	2.635273	0.892855	-0.000105
 937	9.3132e+01	2.7095	7.729096	0.000375	3.750196	1.270601	-0.000150
 938	9.3231e+01	2.6743	7.587797	0.000355	3.547483	1.201920	-0.000142
 939	9.3331e+01	2.6325	7.434385	0.000385	3.851553	1.304941	-0.000154
 940	9.3430e+01	2.5924	7.276937	0.000395	3.952909	1.339282	-0.000158
 941	9.3530e+01	2.5475	7.127563	0.000375	3.750196	1.270601	-0.000150
 942	9.3629e+01	2.5106	7.026635	0.000253	2.533916	0.858514	-0.000101
 943	9.3729e+01	2.4705	6.857075	0.000426	4.256979	1.442304	-0.000170
 944	9.3829e+01	2.4352	6.723850	0.000334	3.344769	1.133239	-0.000134
 945	9.3928e+01	2.3855	6.582550	0.000355	3.547483	1.201920	-0.000142
 946	9.4028e+01	2.3486	6.449324	0.000334	3.344769	1.133239	-0.000134
 947	9.4127e+01	2.3085	6.287839	0.000405	4.054266	1.373622	-0.000162
 948	9.4227e+01	2.2684	6.154613	0.000334	3.344769	1.133239	-0.000134
 949	9.4326e+01	2.2315	6.017351	0.000345	3.446126	1.167579	-0.000138
 950	9.4425e+01	2.1930	5.872014	0.000365	3.648839	1.236260	-0.000146
 951	9.4525e+01	2.1465	5.746863	0.000314	3.142056	1.064557	-0.000126
 952	9.4624e+01	2.1064	5.593452	0.000385	3.851553	1.304941	-0.000154
 953	9.4724e+01	2.0663	5.464263	0.000324	3.243413	1.098898	-0.000130
 954	9.4823e+01	2.0310	5.318926	0.000365	3.648839	1.236260	-0.000146
 955	9.4923e+01	1.9828	5.185701	0.000334	3.344769	1.133239	-0.000134
 956	9.5022e+01	1.9556	5.016141	0.000426	4.256979	1.442304	-0.000170
 957	9.5122e+01	1.9235	4.911176	0.000264	2.635273	0.892855	-0.000105
 958	9.5222e+01	1.8705	4.773913	0.000345	3.446126	1.167579	-0.000138
 959	9.5321e+01	1.8368	4.592242	0.000456	4.561049	1.545325	-0.000183
 960	9.5421e+01	1.8032	4.487276	0.000264	2.635273	0.892855	-0.000105
 961	9.5520e+01	1.7438	4.337902	0.000375	3.750196	1.270601	-0.000150
 962	9.5620e+01	1.7133	4.188528	0.000375	3.750196	1.270601	-0.000150
 963	9.5719e+01	1.6764	4.051266	0.000345	3.446126	1.167579	-0.000138
 964	9.5819e+01	1.6331	3.885743	0.000416	4.155623	1.407963	-0.000166
 965	9.5918e+01	1.5930	3.772703	0.000284	2.837986	0.961536	-0.000114
 966	9.6017e+01	1.5465	3.603144	0.000426	4.256979	1.442304	-0.000170
 967	9.6117e+01	1.5096	3.445695	0.000395	3.952909	1.339282	-0.000158
 968	9.6216e+01	1.4743	3.381101	0.000162	1.621706	0.549449	-0.000065
 969	9.6316e+01	1.4294	3.191356	0.000476	4.763762	1.614006	-0.000191
 970	9.6415e+01	1.3957	3.050056	0.000355	3.547483	1.201920	-0.000142
 971	9.6515e+01	1.3460	2.892608	0.000395	3.952909	1.339282	-0.000158
 972	9.6615e+01	1.3139	2.771494	0.000304	3.040699	1.030217	-0.000122
 973	9.6714e+01	1.2706	2.634231	0.000345	3.446126	1.167579	-0.000138
 974	9.6814e+01	1.2385	2.496968	0.000345	3.446126	1.167579	-0.000138
 975	9.6913e+01	1.1887	2.327409	0.000426	4.256979	1.442304	-0.000170
 976	9.7013e+01	1.1454	2.230517	0.000243	2.432560	0.824173	-0.000097
 977	9.7112e+01	1.1182	2.040772	0.000476	4.763762	1.614006	-0.000191
 978	9.7212e+01	1.0700	1.968104	0.000182	1.824420	0.618130	-0.000073
 979	9.7311e+01	1.0460	1.818730	0.000375	3.750196	1.270601	-0.000150
 980	9.7410e+01	0.9946	1.633021	0.000466	4.662406	1.579666	-0.000187
 981	9.7510e+01	0.9593	1.503833	0.000324	3.243413	1.098898	-0.000130
 982	9.7609e+01	0.9112	1.326199	0.000446	4.459693	1.510985	-0.000179
 983	9.7709e+01	0.8759	1.209122	0.000294	2.939343	0.995876	-0.000118
 984	9.7808e+01	0.8326	1.051674	0.000395	3.952909	1.339282	-0.000158
 985	9.7908e+01	0.7973	0.902300	0.000375	3.750196	1.270601	-0.000150
 986	9.8007e+01	0.7604	0.756963	0.000365	3.648839	1.236260	-0.000146
 987	9.8107e+01	0.7123	0.611626	0.000365	3.648839	1.236260	-0.000146
 988	9.8207e+01	0.6674	0.474363	0.000345	3.446126	1.167579	-0.000138
 989	9.8306e+01	0.6337	0.357287	0.000294	2.939343	0.995876	-0.000118
 990	9.8406e+01	0.6048	0.199838	0.000395	3.952909	1.339282	-0.000158
 991	9.8505e+01	0.5519	0.054501	0.000365	3.648839	1.236260	-0.000146
 992	9.8605e+01	0.5053	-0.102947	0.000395	3.952909	1.339282	-0.000158
 993	9.8704e+01	0.4700	-0.236172	0.000334	3.344769	1.133239	-0.000134
 994	9.8803e+01	0.4315	-0.421881	0.000466	4.662406	1.579666	-0.000187
 995	9.8903e+01	0.3946	-0.494549	0.000182	1.824420	0.618130	-0.000073
 996	9.9002e+01	0.3577	-0.660072	0.000416	4.155623	1.407963	-0.000166
 997	9.9102e+01	0.3192	-0.789260	0.000324	3.243413	1.098898	-0.000130
 998	9.9201e+01	0.2872	-0.878077	0.000223	2.229846	0.755492	-0.000089
 999	9.9301e+01	0.2342	-1.075897	0.000497	4.966476	1.682688	-0.000199
1000	9.9400e+01	0.1909	-1.221234	0.000365	3.648839	1.236260	-0.000146
1001	9.9500e+01	0.1524	-1.350422	0.000324	3.243413	1.098898	-0.000130
1002	9.9600e+01	0.1107	-1.524019	0.000436	4.358336	1.476644	-0.000174
1003	9.9699e+01	0.0754	-1.665318	0.000355	3.547483	1.201920	-0.000142
1004	9.9799e+01	0.0353	-1.782395	0.000294	2.939343	0.995876	-0.000118
1005	9.9898e+01	0.0112	-1.879287	0.000243	2.432560	0.824173	-0.000097
1006	9.9998e+01	-0.0289	-2.064995	0.000466	4.662406	1.579666	-0.000187
1007	1.0010e+02	-0.0818	-2.202258	0.000345	3.446126	1.167579	-0.000138
1008	1.0020e+02	-0.1171	-2.343557	0.000355	3.547483	1.201920	-0.000142
1009	1.0030e+02	-0.1668	-2.456597	0.000284	2.837986	0.961536	-0.000114
1010	1.0040e+02	-0.1957	-2.605971	0.000375	3.750196	1.270601	-0.000150
1011	1.0050e+02	-0.2326	-2.755345	0.000375	3.750196	1.270601	-0.000150
1012	1.0059e+02	-0.2759	-2.864348	0.000274	2.736630	0.927195	-0.000110
1013	1.0069e+02	-0.3096	-3.013722	0.000375	3.750196	1.270601	-0.000150
1014	1.0079e+02	-0.3481	-3.134836	0.000304	3.040699	1.030217	-0.000122
1015	1.0089e+02	-0.3898	-3.255950	0.000304	3.040699	1.030217	-0.000122
1016	1.0099e+02	-0.4315	-3.441658	0.000466	4.662406	1.579666	-0.000187
1017	1.0109e+02	-0.4716	-3.570847	0.000324	3.243413	1.098898	-0.000130
1018	1.0119e+02	-0.5085	-3.744443	0.000436	4.358336	1.476644	-0.000174
1019	1.0129e+02	-0.5567	-3.881706	0.000345	3.446126	1.167579	-0.000138
1020	1.0139e+02	-0.5855	-4.059340	0.000446	4.459693	1.510985	-0.000179
1021	1.0149e+02	-0.6289	-4.140083	0.000203	2.027133	0.686811	-0.000081
1022	1.0159e+02	-0.6706	-4.345977	0.000517	5.169189	1.751369	-0.000207
1023	1.0169e+02	-0.7139	-4.374237	0.000071	0.709497	0.240384	-0.000028
1024	1.0179e+02	-0.7620	-4.576093	0.000507	5.067832	1.717028	-0.000203
1025	1.0189e+02	-0.7925	-4.721430	0.000365	3.648839	1.236260	-0.000146
1026	1.0199e+02	-0.8310	-4.878879	0.000395	3.952909	1.339282	-0.000158
1027	1.0209e+02	-0.8743	-5.004030	0.000314	3.142056	1.064557	-0.000126
1028	1.0219e+02	-0.9064	-5.137255	0.000334	3.344769	1.133239	-0.000134
1029	1.0229e+02	-0.9497	-5.306815	0.000426	4.256979	1.442304	-0.000170
1030	1.0239e+02	-0.9994	-5.395632	0.000223	2.229846	0.755492	-0.000089
1031	1.0248e+02	-1.0283	-5.577303	0.000456	4.561049	1.545325	-0.000183
1032	1.0258e+02	-1.0748	-5.674194	0.000243	2.432560	0.824173	-0.000097
1033	1.0268e+02	-1.1069	-5.811457	0.000345	3.446126	1.167579	-0.000138
1034	1.0278e+02	-1.1518	-5.944682	0.000334	3.344769	1.133239	-0.000134
1035	1.0288e+02	-1.1871	-6.138465	0.000487	4.865119	1.648347	-0.000195
1036	1.0298e+02	-1.2272	-6.211133	0.000182	1.824420	0.618130	-0.000073
1037	1.0308e+02	-1.2738	-6.376656	0.000416	4.155623	1.407963	-0.000166
1038	1.0318e+02	-1.3123	-6.501807	0.000314	3.142056	1.064557	-0.000126
1039	1.0328e+02	-1.3492	-6.655218	0.000385	3.851553	1.304941	-0.000154
1040	1.0338e+02	-1.3925	-6.772295	0.000294	2.939343	0.995876	-0.000118
1041	1.0348e+02	-1.4246	-6.929743	0.000395	3.952909	1.339282	-0.000158
1042	1.0358e+02	-1.4775	-7.062969	0.000334	3.344769	1.133239	-0.000134
1043	1.0368e+02	-1.5064	-7.220417	0.000395	3.952909	1.339282	-0.000158
1044	1.0378e+02	-1.5513	-7.313271	0.000233	2.331203	0.789833	-0.000093
1045	1.0388e+02	-1.5962	-7.442460	0.000324	3.243413	1.098898	-0.000130
1046	1.0398e+02	-1.6219	-7.607982	0.000416	4.155623	1.407963	-0.000166
1047	1.0408e+02	-1.6796	-7.769468	0.000405	4.054266	1.373622	-0.000162
1048	1.0418e+02	-1.7181	-7.898656	0.000324	3.243413	1.098898	-0.000130
1049	1.0428e+02	-1.7422	-8.015733	0.000294	2.939343	0.995876	-0.000118
1050	1.0438e+02	-1.7855	-8.132810	0.000294	2.939343	0.995876	-0.000118
1051	1.0447e+02	-1.8240	-8.266035	0.000334	3.344769	1.133239	-0.000134
1052	1.0457e+02	-1.8705	-8.415409	0.000375	3.750196	1.270601	-0.000150
1053	1.0467e+02	-1.9074	-8.504226	0.000223	2.229846	0.755492	-0.000089
1054	1.0477e+02	-1.9475	-8.698009	0.000487	4.865119	1.648347	-0.000195
1055	1.0487e+02	-1.9828	-8.847383	0.000375	3.750196	1.270601	-0.000150
1056	1.0497e+02	-2.0261	-8.928126	0.000203	2.027133	0.686811	-0.000081
1057	1.0507e+02	-2.0775	-9.117871	0.000476	4.763762	1.614006	-0.000191
1058	1.0517e+02	-2.1112	-9.226874	0.000274	2.736630	0.927195	-0.000110
1059	1.0527e+02	-2.1400	-9.352025	0.000314	3.142056	1.064557	-0.000126
1060	1.0537e+02	-2.1898	-9.493325	0.000355	3.547483	1.201920	-0.000142
1061	1.0547e+02	-2.2299	-9.626550	0.000334	3.344769	1.133239	-0.000134
1062	1.0557e+02	-2.2620	-9.751701	0.000314	3.142056	1.064557	-0.000126
1063	1.0567e+02	-2.3053	-9.905113	0.000385	3.851553	1.304941	-0.000154
1064	1.0577e+02	-2.3598	-10.038338	0.000334	3.344769	1.133239	-0.000134
1065	1.0587e+02	-2.3823	-10.139266	0.000253	2.533916	0.858514	-0.000101
1066	1.0597e+02	-2.4288	-10.292678	0.000385	3.851553	1.304941	-0.000154
1067	1.0607e+02	-2.4769	-10.413792	0.000304	3.040699	1.030217	-0.000122
1068	1.0617e+02	-2.5058	-10.563166	0.000375	3.750196	1.270601	-0.000150
1069	1.0627e+02	-2.5459	-10.668131	0.000264	2.635273	0.892855	-0.000105
1070	1.0637e+02	-2.5876	-10.817505	0.000375	3.750196	1.270601	-0.000150
1071	1.0647e+02	-2.6293	-10.958805	0.000355	3.547483	1.201920	-0.000142
1072	1.0656e+02	-2.6646	-11.051659	0.000233	2.331203	0.789833	-0.000093
1073	1.0666e+02	-2.7128	-11.192959	0.000355	3.547483	1.201920	-0.000142
1074	1.0676e+02	-2.7400	-11.338296	0.000365	3.648839	1.236260	-0.000146
1075	1.0686e+02	-2.7914	-11.483633	0.000365	3.648839	1.236260	-0.000146
1076	1.0696e+02	-2.8234	-11.645118	0.000405	4.054266	1.373622	-0.000162
1077	1.0706e+02	-2.8539	-11.754121	0.000274	2.736630	0.927195	-0.000110
1078	1.0716e+02	-2.9021	-11.846975	0.000233	2.331203	0.789833	-0.000093
1079	1.0726e+02	-2.9454	-11.976163	0.000324	3.243413	1.098898	-0.000130
1080	1.0736e+02	-2.9823	-12.121500	0.000365	3.648839	1.236260	-0.000146
1081	1.0746e+02	-3.0320	-12.266837	0.000365	3.648839	1.236260	-0.000146
1082	1.0756e+02	-3.0689	-12.375840	0.000274	2.736630	0.927195	-0.000110
1083	1.0766e+02	-3.1090	-12.561548	0.000466	4.662406	1.579666	-0.000187
1084	1.0776e+02	-3.1427	-12.670551	0.000274	2.736630	0.927195	-0.000110
1085	1.0786e+02	-3.1940	-12.803776	0.000334	3.344769	1.133239	-0.000134
1086	1.0796e+02	-3.2181	-12.932964	0.000324	3.243413	1.098898	-0.000130
1087	1.0806e+02	-3.2598	-13.094450	0.000405	4.054266	1.373622	-0.000162
1088	1.0816e+02	-3.2983	-13.231712	0.000345	3.446126	1.167579	-0.000138
1089	1.0826e+02	-3.3416	-13.356864	0.000314	3.142056	1.064557	-0.000126
1090	1.0836e+02	-3.3897	-13.506238	0.000375	3.750196	1.270601	-0.000150
1091	1.0845e+02	-3.4186	-13.591017	0.000213	2.128490	0.721152	-0.000085
1092	1.0855e+02	-3.4555	-13.691946	0.000253	2.533916	0.858514	-0.000101
1093	1.0865e+02	-3.5004	-13.845357	0.000385	3.851553	1.304941	-0.000154
1094	1.0875e+02	-3.5454	-13.982620	0.000345	3.446126	1.167579	-0.000138
1095	1.0885e+02	-3.5967	-14.148142	0.000416	4.155623	1.407963	-0.000166
1096	1.0895e+02	-3.6159	-14.245033	0.000243	2.432560	0.824173	-0.000097
1097	1.0905e+02	-3.6625	-14.345962	0.000253	2.533916	0.858514	-0.000101
1098	1.0915e+02	-3.6978	-14.499373	0.000385	3.851553	1.304941	-0.000154
1099	1.0925e+02	-3.7347	-14.677007	0.000446	4.459693	1.510985	-0.000179
1100	1.0935e+02	-3.7732	-14.798121	0.000304	3.040699	1.030217	-0.000122
1101	1.0945e+02	-3.8181	-14.899049	0.000253	2.533916	0.858514	-0.000101
1102	1.0955e+02	-3.8534	-15.032275	0.000334	3.344769	1.133239	-0.000134
1103	1.0965e+02	-3.9015	-15.197797	0.000416	4.155623	1.407963	-0.000166
1104	1.0975e+02	-3.9448	-15.318912	0.000304	3.040699	1.030217	-0.000122
1105	1.0985e+02	-3.9833	-15.415803	0.000243	2.432560	0.824173	-0.000097
1106	1.0995e+02	-4.0234	-15.601511	0.000466	4.662406	1.579666	-0.000187
1107	1.1005e+02	-4.0491	-15.718588	0.000294	2.939343	0.995876	-0.000118
1108	1.1015e+02	-4.1004	-15.859888	0.000355	3.547483	1.201920	-0.000142
1109	1.1025e+02	-4.1325	-15.964853	0.000264	2.635273	0.892855	-0.000105
1110	1.1035e+02	-4.1758	-16.126339	0.000405	4.054266	1.373622	-0.000162
1111	1.1044e+02	-4.2175	-16.227267	0.000253	2.533916	0.858514	-0.000101
1112	1.1054e+02	-4.2544	-16.384715	0.000395	3.952909	1.339282	-0.000158
1113	1.1064e+02	-4.2977	-16.485644	0.000253	2.533916	0.858514	-0.000101
1114	1.1074e+02	-4.3314	-16.602721	0.000294	2.939343	0.995876	-0.000118
1115	1.1084e+02	-4.3828	-16.776318	0.000436	4.358336	1.476644	-0.000174
1116	1.1094e+02	-4.4213	-16.893394	0.000294	2.939343	0.995876	-0.000118
1117	1.1104e+02	-4.4598	-16.998360	0.000264	2.635273	0.892855	-0.000105
1118	1.1114e+02	-4.5063	-17.159845	0.000405	4.054266	1.373622	-0.000162
1119	1.1124e+02	-4.5480	-17.240588	0.000203	2.027133	0.686811	-0.000081
1120	1.1134e+02	-4.5769	-17.418222	0.000446	4.459693	1.510985	-0.000179
1121	1.1144e+02	-4.6106	-17.523188	0.000264	2.635273	0.892855	-0.000105
1122	1.1154e+02	-4.6539	-17.684673	0.000405	4.054266	1.373622	-0.000162
1123	1.1164e+02	-4.6972	-17.834047	0.000375	3.750196	1.270601	-0.000150
1124	1.1174e+02	-4.7389	-17.951124	0.000294	2.939343	0.995876	-0.000118
1125	1.1184e+02	-4.7646	-18.064164	0.000284	2.837986	0.961536	-0.000114
1126	1.1194e+02	-4.8191	-18.237761	0.000436	4.358336	1.476644	-0.000174
1127	1.1204e+02	-4.8608	-18.350800	0.000284	2.837986	0.961536	-0.000114
1128	1.1214e+02	-4.8977	-18.479989	0.000324	3.243413	1.098898	-0.000130
1129	1.1224e+02	-4.9298	-18.625326	0.000365	3.648839	1.236260	-0.000146
1130	1.1234e+02	-4.9731	-18.754514	0.000324	3.243413	1.098898	-0.000130
1131	1.1244e+02	-5.0212	-18.871591	0.000294	2.939343	0.995876	-0.000118
1132	1.1253e+02	-5.0565	-19.008854	0.000345	3.446126	1.167579	-0.000138
1133	1.1263e+02	-5.1015	-19.178413	0.000426	4.256979	1.442304	-0.000170
1134	1.1273e+02	-5.1384	-19.251082	0.000182	1.824420	0.618130	-0.000073
1135	1.1283e+02	-5.1785	-19.404493	0.000385	3.851553	1.304941	-0.000154
1136	1.1293e+02	-5.2202	-19.561941	0.000395	3.952909	1.339282	-0.000158
1137	1.1303e+02	-5.2587	-19.650758	0.000223	2.229846	0.755492	-0.000089
1138	1.1313e+02	-5.2988	-19.796095	0.000365	3.648839	1.236260	-0.000146
1139	1.1323e+02	-5.3421	-19.913172	0.000294	2.939343	0.995876	-0.000118
1140	1.1333e+02	-5.3790	-20.078695	0.000416	4.155623	1.407963	-0.000166
1141	1.1343e+02	-5.4223	-20.163474	0.000213	2.128490	0.721152	-0.000085
1142	1.1353e+02	-5.4496	-20.312848	0.000375	3.750196	1.270601	-0.000150
1143	1.1363e+02	-5.4881	-20.506631	0.000487	4.865119	1.648347	-0.000195
1144	1.1373e+02	-5.5378	-20.631782	0.000314	3.142056	1.064557	-0.000126
1145	1.1383e+02	-5.5795	-20.777119	0.000365	3.648839	1.236260	-0.000146
1146	1.1393e+02	-5.6116	-20.837676	0.000152	1.520350	0.515108	-0.000061
1147	1.1403e+02	-5.6501	-21.047607	0.000527	5.270546	1.785709	-0.000211
1148	1.1413e+02	-5.6950	-21.112201	0.000162	1.621706	0.549449	-0.000065
1149	1.1423e+02	-5.7399	-21.269650	0.000395	3.952909	1.339282	-0.000158
1150	1.1433e+02	-5.7688	-21.390764	0.000304	3.040699	1.030217	-0.000122
1151	1.1442e+02	-5.8073	-21.544175	0.000385	3.851553	1.304941	-0.000154
1152	1.1452e+02	-5.8490	-21.661252	0.000294	2.939343	0.995876	-0.000118
1153	1.1462e+02	-5.8988	-21.774292	0.000284	2.837986	0.961536	-0.000114
1154	1.1472e+02	-5.9341	-21.919628	0.000365	3.648839	1.236260	-0.000146
1155	1.1482e+02	-5.9790	-22.060928	0.000355	3.547483	1.201920	-0.000142
1156	1.1492e+02	-6.0062	-22.206265	0.000365	3.648839	1.236260	-0.000146
1157	1.1502e+02	-6.0560	-22.327379	0.000304	3.040699	1.030217	-0.000122
1158	1.1512e+02	-6.0816	-22.440419	0.000284	2.837986	0.961536	-0.000114
1159	1.1522e+02	-6.1314	-22.573644	0.000334	3.344769	1.133239	-0.000134
1160	1.1532e+02	-6.1747	-22.763390	0.000476	4.763762	1.614006	-0.000191
1161	1.1542e+02	-6.2164	-22.872393	0.000274	2.736630	0.927195	-0.000110
1162	1.1552e+02	-6.2517	-23.001581	0.000324	3.243413	1.098898	-0.000130
1163	1.1562e+02	-6.2854	-23.183252	0.000456	4.561049	1.545325	-0.000183
1164	1.1572e+02	-6.3399	-23.255920	0.000182	1.824420	0.618130	-0.000073
1165	1.1582e+02	-6.3688	-23.397220	0.000355	3.547483	1.201920	-0.000142
1166	1.1592e+02	-6.4121	-23.554668	0.000395	3.952909	1.339282	-0.000158
1167	1.1602e+02	-6.4458	-23.663671	0.000274	2.736630	0.927195	-0.000110
1168	1.1612e+02	-6.4827	-23.776711	0.000284	2.837986	0.961536	-0.000114
1169	1.1622e+02	-6.5244	-23.905899	0.000324	3.243413	1.098898	-0.000130
1170	1.1632e+02	-6.5725	-24.022976	0.000294	2.939343	0.995876	-0.000118
1171	1.1642e+02	-6.6110	-24.156202	0.000334	3.344769	1.133239	-0.000134
1172	1.1651e+02	-6.6511	-24.273279	0.000294	2.939343	0.995876	-0.000118
1173	1.1661e+02	-6.6864	-24.430727	0.000395	3.952909	1.339282	-0.000158
1174	1.1671e+02	-6.7282	-24.519544	0.000223	2.229846	0.755492	-0.000089
1175	1.1681e+02	-6.7650	-24.656807	0.000345	3.446126	1.167579	-0.000138
1176	1.1691e+02	-6.8052	-24.826366	0.000426	4.256979	1.442304	-0.000170
1177	1.1701e+02	-6.8485	-24.915183	0.000223	2.229846	0.755492	-0.000089
1178	1.1711e+02	-6.8918	-25.060520	0.000365	3.648839	1.236260	-0.000146
1179	1.1721e+02	-6.9239	-25.209894	0.000375	3.750196	1.270601	-0.000150
1180	1.1731e+02	-6.9688	-25.302748	0.000233	2.331203	0.789833	-0.000093
1181	1.1741e+02	-7.0041	-25.407714	0.000264	2.635273	0.892855	-0.000105
1182	1.1751e+02	-7.0378	-25.561125	0.000385	3.851553	1.304941	-0.000154
1183	1.1761e+02	-7.0779	-25.710499	0.000375	3.750196	1.270601	-0.000150
1184	1.1771e+02	-7.1228	-25.827576	0.000294	2.939343	0.995876	-0.000118
1185	1.1781e+02	-7.1741	-25.940616	0.000284	2.837986	0.961536	-0.000114
1186	1.1791e+02	-7.2014	-26.102101	0.000405	4.054266	1.373622	-0.000162
1187	1.1801e+02	-7.2399	-26.190918	0.000223	2.229846	0.755492	-0.000089
1188	1.1811e+02	-7.2784	-26.364515	0.000436	4.358336	1.476644	-0.000174
1189	1.1821e+02	-7.3378	-26.481592	0.000294	2.939343	0.995876	-0.000118
1190	1.1831e+02	-7.3666	-26.622892	0.000355	3.547483	1.201920	-0.000142
1191	1.1841e+02	-7.3955	-26.760154	0.000345	3.446126	1.167579	-0.000138
1192	1.1850e+02	-7.4436	-26.865120	0.000264	2.635273	0.892855	-0.000105
1193	1.1860e+02	-7.4886	-26.998345	0.000334	3.344769	1.133239	-0.000134
1194	1.1870e+02	-7.5255	-27.143682	0.000365	3.648839	1.236260	-0.000146
1195	1.1880e+02	-7.5607	-27.204239	0.000152	1.520350	0.515108	-0.000061
1196	1.1890e+02	-7.5993	-27.369762	0.000416	4.155623	1.407963	-0.000166
1197	1.1900e+02	-7.6538	-27.486839	0.000294	2.939343	0.995876	-0.000118
1198	1.1910e+02	-7.6763	-27.611990	0.000314	3.142056	1.064557	-0.000126
1199	1.1920e+02	-7.7180	-27.672547	0.000152	1.520350	0.515108	-0.000061
1200	1.1930e+02	-7.7661	-27.829995	0.000395	3.952909	1.339282	-0.000158
1201	1.1940e+02	-7.7982	-27.975332	0.000365	3.648839	1.236260	-0.000146
1202	1.1950e+02	-7.8383	-28.116632	0.000355	3.547483	1.201920	-0.000142
1203	1.1960e+02	-7.8736	-28.249857	0.000334	3.344769	1.133239	-0.000134
1204	1.1970e+02	-7.9185	-28.366934	0.000294	2.939343	0.995876	-0.000118
1205	1.1980e+02	-7.9666	-28.479974	0.000284	2.837986	0.961536	-0.000114
1206	1.1990e+02	-7.9955	-28.629348	0.000375	3.750196	1.270601	-0.000150
1207	1.2000e+02	-8.0308	-28.734314	0.000264	2.635273	0.892855	-0.000105
1208	1.2010e+02	-8.0773	-28.863502	0.000324	3.243413	1.098898	-0.000130
1209	1.2020e+02	-8.1206	-28.996727	0.000334	3.344769	1.133239	-0.000134
1210	1.2030e+02	-8.1591	-29.121879	0.000314	3.142056	1.064557	-0.000126
1211	1.2039e+02	-8.2057	-29.255104	0.000334	3.344769	1.133239	-0.000134
1212	1.2049e+02	-8.2361	-29.323735	0.000172	1.723063	0.583790	-0.000069
1213	1.2059e+02	-8.2794	-29.497332	0.000436	4.358336	1.476644	-0.000174
1214	1.2069e+02	-8.3163	-29.618446	0.000304	3.040699	1.030217	-0.000122
1215	1.2079e+02	-8.3548	-29.715338	0.000243	2.432560	0.824173	-0.000097
1216	1.2089e+02	-8.4078	-29.812229	0.000243	2.432560	0.824173	-0.000097
1217	1.2099e+02	-8.4463	-29.957566	0.000365	3.648839	1.236260	-0.000146
1218	1.2109e+02	-8.4832	-30.038308	0.000203	2.027133	0.686811	-0.000081
1219	1.2119e+02	-8.5249	-30.183645	0.000365	3.648839	1.236260	-0.000146
1220	1.2129e+02	-8.5522	-30.324945	0.000355	3.547483	1.201920	-0.000142
1221	1.2139e+02	-8.5875	-30.425873	0.000253	2.533916	0.858514	-0.000101
1222	1.2149e+02	-8.6308	-30.575248	0.000375	3.750196	1.270601	-0.000150
1223	1.2159e+02	-8.6661	-30.696362	0.000304	3.040699	1.030217	-0.000122
1224	1.2169e+02	-8.7174	-30.869958	0.000436	4.358336	1.476644	-0.000174
1225	1.2179e+02	-8.7559	-30.918404	0.000122	1.216280	0.412087	-0.000049
1226	1.2189e+02	-8.7976	-31.055667	0.000345	3.446126	1.167579	-0.000138
1227	1.2199e+02	-8.8345	-31.221189	0.000416	4.155623	1.407963	-0.000166
1228	1.2209e+02	-8.8810	-31.301932	0.000203	2.027133	0.686811	-0.000081
1229	1.2219e+02	-8.9147	-31.370563	0.000172	1.723063	0.583790	-0.000069
1230	1.2229e+02	-8.9500	-31.568383	0.000497	4.966476	1.682688	-0.000199
1231	1.2239e+02	-8.9917	-31.657200	0.000223	2.229846	0.755492	-0.000089
1232	1.2248e+02	-9.0334	-31.786388	0.000324	3.243413	1.098898	-0.000130
1233	1.2258e+02	-9.0832	-31.899428	0.000284	2.837986	0.961536	-0.000114
1234	1.2268e+02	-9.1233	-31.988245	0.000223	2.229846	0.755492	-0.000089
1235	1.2278e+02	-9.1505	-32.105322	0.000294	2.939343	0.995876	-0.000118
1236	1.2288e+02	-9.1987	-32.186065	0.000203	2.027133	0.686811	-0.000081
1237	1.2298e+02	-9.2372	-32.311216	0.000314	3.142056	1.064557	-0.000126
1238	1.2308e+02	-9.2773	-32.464627	0.000385	3.851553	1.304941	-0.000154
1239	1.2318e+02	-9.3126	-32.525184	0.000152	1.520350	0.515108	-0.000061
1240	1.2328e+02	-9.3463	-32.690707	0.000416	4.155623	1.407963	-0.000166
1241	1.2338e+02	-9.3992	-32.840081	0.000375	3.750196	1.270601	-0.000150
1242	1.2348e+02	-9.4313	-32.953120	0.000284	2.837986	0.961536	-0.000114
1243	1.2358e+02	-9.4778	-33.098457	0.000365	3.648839	1.236260	-0.000146
1244	1.2368e+02	-9.5163	-33.183237	0.000213	2.128490	0.721152	-0.000085
1245	1.2378e+02	-9.5644	-33.284166	0.000253	2.533916	0.858514	-0.000101
1246	1.2388e+02	-9.6013	-33.425465	0.000355	3.547483	1.201920	-0.000142
1247	1.2398e+02	-9.6430	-33.481985	0.000142	1.418993	0.480768	-0.000057
1248	1.2408e+02	-9.6751	-33.675768	0.000487	4.865119	1.648347	-0.000195
1249	1.2418e+02	-9.7120	-33.780733	0.000264	2.635273	0.892855	-0.000105
1250	1.2428e+02	-9.7602	-33.917996	0.000345	3.446126	1.167579	-0.000138
1251	1.2438e+02	-9.7922	-34.010850	0.000233	2.331203	0.789833	-0.000093
1252	1.2447e+02	-9.8420	-34.131964	0.000304	3.040699	1.030217	-0.000122
1253	1.2457e+02	-9.8708	-34.253078	0.000304	3.040699	1.030217	-0.000122
1254	1.2467e+02	-9.9158	-34.370155	0.000294	2.939343	0.995876	-0.000118
1255	1.2477e+02	-9.9623	-34.503381	0.000334	3.344769	1.133239	-0.000134
1256	1.2487e+02	-9.9896	-34.543752	0.000101	1.013566	0.343406	-0.000041
1257	1.2497e+02	-10.0393	-34.709275	0.000416	4.155623	1.407963	-0.000166
1258	1.2507e+02	-10.0617	-34.870760	0.000405	4.054266	1.373622	-0.000162
1259	1.2517e+02	-10.1147	-34.943428	0.000182	1.824420	0.618130	-0.000073
1260	1.2527e+02	-10.1516	-35.076654	0.000334	3.344769	1.133239	-0.000134
1261	1.2537e+02	-10.1805	-35.205842	0.000324	3.243413	1.098898	-0.000130
1262	1.2547e+02	-10.2334	-35.282548	0.000193	1.925776	0.652471	-0.000077
1263	1.2557e+02	-10.2719	-35.395588	0.000284	2.837986	0.961536	-0.000114
1264	1.2567e+02	-10.3136	-35.569184	0.000436	4.358336	1.476644	-0.000174
1265	1.2577e+02	-10.3505	-35.662039	0.000233	2.331203	0.789833	-0.000093
1266	1.2587e+02	-10.3938	-35.779115	0.000294	2.939343	0.995876	-0.000118
1267	1.2597e+02	-10.4420	-35.904267	0.000314	3.142056	1.064557	-0.000126
1268	1.2607e+02	-10.4756	-36.001158	0.000243	2.432560	0.824173	-0.000097
1269	1.2617e+02	-10.5109	-36.122272	0.000304	3.040699	1.030217	-0.000122
1270	1.2627e+02	-10.5639	-36.259535	0.000345	3.446126	1.167579	-0.000138
1271	1.2636e+02	-10.5863	-36.336240	0.000193	1.925776	0.652471	-0.000077
1272	1.2646e+02	-10.6393	-36.469466	0.000334	3.344769	1.133239	-0.000134
1273	1.2656e+02	-10.6633	-36.574431	0.000264	2.635273	0.892855	-0.000105
1274	1.2666e+02	-10.7083	-36.659211	0.000213	2.128490	0.721152	-0.000085
1275	1.2676e+02	-10.7468	-36.756102	0.000243	2.432560	0.824173	-0.000097
1276	1.2686e+02	-10.7981	-36.953922	0.000497	4.966476	1.682688	-0.000199
1277	1.2696e+02	-10.8302	-37.058888	0.000264	2.635273	0.892855	-0.000105
1278	1.2706e+02	-10.8735	-37.151742	0.000233	2.331203	0.789833	-0.000093
1279	1.2716e+02	-10.9056	-37.240559	0.000223	2.229846	0.755492	-0.000089
1280	1.2726e+02	-10.9505	-37.402044	0.000405	4.054266	1.373622	-0.000162
1281	1.2736e+02	-10.9986	-37.482787	0.000203	2.027133	0.686811	-0.000081
1282	1.2746e+02	-11.0291	-37.664458	0.000456	4.561049	1.545325	-0.000183
1283	1.2756e+02	-11.0708	-37.737126	0.000182	1.824420	0.618130	-0.000073
1284	1.2766e+02	-11.1093	-37.866315	0.000324	3.243413	1.098898	-0.000130
1285	1.2776e+02	-11.1574	-37.983392	0.000294	2.939343	0.995876	-0.000118
1286	1.2786e+02	-11.1895	-38.088357	0.000264	2.635273	0.892855	-0.000105
1287	1.2796e+02	-11.2248	-38.229657	0.000355	3.547483	1.201920	-0.000142
1288	1.2806e+02	-11.2762	-38.350771	0.000304	3.040699	1.030217	-0.000122
1289	1.2816e+02	-11.3147	-38.467848	0.000294	2.939343	0.995876	-0.000118
1290	1.2826e+02	-11.3483	-38.584925	0.000294	2.939343	0.995876	-0.000118
1291	1.2835e+02	-11.3868	-38.685853	0.000253	2.533916	0.858514	-0.000101
1292	1.2845e+02	-11.4286	-38.806967	0.000304	3.040699	1.030217	-0.000122
1293	1.2855e+02	-11.4638	-38.924044	0.000294	2.939343	0.995876	-0.000118
1294	1.2865e+02	-11.5072	-39.057270	0.000334	3.344769	1.133239	-0.000134
1295	1.2875e+02	-11.5425	-39.178384	0.000304	3.040699	1.030217	-0.000122
1296	1.2885e+02	-11.5826	-39.279312	0.000253	2.533916	0.858514	-0.000101
1297	1.2895e+02	-11.6227	-39.412538	0.000334	3.344769	1.133239	-0.000134
1298	1.2905e+02	-11.6548	-39.477132	0.000162	1.621706	0.549449	-0.000065
1299	1.2915e+02	-11.7157	-39.642654	0.000416	4.155623	1.407963	-0.000166
1300	1.2925e+02	-11.7494	-39.735509	0.000233	2.331203	0.789833	-0.000093
1301	1.2935e+02	-11.7831	-39.864697	0.000324	3.243413	1.098898	-0.000130
1302	1.2945e+02	-11.8360	-40.001959	0.000345	3.446126	1.167579	-0.000138
1303	1.2955e+02	-11.8745	-40.106925	0.000264	2.635273	0.892855	-0.000105
1304	1.2965e+02	-11.9098	-40.244188	0.000345	3.446126	1.167579	-0.000138
1305	1.2975e+02	-11.9499	-40.320893	0.000193	1.925776	0.652471	-0.000077
1306	1.2985e+02	-11.9916	-40.462193	0.000355	3.547483	1.201920	-0.000142
1307	1.2995e+02	-12.0317	-40.551010	0.000223	2.229846	0.755492	-0.000089
1308	1.3005e+02	-12.0638	-40.664050	0.000284	2.837986	0.961536	-0.000114
1309	1.3015e+02	-12.1039	-40.825535	0.000405	4.054266	1.373622	-0.000162
1310	1.3025e+02	-12.1473	-40.914352	0.000223	2.229846	0.755492	-0.000089
1311	1.3034e+02	-12.1761	-41.019318	0.000264	2.635273	0.892855	-0.000105
1312	1.3044e+02	-12.2243	-41.164655	0.000365	3.648839	1.236260	-0.000146
1313	1.3054e+02	-12.2595	-41.281731	0.000294	2.939343	0.995876	-0.000118
1314	1.3064e+02	-12.3061	-41.390734	0.000274	2.736630	0.927195	-0.000110
1315	1.3074e+02	-12.3494	-41.487625	0.000243	2.432560	0.824173	-0.000097
1316	1.3084e+02	-12.3911	-41.632962	0.000365	3.648839	1.236260	-0.000146
1317	1.3094e+02	-12.4248	-41.774262	0.000355	3.547483	1.201920	-0.000142
1318	1.3104e+02	-12.4633	-41.895376	0.000304	3.040699	1.030217	-0.000122
1319	1.3114e+02	-12.5082	-42.008416	0.000284	2.837986	0.961536	-0.000114
1320	1.3124e+02	-12.5499	-42.129530	0.000304	3.040699	1.030217	-0.000122
1321	1.3134e+02	-12.5900	-42.218347	0.000223	2.229846	0.755492	-0.000089
1322	1.3144e+02	-12.6189	-42.367721	0.000375	3.750196	1.270601	-0.000150
1323	1.3154e+02	-12.6558	-42.480761	0.000284	2.837986	0.961536	-0.000114
1324	1.3164e+02	-12.7007	-42.597838	0.000294	2.939343	0.995876	-0.000118
1325	1.3174e+02	-12.7456	-42.743175	0.000365	3.648839	1.236260	-0.000146
1326	1.3184e+02	-12.7873	-42.884474	0.000355	3.547483	1.201920	-0.000142
1327	1.3194e+02	-12.8242	-42.981366	0.000243	2.432560	0.824173	-0.000097
1328	1.3204e+02	-12.8579	-43.066145	0.000213	2.128490	0.721152	-0.000085
1329	1.3214e+02	-12.8964	-43.159000	0.000233	2.331203	0.789833	-0.000093
1330	1.3224e+02	-12.9349	-43.284151	0.000314	3.142056	1.064557	-0.000126
1331	1.3234e+02	-12.9686	-43.393153	0.000274	2.736630	0.927195	-0.000110
1332	1.3243e+02	-13.0232	-43.514268	0.000304	3.040699	1.030217	-0.000122
1333	1.3253e+02	-13.0601	-43.643456	0.000324	3.243413	1.098898	-0.000130
1334	1.3263e+02	-13.0970	-43.756496	0.000284	2.837986	0.961536	-0.000114
1335	1.3273e+02	-13.1403	-43.837238	0.000203	2.027133	0.686811	-0.000081
1336	1.3283e+02	-13.1804	-43.978538	0.000355	3.547483	1.201920	-0.000142
1337	1.3293e+02	-13.2253	-44.103689	0.000314	3.142056	1.064557	-0.000126
1338	1.3303e+02	-13.2606	-44.208655	0.000264	2.635273	0.892855	-0.000105
1339	1.3313e+02	-13.3071	-44.321695	0.000284	2.837986	0.961536	-0.000114
1340	1.3323e+02	-13.3360	-44.410512	0.000223	2.229846	0.755492	-0.000089
1341	1.3333e+02	-13.3729	-44.531626	0.000304	3.040699	1.030217	-0.000122
1342	1.3343e+02	-13.4306	-44.672926	0.000355	3.547483	1.201920	-0.000142
1343	1.3353e+02	-13.4611	-44.790002	0.000294	2.939343	0.995876	-0.000118
1344	1.3363e+02	-13.5028	-44.911117	0.000304	3.040699	1.030217	-0.000122
1345	1.3373e+02	-13.5381	-45.028193	0.000294	2.939343	0.995876	-0.000118
1346	1.3383e+02	-13.5702	-45.133159	0.000264	2.635273	0.892855	-0.000105
1347	1.3393e+02	-13.6055	-45.234087	0.000253	2.533916	0.858514	-0.000101
1348	1.3403e+02	-13.6472	-45.383461	0.000375	3.750196	1.270601	-0.000150
1349	1.3413e+02	-13.6937	-45.452093	0.000172	1.723063	0.583790	-0.000069
1350	1.3423e+02	-13.7290	-45.565133	0.000284	2.837986	0.961536	-0.000114
1351	1.3432e+02	-13.7788	-45.730655	0.000416	4.155623	1.407963	-0.000166
1352	1.3442e+02	-13.8157	-45.835621	0.000264	2.635273	0.892855	-0.000105
1353	1.3452e+02	-13.8622	-45.940586	0.000264	2.635273	0.892855	-0.000105
1354	1.3462e+02	-13.8975	-46.045552	0.000264	2.635273	0.892855	-0.000105
1355	1.3472e+02	-13.9312	-46.178777	0.000334	3.344769	1.133239	-0.000134
1356	1.3482e+02	-13.9825	-46.275668	0.000243	2.432560	0.824173	-0.000097
1357	1.3492e+02	-14.0194	-46.412931	0.000345	3.446126	1.167579	-0.000138
1358	1.3502e+02	-14.0547	-46.538082	0.000314	3.142056	1.064557	-0.000126
1359	1.3512e+02	-14.0996	-46.622862	0.000213	2.128490	0.721152	-0.000085
1360	1.3522e+02	-14.1477	-46.756088	0.000334	3.344769	1.133239	-0.000134
1361	1.3532e+02	-14.1766	-46.865090	0.000274	2.736630	0.927195	-0.000110
1362	1.3542e+02	-14.2071	-46.949870	0.000213	2.128490	0.721152	-0.000085
1363	1.3552e+02	-14.2568	-47.062910	0.000284	2.837986	0.961536	-0.000114
1364	1.3562e+02	-14.3049	-47.159801	0.000243	2.432560	0.824173	-0.000097
1365	1.3572e+02	-14.3258	-47.313212	0.000385	3.851553	1.304941	-0.000154
1366	1.3582e+02	-14.3643	-47.414141	0.000253	2.533916	0.858514	-0.000101
1367	1.3592e+02	-14.4172	-47.519106	0.000264	2.635273	0.892855	-0.000105
1368	1.3602e+02	-14.4477	-47.636183	0.000294	2.939343	0.995876	-0.000118
1369	1.3612e+02	-14.4958	-47.720963	0.000213	2.128490	0.721152	-0.000085
1370	1.3622e+02	-14.5311	-47.846114	0.000314	3.142056	1.064557	-0.000126
1371	1.3631e+02	-14.5729	-47.947043	0.000253	2.533916	0.858514	-0.000101
1372	1.3641e+02	-14.6194	-48.072194	0.000314	3.142056	1.064557	-0.000126
1373	1.3651e+02	-14.6563	-48.189271	0.000294	2.939343	0.995876	-0.000118
1374	1.3661e+02	-14.6932	-48.306348	0.000294	2.939343	0.995876	-0.000118
1375	1.3671e+02	-14.7365	-48.383053	0.000193	1.925776	0.652471	-0.000077
1376	1.3681e+02	-14.7734	-48.512242	0.000324	3.243413	1.098898	-0.000130
1377	1.3691e+02	-14.8167	-48.665653	0.000385	3.851553	1.304941	-0.000154
1378	1.3701e+02	-14.8632	-48.750433	0.000213	2.128490	0.721152	-0.000085
1379	1.3711e+02	-14.8905	-48.883658	0.000334	3.344769	1.133239	-0.000134
1380	1.3721e+02	-14.9338	-48.960364	0.000193	1.925776	0.652471	-0.000077
1381	1.3731e+02	-14.9803	-49.085515	0.000314	3.142056	1.064557	-0.000126
1382	1.3741e+02	-15.0140	-49.190480	0.000264	2.635273	0.892855	-0.000105
1383	1.3751e+02	-15.0573	-49.291409	0.000253	2.533916	0.858514	-0.000101
1384	1.3761e+02	-15.0798	-49.376189	0.000213	2.128490	0.721152	-0.000085
1385	1.3771e+02	-15.1359	-49.505377	0.000324	3.243413	1.098898	-0.000130
1386	1.3781e+02	-15.1776	-49.630528	0.000314	3.142056	1.064557	-0.000126
1387	1.3791e+02	-15.2081	-49.707234	0.000193	1.925776	0.652471	-0.000077
1388	1.3801e+02	-15.2482	-49.852571	0.000365	3.648839	1.236260	-0.000146
1389	1.3811e+02	-15.3044	-49.909091	0.000142	1.418993	0.480768	-0.000057
1390	1.3821e+02	-15.3252	-50.050390	0.000355	3.547483	1.201920	-0.000142
1391	1.3831e+02	-15.3702	-50.171504	0.000304	3.040699	1.030217	-0.000122
1392	1.3840e+02	-15.4151	-50.264359	0.000233	2.331203	0.789833	-0.000093
1393	1.3850e+02	-15.4568	-50.381435	0.000294	2.939343	0.995876	-0.000118
1394	1.3860e+02	-15.4857	-50.462178	0.000203	2.027133	0.686811	-0.000081
1395	1.3870e+02	-15.5322	-50.591367	0.000324	3.243413	1.098898	-0.000130
1396	1.3880e+02	-15.5723	-50.672109	0.000203	2.027133	0.686811	-0.000081
1397	1.3890e+02	-15.6204	-50.797260	0.000314	3.142056	1.064557	-0.000126
1398	1.3900e+02	-15.6525	-50.882040	0.000213	2.128490	0.721152	-0.000085
1399	1.3910e+02	-15.6974	-50.982969	0.000253	2.533916	0.858514	-0.000101
1400	1.3920e+02	-15.7311	-51.087934	0.000264	2.635273	0.892855	-0.000105
1401	1.3930e+02	-15.7712	-51.213085	0.000314	3.142056	1.064557	-0.000126
1402	1.3940e+02	-15.8129	-51.318051	0.000264	2.635273	0.892855	-0.000105
1403	1.3950e+02	-15.8530	-51.443202	0.000314	3.142056	1.064557	-0.000126
1404	1.3960e+02	-15.8883	-51.556242	0.000284	2.837986	0.961536	-0.000114
1405	1.3970e+02	-15.9348	-51.673319	0.000294	2.939343	0.995876	-0.000118
1406	1.3980e+02	-15.9717	-51.693505	0.000051	0.506783	0.171703	-0.000020
1407	1.3990e+02	-16.0086	-51.846916	0.000385	3.851553	1.304941	-0.000154
1408	1.4000e+02	-16.0471	-51.931696	0.000213	2.128490	0.721152	-0.000085
1409	1.4010e+02	-16.0889	-52.101255	0.000426	4.256979	1.442304	-0.000170
1410	1.4020e+02	-16.1290	-52.177961	0.000193	1.925776	0.652471	-0.000077
1411	1.4029e+02	-16.1594	-52.291001	0.000284	2.837986	0.961536	-0.000114
1412	1.4039e+02	-16.2124	-52.400003	0.000274	2.736630	0.927195	-0.000110
1413	1.4049e+02	-16.2557	-52.476709	0.000193	1.925776	0.652471	-0.000077
1414	1.4059e+02	-16.2942	-52.561489	0.000213	2.128490	0.721152	-0.000085
1415	1.4069e+02	-16.3295	-52.662417	0.000253	2.533916	0.858514	-0.000101
1416	1.4079e+02	-16.3696	-52.791605	0.000324	3.243413	1.098898	-0.000130
1417	1.4089e+02	-16.4081	-52.940980	0.000375	3.750196	1.270601	-0.000150
1418	1.4099e+02	-16.4466	-53.037871	0.000243	2.432560	0.824173	-0.000097
1419	1.4109e+02	-16.4995	-53.171096	0.000334	3.344769	1.133239	-0.000134
1420	1.4119e+02	-16.5236	-53.263950	0.000233	2.331203	0.789833	-0.000093
1421	1.4129e+02	-16.5589	-53.368916	0.000264	2.635273	0.892855	-0.000105
1422	1.4139e+02	-16.6038	-53.481956	0.000284	2.837986	0.961536	-0.000114
1423	1.4149e+02	-16.6471	-53.562698	0.000203	2.027133	0.686811	-0.000081
1424	1.4159e+02	-16.6792	-53.647478	0.000213	2.128490	0.721152	-0.000085
1425	1.4169e+02	-16.7193	-53.800889	0.000385	3.851553	1.304941	-0.000154
1426	1.4179e+02	-16.7771	-53.909892	0.000274	2.736630	0.927195	-0.000110
1427	1.4189e+02	-16.8043	-53.998709	0.000223	2.229846	0.755492	-0.000089
1428	1.4199e+02	-16.8428	-54.115786	0.000294	2.939343	0.995876	-0.000118
1429	1.4209e+02	-16.8813	-54.236900	0.000304	3.040699	1.030217	-0.000122
1430	1.4219e+02	-16.9214	-54.333791	0.000243	2.432560	0.824173	-0.000097
1431	1.4228e+02	-16.9712	-54.418571	0.000213	2.128490	0.721152	-0.000085
1432	1.4238e+02	-16.9985	-54.543722	0.000314	3.142056	1.064557	-0.000126
1433	1.4248e+02	-17.0466	-54.636577	0.000233	2.331203	0.789833	-0.000093
1434	1.4258e+02	-17.0915	-54.822285	0.000466	4.662406	1.579666	-0.000187
1435	1.4268e+02	-17.1284	-54.858619	0.000091	0.912210	0.309065	-0.000037
1436	1.4278e+02	-17.1589	-54.971659	0.000284	2.837986	0.961536	-0.000114
1437	1.4288e+02	-17.2118	-55.088736	0.000294	2.939343	0.995876	-0.000118
1438	1.4298e+02	-17.2455	-55.177553	0.000223	2.229846	0.755492	-0.000089
1439	1.4308e+02	-17.2856	-55.322890	0.000365	3.648839	1.236260	-0.000146
1440	1.4318e+02	-17.3209	-55.427855	0.000264	2.635273	0.892855	-0.000105
1441	1.4328e+02	-17.3546	-55.496486	0.000172	1.723063	0.583790	-0.000069
1442	1.4338e+02	-17.3979	-55.625675	0.000324	3.243413	1.098898	-0.000130
1443	1.4348e+02	-17.4428	-55.738715	0.000284	2.837986	0.961536	-0.000114
1444	1.4358e+02	-17.4797	-55.843680	0.000264	2.635273	0.892855	-0.000105
1445	1.4368e+02	-17.5214	-56.001128	0.000395	3.952909	1.339282	-0.000158
1446	1.4378e+02	-17.5599	-56.057648	0.000142	1.418993	0.480768	-0.000057
1447	1.4388e+02	-17.6081	-56.178762	0.000304	3.040699	1.030217	-0.000122
1448	1.4398e+02	-17.6401	-56.243357	0.000162	1.621706	0.549449	-0.000065
1449	1.4408e+02	-17.6867	-56.429065	0.000466	4.662406	1.579666	-0.000187
1450	1.4418e+02	-17.7236	-56.554216	0.000314	3.142056	1.064557	-0.000126
1451	1.4428e+02	-17.7556	-56.606699	0.000132	1.317636	0.446427	-0.000053
1452	1.4437e+02	-17.7990	-56.727813	0.000304	3.040699	1.030217	-0.000122
1453	1.4447e+02	-17.8455	-56.804518	0.000193	1.925776	0.652471	-0.000077
1454	1.4457e+02	-17.8888	-56.961967	0.000395	3.952909	1.339282	-0.000158
1455	1.4467e+02	-17.9209	-57.115378	0.000385	3.851553	1.304941	-0.000154
1456	1.4477e+02	-17.9578	-57.188046	0.000182	1.824420	0.618130	-0.000073
1457	1.4487e+02	-18.0107	-57.341457	0.000385	3.851553	1.304941	-0.000154
1458	1.4497e+02	-18.0492	-57.389903	0.000122	1.216280	0.412087	-0.000049
1459	1.4507e+02	-18.0829	-57.551389	0.000405	4.054266	1.373622	-0.000162
1460	1.4517e+02	-18.1182	-57.672503	0.000304	3.040699	1.030217	-0.000122
1461	1.4527e+02	-18.1583	-57.757282	0.000213	2.128490	0.721152	-0.000085
1462	1.4537e+02	-18.2000	-57.878397	0.000304	3.040699	1.030217	-0.000122
1463	1.4547e+02	-18.2353	-57.991436	0.000284	2.837986	0.961536	-0.000114
1464	1.4557e+02	-18.2899	-58.112550	0.000304	3.040699	1.030217	-0.000122
1465	1.4567e+02	-18.3219	-58.265962	0.000385	3.851553	1.304941	-0.000154
1466	1.4577e+02	-18.3701	-58.346704	0.000203	2.027133	0.686811	-0.000081
1467	1.4587e+02	-18.4006	-58.455707	0.000274	2.736630	0.927195	-0.000110
1468	1.4597e+02	-18.4374	-58.588932	0.000334	3.344769	1.133239	-0.000134
1469	1.4607e+02	-18.4888	-58.714084	0.000314	3.142056	1.064557	-0.000126
1470	1.4617e+02	-18.5161	-58.798863	0.000213	2.128490	0.721152	-0.000085
1471	1.4626e+02	-18.5530	-58.919978	0.000304	3.040699	1.030217	-0.000122
1472	1.4636e+02	-18.5995	-59.041092	0.000304	3.040699	1.030217	-0.000122
1473	1.4646e+02	-18.6300	-59.202577	0.000405	4.054266	1.373622	-0.000162
1474	1.4656e+02	-18.6781	-59.331765	0.000324	3.243413	1.098898	-0.000130
1475	1.4666e+02	-18.7038	-59.436731	0.000264	2.635273	0.892855	-0.000105
1476	1.4676e+02	-18.7567	-59.573994	0.000345	3.446126	1.167579	-0.000138
1477	1.4686e+02	-18.8000	-59.634551	0.000152	1.520350	0.515108	-0.000061
1478	1.4696e+02	-18.8449	-59.779887	0.000365	3.648839	1.236260	-0.000146
1479	1.4706e+02	-18.8738	-59.909076	0.000324	3.243413	1.098898	-0.000130
1480	1.4716e+02	-18.9235	-59.977707	0.000172	1.723063	0.583790	-0.000069
1481	1.4726e+02	-18.9604	-60.179564	0.000507	5.067832	1.717028	-0.000203
1482	1.4736e+02	-18.9877	-60.272418	0.000233	2.331203	0.789833	-0.000093
1483	1.4746e+02	-19.0374	-60.369309	0.000243	2.432560	0.824173	-0.000097
1484	1.4756e+02	-19.0727	-60.546943	0.000446	4.459693	1.510985	-0.000179
1485	1.4766e+02	-19.1192	-60.659983	0.000284	2.837986	0.961536	-0.000114
1486	1.4776e+02	-19.1561	-60.773023	0.000284	2.837986	0.961536	-0.000114
1487	1.4786e+02	-19.2011	-60.873951	0.000253	2.533916	0.858514	-0.000101
1488	1.4796e+02	-19.2428	-60.991028	0.000294	2.939343	0.995876	-0.000118
1489	1.4806e+02	-19.2781	-61.120217	0.000324	3.243413	1.098898	-0.000130
1490	1.4816e+02	-19.3069	-61.313999	0.000487	4.865119	1.648347	-0.000195
1491	1.4825e+02	-19.3567	-61.386667	0.000182	1.824420	0.618130	-0.000073
1492	1.4835e+02	-19.3968	-61.523930	0.000345	3.446126	1.167579	-0.000138
1493	1.4845e+02	-19.4353	-61.705601	0.000456	4.561049	1.545325	-0.000183
1494	1.4855e+02	-19.4722	-61.766158	0.000152	1.520350	0.515108	-0.000061
1495	1.4865e+02	-19.5139	-61.915532	0.000375	3.750196	1.270601	-0.000150
1496	1.4875e+02	-19.5604	-62.048758	0.000334	3.344769	1.133239	-0.000134
1497	1.4885e+02	-19.5989	-62.202169	0.000385	3.851553	1.304941	-0.000154
1498	1.4895e+02	-19.6278	-62.311172	0.000274	2.736630	0.927195	-0.000110
1499	1.4905e+02	-19.6599	-62.432286	0.000304	3.040699	1.030217	-0.000122
1500	1.4915e+02	-19.7128	-62.557437	0.000314	3.142056	1.064557	-0.000126
1501	1.4925e+02	-19.7481	-62.714885	0.000395	3.952909	1.339282	-0.000158
1502	1.4935e+02	-19.7962	-62.844073	0.000324	3.243413	1.098898	-0.000130
1503	1.4945e+02	-19.8395	-62.949039	0.000264	2.635273	0.892855	-0.000105
1504	1.4955e+02	-19.8732	-63.078227	0.000324	3.243413	1.098898	-0.000130
1505	1.4965e+02	-19.9198	-63.207416	0.000324	3.243413	1.098898	-0.000130
1506	1.4975e+02	-19.9567	-63.336604	0.000324	3.243413	1.098898	-0.000130
1507	1.4985e+02	-19.9968	-63.485978	0.000375	3.750196	1.270601	-0.000150
1508	1.4995e+02	-19.9551	-63.445607	0.000101	1.013566	0.343406	0.000041
1509	1.5005e+02	-19.9198	-63.401198	0.000111	1.114923	0.377746	0.000045
1510	1.5015e+02	-19.8572	-63.352753	0.000122	1.216280	0.412087	0.000049
1511	1.5025e+02	-19.8299	-63.292196	0.000152	1.520350	0.515108	0.000061
1512	1.5034e+02	-19.7946	-63.259898	0.000081	0.810853	0.274724	0.000032
1513	1.5044e+02	-19.7577	-63.191267	0.000172	1.723063	0.583790	0.000069
1514	1.5054e+02	-19.7144	-63.090339	0.000253	2.533916	0.858514	0.000101
1515	1.5064e+02	-19.6759	-63.045930	0.000111	1.114923	0.377746	0.000045
1516	1.5074e+02	-19.6342	-62.985373	0.000152	1.520350	0.515108	0.000061
1517	1.5084e+02	-19.6037	-62.928853	0.000142	1.418993	0.480768	0.000057
1518	1.5094e+02	-19.5636	-62.827925	0.000253	2.533916	0.858514	0.000101
1519	1.5104e+02	-19.5011	-62.771405	0.000142	1.418993	0.480768	0.000057
1520	1.5114e+02	-19.4674	-62.735071	0.000091	0.912210	0.309065	0.000037
1521	1.5124e+02	-19.4417	-62.634142	0.000253	2.533916	0.858514	0.000101
1522	1.5134e+02	-19.3904	-62.577623	0.000142	1.418993	0.480768	0.000057
1523	1.5144e+02	-19.3551	-62.529177	0.000122	1.216280	0.412087	0.000049
1524	1.5154e+02	-19.3134	-62.448434	0.000203	2.027133	0.686811	0.000081
1525	1.5164e+02	-19.2781	-62.387877	0.000152	1.520350	0.515108	0.000061
1526	1.5174e+02	-19.2444	-62.286949	0.000253	2.533916	0.858514	0.000101
1527	1.5184e+02	-19.2075	-62.226392	0.000152	1.520350	0.515108	0.000061
1528	1.5194e+02	-19.1529	-62.173909	0.000132	1.317636	0.446427	0.000053
1529	1.5204e+02	-19.1096	-62.101240	0.000182	1.824420	0.618130	0.000073
1530	1.5214e+02	-19.0647	-62.008386	0.000233	2.331203	0.789833	0.000093
1531	1.5224e+02	-19.0294	-61.923607	0.000213	2.128490	0.721152	0.000085
1532	1.5233e+02	-18.9941	-61.863049	0.000152	1.520350	0.515108	0.000061
1533	1.5243e+02	-18.9620	-61.750010	0.000284	2.837986	0.961536	0.000114
1534	1.5253e+02	-18.9219	-61.685416	0.000162	1.621706	0.549449	0.000065
1535	1.5263e+02	-18.8850	-61.580450	0.000264	2.635273	0.892855	0.000105
1536	1.5273e+02	-18.8465	-61.540079	0.000101	1.013566	0.343406	0.000041
1537	1.5283e+02	-18.7952	-61.447225	0.000233	2.331203	0.789833	0.000093
1538	1.5293e+02	-18.7599	-61.374556	0.000182	1.824420	0.618130	0.000073
1539	1.5303e+02	-18.7198	-61.245368	0.000324	3.243413	1.098898	0.000130
1540	1.5313e+02	-18.6925	-61.168662	0.000193	1.925776	0.652471	0.000077
1541	1.5323e+02	-18.6428	-61.132328	0.000091	0.912210	0.309065	0.000037
1542	1.5333e+02	-18.6059	-61.019288	0.000284	2.837986	0.961536	0.000114
1543	1.5343e+02	-18.5642	-60.906248	0.000284	2.837986	0.961536	0.000114
1544	1.5353e+02	-18.5241	-60.821468	0.000213	2.128490	0.721152	0.000085
1545	1.5363e+02	-18.4856	-60.756874	0.000162	1.621706	0.549449	0.000065
1546	1.5373e+02	-18.4358	-60.724577	0.000081	0.810853	0.274724	0.000032
1547	1.5383e+02	-18.3973	-60.607500	0.000294	2.939343	0.995876	0.000118
1548	1.5393e+02	-18.3588	-60.546943	0.000152	1.520350	0.515108	0.000061
1549	1.5403e+02	-18.3139	-60.446015	0.000253	2.533916	0.858514	0.000101
1550	1.5413e+02	-18.2834	-60.345086	0.000253	2.533916	0.858514	0.000101
1551	1.5422e+02	-18.2449	-60.219935	0.000314	3.142056	1.064557	0.000126
1552	1.5432e+02	-18.2000	-60.102858	0.000294	2.939343	0.995876	0.000118
1553	1.5442e+02	-18.1631	-60.018078	0.000213	2.128490	0.721152	0.000085
1554	1.5452e+02	-18.1230	-59.965596	0.000132	1.317636	0.446427	0.000053
1555	1.5462e+02	-18.0813	-59.860630	0.000264	2.635273	0.892855	0.000105
1556	1.5472e+02	-18.0460	-59.812185	0.000122	1.216280	0.412087	0.000049
1557	1.5482e+02	-17.9979	-59.711256	0.000253	2.533916	0.858514	0.000101
1558	1.5492e+02	-17.9642	-59.622439	0.000223	2.229846	0.755492	0.000089
1559	1.5502e+02	-17.9257	-59.497288	0.000314	3.142056	1.064557	0.000126
1560	1.5512e+02	-17.8872	-59.432694	0.000162	1.621706	0.549449	0.000065
1561	1.5522e+02	-17.8455	-59.295431	0.000345	3.446126	1.167579	0.000138
1562	1.5532e+02	-17.7958	-59.246986	0.000122	1.216280	0.412087	0.000049
1563	1.5542e+02	-17.7653	-59.158169	0.000223	2.229846	0.755492	0.000089
1564	1.5552e+02	-17.7139	-59.101649	0.000142	1.418993	0.480768	0.000057
1565	1.5562e+02	-17.6738	-59.000720	0.000253	2.533916	0.858514	0.000101
1566	1.5572e+02	-17.6401	-58.883643	0.000294	2.939343	0.995876	0.000118
1567	1.5582e+02	-17.6000	-58.827123	0.000142	1.418993	0.480768	0.000057
1568	1.5592e+02	-17.5712	-58.710046	0.000294	2.939343	0.995876	0.000118
1569	1.5602e+02	-17.5230	-58.617192	0.000233	2.331203	0.789833	0.000093
1570	1.5612e+02	-17.4765	-58.520301	0.000243	2.432560	0.824173	0.000097
1571	1.5622e+02	-17.4492	-58.383038	0.000345	3.446126	1.167579	0.000138
1572	1.5631e+02	-17.4059	-58.269999	0.000284	2.837986	0.961536	0.000114
1573	1.5641e+02	-17.3610	-58.177145	0.000233	2.331203	0.789833	0.000093
1574	1.5651e+02	-17.3177	-58.104476	0.000182	1.824420	0.618130	0.000073
1575	1.5661e+02	-17.2888	-58.007585	0.000243	2.432560	0.824173	0.000097
1576	1.5671e+02	-17.2487	-57.886471	0.000304	3.040699	1.030217	0.000122
1577	1.5681e+02	-17.2022	-57.785542	0.000253	2.533916	0.858514	0.000101
1578	1.5691e+02	-17.1701	-57.733060	0.000132	1.317636	0.446427	0.000053
1579	1.5701e+02	-17.1236	-57.587723	0.000365	3.648839	1.236260	0.000146
1580	1.5711e+02	-17.0835	-57.539277	0.000122	1.216280	0.412087	0.000049
1581	1.5721e+02	-17.0482	-57.458534	0.000203	2.027133	0.686811	0.000081
1582	1.5731e+02	-16.9920	-57.381829	0.000193	1.925776	0.652471	0.000077
1583	1.5741e+02	-16.9616	-57.280900	0.000253	2.533916	0.858514	0.000101
1584	1.5751e+02	-16.9150	-57.212269	0.000172	1.723063	0.583790	0.000069
1585	1.5761e+02	-16.8846	-57.091155	0.000304	3.040699	1.030217	0.000122
1586	1.5771e+02	-16.8509	-57.006375	0.000213	2.128490	0.721152	0.000085
1587	1.5781e+02	-16.8059	-56.877187	0.000324	3.243413	1.098898	0.000130
1588	1.5791e+02	-16.7658	-56.804518	0.000182	1.824420	0.618130	0.000073
1589	1.5801e+02	-16.7273	-56.663219	0.000355	3.547483	1.201920	0.000142
1590	1.5811e+02	-16.6936	-56.586513	0.000193	1.925776	0.652471	0.000077
1591	1.5821e+02	-16.6503	-56.457325	0.000324	3.243413	1.098898	0.000130
1592	1.5830e+02	-16.6102	-56.384656	0.000182	1.824420	0.618130	0.000073
1593	1.5840e+02	-16.5637	-56.259505	0.000314	3.142056	1.064557	0.000126
1594	1.5850e+02	-16.5300	-56.186837	0.000182	1.824420	0.618130	0.000073
1595	1.5860e+02	-16.4867	-56.077834	0.000274	2.736630	0.927195	0.000110
1596	1.5870e+02	-16.4434	-55.984980	0.000233	2.331203	0.789833	0.000093
1597	1.5880e+02	-16.4017	-55.904237	0.000203	2.027133	0.686811	0.000081
1598	1.5890e+02	-16.3664	-55.787160	0.000294	2.939343	0.995876	0.000118
1599	1.5900e+02	-16.3199	-55.746789	0.000101	1.013566	0.343406	0.000041
1600	1.5910e+02	-16.2846	-55.625675	0.000304	3.040699	1.030217	0.000122
1601	1.5920e+02	-16.2413	-55.532821	0.000233	2.331203	0.789833	0.000093
1602	1.5930e+02	-16.2060	-55.423818	0.000274	2.736630	0.927195	0.000110
1603	1.5940e+02	-16.1675	-55.383447	0.000101	1.013566	0.343406	0.000041
1604	1.5950e+02	-16.1290	-55.242147	0.000355	3.547483	1.201920	0.000142
1605	1.5960e+02	-16.0856	-55.153330	0.000223	2.229846	0.755492	0.000089
1606	1.5970e+02	-16.0471	-55.044327	0.000274	2.736630	0.927195	0.000110
1607	1.5980e+02	-16.0086	-54.939362	0.000264	2.635273	0.892855	0.000105
1608	1.5990e+02	-15.9766	-54.789988	0.000375	3.750196	1.270601	0.000150
1609	1.6000e+02	-15.9316	-54.729431	0.000152	1.520350	0.515108	0.000061
1610	1.6010e+02	-15.8931	-54.596205	0.000334	3.344769	1.133239	0.000134
1611	1.6019e+02	-15.8610	-54.491240	0.000264	2.635273	0.892855	0.000105
1612	1.6029e+02	-15.8113	-54.382237	0.000274	2.736630	0.927195	0.000110
1613	1.6039e+02	-15.7728	-54.289383	0.000233	2.331203	0.789833	0.000093
1614	1.6049e+02	-15.7375	-54.200566	0.000223	2.229846	0.755492	0.000089
1615	1.6059e+02	-15.6910	-54.140009	0.000152	1.520350	0.515108	0.000061
1616	1.6069e+02	-15.6429	-53.974486	0.000416	4.155623	1.407963	0.000166
1617	1.6079e+02	-15.6092	-53.917966	0.000142	1.418993	0.480768	0.000057
1618	1.6089e+02	-15.5659	-53.825112	0.000233	2.331203	0.789833	0.000093
1619	1.6099e+02	-15.5370	-53.792815	0.000081	0.810853	0.274724	0.000032
1620	1.6109e+02	-15.4857	-53.695924	0.000243	2.432560	0.824173	0.000097
1621	1.6119e+02	-15.4472	-53.594995	0.000253	2.533916	0.858514	0.000101
1622	1.6129e+02	-15.4087	-53.490030	0.000264	2.635273	0.892855	0.000105
1623	1.6139e+02	-15.3718	-53.385064	0.000264	2.635273	0.892855	0.000105
1624	1.6149e+02	-15.3300	-53.235690	0.000375	3.750196	1.270601	0.000150
1625	1.6159e+02	-15.2980	-53.158985	0.000193	1.925776	0.652471	0.000077
1626	1.6169e+02	-15.2466	-53.054019	0.000264	2.635273	0.892855	0.000105
1627	1.6179e+02	-15.2113	-52.932905	0.000304	3.040699	1.030217	0.000122
1628	1.6189e+02	-15.1664	-52.836014	0.000243	2.432560	0.824173	0.000097
1629	1.6199e+02	-15.1359	-52.698751	0.000345	3.446126	1.167579	0.000138
1630	1.6209e+02	-15.0942	-52.686640	0.000030	0.304070	0.103022	0.000012
1631	1.6219e+02	-15.0541	-52.513043	0.000436	4.358336	1.476644	0.000174
1632	1.6228e+02	-15.0285	-52.448449	0.000162	1.621706	0.549449	0.000065
1633	1.6238e+02	-14.9787	-52.351558	0.000243	2.432560	0.824173	0.000097
1634	1.6248e+02	-14.9242	-52.206221	0.000365	3.648839	1.236260	0.000146
1635	1.6258e+02	-14.8793	-52.137589	0.000172	1.723063	0.583790	0.000069
1636	1.6268e+02	-14.8472	-52.085107	0.000132	1.317636	0.446427	0.000053
1637	1.6278e+02	-14.8135	-52.004364	0.000203	2.027133	0.686811	0.000081
1638	1.6288e+02	-14.7734	-51.915547	0.000223	2.229846	0.755492	0.000089
1639	1.6298e+02	-14.7301	-51.806544	0.000274	2.736630	0.927195	0.000110
1640	1.6308e+02	-14.6996	-51.689467	0.000294	2.939343	0.995876	0.000118
1641	1.6318e+02	-14.6547	-51.568353	0.000304	3.040699	1.030217	0.000122
1642	1.6328e+02	-14.6242	-51.491648	0.000193	1.925776	0.652471	0.000077
1643	1.6338e+02	-14.5729	-51.370534	0.000304	3.040699	1.030217	0.000122
1644	1.6348e+02	-14.5392	-51.273642	0.000243	2.432560	0.824173	0.000097
1645	1.6358e+02	-14.4991	-51.168677	0.000264	2.635273	0.892855	0.000105
1646	1.6368e+02	-14.4606	-51.059674	0.000274	2.736630	0.927195	0.000110
1647	1.6378e+02	-14.4204	-50.914337	0.000365	3.648839	1.236260	0.000146
1648	1.6388e+02	-14.3803	-50.853780	0.000152	1.520350	0.515108	0.000061
1649	1.6398e+02	-14.3418	-50.764963	0.000223	2.229846	0.755492	0.000089
1650	1.6408e+02	-14.2905	-50.672109	0.000233	2.331203	0.789833	0.000093
1651	1.6418e+02	-14.2584	-50.538884	0.000334	3.344769	1.133239	0.000134
1652	1.6427e+02	-14.2119	-50.470252	0.000172	1.723063	0.583790	0.000069
1653	1.6437e+02	-14.1686	-50.417770	0.000132	1.317636	0.446427	0.000053
1654	1.6447e+02	-14.1397	-50.296656	0.000304	3.040699	1.030217	0.000122
1655	1.6457e+02	-14.0932	-50.236099	0.000152	1.520350	0.515108	0.000061
1656	1.6467e+02	-14.0515	-50.106910	0.000324	3.243413	1.098898	0.000130
1657	1.6477e+02	-14.0178	-49.997908	0.000274	2.736630	0.927195	0.000110
1658	1.6487e+02	-13.9777	-49.973685	0.000061	0.608140	0.206043	0.000024
1659	1.6497e+02	-13.9456	-49.812199	0.000405	4.054266	1.373622	0.000162
1660	1.6507e+02	-13.8927	-49.739531	0.000182	1.824420	0.618130	0.000073
1661	1.6517e+02	-13.8654	-49.650714	0.000223	2.229846	0.755492	0.000089
1662	1.6527e+02	-13.8124	-49.513451	0.000345	3.446126	1.167579	0.000138
1663	1.6537e+02	-13.7772	-49.372152	0.000355	3.547483	1.201920	0.000142
1664	1.6547e+02	-13.7403	-49.275260	0.000243	2.432560	0.824173	0.000097
1665	1.6557e+02	-13.6969	-49.162220	0.000284	2.837986	0.961536	0.000114
1666	1.6567e+02	-13.6681	-49.069366	0.000233	2.331203	0.789833	0.000093
1667	1.6577e+02	-13.6231	-48.996698	0.000182	1.824420	0.618130	0.000073
1668	1.6587e+02	-13.5686	-48.859435	0.000345	3.446126	1.167579	0.000138
1669	1.6597e+02	-13.5349	-48.762544	0.000243	2.432560	0.824173	0.000097
1670	1.6607e+02	-13.4996	-48.665653	0.000243	2.432560	0.824173	0.000097
1671	1.6616e+02	-13.4547	-48.584910	0.000203	2.027133	0.686811	0.000081
1672	1.6626e+02	-13.4194	-48.496093	0.000223	2.229846	0.755492	0.000089
1673	1.6636e+02	-13.3793	-48.423425	0.000182	1.824420	0.618130	0.000073
1674	1.6646e+02	-13.3312	-48.294236	0.000324	3.243413	1.098898	0.000130
1675	1.6656e+02	-13.2975	-48.177159	0.000294	2.939343	0.995876	0.000118
1676	1.6666e+02	-13.2590	-48.068157	0.000274	2.736630	0.927195	0.000110
1677	1.6676e+02	-13.2285	-47.991451	0.000193	1.925776	0.652471	0.000077
1678	1.6686e+02	-13.1820	-47.882448	0.000274	2.736630	0.927195	0.000110
1679	1.6696e+02	-13.1403	-47.761334	0.000304	3.040699	1.030217	0.000122
1680	1.6706e+02	-13.0986	-47.628109	0.000334	3.344769	1.133239	0.000134
1681	1.6716e+02	-13.0585	-47.490846	0.000345	3.446126	1.167579	0.000138
1682	1.6726e+02	-13.0183	-47.438363	0.000132	1.317636	0.446427	0.000053
1683	1.6736e+02	-12.9686	-47.341472	0.000243	2.432560	0.824173	0.000097
1684	1.6746e+02	-12.9446	-47.232470	0.000274	2.736630	0.927195	0.000110
1685	1.6756e+02	-12.9012	-47.107318	0.000314	3.142056	1.064557	0.000126
1686	1.6766e+02	-12.8563	-47.006390	0.000253	2.533916	0.858514	0.000101
1687	1.6776e+02	-12.8194	-46.945833	0.000152	1.520350	0.515108	0.000061
1688	1.6786e+02	-12.7922	-46.848942	0.000243	2.432560	0.824173	0.000097
1689	1.6796e+02	-12.7424	-46.699568	0.000375	3.750196	1.270601	0.000150
1690	1.6806e+02	-12.7055	-46.647085	0.000132	1.317636	0.446427	0.000053
1691	1.6816e+02	-12.6574	-46.525971	0.000304	3.040699	1.030217	0.000122
1692	1.6825e+02	-12.6189	-46.449265	0.000193	1.925776	0.652471	0.000077
1693	1.6835e+02	-12.5900	-46.380634	0.000172	1.723063	0.583790	0.000069
1694	1.6845e+02	-12.5435	-46.239334	0.000355	3.547483	1.201920	0.000142
1695	1.6855e+02	-12.4954	-46.126294	0.000284	2.837986	0.961536	0.000114
1696	1.6865e+02	-12.4697	-46.017292	0.000274	2.736630	0.927195	0.000110
1697	1.6875e+02	-12.4280	-45.892141	0.000314	3.142056	1.064557	0.000126
1698	1.6885e+02	-12.3927	-45.746804	0.000365	3.648839	1.236260	0.000146
1699	1.6895e+02	-12.3446	-45.662024	0.000213	2.128490	0.721152	0.000085
1700	1.6905e+02	-12.3013	-45.544947	0.000294	2.939343	0.995876	0.000118
1701	1.6915e+02	-12.2724	-45.423833	0.000304	3.040699	1.030217	0.000122
1702	1.6925e+02	-12.2275	-45.339053	0.000213	2.128490	0.721152	0.000085
1703	1.6935e+02	-12.1874	-45.230050	0.000274	2.736630	0.927195	0.000110
1704	1.6945e+02	-12.1521	-45.108936	0.000304	3.040699	1.030217	0.000122
1705	1.6955e+02	-12.1071	-45.012045	0.000243	2.432560	0.824173	0.000097
1706	1.6965e+02	-12.0654	-44.931302	0.000203	2.027133	0.686811	0.000081
1707	1.6975e+02	-12.0157	-44.826337	0.000264	2.635273	0.892855	0.000105
1708	1.6985e+02	-11.9900	-44.725408	0.000253	2.533916	0.858514	0.000101
1709	1.6995e+02	-11.9435	-44.616406	0.000274	2.736630	0.927195	0.000110
1710	1.7005e+02	-11.8922	-44.555849	0.000152	1.520350	0.515108	0.000061
1711	1.7015e+02	-11.8665	-44.386289	0.000426	4.256979	1.442304	0.000170
1712	1.7024e+02	-11.8200	-44.265175	0.000304	3.040699	1.030217	0.000122
1713	1.7034e+02	-11.7815	-44.188469	0.000193	1.925776	0.652471	0.000077
1714	1.7044e+02	-11.7542	-44.091578	0.000243	2.432560	0.824173	0.000097
1715	1.7054e+02	-11.7029	-43.970464	0.000304	3.040699	1.030217	0.000122
1716	1.7064e+02	-11.6724	-43.813016	0.000395	3.952909	1.339282	0.000158
1717	1.7074e+02	-11.6323	-43.699976	0.000284	2.837986	0.961536	0.000114
1718	1.7084e+02	-11.5970	-43.558676	0.000355	3.547483	1.201920	0.000142
1719	1.7094e+02	-11.5585	-43.461785	0.000243	2.432560	0.824173	0.000097
1720	1.7104e+02	-11.5104	-43.328559	0.000334	3.344769	1.133239	0.000134
1721	1.7114e+02	-11.4783	-43.263965	0.000162	1.621706	0.549449	0.000065
1722	1.7124e+02	-11.4366	-43.122665	0.000355	3.547483	1.201920	0.000142
1723	1.7134e+02	-11.3852	-43.033848	0.000223	2.229846	0.755492	0.000089
1724	1.7144e+02	-11.3371	-42.945031	0.000223	2.229846	0.755492	0.000089
1725	1.7154e+02	-11.3163	-42.876400	0.000172	1.723063	0.583790	0.000069
1726	1.7164e+02	-11.2713	-42.731063	0.000365	3.648839	1.236260	0.000146
1727	1.7174e+02	-11.2360	-42.613986	0.000294	2.939343	0.995876	0.000118
1728	1.7184e+02	-11.1927	-42.525169	0.000223	2.229846	0.755492	0.000089
1729	1.7194e+02	-11.1558	-42.395981	0.000324	3.243413	1.098898	0.000130
1730	1.7204e+02	-11.1061	-42.266793	0.000324	3.243413	1.098898	0.000130
1731	1.7213e+02	-11.0804	-42.165864	0.000253	2.533916	0.858514	0.000101
1732	1.7223e+02	-11.0259	-42.056862	0.000274	2.736630	0.927195	0.000110
1733	1.7233e+02	-10.9826	-41.923636	0.000334	3.344769	1.133239	0.000134
1734	1.7243e+02	-10.9537	-41.758114	0.000416	4.155623	1.407963	0.000166
1735	1.7253e+02	-10.9088	-41.665259	0.000233	2.331203	0.789833	0.000093
1736	1.7263e+02	-10.8703	-41.511848	0.000385	3.851553	1.304941	0.000154
1737	1.7273e+02	-10.8286	-41.402846	0.000274	2.736630	0.927195	0.000110
1738	1.7283e+02	-10.7981	-41.301917	0.000253	2.533916	0.858514	0.000101
1739	1.7293e+02	-10.7532	-41.180803	0.000304	3.040699	1.030217	0.000122
1740	1.7303e+02	-10.7066	-41.067763	0.000284	2.837986	0.961536	0.000114
1741	1.7313e+02	-10.6649	-40.962798	0.000264	2.635273	0.892855	0.000105
1742	1.7323e+02	-10.6280	-40.886092	0.000193	1.925776	0.652471	0.000077
1743	1.7333e+02	-10.5927	-40.777090	0.000274	2.736630	0.927195	0.000110
1744	1.7343e+02	-10.5494	-40.655975	0.000304	3.040699	1.030217	0.000122
1745	1.7353e+02	-10.5141	-40.563121	0.000233	2.331203	0.789833	0.000093
1746	1.7363e+02	-10.4708	-40.494490	0.000172	1.723063	0.583790	0.000069
1747	1.7373e+02	-10.4275	-40.296670	0.000497	4.966476	1.682688	0.000199
1748	1.7383e+02	-10.3938	-40.219965	0.000193	1.925776	0.652471	0.000077
1749	1.7393e+02	-10.3537	-40.090776	0.000324	3.243413	1.098898	0.000130
1750	1.7403e+02	-10.3136	-39.953514	0.000345	3.446126	1.167579	0.000138
1751	1.7413e+02	-10.2735	-39.860660	0.000233	2.331203	0.789833	0.000093
1752	1.7422e+02	-10.2414	-39.723397	0.000345	3.446126	1.167579	0.000138
1753	1.7432e+02	-10.1917	-39.569986	0.000385	3.851553	1.304941	0.000154
1754	1.7442e+02	-10.1564	-39.432723	0.000345	3.446126	1.167579	0.000138
1755	1.7452e+02	-10.1179	-39.339869	0.000233	2.331203	0.789833	0.000093
1756	1.7462e+02	-10.0810	-39.238941	0.000253	2.533916	0.858514	0.000101
1757	1.7472e+02	-10.0441	-39.109752	0.000324	3.243413	1.098898	0.000130
1758	1.7482e+02	-9.9880	-39.008824	0.000253	2.533916	0.858514	0.000101
1759	1.7492e+02	-9.9527	-38.887710	0.000304	3.040699	1.030217	0.000122
1760	1.7502e+02	-9.9142	-38.802930	0.000213	2.128490	0.721152	0.000085
1761	1.7512e+02	-9.8660	-38.706039	0.000243	2.432560	0.824173	0.000097
1762	1.7522e+02	-9.8259	-38.601073	0.000264	2.635273	0.892855	0.000105
1763	1.7532e+02	-9.7954	-38.471885	0.000324	3.243413	1.098898	0.000130
1764	1.7542e+02	-9.7537	-38.383068	0.000223	2.229846	0.755492	0.000089
1765	1.7552e+02	-9.7072	-38.245805	0.000345	3.446126	1.167579	0.000138
1766	1.7562e+02	-9.6687	-38.112580	0.000334	3.344769	1.133239	0.000134
1767	1.7572e+02	-9.6350	-38.011652	0.000253	2.533916	0.858514	0.000101
1768	1.7582e+02	-9.5965	-37.898612	0.000284	2.837986	0.961536	0.000114
1769	1.7592e+02	-9.5548	-37.777498	0.000304	3.040699	1.030217	0.000122
1770	1.7602e+02	-9.5115	-37.616012	0.000405	4.054266	1.373622	0.000162
1771	1.7612e+02	-9.4778	-37.490861	0.000314	3.142056	1.064557	0.000126
1772	1.7621e+02	-9.4361	-37.337450	0.000385	3.851553	1.304941	0.000154
1773	1.7631e+02	-9.4040	-37.252670	0.000213	2.128490	0.721152	0.000085
1774	1.7641e+02	-9.3607	-37.131556	0.000304	3.040699	1.030217	0.000122
1775	1.7651e+02	-9.3158	-37.006405	0.000314	3.142056	1.064557	0.000126
1776	1.7661e+02	-9.2821	-36.869142	0.000345	3.446126	1.167579	0.000138
1777	1.7671e+02	-9.2356	-36.776288	0.000233	2.331203	0.789833	0.000093
1778	1.7681e+02	-9.1923	-36.667285	0.000274	2.736630	0.927195	0.000110
1779	1.7691e+02	-9.1618	-36.566357	0.000253	2.533916	0.858514	0.000101
1780	1.7701e+02	-9.1201	-36.461391	0.000264	2.635273	0.892855	0.000105
1781	1.7711e+02	-9.0767	-36.384686	0.000193	1.925776	0.652471	0.000077
1782	1.7721e+02	-9.0302	-36.207052	0.000446	4.459693	1.510985	0.000179
1783	1.7731e+02	-8.9901	-36.110161	0.000243	2.432560	0.824173	0.000097
1784	1.7741e+02	-8.9516	-36.037492	0.000182	1.824420	0.618130	0.000073
1785	1.7751e+02	-8.9227	-35.908304	0.000324	3.243413	1.098898	0.000130
1786	1.7761e+02	-8.8858	-35.775078	0.000334	3.344769	1.133239	0.000134
1787	1.7771e+02	-8.8329	-35.645890	0.000324	3.243413	1.098898	0.000130
1788	1.7781e+02	-8.8040	-35.540924	0.000264	2.635273	0.892855	0.000105
1789	1.7791e+02	-8.7655	-35.371365	0.000426	4.256979	1.442304	0.000170
1790	1.7801e+02	-8.7190	-35.278511	0.000233	2.331203	0.789833	0.000093
1791	1.7810e+02	-8.6757	-35.125099	0.000385	3.851553	1.304941	0.000154
1792	1.7820e+02	-8.6436	-35.012060	0.000284	2.837986	0.961536	0.000114
1793	1.7830e+02	-8.5923	-34.890946	0.000304	3.040699	1.030217	0.000122
1794	1.7840e+02	-8.5650	-34.798091	0.000233	2.331203	0.789833	0.000093
1795	1.7850e+02	-8.5201	-34.648717	0.000375	3.750196	1.270601	0.000150
1796	1.7860e+02	-8.4880	-34.600272	0.000122	1.216280	0.412087	0.000049
1797	1.7870e+02	-8.4415	-34.458972	0.000355	3.547483	1.201920	0.000142
1798	1.7880e+02	-8.4014	-34.374192	0.000213	2.128490	0.721152	0.000085
1799	1.7890e+02	-8.3613	-34.245004	0.000324	3.243413	1.098898	0.000130
1800	1.7900e+02	-8.3147	-34.144076	0.000253	2.533916	0.858514	0.000101
1801	1.7910e+02	-8.2794	-34.026999	0.000294	2.939343	0.995876	0.000118
1802	1.7920e+02	-8.2409	-33.913959	0.000284	2.837986	0.961536	0.000114
1803	1.7930e+02	-8.1928	-33.792845	0.000304	3.040699	1.030217	0.000122
1804	1.7940e+02	-8.1559	-33.679805	0.000284	2.837986	0.961536	0.000114
1805	1.7950e+02	-8.1222	-33.558691	0.000304	3.040699	1.030217	0.000122
1806	1.7960e+02	-8.0805	-33.401243	0.000395	3.952909	1.339282	0.000158
1807	1.7970e+02	-8.0532	-33.300314	0.000253	2.533916	0.858514	0.000101
1808	1.7980e+02	-7.9939	-33.142866	0.000395	3.952909	1.339282	0.000158
1809	1.7990e+02	-7.9586	-33.054049	0.000223	2.229846	0.755492	0.000089
1810	1.8000e+02	-7.9201	-32.900638	0.000385	3.851553	1.304941	0.000154
1811	1.8009e+02	-7.8832	-32.771449	0.000324	3.243413	1.098898	0.000130
1812	1.8019e+02	-7.8511	-32.674558	0.000243	2.432560	0.824173	0.000097
1813	1.8029e+02	-7.8046	-32.581704	0.000233	2.331203	0.789833	0.000093
1814	1.8039e+02	-7.7597	-32.444441	0.000345	3.446126	1.167579	0.000138
1815	1.8049e+02	-7.7180	-32.323327	0.000304	3.040699	1.030217	0.000122
1816	1.8059e+02	-7.6746	-32.250659	0.000182	1.824420	0.618130	0.000073
1817	1.8069e+02	-7.6458	-32.145693	0.000264	2.635273	0.892855	0.000105
1818	1.8079e+02	-7.5944	-32.016505	0.000324	3.243413	1.098898	0.000130
1819	1.8089e+02	-7.5704	-31.968059	0.000122	1.216280	0.412087	0.000049
1820	1.8099e+02	-7.5319	-31.814648	0.000385	3.851553	1.304941	0.000154
1821	1.8109e+02	-7.4870	-31.701608	0.000284	2.837986	0.961536	0.000114
1822	1.8119e+02	-7.4436	-31.588569	0.000284	2.837986	0.961536	0.000114
1823	1.8129e+02	-7.4035	-31.463417	0.000314	3.142056	1.064557	0.000126
1824	1.8139e+02	-7.3618	-31.342303	0.000304	3.040699	1.030217	0.000122
1825	1.8149e+02	-7.3233	-31.245412	0.000243	2.432560	0.824173	0.000097
1826	1.8159e+02	-7.2832	-31.067778	0.000446	4.459693	1.510985	0.000179
1827	1.8169e+02	-7.2383	-30.938590	0.000324	3.243413	1.098898	0.000130
1828	1.8179e+02	-7.2046	-30.829587	0.000274	2.736630	0.927195	0.000110
1829	1.8189e+02	-7.1645	-30.692324	0.000345	3.446126	1.167579	0.000138
1830	1.8199e+02	-7.1340	-30.567173	0.000314	3.142056	1.064557	0.000126
1831	1.8209e+02	-7.0859	-30.429911	0.000345	3.446126	1.167579	0.000138
1832	1.8218e+02	-7.0458	-30.333019	0.000243	2.432560	0.824173	0.000097
1833	1.8228e+02	-7.0057	-30.195757	0.000345	3.446126	1.167579	0.000138
1834	1.8238e+02	-6.9576	-30.175571	0.000051	0.506783	0.171703	0.000020
1835	1.8248e+02	-6.9271	-30.010049	0.000416	4.155623	1.407963	0.000166
1836	1.8258e+02	-6.8838	-29.909120	0.000253	2.533916	0.858514	0.000101
1837	1.8268e+02	-6.8485	-29.771858	0.000345	3.446126	1.167579	0.000138
1838	1.8278e+02	-6.8003	-29.674966	0.000243	2.432560	0.824173	0.000097
1839	1.8288e+02	-6.7602	-29.565964	0.000274	2.736630	0.927195	0.000110
1840	1.8298e+02	-6.7233	-29.424664	0.000355	3.547483	1.201920	0.000142
1841	1.8308e+02	-6.6913	-29.271253	0.000385	3.851553	1.304941	0.000154
1842	1.8318e+02	-6.6479	-29.166287	0.000264	2.635273	0.892855	0.000105
1843	1.8328e+02	-6.6175	-29.061322	0.000264	2.635273	0.892855	0.000105
1844	1.8338e+02	-6.5645	-28.928096	0.000334	3.344769	1.133239	0.000134
1845	1.8348e+02	-6.5276	-28.811019	0.000294	2.939343	0.995876	0.000118
1846	1.8358e+02	-6.4939	-28.657608	0.000385	3.851553	1.304941	0.000154
1847	1.8368e+02	-6.4506	-28.524383	0.000334	3.344769	1.133239	0.000134
1848	1.8378e+02	-6.4057	-28.431528	0.000233	2.331203	0.789833	0.000093
1849	1.8388e+02	-6.3768	-28.249857	0.000456	4.561049	1.545325	0.000183
1850	1.8398e+02	-6.3415	-28.185263	0.000162	1.621706	0.549449	0.000065
1851	1.8407e+02	-6.2934	-28.056075	0.000324	3.243413	1.098898	0.000130
1852	1.8417e+02	-6.2581	-27.930924	0.000314	3.142056	1.064557	0.000126
1853	1.8427e+02	-6.2148	-27.882478	0.000122	1.216280	0.412087	0.000049
1854	1.8437e+02	-6.1779	-27.741178	0.000355	3.547483	1.201920	0.000142
1855	1.8447e+02	-6.1298	-27.607953	0.000334	3.344769	1.133239	0.000134
1856	1.8457e+02	-6.0929	-27.498950	0.000274	2.736630	0.927195	0.000110
1857	1.8467e+02	-6.0608	-27.377836	0.000304	3.040699	1.030217	0.000122
1858	1.8477e+02	-6.0143	-27.260759	0.000294	2.939343	0.995876	0.000118
1859	1.8487e+02	-5.9694	-27.139645	0.000304	3.040699	1.030217	0.000122
1860	1.8497e+02	-5.9373	-27.014494	0.000314	3.142056	1.064557	0.000126
1861	1.8507e+02	-5.8988	-26.881268	0.000334	3.344769	1.133239	0.000134
1862	1.8517e+02	-5.8490	-26.739969	0.000355	3.547483	1.201920	0.000142
1863	1.8527e+02	-5.8169	-26.630966	0.000274	2.736630	0.927195	0.000110
1864	1.8537e+02	-5.7736	-26.445258	0.000466	4.662406	1.579666	0.000187
1865	1.8547e+02	-5.7351	-26.320106	0.000314	3.142056	1.064557	0.000126
1866	1.8557e+02	-5.6918	-26.154584	0.000416	4.155623	1.407963	0.000166
1867	1.8567e+02	-5.6549	-26.065767	0.000223	2.229846	0.755492	0.000089
1868	1.8577e+02	-5.6148	-25.956764	0.000274	2.736630	0.927195	0.000110
1869	1.8587e+02	-5.5795	-25.811427	0.000365	3.648839	1.236260	0.000146
1870	1.8597e+02	-5.5250	-25.714536	0.000243	2.432560	0.824173	0.000097
1871	1.8606e+02	-5.4929	-25.609571	0.000264	2.635273	0.892855	0.000105
1872	1.8616e+02	-5.4624	-25.492494	0.000294	2.939343	0.995876	0.000118
1873	1.8626e+02	-5.4111	-25.363305	0.000324	3.243413	1.098898	0.000130
1874	1.8636e+02	-5.3790	-25.234117	0.000324	3.243413	1.098898	0.000130
1875	1.8646e+02	-5.3373	-25.149337	0.000213	2.128490	0.721152	0.000085
1876	1.8656e+02	-5.2924	-24.959592	0.000476	4.763762	1.614006	0.000191
1877	1.8666e+02	-5.2539	-24.854626	0.000264	2.635273	0.892855	0.000105
1878	1.8676e+02	-5.2170	-24.745624	0.000274	2.736630	0.927195	0.000110
1879	1.8686e+02	-5.1785	-24.620472	0.000314	3.142056	1.064557	0.000126
1880	1.8696e+02	-5.1271	-24.491284	0.000324	3.243413	1.098898	0.000130
1881	1.8706e+02	-5.1031	-24.345947	0.000365	3.648839	1.236260	0.000146
1882	1.8716e+02	-5.0678	-24.180425	0.000416	4.155623	1.407963	0.000166
1883	1.8726e+02	-5.0229	-24.063348	0.000294	2.939343	0.995876	0.000118
1884	1.8736e+02	-4.9779	-23.909936	0.000385	3.851553	1.304941	0.000154
1885	1.8746e+02	-4.9362	-23.752488	0.000395	3.952909	1.339282	0.000158
1886	1.8756e+02	-4.9025	-23.639448	0.000284	2.837986	0.961536	0.000114
1887	1.8766e+02	-4.8576	-23.538520	0.000253	2.533916	0.858514	0.000101
1888	1.8776e+02	-4.8191	-23.409332	0.000324	3.243413	1.098898	0.000130
1889	1.8786e+02	-4.7790	-23.308403	0.000253	2.533916	0.858514	0.000101
1890	1.8796e+02	-4.7373	-23.179215	0.000324	3.243413	1.098898	0.000130
1891	1.8806e+02	-4.6972	-23.106546	0.000182	1.824420	0.618130	0.000073
1892	1.8815e+02	-4.6603	-22.892578	0.000537	5.371902	1.820050	0.000215
1893	1.8825e+02	-4.6106	-22.763390	0.000324	3.243413	1.098898	0.000130
1894	1.8835e+02	-4.5721	-22.682647	0.000203	2.027133	0.686811	0.000081
1895	1.8845e+02	-4.5320	-22.529236	0.000385	3.851553	1.304941	0.000154
1896	1.8855e+02	-4.4935	-22.400048	0.000324	3.243413	1.098898	0.000130
1897	1.8865e+02	-4.4550	-22.278934	0.000304	3.040699	1.030217	0.000122
1898	1.8875e+02	-4.4181	-22.125522	0.000385	3.851553	1.304941	0.000154
1899	1.8885e+02	-4.3828	-22.020557	0.000264	2.635273	0.892855	0.000105
1900	1.8895e+02	-4.3427	-21.850997	0.000426	4.256979	1.442304	0.000170
1901	1.8905e+02	-4.3026	-21.729883	0.000304	3.040699	1.030217	0.000122
1902	1.8915e+02	-4.2576	-21.528026	0.000507	5.067832	1.717028	0.000203
1903	1.8925e+02	-4.2143	-21.394801	0.000334	3.344769	1.133239	0.000134
1904	1.8935e+02	-4.1870	-21.269650	0.000314	3.142056	1.064557	0.000126
1905	1.8945e+02	-4.1421	-21.104127	0.000416	4.155623	1.407963	0.000166
1906	1.8955e+02	-4.0972	-21.039533	0.000162	1.621706	0.549449	0.000065
1907	1.8965e+02	-4.0603	-20.869973	0.000426	4.256979	1.442304	0.000170
1908	1.8975e+02	-4.0170	-20.773082	0.000243	2.432560	0.824173	0.000097
1909	1.8985e+02	-3.9753	-20.668116	0.000264	2.635273	0.892855	0.000105
1910	1.8995e+02	-3.9288	-20.502594	0.000416	4.155623	1.407963	0.000166
1911	1.9004e+02	-3.8951	-20.353220	0.000375	3.750196	1.270601	0.000150
1912	1.9014e+02	-3.8598	-20.276514	0.000193	1.925776	0.652471	0.000077
1913	1.9024e+02	-3.8133	-20.106955	0.000426	4.256979	1.442304	0.000170
1914	1.9034e+02	-3.7764	-20.018138	0.000223	2.229846	0.755492	0.000089
1915	1.9044e+02	-3.7443	-19.852615	0.000416	4.155623	1.407963	0.000166
1916	1.9054e+02	-3.7010	-19.699204	0.000385	3.851553	1.304941	0.000154
1917	1.9064e+02	-3.6577	-19.578090	0.000304	3.040699	1.030217	0.000122
1918	1.9074e+02	-3.6191	-19.444864	0.000334	3.344769	1.133239	0.000134
1919	1.9084e+02	-3.5887	-19.291453	0.000385	3.851553	1.304941	0.000154
1920	1.9094e+02	-3.5550	-19.166302	0.000314	3.142056	1.064557	0.000126
1921	1.9104e+02	-3.5004	-19.000779	0.000416	4.155623	1.407963	0.000166
1922	1.9114e+02	-3.4667	-18.867554	0.000334	3.344769	1.133239	0.000134
1923	1.9124e+02	-3.4186	-18.766625	0.000253	2.533916	0.858514	0.000101
1924	1.9134e+02	-3.3785	-18.673771	0.000233	2.331203	0.789833	0.000093
1925	1.9144e+02	-3.3352	-18.484026	0.000476	4.763762	1.614006	0.000191
1926	1.9154e+02	-3.2999	-18.370986	0.000284	2.837986	0.961536	0.000114
1927	1.9164e+02	-3.2582	-18.261984	0.000274	2.736630	0.927195	0.000110
1928	1.9174e+02	-3.2229	-18.112609	0.000375	3.750196	1.270601	0.000150
1929	1.9184e+02	-3.1908	-18.023793	0.000223	2.229846	0.755492	0.000089
1930	1.9194e+02	-3.1411	-17.886530	0.000345	3.446126	1.167579	0.000138
1931	1.9203e+02	-3.1058	-17.692747	0.000487	4.865119	1.648347	0.000195
1932	1.9213e+02	-3.0625	-17.547410	0.000365	3.648839	1.236260	0.000146
1933	1.9223e+02	-3.0256	-17.462631	0.000213	2.128490	0.721152	0.000085
1934	1.9233e+02	-2.9775	-17.284997	0.000446	4.459693	1.510985	0.000179
1935	1.9243e+02	-2.9486	-17.163883	0.000304	3.040699	1.030217	0.000122
1936	1.9253e+02	-2.9005	-17.054880	0.000274	2.736630	0.927195	0.000110
1937	1.9263e+02	-2.8555	-16.909543	0.000365	3.648839	1.236260	0.000146
1938	1.9273e+02	-2.8202	-16.776318	0.000334	3.344769	1.133239	0.000134
1939	1.9283e+02	-2.7930	-16.622906	0.000385	3.851553	1.304941	0.000154
1940	1.9293e+02	-2.7545	-16.445272	0.000446	4.459693	1.510985	0.000179
1941	1.9303e+02	-2.6983	-16.328195	0.000294	2.939343	0.995876	0.000118
1942	1.9313e+02	-2.6694	-16.194970	0.000334	3.344769	1.133239	0.000134
1943	1.9323e+02	-2.6197	-16.069819	0.000314	3.142056	1.064557	0.000126
1944	1.9333e+02	-2.5844	-15.936593	0.000334	3.344769	1.133239	0.000134
1945	1.9343e+02	-2.5459	-15.799331	0.000345	3.446126	1.167579	0.000138
1946	1.9353e+02	-2.5138	-15.674180	0.000314	3.142056	1.064557	0.000126
1947	1.9363e+02	-2.4593	-15.504620	0.000426	4.256979	1.442304	0.000170
1948	1.9373e+02	-2.4256	-15.415803	0.000223	2.229846	0.755492	0.000089
1949	1.9383e+02	-2.3919	-15.286614	0.000324	3.243413	1.098898	0.000130
1950	1.9393e+02	-2.3422	-15.157426	0.000324	3.243413	1.098898	0.000130
1951	1.9403e+02	-2.3069	-14.971718	0.000466	4.662406	1.579666	0.000187
1952	1.9412e+02	-2.2652	-14.903087	0.000172	1.723063	0.583790	0.000069
1953	1.9422e+02	-2.2299	-14.806195	0.000243	2.432560	0.824173	0.000097
1954	1.9432e+02	-2.1914	-14.596264	0.000527	5.270546	1.785709	0.000211
1955	1.9442e+02	-2.1545	-14.430742	0.000416	4.155623	1.407963	0.000166
1956	1.9452e+02	-2.1048	-14.337888	0.000233	2.331203	0.789833	0.000093
1957	1.9462e+02	-2.0727	-14.196588	0.000355	3.547483	1.201920	0.000142
1958	1.9472e+02	-2.0278	-14.051251	0.000365	3.648839	1.236260	0.000146
1959	1.9482e+02	-1.9925	-13.849394	0.000507	5.067832	1.717028	0.000203
1960	1.9492e+02	-1.9427	-13.756540	0.000233	2.331203	0.789833	0.000093
1961	1.9502e+02	-1.9010	-13.643500	0.000284	2.837986	0.961536	0.000114
1962	1.9512e+02	-1.8625	-13.546609	0.000243	2.432560	0.824173	0.000097
1963	1.9522e+02	-1.8240	-13.417421	0.000324	3.243413	1.098898	0.000130
1964	1.9532e+02	-1.7855	-13.239787	0.000446	4.459693	1.510985	0.000179
1965	1.9542e+02	-1.7534	-13.138858	0.000253	2.533916	0.858514	0.000101
1966	1.9552e+02	-1.7101	-12.981410	0.000395	3.952909	1.339282	0.000158
1967	1.9562e+02	-1.6716	-12.860296	0.000304	3.040699	1.030217	0.000122
1968	1.9572e+02	-1.6235	-12.723033	0.000345	3.446126	1.167579	0.000138
1969	1.9582e+02	-1.5834	-12.593845	0.000324	3.243413	1.098898	0.000130
1970	1.9592e+02	-1.5529	-12.472731	0.000304	3.040699	1.030217	0.000122
1971	1.9601e+02	-1.5128	-12.335468	0.000345	3.446126	1.167579	0.000138
1972	1.9611e+02	-1.4599	-12.194168	0.000355	3.547483	1.201920	0.000142
1973	1.9621e+02	-1.4374	-12.028646	0.000416	4.155623	1.407963	0.000166
1974	1.9631e+02	-1.3973	-11.931755	0.000243	2.432560	0.824173	0.000097
1975	1.9641e+02	-1.3508	-11.802566	0.000324	3.243413	1.098898	0.000130
1976	1.9651e+02	-1.3203	-11.645118	0.000395	3.952909	1.339282	0.000158
1977	1.9661e+02	-1.2722	-11.499781	0.000365	3.648839	1.236260	0.000146
1978	1.9671e+02	-1.2288	-11.342333	0.000395	3.952909	1.339282	0.000158
1979	1.9681e+02	-1.1887	-11.217182	0.000314	3.142056	1.064557	0.000126
1980	1.9691e+02	-1.1422	-11.112216	0.000264	2.635273	0.892855	0.000105
1981	1.9701e+02	-1.1085	-11.003213	0.000274	2.736630	0.927195	0.000110
1982	1.9711e+02	-1.0620	-10.821542	0.000456	4.561049	1.545325	0.000183
1983	1.9721e+02	-1.0331	-10.708503	0.000284	2.837986	0.961536	0.000114
1984	1.9731e+02	-0.9930	-10.571240	0.000345	3.446126	1.167579	0.000138
1985	1.9741e+02	-0.9609	-10.450126	0.000304	3.040699	1.030217	0.000122
1986	1.9751e+02	-0.9160	-10.280566	0.000426	4.256979	1.442304	0.000170
1987	1.9761e+02	-0.8679	-10.147341	0.000334	3.344769	1.133239	0.000134
1988	1.9771e+02	-0.8310	-10.042375	0.000264	2.635273	0.892855	0.000105
1989	1.9781e+02	-0.7877	-9.884927	0.000395	3.952909	1.339282	0.000158
1990	1.9791e+02	-0.7588	-9.779961	0.000264	2.635273	0.892855	0.000105
1991	1.9800e+02	-0.7107	-9.646736	0.000334	3.344769	1.133239	0.000134
1992	1.9810e+02	-0.6738	-9.477176	0.000426	4.256979	1.442304	0.000170
1993	1.9820e+02	-0.6353	-9.352025	0.000314	3.142056	1.064557	0.000126
1994	1.9830e+02	-0.6000	-9.230911	0.000304	3.040699	1.030217	0.000122
1995	1.9840e+02	-0.5406	-9.129982	0.000253	2.533916	0.858514	0.000101
1996	1.9850e+02	-0.5150	-8.944274	0.000466	4.662406	1.579666	0.000187
1997	1.9860e+02	-0.4652	-8.823160	0.000304	3.040699	1.030217	0.000122
1998	1.9870e+02	-0.4347	-8.714157	0.000274	2.736630	0.927195	0.000110
1999	1.9880e+02	-0.3866	-8.544598	0.000426	4.256979	1.442304	0.000170
2000	1.9890e+02	-0.3497	-8.411372	0.000334	3.344769	1.133239	0.000134
2001	1.9900e+02	-0.3160	-8.282184	0.000324	3.243413	1.098898	0.000130
2002	1.9910e+02	-0.2695	-8.169144	0.000284	2.837986	0.961536	0.000114
2003	1.9920e+02	-0.2326	-8.023807	0.000365	3.648839	1.236260	0.000146
2004	1.9930e+02	-0.1957	-7.854248	0.000426	4.256979	1.442304	0.000170
2005	1.9940e+02	-0.1540	-7.769468	0.000213	2.128490	0.721152	0.000085
2006	1.9950e+02	-0.1187	-7.612019	0.000395	3.952909	1.339282	0.000158
2007	1.9960e+02	-0.0722	-7.478794	0.000334	3.344769	1.133239	0.000134
2008	1.9970e+02	-0.0353	-7.341531	0.000345	3.446126	1.167579	0.000138
2009	1.9980e+02	0.0032	-7.167935	0.000345	3.446126	1.167579	0.000174

PMax (uC/cm2):	6.81e+01
Pr (uC/cm2):	2.65e+00
-Pr (uC/cm2):	-2.58e+00
PLoss (uC/cm2):	-2.56e+00
-Vc:	-7.64e-01
C (Max-Eff) (nF):	3.40e-01
K (Eff):	1.15e+03
Vert. (+/-Pr) Shift (uC/cm2):	3.46e-02
Offset (uC/cm2):	4.58e+00

A (Loop Area - uC/cm2·Volts):	3.53e-02



Hysteresis Version: 5.48.1 - Radiant Technologies, Inc., 1999 - 9/12/24

