»»»»»»»»»»»»»»»»»»»»»»»»»»»»»»»»»»»» Hysteresis ««««««««««««««««««««««««««««««««««««
»»»  Executed Version:	5.48.1
»»»  Vision Version:	5.48.4 (R)
»»»  Vision Compiled:	9/18/24
»»»  Driver Version:	5.47.0
»»»  Windows Version:	Windows 8 or 8.1
»»»  Processor Information:	x86 (AMD or Intel) - 32 Processors
»»»  Tester Name:	PMF21124-494 (100V)
»»»  Tester S/N:	PMF21124-494
»»»  Internal Amp Type:	100V RevK 270k
»»»  Internal Amp S/N:	iAB2-596/K     
»»»  Execution Count:	1
»»»»»»»»»»»»»»»»»»»»»»»»»»»»»»»»»»»»»»»»»»««««««««««««««««««««««««««««««««««««««««««

Stored:	6/19/2025 - 18:38:11
Configured:	06/19/25 10:04:32 AM
Executed:	06/19/25 06:37:41 PM

»»»»»»»»»»»»»»»»»»»»»»»»»»»»»»»»»»» Sample Info ««««««««««««««««««««««««««««««««««««
Sample Name:	
Lot Name:	
Wafer Name:	
Die Row/Column:	0/0
Capacitor Number:	0
Sample Area (cm2):	1.00e-04
Sample Thickness (microns):	3.00e-01

Amplifier:	Internal

»»»»»»»»»»»»»»»»»»»»»»»»»»»»»»»»»»» Tester Info «««««««««««««««««««««««««««««««««««
Tester Name:	PMF21124-494 (100V)
Tester Serial Number:	PMF21124-494
Return Signal Amp. Level:	0.19 [Index: 3]

»»»»»»»»»»»»»»»»»»»»»»»»»»»»»»»» Hysteresis Info ««««««««««««««««««««««««««««««««««
Task Name:	Hyst-1168
Volts:	20.00
Field:	666.67 (kV/cm)
DCBias:	0.00
DCField:	0.00 (kV/cm)
Hysteresis Period (ms):	2.00e+02
Preset:	Enabled
Preset Delay (ms):	1.00e+03
Profile:	Standard Bipolar

»»»»»»»»»»»»»»»»»»»»»»»»»»»»»»»»»»»»»» Data «««««««««««««««««««««««««««««««««««««««
Points:	2009

Valid Data

Point	Time (ms)	Drive Voltage	Measured Polarization (uC/cm2)	Capacitance (uF)	Normalized Capacitance (uF/cm2)	Dielectric Constant	Instantaneous Current (mA)
   1	0.0000e+00	0.0080	-3.582958	0.000193	1.926974	0.652877	0.000077
   2	9.9500e-02	0.0385	-3.506252	0.000193	1.926974	0.652877	0.000077
   3	1.9900e-01	0.0834	-3.389175	0.000294	2.941172	0.996496	0.000118
   4	2.9850e-01	0.1155	-3.255950	0.000335	3.346850	1.133944	0.000134
   5	3.9800e-01	0.1588	-3.130799	0.000314	3.144011	1.065220	0.000126
   6	4.9750e-01	0.1973	-3.021796	0.000274	2.738332	0.927772	0.000110
   7	5.9700e-01	0.2374	-2.848199	0.000436	4.361048	1.477563	0.000174
   8	6.9650e-01	0.2775	-2.771494	0.000193	1.926974	0.652877	0.000077
   9	7.9600e-01	0.3128	-2.601934	0.000426	4.259628	1.443201	0.000170
  10	8.9550e-01	0.3561	-2.513117	0.000223	2.231234	0.755962	0.000089
  11	9.9500e-01	0.3946	-2.416226	0.000243	2.434073	0.824686	0.000097
  12	1.0945e+00	0.4364	-2.311260	0.000264	2.636912	0.893410	0.000105
  13	1.1940e+00	0.4732	-2.186109	0.000314	3.144011	1.065220	0.000126
  14	1.2935e+00	0.5166	-2.105366	0.000203	2.028394	0.687239	0.000081
  15	1.3930e+00	0.5535	-1.972141	0.000335	3.346850	1.133944	0.000134
  16	1.4925e+00	0.5920	-1.887361	0.000213	2.129814	0.721600	0.000085
  17	1.5920e+00	0.6353	-1.754135	0.000335	3.346850	1.133944	0.000134
  18	1.6915e+00	0.6786	-1.628984	0.000314	3.144011	1.065220	0.000126
  19	1.7910e+00	0.7123	-1.540167	0.000223	2.231234	0.755962	0.000089
  20	1.8905e+00	0.7652	-1.406942	0.000335	3.346850	1.133944	0.000134
  21	1.9900e+00	0.8021	-1.253531	0.000385	3.853949	1.305753	0.000154
  22	2.0895e+00	0.8342	-1.124342	0.000325	3.245431	1.099582	0.000130
  23	2.1890e+00	0.8759	-1.007265	0.000294	2.941172	0.996496	0.000118
  24	2.2885e+00	0.9112	-0.894226	0.000284	2.839752	0.962134	0.000114
  25	2.3880e+00	0.9497	-0.728703	0.000416	4.158208	1.408839	0.000166
  26	2.4875e+00	0.9946	-0.615663	0.000284	2.839752	0.962134	0.000114
  27	2.5870e+00	1.0299	-0.421881	0.000487	4.868146	1.649373	0.000195
  28	2.6865e+00	1.0732	-0.324989	0.000243	2.434073	0.824686	0.000097
  29	2.7860e+00	1.1053	-0.252321	0.000183	1.825555	0.618515	0.000073
  30	2.8855e+00	1.1567	-0.127170	0.000314	3.144011	1.065220	0.000126
  31	2.9850e+00	1.2032	-0.002019	0.000314	3.144011	1.065220	0.000126
  32	3.0845e+00	1.2369	0.082761	0.000213	2.129814	0.721600	0.000085
  33	3.1840e+00	1.2706	0.211950	0.000325	3.245431	1.099582	0.000130
  34	3.2835e+00	1.3187	0.369398	0.000396	3.955369	1.340115	0.000158
  35	3.3830e+00	1.3443	0.442066	0.000183	1.825555	0.618515	0.000073
  36	3.4825e+00	1.3957	0.607589	0.000416	4.158208	1.408839	0.000166
  37	3.5820e+00	1.4246	0.700443	0.000233	2.332653	0.790324	0.000093
  38	3.6815e+00	1.4727	0.813483	0.000284	2.839752	0.962134	0.000114
  39	3.7810e+00	1.5144	1.003228	0.000477	4.766726	1.615011	0.000191
  40	3.8805e+00	1.5481	1.063785	0.000152	1.521296	0.515429	0.000061
  41	3.9800e+00	1.5914	1.188936	0.000314	3.144011	1.065220	0.000126
  42	4.0795e+00	1.6283	1.334273	0.000365	3.651110	1.237029	0.000146
  43	4.1790e+00	1.6716	1.487685	0.000385	3.853949	1.305753	0.000154
  44	4.2785e+00	1.7117	1.649170	0.000406	4.056788	1.374477	0.000162
  45	4.3780e+00	1.7486	1.790470	0.000355	3.549690	1.202667	0.000142
  46	4.4775e+00	1.7823	1.923695	0.000335	3.346850	1.133944	0.000134
  47	4.5770e+00	1.8385	2.032698	0.000274	2.738332	0.927772	0.000110
  48	4.6765e+00	1.8657	2.145738	0.000284	2.839752	0.962134	0.000114
  49	4.7760e+00	1.9074	2.258777	0.000284	2.839752	0.962134	0.000114
  50	4.8755e+00	1.9475	2.371817	0.000284	2.839752	0.962134	0.000114
  51	4.9750e+00	1.9925	2.448523	0.000193	1.926974	0.652877	0.000077
  52	5.0745e+00	2.0213	2.593860	0.000365	3.651110	1.237029	0.000146
  53	5.1740e+00	2.0727	2.710937	0.000294	2.941172	0.996496	0.000118
  54	5.2735e+00	2.1064	2.852236	0.000355	3.549690	1.202667	0.000142
  55	5.3730e+00	2.1497	2.969313	0.000294	2.941172	0.996496	0.000118
  56	5.4725e+00	2.1978	3.102539	0.000335	3.346850	1.133944	0.000134
  57	5.5720e+00	2.2219	3.231727	0.000325	3.245431	1.099582	0.000130
  58	5.6715e+00	2.2668	3.389175	0.000396	3.955369	1.340115	0.000158
  59	5.7710e+00	2.3101	3.526438	0.000345	3.448270	1.168306	0.000138
  60	5.8705e+00	2.3454	3.611218	0.000213	2.129814	0.721600	0.000085
  61	5.9700e+00	2.3823	3.756555	0.000365	3.651110	1.237029	0.000146
  62	6.0695e+00	2.4320	3.889780	0.000335	3.346850	1.133944	0.000134
  63	6.1690e+00	2.4769	4.079526	0.000477	4.766726	1.615011	0.000191
  64	6.2685e+00	2.5058	4.220825	0.000355	3.549690	1.202667	0.000142
  65	6.3680e+00	2.5443	4.293494	0.000183	1.825555	0.618515	0.000073
  66	6.4675e+00	2.5844	4.438831	0.000365	3.651110	1.237029	0.000146
  67	6.5670e+00	2.6309	4.551871	0.000284	2.839752	0.962134	0.000114
  68	6.6665e+00	2.6727	4.664910	0.000284	2.839752	0.962134	0.000114
  69	6.7660e+00	2.7128	4.794099	0.000325	3.245431	1.099582	0.000130
  70	6.8655e+00	2.7416	4.886953	0.000233	2.332653	0.790324	0.000093
  71	6.9650e+00	2.7930	5.032290	0.000365	3.651110	1.237029	0.000146
  72	7.0645e+00	2.8251	5.145329	0.000284	2.839752	0.962134	0.000114
  73	7.1640e+00	2.8636	5.234146	0.000223	2.231234	0.755962	0.000089
  74	7.2635e+00	2.9149	5.427929	0.000487	4.868146	1.649373	0.000195
  75	7.3630e+00	2.9438	5.516746	0.000223	2.231234	0.755962	0.000089
  76	7.4625e+00	2.9935	5.694380	0.000446	4.462467	1.511925	0.000179
  77	7.5620e+00	3.0224	5.787234	0.000233	2.332653	0.790324	0.000093
  78	7.6615e+00	3.0609	5.900274	0.000284	2.839752	0.962134	0.000114
  79	7.7610e+00	3.1010	6.045611	0.000365	3.651110	1.237029	0.000146
  80	7.8605e+00	3.1571	6.186911	0.000355	3.549690	1.202667	0.000142
  81	7.9600e+00	3.1860	6.308025	0.000304	3.042591	1.030858	0.000122
  82	8.0595e+00	3.2293	6.493733	0.000467	4.665307	1.580649	0.000187
  83	8.1590e+00	3.2598	6.659255	0.000416	4.158208	1.408839	0.000166
  84	8.2585e+00	3.3127	6.731924	0.000183	1.825555	0.618515	0.000073
  85	8.3580e+00	3.3432	6.853038	0.000304	3.042591	1.030858	0.000122
  86	8.4575e+00	3.3946	7.002412	0.000375	3.752529	1.271391	0.000150
  87	8.5570e+00	3.4315	7.091229	0.000223	2.231234	0.755962	0.000089
  88	8.6565e+00	3.4635	7.272900	0.000456	4.563887	1.546287	0.000183
  89	8.7560e+00	3.5101	7.373828	0.000254	2.535493	0.859048	0.000101
  90	8.8555e+00	3.5470	7.486868	0.000284	2.839752	0.962134	0.000114
  91	8.9550e+00	3.5903	7.636242	0.000375	3.752529	1.271391	0.000150
  92	9.0545e+00	3.6175	7.725059	0.000223	2.231234	0.755962	0.000089
  93	9.1540e+00	3.6625	7.906730	0.000456	4.563887	1.546287	0.000183
  94	9.2535e+00	3.7010	8.007659	0.000254	2.535493	0.859048	0.000101
  95	9.3530e+00	3.7475	8.197404	0.000477	4.766726	1.615011	0.000191
  96	9.4525e+00	3.7780	8.286221	0.000223	2.231234	0.755962	0.000089
  97	9.5520e+00	3.8213	8.407335	0.000304	3.042591	1.030858	0.000122
  98	9.6515e+00	3.8598	8.584969	0.000446	4.462467	1.511925	0.000179
  99	9.7510e+00	3.8967	8.698009	0.000284	2.839752	0.962134	0.000114
 100	9.8505e+00	3.9448	8.867569	0.000426	4.259628	1.443201	0.000170
 101	9.9500e+00	3.9737	9.037128	0.000426	4.259628	1.443201	0.000170
 102	1.0050e+01	4.0218	9.150168	0.000284	2.839752	0.962134	0.000114
 103	1.0149e+01	4.0587	9.271282	0.000304	3.042591	1.030858	0.000122
 104	1.0248e+01	4.1004	9.408545	0.000345	3.448270	1.168306	0.000138
 105	1.0348e+01	4.1373	9.497362	0.000223	2.231234	0.755962	0.000089
 106	1.0447e+01	4.1870	9.594253	0.000243	2.434073	0.824686	0.000097
 107	1.0547e+01	4.2239	9.735553	0.000355	3.549690	1.202667	0.000142
 108	1.0646e+01	4.2705	9.880890	0.000365	3.651110	1.237029	0.000146
 109	1.0746e+01	4.2945	10.002004	0.000304	3.042591	1.030858	0.000122
 110	1.0845e+01	4.3459	10.199823	0.000497	4.969566	1.683734	0.000199
 111	1.0945e+01	4.3828	10.248269	0.000122	1.217037	0.412343	0.000049
 112	1.1044e+01	4.4309	10.425903	0.000446	4.462467	1.511925	0.000179
 113	1.1144e+01	4.4614	10.547017	0.000304	3.042591	1.030858	0.000122
 114	1.1243e+01	4.4983	10.668131	0.000304	3.042591	1.030858	0.000122
 115	1.1343e+01	4.5448	10.793282	0.000314	3.144011	1.065220	0.000126
 116	1.1443e+01	4.5769	10.902285	0.000274	2.738332	0.927772	0.000110
 117	1.1542e+01	4.6186	11.051659	0.000375	3.752529	1.271391	0.000150
 118	1.1642e+01	4.6667	11.209107	0.000396	3.955369	1.340115	0.000158
 119	1.1741e+01	4.7004	11.370593	0.000406	4.056788	1.374477	0.000162
 120	1.1841e+01	4.7421	11.524004	0.000385	3.853949	1.305753	0.000154
 121	1.1940e+01	4.7790	11.657229	0.000335	3.346850	1.133944	0.000134
 122	1.2040e+01	4.8127	11.790455	0.000335	3.346850	1.133944	0.000134
 123	1.2139e+01	4.8576	11.871198	0.000203	2.028394	0.687239	0.000081
 124	1.2239e+01	4.8945	11.992312	0.000304	3.042591	1.030858	0.000122
 125	1.2338e+01	4.9330	12.117463	0.000314	3.144011	1.065220	0.000126
 126	1.2438e+01	4.9876	12.258763	0.000355	3.549690	1.202667	0.000142
 127	1.2537e+01	5.0164	12.363728	0.000264	2.636912	0.893410	0.000105
 128	1.2636e+01	5.0517	12.517139	0.000385	3.853949	1.305753	0.000154
 129	1.2736e+01	5.1063	12.642291	0.000314	3.144011	1.065220	0.000126
 130	1.2835e+01	5.1335	12.803776	0.000406	4.056788	1.374477	0.000162
 131	1.2935e+01	5.1801	12.920853	0.000294	2.941172	0.996496	0.000118
 132	1.3034e+01	5.2154	13.033893	0.000284	2.839752	0.962134	0.000114
 133	1.3134e+01	5.2635	13.211527	0.000446	4.462467	1.511925	0.000179
 134	1.3233e+01	5.2972	13.304381	0.000233	2.332653	0.790324	0.000093
 135	1.3333e+01	5.3341	13.445681	0.000355	3.549690	1.202667	0.000142
 136	1.3432e+01	5.3822	13.603129	0.000396	3.955369	1.340115	0.000158
 137	1.3532e+01	5.4191	13.764614	0.000406	4.056788	1.374477	0.000162
 138	1.3632e+01	5.4512	13.889766	0.000314	3.144011	1.065220	0.000126
 139	1.3731e+01	5.4977	14.051251	0.000406	4.056788	1.374477	0.000162
 140	1.3831e+01	5.5378	14.232922	0.000456	4.563887	1.546287	0.000183
 141	1.3930e+01	5.5747	14.301553	0.000172	1.724135	0.584153	0.000069
 142	1.4030e+01	5.6260	14.442853	0.000355	3.549690	1.202667	0.000142
 143	1.4129e+01	5.6565	14.495336	0.000132	1.318456	0.446705	0.000053
 144	1.4229e+01	5.6886	14.652784	0.000396	3.955369	1.340115	0.000158
 145	1.4328e+01	5.7432	14.814270	0.000406	4.056788	1.374477	0.000162
 146	1.4428e+01	5.7688	14.899049	0.000213	2.129814	0.721600	0.000085
 147	1.4527e+01	5.8169	15.068609	0.000426	4.259628	1.443201	0.000170
 148	1.4627e+01	5.8554	15.193760	0.000314	3.144011	1.065220	0.000126
 149	1.4726e+01	5.8940	15.314874	0.000304	3.042591	1.030858	0.000122
 150	1.4825e+01	5.9373	15.456174	0.000355	3.549690	1.202667	0.000142
 151	1.4925e+01	5.9790	15.629771	0.000436	4.361048	1.477563	0.000174
 152	1.5024e+01	6.0127	15.742811	0.000284	2.839752	0.962134	0.000114
 153	1.5124e+01	6.0576	15.859888	0.000294	2.941172	0.996496	0.000118
 154	1.5223e+01	6.0897	16.001187	0.000355	3.549690	1.202667	0.000142
 155	1.5323e+01	6.1346	16.158636	0.000396	3.955369	1.340115	0.000158
 156	1.5422e+01	6.1763	16.316084	0.000396	3.955369	1.340115	0.000158
 157	1.5522e+01	6.2132	16.469495	0.000385	3.853949	1.305753	0.000154
 158	1.5621e+01	6.2501	16.570424	0.000254	2.535493	0.859048	0.000101
 159	1.5721e+01	6.2934	16.744020	0.000436	4.361048	1.477563	0.000174
 160	1.5820e+01	6.3399	16.844949	0.000254	2.535493	0.859048	0.000101
 161	1.5920e+01	6.3768	16.933766	0.000223	2.231234	0.755962	0.000089
 162	1.6020e+01	6.4089	17.087177	0.000385	3.853949	1.305753	0.000154
 163	1.6119e+01	6.4506	17.240588	0.000385	3.853949	1.305753	0.000154
 164	1.6218e+01	6.4955	17.353628	0.000284	2.839752	0.962134	0.000114
 165	1.6318e+01	6.5308	17.478779	0.000314	3.144011	1.065220	0.000126
 166	1.6418e+01	6.5725	17.612005	0.000335	3.346850	1.133944	0.000134
 167	1.6517e+01	6.6062	17.753304	0.000355	3.549690	1.202667	0.000142
 168	1.6616e+01	6.6576	17.902678	0.000375	3.752529	1.271391	0.000150
 169	1.6716e+01	6.6945	18.003607	0.000254	2.535493	0.859048	0.000101
 170	1.6816e+01	6.7394	18.173167	0.000426	4.259628	1.443201	0.000170
 171	1.6915e+01	6.7715	18.294281	0.000304	3.042591	1.030858	0.000122
 172	1.7015e+01	6.8180	18.455766	0.000406	4.056788	1.374477	0.000162
 173	1.7114e+01	6.8453	18.568806	0.000284	2.839752	0.962134	0.000114
 174	1.7213e+01	6.8950	18.710106	0.000355	3.549690	1.202667	0.000142
 175	1.7313e+01	6.9287	18.859480	0.000375	3.752529	1.271391	0.000150
 176	1.7413e+01	6.9672	19.020965	0.000406	4.056788	1.374477	0.000162
 177	1.7512e+01	7.0057	19.154191	0.000335	3.346850	1.133944	0.000134
 178	1.7611e+01	7.0538	19.263193	0.000274	2.738332	0.927772	0.000110
 179	1.7711e+01	7.0859	19.396419	0.000335	3.346850	1.133944	0.000134
 180	1.7811e+01	7.1308	19.525607	0.000325	3.245431	1.099582	0.000130
 181	1.7910e+01	7.1709	19.614424	0.000223	2.231234	0.755962	0.000089
 182	1.8009e+01	7.2126	19.767835	0.000385	3.853949	1.305753	0.000154
 183	1.8109e+01	7.2479	19.880875	0.000284	2.839752	0.962134	0.000114
 184	1.8209e+01	7.2864	19.981803	0.000254	2.535493	0.859048	0.000101
 185	1.8308e+01	7.3297	20.171549	0.000477	4.766726	1.615011	0.000191
 186	1.8407e+01	7.3682	20.300737	0.000325	3.245431	1.099582	0.000130
 187	1.8507e+01	7.4083	20.462222	0.000406	4.056788	1.374477	0.000162
 188	1.8607e+01	7.4501	20.591411	0.000325	3.245431	1.099582	0.000130
 189	1.8706e+01	7.4918	20.712525	0.000304	3.042591	1.030858	0.000122
 190	1.8805e+01	7.5222	20.837676	0.000314	3.144011	1.065220	0.000126
 191	1.8905e+01	7.5656	21.019347	0.000456	4.563887	1.546287	0.000183
 192	1.9005e+01	7.6057	21.124313	0.000264	2.636912	0.893410	0.000105
 193	1.9104e+01	7.6538	21.249464	0.000314	3.144011	1.065220	0.000126
 194	1.9203e+01	7.6923	21.447284	0.000497	4.969566	1.683734	0.000199
 195	1.9303e+01	7.7228	21.580509	0.000335	3.346850	1.133944	0.000134
 196	1.9402e+01	7.7677	21.689512	0.000274	2.738332	0.927772	0.000110
 197	1.9502e+01	7.8174	21.818700	0.000325	3.245431	1.099582	0.000130
 198	1.9602e+01	7.8431	21.939814	0.000304	3.042591	1.030858	0.000122
 199	1.9701e+01	7.8896	22.069003	0.000325	3.245431	1.099582	0.000130
 200	1.9800e+01	7.9249	22.210302	0.000355	3.549690	1.202667	0.000142
 201	1.9900e+01	7.9634	22.363713	0.000385	3.853949	1.305753	0.000154
 202	2.0000e+01	8.0067	22.513087	0.000375	3.752529	1.271391	0.000150
 203	2.0099e+01	8.0500	22.630164	0.000294	2.941172	0.996496	0.000118
 204	2.0198e+01	8.0853	22.751278	0.000304	3.042591	1.030858	0.000122
 205	2.0298e+01	8.1142	22.900652	0.000375	3.752529	1.271391	0.000150
 206	2.0398e+01	8.1655	23.037915	0.000345	3.448270	1.168306	0.000138
 207	2.0497e+01	8.2024	23.154992	0.000294	2.941172	0.996496	0.000118
 208	2.0596e+01	8.2474	23.272069	0.000294	2.941172	0.996496	0.000118
 209	2.0696e+01	8.2843	23.445666	0.000436	4.361048	1.477563	0.000174
 210	2.0796e+01	8.3356	23.603114	0.000396	3.955369	1.340115	0.000158
 211	2.0895e+01	8.3661	23.708080	0.000264	2.636912	0.893410	0.000105
 212	2.0994e+01	8.3998	23.893788	0.000467	4.665307	1.580649	0.000187
 213	2.1094e+01	8.4383	24.031050	0.000345	3.448270	1.168306	0.000138
 214	2.1194e+01	8.4960	24.111793	0.000203	2.028394	0.687239	0.000081
 215	2.1293e+01	8.5201	24.212722	0.000254	2.535493	0.859048	0.000101
 216	2.1392e+01	8.5650	24.337873	0.000314	3.144011	1.065220	0.000126
 217	2.1492e+01	8.6051	24.487247	0.000375	3.752529	1.271391	0.000150
 218	2.1591e+01	8.6404	24.652769	0.000416	4.158208	1.408839	0.000166
 219	2.1691e+01	8.6869	24.777921	0.000314	3.144011	1.065220	0.000126
 220	2.1791e+01	8.7302	24.923257	0.000365	3.651110	1.237029	0.000146
 221	2.1890e+01	8.7623	25.052446	0.000325	3.245431	1.099582	0.000130
 222	2.1989e+01	8.7944	25.193746	0.000355	3.549690	1.202667	0.000142
 223	2.2089e+01	8.8506	25.310823	0.000294	2.941172	0.996496	0.000118
 224	2.2189e+01	8.8874	25.444048	0.000335	3.346850	1.133944	0.000134
 225	2.2288e+01	8.9115	25.569199	0.000314	3.144011	1.065220	0.000126
 226	2.2387e+01	8.9661	25.726647	0.000396	3.955369	1.340115	0.000158
 227	2.2487e+01	8.9981	25.867947	0.000355	3.549690	1.202667	0.000142
 228	2.2587e+01	9.0399	25.997136	0.000325	3.245431	1.099582	0.000130
 229	2.2686e+01	9.0816	26.174770	0.000446	4.462467	1.511925	0.000179
 230	2.2785e+01	9.1120	26.271661	0.000243	2.434073	0.824686	0.000097
 231	2.2885e+01	9.1570	26.425072	0.000385	3.853949	1.305753	0.000154
 232	2.2985e+01	9.1955	26.574446	0.000375	3.752529	1.271391	0.000150
 233	2.3084e+01	9.2436	26.707671	0.000335	3.346850	1.133944	0.000134
 234	2.3183e+01	9.2885	26.816674	0.000274	2.738332	0.927772	0.000110
 235	2.3283e+01	9.3158	26.974122	0.000396	3.955369	1.340115	0.000158
 236	2.3383e+01	9.3623	27.062939	0.000223	2.231234	0.755962	0.000089
 237	2.3482e+01	9.4056	27.204239	0.000355	3.549690	1.202667	0.000142
 238	2.3581e+01	9.4409	27.369762	0.000416	4.158208	1.408839	0.000166
 239	2.3681e+01	9.4794	27.442430	0.000183	1.825555	0.618515	0.000073
 240	2.3780e+01	9.5195	27.616027	0.000436	4.361048	1.477563	0.000174
 241	2.3880e+01	9.5548	27.729067	0.000284	2.839752	0.962134	0.000114
 242	2.3980e+01	9.6045	27.894589	0.000416	4.158208	1.408839	0.000166
 243	2.4079e+01	9.6446	28.043963	0.000375	3.752529	1.271391	0.000150
 244	2.4178e+01	9.6783	28.132780	0.000223	2.231234	0.755962	0.000089
 245	2.4278e+01	9.7217	28.261969	0.000325	3.245431	1.099582	0.000130
 246	2.4378e+01	9.7489	28.423454	0.000406	4.056788	1.374477	0.000162
 247	2.4477e+01	9.7906	28.536494	0.000284	2.839752	0.962134	0.000114
 248	2.4576e+01	9.8372	28.693942	0.000396	3.955369	1.340115	0.000158
 249	2.4676e+01	9.8789	28.855428	0.000406	4.056788	1.374477	0.000162
 250	2.4776e+01	9.9142	28.992690	0.000345	3.448270	1.168306	0.000138
 251	2.4875e+01	9.9607	29.101693	0.000274	2.738332	0.927772	0.000110
 252	2.4974e+01	10.0008	29.198584	0.000243	2.434073	0.824686	0.000097
 253	2.5074e+01	10.0425	29.347958	0.000375	3.752529	1.271391	0.000150
 254	2.5174e+01	10.0730	29.501369	0.000385	3.853949	1.305753	0.000154
 255	2.5273e+01	10.1211	29.574038	0.000183	1.825555	0.618515	0.000073
 256	2.5372e+01	10.1612	29.735523	0.000406	4.056788	1.374477	0.000162
 257	2.5472e+01	10.1949	29.909120	0.000436	4.361048	1.477563	0.000174
 258	2.5572e+01	10.2318	29.997937	0.000223	2.231234	0.755962	0.000089
 259	2.5671e+01	10.2783	30.151348	0.000385	3.853949	1.305753	0.000154
 260	2.5770e+01	10.3232	30.308797	0.000396	3.955369	1.340115	0.000158
 261	2.5870e+01	10.3585	30.442022	0.000335	3.346850	1.133944	0.000134
 262	2.5970e+01	10.3906	30.559099	0.000294	2.941172	0.996496	0.000118
 263	2.6069e+01	10.4420	30.680213	0.000304	3.042591	1.030858	0.000122
 264	2.6169e+01	10.4708	30.801327	0.000304	3.042591	1.030858	0.000122
 265	2.6268e+01	10.5174	30.978961	0.000446	4.462467	1.511925	0.000179
 266	2.6367e+01	10.5559	31.112187	0.000335	3.346850	1.133944	0.000134
 267	2.6467e+01	10.5863	31.301932	0.000477	4.766726	1.615011	0.000191
 268	2.6567e+01	10.6296	31.427083	0.000314	3.144011	1.065220	0.000126
 269	2.6666e+01	10.6746	31.572420	0.000365	3.651110	1.237029	0.000146
 270	2.6765e+01	10.7179	31.657200	0.000213	2.129814	0.721600	0.000085
 271	2.6865e+01	10.7532	31.790425	0.000335	3.346850	1.133944	0.000134
 272	2.6965e+01	10.7965	31.907502	0.000294	2.941172	0.996496	0.000118
 273	2.7064e+01	10.8350	32.032654	0.000314	3.144011	1.065220	0.000126
 274	2.7163e+01	10.8687	32.145693	0.000284	2.839752	0.962134	0.000114
 275	2.7263e+01	10.9104	32.286993	0.000355	3.549690	1.202667	0.000142
 276	2.7363e+01	10.9569	32.428293	0.000355	3.549690	1.202667	0.000142
 277	2.7462e+01	10.9986	32.545370	0.000294	2.941172	0.996496	0.000118
 278	2.7561e+01	11.0291	32.702818	0.000396	3.955369	1.340115	0.000158
 279	2.7661e+01	11.0708	32.819895	0.000294	2.941172	0.996496	0.000118
 280	2.7761e+01	11.1125	32.957158	0.000345	3.448270	1.168306	0.000138
 281	2.7860e+01	11.1542	33.098457	0.000355	3.549690	1.202667	0.000142
 282	2.7959e+01	11.1927	33.211497	0.000284	2.839752	0.962134	0.000114
 283	2.8059e+01	11.2409	33.348760	0.000345	3.448270	1.168306	0.000138
 284	2.8159e+01	11.2745	33.486022	0.000345	3.448270	1.168306	0.000138
 285	2.8258e+01	11.3130	33.659619	0.000436	4.361048	1.477563	0.000174
 286	2.8358e+01	11.3644	33.780733	0.000304	3.042591	1.030858	0.000122
 287	2.8457e+01	11.3949	33.913959	0.000335	3.346850	1.133944	0.000134
 288	2.8556e+01	11.4366	34.059296	0.000365	3.651110	1.237029	0.000146
 289	2.8656e+01	11.4735	34.140038	0.000203	2.028394	0.687239	0.000081
 290	2.8756e+01	11.5023	34.289412	0.000375	3.752529	1.271391	0.000150
 291	2.8855e+01	11.5489	34.398415	0.000274	2.738332	0.927772	0.000110
 292	2.8954e+01	11.5890	34.535678	0.000345	3.448270	1.168306	0.000138
 293	2.9054e+01	11.6371	34.660829	0.000314	3.144011	1.065220	0.000126
 294	2.9154e+01	11.6724	34.794054	0.000335	3.346850	1.133944	0.000134
 295	2.9253e+01	11.7077	34.939391	0.000365	3.651110	1.237029	0.000146
 296	2.9352e+01	11.7446	35.084728	0.000365	3.651110	1.237029	0.000146
 297	2.9452e+01	11.7911	35.169508	0.000213	2.129814	0.721600	0.000085
 298	2.9552e+01	11.8312	35.335031	0.000416	4.158208	1.408839	0.000166
 299	2.9651e+01	11.8777	35.468256	0.000335	3.346850	1.133944	0.000134
 300	2.9750e+01	11.9146	35.581296	0.000284	2.839752	0.962134	0.000114
 301	2.9850e+01	11.9547	35.718558	0.000345	3.448270	1.168306	0.000138
 302	2.9950e+01	11.9916	35.859858	0.000355	3.549690	1.202667	0.000142
 303	3.0049e+01	12.0253	36.041529	0.000456	4.563887	1.546287	0.000183
 304	3.0148e+01	12.0735	36.194940	0.000385	3.853949	1.305753	0.000154
 305	3.0248e+01	12.1200	36.295869	0.000254	2.535493	0.859048	0.000101
 306	3.0348e+01	12.1569	36.441206	0.000365	3.651110	1.237029	0.000146
 307	3.0447e+01	12.1906	36.530023	0.000223	2.231234	0.755962	0.000089
 308	3.0547e+01	12.2339	36.667285	0.000345	3.448270	1.168306	0.000138
 309	3.0646e+01	12.2724	36.752065	0.000213	2.129814	0.721600	0.000085
 310	3.0745e+01	12.3109	36.929699	0.000446	4.462467	1.511925	0.000179
 311	3.0845e+01	12.3526	37.042739	0.000284	2.839752	0.962134	0.000114
 312	3.0945e+01	12.3927	37.188076	0.000365	3.651110	1.237029	0.000146
 313	3.1044e+01	12.4328	37.256707	0.000172	1.724135	0.584153	0.000069
 314	3.1143e+01	12.4713	37.402044	0.000365	3.651110	1.237029	0.000146
 315	3.1243e+01	12.5114	37.551418	0.000375	3.752529	1.271391	0.000150
 316	3.1343e+01	12.5467	37.692718	0.000355	3.549690	1.202667	0.000142
 317	3.1442e+01	12.5868	37.785572	0.000233	2.332653	0.790324	0.000093
 318	3.1541e+01	12.6317	37.979354	0.000487	4.868146	1.649373	0.000195
 319	3.1641e+01	12.6702	38.035874	0.000142	1.419876	0.481067	0.000057
 320	3.1741e+01	12.7119	38.237731	0.000507	5.070985	1.718096	0.000203
 321	3.1840e+01	12.7569	38.383068	0.000365	3.651110	1.237029	0.000146
 322	3.1939e+01	12.7873	38.508219	0.000314	3.144011	1.065220	0.000126
 323	3.2039e+01	12.8210	38.669705	0.000406	4.056788	1.374477	0.000162
 324	3.2139e+01	12.8804	38.774670	0.000264	2.636912	0.893410	0.000105
 325	3.2238e+01	12.9077	38.944230	0.000426	4.259628	1.443201	0.000170
 326	3.2337e+01	12.9430	38.980564	0.000091	0.912777	0.309257	0.000037
 327	3.2437e+01	12.9847	39.133975	0.000385	3.853949	1.305753	0.000154
 328	3.2536e+01	13.0232	39.242978	0.000274	2.738332	0.927772	0.000110
 329	3.2636e+01	13.0585	39.400426	0.000396	3.955369	1.340115	0.000158
 330	3.2736e+01	13.1162	39.529615	0.000325	3.245431	1.099582	0.000130
 331	3.2835e+01	13.1483	39.662840	0.000335	3.346850	1.133944	0.000134
 332	3.2934e+01	13.1820	39.763768	0.000254	2.535493	0.859048	0.000101
 333	3.3034e+01	13.2205	39.909105	0.000365	3.651110	1.237029	0.000146
 334	3.3133e+01	13.2670	40.030219	0.000304	3.042591	1.030858	0.000122
 335	3.3233e+01	13.2911	40.155371	0.000314	3.144011	1.065220	0.000126
 336	3.3333e+01	13.3424	40.284559	0.000325	3.245431	1.099582	0.000130
 337	3.3432e+01	13.3825	40.454119	0.000426	4.259628	1.443201	0.000170
 338	3.3532e+01	13.4242	40.583307	0.000325	3.245431	1.099582	0.000130
 339	3.3631e+01	13.4675	40.716532	0.000335	3.346850	1.133944	0.000134
 340	3.3730e+01	13.4948	40.821498	0.000264	2.636912	0.893410	0.000105
 341	3.3830e+01	13.5477	41.035466	0.000538	5.375245	1.821182	0.000215
 342	3.3929e+01	13.5814	41.128320	0.000233	2.332653	0.790324	0.000093
 343	3.4029e+01	13.6312	41.241360	0.000284	2.839752	0.962134	0.000114
 344	3.4129e+01	13.6633	41.382660	0.000355	3.549690	1.202667	0.000142
 345	3.4228e+01	13.7018	41.483588	0.000254	2.535493	0.859048	0.000101
 346	3.4328e+01	13.7435	41.608739	0.000314	3.144011	1.065220	0.000126
 347	3.4427e+01	13.7788	41.721779	0.000284	2.839752	0.962134	0.000114
 348	3.4526e+01	13.8157	41.863079	0.000355	3.549690	1.202667	0.000142
 349	3.4626e+01	13.8574	41.951896	0.000223	2.231234	0.755962	0.000089
 350	3.4725e+01	13.8991	42.089159	0.000345	3.448270	1.168306	0.000138
 351	3.4825e+01	13.9424	42.226421	0.000345	3.448270	1.168306	0.000138
 352	3.4925e+01	13.9761	42.351572	0.000314	3.144011	1.065220	0.000126
 353	3.5024e+01	14.0146	42.525169	0.000436	4.361048	1.477563	0.000174
 354	3.5123e+01	14.0499	42.626098	0.000254	2.535493	0.859048	0.000101
 355	3.5223e+01	14.0980	42.755286	0.000325	3.245431	1.099582	0.000130
 356	3.5322e+01	14.1365	42.880437	0.000314	3.144011	1.065220	0.000126
 357	3.5422e+01	14.1798	43.041923	0.000406	4.056788	1.374477	0.000162
 358	3.5522e+01	14.2199	43.118628	0.000193	1.926974	0.652877	0.000077
 359	3.5621e+01	14.2568	43.292225	0.000436	4.361048	1.477563	0.000174
 360	3.5721e+01	14.2969	43.445636	0.000385	3.853949	1.305753	0.000154
 361	3.5820e+01	14.3483	43.590973	0.000365	3.651110	1.237029	0.000146
 362	3.5919e+01	14.3836	43.708050	0.000294	2.941172	0.996496	0.000118
 363	3.6019e+01	14.4124	43.760533	0.000132	1.318456	0.446705	0.000053
 364	3.6118e+01	14.4638	43.917981	0.000396	3.955369	1.340115	0.000158
 365	3.6218e+01	14.4926	44.043132	0.000314	3.144011	1.065220	0.000126
 366	3.6318e+01	14.5456	44.188469	0.000365	3.651110	1.237029	0.000146
 367	3.6417e+01	14.5712	44.289398	0.000254	2.535493	0.859048	0.000101
 368	3.6517e+01	14.6242	44.450883	0.000406	4.056788	1.374477	0.000162
 369	3.6616e+01	14.6499	44.576034	0.000314	3.144011	1.065220	0.000126
 370	3.6715e+01	14.7028	44.729445	0.000385	3.853949	1.305753	0.000154
 371	3.6815e+01	14.7333	44.862671	0.000335	3.346850	1.133944	0.000134
 372	3.6914e+01	14.7718	44.959562	0.000243	2.434073	0.824686	0.000097
 373	3.7014e+01	14.8167	45.088750	0.000325	3.245431	1.099582	0.000130
 374	3.7114e+01	14.8632	45.234087	0.000365	3.651110	1.237029	0.000146
 375	3.7213e+01	14.8905	45.343090	0.000274	2.738332	0.927772	0.000110
 376	3.7313e+01	14.9418	45.496501	0.000385	3.853949	1.305753	0.000154
 377	3.7412e+01	14.9755	45.670098	0.000436	4.361048	1.477563	0.000174
 378	3.7511e+01	15.0156	45.831583	0.000406	4.056788	1.374477	0.000162
 379	3.7611e+01	15.0525	45.920400	0.000223	2.231234	0.755962	0.000089
 380	3.7711e+01	15.0958	46.037477	0.000294	2.941172	0.996496	0.000118
 381	3.7810e+01	15.1407	46.162629	0.000314	3.144011	1.065220	0.000126
 382	3.7910e+01	15.1760	46.231260	0.000172	1.724135	0.584153	0.000069
 383	3.8009e+01	15.2081	46.352374	0.000304	3.042591	1.030858	0.000122
 384	3.8108e+01	15.2611	46.530008	0.000446	4.462467	1.511925	0.000179
 385	3.8208e+01	15.2915	46.655159	0.000314	3.144011	1.065220	0.000126
 386	3.8307e+01	15.3413	46.748013	0.000233	2.332653	0.790324	0.000093
 387	3.8407e+01	15.3814	46.877202	0.000325	3.245431	1.099582	0.000130
 388	3.8507e+01	15.4215	47.022539	0.000365	3.651110	1.237029	0.000146
 389	3.8606e+01	15.4584	47.167875	0.000365	3.651110	1.237029	0.000146
 390	3.8706e+01	15.4921	47.301101	0.000335	3.346850	1.133944	0.000134
 391	3.8805e+01	15.5306	47.458549	0.000396	3.955369	1.340115	0.000158
 392	3.8904e+01	15.5755	47.551403	0.000233	2.332653	0.790324	0.000093
 393	3.9004e+01	15.6188	47.696740	0.000365	3.651110	1.237029	0.000146
 394	3.9103e+01	15.6589	47.813817	0.000294	2.941172	0.996496	0.000118
 395	3.9203e+01	15.6942	47.975303	0.000406	4.056788	1.374477	0.000162
 396	3.9303e+01	15.7359	48.104491	0.000325	3.245431	1.099582	0.000130
 397	3.9402e+01	15.7696	48.265976	0.000406	4.056788	1.374477	0.000162
 398	3.9502e+01	15.8145	48.403239	0.000345	3.448270	1.168306	0.000138
 399	3.9601e+01	15.8627	48.488019	0.000213	2.129814	0.721600	0.000085
 400	3.9700e+01	15.8931	48.625281	0.000345	3.448270	1.168306	0.000138
 401	3.9800e+01	15.9364	48.710061	0.000213	2.129814	0.721600	0.000085
 402	3.9900e+01	15.9605	48.823101	0.000284	2.839752	0.962134	0.000114
 403	3.9999e+01	16.0054	48.960364	0.000345	3.448270	1.168306	0.000138
 404	4.0099e+01	16.0536	49.065329	0.000264	2.636912	0.893410	0.000105
 405	4.0198e+01	16.0985	49.198555	0.000335	3.346850	1.133944	0.000134
 406	4.0297e+01	16.1370	49.311594	0.000284	2.839752	0.962134	0.000114
 407	4.0397e+01	16.1771	49.465006	0.000385	3.853949	1.305753	0.000154
 408	4.0496e+01	16.2108	49.594194	0.000325	3.245431	1.099582	0.000130
 409	4.0596e+01	16.2557	49.703197	0.000274	2.738332	0.927772	0.000110
 410	4.0696e+01	16.2926	49.856608	0.000385	3.853949	1.305753	0.000154
 411	4.0795e+01	16.3263	49.993870	0.000345	3.448270	1.168306	0.000138
 412	4.0895e+01	16.3712	50.102873	0.000274	2.738332	0.927772	0.000110
 413	4.0994e+01	16.4097	50.260321	0.000396	3.955369	1.340115	0.000158
 414	4.1093e+01	16.4562	50.413733	0.000385	3.853949	1.305753	0.000154
 415	4.1193e+01	16.4867	50.546958	0.000335	3.346850	1.133944	0.000134
 416	4.1292e+01	16.5284	50.668072	0.000304	3.042591	1.030858	0.000122
 417	4.1392e+01	16.5701	50.821483	0.000385	3.853949	1.305753	0.000154
 418	4.1492e+01	16.6070	50.914337	0.000233	2.332653	0.790324	0.000093
 419	4.1591e+01	16.6551	51.051600	0.000345	3.448270	1.168306	0.000138
 420	4.1691e+01	16.6985	51.172714	0.000304	3.042591	1.030858	0.000122
 421	4.1790e+01	16.7321	51.221160	0.000122	1.217037	0.412343	0.000049
 422	4.1889e+01	16.7690	51.370534	0.000375	3.752529	1.271391	0.000150
 423	4.1989e+01	16.8075	51.467425	0.000243	2.434073	0.824686	0.000097
 424	4.2089e+01	16.8541	51.645059	0.000446	4.462467	1.511925	0.000179
 425	4.2188e+01	16.8926	51.733876	0.000223	2.231234	0.755962	0.000089
 426	4.2288e+01	16.9311	51.854990	0.000304	3.042591	1.030858	0.000122
 427	4.2387e+01	16.9680	51.988215	0.000335	3.346850	1.133944	0.000134
 428	4.2486e+01	16.9985	52.089144	0.000254	2.535493	0.859048	0.000101
 429	4.2586e+01	17.0482	52.291001	0.000507	5.070985	1.718096	0.000203
 430	4.2685e+01	17.0931	52.436338	0.000365	3.651110	1.237029	0.000146
 431	4.2785e+01	17.1156	52.545340	0.000274	2.738332	0.927772	0.000110
 432	4.2885e+01	17.1717	52.686640	0.000355	3.549690	1.202667	0.000142
 433	4.2984e+01	17.2118	52.799680	0.000284	2.839752	0.962134	0.000114
 434	4.3084e+01	17.2423	52.936942	0.000345	3.448270	1.168306	0.000138
 435	4.3183e+01	17.2808	53.098428	0.000406	4.056788	1.374477	0.000162
 436	4.3282e+01	17.3273	53.183208	0.000213	2.129814	0.721600	0.000085
 437	4.3382e+01	17.3658	53.328545	0.000365	3.651110	1.237029	0.000146
 438	4.3481e+01	17.4075	53.445621	0.000294	2.941172	0.996496	0.000118
 439	4.3581e+01	17.4508	53.607107	0.000406	4.056788	1.374477	0.000162
 440	4.3681e+01	17.4861	53.651515	0.000112	1.115617	0.377981	0.000045
 441	4.3780e+01	17.5327	53.788778	0.000345	3.448270	1.168306	0.000138
 442	4.3880e+01	17.5728	53.877595	0.000223	2.231234	0.755962	0.000089
 443	4.3979e+01	17.5984	54.022932	0.000365	3.651110	1.237029	0.000146
 444	4.4078e+01	17.6434	54.144046	0.000304	3.042591	1.030858	0.000122
 445	4.4178e+01	17.6851	54.273234	0.000325	3.245431	1.099582	0.000130
 446	4.4278e+01	17.7236	54.390311	0.000294	2.941172	0.996496	0.000118
 447	4.4377e+01	17.7717	54.551797	0.000406	4.056788	1.374477	0.000162
 448	4.4477e+01	17.8054	54.689059	0.000345	3.448270	1.168306	0.000138
 449	4.4576e+01	17.8471	54.834396	0.000365	3.651110	1.237029	0.000146
 450	4.4675e+01	17.8872	54.951473	0.000294	2.941172	0.996496	0.000118
 451	4.4775e+01	17.9209	55.100847	0.000375	3.752529	1.271391	0.000150
 452	4.4874e+01	17.9690	55.213887	0.000284	2.839752	0.962134	0.000114
 453	4.4974e+01	18.0011	55.343075	0.000325	3.245431	1.099582	0.000130
 454	4.5074e+01	18.0460	55.472264	0.000325	3.245431	1.099582	0.000130
 455	4.5173e+01	18.0781	55.589341	0.000294	2.941172	0.996496	0.000118
 456	4.5273e+01	18.1198	55.670083	0.000203	2.028394	0.687239	0.000081
 457	4.5372e+01	18.1679	55.839643	0.000426	4.259628	1.443201	0.000170
 458	4.5471e+01	18.2080	55.924423	0.000213	2.129814	0.721600	0.000085
 459	4.5571e+01	18.2465	56.013240	0.000223	2.231234	0.755962	0.000089
 460	4.5670e+01	18.2818	56.126280	0.000284	2.839752	0.962134	0.000114
 461	4.5770e+01	18.3316	56.279691	0.000385	3.853949	1.305753	0.000154
 462	4.5870e+01	18.3637	56.380619	0.000254	2.535493	0.859048	0.000101
 463	4.5969e+01	18.4070	56.534030	0.000385	3.853949	1.305753	0.000154
 464	4.6069e+01	18.4455	56.651107	0.000294	2.941172	0.996496	0.000118
 465	4.6168e+01	18.4840	56.727813	0.000193	1.926974	0.652877	0.000077
 466	4.6267e+01	18.5161	56.893335	0.000416	4.158208	1.408839	0.000166
 467	4.6367e+01	18.5690	57.066932	0.000436	4.361048	1.477563	0.000174
 468	4.6467e+01	18.5995	57.184009	0.000294	2.941172	0.996496	0.000118
 469	4.6566e+01	18.6364	57.341457	0.000396	3.955369	1.340115	0.000158
 470	4.6666e+01	18.6765	57.466609	0.000314	3.144011	1.065220	0.000126
 471	4.6765e+01	18.7214	57.607908	0.000355	3.549690	1.202667	0.000142
 472	4.6864e+01	18.7647	57.712874	0.000264	2.636912	0.893410	0.000105
 473	4.6964e+01	18.7968	57.829951	0.000294	2.941172	0.996496	0.000118
 474	4.7063e+01	18.8417	57.947028	0.000294	2.941172	0.996496	0.000118
 475	4.7163e+01	18.8754	58.080253	0.000335	3.346850	1.133944	0.000134
 476	4.7263e+01	18.9267	58.173107	0.000233	2.332653	0.790324	0.000093
 477	4.7362e+01	18.9604	58.298259	0.000314	3.144011	1.065220	0.000126
 478	4.7462e+01	19.0086	58.391113	0.000233	2.332653	0.790324	0.000093
 479	4.7561e+01	19.0374	58.467818	0.000193	1.926974	0.652877	0.000077
 480	4.7660e+01	19.0759	58.641415	0.000436	4.361048	1.477563	0.000174
 481	4.7760e+01	19.1225	58.778678	0.000345	3.448270	1.168306	0.000138
 482	4.7859e+01	19.1626	58.871532	0.000233	2.332653	0.790324	0.000093
 483	4.7959e+01	19.2059	59.041092	0.000426	4.259628	1.443201	0.000170
 484	4.8059e+01	19.2380	59.125871	0.000213	2.129814	0.721600	0.000085
 485	4.8158e+01	19.2829	59.299468	0.000436	4.361048	1.477563	0.000174
 486	4.8258e+01	19.3198	59.444805	0.000365	3.651110	1.237029	0.000146
 487	4.8357e+01	19.3551	59.541696	0.000243	2.434073	0.824686	0.000097
 488	4.8456e+01	19.3952	59.666848	0.000314	3.144011	1.065220	0.000126
 489	4.8556e+01	19.4385	59.852556	0.000467	4.665307	1.580649	0.000187
 490	4.8656e+01	19.4834	59.957521	0.000264	2.636912	0.893410	0.000105
 491	4.8755e+01	19.5155	60.062487	0.000264	2.636912	0.893410	0.000105
 492	4.8855e+01	19.5652	60.211861	0.000375	3.752529	1.271391	0.000150
 493	4.8954e+01	19.5925	60.341049	0.000325	3.245431	1.099582	0.000130
 494	4.9053e+01	19.6486	60.466201	0.000314	3.144011	1.065220	0.000126
 495	4.9153e+01	19.6791	60.538869	0.000183	1.825555	0.618515	0.000073
 496	4.9252e+01	19.7321	60.619612	0.000203	2.028394	0.687239	0.000081
 497	4.9352e+01	19.7593	60.732651	0.000284	2.839752	0.962134	0.000114
 498	4.9452e+01	19.7978	60.869914	0.000345	3.448270	1.168306	0.000138
 499	4.9551e+01	19.8347	60.954694	0.000213	2.129814	0.721600	0.000085
 500	4.9651e+01	19.8764	61.112142	0.000396	3.955369	1.340115	0.000158
 501	4.9750e+01	19.9085	61.241331	0.000325	3.245431	1.099582	0.000130
 502	4.9849e+01	19.9486	61.378593	0.000345	3.448270	1.168306	0.000138
 503	4.9949e+01	19.9871	61.519893	0.000355	3.549690	1.202667	0.000142
 504	5.0048e+01	19.9502	61.467410	0.000132	1.318456	0.446705	-0.000053
 505	5.0148e+01	19.9117	61.362445	0.000264	2.636912	0.893410	-0.000105
 506	5.0248e+01	19.8797	61.269591	0.000233	2.332653	0.790324	-0.000093
 507	5.0347e+01	19.8363	61.192885	0.000193	1.926974	0.652877	-0.000077
 508	5.0447e+01	19.7914	61.112142	0.000203	2.028394	0.687239	-0.000081
 509	5.0546e+01	19.7658	61.063697	0.000122	1.217037	0.412343	-0.000049
 510	5.0645e+01	19.7192	60.914323	0.000375	3.752529	1.271391	-0.000150
 511	5.0745e+01	19.6823	60.813394	0.000254	2.535493	0.859048	-0.000101
 512	5.0844e+01	19.6310	60.700354	0.000284	2.839752	0.962134	-0.000114
 513	5.0944e+01	19.5861	60.603463	0.000243	2.434073	0.824686	-0.000097
 514	5.1044e+01	19.5636	60.474275	0.000325	3.245431	1.099582	-0.000130
 515	5.1143e+01	19.5203	60.393532	0.000203	2.028394	0.687239	-0.000081
 516	5.1242e+01	19.4754	60.252232	0.000355	3.549690	1.202667	-0.000142
 517	5.1342e+01	19.4369	60.159378	0.000233	2.332653	0.790324	-0.000093
 518	5.1441e+01	19.4016	60.042301	0.000294	2.941172	0.996496	-0.000118
 519	5.1541e+01	19.3663	59.957521	0.000213	2.129814	0.721600	-0.000085
 520	5.1641e+01	19.3198	59.832370	0.000314	3.144011	1.065220	-0.000126
 521	5.1740e+01	19.2845	59.771813	0.000152	1.521296	0.515429	-0.000061
 522	5.1840e+01	19.2380	59.687033	0.000213	2.129814	0.721600	-0.000085
 523	5.1939e+01	19.1979	59.622439	0.000162	1.622715	0.549791	-0.000065
 524	5.2038e+01	19.1561	59.525548	0.000243	2.434073	0.824686	-0.000097
 525	5.2138e+01	19.1241	59.400397	0.000314	3.144011	1.065220	-0.000126
 526	5.2237e+01	19.0775	59.319654	0.000203	2.028394	0.687239	-0.000081
 527	5.2337e+01	19.0358	59.226800	0.000233	2.332653	0.790324	-0.000093
 528	5.2437e+01	19.0102	59.129909	0.000243	2.434073	0.824686	-0.000097
 529	5.2536e+01	18.9556	59.000720	0.000325	3.245431	1.099582	-0.000130
 530	5.2636e+01	18.9283	58.907866	0.000233	2.332653	0.790324	-0.000093
 531	5.2735e+01	18.8818	58.823086	0.000213	2.129814	0.721600	-0.000085
 532	5.2834e+01	18.8401	58.726195	0.000243	2.434073	0.824686	-0.000097
 533	5.2934e+01	18.7984	58.584895	0.000355	3.549690	1.202667	-0.000142
 534	5.3033e+01	18.7679	58.459744	0.000314	3.144011	1.065220	-0.000126
 535	5.3133e+01	18.7214	58.362853	0.000243	2.434073	0.824686	-0.000097
 536	5.3233e+01	18.6829	58.241739	0.000304	3.042591	1.030858	-0.000122
 537	5.3332e+01	18.6476	58.120625	0.000304	3.042591	1.030858	-0.000122
 538	5.3431e+01	18.6075	57.987399	0.000335	3.346850	1.133944	-0.000134
 539	5.3531e+01	18.5610	57.898582	0.000223	2.231234	0.755962	-0.000089
 540	5.3630e+01	18.5209	57.825914	0.000183	1.825555	0.618515	-0.000073
 541	5.3730e+01	18.4856	57.757282	0.000172	1.724135	0.584153	-0.000069
 542	5.3830e+01	18.4471	57.676540	0.000203	2.028394	0.687239	-0.000081
 543	5.3929e+01	18.4054	57.583686	0.000233	2.332653	0.790324	-0.000093
 544	5.4029e+01	18.3685	57.450460	0.000335	3.346850	1.133944	-0.000134
 545	5.4128e+01	18.3219	57.353569	0.000243	2.434073	0.824686	-0.000097
 546	5.4227e+01	18.2931	57.224381	0.000325	3.245431	1.099582	-0.000130
 547	5.4327e+01	18.2449	57.087118	0.000345	3.448270	1.168306	-0.000138
 548	5.4426e+01	18.2000	57.046747	0.000101	1.014197	0.343619	-0.000041
 549	5.4526e+01	18.1663	56.897373	0.000375	3.752529	1.271391	-0.000150
 550	5.4626e+01	18.1262	56.784333	0.000284	2.839752	0.962134	-0.000114
 551	5.4725e+01	18.0829	56.707627	0.000193	1.926974	0.652877	-0.000077
 552	5.4825e+01	18.0476	56.570365	0.000345	3.448270	1.168306	-0.000138
 553	5.4924e+01	18.0091	56.437139	0.000335	3.346850	1.133944	-0.000134
 554	5.5023e+01	17.9610	56.307951	0.000325	3.245431	1.099582	-0.000130
 555	5.5123e+01	17.9289	56.219134	0.000223	2.231234	0.755962	-0.000089
 556	5.5222e+01	17.8872	56.093983	0.000314	3.144011	1.065220	-0.000126
 557	5.5322e+01	17.8519	55.993054	0.000254	2.535493	0.859048	-0.000101
 558	5.5422e+01	17.8086	55.900200	0.000233	2.332653	0.790324	-0.000093
 559	5.5521e+01	17.7669	55.799272	0.000254	2.535493	0.859048	-0.000101
 560	5.5620e+01	17.7252	55.710455	0.000223	2.231234	0.755962	-0.000089
 561	5.5720e+01	17.6883	55.601452	0.000274	2.738332	0.927772	-0.000110
 562	5.5819e+01	17.6578	55.488412	0.000284	2.839752	0.962134	-0.000114
 563	5.5919e+01	17.6081	55.387484	0.000254	2.535493	0.859048	-0.000101
 564	5.6019e+01	17.5728	55.294630	0.000233	2.332653	0.790324	-0.000093
 565	5.6118e+01	17.5327	55.193701	0.000254	2.535493	0.859048	-0.000101
 566	5.6218e+01	17.4845	55.076624	0.000294	2.941172	0.996496	-0.000118
 567	5.6317e+01	17.4396	54.963585	0.000284	2.839752	0.962134	-0.000114
 568	5.6416e+01	17.4091	54.878805	0.000213	2.129814	0.721600	-0.000085
 569	5.6516e+01	17.3690	54.737505	0.000355	3.549690	1.202667	-0.000142
 570	5.6615e+01	17.3353	54.624465	0.000284	2.839752	0.962134	-0.000114
 571	5.6715e+01	17.2920	54.487202	0.000345	3.448270	1.168306	-0.000138
 572	5.6815e+01	17.2439	54.358014	0.000325	3.245431	1.099582	-0.000130
 573	5.6914e+01	17.2086	54.220752	0.000345	3.448270	1.168306	-0.000138
 574	5.7014e+01	17.1717	54.135972	0.000213	2.129814	0.721600	-0.000085
 575	5.7113e+01	17.1364	54.006783	0.000325	3.245431	1.099582	-0.000130
 576	5.7212e+01	17.0963	53.917966	0.000223	2.231234	0.755962	-0.000089
 577	5.7312e+01	17.0402	53.837224	0.000203	2.028394	0.687239	-0.000081
 578	5.7411e+01	17.0065	53.683812	0.000385	3.853949	1.305753	-0.000154
 579	5.7511e+01	16.9680	53.627293	0.000142	1.419876	0.481067	-0.000057
 580	5.7611e+01	16.9263	53.558661	0.000172	1.724135	0.584153	-0.000069
 581	5.7710e+01	16.8910	53.401213	0.000396	3.955369	1.340115	-0.000158
 582	5.7809e+01	16.8477	53.296247	0.000264	2.636912	0.893410	-0.000105
 583	5.7909e+01	16.8188	53.187245	0.000274	2.738332	0.927772	-0.000110
 584	5.8008e+01	16.7755	53.078242	0.000274	2.738332	0.927772	-0.000110
 585	5.8108e+01	16.7257	53.005574	0.000183	1.825555	0.618515	-0.000073
 586	5.8208e+01	16.6904	52.823903	0.000456	4.563887	1.546287	-0.000183
 587	5.8307e+01	16.6471	52.727011	0.000243	2.434073	0.824686	-0.000097
 588	5.8407e+01	16.6150	52.650306	0.000193	1.926974	0.652877	-0.000077
 589	5.8506e+01	16.5781	52.521117	0.000325	3.245431	1.099582	-0.000130
 590	5.8605e+01	16.5396	52.379818	0.000355	3.549690	1.202667	-0.000142
 591	5.8705e+01	16.4947	52.222369	0.000396	3.955369	1.340115	-0.000158
 592	5.8804e+01	16.4562	52.068958	0.000385	3.853949	1.305753	-0.000154
 593	5.8904e+01	16.4145	52.016475	0.000132	1.318456	0.446705	-0.000053
 594	5.9004e+01	16.3680	51.879213	0.000345	3.448270	1.168306	-0.000138
 595	5.9103e+01	16.3359	51.741950	0.000345	3.448270	1.168306	-0.000138
 596	5.9203e+01	16.2910	51.669282	0.000183	1.825555	0.618515	-0.000073
 597	5.9302e+01	16.2396	51.540093	0.000325	3.245431	1.099582	-0.000130
 598	5.9401e+01	16.2124	51.495685	0.000112	1.115617	0.377981	-0.000045
 599	5.9501e+01	16.1739	51.374571	0.000304	3.042591	1.030858	-0.000122
 600	5.9600e+01	16.1209	51.257494	0.000294	2.941172	0.996496	-0.000118
 601	5.9700e+01	16.0969	51.168677	0.000223	2.231234	0.755962	-0.000089
 602	5.9800e+01	16.0487	51.087934	0.000203	2.028394	0.687239	-0.000081
 603	5.9899e+01	16.0118	50.958746	0.000325	3.245431	1.099582	-0.000130
 604	5.9998e+01	15.9717	50.833595	0.000314	3.144011	1.065220	-0.000126
 605	6.0098e+01	15.9429	50.740741	0.000233	2.332653	0.790324	-0.000093
 606	6.0197e+01	15.8899	50.615589	0.000314	3.144011	1.065220	-0.000126
 607	6.0297e+01	15.8562	50.474290	0.000355	3.549690	1.202667	-0.000142
 608	6.0397e+01	15.8225	50.381435	0.000233	2.332653	0.790324	-0.000093
 609	6.0496e+01	15.7792	50.244173	0.000345	3.448270	1.168306	-0.000138
 610	6.0596e+01	15.7391	50.070576	0.000436	4.361048	1.477563	-0.000174
 611	6.0695e+01	15.6958	49.945425	0.000314	3.144011	1.065220	-0.000126
 612	6.0794e+01	15.6589	49.816236	0.000325	3.245431	1.099582	-0.000130
 613	6.0894e+01	15.6108	49.747605	0.000172	1.724135	0.584153	-0.000069
 614	6.0993e+01	15.5707	49.569971	0.000446	4.462467	1.511925	-0.000179
 615	6.1093e+01	15.5306	49.513451	0.000142	1.419876	0.481067	-0.000057
 616	6.1193e+01	15.4969	49.412523	0.000254	2.535493	0.859048	-0.000101
 617	6.1292e+01	15.4552	49.323706	0.000223	2.231234	0.755962	-0.000089
 618	6.1392e+01	15.4054	49.206629	0.000294	2.941172	0.996496	-0.000118
 619	6.1491e+01	15.3702	49.081478	0.000314	3.144011	1.065220	-0.000126
 620	6.1590e+01	15.3252	48.928067	0.000385	3.853949	1.305753	-0.000154
 621	6.1690e+01	15.2996	48.863472	0.000162	1.622715	0.549791	-0.000065
 622	6.1789e+01	15.2530	48.746395	0.000294	2.941172	0.996496	-0.000118
 623	6.1889e+01	15.2129	48.597021	0.000375	3.752529	1.271391	-0.000150
 624	6.1989e+01	15.1776	48.483982	0.000284	2.839752	0.962134	-0.000114
 625	6.2088e+01	15.1359	48.374979	0.000274	2.738332	0.927772	-0.000110
 626	6.2188e+01	15.0894	48.298273	0.000193	1.926974	0.652877	-0.000077
 627	6.2287e+01	15.0573	48.177159	0.000304	3.042591	1.030858	-0.000122
 628	6.2386e+01	15.0108	48.031822	0.000365	3.651110	1.237029	-0.000146
 629	6.2486e+01	14.9771	47.858226	0.000436	4.361048	1.477563	-0.000174
 630	6.2586e+01	14.9338	47.741149	0.000294	2.941172	0.996496	-0.000118
 631	6.2685e+01	14.8857	47.636183	0.000264	2.636912	0.893410	-0.000105
 632	6.2785e+01	14.8552	47.458549	0.000446	4.462467	1.511925	-0.000179
 633	6.2884e+01	14.8199	47.406066	0.000132	1.318456	0.446705	-0.000053
 634	6.2983e+01	14.7782	47.313212	0.000233	2.332653	0.790324	-0.000093
 635	6.3083e+01	14.7236	47.208247	0.000264	2.636912	0.893410	-0.000105
 636	6.3182e+01	14.6964	47.111355	0.000243	2.434073	0.824686	-0.000097
 637	6.3282e+01	14.6531	46.953907	0.000396	3.955369	1.340115	-0.000158
 638	6.3382e+01	14.6274	46.857016	0.000243	2.434073	0.824686	-0.000097
 639	6.3481e+01	14.5777	46.743976	0.000284	2.839752	0.962134	-0.000114
 640	6.3581e+01	14.5327	46.651122	0.000233	2.332653	0.790324	-0.000093
 641	6.3680e+01	14.5055	46.517897	0.000335	3.346850	1.133944	-0.000134
 642	6.3779e+01	14.4573	46.396782	0.000304	3.042591	1.030858	-0.000122
 643	6.3879e+01	14.4156	46.219148	0.000446	4.462467	1.511925	-0.000179
 644	6.3978e+01	14.3691	46.150517	0.000172	1.724135	0.584153	-0.000069
 645	6.4078e+01	14.3450	46.037477	0.000284	2.839752	0.962134	-0.000114
 646	6.4177e+01	14.3017	45.924438	0.000284	2.839752	0.962134	-0.000114
 647	6.4277e+01	14.2552	45.746804	0.000446	4.462467	1.511925	-0.000179
 648	6.4376e+01	14.2231	45.625690	0.000304	3.042591	1.030858	-0.000122
 649	6.4476e+01	14.1814	45.504575	0.000304	3.042591	1.030858	-0.000122
 650	6.4576e+01	14.1574	45.419796	0.000213	2.129814	0.721600	-0.000085
 651	6.4675e+01	14.1060	45.298682	0.000304	3.042591	1.030858	-0.000122
 652	6.4775e+01	14.0611	45.165456	0.000335	3.346850	1.133944	-0.000134
 653	6.4874e+01	14.0194	45.028193	0.000345	3.448270	1.168306	-0.000138
 654	6.4974e+01	13.9857	44.967636	0.000152	1.521296	0.515429	-0.000061
 655	6.5073e+01	13.9360	44.858634	0.000274	2.738332	0.927772	-0.000110
 656	6.5172e+01	13.8943	44.713297	0.000365	3.651110	1.237029	-0.000146
 657	6.5272e+01	13.8542	44.584109	0.000325	3.245431	1.099582	-0.000130
 658	6.5371e+01	13.8221	44.499329	0.000213	2.129814	0.721600	-0.000085
 659	6.5471e+01	13.7772	44.366103	0.000335	3.346850	1.133944	-0.000134
 660	6.5570e+01	13.7403	44.285360	0.000203	2.028394	0.687239	-0.000081
 661	6.5670e+01	13.7066	44.160209	0.000314	3.144011	1.065220	-0.000126
 662	6.5769e+01	13.6616	43.994687	0.000416	4.158208	1.408839	-0.000166
 663	6.5869e+01	13.6215	43.909907	0.000213	2.129814	0.721600	-0.000085
 664	6.5969e+01	13.5879	43.772644	0.000345	3.448270	1.168306	-0.000138
 665	6.6068e+01	13.5317	43.619233	0.000385	3.853949	1.305753	-0.000154
 666	6.6168e+01	13.5012	43.498119	0.000304	3.042591	1.030858	-0.000122
 667	6.6267e+01	13.4659	43.332596	0.000416	4.158208	1.408839	-0.000166
 668	6.6367e+01	13.4290	43.255891	0.000193	1.926974	0.652877	-0.000077
 669	6.6466e+01	13.3857	43.154962	0.000254	2.535493	0.859048	-0.000101
 670	6.6566e+01	13.3408	43.037886	0.000294	2.941172	0.996496	-0.000118
 671	6.6665e+01	13.2991	42.924846	0.000284	2.839752	0.962134	-0.000114
 672	6.6764e+01	13.2622	42.807769	0.000294	2.941172	0.996496	-0.000118
 673	6.6864e+01	13.2237	42.698766	0.000274	2.738332	0.927772	-0.000110
 674	6.6963e+01	13.1900	42.585726	0.000284	2.839752	0.962134	-0.000114
 675	6.7063e+01	13.1515	42.464612	0.000304	3.042591	1.030858	-0.000122
 676	6.7162e+01	13.1002	42.315238	0.000375	3.752529	1.271391	-0.000150
 677	6.7262e+01	13.0552	42.218347	0.000243	2.434073	0.824686	-0.000097
 678	6.7362e+01	13.0183	42.093196	0.000314	3.144011	1.065220	-0.000126
 679	6.7461e+01	12.9895	41.923636	0.000426	4.259628	1.443201	-0.000170
 680	6.7561e+01	12.9478	41.867116	0.000142	1.419876	0.481067	-0.000057
 681	6.7660e+01	12.9077	41.693519	0.000436	4.361048	1.477563	-0.000174
 682	6.7760e+01	12.8676	41.576442	0.000294	2.941172	0.996496	-0.000118
 683	6.7859e+01	12.8226	41.439180	0.000345	3.448270	1.168306	-0.000138
 684	6.7959e+01	12.7970	41.309991	0.000325	3.245431	1.099582	-0.000130
 685	6.8058e+01	12.7601	41.176766	0.000335	3.346850	1.133944	-0.000134
 686	6.8157e+01	12.7071	41.079875	0.000243	2.434073	0.824686	-0.000097
 687	6.8257e+01	12.6638	40.942612	0.000345	3.448270	1.168306	-0.000138
 688	6.8356e+01	12.6317	40.873981	0.000172	1.724135	0.584153	-0.000069
 689	6.8456e+01	12.5916	40.744792	0.000325	3.245431	1.099582	-0.000130
 690	6.8555e+01	12.5515	40.623678	0.000304	3.042591	1.030858	-0.000122
 691	6.8655e+01	12.5082	40.506601	0.000294	2.941172	0.996496	-0.000118
 692	6.8754e+01	12.4617	40.365302	0.000355	3.549690	1.202667	-0.000142
 693	6.8854e+01	12.4280	40.256299	0.000274	2.738332	0.927772	-0.000110
 694	6.8954e+01	12.3927	40.143259	0.000284	2.839752	0.962134	-0.000114
 695	6.9053e+01	12.3478	40.014071	0.000325	3.245431	1.099582	-0.000130
 696	6.9153e+01	12.3109	39.896994	0.000294	2.941172	0.996496	-0.000118
 697	6.9252e+01	12.2628	39.796066	0.000254	2.535493	0.859048	-0.000101
 698	6.9352e+01	12.2307	39.695137	0.000254	2.535493	0.859048	-0.000101
 699	6.9451e+01	12.1858	39.537689	0.000396	3.955369	1.340115	-0.000158
 700	6.9550e+01	12.1569	39.436760	0.000254	2.535493	0.859048	-0.000101
 701	6.9650e+01	12.1136	39.319684	0.000294	2.941172	0.996496	-0.000118
 702	6.9749e+01	12.0831	39.142050	0.000446	4.462467	1.511925	-0.000179
 703	6.9849e+01	12.0366	39.004787	0.000345	3.448270	1.168306	-0.000138
 704	6.9948e+01	11.9932	38.875599	0.000325	3.245431	1.099582	-0.000130
 705	7.0048e+01	11.9387	38.750447	0.000314	3.144011	1.065220	-0.000126
 706	7.0147e+01	11.9114	38.685853	0.000162	1.622715	0.549791	-0.000065
 707	7.0247e+01	11.8665	38.580888	0.000264	2.636912	0.893410	-0.000105
 708	7.0347e+01	11.8312	38.447662	0.000335	3.346850	1.133944	-0.000134
 709	7.0446e+01	11.7959	38.310400	0.000345	3.448270	1.168306	-0.000138
 710	7.0546e+01	11.7478	38.189286	0.000304	3.042591	1.030858	-0.000122
 711	7.0645e+01	11.7109	38.064134	0.000314	3.144011	1.065220	-0.000126
 712	7.0745e+01	11.6676	37.947057	0.000294	2.941172	0.996496	-0.000118
 713	7.0844e+01	11.6339	37.858240	0.000223	2.231234	0.755962	-0.000089
 714	7.0944e+01	11.5906	37.729052	0.000325	3.245431	1.099582	-0.000130
 715	7.1043e+01	11.5505	37.620049	0.000274	2.738332	0.927772	-0.000110
 716	7.1142e+01	11.5120	37.470675	0.000375	3.752529	1.271391	-0.000150
 717	7.1242e+01	11.4655	37.325338	0.000365	3.651110	1.237029	-0.000146
 718	7.1341e+01	11.4286	37.228447	0.000243	2.434073	0.824686	-0.000097
 719	7.1441e+01	11.3901	37.103296	0.000314	3.144011	1.065220	-0.000126
 720	7.1540e+01	11.3564	36.961996	0.000355	3.549690	1.202667	-0.000142
 721	7.1640e+01	11.3163	36.804548	0.000396	3.955369	1.340115	-0.000158
 722	7.1740e+01	11.2745	36.679397	0.000314	3.144011	1.065220	-0.000126
 723	7.1839e+01	11.2328	36.530023	0.000375	3.752529	1.271391	-0.000150
 724	7.1939e+01	11.1943	36.425057	0.000264	2.636912	0.893410	-0.000105
 725	7.2038e+01	11.1623	36.368537	0.000142	1.419876	0.481067	-0.000057
 726	7.2138e+01	11.1205	36.219163	0.000375	3.752529	1.271391	-0.000150
 727	7.2237e+01	11.0708	36.073826	0.000365	3.651110	1.237029	-0.000146
 728	7.2337e+01	11.0403	35.993084	0.000203	2.028394	0.687239	-0.000081
 729	7.2436e+01	10.9778	35.884081	0.000274	2.738332	0.927772	-0.000110
 730	7.2535e+01	10.9553	35.738744	0.000365	3.651110	1.237029	-0.000146
 731	7.2635e+01	10.9088	35.589370	0.000375	3.752529	1.271391	-0.000150
 732	7.2734e+01	10.8767	35.492479	0.000243	2.434073	0.824686	-0.000097
 733	7.2834e+01	10.8334	35.371365	0.000304	3.042591	1.030858	-0.000122
 734	7.2933e+01	10.7885	35.270436	0.000254	2.535493	0.859048	-0.000101
 735	7.3033e+01	10.7452	35.108951	0.000406	4.056788	1.374477	-0.000162
 736	7.3132e+01	10.7115	34.987837	0.000304	3.042591	1.030858	-0.000122
 737	7.3232e+01	10.6714	34.850574	0.000345	3.448270	1.168306	-0.000138
 738	7.3332e+01	10.6329	34.741572	0.000274	2.738332	0.927772	-0.000110
 739	7.3431e+01	10.5944	34.600272	0.000355	3.549690	1.202667	-0.000142
 740	7.3531e+01	10.5591	34.458972	0.000355	3.549690	1.202667	-0.000142
 741	7.3630e+01	10.5141	34.341895	0.000294	2.941172	0.996496	-0.000118
 742	7.3730e+01	10.4788	34.160224	0.000456	4.563887	1.546287	-0.000183
 743	7.3829e+01	10.4339	34.035073	0.000314	3.144011	1.065220	-0.000126
 744	7.3928e+01	10.4051	33.958367	0.000193	1.926974	0.652877	-0.000077
 745	7.4028e+01	10.3553	33.873587	0.000213	2.129814	0.721600	-0.000085
 746	7.4127e+01	10.3136	33.724213	0.000375	3.752529	1.271391	-0.000150
 747	7.4227e+01	10.2767	33.631359	0.000233	2.332653	0.790324	-0.000093
 748	7.4326e+01	10.2334	33.473911	0.000396	3.955369	1.340115	-0.000158
 749	7.4426e+01	10.1949	33.381057	0.000233	2.332653	0.790324	-0.000093
 750	7.4525e+01	10.1548	33.227646	0.000385	3.853949	1.305753	-0.000154
 751	7.4625e+01	10.1147	33.142866	0.000213	2.129814	0.721600	-0.000085
 752	7.4725e+01	10.0810	32.932935	0.000527	5.273825	1.786820	-0.000211
 753	7.4824e+01	10.0409	32.868341	0.000162	1.622715	0.549791	-0.000065
 754	7.4924e+01	9.9976	32.775486	0.000233	2.332653	0.790324	-0.000093
 755	7.5023e+01	9.9623	32.601890	0.000436	4.361048	1.477563	-0.000174
 756	7.5123e+01	9.9206	32.488850	0.000284	2.839752	0.962134	-0.000114
 757	7.5222e+01	9.8837	32.319290	0.000426	4.259628	1.443201	-0.000170
 758	7.5322e+01	9.8323	32.218362	0.000254	2.535493	0.859048	-0.000101
 759	7.5421e+01	9.8003	32.036691	0.000456	4.563887	1.546287	-0.000183
 760	7.5520e+01	9.7730	31.927688	0.000274	2.738332	0.927772	-0.000110
 761	7.5620e+01	9.7200	31.770240	0.000396	3.955369	1.340115	-0.000158
 762	7.5719e+01	9.6848	31.681423	0.000223	2.231234	0.755962	-0.000089
 763	7.5819e+01	9.6398	31.515900	0.000416	4.158208	1.408839	-0.000166
 764	7.5918e+01	9.6013	31.467455	0.000122	1.217037	0.412343	-0.000049
 765	7.6018e+01	9.5596	31.326155	0.000355	3.549690	1.202667	-0.000142
 766	7.6118e+01	9.5195	31.209078	0.000294	2.941172	0.996496	-0.000118
 767	7.6217e+01	9.4890	31.108149	0.000254	2.535493	0.859048	-0.000101
 768	7.6317e+01	9.4473	30.978961	0.000325	3.245431	1.099582	-0.000130
 769	7.6416e+01	9.3976	30.841698	0.000345	3.448270	1.168306	-0.000138
 770	7.6516e+01	9.3623	30.736733	0.000264	2.636912	0.893410	-0.000105
 771	7.6615e+01	9.3142	30.619656	0.000294	2.941172	0.996496	-0.000118
 772	7.6715e+01	9.2789	30.466245	0.000385	3.853949	1.305753	-0.000154
 773	7.6814e+01	9.2420	30.369354	0.000243	2.434073	0.824686	-0.000097
 774	7.6913e+01	9.1939	30.236128	0.000335	3.346850	1.133944	-0.000134
 775	7.7013e+01	9.1521	30.070606	0.000416	4.158208	1.408839	-0.000166
 776	7.7112e+01	9.1249	29.949491	0.000304	3.042591	1.030858	-0.000122
 777	7.7212e+01	9.0864	29.783969	0.000416	4.158208	1.408839	-0.000166
 778	7.7311e+01	9.0399	29.650743	0.000335	3.346850	1.133944	-0.000134
 779	7.7411e+01	9.0078	29.545778	0.000264	2.636912	0.893410	-0.000105
 780	7.7510e+01	8.9596	29.380255	0.000416	4.158208	1.408839	-0.000166
 781	7.7610e+01	8.9179	29.287401	0.000233	2.332653	0.790324	-0.000093
 782	7.7710e+01	8.8826	29.138027	0.000375	3.752529	1.271391	-0.000150
 783	7.7809e+01	8.8425	29.024987	0.000284	2.839752	0.962134	-0.000114
 784	7.7909e+01	8.8104	28.944245	0.000203	2.028394	0.687239	-0.000081
 785	7.8008e+01	8.7703	28.798908	0.000365	3.651110	1.237029	-0.000146
 786	7.8108e+01	8.7254	28.673757	0.000314	3.144011	1.065220	-0.000126
 787	7.8207e+01	8.6837	28.560717	0.000284	2.839752	0.962134	-0.000114
 788	7.8306e+01	8.6452	28.435566	0.000314	3.144011	1.065220	-0.000126
 789	7.8406e+01	8.6067	28.282154	0.000385	3.853949	1.305753	-0.000154
 790	7.8505e+01	8.5666	28.132780	0.000375	3.752529	1.271391	-0.000150
 791	7.8605e+01	8.5201	28.003592	0.000325	3.245431	1.099582	-0.000130
 792	7.8704e+01	8.4816	27.886515	0.000294	2.941172	0.996496	-0.000118
 793	7.8804e+01	8.4399	27.789624	0.000243	2.434073	0.824686	-0.000097
 794	7.8903e+01	8.4094	27.607953	0.000456	4.563887	1.546287	-0.000183
 795	7.9003e+01	8.3564	27.490876	0.000294	2.941172	0.996496	-0.000118
 796	7.9103e+01	8.3308	27.337465	0.000385	3.853949	1.305753	-0.000154
 797	7.9202e+01	8.2843	27.171942	0.000416	4.158208	1.408839	-0.000166
 798	7.9302e+01	8.2393	27.058902	0.000284	2.839752	0.962134	-0.000114
 799	7.9401e+01	8.2121	26.897417	0.000406	4.056788	1.374477	-0.000162
 800	7.9501e+01	8.1655	26.776303	0.000304	3.042591	1.030858	-0.000122
 801	7.9600e+01	8.1190	26.651152	0.000314	3.144011	1.065220	-0.000126
 802	7.9700e+01	8.0789	26.578483	0.000183	1.825555	0.618515	-0.000073
 803	7.9799e+01	8.0516	26.457369	0.000304	3.042591	1.030858	-0.000122
 804	7.9898e+01	8.0083	26.287809	0.000426	4.259628	1.443201	-0.000170
 805	7.9998e+01	7.9698	26.207067	0.000203	2.028394	0.687239	-0.000081
 806	8.0097e+01	7.9217	26.094027	0.000284	2.839752	0.962134	-0.000114
 807	8.0197e+01	7.8976	25.964838	0.000325	3.245431	1.099582	-0.000130
 808	8.0296e+01	7.8543	25.811427	0.000385	3.853949	1.305753	-0.000154
 809	8.0396e+01	7.8062	25.698388	0.000284	2.839752	0.962134	-0.000114
 810	8.0496e+01	7.7661	25.544976	0.000385	3.853949	1.305753	-0.000154
 811	8.0595e+01	7.7244	25.423862	0.000304	3.042591	1.030858	-0.000122
 812	8.0695e+01	7.6875	25.294674	0.000325	3.245431	1.099582	-0.000130
 813	8.0794e+01	7.6554	25.165486	0.000325	3.245431	1.099582	-0.000130
 814	8.0894e+01	7.6041	25.008037	0.000396	3.955369	1.340115	-0.000158
 815	8.0993e+01	7.5607	24.886923	0.000304	3.042591	1.030858	-0.000122
 816	8.1093e+01	7.5303	24.741586	0.000365	3.651110	1.237029	-0.000146
 817	8.1192e+01	7.4870	24.592212	0.000375	3.752529	1.271391	-0.000150
 818	8.1291e+01	7.4517	24.454950	0.000345	3.448270	1.168306	-0.000138
 819	8.1391e+01	7.4132	24.325761	0.000325	3.245431	1.099582	-0.000130
 820	8.1490e+01	7.3650	24.196573	0.000325	3.245431	1.099582	-0.000130
 821	8.1590e+01	7.3313	24.111793	0.000213	2.129814	0.721600	-0.000085
 822	8.1689e+01	7.2928	23.990679	0.000304	3.042591	1.030858	-0.000122
 823	8.1789e+01	7.2543	23.873602	0.000294	2.941172	0.996496	-0.000118
 824	8.1888e+01	7.2014	23.768637	0.000264	2.636912	0.893410	-0.000105
 825	8.1988e+01	7.1709	23.619263	0.000375	3.752529	1.271391	-0.000150
 826	8.2088e+01	7.1260	23.498149	0.000304	3.042591	1.030858	-0.000122
 827	8.2187e+01	7.0843	23.356849	0.000355	3.549690	1.202667	-0.000142
 828	8.2287e+01	7.0442	23.211512	0.000365	3.651110	1.237029	-0.000146
 829	8.2386e+01	7.0073	23.045989	0.000416	4.158208	1.408839	-0.000166
 830	8.2486e+01	6.9800	22.965247	0.000203	2.028394	0.687239	-0.000081
 831	8.2585e+01	6.9239	22.767427	0.000497	4.969566	1.683734	-0.000199
 832	8.2684e+01	6.8806	22.690721	0.000193	1.926974	0.652877	-0.000077
 833	8.2784e+01	6.8517	22.509050	0.000456	4.563887	1.546287	-0.000183
 834	8.2883e+01	6.8132	22.363713	0.000365	3.651110	1.237029	-0.000146
 835	8.2983e+01	6.7699	22.242599	0.000304	3.042591	1.030858	-0.000122
 836	8.3082e+01	6.7394	22.109374	0.000335	3.346850	1.133944	-0.000134
 837	8.3182e+01	6.6961	21.960000	0.000375	3.752529	1.271391	-0.000150
 838	8.3281e+01	6.6576	21.879257	0.000203	2.028394	0.687239	-0.000081
 839	8.3381e+01	6.6046	21.725846	0.000385	3.853949	1.305753	-0.000154
 840	8.3481e+01	6.5709	21.624918	0.000254	2.535493	0.859048	-0.000101
 841	8.3580e+01	6.5260	21.523989	0.000254	2.535493	0.859048	-0.000101
 842	8.3680e+01	6.4939	21.390764	0.000335	3.346850	1.133944	-0.000134
 843	8.3779e+01	6.4522	21.245427	0.000365	3.651110	1.237029	-0.000146
 844	8.3879e+01	6.4153	21.100090	0.000365	3.651110	1.237029	-0.000146
 845	8.3978e+01	6.3720	20.995124	0.000264	2.636912	0.893410	-0.000105
 846	8.4078e+01	6.3367	20.861899	0.000335	3.346850	1.133944	-0.000134
 847	8.4177e+01	6.2886	20.732711	0.000325	3.245431	1.099582	-0.000130
 848	8.4276e+01	6.2485	20.631782	0.000254	2.535493	0.859048	-0.000101
 849	8.4376e+01	6.2084	20.462222	0.000426	4.259628	1.443201	-0.000170
 850	8.4475e+01	6.1763	20.308811	0.000385	3.853949	1.305753	-0.000154
 851	8.4575e+01	6.1346	20.195772	0.000284	2.839752	0.962134	-0.000114
 852	8.4674e+01	6.1009	19.997952	0.000497	4.969566	1.683734	-0.000199
 853	8.4774e+01	6.0560	19.848578	0.000375	3.752529	1.271391	-0.000150
 854	8.4874e+01	6.0191	19.735538	0.000284	2.839752	0.962134	-0.000114
 855	8.4973e+01	5.9790	19.602313	0.000335	3.346850	1.133944	-0.000134
 856	8.5073e+01	5.9325	19.473124	0.000325	3.245431	1.099582	-0.000130
 857	8.5172e+01	5.8972	19.283379	0.000477	4.766726	1.615011	-0.000191
 858	8.5272e+01	5.8538	19.238970	0.000112	1.115617	0.377981	-0.000045
 859	8.5371e+01	5.8121	19.150153	0.000223	2.231234	0.755962	-0.000089
 860	8.5471e+01	5.7784	19.000779	0.000375	3.752529	1.271391	-0.000150
 861	8.5570e+01	5.7367	18.859480	0.000355	3.549690	1.202667	-0.000142
 862	8.5669e+01	5.6934	18.742403	0.000294	2.941172	0.996496	-0.000118
 863	8.5769e+01	5.6662	18.613214	0.000325	3.245431	1.099582	-0.000130
 864	8.5868e+01	5.6148	18.496137	0.000294	2.941172	0.996496	-0.000118
 865	8.5968e+01	5.5827	18.326578	0.000426	4.259628	1.443201	-0.000170
 866	8.6067e+01	5.5458	18.201426	0.000314	3.144011	1.065220	-0.000126
 867	8.6167e+01	5.4929	18.072238	0.000325	3.245431	1.099582	-0.000130
 868	8.6266e+01	5.4480	17.975347	0.000243	2.434073	0.824686	-0.000097
 869	8.6366e+01	5.4207	17.825973	0.000375	3.752529	1.271391	-0.000150
 870	8.6466e+01	5.3806	17.656413	0.000426	4.259628	1.443201	-0.000170
 871	8.6565e+01	5.3277	17.527225	0.000325	3.245431	1.099582	-0.000130
 872	8.6665e+01	5.2940	17.365739	0.000406	4.056788	1.374477	-0.000162
 873	8.6764e+01	5.2490	17.240588	0.000314	3.144011	1.065220	-0.000126
 874	8.6864e+01	5.2138	17.103326	0.000345	3.448270	1.168306	-0.000138
 875	8.6963e+01	5.1785	16.974137	0.000325	3.245431	1.099582	-0.000130
 876	8.7063e+01	5.1432	16.865135	0.000274	2.738332	0.927772	-0.000110
 877	8.7162e+01	5.0999	16.735946	0.000325	3.245431	1.099582	-0.000130
 878	8.7261e+01	5.0581	16.622906	0.000284	2.839752	0.962134	-0.000114
 879	8.7361e+01	5.0277	16.526015	0.000243	2.434073	0.824686	-0.000097
 880	8.7460e+01	4.9876	16.372604	0.000385	3.853949	1.305753	-0.000154
 881	8.7560e+01	4.9378	16.259564	0.000284	2.839752	0.962134	-0.000114
 882	8.7659e+01	4.9025	16.118264	0.000355	3.549690	1.202667	-0.000142
 883	8.7759e+01	4.8544	15.989076	0.000325	3.245431	1.099582	-0.000130
 884	8.7859e+01	4.8223	15.871999	0.000294	2.941172	0.996496	-0.000118
 885	8.7958e+01	4.7742	15.714551	0.000396	3.955369	1.340115	-0.000158
 886	8.8058e+01	4.7373	15.593437	0.000304	3.042591	1.030858	-0.000122
 887	8.8157e+01	4.6988	15.403691	0.000477	4.766726	1.615011	-0.000191
 888	8.8257e+01	4.6555	15.310837	0.000233	2.332653	0.790324	-0.000093
 889	8.8356e+01	4.6154	15.141278	0.000426	4.259628	1.443201	-0.000170
 890	8.8456e+01	4.5769	14.999978	0.000355	3.549690	1.202667	-0.000142
 891	8.8555e+01	4.5416	14.866752	0.000335	3.346850	1.133944	-0.000134
 892	8.8654e+01	4.5095	14.749675	0.000294	2.941172	0.996496	-0.000118
 893	8.8754e+01	4.4614	14.572041	0.000446	4.462467	1.511925	-0.000179
 894	8.8853e+01	4.4165	14.475150	0.000243	2.434073	0.824686	-0.000097
 895	8.8953e+01	4.3812	14.341925	0.000335	3.346850	1.133944	-0.000134
 896	8.9052e+01	4.3346	14.253108	0.000223	2.231234	0.755962	-0.000089
 897	8.9152e+01	4.2929	14.107771	0.000365	3.651110	1.237029	-0.000146
 898	8.9251e+01	4.2608	13.966471	0.000355	3.549690	1.202667	-0.000142
 899	8.9351e+01	4.2239	13.869580	0.000243	2.434073	0.824686	-0.000097
 900	8.9451e+01	4.1758	13.748466	0.000304	3.042591	1.030858	-0.000122
 901	8.9550e+01	4.1453	13.599092	0.000375	3.752529	1.271391	-0.000150
 902	8.9650e+01	4.1020	13.453755	0.000365	3.651110	1.237029	-0.000146
 903	8.9749e+01	4.0651	13.328604	0.000314	3.144011	1.065220	-0.000126
 904	8.9849e+01	4.0298	13.191341	0.000345	3.448270	1.168306	-0.000138
 905	8.9948e+01	3.9817	13.054078	0.000345	3.448270	1.168306	-0.000138
 906	9.0047e+01	3.9432	12.924890	0.000325	3.245431	1.099582	-0.000130
 907	9.0147e+01	3.9015	12.771479	0.000385	3.853949	1.305753	-0.000154
 908	9.0246e+01	3.8630	12.614031	0.000396	3.955369	1.340115	-0.000158
 909	9.0346e+01	3.8293	12.456582	0.000396	3.955369	1.340115	-0.000158
 910	9.0445e+01	3.7924	12.339505	0.000294	2.941172	0.996496	-0.000118
 911	9.0545e+01	3.7507	12.182057	0.000396	3.955369	1.340115	-0.000158
 912	9.0644e+01	3.7074	12.101314	0.000203	2.028394	0.687239	-0.000081
 913	9.0744e+01	3.6609	11.935792	0.000416	4.158208	1.408839	-0.000166
 914	9.0844e+01	3.6240	11.830826	0.000264	2.636912	0.893410	-0.000105
 915	9.0943e+01	3.5823	11.725861	0.000264	2.636912	0.893410	-0.000105
 916	9.1043e+01	3.5454	11.592635	0.000335	3.346850	1.133944	-0.000134
 917	9.1142e+01	3.5085	11.439224	0.000385	3.853949	1.305753	-0.000154
 918	9.1242e+01	3.4684	11.318110	0.000304	3.042591	1.030858	-0.000122
 919	9.1341e+01	3.4250	11.192959	0.000314	3.144011	1.065220	-0.000126
 920	9.1441e+01	3.3849	11.075882	0.000294	2.941172	0.996496	-0.000118
 921	9.1540e+01	3.3464	10.930545	0.000365	3.651110	1.237029	-0.000146
 922	9.1639e+01	3.3111	10.793282	0.000345	3.448270	1.168306	-0.000138
 923	9.1739e+01	3.2646	10.639871	0.000385	3.853949	1.305753	-0.000154
 924	9.1838e+01	3.2197	10.542980	0.000243	2.434073	0.824686	-0.000097
 925	9.1938e+01	3.1908	10.349197	0.000487	4.868146	1.649373	-0.000195
 926	9.2037e+01	3.1475	10.211935	0.000345	3.448270	1.168306	-0.000138
 927	9.2137e+01	3.1042	10.030264	0.000456	4.563887	1.546287	-0.000183
 928	9.2237e+01	3.0689	9.917224	0.000284	2.839752	0.962134	-0.000114
 929	9.2336e+01	3.0192	9.779961	0.000345	3.448270	1.168306	-0.000138
 930	9.2436e+01	2.9935	9.658847	0.000304	3.042591	1.030858	-0.000122
 931	9.2535e+01	2.9486	9.537733	0.000304	3.042591	1.030858	-0.000122
 932	9.2635e+01	2.9181	9.408545	0.000325	3.245431	1.099582	-0.000130
 933	9.2734e+01	2.8620	9.291468	0.000294	2.941172	0.996496	-0.000118
 934	9.2834e+01	2.8234	9.186502	0.000264	2.636912	0.893410	-0.000105
 935	9.2933e+01	2.8026	9.057314	0.000325	3.245431	1.099582	-0.000130
 936	9.3032e+01	2.7545	8.883717	0.000436	4.361048	1.477563	-0.000174
 937	9.3132e+01	2.7047	8.786826	0.000243	2.434073	0.824686	-0.000097
 938	9.3231e+01	2.6694	8.629378	0.000396	3.955369	1.340115	-0.000158
 939	9.3331e+01	2.6342	8.524412	0.000264	2.636912	0.893410	-0.000105
 940	9.3430e+01	2.5876	8.366964	0.000396	3.955369	1.340115	-0.000158
 941	9.3530e+01	2.5491	8.245850	0.000304	3.042591	1.030858	-0.000122
 942	9.3629e+01	2.5106	8.100513	0.000365	3.651110	1.237029	-0.000146
 943	9.3729e+01	2.4625	7.971325	0.000325	3.245431	1.099582	-0.000130
 944	9.3829e+01	2.4272	7.878470	0.000233	2.332653	0.790324	-0.000093
 945	9.3928e+01	2.3887	7.684688	0.000487	4.868146	1.649373	-0.000195
 946	9.4028e+01	2.3566	7.563574	0.000304	3.042591	1.030858	-0.000122
 947	9.4127e+01	2.3053	7.398051	0.000416	4.158208	1.408839	-0.000166
 948	9.4227e+01	2.2716	7.260789	0.000345	3.448270	1.168306	-0.000138
 949	9.4326e+01	2.2219	7.095266	0.000416	4.158208	1.408839	-0.000166
 950	9.4425e+01	2.1914	6.994338	0.000254	2.535493	0.859048	-0.000101
 951	9.4525e+01	2.1545	6.893409	0.000254	2.535493	0.859048	-0.000101
 952	9.4624e+01	2.1048	6.756147	0.000345	3.448270	1.168306	-0.000138
 953	9.4724e+01	2.0727	6.626958	0.000325	3.245431	1.099582	-0.000130
 954	9.4823e+01	2.0294	6.501807	0.000314	3.144011	1.065220	-0.000126
 955	9.4923e+01	1.9925	6.336285	0.000416	4.158208	1.408839	-0.000166
 956	9.5022e+01	1.9491	6.239393	0.000243	2.434073	0.824686	-0.000097
 957	9.5122e+01	1.9074	6.094056	0.000365	3.651110	1.237029	-0.000146
 958	9.5222e+01	1.8721	5.948720	0.000365	3.651110	1.237029	-0.000146
 959	9.5321e+01	1.8336	5.783197	0.000416	4.158208	1.408839	-0.000166
 960	9.5421e+01	1.7839	5.649971	0.000335	3.346850	1.133944	-0.000134
 961	9.5520e+01	1.7518	5.528857	0.000304	3.042591	1.030858	-0.000122
 962	9.5620e+01	1.7133	5.411780	0.000294	2.941172	0.996496	-0.000118
 963	9.5719e+01	1.6700	5.278555	0.000335	3.346850	1.133944	-0.000134
 964	9.5819e+01	1.6347	5.125144	0.000385	3.853949	1.305753	-0.000154
 965	9.5918e+01	1.5866	4.943473	0.000456	4.563887	1.546287	-0.000183
 966	9.6017e+01	1.5593	4.810247	0.000335	3.346850	1.133944	-0.000134
 967	9.6117e+01	1.5128	4.705282	0.000264	2.636912	0.893410	-0.000105
 968	9.6216e+01	1.4855	4.572056	0.000335	3.346850	1.133944	-0.000134
 969	9.6316e+01	1.4326	4.463054	0.000274	2.738332	0.927772	-0.000110
 970	9.6415e+01	1.3957	4.289457	0.000436	4.361048	1.477563	-0.000174
 971	9.6515e+01	1.3572	4.180454	0.000274	2.738332	0.927772	-0.000110
 972	9.6615e+01	1.3091	4.047229	0.000335	3.346850	1.133944	-0.000134
 973	9.6714e+01	1.2625	3.914003	0.000335	3.346850	1.133944	-0.000134
 974	9.6814e+01	1.2272	3.813075	0.000254	2.535493	0.859048	-0.000101
 975	9.6913e+01	1.1919	3.687923	0.000314	3.144011	1.065220	-0.000126
 976	9.7013e+01	1.1518	3.542587	0.000365	3.651110	1.237029	-0.000146
 977	9.7112e+01	1.1198	3.381101	0.000406	4.056788	1.374477	-0.000162
 978	9.7212e+01	1.0700	3.231727	0.000375	3.752529	1.271391	-0.000150
 979	9.7311e+01	1.0235	3.122724	0.000274	2.738332	0.927772	-0.000110
 980	9.7410e+01	0.9866	2.973350	0.000375	3.752529	1.271391	-0.000150
 981	9.7510e+01	0.9513	2.876459	0.000243	2.434073	0.824686	-0.000097
 982	9.7609e+01	0.9240	2.739197	0.000345	3.448270	1.168306	-0.000138
 983	9.7709e+01	0.8855	2.541377	0.000497	4.969566	1.683734	-0.000199
 984	9.7808e+01	0.8470	2.387966	0.000385	3.853949	1.305753	-0.000154
 985	9.7908e+01	0.7989	2.242629	0.000365	3.651110	1.237029	-0.000146
 986	9.8007e+01	0.7636	2.141701	0.000254	2.535493	0.859048	-0.000101
 987	9.8107e+01	0.7155	2.060958	0.000203	2.028394	0.687239	-0.000081
 988	9.8207e+01	0.6850	1.939844	0.000304	3.042591	1.030858	-0.000122
 989	9.8306e+01	0.6385	1.750098	0.000477	4.766726	1.615011	-0.000191
 990	9.8406e+01	0.5904	1.669356	0.000203	2.028394	0.687239	-0.000081
 991	9.8505e+01	0.5486	1.503833	0.000416	4.158208	1.408839	-0.000166
 992	9.8605e+01	0.5182	1.346385	0.000396	3.955369	1.340115	-0.000158
 993	9.8704e+01	0.4797	1.225271	0.000304	3.042591	1.030858	-0.000122
 994	9.8803e+01	0.4364	1.120305	0.000264	2.636912	0.893410	-0.000105
 995	9.8903e+01	0.3962	0.974968	0.000365	3.651110	1.237029	-0.000146
 996	9.9002e+01	0.3642	0.817520	0.000396	3.955369	1.340115	-0.000158
 997	9.9102e+01	0.3176	0.672183	0.000365	3.651110	1.237029	-0.000146
 998	9.9201e+01	0.2743	0.579329	0.000233	2.332653	0.790324	-0.000093
 999	9.9301e+01	0.2294	0.442066	0.000345	3.448270	1.168306	-0.000138
1000	9.9400e+01	0.1925	0.296729	0.000365	3.651110	1.237029	-0.000146
1001	9.9500e+01	0.1604	0.147355	0.000375	3.752529	1.271391	-0.000150
1002	9.9600e+01	0.1075	-0.018167	0.000416	4.158208	1.408839	-0.000166
1003	9.9699e+01	0.0818	-0.163504	0.000365	3.651110	1.237029	-0.000146
1004	9.9799e+01	0.0369	-0.284618	0.000304	3.042591	1.030858	-0.000122
1005	9.9898e+01	0.0048	-0.369398	0.000213	2.129814	0.721600	-0.000085
1006	9.9998e+01	-0.0337	-0.494549	0.000314	3.144011	1.065220	-0.000126
1007	1.0010e+02	-0.0770	-0.619700	0.000314	3.144011	1.065220	-0.000126
1008	1.0020e+02	-0.1075	-0.744852	0.000314	3.144011	1.065220	-0.000126
1009	1.0030e+02	-0.1492	-0.857891	0.000284	2.839752	0.962134	-0.000114
1010	1.0040e+02	-0.1861	-1.039562	0.000456	4.563887	1.546287	-0.000183
1011	1.0050e+02	-0.2278	-1.112231	0.000183	1.825555	0.618515	-0.000073
1012	1.0059e+02	-0.2743	-1.245456	0.000335	3.346850	1.133944	-0.000134
1013	1.0069e+02	-0.3241	-1.386756	0.000355	3.549690	1.202667	-0.000142
1014	1.0079e+02	-0.3545	-1.532093	0.000365	3.651110	1.237029	-0.000146
1015	1.0089e+02	-0.3962	-1.689541	0.000396	3.955369	1.340115	-0.000158
1016	1.0099e+02	-0.4347	-1.794507	0.000264	2.636912	0.893410	-0.000105
1017	1.0109e+02	-0.4716	-1.968104	0.000436	4.361048	1.477563	-0.000174
1018	1.0119e+02	-0.5230	-2.121515	0.000385	3.853949	1.305753	-0.000154
1019	1.0129e+02	-0.5503	-2.222443	0.000254	2.535493	0.859048	-0.000101
1020	1.0139e+02	-0.5871	-2.387966	0.000416	4.158208	1.408839	-0.000166
1021	1.0149e+02	-0.6337	-2.573674	0.000467	4.665307	1.580649	-0.000187
1022	1.0159e+02	-0.6770	-2.662491	0.000223	2.231234	0.755962	-0.000089
1023	1.0169e+02	-0.7139	-2.803791	0.000355	3.549690	1.202667	-0.000142
1024	1.0179e+02	-0.7428	-2.912793	0.000274	2.738332	0.927772	-0.000110
1025	1.0189e+02	-0.7861	-3.021796	0.000274	2.738332	0.927772	-0.000110
1026	1.0199e+02	-0.8310	-3.142910	0.000304	3.042591	1.030858	-0.000122
1027	1.0209e+02	-0.8647	-3.292284	0.000375	3.752529	1.271391	-0.000150
1028	1.0219e+02	-0.9160	-3.413398	0.000304	3.042591	1.030858	-0.000122
1029	1.0229e+02	-0.9561	-3.538549	0.000314	3.144011	1.065220	-0.000126
1030	1.0239e+02	-0.9946	-3.667738	0.000325	3.245431	1.099582	-0.000130
1031	1.0248e+02	-1.0379	-3.788852	0.000304	3.042591	1.030858	-0.000122
1032	1.0258e+02	-1.0620	-3.914003	0.000314	3.144011	1.065220	-0.000126
1033	1.0268e+02	-1.1165	-4.071451	0.000396	3.955369	1.340115	-0.000158
1034	1.0278e+02	-1.1502	-4.236974	0.000416	4.158208	1.408839	-0.000166
1035	1.0288e+02	-1.1952	-4.354051	0.000294	2.941172	0.996496	-0.000118
1036	1.0298e+02	-1.2337	-4.467091	0.000284	2.839752	0.962134	-0.000114
1037	1.0308e+02	-1.2754	-4.576093	0.000274	2.738332	0.927772	-0.000110
1038	1.0318e+02	-1.3042	-4.753727	0.000446	4.462467	1.511925	-0.000179
1039	1.0328e+02	-1.3540	-4.919250	0.000416	4.158208	1.408839	-0.000166
1040	1.0338e+02	-1.3909	-5.060550	0.000355	3.549690	1.202667	-0.000142
1041	1.0348e+02	-1.4326	-5.173589	0.000284	2.839752	0.962134	-0.000114
1042	1.0358e+02	-1.4647	-5.290666	0.000294	2.941172	0.996496	-0.000118
1043	1.0368e+02	-1.5080	-5.419855	0.000325	3.245431	1.099582	-0.000130
1044	1.0378e+02	-1.5449	-5.504635	0.000213	2.129814	0.721600	-0.000085
1045	1.0388e+02	-1.5946	-5.645934	0.000355	3.549690	1.202667	-0.000142
1046	1.0398e+02	-1.6267	-5.799345	0.000385	3.853949	1.305753	-0.000154
1047	1.0408e+02	-1.6652	-5.900274	0.000254	2.535493	0.859048	-0.000101
1048	1.0418e+02	-1.7037	-6.009277	0.000274	2.738332	0.927772	-0.000110
1049	1.0428e+02	-1.7454	-6.170762	0.000406	4.056788	1.374477	-0.000162
1050	1.0438e+02	-1.7871	-6.340322	0.000426	4.259628	1.443201	-0.000170
1051	1.0447e+02	-1.8352	-6.429139	0.000223	2.231234	0.755962	-0.000089
1052	1.0457e+02	-1.8673	-6.546216	0.000294	2.941172	0.996496	-0.000118
1053	1.0467e+02	-1.9138	-6.679441	0.000335	3.346850	1.133944	-0.000134
1054	1.0477e+02	-1.9491	-6.828815	0.000375	3.752529	1.271391	-0.000150
1055	1.0487e+02	-1.9844	-6.974152	0.000365	3.651110	1.237029	-0.000146
1056	1.0497e+02	-2.0213	-7.143712	0.000426	4.259628	1.443201	-0.000170
1057	1.0507e+02	-2.0711	-7.293086	0.000375	3.752529	1.271391	-0.000150
1058	1.0517e+02	-2.1112	-7.381903	0.000223	2.231234	0.755962	-0.000089
1059	1.0527e+02	-2.1497	-7.503017	0.000304	3.042591	1.030858	-0.000122
1060	1.0537e+02	-2.1914	-7.692762	0.000477	4.766726	1.615011	-0.000191
1061	1.0547e+02	-2.2219	-7.769468	0.000193	1.926974	0.652877	-0.000077
1062	1.0557e+02	-2.2668	-7.922879	0.000385	3.853949	1.305753	-0.000154
1063	1.0567e+02	-2.3005	-8.003622	0.000203	2.028394	0.687239	-0.000081
1064	1.0577e+02	-2.3438	-8.136847	0.000335	3.346850	1.133944	-0.000134
1065	1.0587e+02	-2.3887	-8.249887	0.000284	2.839752	0.962134	-0.000114
1066	1.0597e+02	-2.4160	-8.403298	0.000385	3.853949	1.305753	-0.000154
1067	1.0607e+02	-2.4561	-8.552672	0.000375	3.752529	1.271391	-0.000150
1068	1.0617e+02	-2.5058	-8.633415	0.000203	2.028394	0.687239	-0.000081
1069	1.0627e+02	-2.5555	-8.807012	0.000436	4.361048	1.477563	-0.000174
1070	1.0637e+02	-2.5844	-8.948311	0.000355	3.549690	1.202667	-0.000142
1071	1.0647e+02	-2.6245	-9.016943	0.000172	1.724135	0.584153	-0.000069
1072	1.0656e+02	-2.6646	-9.198614	0.000456	4.563887	1.546287	-0.000183
1073	1.0666e+02	-2.7112	-9.307616	0.000274	2.738332	0.927772	-0.000110
1074	1.0676e+02	-2.7384	-9.477176	0.000426	4.259628	1.443201	-0.000170
1075	1.0686e+02	-2.7785	-9.630587	0.000385	3.853949	1.305753	-0.000154
1076	1.0696e+02	-2.8170	-9.767850	0.000345	3.448270	1.168306	-0.000138
1077	1.0706e+02	-2.8668	-9.901075	0.000335	3.346850	1.133944	-0.000134
1078	1.0716e+02	-2.9069	-10.002004	0.000254	2.535493	0.859048	-0.000101
1079	1.0726e+02	-2.9422	-10.127155	0.000314	3.144011	1.065220	-0.000126
1080	1.0736e+02	-2.9759	-10.244232	0.000294	2.941172	0.996496	-0.000118
1081	1.0746e+02	-3.0224	-10.373420	0.000325	3.245431	1.099582	-0.000130
1082	1.0756e+02	-3.0593	-10.510683	0.000345	3.448270	1.168306	-0.000138
1083	1.0766e+02	-3.0994	-10.619686	0.000274	2.738332	0.927772	-0.000110
1084	1.0776e+02	-3.1475	-10.760985	0.000355	3.549690	1.202667	-0.000142
1085	1.0786e+02	-3.1812	-10.861914	0.000254	2.535493	0.859048	-0.000101
1086	1.0796e+02	-3.2165	-11.023399	0.000406	4.056788	1.374477	-0.000162
1087	1.0806e+02	-3.2598	-11.156625	0.000335	3.346850	1.133944	-0.000134
1088	1.0816e+02	-3.3047	-11.257553	0.000254	2.535493	0.859048	-0.000101
1089	1.0826e+02	-3.3448	-11.390778	0.000335	3.346850	1.133944	-0.000134
1090	1.0836e+02	-3.3833	-11.528041	0.000345	3.448270	1.168306	-0.000138
1091	1.0845e+02	-3.4218	-11.705675	0.000446	4.462467	1.511925	-0.000179
1092	1.0855e+02	-3.4603	-11.770269	0.000162	1.622715	0.549791	-0.000065
1093	1.0865e+02	-3.4988	-11.935792	0.000416	4.158208	1.408839	-0.000166
1094	1.0875e+02	-3.5389	-12.085166	0.000375	3.752529	1.271391	-0.000150
1095	1.0885e+02	-3.5790	-12.238577	0.000385	3.853949	1.305753	-0.000154
1096	1.0895e+02	-3.6224	-12.347580	0.000274	2.738332	0.927772	-0.000110
1097	1.0905e+02	-3.6560	-12.476768	0.000325	3.245431	1.099582	-0.000130
1098	1.0915e+02	-3.7074	-12.565585	0.000223	2.231234	0.755962	-0.000089
1099	1.0925e+02	-3.7443	-12.706885	0.000355	3.549690	1.202667	-0.000142
1100	1.0935e+02	-3.7844	-12.799739	0.000233	2.332653	0.790324	-0.000093
1101	1.0945e+02	-3.8277	-12.977373	0.000446	4.462467	1.511925	-0.000179
1102	1.0955e+02	-3.8550	-13.054078	0.000193	1.926974	0.652877	-0.000077
1103	1.0965e+02	-3.9015	-13.187304	0.000335	3.346850	1.133944	-0.000134
1104	1.0975e+02	-3.9448	-13.344752	0.000396	3.955369	1.340115	-0.000158
1105	1.0985e+02	-3.9801	-13.433569	0.000223	2.231234	0.755962	-0.000089
1106	1.0995e+02	-4.0250	-13.578906	0.000365	3.651110	1.237029	-0.000146
1107	1.1005e+02	-4.0635	-13.728280	0.000375	3.752529	1.271391	-0.000150
1108	1.1015e+02	-4.0940	-13.829208	0.000254	2.535493	0.859048	-0.000101
1109	1.1025e+02	-4.1485	-13.990694	0.000406	4.056788	1.374477	-0.000162
1110	1.1035e+02	-4.1806	-14.123919	0.000335	3.346850	1.133944	-0.000134
1111	1.1044e+02	-4.2143	-14.240996	0.000294	2.941172	0.996496	-0.000118
1112	1.1054e+02	-4.2560	-14.382296	0.000355	3.549690	1.202667	-0.000142
1113	1.1064e+02	-4.2993	-14.511484	0.000325	3.245431	1.099582	-0.000130
1114	1.1074e+02	-4.3346	-14.672970	0.000406	4.056788	1.374477	-0.000162
1115	1.1084e+02	-4.3812	-14.753713	0.000203	2.028394	0.687239	-0.000081
1116	1.1094e+02	-4.4181	-14.886938	0.000335	3.346850	1.133944	-0.000134
1117	1.1104e+02	-4.4550	-14.983829	0.000243	2.434073	0.824686	-0.000097
1118	1.1114e+02	-4.5015	-15.121092	0.000345	3.448270	1.168306	-0.000138
1119	1.1124e+02	-4.5352	-15.306800	0.000467	4.665307	1.580649	-0.000187
1120	1.1134e+02	-4.5721	-15.379469	0.000183	1.825555	0.618515	-0.000073
1121	1.1144e+02	-4.6186	-15.500583	0.000304	3.042591	1.030858	-0.000122
1122	1.1154e+02	-4.6523	-15.670142	0.000426	4.259628	1.443201	-0.000170
1123	1.1164e+02	-4.6956	-15.775108	0.000264	2.636912	0.893410	-0.000105
1124	1.1174e+02	-4.7293	-15.924482	0.000375	3.752529	1.271391	-0.000150
1125	1.1184e+02	-4.7742	-16.057707	0.000335	3.346850	1.133944	-0.000134
1126	1.1194e+02	-4.8079	-16.170747	0.000284	2.839752	0.962134	-0.000114
1127	1.1204e+02	-4.8512	-16.251490	0.000203	2.028394	0.687239	-0.000081
1128	1.1214e+02	-4.8977	-16.425087	0.000436	4.361048	1.477563	-0.000174
1129	1.1224e+02	-4.9346	-16.534089	0.000274	2.738332	0.927772	-0.000110
1130	1.1234e+02	-4.9731	-16.719798	0.000467	4.665307	1.580649	-0.000187
1131	1.1244e+02	-5.0084	-16.836875	0.000294	2.941172	0.996496	-0.000118
1132	1.1253e+02	-5.0614	-16.933766	0.000243	2.434073	0.824686	-0.000097
1133	1.1263e+02	-5.0934	-17.083140	0.000375	3.752529	1.271391	-0.000150
1134	1.1273e+02	-5.1319	-17.192143	0.000274	2.738332	0.927772	-0.000110
1135	1.1283e+02	-5.1753	-17.297108	0.000264	2.636912	0.893410	-0.000105
1136	1.1293e+02	-5.2138	-17.430334	0.000335	3.346850	1.133944	-0.000134
1137	1.1303e+02	-5.2571	-17.543373	0.000284	2.839752	0.962134	-0.000114
1138	1.1313e+02	-5.3004	-17.660450	0.000294	2.941172	0.996496	-0.000118
1139	1.1323e+02	-5.3341	-17.817899	0.000396	3.955369	1.340115	-0.000158
1140	1.1333e+02	-5.3726	-17.967273	0.000375	3.752529	1.271391	-0.000150
1141	1.1343e+02	-5.4111	-18.080312	0.000284	2.839752	0.962134	-0.000114
1142	1.1353e+02	-5.4544	-18.217575	0.000345	3.448270	1.168306	-0.000138
1143	1.1363e+02	-5.4945	-18.306392	0.000223	2.231234	0.755962	-0.000089
1144	1.1373e+02	-5.5394	-18.423469	0.000294	2.941172	0.996496	-0.000118
1145	1.1383e+02	-5.5763	-18.560732	0.000345	3.448270	1.168306	-0.000138
1146	1.1393e+02	-5.6052	-18.718180	0.000396	3.955369	1.340115	-0.000158
1147	1.1403e+02	-5.6533	-18.855442	0.000345	3.448270	1.168306	-0.000138
1148	1.1413e+02	-5.6966	-18.992705	0.000345	3.448270	1.168306	-0.000138
1149	1.1423e+02	-5.7335	-19.109782	0.000294	2.941172	0.996496	-0.000118
1150	1.1433e+02	-5.7720	-19.190525	0.000203	2.028394	0.687239	-0.000081
1151	1.1442e+02	-5.8089	-19.339899	0.000375	3.752529	1.271391	-0.000150
1152	1.1452e+02	-5.8554	-19.444864	0.000264	2.636912	0.893410	-0.000105
1153	1.1462e+02	-5.8972	-19.602313	0.000396	3.955369	1.340115	-0.000158
1154	1.1472e+02	-5.9308	-19.707278	0.000264	2.636912	0.893410	-0.000105
1155	1.1482e+02	-5.9758	-19.828392	0.000304	3.042591	1.030858	-0.000122
1156	1.1492e+02	-6.0127	-19.985840	0.000396	3.955369	1.340115	-0.000158
1157	1.1502e+02	-6.0512	-20.074657	0.000223	2.231234	0.755962	-0.000089
1158	1.1512e+02	-6.0913	-20.207883	0.000335	3.346850	1.133944	-0.000134
1159	1.1522e+02	-6.1250	-20.316886	0.000274	2.738332	0.927772	-0.000110
1160	1.1532e+02	-6.1683	-20.474334	0.000396	3.955369	1.340115	-0.000158
1161	1.1542e+02	-6.2132	-20.595448	0.000304	3.042591	1.030858	-0.000122
1162	1.1552e+02	-6.2517	-20.740785	0.000365	3.651110	1.237029	-0.000146
1163	1.1562e+02	-6.2854	-20.825565	0.000213	2.129814	0.721600	-0.000085
1164	1.1572e+02	-6.3351	-20.970902	0.000365	3.651110	1.237029	-0.000146
1165	1.1582e+02	-6.3736	-21.136424	0.000416	4.158208	1.408839	-0.000166
1166	1.1592e+02	-6.4105	-21.273687	0.000345	3.448270	1.168306	-0.000138
1167	1.1602e+02	-6.4458	-21.370578	0.000243	2.434073	0.824686	-0.000097
1168	1.1612e+02	-6.4891	-21.459395	0.000223	2.231234	0.755962	-0.000089
1169	1.1622e+02	-6.5292	-21.576472	0.000294	2.941172	0.996496	-0.000118
1170	1.1632e+02	-6.5613	-21.665289	0.000223	2.231234	0.755962	-0.000089
1171	1.1642e+02	-6.6078	-21.814663	0.000375	3.752529	1.271391	-0.000150
1172	1.1651e+02	-6.6415	-21.923666	0.000274	2.738332	0.927772	-0.000110
1173	1.1661e+02	-6.6864	-22.044780	0.000304	3.042591	1.030858	-0.000122
1174	1.1671e+02	-6.7169	-22.190117	0.000365	3.651110	1.237029	-0.000146
1175	1.1681e+02	-6.7699	-22.315268	0.000314	3.144011	1.065220	-0.000126
1176	1.1691e+02	-6.8052	-22.448493	0.000335	3.346850	1.133944	-0.000134
1177	1.1701e+02	-6.8421	-22.513087	0.000162	1.622715	0.549791	-0.000065
1178	1.1711e+02	-6.8902	-22.694759	0.000456	4.563887	1.546287	-0.000183
1179	1.1721e+02	-6.9239	-22.791650	0.000243	2.434073	0.824686	-0.000097
1180	1.1731e+02	-6.9640	-22.928912	0.000345	3.448270	1.168306	-0.000138
1181	1.1741e+02	-7.0121	-23.050026	0.000304	3.042591	1.030858	-0.000122
1182	1.1751e+02	-7.0506	-23.191326	0.000355	3.549690	1.202667	-0.000142
1183	1.1761e+02	-7.0827	-23.340700	0.000375	3.752529	1.271391	-0.000150
1184	1.1771e+02	-7.1196	-23.457777	0.000294	2.941172	0.996496	-0.000118
1185	1.1781e+02	-7.1709	-23.623300	0.000416	4.158208	1.408839	-0.000166
1186	1.1791e+02	-7.1982	-23.720191	0.000243	2.434073	0.824686	-0.000097
1187	1.1801e+02	-7.2399	-23.809008	0.000223	2.231234	0.755962	-0.000089
1188	1.1811e+02	-7.2864	-23.926085	0.000294	2.941172	0.996496	-0.000118
1189	1.1821e+02	-7.3233	-24.035088	0.000274	2.738332	0.927772	-0.000110
1190	1.1831e+02	-7.3538	-24.140053	0.000264	2.636912	0.893410	-0.000105
1191	1.1841e+02	-7.4035	-24.277316	0.000345	3.448270	1.168306	-0.000138
1192	1.1850e+02	-7.4372	-24.414578	0.000345	3.448270	1.168306	-0.000138
1193	1.1860e+02	-7.4854	-24.531655	0.000294	2.941172	0.996496	-0.000118
1194	1.1870e+02	-7.5222	-24.648732	0.000294	2.941172	0.996496	-0.000118
1195	1.1880e+02	-7.5704	-24.745624	0.000243	2.434073	0.824686	-0.000097
1196	1.1890e+02	-7.6089	-24.899035	0.000385	3.853949	1.305753	-0.000154
1197	1.1900e+02	-7.6458	-24.991889	0.000233	2.332653	0.790324	-0.000093
1198	1.1910e+02	-7.6827	-25.137226	0.000365	3.651110	1.237029	-0.000146
1199	1.1920e+02	-7.7099	-25.266414	0.000325	3.245431	1.099582	-0.000130
1200	1.1930e+02	-7.7597	-25.343120	0.000193	1.926974	0.652877	-0.000077
1201	1.1940e+02	-7.7998	-25.532865	0.000477	4.766726	1.615011	-0.000191
1202	1.1950e+02	-7.8431	-25.682239	0.000375	3.752529	1.271391	-0.000150
1203	1.1960e+02	-7.8848	-25.787205	0.000264	2.636912	0.893410	-0.000105
1204	1.1970e+02	-7.9153	-25.867947	0.000203	2.028394	0.687239	-0.000081
1205	1.1980e+02	-7.9634	-25.968876	0.000254	2.535493	0.859048	-0.000101
1206	1.1990e+02	-8.0067	-26.118250	0.000375	3.752529	1.271391	-0.000150
1207	1.2000e+02	-8.0372	-26.219178	0.000254	2.535493	0.859048	-0.000101
1208	1.2010e+02	-8.0805	-26.332218	0.000284	2.839752	0.962134	-0.000114
1209	1.2020e+02	-8.1222	-26.429109	0.000243	2.434073	0.824686	-0.000097
1210	1.2030e+02	-8.1623	-26.606743	0.000446	4.462467	1.511925	-0.000179
1211	1.2039e+02	-8.2008	-26.651152	0.000112	1.115617	0.377981	-0.000045
1212	1.2049e+02	-8.2409	-26.816674	0.000416	4.158208	1.408839	-0.000166
1213	1.2059e+02	-8.2794	-26.913565	0.000243	2.434073	0.824686	-0.000097
1214	1.2069e+02	-8.3276	-27.066977	0.000385	3.853949	1.305753	-0.000154
1215	1.2079e+02	-8.3564	-27.184053	0.000294	2.941172	0.996496	-0.000118
1216	1.2089e+02	-8.4078	-27.293056	0.000274	2.738332	0.927772	-0.000110
1217	1.2099e+02	-8.4463	-27.426282	0.000335	3.346850	1.133944	-0.000134
1218	1.2109e+02	-8.4768	-27.539321	0.000284	2.839752	0.962134	-0.000114
1219	1.2119e+02	-8.5217	-27.636213	0.000243	2.434073	0.824686	-0.000097
1220	1.2129e+02	-8.5586	-27.797698	0.000406	4.056788	1.374477	-0.000162
1221	1.2139e+02	-8.5955	-27.930924	0.000335	3.346850	1.133944	-0.000134
1222	1.2149e+02	-8.6292	-28.060112	0.000325	3.245431	1.099582	-0.000130
1223	1.2159e+02	-8.6789	-28.120669	0.000152	1.521296	0.515429	-0.000061
1224	1.2169e+02	-8.7270	-28.233709	0.000284	2.839752	0.962134	-0.000114
1225	1.2179e+02	-8.7575	-28.338674	0.000264	2.636912	0.893410	-0.000105
1226	1.2189e+02	-8.8008	-28.467863	0.000325	3.245431	1.099582	-0.000130
1227	1.2199e+02	-8.8441	-28.593014	0.000314	3.144011	1.065220	-0.000126
1228	1.2209e+02	-8.8762	-28.718165	0.000314	3.144011	1.065220	-0.000126
1229	1.2219e+02	-8.9163	-28.798908	0.000203	2.028394	0.687239	-0.000081
1230	1.2229e+02	-8.9580	-28.932133	0.000335	3.346850	1.133944	-0.000134
1231	1.2239e+02	-8.9965	-29.061322	0.000325	3.245431	1.099582	-0.000130
1232	1.2248e+02	-9.0286	-29.202621	0.000355	3.549690	1.202667	-0.000142
1233	1.2258e+02	-9.0816	-29.263178	0.000152	1.521296	0.515429	-0.000061
1234	1.2268e+02	-9.1169	-29.428701	0.000416	4.158208	1.408839	-0.000166
1235	1.2278e+02	-9.1554	-29.537704	0.000274	2.738332	0.927772	-0.000110
1236	1.2288e+02	-9.1955	-29.691115	0.000385	3.853949	1.305753	-0.000154
1237	1.2298e+02	-9.2308	-29.804155	0.000284	2.839752	0.962134	-0.000114
1238	1.2308e+02	-9.2725	-29.925269	0.000304	3.042591	1.030858	-0.000122
1239	1.2318e+02	-9.3174	-30.082717	0.000396	3.955369	1.340115	-0.000158
1240	1.2328e+02	-9.3543	-30.175571	0.000233	2.332653	0.790324	-0.000093
1241	1.2338e+02	-9.3912	-30.284574	0.000274	2.738332	0.927772	-0.000110
1242	1.2348e+02	-9.4329	-30.381465	0.000243	2.434073	0.824686	-0.000097
1243	1.2358e+02	-9.4826	-30.478356	0.000243	2.434073	0.824686	-0.000097
1244	1.2368e+02	-9.5227	-30.619656	0.000355	3.549690	1.202667	-0.000142
1245	1.2378e+02	-9.5596	-30.744807	0.000314	3.144011	1.065220	-0.000126
1246	1.2388e+02	-9.6013	-30.809401	0.000162	1.622715	0.549791	-0.000065
1247	1.2398e+02	-9.6366	-30.914367	0.000264	2.636912	0.893410	-0.000105
1248	1.2408e+02	-9.6751	-31.092001	0.000446	4.462467	1.511925	-0.000179
1249	1.2418e+02	-9.7168	-31.196966	0.000264	2.636912	0.893410	-0.000105
1250	1.2428e+02	-9.7505	-31.314043	0.000294	2.941172	0.996496	-0.000118
1251	1.2438e+02	-9.8019	-31.419009	0.000264	2.636912	0.893410	-0.000105
1252	1.2447e+02	-9.8356	-31.540123	0.000304	3.042591	1.030858	-0.000122
1253	1.2457e+02	-9.8708	-31.689497	0.000375	3.752529	1.271391	-0.000150
1254	1.2467e+02	-9.9061	-31.830797	0.000355	3.549690	1.202667	-0.000142
1255	1.2477e+02	-9.9527	-31.927688	0.000243	2.434073	0.824686	-0.000097
1256	1.2487e+02	-9.9944	-32.016505	0.000223	2.231234	0.755962	-0.000089
1257	1.2497e+02	-10.0281	-32.177990	0.000406	4.056788	1.374477	-0.000162
1258	1.2507e+02	-10.0714	-32.262770	0.000213	2.129814	0.721600	-0.000085
1259	1.2517e+02	-10.1147	-32.391959	0.000325	3.245431	1.099582	-0.000130
1260	1.2527e+02	-10.1580	-32.476738	0.000213	2.129814	0.721600	-0.000085
1261	1.2537e+02	-10.1853	-32.593815	0.000294	2.941172	0.996496	-0.000118
1262	1.2547e+02	-10.2350	-32.727041	0.000335	3.346850	1.133944	-0.000134
1263	1.2557e+02	-10.2767	-32.811821	0.000213	2.129814	0.721600	-0.000085
1264	1.2567e+02	-10.3088	-32.908712	0.000243	2.434073	0.824686	-0.000097
1265	1.2577e+02	-10.3537	-33.082309	0.000436	4.361048	1.477563	-0.000174
1266	1.2587e+02	-10.3970	-33.167089	0.000213	2.129814	0.721600	-0.000085
1267	1.2597e+02	-10.4291	-33.288203	0.000304	3.042591	1.030858	-0.000122
1268	1.2607e+02	-10.4756	-33.352797	0.000162	1.622715	0.549791	-0.000065
1269	1.2617e+02	-10.5109	-33.469874	0.000294	2.941172	0.996496	-0.000118
1270	1.2627e+02	-10.5478	-33.595025	0.000314	3.144011	1.065220	-0.000126
1271	1.2636e+02	-10.5879	-33.720176	0.000314	3.144011	1.065220	-0.000126
1272	1.2646e+02	-10.6232	-33.913959	0.000487	4.868146	1.649373	-0.000195
1273	1.2656e+02	-10.6649	-34.014887	0.000254	2.535493	0.859048	-0.000101
1274	1.2666e+02	-10.7050	-34.091593	0.000193	1.926974	0.652877	-0.000077
1275	1.2676e+02	-10.7435	-34.220781	0.000325	3.245431	1.099582	-0.000130
1276	1.2686e+02	-10.7820	-34.325747	0.000264	2.636912	0.893410	-0.000105
1277	1.2696e+02	-10.8302	-34.442824	0.000294	2.941172	0.996496	-0.000118
1278	1.2706e+02	-10.8703	-34.563938	0.000304	3.042591	1.030858	-0.000122
1279	1.2716e+02	-10.9120	-34.640643	0.000193	1.926974	0.652877	-0.000077
1280	1.2726e+02	-10.9585	-34.721386	0.000203	2.028394	0.687239	-0.000081
1281	1.2736e+02	-10.9890	-34.858649	0.000345	3.448270	1.168306	-0.000138
1282	1.2746e+02	-11.0307	-35.012060	0.000385	3.853949	1.305753	-0.000154
1283	1.2756e+02	-11.0756	-35.108951	0.000243	2.434073	0.824686	-0.000097
1284	1.2766e+02	-11.1141	-35.242176	0.000335	3.346850	1.133944	-0.000134
1285	1.2776e+02	-11.1510	-35.335031	0.000233	2.332653	0.790324	-0.000093
1286	1.2786e+02	-11.1831	-35.464219	0.000325	3.245431	1.099582	-0.000130
1287	1.2796e+02	-11.2328	-35.589370	0.000314	3.144011	1.065220	-0.000126
1288	1.2806e+02	-11.2729	-35.694336	0.000264	2.636912	0.893410	-0.000105
1289	1.2816e+02	-11.3050	-35.819487	0.000314	3.144011	1.065220	-0.000126
1290	1.2826e+02	-11.3387	-35.924452	0.000264	2.636912	0.893410	-0.000105
1291	1.2835e+02	-11.3836	-36.077864	0.000385	3.853949	1.305753	-0.000154
1292	1.2845e+02	-11.4270	-36.219163	0.000355	3.549690	1.202667	-0.000142
1293	1.2855e+02	-11.4558	-36.352389	0.000335	3.346850	1.133944	-0.000134
1294	1.2865e+02	-11.5072	-36.469466	0.000294	2.941172	0.996496	-0.000118
1295	1.2875e+02	-11.5457	-36.521948	0.000132	1.318456	0.446705	-0.000053
1296	1.2885e+02	-11.5858	-36.614803	0.000233	2.332653	0.790324	-0.000093
1297	1.2895e+02	-11.6307	-36.752065	0.000345	3.448270	1.168306	-0.000138
1298	1.2905e+02	-11.6612	-36.844919	0.000233	2.332653	0.790324	-0.000093
1299	1.2915e+02	-11.7125	-36.941811	0.000243	2.434073	0.824686	-0.000097
1300	1.2925e+02	-11.7414	-37.062925	0.000304	3.042591	1.030858	-0.000122
1301	1.2935e+02	-11.7863	-37.192113	0.000325	3.245431	1.099582	-0.000130
1302	1.2945e+02	-11.8344	-37.305153	0.000284	2.839752	0.962134	-0.000114
1303	1.2955e+02	-11.8617	-37.402044	0.000243	2.434073	0.824686	-0.000097
1304	1.2965e+02	-11.9130	-37.563529	0.000406	4.056788	1.374477	-0.000162
1305	1.2975e+02	-11.9435	-37.652346	0.000223	2.231234	0.755962	-0.000089
1306	1.2985e+02	-11.9932	-37.757312	0.000264	2.636912	0.893410	-0.000105
1307	1.2995e+02	-12.0285	-37.838055	0.000203	2.028394	0.687239	-0.000081
1308	1.3005e+02	-12.0606	-37.991466	0.000385	3.853949	1.305753	-0.000154
1309	1.3015e+02	-12.1039	-38.144877	0.000385	3.853949	1.305753	-0.000154
1310	1.3025e+02	-12.1505	-38.265991	0.000304	3.042591	1.030858	-0.000122
1311	1.3034e+02	-12.1874	-38.391142	0.000314	3.144011	1.065220	-0.000126
1312	1.3044e+02	-12.2210	-38.451699	0.000152	1.521296	0.515429	-0.000061
1313	1.3054e+02	-12.2708	-38.548591	0.000243	2.434073	0.824686	-0.000097
1314	1.3064e+02	-12.3029	-38.661630	0.000284	2.839752	0.962134	-0.000114
1315	1.3074e+02	-12.3446	-38.742373	0.000203	2.028394	0.687239	-0.000081
1316	1.3084e+02	-12.3879	-38.871561	0.000325	3.245431	1.099582	-0.000130
1317	1.3094e+02	-12.4232	-38.988638	0.000294	2.941172	0.996496	-0.000118
1318	1.3104e+02	-12.4569	-39.085530	0.000243	2.434073	0.824686	-0.000097
1319	1.3114e+02	-12.4986	-39.222792	0.000345	3.448270	1.168306	-0.000138
1320	1.3124e+02	-12.5483	-39.327758	0.000264	2.636912	0.893410	-0.000105
1321	1.3134e+02	-12.5836	-39.452909	0.000314	3.144011	1.065220	-0.000126
1322	1.3144e+02	-12.6333	-39.533652	0.000203	2.028394	0.687239	-0.000081
1323	1.3154e+02	-12.6606	-39.646692	0.000284	2.839752	0.962134	-0.000114
1324	1.3164e+02	-12.6959	-39.775880	0.000325	3.245431	1.099582	-0.000130
1325	1.3174e+02	-12.7472	-39.913142	0.000345	3.448270	1.168306	-0.000138
1326	1.3184e+02	-12.7905	-40.034257	0.000304	3.042591	1.030858	-0.000122
1327	1.3194e+02	-12.8194	-40.143259	0.000274	2.738332	0.927772	-0.000110
1328	1.3204e+02	-12.8547	-40.260336	0.000294	2.941172	0.996496	-0.000118
1329	1.3214e+02	-12.8996	-40.328967	0.000172	1.724135	0.584153	-0.000069
1330	1.3224e+02	-12.9446	-40.466230	0.000345	3.448270	1.168306	-0.000138
1331	1.3234e+02	-12.9766	-40.583307	0.000294	2.941172	0.996496	-0.000118
1332	1.3243e+02	-13.0216	-40.664050	0.000203	2.028394	0.687239	-0.000081
1333	1.3253e+02	-13.0617	-40.764978	0.000254	2.535493	0.859048	-0.000101
1334	1.3263e+02	-13.1034	-40.853795	0.000223	2.231234	0.755962	-0.000089
1335	1.3273e+02	-13.1403	-40.974909	0.000304	3.042591	1.030858	-0.000122
1336	1.3283e+02	-13.1772	-41.091986	0.000294	2.941172	0.996496	-0.000118
1337	1.3293e+02	-13.2205	-41.192915	0.000254	2.535493	0.859048	-0.000101
1338	1.3303e+02	-13.2638	-41.318066	0.000314	3.144011	1.065220	-0.000126
1339	1.3313e+02	-13.2911	-41.475514	0.000396	3.955369	1.340115	-0.000158
1340	1.3323e+02	-13.3344	-41.519922	0.000112	1.115617	0.377981	-0.000045
1341	1.3333e+02	-13.3825	-41.620851	0.000254	2.535493	0.859048	-0.000101
1342	1.3343e+02	-13.4258	-41.733891	0.000284	2.839752	0.962134	-0.000114
1343	1.3353e+02	-13.4659	-41.867116	0.000335	3.346850	1.133944	-0.000134
1344	1.3363e+02	-13.4932	-41.992267	0.000314	3.144011	1.065220	-0.000126
1345	1.3373e+02	-13.5494	-42.137604	0.000365	3.651110	1.237029	-0.000146
1346	1.3383e+02	-13.5814	-42.254681	0.000294	2.941172	0.996496	-0.000118
1347	1.3393e+02	-13.6119	-42.335424	0.000203	2.028394	0.687239	-0.000081
1348	1.3403e+02	-13.6568	-42.456538	0.000304	3.042591	1.030858	-0.000122
1349	1.3413e+02	-13.6953	-42.573615	0.000294	2.941172	0.996496	-0.000118
1350	1.3423e+02	-13.7370	-42.630135	0.000142	1.419876	0.481067	-0.000057
1351	1.3432e+02	-13.7820	-42.739137	0.000274	2.738332	0.927772	-0.000110
1352	1.3442e+02	-13.8157	-42.844103	0.000264	2.636912	0.893410	-0.000105
1353	1.3452e+02	-13.8654	-42.940994	0.000243	2.434073	0.824686	-0.000097
1354	1.3462e+02	-13.8927	-43.082294	0.000355	3.549690	1.202667	-0.000142
1355	1.3472e+02	-13.9424	-43.215520	0.000335	3.346850	1.133944	-0.000134
1356	1.3482e+02	-13.9745	-43.284151	0.000172	1.724135	0.584153	-0.000069
1357	1.3492e+02	-14.0194	-43.389116	0.000264	2.636912	0.893410	-0.000105
1358	1.3502e+02	-14.0627	-43.490045	0.000254	2.535493	0.859048	-0.000101
1359	1.3512e+02	-14.1012	-43.566750	0.000193	1.926974	0.652877	-0.000077
1360	1.3522e+02	-14.1509	-43.772644	0.000517	5.172405	1.752458	-0.000207
1361	1.3532e+02	-14.1878	-43.845313	0.000183	1.825555	0.618515	-0.000073
1362	1.3542e+02	-14.2103	-44.022947	0.000446	4.462467	1.511925	-0.000179
1363	1.3552e+02	-14.2440	-44.131949	0.000274	2.738332	0.927772	-0.000110
1364	1.3562e+02	-14.2889	-44.240952	0.000274	2.738332	0.927772	-0.000110
1365	1.3572e+02	-14.3370	-44.321695	0.000203	2.028394	0.687239	-0.000081
1366	1.3582e+02	-14.3787	-44.442809	0.000304	3.042591	1.030858	-0.000122
1367	1.3592e+02	-14.4124	-44.543737	0.000254	2.535493	0.859048	-0.000101
1368	1.3602e+02	-14.4573	-44.628517	0.000213	2.129814	0.721600	-0.000085
1369	1.3612e+02	-14.5023	-44.672926	0.000112	1.115617	0.377981	-0.000045
1370	1.3622e+02	-14.5360	-44.806151	0.000335	3.346850	1.133944	-0.000134
1371	1.3631e+02	-14.5745	-44.915154	0.000274	2.738332	0.927772	-0.000110
1372	1.3641e+02	-14.6162	-44.999934	0.000213	2.129814	0.721600	-0.000085
1373	1.3651e+02	-14.6499	-45.141233	0.000355	3.549690	1.202667	-0.000142
1374	1.3661e+02	-14.7012	-45.278496	0.000345	3.448270	1.168306	-0.000138
1375	1.3671e+02	-14.7285	-45.330979	0.000132	1.318456	0.446705	-0.000053
1376	1.3681e+02	-14.7718	-45.472278	0.000355	3.549690	1.202667	-0.000142
1377	1.3691e+02	-14.8183	-45.524761	0.000132	1.318456	0.446705	-0.000053
1378	1.3701e+02	-14.8600	-45.649912	0.000314	3.144011	1.065220	-0.000126
1379	1.3711e+02	-14.8905	-45.758915	0.000274	2.738332	0.927772	-0.000110
1380	1.3721e+02	-14.9306	-45.920400	0.000406	4.056788	1.374477	-0.000162
1381	1.3731e+02	-14.9643	-46.025366	0.000264	2.636912	0.893410	-0.000105
1382	1.3741e+02	-15.0092	-46.166666	0.000355	3.549690	1.202667	-0.000142
1383	1.3751e+02	-15.0589	-46.267594	0.000254	2.535493	0.859048	-0.000101
1384	1.3761e+02	-15.0830	-46.356411	0.000223	2.231234	0.755962	-0.000089
1385	1.3771e+02	-15.1327	-46.469451	0.000284	2.839752	0.962134	-0.000114
1386	1.3781e+02	-15.1712	-46.558268	0.000223	2.231234	0.755962	-0.000089
1387	1.3791e+02	-15.2129	-46.667271	0.000274	2.738332	0.927772	-0.000110
1388	1.3801e+02	-15.2498	-46.715716	0.000122	1.217037	0.412343	-0.000049
1389	1.3811e+02	-15.2964	-46.824719	0.000274	2.738332	0.927772	-0.000110
1390	1.3821e+02	-15.3365	-46.929684	0.000264	2.636912	0.893410	-0.000105
1391	1.3831e+02	-15.3750	-47.038687	0.000274	2.738332	0.927772	-0.000110
1392	1.3840e+02	-15.4151	-47.139615	0.000254	2.535493	0.859048	-0.000101
1393	1.3850e+02	-15.4536	-47.244581	0.000264	2.636912	0.893410	-0.000105
1394	1.3860e+02	-15.4969	-47.349547	0.000264	2.636912	0.893410	-0.000105
1395	1.3870e+02	-15.5338	-47.466623	0.000294	2.941172	0.996496	-0.000118
1396	1.3880e+02	-15.5675	-47.620035	0.000385	3.853949	1.305753	-0.000154
1397	1.3890e+02	-15.6092	-47.680592	0.000152	1.521296	0.515429	-0.000061
1398	1.3900e+02	-15.6557	-47.870337	0.000477	4.766726	1.615011	-0.000191
1399	1.3910e+02	-15.6878	-47.955117	0.000213	2.129814	0.721600	-0.000085
1400	1.3920e+02	-15.7295	-48.092379	0.000345	3.448270	1.168306	-0.000138
1401	1.3930e+02	-15.7696	-48.165048	0.000183	1.825555	0.618515	-0.000073
1402	1.3940e+02	-15.8225	-48.286162	0.000304	3.042591	1.030858	-0.000122
1403	1.3950e+02	-15.8514	-48.395165	0.000274	2.738332	0.927772	-0.000110
1404	1.3960e+02	-15.8835	-48.496093	0.000254	2.535493	0.859048	-0.000101
1405	1.3970e+02	-15.9268	-48.625281	0.000325	3.245431	1.099582	-0.000130
1406	1.3980e+02	-15.9685	-48.681801	0.000142	1.419876	0.481067	-0.000057
1407	1.3990e+02	-16.0054	-48.770618	0.000223	2.231234	0.755962	-0.000089
1408	1.4000e+02	-16.0552	-48.879621	0.000274	2.738332	0.927772	-0.000110
1409	1.4010e+02	-16.0872	-48.988624	0.000274	2.738332	0.927772	-0.000110
1410	1.4020e+02	-16.1306	-49.085515	0.000243	2.434073	0.824686	-0.000097
1411	1.4029e+02	-16.1675	-49.186443	0.000254	2.535493	0.859048	-0.000101
1412	1.4039e+02	-16.2044	-49.307557	0.000304	3.042591	1.030858	-0.000122
1413	1.4049e+02	-16.2493	-49.404449	0.000243	2.434073	0.824686	-0.000097
1414	1.4059e+02	-16.2878	-49.497303	0.000233	2.332653	0.790324	-0.000093
1415	1.4069e+02	-16.3231	-49.638602	0.000355	3.549690	1.202667	-0.000142
1416	1.4079e+02	-16.3632	-49.727419	0.000223	2.231234	0.755962	-0.000089
1417	1.4089e+02	-16.4049	-49.888905	0.000406	4.056788	1.374477	-0.000162
1418	1.4099e+02	-16.4434	-50.018093	0.000325	3.245431	1.099582	-0.000130
1419	1.4109e+02	-16.4819	-50.127096	0.000274	2.738332	0.927772	-0.000110
1420	1.4119e+02	-16.5252	-50.223987	0.000243	2.434073	0.824686	-0.000097
1421	1.4129e+02	-16.5669	-50.296656	0.000183	1.825555	0.618515	-0.000073
1422	1.4139e+02	-16.6070	-50.425844	0.000325	3.245431	1.099582	-0.000130
1423	1.4149e+02	-16.6391	-50.546958	0.000304	3.042591	1.030858	-0.000122
1424	1.4159e+02	-16.6920	-50.647886	0.000254	2.535493	0.859048	-0.000101
1425	1.4169e+02	-16.7289	-50.700369	0.000132	1.318456	0.446705	-0.000053
1426	1.4179e+02	-16.7658	-50.845706	0.000365	3.651110	1.237029	-0.000146
1427	1.4189e+02	-16.8043	-50.894152	0.000122	1.217037	0.412343	-0.000049
1428	1.4199e+02	-16.8444	-51.007191	0.000284	2.839752	0.962134	-0.000114
1429	1.4209e+02	-16.8862	-51.144454	0.000345	3.448270	1.168306	-0.000138
1430	1.4219e+02	-16.9263	-51.217123	0.000183	1.825555	0.618515	-0.000073
1431	1.4228e+02	-16.9664	-51.338237	0.000304	3.042591	1.030858	-0.000122
1432	1.4238e+02	-17.0065	-51.475499	0.000345	3.448270	1.168306	-0.000138
1433	1.4248e+02	-17.0466	-51.576428	0.000254	2.535493	0.859048	-0.000101
1434	1.4258e+02	-17.0722	-51.673319	0.000243	2.434073	0.824686	-0.000097
1435	1.4268e+02	-17.1220	-51.842879	0.000426	4.259628	1.443201	-0.000170
1436	1.4278e+02	-17.1589	-51.935733	0.000233	2.332653	0.790324	-0.000093
1437	1.4288e+02	-17.1974	-52.072995	0.000345	3.448270	1.168306	-0.000138
1438	1.4298e+02	-17.2343	-52.157775	0.000213	2.129814	0.721600	-0.000085
1439	1.4308e+02	-17.2840	-52.291001	0.000335	3.346850	1.133944	-0.000134
1440	1.4318e+02	-17.3273	-52.351558	0.000152	1.521296	0.515429	-0.000061
1441	1.4328e+02	-17.3530	-52.492857	0.000355	3.549690	1.202667	-0.000142
1442	1.4338e+02	-17.4011	-52.593786	0.000254	2.535493	0.859048	-0.000101
1443	1.4348e+02	-17.4412	-52.767383	0.000436	4.361048	1.477563	-0.000174
1444	1.4358e+02	-17.4893	-52.799680	0.000081	0.811358	0.274895	-0.000032
1445	1.4368e+02	-17.5262	-52.884460	0.000213	2.129814	0.721600	-0.000085
1446	1.4378e+02	-17.5615	-53.013648	0.000325	3.245431	1.099582	-0.000130
1447	1.4388e+02	-17.6049	-53.086316	0.000183	1.825555	0.618515	-0.000073
1448	1.4398e+02	-17.6530	-53.247802	0.000406	4.056788	1.374477	-0.000162
1449	1.4408e+02	-17.6995	-53.328545	0.000203	2.028394	0.687239	-0.000081
1450	1.4418e+02	-17.7300	-53.449659	0.000304	3.042591	1.030858	-0.000122
1451	1.4428e+02	-17.7573	-53.590958	0.000355	3.549690	1.202667	-0.000142
1452	1.4437e+02	-17.8022	-53.691887	0.000254	2.535493	0.859048	-0.000101
1453	1.4447e+02	-17.8327	-53.857409	0.000416	4.158208	1.408839	-0.000166
1454	1.4457e+02	-17.8695	-54.018895	0.000406	4.056788	1.374477	-0.000162
1455	1.4467e+02	-17.9177	-54.103675	0.000213	2.129814	0.721600	-0.000085
1456	1.4477e+02	-17.9562	-54.244974	0.000355	3.549690	1.202667	-0.000142
1457	1.4487e+02	-18.0011	-54.358014	0.000284	2.839752	0.962134	-0.000114
1458	1.4497e+02	-18.0364	-54.479128	0.000304	3.042591	1.030858	-0.000122
1459	1.4507e+02	-18.0781	-54.632539	0.000385	3.853949	1.305753	-0.000154
1460	1.4517e+02	-18.1134	-54.717319	0.000213	2.129814	0.721600	-0.000085
1461	1.4527e+02	-18.1599	-54.798062	0.000203	2.028394	0.687239	-0.000081
1462	1.4537e+02	-18.2048	-54.951473	0.000385	3.853949	1.305753	-0.000154
1463	1.4547e+02	-18.2353	-55.040290	0.000223	2.231234	0.755962	-0.000089
1464	1.4557e+02	-18.2834	-55.177553	0.000345	3.448270	1.168306	-0.000138
1465	1.4567e+02	-18.3187	-55.258295	0.000203	2.028394	0.687239	-0.000081
1466	1.4577e+02	-18.3588	-55.419781	0.000406	4.056788	1.374477	-0.000162
1467	1.4587e+02	-18.3973	-55.512635	0.000233	2.332653	0.790324	-0.000093
1468	1.4597e+02	-18.4439	-55.641823	0.000325	3.245431	1.099582	-0.000130
1469	1.4607e+02	-18.4792	-55.787160	0.000365	3.651110	1.237029	-0.000146
1470	1.4617e+02	-18.5209	-55.948646	0.000406	4.056788	1.374477	-0.000162
1471	1.4626e+02	-18.5626	-56.073797	0.000314	3.144011	1.065220	-0.000126
1472	1.4636e+02	-18.5947	-56.251431	0.000446	4.462467	1.511925	-0.000179
1473	1.4646e+02	-18.6332	-56.356396	0.000264	2.636912	0.893410	-0.000105
1474	1.4656e+02	-18.6797	-56.485585	0.000325	3.245431	1.099582	-0.000130
1475	1.4666e+02	-18.7134	-56.647070	0.000406	4.056788	1.374477	-0.000162
1476	1.4676e+02	-18.7567	-56.768184	0.000304	3.042591	1.030858	-0.000122
1477	1.4686e+02	-18.8032	-56.925632	0.000396	3.955369	1.340115	-0.000158
1478	1.4696e+02	-18.8417	-57.026561	0.000254	2.535493	0.859048	-0.000101
1479	1.4706e+02	-18.8802	-57.192083	0.000416	4.158208	1.408839	-0.000166
1480	1.4716e+02	-18.9139	-57.313198	0.000304	3.042591	1.030858	-0.000122
1481	1.4726e+02	-18.9636	-57.438349	0.000314	3.144011	1.065220	-0.000126
1482	1.4736e+02	-18.9973	-57.539277	0.000254	2.535493	0.859048	-0.000101
1483	1.4746e+02	-19.0342	-57.684614	0.000365	3.651110	1.237029	-0.000146
1484	1.4756e+02	-19.0679	-57.833988	0.000375	3.752529	1.271391	-0.000150
1485	1.4766e+02	-19.1160	-57.947028	0.000284	2.839752	0.962134	-0.000114
1486	1.4776e+02	-19.1626	-58.124662	0.000446	4.462467	1.511925	-0.000179
1487	1.4786e+02	-19.1930	-58.294221	0.000426	4.259628	1.443201	-0.000170
1488	1.4796e+02	-19.2315	-58.419373	0.000314	3.144011	1.065220	-0.000126
1489	1.4806e+02	-19.2829	-58.597007	0.000446	4.462467	1.511925	-0.000179
1490	1.4816e+02	-19.3150	-58.782715	0.000467	4.665307	1.580649	-0.000187
1491	1.4825e+02	-19.3470	-58.940163	0.000396	3.955369	1.340115	-0.000158
1492	1.4835e+02	-19.3952	-59.073389	0.000335	3.346850	1.133944	-0.000134
1493	1.4845e+02	-19.4353	-59.238911	0.000416	4.158208	1.408839	-0.000166
1494	1.4855e+02	-19.4658	-59.384248	0.000365	3.651110	1.237029	-0.000146
1495	1.4865e+02	-19.5107	-59.521511	0.000345	3.448270	1.168306	-0.000138
1496	1.4875e+02	-19.5540	-59.678959	0.000396	3.955369	1.340115	-0.000158
1497	1.4885e+02	-19.5893	-59.791999	0.000284	2.839752	0.962134	-0.000114
1498	1.4895e+02	-19.6438	-59.993856	0.000507	5.070985	1.718096	-0.000203
1499	1.4905e+02	-19.6727	-60.119007	0.000314	3.144011	1.065220	-0.000126
1500	1.4915e+02	-19.7192	-60.276455	0.000396	3.955369	1.340115	-0.000158
1501	1.4925e+02	-19.7529	-60.450052	0.000436	4.361048	1.477563	-0.000174
1502	1.4935e+02	-19.7946	-60.615575	0.000416	4.158208	1.408839	-0.000166
1503	1.4945e+02	-19.8315	-60.801283	0.000467	4.665307	1.580649	-0.000187
1504	1.4955e+02	-19.8636	-60.906248	0.000264	2.636912	0.893410	-0.000105
1505	1.4965e+02	-19.9230	-61.140402	0.000588	5.882343	1.992992	-0.000235
1506	1.4975e+02	-19.9502	-61.354370	0.000538	5.375245	1.821182	-0.000215
1507	1.4985e+02	-19.9759	-61.495670	0.000355	3.549690	1.202667	-0.000142
1508	1.4995e+02	-19.9502	-61.519893	-0.000061	-0.608518	-0.206172	-0.000024
1509	1.5005e+02	-19.9182	-61.519893	0.000000	0.000000	0.000000	0.000000
1510	1.5015e+02	-19.8716	-61.511819	0.000020	0.202839	0.068724	0.000008
1511	1.5025e+02	-19.8315	-61.483559	0.000071	0.709938	0.240533	0.000028
1512	1.5034e+02	-19.7898	-61.483559	0.000000	0.000000	0.000000	0.000000
1513	1.5044e+02	-19.7465	-61.503744	-0.000051	-0.507099	-0.171810	-0.000020
1514	1.5054e+02	-19.7064	-61.471447	0.000081	0.811358	0.274895	0.000032
1515	1.5064e+02	-19.6759	-61.402816	0.000172	1.724135	0.584153	0.000069
1516	1.5074e+02	-19.6278	-61.390705	0.000030	0.304259	0.103086	0.000012
1517	1.5084e+02	-19.6053	-61.378593	0.000030	0.304259	0.103086	0.000012
1518	1.5094e+02	-19.5556	-61.322073	0.000142	1.419876	0.481067	0.000057
1519	1.5104e+02	-19.5187	-61.289776	0.000081	0.811358	0.274895	0.000032
1520	1.5114e+02	-19.4754	-61.265553	0.000061	0.608518	0.206172	0.000024
1521	1.5124e+02	-19.4385	-61.229219	0.000091	0.912777	0.309257	0.000037
1522	1.5134e+02	-19.3984	-61.188848	0.000101	1.014197	0.343619	0.000041
1523	1.5144e+02	-19.3470	-61.144439	0.000112	1.115617	0.377981	0.000045
1524	1.5154e+02	-19.3069	-61.132328	0.000030	0.304259	0.103086	0.000012
1525	1.5164e+02	-19.2781	-61.120217	0.000030	0.304259	0.103086	0.000012
1526	1.5174e+02	-19.2283	-61.035437	0.000213	2.129814	0.721600	0.000085
1527	1.5184e+02	-19.1946	-60.974880	0.000152	1.521296	0.515429	0.000061
1528	1.5194e+02	-19.1594	-60.950657	0.000061	0.608518	0.206172	0.000024
1529	1.5204e+02	-19.1176	-60.877988	0.000183	1.825555	0.618515	0.000073
1530	1.5214e+02	-19.0679	-60.833580	0.000112	1.115617	0.377981	0.000045
1531	1.5224e+02	-19.0422	-60.801283	0.000081	0.811358	0.274895	0.000032
1532	1.5233e+02	-19.0021	-60.708429	0.000233	2.332653	0.790324	0.000093
1533	1.5243e+02	-18.9556	-60.668057	0.000101	1.014197	0.343619	0.000041
1534	1.5253e+02	-18.9203	-60.591352	0.000193	1.926974	0.652877	0.000077
1535	1.5263e+02	-18.8818	-60.510609	0.000203	2.028394	0.687239	0.000081
1536	1.5273e+02	-18.8433	-60.433903	0.000193	1.926974	0.652877	0.000077
1537	1.5283e+02	-18.8000	-60.341049	0.000233	2.332653	0.790324	0.000093
1538	1.5293e+02	-18.7615	-60.320864	0.000051	0.507099	0.171810	0.000020
1539	1.5303e+02	-18.7182	-60.228010	0.000233	2.332653	0.790324	0.000093
1540	1.5313e+02	-18.6797	-60.191675	0.000091	0.912777	0.309257	0.000037
1541	1.5323e+02	-18.6364	-60.203787	-0.000030	-0.304259	-0.103086	-0.000012
1542	1.5333e+02	-18.5995	-60.094784	0.000274	2.738332	0.927772	0.000110
1543	1.5343e+02	-18.5578	-60.062487	0.000081	0.811358	0.274895	0.000032
1544	1.5353e+02	-18.5209	-59.957521	0.000264	2.636912	0.893410	0.000105
1545	1.5363e+02	-18.4743	-59.892927	0.000162	1.622715	0.549791	0.000065
1546	1.5373e+02	-18.4374	-59.832370	0.000152	1.521296	0.515429	0.000061
1547	1.5383e+02	-18.3909	-59.735479	0.000243	2.434073	0.824686	0.000097
1548	1.5393e+02	-18.3524	-59.699145	0.000091	0.912777	0.309257	0.000037
1549	1.5403e+02	-18.3139	-59.590142	0.000274	2.738332	0.927772	0.000110
1550	1.5413e+02	-18.2834	-59.509399	0.000203	2.028394	0.687239	0.000081
1551	1.5422e+02	-18.2465	-59.485177	0.000061	0.608518	0.206172	0.000024
1552	1.5432e+02	-18.2113	-59.416545	0.000172	1.724135	0.584153	0.000069
1553	1.5442e+02	-18.1551	-59.242948	0.000436	4.361048	1.477563	0.000174
1554	1.5452e+02	-18.1230	-59.198540	0.000112	1.115617	0.377981	0.000045
1555	1.5462e+02	-18.0813	-59.117797	0.000203	2.028394	0.687239	0.000081
1556	1.5472e+02	-18.0332	-59.037054	0.000203	2.028394	0.687239	0.000081
1557	1.5482e+02	-17.9995	-58.968423	0.000172	1.724135	0.584153	0.000069
1558	1.5492e+02	-17.9562	-58.915940	0.000132	1.318456	0.446705	0.000053
1559	1.5502e+02	-17.9161	-58.851346	0.000162	1.622715	0.549791	0.000065
1560	1.5512e+02	-17.8808	-58.790789	0.000152	1.521296	0.515429	0.000061
1561	1.5522e+02	-17.8487	-58.697935	0.000233	2.332653	0.790324	0.000093
1562	1.5532e+02	-17.7958	-58.677749	0.000051	0.507099	0.171810	0.000020
1563	1.5542e+02	-17.7573	-58.568747	0.000274	2.738332	0.927772	0.000110
1564	1.5552e+02	-17.7252	-58.463781	0.000264	2.636912	0.893410	0.000105
1565	1.5562e+02	-17.6867	-58.399187	0.000162	1.622715	0.549791	0.000065
1566	1.5572e+02	-17.6401	-58.290184	0.000274	2.738332	0.927772	0.000110
1567	1.5582e+02	-17.6081	-58.257887	0.000081	0.811358	0.274895	0.000032
1568	1.5592e+02	-17.5631	-58.173107	0.000213	2.129814	0.721600	0.000085
1569	1.5602e+02	-17.5198	-58.088328	0.000213	2.129814	0.721600	0.000085
1570	1.5612e+02	-17.4910	-57.975288	0.000284	2.839752	0.962134	0.000114
1571	1.5622e+02	-17.4380	-57.890508	0.000213	2.129814	0.721600	0.000085
1572	1.5631e+02	-17.4107	-57.773431	0.000294	2.941172	0.996496	0.000118
1573	1.5641e+02	-17.3658	-57.692688	0.000203	2.028394	0.687239	0.000081
1574	1.5651e+02	-17.3257	-57.636168	0.000142	1.419876	0.481067	0.000057
1575	1.5661e+02	-17.2920	-57.563500	0.000183	1.825555	0.618515	0.000073
1576	1.5671e+02	-17.2375	-57.486794	0.000193	1.926974	0.652877	0.000077
1577	1.5681e+02	-17.1942	-57.426237	0.000152	1.521296	0.515429	0.000061
1578	1.5691e+02	-17.1637	-57.361643	0.000162	1.622715	0.549791	0.000065
1579	1.5701e+02	-17.1156	-57.244566	0.000294	2.941172	0.996496	0.000118
1580	1.5711e+02	-17.0787	-57.196121	0.000122	1.217037	0.412343	0.000049
1581	1.5721e+02	-17.0386	-57.111341	0.000213	2.129814	0.721600	0.000085
1582	1.5731e+02	-17.0065	-57.046747	0.000162	1.622715	0.549791	0.000065
1583	1.5741e+02	-16.9680	-56.901410	0.000365	3.651110	1.237029	0.000146
1584	1.5751e+02	-16.9263	-56.848927	0.000132	1.318456	0.446705	0.000053
1585	1.5761e+02	-16.8781	-56.752036	0.000243	2.434073	0.824686	0.000097
1586	1.5771e+02	-16.8573	-56.659182	0.000233	2.332653	0.790324	0.000093
1587	1.5781e+02	-16.8059	-56.566327	0.000233	2.332653	0.790324	0.000093
1588	1.5791e+02	-16.7851	-56.525956	0.000101	1.014197	0.343619	0.000041
1589	1.5801e+02	-16.7321	-56.433102	0.000233	2.332653	0.790324	0.000093
1590	1.5811e+02	-16.6840	-56.311988	0.000304	3.042591	1.030858	0.000122
1591	1.5821e+02	-16.6455	-56.194911	0.000294	2.941172	0.996496	0.000118
1592	1.5830e+02	-16.6102	-56.106094	0.000223	2.231234	0.755962	0.000089
1593	1.5840e+02	-16.5717	-56.049574	0.000142	1.419876	0.481067	0.000057
1594	1.5850e+02	-16.5268	-55.968831	0.000203	2.028394	0.687239	0.000081
1595	1.5860e+02	-16.4851	-55.867903	0.000254	2.535493	0.859048	0.000101
1596	1.5870e+02	-16.4370	-55.827532	0.000101	1.014197	0.343619	0.000041
1597	1.5880e+02	-16.4033	-55.758900	0.000172	1.724135	0.584153	0.000069
1598	1.5890e+02	-16.3712	-55.645860	0.000284	2.839752	0.962134	0.000114
1599	1.5900e+02	-16.3279	-55.544932	0.000254	2.535493	0.859048	0.000101
1600	1.5910e+02	-16.2862	-55.448041	0.000243	2.434073	0.824686	0.000097
1601	1.5920e+02	-16.2509	-55.399595	0.000122	1.217037	0.412343	0.000049
1602	1.5930e+02	-16.2092	-55.290593	0.000274	2.738332	0.927772	0.000110
1603	1.5940e+02	-16.1675	-55.221961	0.000172	1.724135	0.584153	0.000069
1604	1.5950e+02	-16.1274	-55.137181	0.000213	2.129814	0.721600	0.000085
1605	1.5960e+02	-16.0872	-55.012030	0.000314	3.144011	1.065220	0.000126
1606	1.5970e+02	-16.0520	-54.935325	0.000193	1.926974	0.652877	0.000077
1607	1.5980e+02	-16.0151	-54.870730	0.000162	1.622715	0.549791	0.000065
1608	1.5990e+02	-15.9782	-54.721356	0.000375	3.752529	1.271391	0.000150
1609	1.6000e+02	-15.9300	-54.608317	0.000284	2.839752	0.962134	0.000114
1610	1.6010e+02	-15.8899	-54.547760	0.000152	1.521296	0.515429	0.000061
1611	1.6019e+02	-15.8386	-54.462980	0.000213	2.129814	0.721600	0.000085
1612	1.6029e+02	-15.8097	-54.386274	0.000193	1.926974	0.652877	0.000077
1613	1.6039e+02	-15.7648	-54.313606	0.000183	1.825555	0.618515	0.000073
1614	1.6049e+02	-15.7359	-54.212677	0.000254	2.535493	0.859048	0.000101
1615	1.6059e+02	-15.6798	-54.123860	0.000223	2.231234	0.755962	0.000089
1616	1.6069e+02	-15.6445	-54.055229	0.000172	1.724135	0.584153	0.000069
1617	1.6079e+02	-15.6108	-53.942189	0.000284	2.839752	0.962134	0.000114
1618	1.6089e+02	-15.5691	-53.841261	0.000254	2.535493	0.859048	0.000101
1619	1.6099e+02	-15.5466	-53.760518	0.000203	2.028394	0.687239	0.000081
1620	1.6109e+02	-15.4921	-53.655553	0.000264	2.636912	0.893410	0.000105
1621	1.6119e+02	-15.4568	-53.631330	0.000061	0.608518	0.206172	0.000024
1622	1.6129e+02	-15.4183	-53.490030	0.000355	3.549690	1.202667	0.000142
1623	1.6139e+02	-15.3702	-53.441584	0.000122	1.217037	0.412343	0.000049
1624	1.6149e+02	-15.3381	-53.368916	0.000183	1.825555	0.618515	0.000073
1625	1.6159e+02	-15.2996	-53.284136	0.000213	2.129814	0.721600	0.000085
1626	1.6169e+02	-15.2530	-53.171096	0.000284	2.839752	0.962134	0.000114
1627	1.6179e+02	-15.2097	-53.078242	0.000233	2.332653	0.790324	0.000093
1628	1.6189e+02	-15.1744	-52.993462	0.000213	2.129814	0.721600	0.000085
1629	1.6199e+02	-15.1295	-52.827940	0.000416	4.158208	1.408839	0.000166
1630	1.6209e+02	-15.0878	-52.787568	0.000101	1.014197	0.343619	0.000041
1631	1.6219e+02	-15.0429	-52.694714	0.000233	2.332653	0.790324	0.000093
1632	1.6228e+02	-15.0092	-52.613972	0.000203	2.028394	0.687239	0.000081
1633	1.6238e+02	-14.9787	-52.513043	0.000254	2.535493	0.859048	0.000101
1634	1.6248e+02	-14.9258	-52.432300	0.000203	2.028394	0.687239	0.000081
1635	1.6258e+02	-14.8857	-52.363669	0.000172	1.724135	0.584153	0.000069
1636	1.6268e+02	-14.8472	-52.258704	0.000264	2.636912	0.893410	0.000105
1637	1.6278e+02	-14.8103	-52.149701	0.000274	2.738332	0.927772	0.000110
1638	1.6288e+02	-14.7782	-52.064921	0.000213	2.129814	0.721600	0.000085
1639	1.6298e+02	-14.7365	-51.947844	0.000294	2.941172	0.996496	0.000118
1640	1.6308e+02	-14.6980	-51.867101	0.000203	2.028394	0.687239	0.000081
1641	1.6318e+02	-14.6499	-51.778284	0.000223	2.231234	0.755962	0.000089
1642	1.6328e+02	-14.6194	-51.673319	0.000264	2.636912	0.893410	0.000105
1643	1.6338e+02	-14.5761	-51.556242	0.000294	2.941172	0.996496	0.000118
1644	1.6348e+02	-14.5456	-51.483573	0.000183	1.825555	0.618515	0.000073
1645	1.6358e+02	-14.4926	-51.394757	0.000223	2.231234	0.755962	0.000089
1646	1.6368e+02	-14.4493	-51.257494	0.000345	3.448270	1.168306	0.000138
1647	1.6378e+02	-14.4044	-51.188863	0.000172	1.724135	0.584153	0.000069
1648	1.6388e+02	-14.3852	-51.120231	0.000172	1.724135	0.584153	0.000069
1649	1.6398e+02	-14.3370	-51.019303	0.000254	2.535493	0.859048	0.000101
1650	1.6408e+02	-14.2985	-50.906263	0.000284	2.839752	0.962134	0.000114
1651	1.6418e+02	-14.2504	-50.841669	0.000162	1.622715	0.549791	0.000065
1652	1.6427e+02	-14.2135	-50.732666	0.000274	2.738332	0.927772	0.000110
1653	1.6437e+02	-14.1782	-50.655961	0.000193	1.926974	0.652877	0.000077
1654	1.6447e+02	-14.1397	-50.546958	0.000274	2.738332	0.927772	0.000110
1655	1.6457e+02	-14.0996	-50.437955	0.000274	2.738332	0.927772	0.000110
1656	1.6467e+02	-14.0467	-50.381435	0.000142	1.419876	0.481067	0.000057
1657	1.6477e+02	-14.0114	-50.228024	0.000385	3.853949	1.305753	0.000154
1658	1.6487e+02	-13.9793	-50.175542	0.000132	1.318456	0.446705	0.000053
1659	1.6497e+02	-13.9392	-50.050390	0.000314	3.144011	1.065220	0.000126
1660	1.6507e+02	-13.8943	-49.949462	0.000254	2.535493	0.859048	0.000101
1661	1.6517e+02	-13.8542	-49.892942	0.000142	1.419876	0.481067	0.000057
1662	1.6527e+02	-13.8173	-49.816236	0.000193	1.926974	0.652877	0.000077
1663	1.6537e+02	-13.7788	-49.658788	0.000396	3.955369	1.340115	0.000158
1664	1.6547e+02	-13.7435	-49.541711	0.000294	2.941172	0.996496	0.000118
1665	1.6557e+02	-13.6873	-49.456931	0.000213	2.129814	0.721600	0.000085
1666	1.6567e+02	-13.6633	-49.408486	0.000122	1.217037	0.412343	0.000049
1667	1.6577e+02	-13.6199	-49.295446	0.000284	2.839752	0.962134	0.000114
1668	1.6587e+02	-13.5782	-49.186443	0.000274	2.738332	0.927772	0.000110
1669	1.6597e+02	-13.5365	-49.105701	0.000203	2.028394	0.687239	0.000081
1670	1.6607e+02	-13.4996	-49.004772	0.000254	2.535493	0.859048	0.000101
1671	1.6616e+02	-13.4659	-48.936141	0.000172	1.724135	0.584153	0.000069
1672	1.6626e+02	-13.4146	-48.810990	0.000314	3.144011	1.065220	0.000126
1673	1.6636e+02	-13.3841	-48.673727	0.000345	3.448270	1.168306	0.000138
1674	1.6646e+02	-13.3376	-48.621244	0.000132	1.318456	0.446705	0.000053
1675	1.6656e+02	-13.2927	-48.536464	0.000213	2.129814	0.721600	0.000085
1676	1.6666e+02	-13.2670	-48.431499	0.000264	2.636912	0.893410	0.000105
1677	1.6676e+02	-13.2253	-48.330570	0.000254	2.535493	0.859048	0.000101
1678	1.6686e+02	-13.1788	-48.213494	0.000294	2.941172	0.996496	0.000118
1679	1.6696e+02	-13.1387	-48.108528	0.000264	2.636912	0.893410	0.000105
1680	1.6706e+02	-13.1050	-48.015674	0.000233	2.332653	0.790324	0.000093
1681	1.6716e+02	-13.0649	-47.910708	0.000264	2.636912	0.893410	0.000105
1682	1.6726e+02	-13.0103	-47.817854	0.000233	2.332653	0.790324	0.000093
1683	1.6736e+02	-12.9734	-47.656369	0.000406	4.056788	1.374477	0.000162
1684	1.6746e+02	-12.9333	-47.632146	0.000061	0.608518	0.206172	0.000024
1685	1.6756e+02	-12.9012	-47.547366	0.000213	2.129814	0.721600	0.000085
1686	1.6766e+02	-12.8627	-47.426252	0.000304	3.042591	1.030858	0.000122
1687	1.6776e+02	-12.8258	-47.357621	0.000172	1.724135	0.584153	0.000069
1688	1.6786e+02	-12.7809	-47.260730	0.000243	2.434073	0.824686	0.000097
1689	1.6796e+02	-12.7440	-47.139615	0.000304	3.042591	1.030858	0.000122
1690	1.6806e+02	-12.7103	-47.087133	0.000132	1.318456	0.446705	0.000053
1691	1.6816e+02	-12.6558	-46.953907	0.000335	3.346850	1.133944	0.000134
1692	1.6825e+02	-12.6253	-46.840867	0.000284	2.839752	0.962134	0.000114
1693	1.6835e+02	-12.5916	-46.719753	0.000304	3.042591	1.030858	0.000122
1694	1.6845e+02	-12.5435	-46.659196	0.000152	1.521296	0.515429	0.000061
1695	1.6855e+02	-12.5066	-46.542119	0.000294	2.941172	0.996496	0.000118
1696	1.6865e+02	-12.4649	-46.429080	0.000284	2.839752	0.962134	0.000114
1697	1.6875e+02	-12.4264	-46.352374	0.000193	1.926974	0.652877	0.000077
1698	1.6885e+02	-12.3879	-46.198963	0.000385	3.853949	1.305753	0.000154
1699	1.6895e+02	-12.3446	-46.102072	0.000243	2.434073	0.824686	0.000097
1700	1.6905e+02	-12.3061	-45.972883	0.000325	3.245431	1.099582	0.000130
1701	1.6915e+02	-12.2612	-45.920400	0.000132	1.318456	0.446705	0.000053
1702	1.6925e+02	-12.2226	-45.787175	0.000335	3.346850	1.133944	0.000134
1703	1.6935e+02	-12.1809	-45.726618	0.000152	1.521296	0.515429	0.000061
1704	1.6945e+02	-12.1473	-45.629727	0.000243	2.434073	0.824686	0.000097
1705	1.6955e+02	-12.1120	-45.540910	0.000223	2.231234	0.755962	0.000089
1706	1.6965e+02	-12.0686	-45.427870	0.000284	2.839752	0.962134	0.000114
1707	1.6975e+02	-12.0237	-45.343090	0.000213	2.129814	0.721600	0.000085
1708	1.6985e+02	-11.9916	-45.217939	0.000314	3.144011	1.065220	0.000126
1709	1.6995e+02	-11.9483	-45.133159	0.000213	2.129814	0.721600	0.000085
1710	1.7005e+02	-11.9034	-45.028193	0.000264	2.636912	0.893410	0.000105
1711	1.7015e+02	-11.8681	-44.943414	0.000213	2.129814	0.721600	0.000085
1712	1.7024e+02	-11.8168	-44.798077	0.000365	3.651110	1.237029	0.000146
1713	1.7034e+02	-11.7927	-44.681000	0.000294	2.941172	0.996496	0.000118
1714	1.7044e+02	-11.7574	-44.600257	0.000203	2.028394	0.687239	0.000081
1715	1.7054e+02	-11.7061	-44.483180	0.000294	2.941172	0.996496	0.000118
1716	1.7064e+02	-11.6724	-44.366103	0.000294	2.941172	0.996496	0.000118
1717	1.7074e+02	-11.6355	-44.313620	0.000132	1.318456	0.446705	0.000053
1718	1.7084e+02	-11.5874	-44.144061	0.000426	4.259628	1.443201	0.000170
1719	1.7094e+02	-11.5665	-44.047169	0.000243	2.434073	0.824686	0.000097
1720	1.7104e+02	-11.5072	-43.954315	0.000233	2.332653	0.790324	0.000093
1721	1.7114e+02	-11.4638	-43.849350	0.000264	2.636912	0.893410	0.000105
1722	1.7124e+02	-11.4253	-43.784756	0.000162	1.622715	0.549791	0.000065
1723	1.7134e+02	-11.3820	-43.675753	0.000274	2.738332	0.927772	0.000110
1724	1.7144e+02	-11.3467	-43.570787	0.000264	2.636912	0.893410	0.000105
1725	1.7154e+02	-11.3066	-43.441599	0.000325	3.245431	1.099582	0.000130
1726	1.7164e+02	-11.2633	-43.356819	0.000213	2.129814	0.721600	0.000085
1727	1.7174e+02	-11.2280	-43.268002	0.000223	2.231234	0.755962	0.000089
1728	1.7184e+02	-11.1895	-43.142851	0.000314	3.144011	1.065220	0.000126
1729	1.7194e+02	-11.1430	-43.041923	0.000254	2.535493	0.859048	0.000101
1730	1.7204e+02	-11.1125	-42.945031	0.000243	2.434073	0.824686	0.000097
1731	1.7213e+02	-11.0596	-42.836029	0.000274	2.738332	0.927772	0.000110
1732	1.7223e+02	-11.0323	-42.747212	0.000223	2.231234	0.755962	0.000089
1733	1.7233e+02	-10.9970	-42.654358	0.000233	2.332653	0.790324	0.000093
1734	1.7243e+02	-10.9409	-42.553429	0.000254	2.535493	0.859048	0.000101
1735	1.7253e+02	-10.9120	-42.408092	0.000365	3.651110	1.237029	0.000146
1736	1.7263e+02	-10.8783	-42.291015	0.000294	2.941172	0.996496	0.000118
1737	1.7273e+02	-10.8238	-42.173938	0.000294	2.941172	0.996496	0.000118
1738	1.7283e+02	-10.7869	-42.044750	0.000325	3.245431	1.099582	0.000130
1739	1.7293e+02	-10.7532	-41.984193	0.000152	1.521296	0.515429	0.000061
1740	1.7303e+02	-10.7115	-41.919599	0.000162	1.622715	0.549791	0.000065
1741	1.7313e+02	-10.6649	-41.758114	0.000406	4.056788	1.374477	0.000162
1742	1.7323e+02	-10.6329	-41.709668	0.000122	1.217037	0.412343	0.000049
1743	1.7333e+02	-10.5895	-41.572405	0.000345	3.448270	1.168306	0.000138
1744	1.7343e+02	-10.5494	-41.443217	0.000325	3.245431	1.099582	0.000130
1745	1.7353e+02	-10.5141	-41.342289	0.000254	2.535493	0.859048	0.000101
1746	1.7363e+02	-10.4772	-41.253472	0.000223	2.231234	0.755962	0.000089
1747	1.7373e+02	-10.4371	-41.176766	0.000193	1.926974	0.652877	0.000077
1748	1.7383e+02	-10.3970	-41.051615	0.000314	3.144011	1.065220	0.000126
1749	1.7393e+02	-10.3457	-40.954723	0.000243	2.434073	0.824686	0.000097
1750	1.7403e+02	-10.3184	-40.829572	0.000314	3.144011	1.065220	0.000126
1751	1.7413e+02	-10.2703	-40.740755	0.000223	2.231234	0.755962	0.000089
1752	1.7422e+02	-10.2318	-40.611567	0.000325	3.245431	1.099582	0.000130
1753	1.7432e+02	-10.2029	-40.530824	0.000203	2.028394	0.687239	0.000081
1754	1.7442e+02	-10.1580	-40.409710	0.000304	3.042591	1.030858	0.000122
1755	1.7452e+02	-10.1147	-40.236113	0.000436	4.361048	1.477563	0.000174
1756	1.7462e+02	-10.0810	-40.143259	0.000233	2.332653	0.790324	0.000093
1757	1.7472e+02	-10.0329	-40.078665	0.000162	1.622715	0.549791	0.000065
1758	1.7482e+02	-9.9799	-39.969662	0.000274	2.738332	0.927772	0.000110
1759	1.7492e+02	-9.9543	-39.860660	0.000274	2.738332	0.927772	0.000110
1760	1.7502e+02	-9.9093	-39.763768	0.000243	2.434073	0.824686	0.000097
1761	1.7512e+02	-9.8773	-39.658803	0.000264	2.636912	0.893410	0.000105
1762	1.7522e+02	-9.8259	-39.553837	0.000264	2.636912	0.893410	0.000105
1763	1.7532e+02	-9.8003	-39.432723	0.000304	3.042591	1.030858	0.000122
1764	1.7542e+02	-9.7505	-39.372166	0.000152	1.521296	0.515429	0.000061
1765	1.7552e+02	-9.7265	-39.214718	0.000396	3.955369	1.340115	0.000158
1766	1.7562e+02	-9.6783	-39.105715	0.000274	2.738332	0.927772	0.000110
1767	1.7572e+02	-9.6318	-39.008824	0.000243	2.434073	0.824686	0.000097
1768	1.7582e+02	-9.5933	-38.920007	0.000223	2.231234	0.755962	0.000089
1769	1.7592e+02	-9.5564	-38.794856	0.000314	3.144011	1.065220	0.000126
1770	1.7602e+02	-9.5259	-38.661630	0.000335	3.346850	1.133944	0.000134
1771	1.7612e+02	-9.4730	-38.548591	0.000284	2.839752	0.962134	0.000114
1772	1.7621e+02	-9.4377	-38.447662	0.000254	2.535493	0.859048	0.000101
1773	1.7631e+02	-9.4024	-38.233694	0.000538	5.375245	1.821182	0.000215
1774	1.7641e+02	-9.3559	-38.173137	0.000152	1.521296	0.515429	0.000061
1775	1.7651e+02	-9.3078	-38.096431	0.000193	1.926974	0.652877	0.000077
1776	1.7661e+02	-9.2725	-38.035874	0.000152	1.521296	0.515429	0.000061
1777	1.7671e+02	-9.2356	-37.918797	0.000294	2.941172	0.996496	0.000118
1778	1.7681e+02	-9.2003	-37.805758	0.000284	2.839752	0.962134	0.000114
1779	1.7691e+02	-9.1473	-37.700792	0.000264	2.636912	0.893410	0.000105
1780	1.7701e+02	-9.1169	-37.563529	0.000345	3.448270	1.168306	0.000138
1781	1.7711e+02	-9.0848	-37.486824	0.000193	1.926974	0.652877	0.000077
1782	1.7721e+02	-9.0511	-37.373784	0.000284	2.839752	0.962134	0.000114
1783	1.7731e+02	-8.9981	-37.224410	0.000375	3.752529	1.271391	0.000150
1784	1.7741e+02	-8.9548	-37.139630	0.000213	2.129814	0.721600	0.000085
1785	1.7751e+02	-8.9243	-37.002368	0.000345	3.448270	1.168306	0.000138
1786	1.7761e+02	-8.8810	-36.905476	0.000243	2.434073	0.824686	0.000097
1787	1.7771e+02	-8.8345	-36.824734	0.000203	2.028394	0.687239	0.000081
1788	1.7781e+02	-8.8040	-36.671322	0.000385	3.853949	1.305753	0.000154
1789	1.7791e+02	-8.7671	-36.566357	0.000264	2.636912	0.893410	0.000105
1790	1.7801e+02	-8.7206	-36.453317	0.000284	2.839752	0.962134	0.000114
1791	1.7810e+02	-8.6757	-36.340277	0.000284	2.839752	0.962134	0.000114
1792	1.7820e+02	-8.6452	-36.223200	0.000294	2.941172	0.996496	0.000118
1793	1.7830e+02	-8.6019	-36.098049	0.000314	3.144011	1.065220	0.000126
1794	1.7840e+02	-8.5650	-36.009232	0.000223	2.231234	0.755962	0.000089
1795	1.7850e+02	-8.5089	-35.948675	0.000152	1.521296	0.515429	0.000061
1796	1.7860e+02	-8.4800	-35.807375	0.000355	3.549690	1.202667	0.000142
1797	1.7870e+02	-8.4415	-35.742781	0.000162	1.622715	0.549791	0.000065
1798	1.7880e+02	-8.3982	-35.605519	0.000345	3.448270	1.168306	0.000138
1799	1.7890e+02	-8.3564	-35.500553	0.000264	2.636912	0.893410	0.000105
1800	1.7900e+02	-8.3292	-35.399625	0.000254	2.535493	0.859048	0.000101
1801	1.7910e+02	-8.2762	-35.282548	0.000294	2.941172	0.996496	0.000118
1802	1.7920e+02	-8.2442	-35.181619	0.000254	2.535493	0.859048	0.000101
1803	1.7930e+02	-8.2073	-35.024171	0.000396	3.955369	1.340115	0.000158
1804	1.7940e+02	-8.1639	-34.927280	0.000243	2.434073	0.824686	0.000097
1805	1.7950e+02	-8.1206	-34.822314	0.000264	2.636912	0.893410	0.000105
1806	1.7960e+02	-8.0773	-34.737534	0.000213	2.129814	0.721600	0.000085
1807	1.7970e+02	-8.0372	-34.588160	0.000375	3.752529	1.271391	0.000150
1808	1.7980e+02	-8.0083	-34.527603	0.000152	1.521296	0.515429	0.000061
1809	1.7990e+02	-7.9602	-34.337858	0.000477	4.766726	1.615011	0.000191
1810	1.8000e+02	-7.9217	-34.180410	0.000396	3.955369	1.340115	0.000158
1811	1.8009e+02	-7.8768	-34.103704	0.000193	1.926974	0.652877	0.000077
1812	1.8019e+02	-7.8335	-34.051221	0.000132	1.318456	0.446705	0.000053
1813	1.8029e+02	-7.7950	-33.889736	0.000406	4.056788	1.374477	0.000162
1814	1.8039e+02	-7.7661	-33.796882	0.000233	2.332653	0.790324	0.000093
1815	1.8049e+02	-7.7196	-33.699991	0.000243	2.434073	0.824686	0.000097
1816	1.8059e+02	-7.6827	-33.566765	0.000335	3.346850	1.133944	0.000134
1817	1.8069e+02	-7.6442	-33.461800	0.000264	2.636912	0.893410	0.000105
1818	1.8079e+02	-7.6025	-33.360871	0.000254	2.535493	0.859048	0.000101
1819	1.8089e+02	-7.5624	-33.243794	0.000294	2.941172	0.996496	0.000118
1820	1.8099e+02	-7.5126	-33.118643	0.000314	3.144011	1.065220	0.000126
1821	1.8109e+02	-7.4789	-33.021752	0.000243	2.434073	0.824686	0.000097
1822	1.8119e+02	-7.4420	-32.872378	0.000375	3.752529	1.271391	0.000150
1823	1.8129e+02	-7.4083	-32.771449	0.000254	2.535493	0.859048	0.000101
1824	1.8139e+02	-7.3554	-32.658410	0.000284	2.839752	0.962134	0.000114
1825	1.8149e+02	-7.3346	-32.561518	0.000243	2.434073	0.824686	0.000097
1826	1.8159e+02	-7.2800	-32.464627	0.000243	2.434073	0.824686	0.000097
1827	1.8169e+02	-7.2479	-32.311216	0.000385	3.853949	1.305753	0.000154
1828	1.8179e+02	-7.1998	-32.194139	0.000294	2.941172	0.996496	0.000118
1829	1.8189e+02	-7.1581	-32.077062	0.000294	2.941172	0.996496	0.000118
1830	1.8199e+02	-7.1180	-31.972096	0.000264	2.636912	0.893410	0.000105
1831	1.8209e+02	-7.0811	-31.838871	0.000335	3.346850	1.133944	0.000134
1832	1.8218e+02	-7.0410	-31.741980	0.000243	2.434073	0.824686	0.000097
1833	1.8228e+02	-7.0073	-31.612791	0.000325	3.245431	1.099582	0.000130
1834	1.8238e+02	-6.9704	-31.511863	0.000254	2.535493	0.859048	0.000101
1835	1.8248e+02	-6.9255	-31.390749	0.000304	3.042591	1.030858	0.000122
1836	1.8258e+02	-6.8870	-31.289821	0.000254	2.535493	0.859048	0.000101
1837	1.8268e+02	-6.8388	-31.160632	0.000325	3.245431	1.099582	0.000130
1838	1.8278e+02	-6.8084	-31.039518	0.000304	3.042591	1.030858	0.000122
1839	1.8288e+02	-6.7602	-30.942627	0.000243	2.434073	0.824686	0.000097
1840	1.8298e+02	-6.7346	-30.821513	0.000304	3.042591	1.030858	0.000122
1841	1.8308e+02	-6.6913	-30.696362	0.000314	3.144011	1.065220	0.000126
1842	1.8318e+02	-6.6447	-30.607545	0.000223	2.231234	0.755962	0.000089
1843	1.8328e+02	-6.6175	-30.437985	0.000426	4.259628	1.443201	0.000170
1844	1.8338e+02	-6.5661	-30.349168	0.000223	2.231234	0.755962	0.000089
1845	1.8348e+02	-6.5228	-30.207868	0.000355	3.549690	1.202667	0.000142
1846	1.8358e+02	-6.4907	-30.110977	0.000243	2.434073	0.824686	0.000097
1847	1.8368e+02	-6.4442	-29.961603	0.000375	3.752529	1.271391	0.000150
1848	1.8378e+02	-6.4025	-29.913157	0.000122	1.217037	0.412343	0.000049
1849	1.8388e+02	-6.3624	-29.775895	0.000345	3.448270	1.168306	0.000138
1850	1.8398e+02	-6.3351	-29.658818	0.000294	2.941172	0.996496	0.000118
1851	1.8407e+02	-6.2934	-29.553852	0.000264	2.636912	0.893410	0.000105
1852	1.8417e+02	-6.2421	-29.452924	0.000254	2.535493	0.859048	0.000101
1853	1.8427e+02	-6.2116	-29.311624	0.000355	3.549690	1.202667	0.000142
1854	1.8437e+02	-6.1715	-29.206658	0.000264	2.636912	0.893410	0.000105
1855	1.8447e+02	-6.1250	-29.105730	0.000254	2.535493	0.859048	0.000101
1856	1.8457e+02	-6.0913	-28.972505	0.000335	3.346850	1.133944	0.000134
1857	1.8467e+02	-6.0560	-28.867539	0.000264	2.636912	0.893410	0.000105
1858	1.8477e+02	-6.0095	-28.806982	0.000152	1.521296	0.515429	0.000061
1859	1.8487e+02	-5.9629	-28.597051	0.000527	5.273825	1.786820	0.000211
1860	1.8497e+02	-5.9308	-28.496123	0.000254	2.535493	0.859048	0.000101
1861	1.8507e+02	-5.8843	-28.375009	0.000304	3.042591	1.030858	0.000122
1862	1.8517e+02	-5.8538	-28.249857	0.000314	3.144011	1.065220	0.000126
1863	1.8527e+02	-5.8169	-28.177189	0.000183	1.825555	0.618515	0.000073
1864	1.8537e+02	-5.7704	-27.991481	0.000467	4.665307	1.580649	0.000187
1865	1.8547e+02	-5.7399	-27.910738	0.000203	2.028394	0.687239	0.000081
1866	1.8557e+02	-5.6902	-27.825958	0.000213	2.129814	0.721600	0.000085
1867	1.8567e+02	-5.6437	-27.628138	0.000497	4.969566	1.683734	0.000199
1868	1.8577e+02	-5.6036	-27.507024	0.000304	3.042591	1.030858	0.000122
1869	1.8587e+02	-5.5667	-27.450504	0.000142	1.419876	0.481067	0.000057
1870	1.8597e+02	-5.5330	-27.317279	0.000335	3.346850	1.133944	0.000134
1871	1.8606e+02	-5.4913	-27.180016	0.000345	3.448270	1.168306	0.000138
1872	1.8616e+02	-5.4448	-27.071014	0.000274	2.738332	0.927772	0.000110
1873	1.8626e+02	-5.4095	-26.949900	0.000304	3.042591	1.030858	0.000122
1874	1.8636e+02	-5.3742	-26.808600	0.000355	3.549690	1.202667	0.000142
1875	1.8646e+02	-5.3389	-26.667300	0.000355	3.549690	1.202667	0.000142
1876	1.8656e+02	-5.2892	-26.558297	0.000274	2.738332	0.927772	0.000110
1877	1.8666e+02	-5.2555	-26.441221	0.000294	2.941172	0.996496	0.000118
1878	1.8676e+02	-5.2250	-26.320106	0.000304	3.042591	1.030858	0.000122
1879	1.8686e+02	-5.1865	-26.239364	0.000203	2.028394	0.687239	0.000081
1880	1.8696e+02	-5.1416	-26.118250	0.000304	3.042591	1.030858	0.000122
1881	1.8706e+02	-5.0999	-25.980987	0.000345	3.448270	1.168306	0.000138
1882	1.8716e+02	-5.0549	-25.815464	0.000416	4.158208	1.408839	0.000166
1883	1.8726e+02	-5.0180	-25.730685	0.000213	2.129814	0.721600	0.000085
1884	1.8736e+02	-4.9667	-25.605533	0.000314	3.144011	1.065220	0.000126
1885	1.8746e+02	-4.9378	-25.423862	0.000456	4.563887	1.546287	0.000183
1886	1.8756e+02	-4.9073	-25.391565	0.000081	0.811358	0.274895	0.000032
1887	1.8766e+02	-4.8656	-25.230080	0.000406	4.056788	1.374477	0.000162
1888	1.8776e+02	-4.8207	-25.100891	0.000325	3.245431	1.099582	0.000130
1889	1.8786e+02	-4.7758	-24.991889	0.000274	2.738332	0.927772	0.000110
1890	1.8796e+02	-4.7261	-24.899035	0.000233	2.332653	0.790324	0.000093
1891	1.8806e+02	-4.7004	-24.757735	0.000355	3.549690	1.202667	0.000142
1892	1.8815e+02	-4.6587	-24.620472	0.000345	3.448270	1.168306	0.000138
1893	1.8825e+02	-4.6186	-24.491284	0.000325	3.245431	1.099582	0.000130
1894	1.8835e+02	-4.5817	-24.358058	0.000335	3.346850	1.133944	0.000134
1895	1.8845e+02	-4.5416	-24.253093	0.000264	2.636912	0.893410	0.000105
1896	1.8855e+02	-4.5015	-24.144090	0.000274	2.738332	0.927772	0.000110
1897	1.8865e+02	-4.4630	-24.010865	0.000335	3.346850	1.133944	0.000134
1898	1.8875e+02	-4.4213	-23.889751	0.000304	3.042591	1.030858	0.000122
1899	1.8885e+02	-4.3796	-23.756525	0.000335	3.346850	1.133944	0.000134
1900	1.8895e+02	-4.3378	-23.651560	0.000264	2.636912	0.893410	0.000105
1901	1.8905e+02	-4.3026	-23.477963	0.000436	4.361048	1.477563	0.000174
1902	1.8915e+02	-4.2576	-23.372997	0.000264	2.636912	0.893410	0.000105
1903	1.8925e+02	-4.2111	-23.280143	0.000233	2.332653	0.790324	0.000093
1904	1.8935e+02	-4.1806	-23.175178	0.000264	2.636912	0.893410	0.000105
1905	1.8945e+02	-4.1373	-23.025804	0.000375	3.752529	1.271391	0.000150
1906	1.8955e+02	-4.1020	-22.916801	0.000274	2.738332	0.927772	0.000110
1907	1.8965e+02	-4.0603	-22.783576	0.000335	3.346850	1.133944	0.000134
1908	1.8975e+02	-4.0298	-22.650350	0.000335	3.346850	1.133944	0.000134
1909	1.8985e+02	-3.9833	-22.581719	0.000172	1.724135	0.584153	0.000069
1910	1.8995e+02	-3.9432	-22.436382	0.000365	3.651110	1.237029	0.000146
1911	1.9004e+02	-3.9047	-22.278934	0.000396	3.955369	1.340115	0.000158
1912	1.9014e+02	-3.8534	-22.190117	0.000223	2.231234	0.755962	0.000089
1913	1.9024e+02	-3.8181	-22.008445	0.000456	4.563887	1.546287	0.000183
1914	1.9034e+02	-3.7732	-21.923666	0.000213	2.129814	0.721600	0.000085
1915	1.9044e+02	-3.7427	-21.810626	0.000284	2.839752	0.962134	0.000114
1916	1.9054e+02	-3.7026	-21.713735	0.000243	2.434073	0.824686	0.000097
1917	1.9064e+02	-3.6560	-21.523989	0.000477	4.766726	1.615011	0.000191
1918	1.9074e+02	-3.6288	-21.406912	0.000294	2.941172	0.996496	0.000118
1919	1.9084e+02	-3.5790	-21.297910	0.000274	2.738332	0.927772	0.000110
1920	1.9094e+02	-3.5389	-21.156610	0.000355	3.549690	1.202667	0.000142
1921	1.9104e+02	-3.5117	-21.059719	0.000243	2.434073	0.824686	0.000097
1922	1.9114e+02	-3.4523	-20.942642	0.000294	2.941172	0.996496	0.000118
1923	1.9124e+02	-3.4234	-20.781156	0.000406	4.056788	1.374477	0.000162
1924	1.9134e+02	-3.3833	-20.664079	0.000294	2.941172	0.996496	0.000118
1925	1.9144e+02	-3.3448	-20.575262	0.000223	2.231234	0.755962	0.000089
1926	1.9154e+02	-3.3111	-20.421851	0.000385	3.853949	1.305753	0.000154
1927	1.9164e+02	-3.2614	-20.308811	0.000284	2.839752	0.962134	0.000114
1928	1.9174e+02	-3.2245	-20.219994	0.000223	2.231234	0.755962	0.000089
1929	1.9184e+02	-3.1876	-20.066583	0.000385	3.853949	1.305753	0.000154
1930	1.9194e+02	-3.1427	-19.921246	0.000365	3.651110	1.237029	0.000146
1931	1.9203e+02	-3.1106	-19.820318	0.000254	2.535493	0.859048	0.000101
1932	1.9213e+02	-3.0657	-19.662870	0.000396	3.955369	1.340115	0.000158
1933	1.9223e+02	-3.0272	-19.553867	0.000274	2.738332	0.927772	0.000110
1934	1.9233e+02	-2.9887	-19.412567	0.000355	3.549690	1.202667	0.000142
1935	1.9243e+02	-2.9582	-19.283379	0.000325	3.245431	1.099582	0.000130
1936	1.9253e+02	-2.9053	-19.162265	0.000304	3.042591	1.030858	0.000122
1937	1.9263e+02	-2.8587	-19.053262	0.000274	2.738332	0.927772	0.000110
1938	1.9273e+02	-2.8170	-18.899851	0.000385	3.853949	1.305753	0.000154
1939	1.9283e+02	-2.7801	-18.786811	0.000284	2.839752	0.962134	0.000114
1940	1.9293e+02	-2.7448	-18.657623	0.000325	3.245431	1.099582	0.000130
1941	1.9303e+02	-2.7015	-18.540546	0.000294	2.941172	0.996496	0.000118
1942	1.9313e+02	-2.6694	-18.423469	0.000294	2.941172	0.996496	0.000118
1943	1.9323e+02	-2.6229	-18.249872	0.000436	4.361048	1.477563	0.000174
1944	1.9333e+02	-2.5844	-18.128758	0.000304	3.042591	1.030858	0.000122
1945	1.9343e+02	-2.5459	-18.048015	0.000203	2.028394	0.687239	0.000081
1946	1.9353e+02	-2.4978	-17.898641	0.000375	3.752529	1.271391	0.000150
1947	1.9363e+02	-2.4609	-17.769453	0.000325	3.245431	1.099582	0.000130
1948	1.9373e+02	-2.4176	-17.648339	0.000304	3.042591	1.030858	0.000122
1949	1.9383e+02	-2.3759	-17.523188	0.000314	3.144011	1.065220	0.000126
1950	1.9393e+02	-2.3390	-17.422259	0.000254	2.535493	0.859048	0.000101
1951	1.9403e+02	-2.3053	-17.260774	0.000406	4.056788	1.374477	0.000162
1952	1.9412e+02	-2.2700	-17.143697	0.000294	2.941172	0.996496	0.000118
1953	1.9422e+02	-2.2251	-17.050843	0.000233	2.332653	0.790324	0.000093
1954	1.9432e+02	-2.1818	-16.893394	0.000396	3.955369	1.340115	0.000158
1955	1.9442e+02	-2.1384	-16.768243	0.000314	3.144011	1.065220	0.000126
1956	1.9452e+02	-2.1048	-16.639055	0.000325	3.245431	1.099582	0.000130
1957	1.9462e+02	-2.0646	-16.497755	0.000355	3.549690	1.202667	0.000142
1958	1.9472e+02	-2.0294	-16.400864	0.000243	2.434073	0.824686	0.000097
1959	1.9482e+02	-1.9892	-16.267638	0.000335	3.346850	1.133944	0.000134
1960	1.9492e+02	-1.9411	-16.146524	0.000304	3.042591	1.030858	0.000122
1961	1.9502e+02	-1.9058	-16.025410	0.000304	3.042591	1.030858	0.000122
1962	1.9512e+02	-1.8673	-15.888148	0.000345	3.448270	1.168306	0.000138
1963	1.9522e+02	-1.8224	-15.783182	0.000264	2.636912	0.893410	0.000105
1964	1.9532e+02	-1.7855	-15.617660	0.000416	4.158208	1.408839	0.000166
1965	1.9542e+02	-1.7422	-15.504620	0.000284	2.839752	0.962134	0.000114
1966	1.9552e+02	-1.7069	-15.379469	0.000314	3.144011	1.065220	0.000126
1967	1.9562e+02	-1.6636	-15.254317	0.000314	3.144011	1.065220	0.000126
1968	1.9572e+02	-1.6203	-15.088795	0.000416	4.158208	1.408839	0.000166
1969	1.9582e+02	-1.5802	-14.983829	0.000264	2.636912	0.893410	0.000105
1970	1.9592e+02	-1.5481	-14.854641	0.000325	3.245431	1.099582	0.000130
1971	1.9601e+02	-1.5064	-14.713341	0.000355	3.549690	1.202667	0.000142
1972	1.9611e+02	-1.4679	-14.568004	0.000365	3.651110	1.237029	0.000146
1973	1.9621e+02	-1.4181	-14.471113	0.000243	2.434073	0.824686	0.000097
1974	1.9631e+02	-1.3828	-14.362110	0.000274	2.738332	0.927772	0.000110
1975	1.9641e+02	-1.3556	-14.236959	0.000314	3.144011	1.065220	0.000126
1976	1.9651e+02	-1.3058	-14.091622	0.000365	3.651110	1.237029	0.000146
1977	1.9661e+02	-1.2593	-13.938211	0.000385	3.853949	1.305753	0.000154
1978	1.9671e+02	-1.2272	-13.800949	0.000345	3.448270	1.168306	0.000138
1979	1.9681e+02	-1.1952	-13.700020	0.000254	2.535493	0.859048	0.000101
1980	1.9691e+02	-1.1470	-13.599092	0.000254	2.535493	0.859048	0.000101
1981	1.9701e+02	-1.1085	-13.457792	0.000355	3.549690	1.202667	0.000142
1982	1.9711e+02	-1.0636	-13.320529	0.000345	3.448270	1.168306	0.000138
1983	1.9721e+02	-1.0363	-13.159044	0.000406	4.056788	1.374477	0.000162
1984	1.9731e+02	-0.9882	-13.054078	0.000264	2.636912	0.893410	0.000105
1985	1.9741e+02	-0.9545	-12.916816	0.000345	3.448270	1.168306	0.000138
1986	1.9751e+02	-0.9144	-12.783590	0.000335	3.346850	1.133944	0.000134
1987	1.9761e+02	-0.8695	-12.630179	0.000385	3.853949	1.305753	0.000154
1988	1.9771e+02	-0.8374	-12.525214	0.000264	2.636912	0.893410	0.000105
1989	1.9781e+02	-0.7925	-12.400062	0.000314	3.144011	1.065220	0.000126
1990	1.9791e+02	-0.7540	-12.291060	0.000274	2.738332	0.927772	0.000110
1991	1.9800e+02	-0.7203	-12.165909	0.000314	3.144011	1.065220	0.000126
1992	1.9810e+02	-0.6674	-12.020572	0.000365	3.651110	1.237029	0.000146
1993	1.9820e+02	-0.6353	-11.851012	0.000426	4.259628	1.443201	0.000170
1994	1.9830e+02	-0.5984	-11.762195	0.000223	2.231234	0.755962	0.000089
1995	1.9840e+02	-0.5422	-11.645118	0.000294	2.941172	0.996496	0.000118
1996	1.9850e+02	-0.5230	-11.471521	0.000436	4.361048	1.477563	0.000174
1997	1.9860e+02	-0.4700	-11.362519	0.000274	2.738332	0.927772	0.000110
1998	1.9870e+02	-0.4396	-11.237367	0.000314	3.144011	1.065220	0.000126
1999	1.9880e+02	-0.3962	-11.055696	0.000456	4.563887	1.546287	0.000183
2000	1.9890e+02	-0.3497	-10.974954	0.000203	2.028394	0.687239	0.000081
2001	1.9900e+02	-0.3112	-10.833654	0.000355	3.549690	1.202667	0.000142
2002	1.9910e+02	-0.2759	-10.692354	0.000355	3.549690	1.202667	0.000142
2003	1.9920e+02	-0.2374	-10.538943	0.000385	3.853949	1.305753	0.000154
2004	1.9930e+02	-0.1973	-10.438014	0.000254	2.535493	0.859048	0.000101
2005	1.9940e+02	-0.1588	-10.345160	0.000233	2.332653	0.790324	0.000093
2006	1.9950e+02	-0.1155	-10.183675	0.000406	4.056788	1.374477	0.000162
2007	1.9960e+02	-0.0786	-10.046412	0.000345	3.448270	1.168306	0.000138
2008	1.9970e+02	-0.0257	-9.909150	0.000345	3.448270	1.168306	0.000138
2009	1.9980e+02	0.0128	-9.808221	0.000345	3.448270	1.168306	0.000101

PMax (uC/cm2):	6.50e+01
Pr (uC/cm2):	3.14e+00
-Pr (uC/cm2):	-6.29e+00
PLoss (uC/cm2):	-6.23e+00
-Vc:	-9.51e-01
C (Max-Eff) (nF):	3.25e-01
K (Eff):	1.10e+03
Vert. (+/-Pr) Shift (uC/cm2):	-1.57e+00
Offset (uC/cm2):	3.52e+00

A (Loop Area - uC/cm2·Volts):	6.63e-02



Hysteresis Version: 5.48.1 - Radiant Technologies, Inc., 1999 - 9/12/24

