»»»»»»»»»»»»»»»»»»»»»»»»»»»»»»»»»»»» Hysteresis ««««««««««««««««««««««««««««««««««««
»»»  Executed Version:	5.48.1
»»»  Vision Version:	5.48.4 (R)
»»»  Vision Compiled:	9/18/24
»»»  Driver Version:	5.47.0
»»»  Windows Version:	Windows 8 or 8.1
»»»  Processor Information:	x86 (AMD or Intel) - 32 Processors
»»»  Tester Name:	PMF21124-494 (100V)
»»»  Tester S/N:	PMF21124-494
»»»  Internal Amp Type:	100V RevK 270k
»»»  Internal Amp S/N:	iAB2-596/K     
»»»  Execution Count:	1
»»»»»»»»»»»»»»»»»»»»»»»»»»»»»»»»»»»»»»»»»»««««««««««««««««««««««««««««««««««««««««««

Stored:	6/19/2025 - 18:33:54
Configured:	06/19/25 10:04:32 AM
Executed:	06/19/25 06:33:29 PM

»»»»»»»»»»»»»»»»»»»»»»»»»»»»»»»»»»» Sample Info ««««««««««««««««««««««««««««««««««««
Sample Name:	
Lot Name:	
Wafer Name:	
Die Row/Column:	0/0
Capacitor Number:	0
Sample Area (cm2):	1.00e-04
Sample Thickness (microns):	3.00e-01

Amplifier:	Internal

»»»»»»»»»»»»»»»»»»»»»»»»»»»»»»»»»»» Tester Info «««««««««««««««««««««««««««««««««««
Tester Name:	PMF21124-494 (100V)
Tester Serial Number:	PMF21124-494
Return Signal Amp. Level:	0.19 [Index: 3]

»»»»»»»»»»»»»»»»»»»»»»»»»»»»»»»» Hysteresis Info ««««««««««««««««««««««««««««««««««
Task Name:	Hyst-1168
Volts:	20.00
Field:	666.67 (kV/cm)
DCBias:	0.00
DCField:	0.00 (kV/cm)
Hysteresis Period (ms):	2.00e+02
Preset:	Enabled
Preset Delay (ms):	1.00e+03
Profile:	Standard Bipolar

»»»»»»»»»»»»»»»»»»»»»»»»»»»»»»»»»»»»»» Data «««««««««««««««««««««««««««««««««««««««
Points:	2009

Valid Data

Point	Time (ms)	Drive Voltage	Measured Polarization (uC/cm2)	Capacitance (uF)	Normalized Capacitance (uF/cm2)	Dielectric Constant	Instantaneous Current (mA)
   1	0.0000e+00	0.0112	-4.178435	0.000233	2.332185	0.790166	0.000093
   2	9.9500e-02	0.0273	-4.085581	0.000233	2.332185	0.790166	0.000093
   3	1.9900e-01	0.0690	-3.956393	0.000324	3.244779	1.099361	0.000130
   4	2.9850e-01	0.1139	-3.823168	0.000335	3.346179	1.133716	0.000134
   5	3.9800e-01	0.1476	-3.714165	0.000274	2.737783	0.927586	0.000110
   6	4.9750e-01	0.1893	-3.556717	0.000395	3.954575	1.339846	0.000158
   7	5.9700e-01	0.2374	-3.459825	0.000243	2.433585	0.824521	0.000097
   8	6.9650e-01	0.2856	-3.290266	0.000426	4.258773	1.442911	0.000170
   9	7.9600e-01	0.3112	-3.148966	0.000355	3.548978	1.202426	0.000142
  10	8.9550e-01	0.3642	-3.056112	0.000233	2.332185	0.790166	0.000093
  11	9.9500e-01	0.4059	-2.939035	0.000294	2.940581	0.996296	0.000118
  12	1.0945e+00	0.4299	-2.769475	0.000426	4.258773	1.442911	0.000170
  13	1.1940e+00	0.4765	-2.656435	0.000284	2.839182	0.961941	0.000114
  14	1.2935e+00	0.5246	-2.511098	0.000365	3.650377	1.236781	0.000146
  15	1.3930e+00	0.5647	-2.398059	0.000284	2.839182	0.961941	0.000114
  16	1.4925e+00	0.5968	-2.248685	0.000375	3.751776	1.271136	0.000150
  17	1.5920e+00	0.6353	-2.171979	0.000193	1.926588	0.652746	0.000077
  18	1.6915e+00	0.6674	-1.998382	0.000436	4.360172	1.477266	0.000174
  19	1.7910e+00	0.7155	-1.865157	0.000335	3.346179	1.133716	0.000134
  20	1.8905e+00	0.7572	-1.768265	0.000243	2.433585	0.824521	0.000097
  21	1.9900e+00	0.7989	-1.586594	0.000456	4.562971	1.545976	0.000183
  22	2.0895e+00	0.8326	-1.473555	0.000284	2.839182	0.961941	0.000114
  23	2.1890e+00	0.8647	-1.324181	0.000375	3.751776	1.271136	0.000150
  24	2.2885e+00	0.9144	-1.174806	0.000375	3.751776	1.271136	0.000150
  25	2.3880e+00	0.9481	-1.073878	0.000253	2.534984	0.858876	0.000101
  26	2.4875e+00	0.9962	-0.916430	0.000395	3.954575	1.339846	0.000158
  27	2.5870e+00	1.0315	-0.803390	0.000284	2.839182	0.961941	0.000114
  28	2.6865e+00	1.0716	-0.678239	0.000314	3.143380	1.065006	0.000126
  29	2.7860e+00	1.1101	-0.528865	0.000375	3.751776	1.271136	0.000150
  30	2.8855e+00	1.1534	-0.383528	0.000365	3.650377	1.236781	0.000146
  31	2.9850e+00	1.1919	-0.262414	0.000304	3.041981	1.030651	0.000122
  32	3.0845e+00	1.2337	-0.104966	0.000395	3.954575	1.339846	0.000158
  33	3.1840e+00	1.2722	0.028260	0.000335	3.346179	1.133716	0.000134
  34	3.2835e+00	1.3171	0.177634	0.000375	3.751776	1.271136	0.000150
  35	3.3830e+00	1.3524	0.302785	0.000314	3.143380	1.065006	0.000126
  36	3.4825e+00	1.3973	0.423899	0.000304	3.041981	1.030651	0.000122
  37	3.5820e+00	1.4294	0.561162	0.000345	3.447578	1.168071	0.000138
  38	3.6815e+00	1.4775	0.686313	0.000314	3.143380	1.065006	0.000126
  39	3.7810e+00	1.5208	0.823576	0.000345	3.447578	1.168071	0.000138
  40	3.8805e+00	1.5497	0.948727	0.000314	3.143380	1.065006	0.000126
  41	3.9800e+00	1.5914	1.090027	0.000355	3.548978	1.202426	0.000142
  42	4.0795e+00	1.6347	1.199029	0.000274	2.737783	0.927586	0.000110
  43	4.1790e+00	1.6668	1.392812	0.000487	4.867169	1.649042	0.000195
  44	4.2785e+00	1.7165	1.513926	0.000304	3.041981	1.030651	0.000122
  45	4.3780e+00	1.7550	1.643114	0.000324	3.244779	1.099361	0.000130
  46	4.4775e+00	1.7791	1.784414	0.000355	3.548978	1.202426	0.000142
  47	4.5770e+00	1.8352	1.917639	0.000335	3.346179	1.133716	0.000134
  48	4.6765e+00	1.8657	2.058939	0.000355	3.548978	1.202426	0.000142
  49	4.7760e+00	1.9090	2.216388	0.000395	3.954575	1.339846	0.000158
  50	4.8755e+00	1.9507	2.365762	0.000375	3.751776	1.271136	0.000150
  51	4.9750e+00	1.9892	2.507061	0.000355	3.548978	1.202426	0.000142
  52	5.0745e+00	2.0197	2.632213	0.000314	3.143380	1.065006	0.000126
  53	5.1740e+00	2.0727	2.805809	0.000436	4.360172	1.477266	0.000174
  54	5.2735e+00	2.1048	2.858292	0.000132	1.318192	0.446615	0.000053
  55	5.3730e+00	2.1497	3.031889	0.000436	4.360172	1.477266	0.000174
  56	5.4725e+00	2.1914	3.165114	0.000335	3.346179	1.133716	0.000134
  57	5.5720e+00	2.2299	3.322563	0.000395	3.954575	1.339846	0.000158
  58	5.6715e+00	2.2764	3.455788	0.000335	3.346179	1.133716	0.000134
  59	5.7710e+00	2.3085	3.564791	0.000274	2.737783	0.927586	0.000110
  60	5.8705e+00	2.3566	3.706091	0.000355	3.548978	1.202426	0.000142
  61	5.9700e+00	2.3935	3.831242	0.000314	3.143380	1.065006	0.000126
  62	6.0695e+00	2.4272	4.000802	0.000426	4.258773	1.442911	0.000170
  63	6.1690e+00	2.4657	4.121916	0.000304	3.041981	1.030651	0.000122
  64	6.2685e+00	2.5106	4.295512	0.000436	4.360172	1.477266	0.000174
  65	6.3680e+00	2.5588	4.396441	0.000253	2.534984	0.858876	0.000101
  66	6.4675e+00	2.5924	4.557926	0.000406	4.055974	1.374201	0.000162
  67	6.5670e+00	2.6325	4.675003	0.000294	2.940581	0.996296	0.000118
  68	6.6665e+00	2.6694	4.844563	0.000426	4.258773	1.442911	0.000170
  69	6.7660e+00	2.7095	5.022197	0.000446	4.461572	1.511621	0.000179
  70	6.8655e+00	2.7497	5.111014	0.000223	2.230786	0.755811	0.000089
  71	6.9650e+00	2.7849	5.292685	0.000456	4.562971	1.545976	0.000183
  72	7.0645e+00	2.8315	5.401688	0.000274	2.737783	0.927586	0.000110
  73	7.1640e+00	2.8555	5.534913	0.000335	3.346179	1.133716	0.000134
  74	7.2635e+00	2.9069	5.688324	0.000385	3.853176	1.305491	0.000154
  75	7.3630e+00	2.9470	5.789253	0.000253	2.534984	0.858876	0.000101
  76	7.4625e+00	2.9919	5.926515	0.000345	3.447578	1.168071	0.000138
  77	7.5620e+00	3.0288	6.079926	0.000385	3.853176	1.305491	0.000154
  78	7.6615e+00	3.0737	6.225263	0.000365	3.650377	1.236781	0.000146
  79	7.7610e+00	3.1106	6.338303	0.000284	2.839182	0.961941	0.000114
  80	7.8605e+00	3.1475	6.471529	0.000335	3.346179	1.133716	0.000134
  81	7.9600e+00	3.1812	6.608791	0.000345	3.447578	1.168071	0.000138
  82	8.0595e+00	3.2277	6.798537	0.000477	4.765770	1.614687	0.000191
  83	8.1590e+00	3.2646	6.903502	0.000264	2.636383	0.893231	0.000105
  84	8.2585e+00	3.3047	7.060950	0.000395	3.954575	1.339846	0.000158
  85	8.3580e+00	3.3384	7.161879	0.000253	2.534984	0.858876	0.000101
  86	8.4575e+00	3.3785	7.266844	0.000264	2.636383	0.893231	0.000105
  87	8.5570e+00	3.4298	7.448515	0.000456	4.562971	1.545976	0.000183
  88	8.6565e+00	3.4651	7.630187	0.000456	4.562971	1.545976	0.000183
  89	8.7560e+00	3.5149	7.723041	0.000233	2.332185	0.790166	0.000093
  90	8.8555e+00	3.5389	7.880489	0.000395	3.954575	1.339846	0.000158
  91	8.9550e+00	3.5919	8.033900	0.000385	3.853176	1.305491	0.000154
  92	9.0545e+00	3.6272	8.138866	0.000264	2.636383	0.893231	0.000105
  93	9.1540e+00	3.6609	8.280165	0.000355	3.548978	1.202426	0.000142
  94	9.2535e+00	3.7090	8.397242	0.000294	2.940581	0.996296	0.000118
  95	9.3530e+00	3.7427	8.542579	0.000365	3.650377	1.236781	0.000146
  96	9.4525e+00	3.7780	8.671768	0.000324	3.244779	1.099361	0.000130
  97	9.5520e+00	3.8309	8.825179	0.000385	3.853176	1.305491	0.000154
  98	9.6515e+00	3.8630	8.930144	0.000264	2.636383	0.893231	0.000105
  99	9.7510e+00	3.9015	9.055295	0.000314	3.143380	1.065006	0.000126
 100	9.8505e+00	3.9368	9.168335	0.000284	2.839182	0.961941	0.000114
 101	9.9500e+00	3.9785	9.398452	0.000578	5.779763	1.958237	0.000231
 102	1.0050e+01	4.0202	9.503418	0.000264	2.636383	0.893231	0.000105
 103	1.0149e+01	4.0571	9.656829	0.000385	3.853176	1.305491	0.000154
 104	1.0248e+01	4.0988	9.769868	0.000284	2.839182	0.961941	0.000114
 105	1.0348e+01	4.1405	9.890983	0.000304	3.041981	1.030651	0.000122
 106	1.0447e+01	4.1822	10.016134	0.000314	3.143380	1.065006	0.000126
 107	1.0547e+01	4.2239	10.153396	0.000345	3.447578	1.168071	0.000138
 108	1.0646e+01	4.2608	10.363327	0.000527	5.272767	1.786462	0.000211
 109	1.0746e+01	4.3106	10.476367	0.000284	2.839182	0.961941	0.000114
 110	1.0845e+01	4.3459	10.593444	0.000294	2.940581	0.996296	0.000118
 111	1.0945e+01	4.3796	10.730707	0.000345	3.447578	1.168071	0.000138
 112	1.1044e+01	4.4293	10.872007	0.000355	3.548978	1.202426	0.000142
 113	1.1144e+01	4.4517	10.997158	0.000314	3.143380	1.065006	0.000126
 114	1.1243e+01	4.4967	11.122309	0.000314	3.143380	1.065006	0.000126
 115	1.1343e+01	4.5432	11.283794	0.000406	4.055974	1.374201	0.000162
 116	1.1443e+01	4.5817	11.400871	0.000294	2.940581	0.996296	0.000118
 117	1.1542e+01	4.6298	11.513911	0.000284	2.839182	0.961941	0.000114
 118	1.1642e+01	4.6667	11.671359	0.000395	3.954575	1.339846	0.000158
 119	1.1741e+01	4.7068	11.764214	0.000233	2.332185	0.790166	0.000093
 120	1.1841e+01	4.7437	11.953959	0.000477	4.765770	1.614687	0.000191
 121	1.1940e+01	4.7758	12.087184	0.000335	3.346179	1.133716	0.000134
 122	1.2040e+01	4.8143	12.216373	0.000324	3.244779	1.099361	0.000130
 123	1.2139e+01	4.8608	12.321338	0.000264	2.636383	0.893231	0.000105
 124	1.2239e+01	4.8961	12.503009	0.000456	4.562971	1.545976	0.000183
 125	1.2338e+01	4.9362	12.599901	0.000243	2.433585	0.824521	0.000097
 126	1.2438e+01	4.9747	12.809832	0.000527	5.272767	1.786462	0.000211
 127	1.2537e+01	5.0148	12.910760	0.000253	2.534984	0.858876	0.000101
 128	1.2636e+01	5.0630	13.064171	0.000385	3.853176	1.305491	0.000154
 129	1.2736e+01	5.0950	13.165100	0.000253	2.534984	0.858876	0.000101
 130	1.2835e+01	5.1432	13.249879	0.000213	2.129387	0.721456	0.000085
 131	1.2935e+01	5.1769	13.415402	0.000416	4.157374	1.408556	0.000166
 132	1.3034e+01	5.2122	13.536516	0.000304	3.041981	1.030651	0.000122
 133	1.3134e+01	5.2619	13.645519	0.000274	2.737783	0.927586	0.000110
 134	1.3233e+01	5.3036	13.794893	0.000375	3.751776	1.271136	0.000150
 135	1.3333e+01	5.3341	13.952341	0.000395	3.954575	1.339846	0.000158
 136	1.3432e+01	5.3806	14.077492	0.000314	3.143380	1.065006	0.000126
 137	1.3532e+01	5.4191	14.206681	0.000324	3.244779	1.099361	0.000130
 138	1.3632e+01	5.4544	14.352018	0.000365	3.650377	1.236781	0.000146
 139	1.3731e+01	5.4945	14.477169	0.000314	3.143380	1.065006	0.000126
 140	1.3831e+01	5.5442	14.626543	0.000375	3.751776	1.271136	0.000150
 141	1.3930e+01	5.5763	14.727471	0.000253	2.534984	0.858876	0.000101
 142	1.4030e+01	5.6052	14.888957	0.000406	4.055974	1.374201	0.000162
 143	1.4129e+01	5.6469	15.042368	0.000385	3.853176	1.305491	0.000154
 144	1.4229e+01	5.6934	15.191742	0.000375	3.751776	1.271136	0.000150
 145	1.4328e+01	5.7432	15.353227	0.000406	4.055974	1.374201	0.000162
 146	1.4428e+01	5.7752	15.466267	0.000284	2.839182	0.961941	0.000114
 147	1.4527e+01	5.8218	15.599492	0.000335	3.346179	1.133716	0.000134
 148	1.4627e+01	5.8619	15.720607	0.000304	3.041981	1.030651	0.000122
 149	1.4726e+01	5.9004	15.869981	0.000375	3.751776	1.271136	0.000150
 150	1.4825e+01	5.9373	15.987058	0.000294	2.940581	0.996296	0.000118
 151	1.4925e+01	5.9822	16.075875	0.000223	2.230786	0.755811	0.000089
 152	1.5024e+01	6.0159	16.180840	0.000264	2.636383	0.893231	0.000105
 153	1.5124e+01	6.0560	16.346363	0.000416	4.157374	1.408556	0.000166
 154	1.5223e+01	6.0897	16.503811	0.000395	3.954575	1.339846	0.000158
 155	1.5323e+01	6.1330	16.661259	0.000395	3.954575	1.339846	0.000158
 156	1.5422e+01	6.1699	16.766225	0.000264	2.636383	0.893231	0.000105
 157	1.5522e+01	6.2148	16.895413	0.000324	3.244779	1.099361	0.000130
 158	1.5621e+01	6.2501	17.069010	0.000436	4.360172	1.477266	0.000174
 159	1.5721e+01	6.2982	17.182050	0.000284	2.839182	0.961941	0.000114
 160	1.5820e+01	6.3367	17.383906	0.000507	5.069968	1.717752	0.000203
 161	1.5920e+01	6.3688	17.464649	0.000203	2.027987	0.687101	0.000081
 162	1.6020e+01	6.4121	17.650357	0.000466	4.664371	1.580332	0.000187
 163	1.6119e+01	6.4458	17.827991	0.000446	4.461572	1.511621	0.000179
 164	1.6218e+01	6.4939	17.949105	0.000304	3.041981	1.030651	0.000122
 165	1.6318e+01	6.5308	18.054071	0.000264	2.636383	0.893231	0.000105
 166	1.6418e+01	6.5661	18.207482	0.000385	3.853176	1.305491	0.000154
 167	1.6517e+01	6.6255	18.320522	0.000284	2.839182	0.961941	0.000114
 168	1.6616e+01	6.6624	18.449710	0.000324	3.244779	1.099361	0.000130
 169	1.6716e+01	6.6800	18.566787	0.000294	2.940581	0.996296	0.000118
 170	1.6816e+01	6.7282	18.712124	0.000365	3.650377	1.236781	0.000146
 171	1.6915e+01	6.7602	18.800941	0.000223	2.230786	0.755811	0.000089
 172	1.7015e+01	6.8116	18.990687	0.000477	4.765770	1.614687	0.000191
 173	1.7114e+01	6.8501	19.099689	0.000274	2.737783	0.927586	0.000110
 174	1.7213e+01	6.8838	19.269249	0.000426	4.258773	1.442911	0.000170
 175	1.7313e+01	6.9255	19.406511	0.000345	3.447578	1.168071	0.000138
 176	1.7413e+01	6.9784	19.511477	0.000264	2.636383	0.893231	0.000105
 177	1.7512e+01	7.0121	19.660851	0.000375	3.751776	1.271136	0.000150
 178	1.7611e+01	7.0442	19.822336	0.000406	4.055974	1.374201	0.000162
 179	1.7711e+01	7.0795	19.959599	0.000345	3.447578	1.168071	0.000138
 180	1.7811e+01	7.1228	20.141270	0.000456	4.562971	1.545976	0.000183
 181	1.7910e+01	7.1693	20.274496	0.000335	3.346179	1.133716	0.000134
 182	1.8009e+01	7.2046	20.427907	0.000385	3.853176	1.305491	0.000154
 183	1.8109e+01	7.2543	20.569207	0.000355	3.548978	1.202426	0.000142
 184	1.8209e+01	7.2912	20.694358	0.000314	3.143380	1.065006	0.000126
 185	1.8308e+01	7.3346	20.839695	0.000365	3.650377	1.236781	0.000146
 186	1.8407e+01	7.3666	20.920437	0.000203	2.027987	0.687101	0.000081
 187	1.8507e+01	7.4132	21.045589	0.000314	3.143380	1.065006	0.000126
 188	1.8607e+01	7.4613	21.194963	0.000375	3.751776	1.271136	0.000150
 189	1.8706e+01	7.4837	21.344337	0.000375	3.751776	1.271136	0.000150
 190	1.8805e+01	7.5271	21.445265	0.000253	2.534984	0.858876	0.000101
 191	1.8905e+01	7.5736	21.639048	0.000487	4.867169	1.649042	0.000195
 192	1.9005e+01	7.6025	21.727865	0.000223	2.230786	0.755811	0.000089
 193	1.9104e+01	7.6490	21.901461	0.000436	4.360172	1.477266	0.000174
 194	1.9203e+01	7.6843	22.018538	0.000294	2.940581	0.996296	0.000118
 195	1.9303e+01	7.7180	22.167912	0.000375	3.751776	1.271136	0.000150
 196	1.9402e+01	7.7693	22.349583	0.000456	4.562971	1.545976	0.000183
 197	1.9502e+01	7.8078	22.502995	0.000385	3.853176	1.305491	0.000154
 198	1.9602e+01	7.8463	22.680629	0.000446	4.461572	1.511621	0.000179
 199	1.9701e+01	7.8800	22.789631	0.000274	2.737783	0.927586	0.000110
 200	1.9800e+01	7.9169	22.947080	0.000395	3.954575	1.339846	0.000158
 201	1.9900e+01	7.9650	23.064156	0.000294	2.940581	0.996296	0.000118
 202	2.0000e+01	8.0083	23.201419	0.000345	3.447578	1.168071	0.000138
 203	2.0099e+01	8.0468	23.334645	0.000335	3.346179	1.133716	0.000134
 204	2.0198e+01	8.0885	23.419424	0.000213	2.129387	0.721456	0.000085
 205	2.0298e+01	8.1303	23.556687	0.000345	3.447578	1.168071	0.000138
 206	2.0398e+01	8.1671	23.718172	0.000406	4.055974	1.374201	0.000162
 207	2.0497e+01	8.2121	23.875621	0.000395	3.954575	1.339846	0.000158
 208	2.0596e+01	8.2442	23.996735	0.000304	3.041981	1.030651	0.000122
 209	2.0696e+01	8.2810	24.121886	0.000314	3.143380	1.065006	0.000126
 210	2.0796e+01	8.3340	24.259149	0.000345	3.447578	1.168071	0.000138
 211	2.0895e+01	8.3597	24.416597	0.000395	3.954575	1.339846	0.000158
 212	2.0994e+01	8.4062	24.578082	0.000406	4.055974	1.374201	0.000162
 213	2.1094e+01	8.4447	24.707271	0.000324	3.244779	1.099361	0.000130
 214	2.1194e+01	8.4848	24.820311	0.000284	2.839182	0.961941	0.000114
 215	2.1293e+01	8.5249	24.993907	0.000436	4.360172	1.477266	0.000174
 216	2.1392e+01	8.5666	25.155393	0.000406	4.055974	1.374201	0.000162
 217	2.1492e+01	8.6051	25.312841	0.000395	3.954575	1.339846	0.000158
 218	2.1591e+01	8.6420	25.470289	0.000395	3.954575	1.339846	0.000158
 219	2.1691e+01	8.6773	25.619663	0.000375	3.751776	1.271136	0.000150
 220	2.1791e+01	8.7158	25.756926	0.000345	3.447578	1.168071	0.000138
 221	2.1890e+01	8.7655	25.918411	0.000406	4.055974	1.374201	0.000162
 222	2.1989e+01	8.8040	26.011266	0.000233	2.332185	0.790166	0.000093
 223	2.2089e+01	8.8441	26.112194	0.000253	2.534984	0.858876	0.000101
 224	2.2189e+01	8.8778	26.253494	0.000355	3.548978	1.202426	0.000142
 225	2.2288e+01	8.9292	26.402868	0.000375	3.751776	1.271136	0.000150
 226	2.2387e+01	8.9645	26.523982	0.000304	3.041981	1.030651	0.000122
 227	2.2487e+01	9.0046	26.701616	0.000446	4.461572	1.511621	0.000179
 228	2.2587e+01	9.0399	26.830804	0.000324	3.244779	1.099361	0.000130
 229	2.2686e+01	9.0784	26.955955	0.000314	3.143380	1.065006	0.000126
 230	2.2785e+01	9.1169	27.085144	0.000324	3.244779	1.099361	0.000130
 231	2.2885e+01	9.1666	27.226443	0.000355	3.548978	1.202426	0.000142
 232	2.2985e+01	9.1987	27.404077	0.000446	4.461572	1.511621	0.000179
 233	2.3084e+01	9.2356	27.484820	0.000203	2.027987	0.687101	0.000081
 234	2.3183e+01	9.2837	27.666491	0.000456	4.562971	1.545976	0.000183
 235	2.3283e+01	9.3206	27.803754	0.000345	3.447578	1.168071	0.000138
 236	2.3383e+01	9.3623	27.977351	0.000436	4.360172	1.477266	0.000174
 237	2.3482e+01	9.3976	28.159022	0.000456	4.562971	1.545976	0.000183
 238	2.3581e+01	9.4473	28.320507	0.000406	4.055974	1.374201	0.000162
 239	2.3681e+01	9.4906	28.397213	0.000193	1.926588	0.652746	0.000077
 240	2.3780e+01	9.5227	28.554661	0.000395	3.954575	1.339846	0.000158
 241	2.3880e+01	9.5676	28.679812	0.000314	3.143380	1.065006	0.000126
 242	2.3980e+01	9.6013	28.792852	0.000284	2.839182	0.961941	0.000114
 243	2.4079e+01	9.6463	28.885706	0.000233	2.332185	0.790166	0.000093
 244	2.4178e+01	9.6783	29.059303	0.000436	4.360172	1.477266	0.000174
 245	2.4278e+01	9.7200	29.168306	0.000274	2.737783	0.927586	0.000110
 246	2.4378e+01	9.7585	29.305568	0.000345	3.447578	1.168071	0.000138
 247	2.4477e+01	9.8003	29.442831	0.000345	3.447578	1.168071	0.000138
 248	2.4576e+01	9.8307	29.572019	0.000324	3.244779	1.099361	0.000130
 249	2.4676e+01	9.8773	29.721393	0.000375	3.751776	1.271136	0.000150
 250	2.4776e+01	9.9190	29.838470	0.000294	2.940581	0.996296	0.000118
 251	2.4875e+01	9.9623	29.987844	0.000375	3.751776	1.271136	0.000150
 252	2.4974e+01	10.0008	30.165478	0.000446	4.461572	1.511621	0.000179
 253	2.5074e+01	10.0425	30.278518	0.000284	2.839182	0.961941	0.000114
 254	2.5174e+01	10.0826	30.456152	0.000446	4.461572	1.511621	0.000179
 255	2.5273e+01	10.1147	30.585340	0.000324	3.244779	1.099361	0.000130
 256	2.5372e+01	10.1564	30.718566	0.000335	3.346179	1.133716	0.000134
 257	2.5472e+01	10.1933	30.863903	0.000365	3.650377	1.236781	0.000146
 258	2.5572e+01	10.2382	30.997128	0.000335	3.346179	1.133716	0.000134
 259	2.5671e+01	10.2799	31.126317	0.000324	3.244779	1.099361	0.000130
 260	2.5770e+01	10.3152	31.235319	0.000274	2.737783	0.927586	0.000110
 261	2.5870e+01	10.3521	31.332210	0.000243	2.433585	0.824521	0.000097
 262	2.5970e+01	10.4034	31.485622	0.000385	3.853176	1.305491	0.000154
 263	2.6069e+01	10.4420	31.590587	0.000264	2.636383	0.893231	0.000105
 264	2.6169e+01	10.4805	31.711701	0.000304	3.041981	1.030651	0.000122
 265	2.6268e+01	10.5125	31.877224	0.000416	4.157374	1.408556	0.000166
 266	2.6367e+01	10.5575	31.994301	0.000294	2.940581	0.996296	0.000118
 267	2.6467e+01	10.6056	32.159823	0.000416	4.157374	1.408556	0.000166
 268	2.6567e+01	10.6377	32.276900	0.000294	2.940581	0.996296	0.000118
 269	2.6666e+01	10.6698	32.422237	0.000365	3.650377	1.236781	0.000146
 270	2.6765e+01	10.7099	32.587760	0.000416	4.157374	1.408556	0.000166
 271	2.6865e+01	10.7580	32.684651	0.000243	2.433585	0.824521	0.000097
 272	2.6965e+01	10.8029	32.817876	0.000335	3.346179	1.133716	0.000134
 273	2.7064e+01	10.8286	32.979362	0.000406	4.055974	1.374201	0.000162
 274	2.7163e+01	10.8767	33.124699	0.000365	3.650377	1.236781	0.000146
 275	2.7263e+01	10.9184	33.274073	0.000375	3.751776	1.271136	0.000150
 276	2.7363e+01	10.9537	33.423447	0.000375	3.751776	1.271136	0.000150
 277	2.7462e+01	10.9954	33.528412	0.000264	2.636383	0.893231	0.000105
 278	2.7561e+01	11.0387	33.673749	0.000365	3.650377	1.236781	0.000146
 279	2.7661e+01	11.0788	33.746418	0.000183	1.825188	0.618391	0.000073
 280	2.7761e+01	11.1205	33.875606	0.000324	3.244779	1.099361	0.000130
 281	2.7860e+01	11.1494	34.004794	0.000324	3.244779	1.099361	0.000130
 282	2.7959e+01	11.1927	34.125908	0.000304	3.041981	1.030651	0.000122
 283	2.8059e+01	11.2328	34.226837	0.000253	2.534984	0.858876	0.000101
 284	2.8159e+01	11.2745	34.396396	0.000426	4.258773	1.442911	0.000170
 285	2.8258e+01	11.3195	34.545771	0.000375	3.751776	1.271136	0.000150
 286	2.8358e+01	11.3548	34.630550	0.000213	2.129387	0.721456	0.000085
 287	2.8457e+01	11.3901	34.828370	0.000497	4.968569	1.683397	0.000199
 288	2.8556e+01	11.4334	34.957558	0.000324	3.244779	1.099361	0.000130
 289	2.8656e+01	11.4687	35.054450	0.000243	2.433585	0.824521	0.000097
 290	2.8756e+01	11.5104	35.195749	0.000355	3.548978	1.202426	0.000142
 291	2.8855e+01	11.5425	35.337049	0.000355	3.548978	1.202426	0.000142
 292	2.8954e+01	11.5858	35.490460	0.000385	3.853176	1.305491	0.000154
 293	2.9054e+01	11.6339	35.631760	0.000355	3.548978	1.202426	0.000142
 294	2.9154e+01	11.6660	35.752874	0.000304	3.041981	1.030651	0.000122
 295	2.9253e+01	11.7077	35.886100	0.000335	3.346179	1.133716	0.000134
 296	2.9352e+01	11.7558	36.031436	0.000365	3.650377	1.236781	0.000146
 297	2.9452e+01	11.7943	36.104105	0.000183	1.825188	0.618391	0.000073
 298	2.9552e+01	11.8328	36.200996	0.000243	2.433585	0.824521	0.000097
 299	2.9651e+01	11.8697	36.366519	0.000416	4.157374	1.408556	0.000166
 300	2.9750e+01	11.9194	36.459373	0.000233	2.332185	0.790166	0.000093
 301	2.9850e+01	11.9531	36.576450	0.000294	2.940581	0.996296	0.000118
 302	2.9950e+01	11.9965	36.750047	0.000436	4.360172	1.477266	0.000174
 303	3.0049e+01	12.0350	36.842901	0.000233	2.332185	0.790166	0.000093
 304	3.0148e+01	12.0767	36.976126	0.000335	3.346179	1.133716	0.000134
 305	3.0248e+01	12.1104	37.129537	0.000385	3.853176	1.305491	0.000154
 306	3.0348e+01	12.1473	37.258726	0.000324	3.244779	1.099361	0.000130
 307	3.0447e+01	12.1825	37.371766	0.000284	2.839182	0.961941	0.000114
 308	3.0547e+01	12.2226	37.541325	0.000426	4.258773	1.442911	0.000170
 309	3.0646e+01	12.2676	37.650328	0.000274	2.737783	0.927586	0.000110
 310	3.0745e+01	12.3077	37.791628	0.000355	3.548978	1.202426	0.000142
 311	3.0845e+01	12.3526	37.957150	0.000416	4.157374	1.408556	0.000166
 312	3.0945e+01	12.4007	38.106524	0.000375	3.751776	1.271136	0.000150
 313	3.1044e+01	12.4248	38.215527	0.000274	2.737783	0.927586	0.000110
 314	3.1143e+01	12.4697	38.344715	0.000324	3.244779	1.099361	0.000130
 315	3.1243e+01	12.5178	38.469866	0.000314	3.143380	1.065006	0.000126
 316	3.1343e+01	12.5563	38.599055	0.000324	3.244779	1.099361	0.000130
 317	3.1442e+01	12.5852	38.687872	0.000223	2.230786	0.755811	0.000089
 318	3.1541e+01	12.6285	38.788800	0.000253	2.534984	0.858876	0.000101
 319	3.1641e+01	12.6622	38.905877	0.000294	2.940581	0.996296	0.000118
 320	3.1741e+01	12.7151	39.051214	0.000365	3.650377	1.236781	0.000146
 321	3.1840e+01	12.7553	39.176365	0.000314	3.143380	1.065006	0.000126
 322	3.1939e+01	12.7873	39.293442	0.000294	2.940581	0.996296	0.000118
 323	3.2039e+01	12.8194	39.426668	0.000335	3.346179	1.133716	0.000134
 324	3.2139e+01	12.8692	39.567967	0.000355	3.548978	1.202426	0.000142
 325	3.2238e+01	12.9028	39.672933	0.000264	2.636383	0.893231	0.000105
 326	3.2337e+01	12.9478	39.814233	0.000355	3.548978	1.202426	0.000142
 327	3.2437e+01	12.9798	39.951495	0.000345	3.447578	1.168071	0.000138
 328	3.2536e+01	13.0232	40.137204	0.000466	4.664371	1.580332	0.000187
 329	3.2636e+01	13.0665	40.250243	0.000284	2.839182	0.961941	0.000114
 330	3.2736e+01	13.1002	40.391543	0.000355	3.548978	1.202426	0.000142
 331	3.2835e+01	13.1451	40.516694	0.000314	3.143380	1.065006	0.000126
 332	3.2934e+01	13.1948	40.690291	0.000436	4.360172	1.477266	0.000174
 333	3.3034e+01	13.2189	40.795257	0.000264	2.636383	0.893231	0.000105
 334	3.3133e+01	13.2638	40.896185	0.000253	2.534984	0.858876	0.000101
 335	3.3233e+01	13.3055	41.045559	0.000375	3.751776	1.271136	0.000150
 336	3.3333e+01	13.3408	41.130339	0.000213	2.129387	0.721456	0.000085
 337	3.3432e+01	13.3841	41.259527	0.000324	3.244779	1.099361	0.000130
 338	3.3532e+01	13.4226	41.392753	0.000335	3.346179	1.133716	0.000134
 339	3.3631e+01	13.4659	41.534052	0.000355	3.548978	1.202426	0.000142
 340	3.3730e+01	13.4980	41.655167	0.000304	3.041981	1.030651	0.000122
 341	3.3830e+01	13.5317	41.776281	0.000304	3.041981	1.030651	0.000122
 342	3.3929e+01	13.5782	41.881246	0.000264	2.636383	0.893231	0.000105
 343	3.4029e+01	13.6039	42.046769	0.000416	4.157374	1.408556	0.000166
 344	3.4129e+01	13.6616	42.175957	0.000324	3.244779	1.099361	0.000130
 345	3.4228e+01	13.6969	42.329368	0.000385	3.853176	1.305491	0.000154
 346	3.4328e+01	13.7451	42.482779	0.000385	3.853176	1.305491	0.000154
 347	3.4427e+01	13.7755	42.636191	0.000385	3.853176	1.305491	0.000154
 348	3.4526e+01	13.8205	42.757305	0.000304	3.041981	1.030651	0.000122
 349	3.4626e+01	13.8590	42.938976	0.000456	4.562971	1.545976	0.000183
 350	3.4725e+01	13.8959	43.011644	0.000183	1.825188	0.618391	0.000073
 351	3.4825e+01	13.9392	43.169092	0.000395	3.954575	1.339846	0.000158
 352	3.4925e+01	13.9841	43.314429	0.000365	3.650377	1.236781	0.000146
 353	3.5024e+01	14.0258	43.447655	0.000335	3.346179	1.133716	0.000134
 354	3.5123e+01	14.0563	43.512249	0.000162	1.622390	0.549681	0.000065
 355	3.5223e+01	14.0996	43.649512	0.000345	3.447578	1.168071	0.000138
 356	3.5322e+01	14.1509	43.778700	0.000324	3.244779	1.099361	0.000130
 357	3.5422e+01	14.1846	43.867517	0.000223	2.230786	0.755811	0.000089
 358	3.5522e+01	14.2231	44.069374	0.000507	5.069968	1.717752	0.000203
 359	3.5621e+01	14.2600	44.166265	0.000243	2.433585	0.824521	0.000097
 360	3.5721e+01	14.3001	44.315639	0.000375	3.751776	1.271136	0.000150
 361	3.5820e+01	14.3467	44.444827	0.000324	3.244779	1.099361	0.000130
 362	3.5919e+01	14.3739	44.594201	0.000375	3.751776	1.271136	0.000150
 363	3.6019e+01	14.4140	44.699167	0.000264	2.636383	0.893231	0.000105
 364	3.6118e+01	14.4541	44.836430	0.000345	3.447578	1.168071	0.000138
 365	3.6218e+01	14.4942	45.001952	0.000416	4.157374	1.408556	0.000166
 366	3.6318e+01	14.5327	45.171512	0.000426	4.258773	1.442911	0.000170
 367	3.6417e+01	14.5793	45.292626	0.000304	3.041981	1.030651	0.000122
 368	3.6517e+01	14.6097	45.429888	0.000345	3.447578	1.168071	0.000138
 369	3.6616e+01	14.6595	45.575225	0.000365	3.650377	1.236781	0.000146
 370	3.6715e+01	14.6900	45.704414	0.000324	3.244779	1.099361	0.000130
 371	3.6815e+01	14.7381	45.805342	0.000253	2.534984	0.858876	0.000101
 372	3.6914e+01	14.7798	45.958753	0.000385	3.853176	1.305491	0.000154
 373	3.7014e+01	14.8167	46.027385	0.000172	1.723789	0.584036	0.000069
 374	3.7114e+01	14.8568	46.136387	0.000274	2.737783	0.927586	0.000110
 375	3.7213e+01	14.8985	46.265576	0.000324	3.244779	1.099361	0.000130
 376	3.7313e+01	14.9290	46.427061	0.000406	4.055974	1.374201	0.000162
 377	3.7412e+01	14.9803	46.564324	0.000345	3.447578	1.168071	0.000138
 378	3.7511e+01	15.0124	46.733883	0.000426	4.258773	1.442911	0.000170
 379	3.7611e+01	15.0573	46.863072	0.000324	3.244779	1.099361	0.000130
 380	3.7711e+01	15.1022	46.947851	0.000213	2.129387	0.721456	0.000085
 381	3.7810e+01	15.1359	47.125485	0.000446	4.461572	1.511621	0.000179
 382	3.7910e+01	15.1728	47.266785	0.000355	3.548978	1.202426	0.000142
 383	3.8009e+01	15.2113	47.420196	0.000385	3.853176	1.305491	0.000154
 384	3.8108e+01	15.2530	47.525162	0.000264	2.636383	0.893231	0.000105
 385	3.8208e+01	15.2980	47.666462	0.000355	3.548978	1.202426	0.000142
 386	3.8307e+01	15.3333	47.831984	0.000416	4.157374	1.408556	0.000166
 387	3.8407e+01	15.3814	47.977321	0.000365	3.650377	1.236781	0.000146
 388	3.8507e+01	15.4119	48.114584	0.000345	3.447578	1.168071	0.000138
 389	3.8606e+01	15.4504	48.239735	0.000314	3.143380	1.065006	0.000126
 390	3.8706e+01	15.4905	48.364886	0.000314	3.143380	1.065006	0.000126
 391	3.8805e+01	15.5306	48.469852	0.000264	2.636383	0.893231	0.000105
 392	3.8904e+01	15.5787	48.639411	0.000426	4.258773	1.442911	0.000170
 393	3.9004e+01	15.6172	48.744377	0.000264	2.636383	0.893231	0.000105
 394	3.9103e+01	15.6573	48.808971	0.000162	1.622390	0.549681	0.000065
 395	3.9203e+01	15.7054	48.958345	0.000375	3.751776	1.271136	0.000150
 396	3.9303e+01	15.7343	49.111756	0.000385	3.853176	1.305491	0.000154
 397	3.9402e+01	15.7760	49.200573	0.000223	2.230786	0.755811	0.000089
 398	3.9502e+01	15.8161	49.362059	0.000406	4.055974	1.374201	0.000162
 399	3.9601e+01	15.8498	49.475098	0.000284	2.839182	0.961941	0.000114
 400	3.9700e+01	15.8963	49.644658	0.000426	4.258773	1.442911	0.000170
 401	3.9800e+01	15.9332	49.789995	0.000365	3.650377	1.236781	0.000146
 402	3.9900e+01	15.9717	49.963592	0.000436	4.360172	1.477266	0.000174
 403	3.9999e+01	16.0135	50.117003	0.000385	3.853176	1.305491	0.000154
 404	4.0099e+01	16.0568	50.213894	0.000243	2.433585	0.824521	0.000097
 405	4.0198e+01	16.0969	50.339046	0.000314	3.143380	1.065006	0.000126
 406	4.0297e+01	16.1402	50.516679	0.000446	4.461572	1.511621	0.000179
 407	4.0397e+01	16.1803	50.613571	0.000243	2.433585	0.824521	0.000097
 408	4.0496e+01	16.2044	50.746796	0.000335	3.346179	1.133716	0.000134
 409	4.0596e+01	16.2509	50.880022	0.000335	3.346179	1.133716	0.000134
 410	4.0696e+01	16.2926	51.013247	0.000335	3.346179	1.133716	0.000134
 411	4.0795e+01	16.3231	51.150510	0.000345	3.447578	1.168071	0.000138
 412	4.0895e+01	16.3728	51.235290	0.000213	2.129387	0.721456	0.000085
 413	4.0994e+01	16.4065	51.328144	0.000233	2.332185	0.790166	0.000093
 414	4.1093e+01	16.4546	51.441184	0.000284	2.839182	0.961941	0.000114
 415	4.1193e+01	16.4931	51.594595	0.000385	3.853176	1.305491	0.000154
 416	4.1292e+01	16.5332	51.735894	0.000355	3.548978	1.202426	0.000142
 417	4.1392e+01	16.5621	51.861046	0.000314	3.143380	1.065006	0.000126
 418	4.1492e+01	16.6086	51.974085	0.000284	2.839182	0.961941	0.000114
 419	4.1591e+01	16.6584	52.123460	0.000375	3.751776	1.271136	0.000150
 420	4.1691e+01	16.6856	52.280908	0.000395	3.954575	1.339846	0.000158
 421	4.1790e+01	16.7225	52.418170	0.000345	3.447578	1.168071	0.000138
 422	4.1889e+01	16.7739	52.535247	0.000294	2.940581	0.996296	0.000118
 423	4.1989e+01	16.8156	52.668473	0.000335	3.346179	1.133716	0.000134
 424	4.2089e+01	16.8557	52.777476	0.000274	2.737783	0.927586	0.000110
 425	4.2188e+01	16.8862	52.934924	0.000395	3.954575	1.339846	0.000158
 426	4.2288e+01	16.9407	53.052001	0.000294	2.940581	0.996296	0.000118
 427	4.2387e+01	16.9680	53.189263	0.000345	3.447578	1.168071	0.000138
 428	4.2486e+01	17.0049	53.354786	0.000416	4.157374	1.408556	0.000166
 429	4.2586e+01	17.0418	53.435529	0.000203	2.027987	0.687101	0.000081
 430	4.2685e+01	17.0899	53.576828	0.000355	3.548978	1.202426	0.000142
 431	4.2785e+01	17.1332	53.701980	0.000314	3.143380	1.065006	0.000126
 432	4.2885e+01	17.1669	53.815019	0.000284	2.839182	0.961941	0.000114
 433	4.2984e+01	17.2086	53.871539	0.000142	1.419591	0.480970	0.000057
 434	4.3084e+01	17.2487	54.012839	0.000355	3.548978	1.202426	0.000142
 435	4.3183e+01	17.2968	54.162213	0.000375	3.751776	1.271136	0.000150
 436	4.3282e+01	17.3273	54.283327	0.000304	3.041981	1.030651	0.000122
 437	4.3382e+01	17.3610	54.416553	0.000335	3.346179	1.133716	0.000134
 438	4.3481e+01	17.4059	54.525555	0.000274	2.737783	0.927586	0.000110
 439	4.3581e+01	17.4476	54.715301	0.000477	4.765770	1.614687	0.000191
 440	4.3681e+01	17.4974	54.864675	0.000375	3.751776	1.271136	0.000150
 441	4.3780e+01	17.5311	54.961566	0.000243	2.433585	0.824521	0.000097
 442	4.3880e+01	17.5631	55.058457	0.000243	2.433585	0.824521	0.000097
 443	4.3979e+01	17.6065	55.211868	0.000385	3.853176	1.305491	0.000154
 444	4.4078e+01	17.6498	55.345094	0.000335	3.346179	1.133716	0.000134
 445	4.4178e+01	17.6819	55.446022	0.000253	2.534984	0.858876	0.000101
 446	4.4278e+01	17.7139	55.611545	0.000416	4.157374	1.408556	0.000166
 447	4.4377e+01	17.7637	55.720547	0.000274	2.737783	0.927586	0.000110
 448	4.4477e+01	17.7990	55.837624	0.000294	2.940581	0.996296	0.000118
 449	4.4576e+01	17.8487	55.962776	0.000314	3.143380	1.065006	0.000126
 450	4.4675e+01	17.8920	56.051593	0.000223	2.230786	0.755811	0.000089
 451	4.4775e+01	17.9241	56.160595	0.000274	2.737783	0.927586	0.000110
 452	4.4874e+01	17.9626	56.285746	0.000314	3.143380	1.065006	0.000126
 453	4.4974e+01	18.0027	56.418972	0.000335	3.346179	1.133716	0.000134
 454	4.5074e+01	18.0540	56.523937	0.000264	2.636383	0.893231	0.000105
 455	4.5173e+01	18.0845	56.641014	0.000294	2.940581	0.996296	0.000118
 456	4.5273e+01	18.1278	56.766166	0.000314	3.143380	1.065006	0.000126
 457	4.5372e+01	18.1663	56.935725	0.000426	4.258773	1.442911	0.000170
 458	4.5471e+01	18.2032	57.044728	0.000274	2.737783	0.927586	0.000110
 459	4.5571e+01	18.2514	57.202176	0.000395	3.954575	1.339846	0.000158
 460	4.5670e+01	18.2850	57.335402	0.000335	3.346179	1.133716	0.000134
 461	4.5770e+01	18.3235	57.468627	0.000335	3.346179	1.133716	0.000134
 462	4.5870e+01	18.3637	57.553407	0.000213	2.129387	0.721456	0.000085
 463	4.5969e+01	18.4070	57.727004	0.000436	4.360172	1.477266	0.000174
 464	4.6069e+01	18.4503	57.840044	0.000284	2.839182	0.961941	0.000114
 465	4.6168e+01	18.4824	57.936935	0.000243	2.433585	0.824521	0.000097
 466	4.6267e+01	18.5289	58.066123	0.000324	3.244779	1.099361	0.000130
 467	4.6367e+01	18.5594	58.163015	0.000243	2.433585	0.824521	0.000097
 468	4.6467e+01	18.6059	58.312389	0.000375	3.751776	1.271136	0.000150
 469	4.6566e+01	18.6428	58.425428	0.000284	2.839182	0.961941	0.000114
 470	4.6666e+01	18.6893	58.502134	0.000193	1.926588	0.652746	0.000077
 471	4.6765e+01	18.7198	58.607100	0.000264	2.636383	0.893231	0.000105
 472	4.6864e+01	18.7647	58.740325	0.000335	3.346179	1.133716	0.000134
 473	4.6964e+01	18.7968	58.857402	0.000294	2.940581	0.996296	0.000118
 474	4.7063e+01	18.8449	58.990627	0.000335	3.346179	1.133716	0.000134
 475	4.7163e+01	18.8882	59.119816	0.000324	3.244779	1.099361	0.000130
 476	4.7263e+01	18.9299	59.232856	0.000284	2.839182	0.961941	0.000114
 477	4.7362e+01	18.9636	59.374155	0.000355	3.548978	1.202426	0.000142
 478	4.7462e+01	18.9989	59.555826	0.000456	4.562971	1.545976	0.000183
 479	4.7561e+01	19.0438	59.672903	0.000294	2.940581	0.996296	0.000118
 480	4.7660e+01	19.0791	59.789980	0.000294	2.940581	0.996296	0.000118
 481	4.7760e+01	19.1289	59.923206	0.000335	3.346179	1.133716	0.000134
 482	4.7859e+01	19.1674	60.052394	0.000324	3.244779	1.099361	0.000130
 483	4.7959e+01	19.2043	60.157360	0.000264	2.636383	0.893231	0.000105
 484	4.8059e+01	19.2476	60.262325	0.000264	2.636383	0.893231	0.000105
 485	4.8158e+01	19.2877	60.411699	0.000375	3.751776	1.271136	0.000150
 486	4.8258e+01	19.3230	60.496479	0.000213	2.129387	0.721456	0.000085
 487	4.8357e+01	19.3631	60.613556	0.000294	2.940581	0.996296	0.000118
 488	4.8456e+01	19.4000	60.734670	0.000304	3.041981	1.030651	0.000122
 489	4.8556e+01	19.4401	60.831561	0.000243	2.433585	0.824521	0.000097
 490	4.8656e+01	19.4818	60.928453	0.000243	2.433585	0.824521	0.000097
 491	4.8755e+01	19.5171	61.029381	0.000253	2.534984	0.858876	0.000101
 492	4.8855e+01	19.5620	61.178755	0.000375	3.751776	1.271136	0.000150
 493	4.8954e+01	19.5989	61.320055	0.000355	3.548978	1.202426	0.000142
 494	4.9053e+01	19.6294	61.461354	0.000355	3.548978	1.202426	0.000142
 495	4.9153e+01	19.6823	61.606691	0.000365	3.650377	1.236781	0.000146
 496	4.9252e+01	19.7064	61.715694	0.000274	2.737783	0.927586	0.000110
 497	4.9352e+01	19.7641	61.856994	0.000355	3.548978	1.202426	0.000142
 498	4.9452e+01	19.7962	61.965996	0.000274	2.737783	0.927586	0.000110
 499	4.9551e+01	19.8331	62.119408	0.000385	3.853176	1.305491	0.000154
 500	4.9651e+01	19.8845	62.232447	0.000284	2.839182	0.961941	0.000114
 501	4.9750e+01	19.9117	62.349524	0.000294	2.940581	0.996296	0.000118
 502	4.9849e+01	19.9502	62.474676	0.000314	3.143380	1.065006	0.000126
 503	4.9949e+01	19.9919	62.628087	0.000385	3.853176	1.305491	0.000154
 504	5.0048e+01	19.9518	62.502935	0.000314	3.143380	1.065006	-0.000126
 505	5.0148e+01	19.9149	62.426230	0.000193	1.926588	0.652746	-0.000077
 506	5.0248e+01	19.8748	62.321264	0.000264	2.636383	0.893231	-0.000105
 507	5.0347e+01	19.8460	62.204187	0.000294	2.940581	0.996296	-0.000118
 508	5.0447e+01	19.7946	62.091148	0.000284	2.839182	0.961941	-0.000114
 509	5.0546e+01	19.7609	61.957922	0.000335	3.346179	1.133716	-0.000134
 510	5.0645e+01	19.7192	61.836808	0.000304	3.041981	1.030651	-0.000122
 511	5.0745e+01	19.6775	61.768177	0.000172	1.723789	0.584036	-0.000069
 512	5.0844e+01	19.6310	61.606691	0.000406	4.055974	1.374201	-0.000162
 513	5.0944e+01	19.5973	61.582469	0.000061	0.608396	0.206130	-0.000024
 514	5.1044e+01	19.5604	61.497689	0.000213	2.129387	0.721456	-0.000085
 515	5.1143e+01	19.5187	61.384649	0.000284	2.839182	0.961941	-0.000114
 516	5.1242e+01	19.4786	61.287758	0.000243	2.433585	0.824521	-0.000097
 517	5.1342e+01	19.4337	61.194904	0.000233	2.332185	0.790166	-0.000093
 518	5.1441e+01	19.3952	61.061678	0.000335	3.346179	1.133716	-0.000134
 519	5.1541e+01	19.3567	60.976898	0.000213	2.129387	0.721456	-0.000085
 520	5.1641e+01	19.3214	60.880007	0.000243	2.433585	0.824521	-0.000097
 521	5.1740e+01	19.2829	60.746781	0.000335	3.346179	1.133716	-0.000134
 522	5.1840e+01	19.2412	60.657964	0.000223	2.230786	0.755811	-0.000089
 523	5.1939e+01	19.1995	60.548962	0.000274	2.737783	0.927586	-0.000110
 524	5.2038e+01	19.1545	60.476293	0.000183	1.825188	0.618391	-0.000073
 525	5.2138e+01	19.1176	60.339031	0.000345	3.447578	1.168071	-0.000138
 526	5.2237e+01	19.0920	60.213880	0.000314	3.143380	1.065006	-0.000126
 527	5.2337e+01	19.0358	60.108914	0.000264	2.636383	0.893231	-0.000105
 528	5.2437e+01	18.9989	59.927243	0.000456	4.562971	1.545976	-0.000183
 529	5.2536e+01	18.9588	59.842463	0.000213	2.129387	0.721456	-0.000085
 530	5.2636e+01	18.9203	59.745572	0.000243	2.433585	0.824521	-0.000097
 531	5.2735e+01	18.8754	59.664829	0.000203	2.027987	0.687101	-0.000081
 532	5.2834e+01	18.8465	59.596198	0.000172	1.723789	0.584036	-0.000069
 533	5.2934e+01	18.8016	59.458935	0.000345	3.447578	1.168071	-0.000138
 534	5.3033e+01	18.7583	59.374155	0.000213	2.129387	0.721456	-0.000085
 535	5.3133e+01	18.7166	59.216707	0.000395	3.954575	1.339846	-0.000158
 536	5.3233e+01	18.6813	59.152113	0.000162	1.622390	0.549681	-0.000065
 537	5.3332e+01	18.6508	59.030999	0.000304	3.041981	1.030651	-0.000122
 538	5.3431e+01	18.6027	58.893736	0.000345	3.447578	1.168071	-0.000138
 539	5.3531e+01	18.5626	58.812993	0.000203	2.027987	0.687101	-0.000081
 540	5.3630e+01	18.5177	58.712065	0.000253	2.534984	0.858876	-0.000101
 541	5.3730e+01	18.4824	58.594988	0.000294	2.940581	0.996296	-0.000118
 542	5.3830e+01	18.4455	58.494060	0.000253	2.534984	0.858876	-0.000101
 543	5.3929e+01	18.4022	58.364871	0.000324	3.244779	1.099361	-0.000130
 544	5.4029e+01	18.3653	58.300277	0.000162	1.622390	0.549681	-0.000065
 545	5.4128e+01	18.3332	58.150903	0.000375	3.751776	1.271136	-0.000150
 546	5.4227e+01	18.2818	57.997492	0.000385	3.853176	1.305491	-0.000154
 547	5.4327e+01	18.2498	57.864267	0.000335	3.346179	1.133716	-0.000134
 548	5.4426e+01	18.2080	57.811784	0.000132	1.318192	0.446615	-0.000053
 549	5.4526e+01	18.1615	57.714893	0.000243	2.433585	0.824521	-0.000097
 550	5.4626e+01	18.1246	57.569556	0.000365	3.650377	1.236781	-0.000146
 551	5.4725e+01	18.0829	57.508999	0.000152	1.520990	0.515325	-0.000061
 552	5.4825e+01	18.0396	57.391922	0.000294	2.940581	0.996296	-0.000118
 553	5.4924e+01	18.0091	57.282919	0.000274	2.737783	0.927586	-0.000110
 554	5.5023e+01	17.9722	57.194102	0.000223	2.230786	0.755811	-0.000089
 555	5.5123e+01	17.9225	57.036654	0.000395	3.954575	1.339846	-0.000158
 556	5.5222e+01	17.8904	56.968022	0.000172	1.723789	0.584036	-0.000069
 557	5.5322e+01	17.8423	56.854983	0.000284	2.839182	0.961941	-0.000114
 558	5.5422e+01	17.8102	56.737906	0.000294	2.940581	0.996296	-0.000118
 559	5.5521e+01	17.7749	56.612754	0.000314	3.143380	1.065006	-0.000126
 560	5.5620e+01	17.7252	56.507789	0.000264	2.636383	0.893231	-0.000105
 561	5.5720e+01	17.6947	56.414935	0.000233	2.332185	0.790166	-0.000093
 562	5.5819e+01	17.6417	56.318044	0.000243	2.433585	0.824521	-0.000097
 563	5.5919e+01	17.5968	56.217115	0.000253	2.534984	0.858876	-0.000101
 564	5.6019e+01	17.5615	56.043518	0.000436	4.360172	1.477266	-0.000174
 565	5.6118e+01	17.5311	55.954701	0.000223	2.230786	0.755811	-0.000089
 566	5.6218e+01	17.4829	55.797253	0.000395	3.954575	1.339846	-0.000158
 567	5.6317e+01	17.4428	55.696325	0.000253	2.534984	0.858876	-0.000101
 568	5.6416e+01	17.4091	55.643842	0.000132	1.318192	0.446615	-0.000053
 569	5.6516e+01	17.3658	55.498505	0.000365	3.650377	1.236781	-0.000146
 570	5.6615e+01	17.3193	55.409688	0.000223	2.230786	0.755811	-0.000089
 571	5.6715e+01	17.2840	55.284537	0.000314	3.143380	1.065006	-0.000126
 572	5.6815e+01	17.2487	55.171497	0.000284	2.839182	0.961941	-0.000114
 573	5.6914e+01	17.2086	55.106903	0.000162	1.622390	0.549681	-0.000065
 574	5.7014e+01	17.1621	54.949455	0.000395	3.954575	1.339846	-0.000158
 575	5.7113e+01	17.1300	54.824303	0.000314	3.143380	1.065006	-0.000126
 576	5.7212e+01	17.0835	54.687041	0.000345	3.447578	1.168071	-0.000138
 577	5.7312e+01	17.0434	54.598224	0.000223	2.230786	0.755811	-0.000089
 578	5.7411e+01	16.9968	54.505370	0.000233	2.332185	0.790166	-0.000093
 579	5.7511e+01	16.9744	54.376181	0.000324	3.244779	1.099361	-0.000130
 580	5.7611e+01	16.9343	54.259104	0.000294	2.940581	0.996296	-0.000118
 581	5.7710e+01	16.8846	54.178362	0.000203	2.027987	0.687101	-0.000081
 582	5.7809e+01	16.8509	54.016876	0.000406	4.055974	1.374201	-0.000162
 583	5.7909e+01	16.8124	53.891725	0.000314	3.143380	1.065006	-0.000126
 584	5.8008e+01	16.7771	53.782722	0.000274	2.737783	0.927586	-0.000110
 585	5.8108e+01	16.7305	53.669683	0.000284	2.839182	0.961941	-0.000114
 586	5.8208e+01	16.6904	53.556643	0.000284	2.839182	0.961941	-0.000114
 587	5.8307e+01	16.6535	53.427454	0.000324	3.244779	1.099361	-0.000130
 588	5.8407e+01	16.6118	53.350749	0.000193	1.926588	0.652746	-0.000077
 589	5.8506e+01	16.5814	53.229635	0.000304	3.041981	1.030651	-0.000122
 590	5.8605e+01	16.5300	53.092372	0.000345	3.447578	1.168071	-0.000138
 591	5.8705e+01	16.4899	52.959147	0.000335	3.346179	1.133716	-0.000134
 592	5.8804e+01	16.4498	52.850144	0.000274	2.737783	0.927586	-0.000110
 593	5.8904e+01	16.4081	52.741141	0.000274	2.737783	0.927586	-0.000110
 594	5.9004e+01	16.3712	52.603879	0.000345	3.447578	1.168071	-0.000138
 595	5.9103e+01	16.3343	52.511025	0.000233	2.332185	0.790166	-0.000093
 596	5.9203e+01	16.2926	52.381836	0.000324	3.244779	1.099361	-0.000130
 597	5.9302e+01	16.2461	52.284945	0.000243	2.433585	0.824521	-0.000097
 598	5.9401e+01	16.2092	52.167868	0.000294	2.940581	0.996296	-0.000118
 599	5.9501e+01	16.1659	52.038680	0.000324	3.244779	1.099361	-0.000130
 600	5.9600e+01	16.1274	51.921603	0.000294	2.940581	0.996296	-0.000118
 601	5.9700e+01	16.0889	51.768192	0.000385	3.853176	1.305491	-0.000154
 602	5.9800e+01	16.0487	51.679375	0.000223	2.230786	0.755811	-0.000089
 603	5.9899e+01	16.0151	51.558261	0.000304	3.041981	1.030651	-0.000122
 604	5.9998e+01	15.9733	51.469444	0.000223	2.230786	0.755811	-0.000089
 605	6.0098e+01	15.9348	51.287772	0.000456	4.562971	1.545976	-0.000183
 606	6.0197e+01	15.8963	51.182807	0.000264	2.636383	0.893231	-0.000105
 607	6.0297e+01	15.8594	51.045544	0.000345	3.447578	1.168071	-0.000138
 608	6.0397e+01	15.8065	50.940579	0.000264	2.636383	0.893231	-0.000105
 609	6.0496e+01	15.7760	50.815428	0.000314	3.143380	1.065006	-0.000126
 610	6.0596e+01	15.7295	50.714499	0.000253	2.534984	0.858876	-0.000101
 611	6.0695e+01	15.7038	50.605496	0.000274	2.737783	0.927586	-0.000110
 612	6.0794e+01	15.6573	50.439974	0.000416	4.157374	1.408556	-0.000166
 613	6.0894e+01	15.6156	50.335008	0.000264	2.636383	0.893231	-0.000105
 614	6.0993e+01	15.5787	50.185634	0.000375	3.751776	1.271136	-0.000150
 615	6.1093e+01	15.5370	50.100855	0.000213	2.129387	0.721456	-0.000085
 616	6.1193e+01	15.4889	49.991852	0.000274	2.737783	0.927586	-0.000110
 617	6.1292e+01	15.4472	49.862664	0.000324	3.244779	1.099361	-0.000130
 618	6.1392e+01	15.4119	49.737512	0.000314	3.143380	1.065006	-0.000126
 619	6.1491e+01	15.3750	49.656770	0.000203	2.027987	0.687101	-0.000081
 620	6.1590e+01	15.3429	49.515470	0.000355	3.548978	1.202426	-0.000142
 621	6.1690e+01	15.3012	49.390319	0.000314	3.143380	1.065006	-0.000126
 622	6.1789e+01	15.2530	49.289390	0.000253	2.534984	0.858876	-0.000101
 623	6.1889e+01	15.2226	49.152128	0.000345	3.447578	1.168071	-0.000138
 624	6.1989e+01	15.1760	48.994679	0.000395	3.954575	1.339846	-0.000158
 625	6.2088e+01	15.1311	48.873565	0.000304	3.041981	1.030651	-0.000122
 626	6.2188e+01	15.0942	48.760525	0.000284	2.839182	0.961941	-0.000114
 627	6.2287e+01	15.0557	48.623263	0.000345	3.447578	1.168071	-0.000138
 628	6.2386e+01	15.0220	48.502149	0.000304	3.041981	1.030651	-0.000122
 629	6.2486e+01	14.9771	48.352775	0.000375	3.751776	1.271136	-0.000150
 630	6.2586e+01	14.9290	48.284143	0.000172	1.723789	0.584036	-0.000069
 631	6.2685e+01	14.9017	48.114584	0.000426	4.258773	1.442911	-0.000170
 632	6.2785e+01	14.8632	47.993470	0.000304	3.041981	1.030651	-0.000122
 633	6.2884e+01	14.8167	47.908690	0.000213	2.129387	0.721456	-0.000085
 634	6.2983e+01	14.7702	47.763353	0.000365	3.650377	1.236781	-0.000146
 635	6.3083e+01	14.7269	47.638202	0.000314	3.143380	1.065006	-0.000126
 636	6.3182e+01	14.7044	47.541310	0.000243	2.433585	0.824521	-0.000097
 637	6.3282e+01	14.6627	47.375788	0.000416	4.157374	1.408556	-0.000166
 638	6.3382e+01	14.6274	47.282934	0.000233	2.332185	0.790166	-0.000093
 639	6.3481e+01	14.5825	47.141634	0.000355	3.548978	1.202426	-0.000142
 640	6.3581e+01	14.5360	47.032631	0.000274	2.737783	0.927586	-0.000110
 641	6.3680e+01	14.5183	46.919592	0.000284	2.839182	0.961941	-0.000114
 642	6.3779e+01	14.4638	46.806552	0.000284	2.839182	0.961941	-0.000114
 643	6.3879e+01	14.4188	46.665252	0.000355	3.548978	1.202426	-0.000142
 644	6.3978e+01	14.3803	46.511841	0.000385	3.853176	1.305491	-0.000154
 645	6.4078e+01	14.3370	46.402838	0.000274	2.737783	0.927586	-0.000110
 646	6.4177e+01	14.3001	46.245390	0.000395	3.954575	1.339846	-0.000158
 647	6.4277e+01	14.2648	46.112164	0.000335	3.346179	1.133716	-0.000134
 648	6.4376e+01	14.2215	46.011236	0.000253	2.534984	0.858876	-0.000101
 649	6.4476e+01	14.1814	45.894159	0.000294	2.940581	0.996296	-0.000118
 650	6.4576e+01	14.1397	45.748822	0.000365	3.650377	1.236781	-0.000146
 651	6.4675e+01	14.0948	45.647894	0.000253	2.534984	0.858876	-0.000101
 652	6.4775e+01	14.0659	45.486408	0.000406	4.055974	1.374201	-0.000162
 653	6.4874e+01	14.0258	45.393554	0.000233	2.332185	0.790166	-0.000093
 654	6.4974e+01	13.9857	45.232069	0.000406	4.055974	1.374201	-0.000162
 655	6.5073e+01	13.9472	45.159400	0.000183	1.825188	0.618391	-0.000073
 656	6.5172e+01	13.8991	45.054435	0.000264	2.636383	0.893231	-0.000105
 657	6.5272e+01	13.8606	44.872764	0.000456	4.562971	1.545976	-0.000183
 658	6.5371e+01	13.8173	44.787984	0.000213	2.129387	0.721456	-0.000085
 659	6.5471e+01	13.7804	44.666870	0.000304	3.041981	1.030651	-0.000122
 660	6.5570e+01	13.7499	44.594201	0.000183	1.825188	0.618391	-0.000073
 661	6.5670e+01	13.7098	44.416567	0.000446	4.461572	1.511621	-0.000179
 662	6.5769e+01	13.6649	44.303528	0.000284	2.839182	0.961941	-0.000114
 663	6.5869e+01	13.6167	44.158191	0.000365	3.650377	1.236781	-0.000146
 664	6.5969e+01	13.5814	44.008817	0.000375	3.751776	1.271136	-0.000150
 665	6.6068e+01	13.5381	43.875591	0.000335	3.346179	1.133716	-0.000134
 666	6.6168e+01	13.4964	43.786774	0.000223	2.230786	0.755811	-0.000089
 667	6.6267e+01	13.4707	43.669697	0.000294	2.940581	0.996296	-0.000118
 668	6.6367e+01	13.4178	43.504175	0.000416	4.157374	1.408556	-0.000166
 669	6.6466e+01	13.3809	43.419395	0.000213	2.129387	0.721456	-0.000085
 670	6.6566e+01	13.3472	43.261947	0.000395	3.954575	1.339846	-0.000158
 671	6.6665e+01	13.2991	43.165055	0.000243	2.433585	0.824521	-0.000097
 672	6.6764e+01	13.2622	43.056053	0.000274	2.737783	0.927586	-0.000110
 673	6.6864e+01	13.2205	42.926864	0.000324	3.244779	1.099361	-0.000130
 674	6.6963e+01	13.1756	42.805750	0.000304	3.041981	1.030651	-0.000122
 675	6.7063e+01	13.1435	42.680599	0.000314	3.143380	1.065006	-0.000126
 676	6.7162e+01	13.1050	42.555448	0.000314	3.143380	1.065006	-0.000126
 677	6.7262e+01	13.0729	42.426259	0.000324	3.244779	1.099361	-0.000130
 678	6.7362e+01	13.0376	42.317257	0.000274	2.737783	0.927586	-0.000110
 679	6.7461e+01	12.9863	42.236514	0.000203	2.027987	0.687101	-0.000081
 680	6.7561e+01	12.9494	42.099251	0.000345	3.447578	1.168071	-0.000138
 681	6.7660e+01	12.9109	41.957952	0.000355	3.548978	1.202426	-0.000142
 682	6.7760e+01	12.8692	41.808578	0.000375	3.751776	1.271136	-0.000150
 683	6.7859e+01	12.8307	41.723798	0.000213	2.129387	0.721456	-0.000085
 684	6.7959e+01	12.7873	41.582498	0.000355	3.548978	1.202426	-0.000142
 685	6.8058e+01	12.7472	41.425050	0.000395	3.954575	1.339846	-0.000158
 686	6.8157e+01	12.7200	41.336233	0.000223	2.230786	0.755811	-0.000089
 687	6.8257e+01	12.6686	41.170710	0.000416	4.157374	1.408556	-0.000166
 688	6.8356e+01	12.6237	41.061708	0.000274	2.737783	0.927586	-0.000110
 689	6.8456e+01	12.5884	40.944631	0.000294	2.940581	0.996296	-0.000118
 690	6.8555e+01	12.5515	40.815442	0.000324	3.244779	1.099361	-0.000130
 691	6.8655e+01	12.5082	40.718551	0.000243	2.433585	0.824521	-0.000097
 692	6.8754e+01	12.4697	40.573214	0.000365	3.650377	1.236781	-0.000146
 693	6.8854e+01	12.4216	40.476323	0.000243	2.433585	0.824521	-0.000097
 694	6.8954e+01	12.3943	40.339060	0.000345	3.447578	1.168071	-0.000138
 695	6.9053e+01	12.3558	40.242169	0.000243	2.433585	0.824521	-0.000097
 696	6.9153e+01	12.3109	40.117018	0.000314	3.143380	1.065006	-0.000126
 697	6.9252e+01	12.2676	39.991867	0.000314	3.143380	1.065006	-0.000126
 698	6.9352e+01	12.2275	39.931310	0.000152	1.520990	0.515325	-0.000061
 699	6.9451e+01	12.1858	39.790010	0.000355	3.548978	1.202426	-0.000142
 700	6.9550e+01	12.1569	39.616413	0.000436	4.360172	1.477266	-0.000174
 701	6.9650e+01	12.1152	39.467039	0.000375	3.751776	1.271136	-0.000150
 702	6.9749e+01	12.0686	39.374185	0.000233	2.332185	0.790166	-0.000093
 703	6.9849e+01	12.0285	39.240959	0.000335	3.346179	1.133716	-0.000134
 704	6.9948e+01	11.9900	39.095622	0.000365	3.650377	1.236781	-0.000146
 705	7.0048e+01	11.9467	38.954323	0.000355	3.548978	1.202426	-0.000142
 706	7.0147e+01	11.9034	38.853394	0.000253	2.534984	0.858876	-0.000101
 707	7.0247e+01	11.8697	38.752466	0.000253	2.534984	0.858876	-0.000101
 708	7.0347e+01	11.8312	38.578869	0.000436	4.360172	1.477266	-0.000174
 709	7.0446e+01	11.7927	38.473904	0.000264	2.636383	0.893231	-0.000105
 710	7.0546e+01	11.7494	38.381049	0.000233	2.332185	0.790166	-0.000093
 711	7.0645e+01	11.7141	38.288195	0.000233	2.332185	0.790166	-0.000093
 712	7.0745e+01	11.6676	38.150933	0.000345	3.447578	1.168071	-0.000138
 713	7.0844e+01	11.6323	38.037893	0.000284	2.839182	0.961941	-0.000114
 714	7.0944e+01	11.5954	37.904667	0.000335	3.346179	1.133716	-0.000134
 715	7.1043e+01	11.5457	37.848148	0.000142	1.419591	0.480970	-0.000057
 716	7.1142e+01	11.5120	37.702811	0.000365	3.650377	1.236781	-0.000146
 717	7.1242e+01	11.4719	37.622068	0.000203	2.027987	0.687101	-0.000081
 718	7.1341e+01	11.4286	37.456545	0.000416	4.157374	1.408556	-0.000166
 719	7.1441e+01	11.3852	37.331394	0.000314	3.143380	1.065006	-0.000126
 720	7.1540e+01	11.3467	37.182020	0.000375	3.751776	1.271136	-0.000150
 721	7.1640e+01	11.3082	37.012460	0.000426	4.258773	1.442911	-0.000170
 722	7.1740e+01	11.2729	36.899421	0.000284	2.839182	0.961941	-0.000114
 723	7.1839e+01	11.2232	36.802529	0.000243	2.433585	0.824521	-0.000097
 724	7.1939e+01	11.1959	36.649118	0.000385	3.853176	1.305491	-0.000154
 725	7.2038e+01	11.1542	36.507818	0.000355	3.548978	1.202426	-0.000142
 726	7.2138e+01	11.1141	36.419001	0.000223	2.230786	0.755811	-0.000089
 727	7.2237e+01	11.0660	36.293850	0.000314	3.143380	1.065006	-0.000126
 728	7.2337e+01	11.0387	36.172736	0.000304	3.041981	1.030651	-0.000122
 729	7.2436e+01	10.9890	36.039511	0.000335	3.346179	1.133716	-0.000134
 730	7.2535e+01	10.9537	35.926471	0.000284	2.839182	0.961941	-0.000114
 731	7.2635e+01	10.9200	35.809394	0.000294	2.940581	0.996296	-0.000118
 732	7.2734e+01	10.8623	35.720577	0.000223	2.230786	0.755811	-0.000089
 733	7.2834e+01	10.8414	35.599463	0.000304	3.041981	1.030651	-0.000122
 734	7.2933e+01	10.7837	35.486423	0.000284	2.839182	0.961941	-0.000114
 735	7.3033e+01	10.7548	35.357235	0.000324	3.244779	1.099361	-0.000130
 736	7.3132e+01	10.7195	35.232084	0.000314	3.143380	1.065006	-0.000126
 737	7.3232e+01	10.6681	35.090784	0.000355	3.548978	1.202426	-0.000142
 738	7.3332e+01	10.6329	34.989855	0.000253	2.534984	0.858876	-0.000101
 739	7.3431e+01	10.5895	34.808184	0.000456	4.562971	1.545976	-0.000183
 740	7.3531e+01	10.5559	34.646699	0.000406	4.055974	1.374201	-0.000162
 741	7.3630e+01	10.5254	34.549808	0.000243	2.433585	0.824521	-0.000097
 742	7.3730e+01	10.4708	34.376211	0.000436	4.360172	1.477266	-0.000174
 743	7.3829e+01	10.4259	34.287394	0.000223	2.230786	0.755811	-0.000089
 744	7.3928e+01	10.3970	34.125908	0.000406	4.055974	1.374201	-0.000162
 745	7.4028e+01	10.3473	34.037091	0.000223	2.230786	0.755811	-0.000089
 746	7.4127e+01	10.3248	33.932126	0.000264	2.636383	0.893231	-0.000105
 747	7.4227e+01	10.2799	33.786789	0.000365	3.650377	1.236781	-0.000146
 748	7.4326e+01	10.2350	33.673749	0.000284	2.839182	0.961941	-0.000114
 749	7.4426e+01	10.1997	33.564747	0.000274	2.737783	0.927586	-0.000110
 750	7.4525e+01	10.1564	33.411335	0.000385	3.853176	1.305491	-0.000154
 751	7.4625e+01	10.1131	33.354815	0.000142	1.419591	0.480970	-0.000057
 752	7.4725e+01	10.0746	33.173144	0.000456	4.562971	1.545976	-0.000183
 753	7.4824e+01	10.0409	33.084327	0.000223	2.230786	0.755811	-0.000089
 754	7.4924e+01	9.9912	32.914768	0.000426	4.258773	1.442911	-0.000170
 755	7.5023e+01	9.9591	32.805765	0.000274	2.737783	0.927586	-0.000110
 756	7.5123e+01	9.9158	32.672540	0.000335	3.346179	1.133716	-0.000134
 757	7.5222e+01	9.8821	32.547388	0.000314	3.143380	1.065006	-0.000126
 758	7.5322e+01	9.8436	32.406089	0.000355	3.548978	1.202426	-0.000142
 759	7.5421e+01	9.8003	32.268826	0.000345	3.447578	1.168071	-0.000138
 760	7.5520e+01	9.7650	32.071006	0.000497	4.968569	1.683397	-0.000199
 761	7.5620e+01	9.7184	31.970078	0.000253	2.534984	0.858876	-0.000101
 762	7.5719e+01	9.6831	31.812630	0.000395	3.954575	1.339846	-0.000158
 763	7.5819e+01	9.6446	31.719775	0.000233	2.332185	0.790166	-0.000093
 764	7.5918e+01	9.6045	31.554253	0.000416	4.157374	1.408556	-0.000166
 765	7.6018e+01	9.5596	31.408916	0.000365	3.650377	1.236781	-0.000146
 766	7.6118e+01	9.5163	31.332210	0.000193	1.926588	0.652746	-0.000077
 767	7.6217e+01	9.4810	31.186874	0.000365	3.650377	1.236781	-0.000146
 768	7.6317e+01	9.4393	31.065760	0.000304	3.041981	1.030651	-0.000122
 769	7.6416e+01	9.3992	30.960794	0.000264	2.636383	0.893231	-0.000105
 770	7.6516e+01	9.3607	30.823531	0.000345	3.447578	1.168071	-0.000138
 771	7.6615e+01	9.3222	30.734714	0.000223	2.230786	0.755811	-0.000089
 772	7.6715e+01	9.2789	30.593415	0.000355	3.548978	1.202426	-0.000142
 773	7.6814e+01	9.2436	30.508635	0.000213	2.129387	0.721456	-0.000085
 774	7.6913e+01	9.2019	30.331001	0.000446	4.461572	1.511621	-0.000179
 775	7.7013e+01	9.1586	30.209887	0.000304	3.041981	1.030651	-0.000122
 776	7.7112e+01	9.1233	30.020141	0.000477	4.765770	1.614687	-0.000191
 777	7.7212e+01	9.0848	29.886916	0.000335	3.346179	1.133716	-0.000134
 778	7.7311e+01	9.0495	29.769839	0.000294	2.940581	0.996296	-0.000118
 779	7.7411e+01	8.9965	29.572019	0.000497	4.968569	1.683397	-0.000199
 780	7.7510e+01	8.9693	29.491277	0.000203	2.027987	0.687101	-0.000081
 781	7.7610e+01	8.9243	29.329791	0.000406	4.055974	1.374201	-0.000162
 782	7.7710e+01	8.8842	29.192529	0.000345	3.447578	1.168071	-0.000138
 783	7.7809e+01	8.8361	29.059303	0.000335	3.346179	1.133716	-0.000134
 784	7.7909e+01	8.7944	28.942226	0.000294	2.940581	0.996296	-0.000118
 785	7.8008e+01	8.7655	28.809001	0.000335	3.346179	1.133716	-0.000134
 786	7.8108e+01	8.7302	28.695961	0.000284	2.839182	0.961941	-0.000114
 787	7.8207e+01	8.6853	28.562735	0.000335	3.346179	1.133716	-0.000134
 788	7.8306e+01	8.6340	28.437584	0.000314	3.143380	1.065006	-0.000126
 789	7.8406e+01	8.6019	28.320507	0.000294	2.940581	0.996296	-0.000118
 790	7.8505e+01	8.5746	28.219579	0.000253	2.534984	0.858876	-0.000101
 791	7.8605e+01	8.5169	28.045982	0.000436	4.360172	1.477266	-0.000174
 792	7.8704e+01	8.4896	27.924868	0.000304	3.041981	1.030651	-0.000122
 793	7.8804e+01	8.4383	27.791642	0.000335	3.346179	1.133716	-0.000134
 794	7.8903e+01	8.4094	27.674565	0.000294	2.940581	0.996296	-0.000118
 795	7.9003e+01	8.3645	27.529229	0.000365	3.650377	1.236781	-0.000146
 796	7.9103e+01	8.3324	27.404077	0.000314	3.143380	1.065006	-0.000126
 797	7.9202e+01	8.2859	27.206258	0.000497	4.968569	1.683397	-0.000199
 798	7.9302e+01	8.2490	27.056884	0.000375	3.751776	1.271136	-0.000150
 799	7.9401e+01	8.2169	26.915584	0.000355	3.548978	1.202426	-0.000142
 800	7.9501e+01	8.1671	26.758136	0.000395	3.954575	1.339846	-0.000158
 801	7.9600e+01	8.1286	26.628947	0.000324	3.244779	1.099361	-0.000130
 802	7.9700e+01	8.0901	26.499759	0.000324	3.244779	1.099361	-0.000130
 803	7.9799e+01	8.0452	26.358459	0.000355	3.548978	1.202426	-0.000142
 804	7.9898e+01	8.0083	26.229271	0.000324	3.244779	1.099361	-0.000130
 805	7.9998e+01	7.9602	26.104120	0.000314	3.143380	1.065006	-0.000126
 806	8.0097e+01	7.9233	26.011266	0.000233	2.332185	0.790166	-0.000093
 807	8.0197e+01	7.8752	25.902263	0.000274	2.737783	0.927586	-0.000110
 808	8.0296e+01	7.8511	25.793260	0.000274	2.737783	0.927586	-0.000110
 809	8.0396e+01	7.8062	25.611589	0.000456	4.562971	1.545976	-0.000183
 810	8.0496e+01	7.7661	25.482401	0.000324	3.244779	1.099361	-0.000130
 811	8.0595e+01	7.7019	25.345138	0.000345	3.447578	1.168071	-0.000138
 812	8.0695e+01	7.6795	25.228061	0.000294	2.940581	0.996296	-0.000118
 813	8.0794e+01	7.6458	25.110984	0.000294	2.940581	0.996296	-0.000118
 814	8.0894e+01	7.6073	24.925276	0.000466	4.664371	1.580332	-0.000187
 815	8.0993e+01	7.5688	24.800125	0.000314	3.143380	1.065006	-0.000126
 816	8.1093e+01	7.5383	24.626528	0.000436	4.360172	1.477266	-0.000174
 817	8.1192e+01	7.4821	24.465043	0.000406	4.055974	1.374201	-0.000162
 818	8.1291e+01	7.4485	24.319706	0.000365	3.650377	1.236781	-0.000146
 819	8.1391e+01	7.4051	24.210703	0.000274	2.737783	0.927586	-0.000110
 820	8.1490e+01	7.3731	24.024995	0.000466	4.664371	1.580332	-0.000187
 821	8.1590e+01	7.3281	23.940215	0.000213	2.129387	0.721456	-0.000085
 822	8.1689e+01	7.2816	23.794878	0.000365	3.650377	1.236781	-0.000146
 823	8.1789e+01	7.2575	23.645504	0.000375	3.751776	1.271136	-0.000150
 824	8.1888e+01	7.2126	23.508241	0.000345	3.447578	1.168071	-0.000138
 825	8.1988e+01	7.1709	23.415387	0.000233	2.332185	0.790166	-0.000093
 826	8.2088e+01	7.1372	23.358867	0.000142	1.419591	0.480970	-0.000057
 827	8.2187e+01	7.0859	23.152973	0.000517	5.171367	1.752107	-0.000207
 828	8.2287e+01	7.0442	23.096454	0.000142	1.419591	0.480970	-0.000057
 829	8.2386e+01	7.0089	22.910745	0.000466	4.664371	1.580332	-0.000187
 830	8.2486e+01	6.9672	22.785594	0.000314	3.143380	1.065006	-0.000126
 831	8.2585e+01	6.9223	22.660443	0.000314	3.143380	1.065006	-0.000126
 832	8.2684e+01	6.8838	22.519143	0.000355	3.548978	1.202426	-0.000142
 833	8.2784e+01	6.8437	22.353621	0.000416	4.157374	1.408556	-0.000166
 834	8.2883e+01	6.8116	22.276915	0.000193	1.926588	0.652746	-0.000077
 835	8.2983e+01	6.7747	22.058910	0.000548	5.475565	1.855172	-0.000219
 836	8.3082e+01	6.7346	21.897424	0.000406	4.055974	1.374201	-0.000162
 837	8.3182e+01	6.6913	21.756124	0.000355	3.548978	1.202426	-0.000142
 838	8.3281e+01	6.6544	21.671345	0.000213	2.129387	0.721456	-0.000085
 839	8.3381e+01	6.6046	21.493711	0.000446	4.461572	1.511621	-0.000179
 840	8.3481e+01	6.5854	21.412968	0.000203	2.027987	0.687101	-0.000081
 841	8.3580e+01	6.5308	21.223223	0.000477	4.765770	1.614687	-0.000191
 842	8.3680e+01	6.4939	21.089997	0.000335	3.346179	1.133716	-0.000134
 843	8.3779e+01	6.4635	21.025403	0.000162	1.622390	0.549681	-0.000065
 844	8.3879e+01	6.4073	20.896215	0.000324	3.244779	1.099361	-0.000130
 845	8.3978e+01	6.3784	20.783175	0.000284	2.839182	0.961941	-0.000114
 846	8.4078e+01	6.3383	20.637838	0.000365	3.650377	1.236781	-0.000146
 847	8.4177e+01	6.2886	20.532872	0.000264	2.636383	0.893231	-0.000105
 848	8.4276e+01	6.2517	20.359276	0.000436	4.360172	1.477266	-0.000174
 849	8.4376e+01	6.2148	20.290644	0.000172	1.723789	0.584036	-0.000069
 850	8.4475e+01	6.1747	20.096862	0.000487	4.867169	1.649042	-0.000195
 851	8.4575e+01	6.1298	19.971710	0.000314	3.143380	1.065006	-0.000126
 852	8.4674e+01	6.0897	19.862708	0.000274	2.737783	0.927586	-0.000110
 853	8.4774e+01	6.0528	19.681037	0.000456	4.562971	1.545976	-0.000183
 854	8.4874e+01	6.0143	19.563960	0.000294	2.940581	0.996296	-0.000118
 855	8.4973e+01	5.9806	19.390363	0.000436	4.360172	1.477266	-0.000174
 856	8.5073e+01	5.9357	19.220803	0.000426	4.258773	1.442911	-0.000170
 857	8.5172e+01	5.8956	19.136023	0.000213	2.129387	0.721456	-0.000085
 858	8.5272e+01	5.8554	18.966464	0.000426	4.258773	1.442911	-0.000170
 859	8.5371e+01	5.8089	18.833238	0.000335	3.346179	1.133716	-0.000134
 860	8.5471e+01	5.7752	18.752496	0.000203	2.027987	0.687101	-0.000081
 861	8.5570e+01	5.7351	18.595047	0.000395	3.954575	1.339846	-0.000158
 862	8.5669e+01	5.6918	18.514304	0.000203	2.027987	0.687101	-0.000081
 863	8.5769e+01	5.6453	18.397228	0.000294	2.940581	0.996296	-0.000118
 864	8.5868e+01	5.6052	18.239779	0.000395	3.954575	1.339846	-0.000158
 865	8.5968e+01	5.5763	18.126739	0.000284	2.839182	0.961941	-0.000114
 866	8.6067e+01	5.5250	17.985440	0.000355	3.548978	1.202426	-0.000142
 867	8.6167e+01	5.4913	17.852214	0.000335	3.346179	1.133716	-0.000134
 868	8.6266e+01	5.4560	17.698803	0.000385	3.853176	1.305491	-0.000154
 869	8.6366e+01	5.4255	17.593838	0.000264	2.636383	0.893231	-0.000105
 870	8.6466e+01	5.3790	17.460612	0.000335	3.346179	1.133716	-0.000134
 871	8.6565e+01	5.3437	17.319312	0.000355	3.548978	1.202426	-0.000142
 872	8.6665e+01	5.2972	17.165901	0.000385	3.853176	1.305491	-0.000154
 873	8.6764e+01	5.2619	17.044787	0.000304	3.041981	1.030651	-0.000122
 874	8.6864e+01	5.2138	16.859079	0.000466	4.664371	1.580332	-0.000187
 875	8.6963e+01	5.1833	16.733928	0.000314	3.143380	1.065006	-0.000126
 876	8.7063e+01	5.1400	16.608776	0.000314	3.143380	1.065006	-0.000126
 877	8.7162e+01	5.1015	16.479588	0.000324	3.244779	1.099361	-0.000130
 878	8.7261e+01	5.0630	16.354437	0.000314	3.143380	1.065006	-0.000126
 879	8.7361e+01	5.0148	16.205063	0.000375	3.751776	1.271136	-0.000150
 880	8.7460e+01	4.9811	16.087986	0.000294	2.940581	0.996296	-0.000118
 881	8.7560e+01	4.9442	16.015317	0.000183	1.825188	0.618391	-0.000073
 882	8.7659e+01	4.9009	15.865943	0.000375	3.751776	1.271136	-0.000150
 883	8.7759e+01	4.8544	15.732718	0.000335	3.346179	1.133716	-0.000134
 884	8.7859e+01	4.8207	15.575270	0.000395	3.954575	1.339846	-0.000158
 885	8.7958e+01	4.7678	15.438007	0.000345	3.447578	1.168071	-0.000138
 886	8.8058e+01	4.7373	15.345153	0.000233	2.332185	0.790166	-0.000093
 887	8.8157e+01	4.6972	15.199816	0.000365	3.650377	1.236781	-0.000146
 888	8.8257e+01	4.6603	15.106962	0.000233	2.332185	0.790166	-0.000093
 889	8.8356e+01	4.6154	14.909142	0.000497	4.968569	1.683397	-0.000199
 890	8.8456e+01	4.5737	14.788028	0.000304	3.041981	1.030651	-0.000122
 891	8.8555e+01	4.5448	14.683063	0.000264	2.636383	0.893231	-0.000105
 892	8.8654e+01	4.5015	14.497354	0.000466	4.664371	1.580332	-0.000187
 893	8.8754e+01	4.4662	14.372203	0.000314	3.143380	1.065006	-0.000126
 894	8.8853e+01	4.4165	14.226866	0.000365	3.650377	1.236781	-0.000146
 895	8.8953e+01	4.3763	14.077492	0.000375	3.751776	1.271136	-0.000150
 896	8.9052e+01	4.3443	13.988675	0.000223	2.230786	0.755811	-0.000089
 897	8.9152e+01	4.3090	13.851413	0.000345	3.447578	1.168071	-0.000138
 898	8.9251e+01	4.2673	13.706076	0.000365	3.650377	1.236781	-0.000146
 899	8.9351e+01	4.2239	13.625333	0.000203	2.027987	0.687101	-0.000081
 900	8.9451e+01	4.1854	13.492108	0.000335	3.346179	1.133716	-0.000134
 901	8.9550e+01	4.1421	13.338696	0.000385	3.853176	1.305491	-0.000154
 902	8.9650e+01	4.1052	13.201434	0.000345	3.447578	1.168071	-0.000138
 903	8.9749e+01	4.0587	13.092431	0.000274	2.737783	0.927586	-0.000110
 904	8.9849e+01	4.0154	12.910760	0.000456	4.562971	1.545976	-0.000183
 905	8.9948e+01	3.9801	12.825980	0.000213	2.129387	0.721456	-0.000085
 906	9.0047e+01	3.9352	12.684680	0.000355	3.548978	1.202426	-0.000142
 907	9.0147e+01	3.9079	12.563566	0.000304	3.041981	1.030651	-0.000122
 908	9.0246e+01	3.8774	12.406118	0.000395	3.954575	1.339846	-0.000158
 909	9.0346e+01	3.8181	12.272893	0.000335	3.346179	1.133716	-0.000134
 910	9.0445e+01	3.7924	12.159853	0.000284	2.839182	0.961941	-0.000114
 911	9.0545e+01	3.7507	11.978182	0.000456	4.562971	1.545976	-0.000183
 912	9.0644e+01	3.6978	11.824771	0.000385	3.853176	1.305491	-0.000154
 913	9.0744e+01	3.6609	11.671359	0.000385	3.853176	1.305491	-0.000154
 914	9.0844e+01	3.6240	11.530060	0.000355	3.548978	1.202426	-0.000142
 915	9.0943e+01	3.5823	11.433168	0.000243	2.433585	0.824521	-0.000097
 916	9.1043e+01	3.5405	11.247460	0.000466	4.664371	1.580332	-0.000187
 917	9.1142e+01	3.5052	11.190940	0.000142	1.419591	0.480970	-0.000057
 918	9.1242e+01	3.4619	11.049641	0.000355	3.548978	1.202426	-0.000142
 919	9.1341e+01	3.4250	10.908341	0.000355	3.548978	1.202426	-0.000142
 920	9.1441e+01	3.3849	10.795301	0.000284	2.839182	0.961941	-0.000114
 921	9.1540e+01	3.3416	10.625741	0.000426	4.258773	1.442911	-0.000170
 922	9.1639e+01	3.2983	10.536924	0.000223	2.230786	0.755811	-0.000089
 923	9.1739e+01	3.2566	10.387550	0.000375	3.751776	1.271136	-0.000150
 924	9.1838e+01	3.2341	10.217991	0.000426	4.258773	1.442911	-0.000170
 925	9.1938e+01	3.1892	10.104951	0.000284	2.839182	0.961941	-0.000114
 926	9.2037e+01	3.1491	9.935391	0.000426	4.258773	1.442911	-0.000170
 927	9.2137e+01	3.1058	9.826388	0.000274	2.737783	0.927586	-0.000110
 928	9.2237e+01	3.0769	9.660866	0.000416	4.157374	1.408556	-0.000166
 929	9.2336e+01	3.0224	9.483232	0.000446	4.461572	1.511621	-0.000179
 930	9.2436e+01	2.9887	9.386341	0.000243	2.433585	0.824521	-0.000097
 931	9.2535e+01	2.9502	9.204669	0.000456	4.562971	1.545976	-0.000183
 932	9.2635e+01	2.9037	9.059333	0.000365	3.650377	1.236781	-0.000146
 933	9.2734e+01	2.8748	8.926107	0.000335	3.346179	1.133716	-0.000134
 934	9.2834e+01	2.8267	8.804993	0.000304	3.041981	1.030651	-0.000122
 935	9.2933e+01	2.7898	8.736362	0.000172	1.723789	0.584036	-0.000069
 936	9.3032e+01	2.7545	8.558728	0.000446	4.461572	1.511621	-0.000179
 937	9.3132e+01	2.7095	8.433577	0.000314	3.143380	1.065006	-0.000126
 938	9.3231e+01	2.6566	8.360908	0.000183	1.825188	0.618391	-0.000073
 939	9.3331e+01	2.6309	8.179237	0.000456	4.562971	1.545976	-0.000183
 940	9.3430e+01	2.5940	8.025826	0.000385	3.853176	1.305491	-0.000154
 941	9.3530e+01	2.5379	7.888563	0.000345	3.447578	1.168071	-0.000138
 942	9.3629e+01	2.5058	7.775523	0.000284	2.839182	0.961941	-0.000114
 943	9.3729e+01	2.4689	7.626149	0.000375	3.751776	1.271136	-0.000150
 944	9.3829e+01	2.4320	7.500998	0.000314	3.143380	1.065006	-0.000126
 945	9.3928e+01	2.3903	7.335476	0.000416	4.157374	1.408556	-0.000166
 946	9.4028e+01	2.3550	7.190139	0.000365	3.650377	1.236781	-0.000146
 947	9.4127e+01	2.3069	7.000393	0.000477	4.765770	1.614687	-0.000191
 948	9.4227e+01	2.2748	6.867168	0.000335	3.346179	1.133716	-0.000134
 949	9.4326e+01	2.2251	6.697608	0.000426	4.258773	1.442911	-0.000170
 950	9.4425e+01	2.1898	6.576494	0.000304	3.041981	1.030651	-0.000122
 951	9.4525e+01	2.1481	6.423083	0.000385	3.853176	1.305491	-0.000154
 952	9.4624e+01	2.1128	6.289857	0.000335	3.346179	1.133716	-0.000134
 953	9.4724e+01	2.0711	6.229300	0.000152	1.520990	0.515325	-0.000061
 954	9.4823e+01	2.0261	6.104149	0.000314	3.143380	1.065006	-0.000126
 955	9.4923e+01	1.9892	5.946701	0.000395	3.954575	1.339846	-0.000158
 956	9.5022e+01	1.9572	5.801364	0.000365	3.650377	1.236781	-0.000146
 957	9.5122e+01	1.9058	5.664101	0.000345	3.447578	1.168071	-0.000138
 958	9.5222e+01	1.8657	5.530876	0.000335	3.346179	1.133716	-0.000134
 959	9.5321e+01	1.8224	5.373428	0.000395	3.954575	1.339846	-0.000158
 960	9.5421e+01	1.7919	5.260388	0.000284	2.839182	0.961941	-0.000114
 961	9.5520e+01	1.7550	5.070642	0.000477	4.765770	1.614687	-0.000191
 962	9.5620e+01	1.7165	4.981826	0.000223	2.230786	0.755811	-0.000089
 963	9.5719e+01	1.6684	4.804192	0.000446	4.461572	1.511621	-0.000179
 964	9.5819e+01	1.6283	4.670966	0.000335	3.346179	1.133716	-0.000134
 965	9.5918e+01	1.5898	4.505443	0.000416	4.157374	1.408556	-0.000166
 966	9.6017e+01	1.5593	4.364144	0.000355	3.548978	1.202426	-0.000142
 967	9.6117e+01	1.5144	4.190547	0.000436	4.360172	1.477266	-0.000174
 968	9.6216e+01	1.4711	4.085581	0.000264	2.636383	0.893231	-0.000105
 969	9.6316e+01	1.4310	3.924096	0.000406	4.055974	1.374201	-0.000162
 970	9.6415e+01	1.3893	3.738388	0.000466	4.664371	1.580332	-0.000187
 971	9.6515e+01	1.3492	3.677831	0.000152	1.520990	0.515325	-0.000061
 972	9.6615e+01	1.3171	3.496160	0.000456	4.562971	1.545976	-0.000183
 973	9.6714e+01	1.2770	3.371008	0.000314	3.143380	1.065006	-0.000126
 974	9.6814e+01	1.2337	3.249894	0.000304	3.041981	1.030651	-0.000122
 975	9.6913e+01	1.1887	3.132817	0.000294	2.940581	0.996296	-0.000118
 976	9.7013e+01	1.1486	2.987480	0.000365	3.650377	1.236781	-0.000146
 977	9.7112e+01	1.1182	2.842144	0.000365	3.650377	1.236781	-0.000146
 978	9.7212e+01	1.0716	2.676621	0.000416	4.157374	1.408556	-0.000166
 979	9.7311e+01	1.0315	2.567618	0.000274	2.737783	0.927586	-0.000110
 980	9.7410e+01	0.9850	2.434393	0.000335	3.346179	1.133716	-0.000134
 981	9.7510e+01	0.9481	2.260796	0.000436	4.360172	1.477266	-0.000174
 982	9.7609e+01	0.9160	2.155830	0.000264	2.636383	0.893231	-0.000105
 983	9.7709e+01	0.8791	1.994345	0.000406	4.055974	1.374201	-0.000162
 984	9.7808e+01	0.8278	1.840934	0.000385	3.853176	1.305491	-0.000154
 985	9.7908e+01	0.8005	1.675411	0.000416	4.157374	1.408556	-0.000166
 986	9.8007e+01	0.7604	1.497777	0.000446	4.461572	1.511621	-0.000179
 987	9.8107e+01	0.7123	1.368589	0.000324	3.244779	1.099361	-0.000130
 988	9.8207e+01	0.6754	1.215178	0.000385	3.853176	1.305491	-0.000154
 989	9.8306e+01	0.6353	1.090027	0.000314	3.143380	1.065006	-0.000126
 990	9.8406e+01	0.5920	0.952764	0.000345	3.447578	1.168071	-0.000138
 991	9.8505e+01	0.5567	0.872021	0.000203	2.027987	0.687101	-0.000081
 992	9.8605e+01	0.5134	0.702462	0.000426	4.258773	1.442911	-0.000170
 993	9.8704e+01	0.4716	0.581348	0.000304	3.041981	1.030651	-0.000122
 994	9.8803e+01	0.4428	0.440048	0.000355	3.548978	1.202426	-0.000142
 995	9.8903e+01	0.3930	0.302785	0.000345	3.447578	1.168071	-0.000138
 996	9.9002e+01	0.3433	0.165523	0.000345	3.447578	1.168071	-0.000138
 997	9.9102e+01	0.3176	0.048446	0.000294	2.940581	0.996296	-0.000118
 998	9.9201e+01	0.2839	-0.080743	0.000324	3.244779	1.099361	-0.000130
 999	9.9301e+01	0.2406	-0.242228	0.000406	4.055974	1.374201	-0.000162
1000	9.9400e+01	0.2021	-0.371416	0.000324	3.244779	1.099361	-0.000130
1001	9.9500e+01	0.1508	-0.508679	0.000345	3.447578	1.168071	-0.000138
1002	9.9600e+01	0.1139	-0.662090	0.000385	3.853176	1.305491	-0.000154
1003	9.9699e+01	0.0770	-0.771093	0.000274	2.737783	0.927586	-0.000110
1004	9.9799e+01	0.0337	-0.964875	0.000487	4.867169	1.649042	-0.000195
1005	9.9898e+01	0.0112	-1.069841	0.000264	2.636383	0.893231	-0.000105
1006	9.9998e+01	-0.0273	-1.203066	0.000335	3.346179	1.133716	-0.000134
1007	1.0010e+02	-0.0770	-1.356478	0.000385	3.853176	1.305491	-0.000154
1008	1.0020e+02	-0.1107	-1.481629	0.000314	3.143380	1.065006	-0.000126
1009	1.0030e+02	-0.1524	-1.647151	0.000416	4.157374	1.408556	-0.000166
1010	1.0040e+02	-0.1941	-1.752117	0.000264	2.636383	0.893231	-0.000105
1011	1.0050e+02	-0.2310	-1.865157	0.000284	2.839182	0.961941	-0.000114
1012	1.0059e+02	-0.2807	-1.958011	0.000233	2.332185	0.790166	-0.000093
1013	1.0069e+02	-0.3144	-2.111422	0.000385	3.853176	1.305491	-0.000154
1014	1.0079e+02	-0.3513	-2.264833	0.000385	3.853176	1.305491	-0.000154
1015	1.0089e+02	-0.3962	-2.357687	0.000233	2.332185	0.790166	-0.000093
1016	1.0099e+02	-0.4347	-2.559544	0.000507	5.069968	1.717752	-0.000203
1017	1.0109e+02	-0.4749	-2.680658	0.000304	3.041981	1.030651	-0.000122
1018	1.0119e+02	-0.5166	-2.781587	0.000253	2.534984	0.858876	-0.000101
1019	1.0129e+02	-0.5551	-2.914812	0.000335	3.346179	1.133716	-0.000134
1020	1.0139e+02	-0.5984	-3.060149	0.000365	3.650377	1.236781	-0.000146
1021	1.0149e+02	-0.6353	-3.209523	0.000375	3.751776	1.271136	-0.000150
1022	1.0159e+02	-0.6706	-3.371008	0.000406	4.055974	1.374201	-0.000162
1023	1.0169e+02	-0.7171	-3.512308	0.000355	3.548978	1.202426	-0.000142
1024	1.0179e+02	-0.7460	-3.653608	0.000355	3.548978	1.202426	-0.000142
1025	1.0189e+02	-0.7893	-3.811056	0.000395	3.954575	1.339846	-0.000158
1026	1.0199e+02	-0.8230	-3.924096	0.000284	2.839182	0.961941	-0.000114
1027	1.0209e+02	-0.8743	-4.049247	0.000314	3.143380	1.065006	-0.000126
1028	1.0219e+02	-0.9160	-4.210733	0.000406	4.055974	1.374201	-0.000162
1029	1.0229e+02	-0.9513	-4.307624	0.000243	2.433585	0.824521	-0.000097
1030	1.0239e+02	-0.9930	-4.452961	0.000365	3.650377	1.236781	-0.000146
1031	1.0248e+02	-1.0395	-4.553889	0.000253	2.534984	0.858876	-0.000101
1032	1.0258e+02	-1.0732	-4.691152	0.000345	3.447578	1.168071	-0.000138
1033	1.0268e+02	-1.1101	-4.816303	0.000314	3.143380	1.065006	-0.000126
1034	1.0278e+02	-1.1534	-4.933380	0.000294	2.940581	0.996296	-0.000118
1035	1.0288e+02	-1.2000	-5.058531	0.000314	3.143380	1.065006	-0.000126
1036	1.0298e+02	-1.2337	-5.207905	0.000375	3.751776	1.271136	-0.000150
1037	1.0308e+02	-1.2673	-5.349205	0.000355	3.548978	1.202426	-0.000142
1038	1.0318e+02	-1.3091	-5.462245	0.000284	2.839182	0.961941	-0.000114
1039	1.0328e+02	-1.3524	-5.595470	0.000335	3.346179	1.133716	-0.000134
1040	1.0338e+02	-1.3957	-5.769067	0.000436	4.360172	1.477266	-0.000174
1041	1.0348e+02	-1.4342	-5.869995	0.000253	2.534984	0.858876	-0.000101
1042	1.0358e+02	-1.4679	-6.051666	0.000456	4.562971	1.545976	-0.000183
1043	1.0368e+02	-1.5096	-6.192966	0.000355	3.548978	1.202426	-0.000142
1044	1.0378e+02	-1.5545	-6.330229	0.000345	3.447578	1.168071	-0.000138
1045	1.0388e+02	-1.5818	-6.475566	0.000365	3.650377	1.236781	-0.000146
1046	1.0398e+02	-1.6299	-6.572457	0.000243	2.433585	0.824521	-0.000097
1047	1.0408e+02	-1.6620	-6.729905	0.000395	3.954575	1.339846	-0.000158
1048	1.0418e+02	-1.7181	-6.810648	0.000203	2.027987	0.687101	-0.000081
1049	1.0428e+02	-1.7502	-6.935799	0.000314	3.143380	1.065006	-0.000126
1050	1.0438e+02	-1.7855	-7.081136	0.000365	3.650377	1.236781	-0.000146
1051	1.0447e+02	-1.8385	-7.186102	0.000264	2.636383	0.893231	-0.000105
1052	1.0457e+02	-1.8705	-7.319327	0.000335	3.346179	1.133716	-0.000134
1053	1.0467e+02	-1.9074	-7.440441	0.000304	3.041981	1.030651	-0.000122
1054	1.0477e+02	-1.9491	-7.581741	0.000355	3.548978	1.202426	-0.000142
1055	1.0487e+02	-1.9909	-7.698818	0.000294	2.940581	0.996296	-0.000118
1056	1.0497e+02	-2.0390	-7.840118	0.000355	3.548978	1.202426	-0.000142
1057	1.0507e+02	-2.0759	-7.977380	0.000345	3.447578	1.168071	-0.000138
1058	1.0517e+02	-2.1096	-8.062160	0.000213	2.129387	0.721456	-0.000085
1059	1.0527e+02	-2.1449	-8.235757	0.000436	4.360172	1.477266	-0.000174
1060	1.0537e+02	-2.1866	-8.348797	0.000284	2.839182	0.961941	-0.000114
1061	1.0547e+02	-2.2315	-8.526431	0.000446	4.461572	1.511621	-0.000179
1062	1.0557e+02	-2.2700	-8.655619	0.000324	3.244779	1.099361	-0.000130
1063	1.0567e+02	-2.3053	-8.813067	0.000395	3.954575	1.339846	-0.000158
1064	1.0577e+02	-2.3470	-8.934181	0.000304	3.041981	1.030651	-0.000122
1065	1.0587e+02	-2.3855	-9.071444	0.000345	3.447578	1.168071	-0.000138
1066	1.0597e+02	-2.4304	-9.216781	0.000365	3.650377	1.236781	-0.000146
1067	1.0607e+02	-2.4609	-9.297524	0.000203	2.027987	0.687101	-0.000081
1068	1.0617e+02	-2.5138	-9.426712	0.000324	3.244779	1.099361	-0.000130
1069	1.0627e+02	-2.5427	-9.547826	0.000304	3.041981	1.030651	-0.000122
1070	1.0637e+02	-2.5844	-9.644717	0.000243	2.433585	0.824521	-0.000097
1071	1.0647e+02	-2.6133	-9.810240	0.000416	4.157374	1.408556	-0.000166
1072	1.0656e+02	-2.6598	-9.947502	0.000345	3.447578	1.168071	-0.000138
1073	1.0666e+02	-2.7095	-10.092839	0.000365	3.650377	1.236781	-0.000146
1074	1.0676e+02	-2.7497	-10.181656	0.000223	2.230786	0.755811	-0.000089
1075	1.0686e+02	-2.7833	-10.322956	0.000355	3.548978	1.202426	-0.000142
1076	1.0696e+02	-2.8251	-10.448107	0.000314	3.143380	1.065006	-0.000126
1077	1.0706e+02	-2.8555	-10.609593	0.000406	4.055974	1.374201	-0.000162
1078	1.0716e+02	-2.9069	-10.726670	0.000294	2.940581	0.996296	-0.000118
1079	1.0726e+02	-2.9422	-10.872007	0.000365	3.650377	1.236781	-0.000146
1080	1.0736e+02	-2.9839	-11.041566	0.000426	4.258773	1.442911	-0.000170
1081	1.0746e+02	-3.0176	-11.158643	0.000294	2.940581	0.996296	-0.000118
1082	1.0756e+02	-3.0721	-11.344351	0.000466	4.664371	1.580332	-0.000187
1083	1.0766e+02	-3.1010	-11.437206	0.000233	2.332185	0.790166	-0.000093
1084	1.0776e+02	-3.1411	-11.574468	0.000345	3.447578	1.168071	-0.000138
1085	1.0786e+02	-3.1860	-11.655211	0.000203	2.027987	0.687101	-0.000081
1086	1.0796e+02	-3.2277	-11.764214	0.000274	2.737783	0.927586	-0.000110
1087	1.0806e+02	-3.2678	-11.929736	0.000416	4.157374	1.408556	-0.000166
1088	1.0816e+02	-3.3063	-12.034702	0.000264	2.636383	0.893231	-0.000105
1089	1.0826e+02	-3.3400	-12.171964	0.000345	3.447578	1.168071	-0.000138
1090	1.0836e+02	-3.3785	-12.333450	0.000406	4.055974	1.374201	-0.000162
1091	1.0845e+02	-3.4218	-12.442452	0.000274	2.737783	0.927586	-0.000110
1092	1.0855e+02	-3.4539	-12.571641	0.000324	3.244779	1.099361	-0.000130
1093	1.0865e+02	-3.4988	-12.725052	0.000385	3.853176	1.305491	-0.000154
1094	1.0875e+02	-3.5438	-12.870389	0.000365	3.650377	1.236781	-0.000146
1095	1.0885e+02	-3.5774	-12.995540	0.000314	3.143380	1.065006	-0.000126
1096	1.0895e+02	-3.6143	-13.116654	0.000304	3.041981	1.030651	-0.000122
1097	1.0905e+02	-3.6625	-13.266028	0.000375	3.751776	1.271136	-0.000150
1098	1.0915e+02	-3.6881	-13.439625	0.000436	4.360172	1.477266	-0.000174
1099	1.0925e+02	-3.7523	-13.552665	0.000284	2.839182	0.961941	-0.000114
1100	1.0935e+02	-3.7828	-13.693964	0.000355	3.548978	1.202426	-0.000142
1101	1.0945e+02	-3.8117	-13.827190	0.000335	3.346179	1.133716	-0.000134
1102	1.0955e+02	-3.8582	-13.984638	0.000395	3.954575	1.339846	-0.000158
1103	1.0965e+02	-3.9015	-14.121901	0.000345	3.447578	1.168071	-0.000138
1104	1.0975e+02	-3.9400	-14.198606	0.000193	1.926588	0.652746	-0.000077
1105	1.0985e+02	-3.9801	-14.319720	0.000304	3.041981	1.030651	-0.000122
1106	1.0995e+02	-4.0234	-14.420649	0.000253	2.534984	0.858876	-0.000101
1107	1.1005e+02	-4.0587	-14.545800	0.000314	3.143380	1.065006	-0.000126
1108	1.1015e+02	-4.0988	-14.743620	0.000497	4.968569	1.683397	-0.000199
1109	1.1025e+02	-4.1389	-14.828400	0.000213	2.129387	0.721456	-0.000085
1110	1.1035e+02	-4.1887	-14.977774	0.000375	3.751776	1.271136	-0.000150
1111	1.1044e+02	-4.2207	-15.110999	0.000335	3.346179	1.133716	-0.000134
1112	1.1054e+02	-4.2576	-15.244225	0.000335	3.346179	1.133716	-0.000134
1113	1.1064e+02	-4.2913	-15.341116	0.000243	2.433585	0.824521	-0.000097
1114	1.1074e+02	-4.3427	-15.534898	0.000487	4.867169	1.649042	-0.000195
1115	1.1084e+02	-4.3731	-15.664087	0.000324	3.244779	1.099361	-0.000130
1116	1.1094e+02	-4.4165	-15.777126	0.000284	2.839182	0.961941	-0.000114
1117	1.1104e+02	-4.4550	-15.950723	0.000436	4.360172	1.477266	-0.000174
1118	1.1114e+02	-4.4967	-16.092023	0.000355	3.548978	1.202426	-0.000142
1119	1.1124e+02	-4.5368	-16.213137	0.000304	3.041981	1.030651	-0.000122
1120	1.1134e+02	-4.5753	-16.350400	0.000345	3.447578	1.168071	-0.000138
1121	1.1144e+02	-4.6186	-16.499774	0.000375	3.751776	1.271136	-0.000150
1122	1.1154e+02	-4.6571	-16.588591	0.000223	2.230786	0.755811	-0.000089
1123	1.1164e+02	-4.6988	-16.717779	0.000324	3.244779	1.099361	-0.000130
1124	1.1174e+02	-4.7293	-16.851005	0.000335	3.346179	1.133716	-0.000134
1125	1.1184e+02	-4.7758	-16.976156	0.000314	3.143380	1.065006	-0.000126
1126	1.1194e+02	-4.8207	-17.101307	0.000314	3.143380	1.065006	-0.000126
1127	1.1204e+02	-4.8544	-17.214347	0.000284	2.839182	0.961941	-0.000114
1128	1.1214e+02	-4.8945	-17.387944	0.000436	4.360172	1.477266	-0.000174
1129	1.1224e+02	-4.9282	-17.492909	0.000264	2.636383	0.893231	-0.000105
1130	1.1234e+02	-4.9844	-17.646320	0.000385	3.853176	1.305491	-0.000154
1131	1.1244e+02	-5.0229	-17.747249	0.000253	2.534984	0.858876	-0.000101
1132	1.1253e+02	-5.0565	-17.912771	0.000416	4.157374	1.408556	-0.000166
1133	1.1263e+02	-5.0870	-18.029848	0.000294	2.940581	0.996296	-0.000118
1134	1.1273e+02	-5.1335	-18.199408	0.000426	4.258773	1.442911	-0.000170
1135	1.1283e+02	-5.1688	-18.348782	0.000375	3.751776	1.271136	-0.000150
1136	1.1293e+02	-5.2138	-18.490082	0.000355	3.548978	1.202426	-0.000142
1137	1.1303e+02	-5.2539	-18.607159	0.000294	2.940581	0.996296	-0.000118
1138	1.1313e+02	-5.2924	-18.800941	0.000487	4.867169	1.649042	-0.000195
1139	1.1323e+02	-5.3309	-18.901870	0.000253	2.534984	0.858876	-0.000101
1140	1.1333e+02	-5.3710	-19.010872	0.000274	2.737783	0.927586	-0.000110
1141	1.1343e+02	-5.4159	-19.127949	0.000294	2.940581	0.996296	-0.000118
1142	1.1353e+02	-5.4448	-19.232915	0.000264	2.636383	0.893231	-0.000105
1143	1.1363e+02	-5.4929	-19.370177	0.000345	3.447578	1.168071	-0.000138
1144	1.1373e+02	-5.5298	-19.475143	0.000264	2.636383	0.893231	-0.000105
1145	1.1383e+02	-5.5779	-19.608368	0.000335	3.346179	1.133716	-0.000134
1146	1.1393e+02	-5.6116	-19.761779	0.000385	3.853176	1.305491	-0.000154
1147	1.1403e+02	-5.6565	-19.870782	0.000274	2.737783	0.927586	-0.000110
1148	1.1413e+02	-5.6950	-20.032268	0.000406	4.055974	1.374201	-0.000162
1149	1.1423e+02	-5.7335	-20.205864	0.000436	4.360172	1.477266	-0.000174
1150	1.1433e+02	-5.7752	-20.314867	0.000274	2.737783	0.927586	-0.000110
1151	1.1442e+02	-5.8169	-20.435981	0.000304	3.041981	1.030651	-0.000122
1152	1.1452e+02	-5.8571	-20.573244	0.000345	3.447578	1.168071	-0.000138
1153	1.1462e+02	-5.8891	-20.686284	0.000284	2.839182	0.961941	-0.000114
1154	1.1472e+02	-5.9357	-20.880066	0.000487	4.867169	1.649042	-0.000195
1155	1.1482e+02	-5.9710	-21.009254	0.000324	3.244779	1.099361	-0.000130
1156	1.1492e+02	-6.0159	-21.146517	0.000345	3.447578	1.168071	-0.000138
1157	1.1502e+02	-6.0512	-21.255520	0.000274	2.737783	0.927586	-0.000110
1158	1.1512e+02	-6.0913	-21.368559	0.000284	2.839182	0.961941	-0.000114
1159	1.1522e+02	-6.1362	-21.501785	0.000335	3.346179	1.133716	-0.000134
1160	1.1532e+02	-6.1747	-21.626936	0.000314	3.143380	1.065006	-0.000126
1161	1.1542e+02	-6.2212	-21.723827	0.000243	2.433585	0.824521	-0.000097
1162	1.1552e+02	-6.2501	-21.844941	0.000304	3.041981	1.030651	-0.000122
1163	1.1562e+02	-6.2918	-21.970093	0.000314	3.143380	1.065006	-0.000126
1164	1.1572e+02	-6.3335	-22.103318	0.000335	3.346179	1.133716	-0.000134
1165	1.1582e+02	-6.3656	-22.228469	0.000314	3.143380	1.065006	-0.000126
1166	1.1592e+02	-6.4121	-22.345546	0.000294	2.940581	0.996296	-0.000118
1167	1.1602e+02	-6.4506	-22.470698	0.000314	3.143380	1.065006	-0.000126
1168	1.1612e+02	-6.4747	-22.611997	0.000355	3.548978	1.202426	-0.000142
1169	1.1622e+02	-6.5276	-22.708889	0.000243	2.433585	0.824521	-0.000097
1170	1.1632e+02	-6.5613	-22.862300	0.000385	3.853176	1.305491	-0.000154
1171	1.1642e+02	-6.6175	-22.999562	0.000345	3.447578	1.168071	-0.000138
1172	1.1651e+02	-6.6431	-23.169122	0.000426	4.258773	1.442911	-0.000170
1173	1.1661e+02	-6.6800	-23.274088	0.000264	2.636383	0.893231	-0.000105
1174	1.1671e+02	-6.7265	-23.423462	0.000375	3.751776	1.271136	-0.000150
1175	1.1681e+02	-6.7667	-23.540538	0.000294	2.940581	0.996296	-0.000118
1176	1.1691e+02	-6.8084	-23.669727	0.000324	3.244779	1.099361	-0.000130
1177	1.1701e+02	-6.8437	-23.766618	0.000243	2.433585	0.824521	-0.000097
1178	1.1711e+02	-6.8870	-23.883695	0.000294	2.940581	0.996296	-0.000118
1179	1.1721e+02	-6.9239	-24.012883	0.000324	3.244779	1.099361	-0.000130
1180	1.1731e+02	-6.9608	-24.109775	0.000243	2.433585	0.824521	-0.000097
1181	1.1741e+02	-7.0057	-24.210703	0.000253	2.534984	0.858876	-0.000101
1182	1.1751e+02	-7.0490	-24.364114	0.000385	3.853176	1.305491	-0.000154
1183	1.1761e+02	-7.0811	-24.485228	0.000304	3.041981	1.030651	-0.000122
1184	1.1771e+02	-7.1292	-24.634602	0.000375	3.751776	1.271136	-0.000150
1185	1.1781e+02	-7.1645	-24.735531	0.000253	2.534984	0.858876	-0.000101
1186	1.1791e+02	-7.2062	-24.872793	0.000345	3.447578	1.168071	-0.000138
1187	1.1801e+02	-7.2511	-24.985833	0.000284	2.839182	0.961941	-0.000114
1188	1.1811e+02	-7.2880	-25.135207	0.000375	3.751776	1.271136	-0.000150
1189	1.1821e+02	-7.3265	-25.260358	0.000314	3.143380	1.065006	-0.000126
1190	1.1831e+02	-7.3554	-25.357250	0.000243	2.433585	0.824521	-0.000097
1191	1.1841e+02	-7.4083	-25.526809	0.000426	4.258773	1.442911	-0.000170
1192	1.1850e+02	-7.4485	-25.643886	0.000294	2.940581	0.996296	-0.000118
1193	1.1860e+02	-7.4870	-25.773075	0.000324	3.244779	1.099361	-0.000130
1194	1.1870e+02	-7.5174	-25.926486	0.000385	3.853176	1.305491	-0.000154
1195	1.1880e+02	-7.5607	-26.023377	0.000243	2.433585	0.824521	-0.000097
1196	1.1890e+02	-7.6057	-26.104120	0.000203	2.027987	0.687101	-0.000081
1197	1.1900e+02	-7.6426	-26.201011	0.000243	2.433585	0.824521	-0.000097
1198	1.1910e+02	-7.6827	-26.342311	0.000355	3.548978	1.202426	-0.000142
1199	1.1920e+02	-7.7244	-26.443239	0.000253	2.534984	0.858876	-0.000101
1200	1.1930e+02	-7.7613	-26.528019	0.000213	2.129387	0.721456	-0.000085
1201	1.1940e+02	-7.8046	-26.673356	0.000365	3.650377	1.236781	-0.000146
1202	1.1950e+02	-7.8527	-26.846953	0.000436	4.360172	1.477266	-0.000174
1203	1.1960e+02	-7.8752	-26.927695	0.000203	2.027987	0.687101	-0.000081
1204	1.1970e+02	-7.9265	-27.028624	0.000253	2.534984	0.858876	-0.000101
1205	1.1980e+02	-7.9634	-27.182035	0.000385	3.853176	1.305491	-0.000154
1206	1.1990e+02	-8.0035	-27.278926	0.000243	2.433585	0.824521	-0.000097
1207	1.2000e+02	-8.0404	-27.432337	0.000385	3.853176	1.305491	-0.000154
1208	1.2010e+02	-8.0805	-27.533266	0.000253	2.534984	0.858876	-0.000101
1209	1.2020e+02	-8.1094	-27.682640	0.000375	3.751776	1.271136	-0.000150
1210	1.2030e+02	-8.1639	-27.852199	0.000426	4.258773	1.442911	-0.000170
1211	1.2039e+02	-8.1992	-27.957165	0.000264	2.636383	0.893231	-0.000105
1212	1.2049e+02	-8.2361	-28.086353	0.000324	3.244779	1.099361	-0.000130
1213	1.2059e+02	-8.2843	-28.146910	0.000152	1.520990	0.515325	-0.000061
1214	1.2069e+02	-8.3179	-28.292247	0.000365	3.650377	1.236781	-0.000146
1215	1.2079e+02	-8.3613	-28.377027	0.000213	2.129387	0.721456	-0.000085
1216	1.2089e+02	-8.3917	-28.490067	0.000284	2.839182	0.961941	-0.000114
1217	1.2099e+02	-8.4415	-28.574847	0.000213	2.129387	0.721456	-0.000085
1218	1.2109e+02	-8.4752	-28.736332	0.000406	4.055974	1.374201	-0.000162
1219	1.2119e+02	-8.5169	-28.829186	0.000233	2.332185	0.790166	-0.000093
1220	1.2129e+02	-8.5522	-28.954338	0.000314	3.143380	1.065006	-0.000126
1221	1.2139e+02	-8.6099	-29.091600	0.000345	3.447578	1.168071	-0.000138
1222	1.2149e+02	-8.6420	-29.180417	0.000223	2.230786	0.755811	-0.000089
1223	1.2159e+02	-8.6789	-29.285383	0.000264	2.636383	0.893231	-0.000105
1224	1.2169e+02	-8.7254	-29.434757	0.000375	3.751776	1.271136	-0.000150
1225	1.2179e+02	-8.7623	-29.563945	0.000324	3.244779	1.099361	-0.000130
1226	1.2189e+02	-8.7976	-29.697170	0.000335	3.346179	1.133716	-0.000134
1227	1.2199e+02	-8.8393	-29.814247	0.000294	2.940581	0.996296	-0.000118
1228	1.2209e+02	-8.8698	-29.963621	0.000375	3.751776	1.271136	-0.000150
1229	1.2219e+02	-8.9147	-30.072624	0.000274	2.737783	0.927586	-0.000110
1230	1.2229e+02	-8.9548	-30.157404	0.000213	2.129387	0.721456	-0.000085
1231	1.2239e+02	-8.9933	-30.278518	0.000304	3.041981	1.030651	-0.000122
1232	1.2248e+02	-9.0366	-30.383484	0.000264	2.636383	0.893231	-0.000105
1233	1.2258e+02	-9.0816	-30.536895	0.000385	3.853176	1.305491	-0.000154
1234	1.2268e+02	-9.1217	-30.605526	0.000172	1.723789	0.584036	-0.000069
1235	1.2278e+02	-9.1586	-30.674157	0.000172	1.723789	0.584036	-0.000069
1236	1.2288e+02	-9.1890	-30.795271	0.000304	3.041981	1.030651	-0.000122
1237	1.2298e+02	-9.2388	-30.952720	0.000395	3.954575	1.339846	-0.000158
1238	1.2308e+02	-9.2869	-31.013277	0.000152	1.520990	0.515325	-0.000061
1239	1.2318e+02	-9.3190	-31.166688	0.000385	3.853176	1.305491	-0.000154
1240	1.2328e+02	-9.3591	-31.279728	0.000284	2.839182	0.961941	-0.000114
1241	1.2338e+02	-9.3944	-31.416990	0.000345	3.447578	1.168071	-0.000138
1242	1.2348e+02	-9.4441	-31.542142	0.000314	3.143380	1.065006	-0.000126
1243	1.2358e+02	-9.4762	-31.647107	0.000264	2.636383	0.893231	-0.000105
1244	1.2368e+02	-9.5083	-31.772258	0.000314	3.143380	1.065006	-0.000126
1245	1.2378e+02	-9.5692	-31.925669	0.000385	3.853176	1.305491	-0.000154
1246	1.2388e+02	-9.5917	-31.994301	0.000172	1.723789	0.584036	-0.000069
1247	1.2398e+02	-9.6222	-32.163860	0.000426	4.258773	1.442911	-0.000170
1248	1.2408e+02	-9.6687	-32.297086	0.000335	3.346179	1.133716	-0.000134
1249	1.2418e+02	-9.7152	-32.414163	0.000294	2.940581	0.996296	-0.000118
1250	1.2428e+02	-9.7553	-32.523166	0.000274	2.737783	0.927586	-0.000110
1251	1.2438e+02	-9.8019	-32.628131	0.000264	2.636383	0.893231	-0.000105
1252	1.2447e+02	-9.8323	-32.753282	0.000314	3.143380	1.065006	-0.000126
1253	1.2457e+02	-9.8757	-32.850174	0.000243	2.433585	0.824521	-0.000097
1254	1.2467e+02	-9.9174	-32.983399	0.000335	3.346179	1.133716	-0.000134
1255	1.2477e+02	-9.9527	-33.084327	0.000253	2.534984	0.858876	-0.000101
1256	1.2487e+02	-9.9944	-33.140847	0.000142	1.419591	0.480970	-0.000057
1257	1.2497e+02	-10.0377	-33.322518	0.000456	4.562971	1.545976	-0.000183
1258	1.2507e+02	-10.0778	-33.455744	0.000335	3.346179	1.133716	-0.000134
1259	1.2517e+02	-10.1211	-33.512264	0.000142	1.419591	0.480970	-0.000057
1260	1.2527e+02	-10.1532	-33.645489	0.000335	3.346179	1.133716	-0.000134
1261	1.2537e+02	-10.1981	-33.794863	0.000375	3.751776	1.271136	-0.000150
1262	1.2547e+02	-10.2350	-33.879643	0.000213	2.129387	0.721456	-0.000085
1263	1.2557e+02	-10.2735	-34.008831	0.000324	3.244779	1.099361	-0.000130
1264	1.2567e+02	-10.3104	-34.182428	0.000436	4.360172	1.477266	-0.000174
1265	1.2577e+02	-10.3521	-34.291431	0.000274	2.737783	0.927586	-0.000110
1266	1.2587e+02	-10.3970	-34.388322	0.000243	2.433585	0.824521	-0.000097
1267	1.2597e+02	-10.4371	-34.529622	0.000355	3.548978	1.202426	-0.000142
1268	1.2607e+02	-10.4708	-34.687070	0.000395	3.954575	1.339846	-0.000158
1269	1.2617e+02	-10.5093	-34.787999	0.000253	2.534984	0.858876	-0.000101
1270	1.2627e+02	-10.5462	-34.917187	0.000324	3.244779	1.099361	-0.000130
1271	1.2636e+02	-10.5976	-35.006004	0.000223	2.230786	0.755811	-0.000089
1272	1.2646e+02	-10.6232	-35.062524	0.000142	1.419591	0.480970	-0.000057
1273	1.2656e+02	-10.6665	-35.207861	0.000365	3.650377	1.236781	-0.000146
1274	1.2666e+02	-10.7147	-35.308789	0.000253	2.534984	0.858876	-0.000101
1275	1.2676e+02	-10.7500	-35.425866	0.000294	2.940581	0.996296	-0.000118
1276	1.2686e+02	-10.8061	-35.555054	0.000324	3.244779	1.099361	-0.000130
1277	1.2696e+02	-10.8366	-35.660020	0.000264	2.636383	0.893231	-0.000105
1278	1.2706e+02	-10.8783	-35.781134	0.000304	3.041981	1.030651	-0.000122
1279	1.2716e+02	-10.9152	-35.918397	0.000345	3.447578	1.168071	-0.000138
1280	1.2726e+02	-10.9553	-36.063734	0.000365	3.650377	1.236781	-0.000146
1281	1.2736e+02	-10.9922	-36.164662	0.000253	2.534984	0.858876	-0.000101
1282	1.2746e+02	-11.0339	-36.318073	0.000385	3.853176	1.305491	-0.000154
1283	1.2756e+02	-11.0676	-36.435150	0.000294	2.940581	0.996296	-0.000118
1284	1.2766e+02	-11.1125	-36.556264	0.000304	3.041981	1.030651	-0.000122
1285	1.2776e+02	-11.1446	-36.641044	0.000213	2.129387	0.721456	-0.000085
1286	1.2786e+02	-11.1847	-36.790418	0.000375	3.751776	1.271136	-0.000150
1287	1.2796e+02	-11.2312	-36.927681	0.000345	3.447578	1.168071	-0.000138
1288	1.2806e+02	-11.2713	-37.016498	0.000223	2.230786	0.755811	-0.000089
1289	1.2816e+02	-11.3130	-37.125500	0.000274	2.737783	0.927586	-0.000110
1290	1.2826e+02	-11.3387	-37.278911	0.000385	3.853176	1.305491	-0.000154
1291	1.2835e+02	-11.3836	-37.355617	0.000193	1.926588	0.652746	-0.000077
1292	1.2845e+02	-11.4366	-37.428285	0.000183	1.825188	0.618391	-0.000073
1293	1.2855e+02	-11.4671	-37.517102	0.000223	2.230786	0.755811	-0.000089
1294	1.2865e+02	-11.5120	-37.698774	0.000456	4.562971	1.545976	-0.000183
1295	1.2875e+02	-11.5473	-37.831999	0.000335	3.346179	1.133716	-0.000134
1296	1.2885e+02	-11.5938	-37.900630	0.000172	1.723789	0.584036	-0.000069
1297	1.2895e+02	-11.6307	-38.021744	0.000304	3.041981	1.030651	-0.000122
1298	1.2905e+02	-11.6676	-38.183230	0.000406	4.055974	1.374201	-0.000162
1299	1.2915e+02	-11.6949	-38.324530	0.000355	3.548978	1.202426	-0.000142
1300	1.2925e+02	-11.7398	-38.437569	0.000284	2.839182	0.961941	-0.000114
1301	1.2935e+02	-11.7815	-38.550609	0.000284	2.839182	0.961941	-0.000114
1302	1.2945e+02	-11.8264	-38.732280	0.000456	4.562971	1.545976	-0.000183
1303	1.2955e+02	-11.8633	-38.800912	0.000172	1.723789	0.584036	-0.000069
1304	1.2965e+02	-11.9066	-38.930100	0.000324	3.244779	1.099361	-0.000130
1305	1.2975e+02	-11.9531	-39.026991	0.000243	2.433585	0.824521	-0.000097
1306	1.2985e+02	-11.9868	-39.135994	0.000274	2.737783	0.927586	-0.000110
1307	1.2995e+02	-12.0237	-39.293442	0.000395	3.954575	1.339846	-0.000158
1308	1.3005e+02	-12.0670	-39.374185	0.000203	2.027987	0.687101	-0.000081
1309	1.3015e+02	-12.1039	-39.463002	0.000223	2.230786	0.755811	-0.000089
1310	1.3025e+02	-12.1473	-39.604302	0.000355	3.548978	1.202426	-0.000142
1311	1.3034e+02	-12.1809	-39.701193	0.000243	2.433585	0.824521	-0.000097
1312	1.3044e+02	-12.2275	-39.781936	0.000203	2.027987	0.687101	-0.000081
1313	1.3054e+02	-12.2676	-39.939384	0.000395	3.954575	1.339846	-0.000158
1314	1.3064e+02	-12.3077	-40.040312	0.000253	2.534984	0.858876	-0.000101
1315	1.3074e+02	-12.3414	-40.217946	0.000446	4.461572	1.511621	-0.000179
1316	1.3084e+02	-12.3847	-40.322912	0.000264	2.636383	0.893231	-0.000105
1317	1.3094e+02	-12.4280	-40.464212	0.000355	3.548978	1.202426	-0.000142
1318	1.3104e+02	-12.4649	-40.557066	0.000233	2.332185	0.790166	-0.000093
1319	1.3114e+02	-12.5066	-40.714514	0.000395	3.954575	1.339846	-0.000158
1320	1.3124e+02	-12.5531	-40.795257	0.000203	2.027987	0.687101	-0.000081
1321	1.3134e+02	-12.5724	-40.908296	0.000284	2.839182	0.961941	-0.000114
1322	1.3144e+02	-12.6205	-41.029411	0.000304	3.041981	1.030651	-0.000122
1323	1.3154e+02	-12.6510	-41.138413	0.000274	2.737783	0.927586	-0.000110
1324	1.3164e+02	-12.7087	-41.263564	0.000314	3.143380	1.065006	-0.000126
1325	1.3174e+02	-12.7440	-41.368530	0.000264	2.636383	0.893231	-0.000105
1326	1.3184e+02	-12.7857	-41.469458	0.000253	2.534984	0.858876	-0.000101
1327	1.3194e+02	-12.8114	-41.558275	0.000223	2.230786	0.755811	-0.000089
1328	1.3204e+02	-12.8627	-41.683426	0.000314	3.143380	1.065006	-0.000126
1329	1.3214e+02	-12.8996	-41.776281	0.000233	2.332185	0.790166	-0.000093
1330	1.3224e+02	-12.9542	-41.852986	0.000193	1.926588	0.652746	-0.000077
1331	1.3234e+02	-12.9798	-42.018509	0.000416	4.157374	1.408556	-0.000166
1332	1.3243e+02	-13.0296	-42.127511	0.000274	2.737783	0.927586	-0.000110
1333	1.3253e+02	-13.0536	-42.224403	0.000243	2.433585	0.824521	-0.000097
1334	1.3263e+02	-13.0921	-42.369740	0.000365	3.650377	1.236781	-0.000146
1335	1.3273e+02	-13.1451	-42.494891	0.000314	3.143380	1.065006	-0.000126
1336	1.3283e+02	-13.1852	-42.591782	0.000243	2.433585	0.824521	-0.000097
1337	1.3293e+02	-13.2205	-42.741156	0.000375	3.751776	1.271136	-0.000150
1338	1.3303e+02	-13.2622	-42.862270	0.000304	3.041981	1.030651	-0.000122
1339	1.3313e+02	-13.3055	-42.979347	0.000294	2.940581	0.996296	-0.000118
1340	1.3323e+02	-13.3376	-43.056053	0.000193	1.926588	0.652746	-0.000077
1341	1.3333e+02	-13.3841	-43.205427	0.000375	3.751776	1.271136	-0.000150
1342	1.3343e+02	-13.4178	-43.282132	0.000193	1.926588	0.652746	-0.000077
1343	1.3353e+02	-13.4611	-43.423432	0.000355	3.548978	1.202426	-0.000142
1344	1.3363e+02	-13.4980	-43.488026	0.000162	1.622390	0.549681	-0.000065
1345	1.3373e+02	-13.5413	-43.556657	0.000172	1.723789	0.584036	-0.000069
1346	1.3383e+02	-13.5782	-43.685846	0.000324	3.244779	1.099361	-0.000130
1347	1.3393e+02	-13.6087	-43.815034	0.000324	3.244779	1.099361	-0.000130
1348	1.3403e+02	-13.6633	-43.883665	0.000172	1.723789	0.584036	-0.000069
1349	1.3413e+02	-13.7050	-44.008817	0.000314	3.143380	1.065006	-0.000126
1350	1.3423e+02	-13.7451	-44.121856	0.000284	2.839182	0.961941	-0.000114
1351	1.3432e+02	-13.7772	-44.303528	0.000456	4.562971	1.545976	-0.000183
1352	1.3442e+02	-13.8173	-44.347936	0.000112	1.115393	0.377905	-0.000045
1353	1.3452e+02	-13.8590	-44.513459	0.000416	4.157374	1.408556	-0.000166
1354	1.3462e+02	-13.8927	-44.610350	0.000243	2.433585	0.824521	-0.000097
1355	1.3472e+02	-13.9456	-44.707241	0.000243	2.433585	0.824521	-0.000097
1356	1.3482e+02	-13.9793	-44.868727	0.000406	4.055974	1.374201	-0.000162
1357	1.3492e+02	-14.0162	-44.933321	0.000162	1.622390	0.549681	-0.000065
1358	1.3502e+02	-14.0611	-45.106918	0.000436	4.360172	1.477266	-0.000174
1359	1.3512e+02	-14.0964	-45.203809	0.000243	2.433585	0.824521	-0.000097
1360	1.3522e+02	-14.1301	-45.288589	0.000213	2.129387	0.721456	-0.000085
1361	1.3532e+02	-14.1814	-45.425851	0.000345	3.447578	1.168071	-0.000138
1362	1.3542e+02	-14.2263	-45.490445	0.000162	1.622390	0.549681	-0.000065
1363	1.3552e+02	-14.2536	-45.567151	0.000193	1.926588	0.652746	-0.000077
1364	1.3562e+02	-14.3001	-45.664042	0.000243	2.433585	0.824521	-0.000097
1365	1.3572e+02	-14.3322	-45.805342	0.000355	3.548978	1.202426	-0.000142
1366	1.3582e+02	-14.3803	-45.890122	0.000213	2.129387	0.721456	-0.000085
1367	1.3592e+02	-14.4156	-45.970865	0.000203	2.027987	0.687101	-0.000081
1368	1.3602e+02	-14.4622	-46.083904	0.000284	2.839182	0.961941	-0.000114
1369	1.3612e+02	-14.4926	-46.200981	0.000294	2.940581	0.996296	-0.000118
1370	1.3622e+02	-14.5360	-46.350355	0.000375	3.751776	1.271136	-0.000150
1371	1.3631e+02	-14.5712	-46.467432	0.000294	2.940581	0.996296	-0.000118
1372	1.3641e+02	-14.6097	-46.604695	0.000345	3.447578	1.168071	-0.000138
1373	1.3651e+02	-14.6547	-46.685438	0.000203	2.027987	0.687101	-0.000081
1374	1.3661e+02	-14.6851	-46.818663	0.000335	3.346179	1.133716	-0.000134
1375	1.3671e+02	-14.7365	-46.911517	0.000233	2.332185	0.790166	-0.000093
1376	1.3681e+02	-14.7782	-47.008409	0.000243	2.433585	0.824521	-0.000097
1377	1.3691e+02	-14.8231	-47.121448	0.000284	2.839182	0.961941	-0.000114
1378	1.3701e+02	-14.8488	-47.218340	0.000243	2.433585	0.824521	-0.000097
1379	1.3711e+02	-14.8969	-47.347528	0.000324	3.244779	1.099361	-0.000130
1380	1.3721e+02	-14.9306	-47.428271	0.000203	2.027987	0.687101	-0.000081
1381	1.3731e+02	-14.9755	-47.521125	0.000233	2.332185	0.790166	-0.000093
1382	1.3741e+02	-15.0092	-47.618016	0.000243	2.433585	0.824521	-0.000097
1383	1.3751e+02	-15.0557	-47.743167	0.000314	3.143380	1.065006	-0.000126
1384	1.3761e+02	-15.0942	-47.807761	0.000162	1.622390	0.549681	-0.000065
1385	1.3771e+02	-15.1343	-47.908690	0.000253	2.534984	0.858876	-0.000101
1386	1.3781e+02	-15.1825	-48.033841	0.000314	3.143380	1.065006	-0.000126
1387	1.3791e+02	-15.2178	-48.090361	0.000142	1.419591	0.480970	-0.000057
1388	1.3801e+02	-15.2418	-48.219549	0.000324	3.244779	1.099361	-0.000130
1389	1.3811e+02	-15.2787	-48.356812	0.000345	3.447578	1.168071	-0.000138
1390	1.3821e+02	-15.3381	-48.502149	0.000365	3.650377	1.236781	-0.000146
1391	1.3831e+02	-15.3782	-48.607114	0.000264	2.636383	0.893231	-0.000105
1392	1.3840e+02	-15.4087	-48.663634	0.000142	1.419591	0.480970	-0.000057
1393	1.3850e+02	-15.4488	-48.776674	0.000284	2.839182	0.961941	-0.000114
1394	1.3860e+02	-15.4953	-48.913937	0.000345	3.447578	1.168071	-0.000138
1395	1.3870e+02	-15.5386	-49.010828	0.000243	2.433585	0.824521	-0.000097
1396	1.3880e+02	-15.5755	-49.115793	0.000264	2.636383	0.893231	-0.000105
1397	1.3890e+02	-15.6124	-49.216722	0.000253	2.534984	0.858876	-0.000101
1398	1.3900e+02	-15.6493	-49.345910	0.000324	3.244779	1.099361	-0.000130
1399	1.3910e+02	-15.6942	-49.446839	0.000253	2.534984	0.858876	-0.000101
1400	1.3920e+02	-15.7215	-49.511433	0.000162	1.622390	0.549681	-0.000065
1401	1.3930e+02	-15.7760	-49.576027	0.000162	1.622390	0.549681	-0.000065
1402	1.3940e+02	-15.8145	-49.676955	0.000253	2.534984	0.858876	-0.000101
1403	1.3950e+02	-15.8578	-49.834404	0.000395	3.954575	1.339846	-0.000158
1404	1.3960e+02	-15.8963	-49.919183	0.000213	2.129387	0.721456	-0.000085
1405	1.3970e+02	-15.9252	-50.024149	0.000264	2.636383	0.893231	-0.000105
1406	1.3980e+02	-15.9589	-50.137189	0.000284	2.839182	0.961941	-0.000114
1407	1.3990e+02	-16.0118	-50.270414	0.000335	3.346179	1.133716	-0.000134
1408	1.4000e+02	-16.0439	-50.411714	0.000355	3.548978	1.202426	-0.000142
1409	1.4010e+02	-16.0872	-50.548977	0.000345	3.447578	1.168071	-0.000138
1410	1.4020e+02	-16.1322	-50.597422	0.000122	1.216792	0.412260	-0.000049
1411	1.4029e+02	-16.1626	-50.722573	0.000314	3.143380	1.065006	-0.000126
1412	1.4039e+02	-16.2076	-50.827539	0.000264	2.636383	0.893231	-0.000105
1413	1.4049e+02	-16.2493	-50.904245	0.000193	1.926588	0.652746	-0.000077
1414	1.4059e+02	-16.2958	-51.049581	0.000365	3.650377	1.236781	-0.000146
1415	1.4069e+02	-16.3279	-51.150510	0.000253	2.534984	0.858876	-0.000101
1416	1.4079e+02	-16.3632	-51.275661	0.000314	3.143380	1.065006	-0.000126
1417	1.4089e+02	-16.4113	-51.356404	0.000203	2.027987	0.687101	-0.000081
1418	1.4099e+02	-16.4434	-51.485592	0.000324	3.244779	1.099361	-0.000130
1419	1.4109e+02	-16.4979	-51.517889	0.000081	0.811195	0.274840	-0.000032
1420	1.4119e+02	-16.5284	-51.651115	0.000335	3.346179	1.133716	-0.000134
1421	1.4129e+02	-16.5605	-51.748006	0.000243	2.433585	0.824521	-0.000097
1422	1.4139e+02	-16.6086	-51.848934	0.000253	2.534984	0.858876	-0.000101
1423	1.4149e+02	-16.6503	-51.974085	0.000314	3.143380	1.065006	-0.000126
1424	1.4159e+02	-16.6840	-52.083088	0.000274	2.737783	0.927586	-0.000110
1425	1.4169e+02	-16.7193	-52.236499	0.000385	3.853176	1.305491	-0.000154
1426	1.4179e+02	-16.7658	-52.329353	0.000233	2.332185	0.790166	-0.000093
1427	1.4189e+02	-16.8011	-52.438356	0.000274	2.737783	0.927586	-0.000110
1428	1.4199e+02	-16.8428	-52.591767	0.000385	3.853176	1.305491	-0.000154
1429	1.4209e+02	-16.8813	-52.716918	0.000314	3.143380	1.065006	-0.000126
1430	1.4219e+02	-16.9247	-52.821884	0.000264	2.636383	0.893231	-0.000105
1431	1.4228e+02	-16.9599	-52.914738	0.000233	2.332185	0.790166	-0.000093
1432	1.4238e+02	-17.0113	-53.088335	0.000436	4.360172	1.477266	-0.000174
1433	1.4248e+02	-17.0402	-53.144855	0.000142	1.419591	0.480970	-0.000057
1434	1.4258e+02	-17.0899	-53.278080	0.000335	3.346179	1.133716	-0.000134
1435	1.4268e+02	-17.1300	-53.407269	0.000324	3.244779	1.099361	-0.000130
1436	1.4278e+02	-17.1637	-53.512234	0.000264	2.636383	0.893231	-0.000105
1437	1.4288e+02	-17.2118	-53.576828	0.000162	1.622390	0.549681	-0.000065
1438	1.4298e+02	-17.2503	-53.697942	0.000304	3.041981	1.030651	-0.000122
1439	1.4308e+02	-17.2904	-53.790797	0.000233	2.332185	0.790166	-0.000093
1440	1.4318e+02	-17.3273	-53.887688	0.000243	2.433585	0.824521	-0.000097
1441	1.4328e+02	-17.3642	-53.996690	0.000274	2.737783	0.927586	-0.000110
1442	1.4338e+02	-17.4043	-54.125879	0.000324	3.244779	1.099361	-0.000130
1443	1.4348e+02	-17.4460	-54.311587	0.000466	4.664371	1.580332	-0.000187
1444	1.4358e+02	-17.4845	-54.392330	0.000203	2.027987	0.687101	-0.000081
1445	1.4368e+02	-17.5246	-54.521518	0.000324	3.244779	1.099361	-0.000130
1446	1.4378e+02	-17.5680	-54.634558	0.000284	2.839182	0.961941	-0.000114
1447	1.4388e+02	-17.6065	-54.771821	0.000345	3.447578	1.168071	-0.000138
1448	1.4398e+02	-17.6385	-54.860638	0.000223	2.230786	0.755811	-0.000089
1449	1.4408e+02	-17.6867	-54.997900	0.000345	3.447578	1.168071	-0.000138
1450	1.4418e+02	-17.7220	-55.074606	0.000193	1.926588	0.652746	-0.000077
1451	1.4428e+02	-17.7573	-55.223980	0.000375	3.751776	1.271136	-0.000150
1452	1.4437e+02	-17.7974	-55.337020	0.000284	2.839182	0.961941	-0.000114
1453	1.4447e+02	-17.8567	-55.470245	0.000335	3.346179	1.133716	-0.000134
1454	1.4457e+02	-17.8936	-55.607508	0.000345	3.447578	1.168071	-0.000138
1455	1.4467e+02	-17.9305	-55.688250	0.000203	2.027987	0.687101	-0.000081
1456	1.4477e+02	-17.9690	-55.793216	0.000264	2.636383	0.893231	-0.000105
1457	1.4487e+02	-17.9931	-55.882033	0.000223	2.230786	0.755811	-0.000089
1458	1.4497e+02	-18.0428	-56.035444	0.000385	3.853176	1.305491	-0.000154
1459	1.4507e+02	-18.0781	-56.144447	0.000274	2.737783	0.927586	-0.000110
1460	1.4517e+02	-18.1198	-56.354378	0.000527	5.272767	1.786462	-0.000211
1461	1.4527e+02	-18.1631	-56.431083	0.000193	1.926588	0.652746	-0.000077
1462	1.4537e+02	-18.2032	-56.568346	0.000345	3.447578	1.168071	-0.000138
1463	1.4547e+02	-18.2337	-56.677349	0.000274	2.737783	0.927586	-0.000110
1464	1.4557e+02	-18.2915	-56.794426	0.000294	2.940581	0.996296	-0.000118
1465	1.4567e+02	-18.3235	-56.976097	0.000456	4.562971	1.545976	-0.000183
1466	1.4577e+02	-18.3588	-57.032617	0.000142	1.419591	0.480970	-0.000057
1467	1.4587e+02	-18.3973	-57.194102	0.000406	4.055974	1.374201	-0.000162
1468	1.4597e+02	-18.4439	-57.331365	0.000345	3.447578	1.168071	-0.000138
1469	1.4607e+02	-18.4759	-57.468627	0.000345	3.447578	1.168071	-0.000138
1470	1.4617e+02	-18.5273	-57.561481	0.000233	2.332185	0.790166	-0.000093
1471	1.4626e+02	-18.5610	-57.698744	0.000345	3.447578	1.168071	-0.000138
1472	1.4636e+02	-18.6027	-57.852155	0.000385	3.853176	1.305491	-0.000154
1473	1.4646e+02	-18.6364	-57.940972	0.000223	2.230786	0.755811	-0.000089
1474	1.4656e+02	-18.6701	-58.074198	0.000335	3.346179	1.133716	-0.000134
1475	1.4666e+02	-18.7214	-58.191275	0.000294	2.940581	0.996296	-0.000118
1476	1.4676e+02	-18.7599	-58.308351	0.000294	2.940581	0.996296	-0.000118
1477	1.4686e+02	-18.8032	-58.473874	0.000416	4.157374	1.408556	-0.000166
1478	1.4696e+02	-18.8289	-58.635359	0.000406	4.055974	1.374201	-0.000162
1479	1.4706e+02	-18.8770	-58.776659	0.000355	3.548978	1.202426	-0.000142
1480	1.4716e+02	-18.9171	-58.905848	0.000324	3.244779	1.099361	-0.000130
1481	1.4726e+02	-18.9556	-59.010813	0.000264	2.636383	0.893231	-0.000105
1482	1.4736e+02	-19.0021	-59.196521	0.000466	4.664371	1.580332	-0.000187
1483	1.4746e+02	-19.0390	-59.273227	0.000193	1.926588	0.652746	-0.000077
1484	1.4756e+02	-19.0775	-59.418564	0.000365	3.650377	1.236781	-0.000146
1485	1.4766e+02	-19.1241	-59.580049	0.000406	4.055974	1.374201	-0.000162
1486	1.4776e+02	-19.1577	-59.689052	0.000274	2.737783	0.927586	-0.000110
1487	1.4786e+02	-19.2011	-59.826315	0.000345	3.447578	1.168071	-0.000138
1488	1.4796e+02	-19.2428	-59.967614	0.000355	3.548978	1.202426	-0.000142
1489	1.4806e+02	-19.2749	-60.096803	0.000324	3.244779	1.099361	-0.000130
1490	1.4816e+02	-19.3166	-60.258288	0.000406	4.055974	1.374201	-0.000162
1491	1.4825e+02	-19.3551	-60.351142	0.000233	2.332185	0.790166	-0.000093
1492	1.4835e+02	-19.3936	-60.452071	0.000253	2.534984	0.858876	-0.000101
1493	1.4845e+02	-19.4289	-60.625667	0.000436	4.360172	1.477266	-0.000174
1494	1.4855e+02	-19.4642	-60.742744	0.000294	2.940581	0.996296	-0.000118
1495	1.4865e+02	-19.5171	-60.928453	0.000466	4.664371	1.580332	-0.000187
1496	1.4875e+02	-19.5588	-61.037455	0.000274	2.737783	0.927586	-0.000110
1497	1.4885e+02	-19.5877	-61.215089	0.000446	4.461572	1.511621	-0.000179
1498	1.4895e+02	-19.6342	-61.340240	0.000314	3.143380	1.065006	-0.000126
1499	1.4905e+02	-19.6759	-61.485577	0.000365	3.650377	1.236781	-0.000146
1500	1.4915e+02	-19.7096	-61.630914	0.000365	3.650377	1.236781	-0.000146
1501	1.4925e+02	-19.7529	-61.772214	0.000355	3.548978	1.202426	-0.000142
1502	1.4935e+02	-19.7962	-61.949848	0.000446	4.461572	1.511621	-0.000179
1503	1.4945e+02	-19.8379	-62.079036	0.000324	3.244779	1.099361	-0.000130
1504	1.4955e+02	-19.8716	-62.175928	0.000243	2.433585	0.824521	-0.000097
1505	1.4965e+02	-19.9198	-62.373747	0.000497	4.968569	1.683397	-0.000199
1506	1.4975e+02	-19.9567	-62.474676	0.000253	2.534984	0.858876	-0.000101
1507	1.4985e+02	-19.9871	-62.628087	0.000385	3.853176	1.305491	-0.000154
1508	1.4995e+02	-19.9534	-62.615975	0.000030	0.304198	0.103065	0.000012
1509	1.5005e+02	-19.9149	-62.599827	0.000041	0.405597	0.137420	0.000016
1510	1.5015e+02	-19.8797	-62.539270	0.000152	1.520990	0.515325	0.000061
1511	1.5025e+02	-19.8363	-62.486787	0.000132	1.318192	0.446615	0.000053
1512	1.5034e+02	-19.7914	-62.474676	0.000030	0.304198	0.103065	0.000012
1513	1.5044e+02	-19.7481	-62.462564	0.000030	0.304198	0.103065	0.000012
1514	1.5054e+02	-19.7096	-62.377784	0.000213	2.129387	0.721456	0.000085
1515	1.5064e+02	-19.6711	-62.333376	0.000112	1.115393	0.377905	0.000045
1516	1.5074e+02	-19.6310	-62.317227	0.000041	0.405597	0.137420	0.000016
1517	1.5084e+02	-19.5989	-62.293004	0.000061	0.608396	0.206130	0.000024
1518	1.5094e+02	-19.5524	-62.179965	0.000284	2.839182	0.961941	0.000114
1519	1.5104e+02	-19.5155	-62.163816	0.000041	0.405597	0.137420	0.000016
1520	1.5114e+02	-19.4706	-62.099222	0.000162	1.622390	0.549681	0.000065
1521	1.5124e+02	-19.4321	-62.022516	0.000193	1.926588	0.652746	0.000077
1522	1.5134e+02	-19.3920	-61.965996	0.000142	1.419591	0.480970	0.000057
1523	1.5144e+02	-19.3615	-61.881217	0.000213	2.129387	0.721456	0.000085
1524	1.5154e+02	-19.3118	-61.832771	0.000122	1.216792	0.412260	0.000049
1525	1.5164e+02	-19.2845	-61.768177	0.000162	1.622390	0.549681	0.000065
1526	1.5174e+02	-19.2428	-61.723768	0.000112	1.115393	0.377905	0.000045
1527	1.5184e+02	-19.1930	-61.630914	0.000233	2.332185	0.790166	0.000093
1528	1.5194e+02	-19.1577	-61.550171	0.000203	2.027987	0.687101	0.000081
1529	1.5204e+02	-19.1176	-61.477503	0.000183	1.825188	0.618391	0.000073
1530	1.5214e+02	-19.0727	-61.437132	0.000101	1.013994	0.343550	0.000041
1531	1.5224e+02	-19.0310	-61.348315	0.000223	2.230786	0.755811	0.000089
1532	1.5233e+02	-18.9909	-61.307943	0.000101	1.013994	0.343550	0.000041
1533	1.5243e+02	-18.9604	-61.235275	0.000183	1.825188	0.618391	0.000073
1534	1.5253e+02	-18.9251	-61.142421	0.000233	2.332185	0.790166	0.000093
1535	1.5263e+02	-18.8754	-61.049567	0.000233	2.332185	0.790166	0.000093
1536	1.5273e+02	-18.8305	-60.997084	0.000132	1.318192	0.446615	0.000053
1537	1.5283e+02	-18.7968	-60.932490	0.000162	1.622390	0.549681	0.000065
1538	1.5293e+02	-18.7583	-60.847710	0.000213	2.129387	0.721456	0.000085
1539	1.5303e+02	-18.7182	-60.795227	0.000132	1.318192	0.446615	0.000053
1540	1.5313e+02	-18.6845	-60.686224	0.000274	2.737783	0.927586	0.000110
1541	1.5323e+02	-18.6380	-60.601445	0.000213	2.129387	0.721456	0.000085
1542	1.5333e+02	-18.5979	-60.532813	0.000172	1.723789	0.584036	0.000069
1543	1.5343e+02	-18.5562	-60.419773	0.000284	2.839182	0.961941	0.000114
1544	1.5353e+02	-18.5128	-60.391514	0.000071	0.709796	0.240485	0.000028
1545	1.5363e+02	-18.4792	-60.298659	0.000233	2.332185	0.790166	0.000093
1546	1.5373e+02	-18.4407	-60.250214	0.000122	1.216792	0.412260	0.000049
1547	1.5383e+02	-18.4038	-60.129100	0.000304	3.041981	1.030651	0.000122
1548	1.5393e+02	-18.3556	-60.076617	0.000132	1.318192	0.446615	0.000053
1549	1.5403e+02	-18.3284	-59.987800	0.000223	2.230786	0.755811	0.000089
1550	1.5413e+02	-18.2818	-59.870723	0.000294	2.940581	0.996296	0.000118
1551	1.5422e+02	-18.2321	-59.826315	0.000112	1.115393	0.377905	0.000045
1552	1.5432e+02	-18.2048	-59.709238	0.000294	2.940581	0.996296	0.000118
1553	1.5442e+02	-18.1551	-59.636569	0.000183	1.825188	0.618391	0.000073
1554	1.5452e+02	-18.1198	-59.571975	0.000162	1.622390	0.549681	0.000065
1555	1.5462e+02	-18.0893	-59.454898	0.000294	2.940581	0.996296	0.000118
1556	1.5472e+02	-18.0460	-59.325710	0.000324	3.244779	1.099361	0.000130
1557	1.5482e+02	-18.0011	-59.257078	0.000172	1.723789	0.584036	0.000069
1558	1.5492e+02	-17.9626	-59.228818	0.000071	0.709796	0.240485	0.000028
1559	1.5502e+02	-17.9177	-59.099630	0.000324	3.244779	1.099361	0.000130
1560	1.5512e+02	-17.8824	-59.002739	0.000243	2.433585	0.824521	0.000097
1561	1.5522e+02	-17.8391	-58.909885	0.000233	2.332185	0.790166	0.000093
1562	1.5532e+02	-17.7990	-58.808956	0.000253	2.534984	0.858876	0.000101
1563	1.5542e+02	-17.7589	-58.724176	0.000213	2.129387	0.721456	0.000085
1564	1.5552e+02	-17.7316	-58.695916	0.000071	0.709796	0.240485	0.000028
1565	1.5562e+02	-17.6722	-58.611137	0.000213	2.129387	0.721456	0.000085
1566	1.5572e+02	-17.6417	-58.510208	0.000253	2.534984	0.858876	0.000101
1567	1.5582e+02	-17.6000	-58.425428	0.000213	2.129387	0.721456	0.000085
1568	1.5592e+02	-17.5647	-58.312389	0.000284	2.839182	0.961941	0.000114
1569	1.5602e+02	-17.5262	-58.223572	0.000223	2.230786	0.755811	0.000089
1570	1.5612e+02	-17.4861	-58.138792	0.000213	2.129387	0.721456	0.000085
1571	1.5622e+02	-17.4412	-58.041901	0.000243	2.433585	0.824521	0.000097
1572	1.5631e+02	-17.4075	-57.928861	0.000284	2.839182	0.961941	0.000114
1573	1.5641e+02	-17.3530	-57.864267	0.000162	1.622390	0.549681	0.000065
1574	1.5651e+02	-17.3225	-57.759301	0.000264	2.636383	0.893231	0.000105
1575	1.5661e+02	-17.2920	-57.642224	0.000294	2.940581	0.996296	0.000118
1576	1.5671e+02	-17.2503	-57.589741	0.000132	1.318192	0.446615	0.000053
1577	1.5681e+02	-17.2102	-57.480739	0.000274	2.737783	0.927586	0.000110
1578	1.5691e+02	-17.1653	-57.404033	0.000193	1.926588	0.652746	0.000077
1579	1.5701e+02	-17.1252	-57.323290	0.000203	2.027987	0.687101	0.000081
1580	1.5711e+02	-17.0899	-57.262733	0.000152	1.520990	0.515325	0.000061
1581	1.5721e+02	-17.0498	-57.125471	0.000345	3.447578	1.168071	0.000138
1582	1.5731e+02	-17.0017	-57.068951	0.000142	1.419591	0.480970	0.000057
1583	1.5741e+02	-16.9616	-56.972060	0.000243	2.433585	0.824521	0.000097
1584	1.5751e+02	-16.9231	-56.895354	0.000193	1.926588	0.652746	0.000077
1585	1.5761e+02	-16.8781	-56.814611	0.000203	2.027987	0.687101	0.000081
1586	1.5771e+02	-16.8428	-56.697534	0.000294	2.940581	0.996296	0.000118
1587	1.5781e+02	-16.8108	-56.592569	0.000264	2.636383	0.893231	0.000105
1588	1.5791e+02	-16.7690	-56.471455	0.000304	3.041981	1.030651	0.000122
1589	1.5801e+02	-16.7305	-56.390712	0.000203	2.027987	0.687101	0.000081
1590	1.5811e+02	-16.6856	-56.330155	0.000152	1.520990	0.515325	0.000061
1591	1.5821e+02	-16.6471	-56.265561	0.000162	1.622390	0.549681	0.000065
1592	1.5830e+02	-16.6134	-56.136372	0.000324	3.244779	1.099361	0.000130
1593	1.5840e+02	-16.5621	-56.063704	0.000183	1.825188	0.618391	0.000073
1594	1.5850e+02	-16.5268	-55.926441	0.000345	3.447578	1.168071	0.000138
1595	1.5860e+02	-16.4899	-55.853773	0.000183	1.825188	0.618391	0.000073
1596	1.5870e+02	-16.4434	-55.773030	0.000203	2.027987	0.687101	0.000081
1597	1.5880e+02	-16.4129	-55.692288	0.000203	2.027987	0.687101	0.000081
1598	1.5890e+02	-16.3696	-55.603471	0.000223	2.230786	0.755811	0.000089
1599	1.5900e+02	-16.3199	-55.538876	0.000162	1.622390	0.549681	0.000065
1600	1.5910e+02	-16.2894	-55.429874	0.000274	2.737783	0.927586	0.000110
1601	1.5920e+02	-16.2348	-55.369317	0.000152	1.520990	0.515325	0.000061
1602	1.5930e+02	-16.2044	-55.296648	0.000183	1.825188	0.618391	0.000073
1603	1.5940e+02	-16.1691	-55.155348	0.000355	3.548978	1.202426	0.000142
1604	1.5950e+02	-16.1370	-55.062494	0.000233	2.332185	0.790166	0.000093
1605	1.5960e+02	-16.0889	-54.989826	0.000183	1.825188	0.618391	0.000073
1606	1.5970e+02	-16.0503	-54.856600	0.000335	3.346179	1.133716	0.000134
1607	1.5980e+02	-16.0086	-54.763746	0.000233	2.332185	0.790166	0.000093
1608	1.5990e+02	-15.9669	-54.703189	0.000152	1.520990	0.515325	0.000061
1609	1.6000e+02	-15.9348	-54.582075	0.000304	3.041981	1.030651	0.000122
1610	1.6010e+02	-15.8915	-54.497295	0.000213	2.129387	0.721456	0.000085
1611	1.6019e+02	-15.8450	-54.400404	0.000243	2.433585	0.824521	0.000097
1612	1.6029e+02	-15.8113	-54.299476	0.000253	2.534984	0.858876	0.000101
1613	1.6039e+02	-15.7712	-54.230844	0.000172	1.723789	0.584036	0.000069
1614	1.6049e+02	-15.7375	-54.133953	0.000243	2.433585	0.824521	0.000097
1615	1.6059e+02	-15.6862	-54.061285	0.000183	1.825188	0.618391	0.000073
1616	1.6069e+02	-15.6621	-53.960356	0.000253	2.534984	0.858876	0.000101
1617	1.6079e+02	-15.6236	-53.863465	0.000243	2.433585	0.824521	0.000097
1618	1.6089e+02	-15.5675	-53.750425	0.000284	2.839182	0.961941	0.000114
1619	1.6099e+02	-15.5258	-53.661608	0.000223	2.230786	0.755811	0.000089
1620	1.6109e+02	-15.4808	-53.609125	0.000132	1.318192	0.446615	0.000053
1621	1.6119e+02	-15.4504	-53.512234	0.000243	2.433585	0.824521	0.000097
1622	1.6129e+02	-15.4071	-53.395157	0.000294	2.940581	0.996296	0.000118
1623	1.6139e+02	-15.3702	-53.330563	0.000162	1.622390	0.549681	0.000065
1624	1.6149e+02	-15.3317	-53.205412	0.000314	3.143380	1.065006	0.000126
1625	1.6159e+02	-15.2932	-53.068149	0.000345	3.447578	1.168071	0.000138
1626	1.6169e+02	-15.2514	-53.019704	0.000122	1.216792	0.412260	0.000049
1627	1.6179e+02	-15.2081	-52.926850	0.000233	2.332185	0.790166	0.000093
1628	1.6189e+02	-15.1793	-52.825921	0.000253	2.534984	0.858876	0.000101
1629	1.6199e+02	-15.1391	-52.753253	0.000183	1.825188	0.618391	0.000073
1630	1.6209e+02	-15.0958	-52.648287	0.000264	2.636383	0.893231	0.000105
1631	1.6219e+02	-15.0509	-52.551396	0.000243	2.433585	0.824521	0.000097
1632	1.6228e+02	-15.0124	-52.438356	0.000284	2.839182	0.961941	0.000114
1633	1.6238e+02	-14.9787	-52.345502	0.000233	2.332185	0.790166	0.000093
1634	1.6248e+02	-14.9418	-52.264759	0.000203	2.027987	0.687101	0.000081
1635	1.6258e+02	-14.8889	-52.163831	0.000253	2.534984	0.858876	0.000101
1636	1.6268e+02	-14.8504	-52.095200	0.000172	1.723789	0.584036	0.000069
1637	1.6278e+02	-14.8119	-52.006383	0.000223	2.230786	0.755811	0.000089
1638	1.6288e+02	-14.7654	-51.933714	0.000183	1.825188	0.618391	0.000073
1639	1.6298e+02	-14.7301	-51.832786	0.000253	2.534984	0.858876	0.000101
1640	1.6308e+02	-14.7044	-51.735894	0.000243	2.433585	0.824521	0.000097
1641	1.6318e+02	-14.6499	-51.675337	0.000152	1.520990	0.515325	0.000061
1642	1.6328e+02	-14.6178	-51.546149	0.000324	3.244779	1.099361	0.000130
1643	1.6338e+02	-14.5745	-51.449258	0.000243	2.433585	0.824521	0.000097
1644	1.6348e+02	-14.5360	-51.336218	0.000284	2.839182	0.961941	0.000114
1645	1.6358e+02	-14.4975	-51.251438	0.000213	2.129387	0.721456	0.000085
1646	1.6368e+02	-14.4525	-51.170695	0.000203	2.027987	0.687101	0.000081
1647	1.6378e+02	-14.4108	-51.041507	0.000324	3.244779	1.099361	0.000130
1648	1.6388e+02	-14.3916	-50.964802	0.000193	1.926588	0.652746	0.000077
1649	1.6398e+02	-14.3354	-50.851762	0.000284	2.839182	0.961941	0.000114
1650	1.6408e+02	-14.3001	-50.779093	0.000183	1.825188	0.618391	0.000073
1651	1.6418e+02	-14.2632	-50.674128	0.000264	2.636383	0.893231	0.000105
1652	1.6427e+02	-14.2135	-50.557051	0.000294	2.940581	0.996296	0.000118
1653	1.6437e+02	-14.1782	-50.496494	0.000152	1.520990	0.515325	0.000061
1654	1.6447e+02	-14.1349	-50.355194	0.000355	3.548978	1.202426	0.000142
1655	1.6457e+02	-14.0948	-50.286563	0.000172	1.723789	0.584036	0.000069
1656	1.6467e+02	-14.0531	-50.209857	0.000193	1.926588	0.652746	0.000077
1657	1.6477e+02	-14.0226	-50.108929	0.000253	2.534984	0.858876	0.000101
1658	1.6487e+02	-13.9777	-50.028186	0.000203	2.027987	0.687101	0.000081
1659	1.6497e+02	-13.9392	-49.955518	0.000183	1.825188	0.618391	0.000073
1660	1.6507e+02	-13.8911	-49.818255	0.000345	3.447578	1.168071	0.000138
1661	1.6517e+02	-13.8654	-49.697141	0.000304	3.041981	1.030651	0.000122
1662	1.6527e+02	-13.8269	-49.632547	0.000162	1.622390	0.549681	0.000065
1663	1.6537e+02	-13.7804	-49.515470	0.000294	2.940581	0.996296	0.000118
1664	1.6547e+02	-13.7354	-49.418579	0.000243	2.433585	0.824521	0.000097
1665	1.6557e+02	-13.7050	-49.301502	0.000294	2.940581	0.996296	0.000118
1666	1.6567e+02	-13.6520	-49.208648	0.000233	2.332185	0.790166	0.000093
1667	1.6577e+02	-13.6215	-49.103682	0.000264	2.636383	0.893231	0.000105
1668	1.6587e+02	-13.5734	-49.006791	0.000243	2.433585	0.824521	0.000097
1669	1.6597e+02	-13.5461	-48.901825	0.000264	2.636383	0.893231	0.000105
1670	1.6607e+02	-13.4964	-48.829157	0.000183	1.825188	0.618391	0.000073
1671	1.6616e+02	-13.4643	-48.683820	0.000365	3.650377	1.236781	0.000146
1672	1.6626e+02	-13.4210	-48.615189	0.000172	1.723789	0.584036	0.000069
1673	1.6636e+02	-13.3809	-48.518297	0.000243	2.433585	0.824521	0.000097
1674	1.6646e+02	-13.3296	-48.413332	0.000264	2.636383	0.893231	0.000105
1675	1.6656e+02	-13.2927	-48.356812	0.000142	1.419591	0.480970	0.000057
1676	1.6666e+02	-13.2558	-48.251846	0.000264	2.636383	0.893231	0.000105
1677	1.6676e+02	-13.2205	-48.126695	0.000314	3.143380	1.065006	0.000126
1678	1.6686e+02	-13.1756	-48.009618	0.000294	2.940581	0.996296	0.000118
1679	1.6696e+02	-13.1355	-47.904653	0.000264	2.636383	0.893231	0.000105
1680	1.6706e+02	-13.0970	-47.751242	0.000385	3.853176	1.305491	0.000154
1681	1.6716e+02	-13.0617	-47.654350	0.000243	2.433585	0.824521	0.000097
1682	1.6726e+02	-13.0183	-47.589756	0.000162	1.622390	0.549681	0.000065
1683	1.6736e+02	-12.9750	-47.472679	0.000294	2.940581	0.996296	0.000118
1684	1.6746e+02	-12.9365	-47.355602	0.000294	2.940581	0.996296	0.000118
1685	1.6756e+02	-12.9044	-47.254674	0.000253	2.534984	0.858876	0.000101
1686	1.6766e+02	-12.8595	-47.133560	0.000304	3.041981	1.030651	0.000122
1687	1.6776e+02	-12.8226	-47.016483	0.000294	2.940581	0.996296	0.000118
1688	1.6786e+02	-12.7793	-46.972074	0.000112	1.115393	0.377905	0.000045
1689	1.6796e+02	-12.7488	-46.867109	0.000264	2.636383	0.893231	0.000105
1690	1.6806e+02	-12.7135	-46.729846	0.000345	3.447578	1.168071	0.000138
1691	1.6816e+02	-12.6542	-46.645066	0.000213	2.129387	0.721456	0.000085
1692	1.6825e+02	-12.6173	-46.600658	0.000112	1.115393	0.377905	0.000045
1693	1.6835e+02	-12.5884	-46.471469	0.000324	3.244779	1.099361	0.000130
1694	1.6845e+02	-12.5435	-46.382652	0.000223	2.230786	0.755811	0.000089
1695	1.6855e+02	-12.5018	-46.229241	0.000385	3.853176	1.305491	0.000154
1696	1.6865e+02	-12.4569	-46.140424	0.000223	2.230786	0.755811	0.000089
1697	1.6875e+02	-12.4312	-46.043533	0.000243	2.433585	0.824521	0.000097
1698	1.6885e+02	-12.3927	-45.906270	0.000345	3.447578	1.168071	0.000138
1699	1.6895e+02	-12.3430	-45.789194	0.000294	2.940581	0.996296	0.000118
1700	1.6905e+02	-12.3045	-45.664042	0.000314	3.143380	1.065006	0.000126
1701	1.6915e+02	-12.2660	-45.587337	0.000193	1.926588	0.652746	0.000077
1702	1.6925e+02	-12.2259	-45.466223	0.000304	3.041981	1.030651	0.000122
1703	1.6935e+02	-12.1874	-45.353183	0.000284	2.839182	0.961941	0.000114
1704	1.6945e+02	-12.1489	-45.260329	0.000233	2.332185	0.790166	0.000093
1705	1.6955e+02	-12.1023	-45.131140	0.000324	3.244779	1.099361	0.000130
1706	1.6965e+02	-12.0686	-45.082695	0.000122	1.216792	0.412260	0.000049
1707	1.6975e+02	-12.0317	-44.937358	0.000365	3.650377	1.236781	0.000146
1708	1.6985e+02	-11.9884	-44.828355	0.000274	2.737783	0.927586	0.000110
1709	1.6995e+02	-11.9499	-44.731464	0.000243	2.433585	0.824521	0.000097
1710	1.7005e+02	-11.9034	-44.666870	0.000162	1.622390	0.549681	0.000065
1711	1.7015e+02	-11.8681	-44.569979	0.000243	2.433585	0.824521	0.000097
1712	1.7024e+02	-11.8168	-44.448864	0.000304	3.041981	1.030651	0.000122
1713	1.7034e+02	-11.7927	-44.331788	0.000294	2.940581	0.996296	0.000118
1714	1.7044e+02	-11.7398	-44.186451	0.000365	3.650377	1.236781	0.000146
1715	1.7054e+02	-11.7093	-44.077448	0.000274	2.737783	0.927586	0.000110
1716	1.7064e+02	-11.6708	-43.968445	0.000274	2.737783	0.927586	0.000110
1717	1.7074e+02	-11.6323	-43.835220	0.000335	3.346179	1.133716	0.000134
1718	1.7084e+02	-11.5858	-43.770626	0.000162	1.622390	0.549681	0.000065
1719	1.7094e+02	-11.5521	-43.584917	0.000466	4.664371	1.580332	0.000187
1720	1.7104e+02	-11.5136	-43.532435	0.000132	1.318192	0.446615	0.000053
1721	1.7114e+02	-11.4735	-43.419395	0.000284	2.839182	0.961941	0.000114
1722	1.7124e+02	-11.4334	-43.306355	0.000284	2.839182	0.961941	0.000114
1723	1.7134e+02	-11.3933	-43.173130	0.000335	3.346179	1.133716	0.000134
1724	1.7144e+02	-11.3532	-43.060090	0.000284	2.839182	0.961941	0.000114
1725	1.7154e+02	-11.2986	-42.959161	0.000253	2.534984	0.858876	0.000101
1726	1.7164e+02	-11.2665	-42.846122	0.000284	2.839182	0.961941	0.000114
1727	1.7174e+02	-11.2280	-42.749230	0.000243	2.433585	0.824521	0.000097
1728	1.7184e+02	-11.1863	-42.620042	0.000324	3.244779	1.099361	0.000130
1729	1.7194e+02	-11.1446	-42.547374	0.000183	1.825188	0.618391	0.000073
1730	1.7204e+02	-11.1077	-42.450482	0.000243	2.433585	0.824521	0.000097
1731	1.7213e+02	-11.0676	-42.317257	0.000335	3.346179	1.133716	0.000134
1732	1.7223e+02	-11.0323	-42.171920	0.000365	3.650377	1.236781	0.000146
1733	1.7233e+02	-10.9986	-42.079066	0.000233	2.332185	0.790166	0.000093
1734	1.7243e+02	-10.9537	-41.917580	0.000406	4.055974	1.374201	0.000162
1735	1.7253e+02	-10.9120	-41.828763	0.000223	2.230786	0.755811	0.000089
1736	1.7263e+02	-10.8783	-41.723798	0.000264	2.636383	0.893231	0.000105
1737	1.7273e+02	-10.8270	-41.626907	0.000243	2.433585	0.824521	0.000097
1738	1.7283e+02	-10.7804	-41.505793	0.000304	3.041981	1.030651	0.000122
1739	1.7293e+02	-10.7452	-41.404864	0.000253	2.534984	0.858876	0.000101
1740	1.7303e+02	-10.7066	-41.283750	0.000304	3.041981	1.030651	0.000122
1741	1.7313e+02	-10.6649	-41.158599	0.000314	3.143380	1.065006	0.000126
1742	1.7323e+02	-10.6313	-41.061708	0.000243	2.433585	0.824521	0.000097
1743	1.7333e+02	-10.5960	-40.940594	0.000304	3.041981	1.030651	0.000122
1744	1.7343e+02	-10.5591	-40.827554	0.000284	2.839182	0.961941	0.000114
1745	1.7353e+02	-10.5109	-40.710477	0.000294	2.940581	0.996296	0.000118
1746	1.7363e+02	-10.4740	-40.589363	0.000304	3.041981	1.030651	0.000122
1747	1.7373e+02	-10.4339	-40.548991	0.000101	1.013994	0.343550	0.000041
1748	1.7383e+02	-10.3954	-40.435952	0.000284	2.839182	0.961941	0.000114
1749	1.7393e+02	-10.3585	-40.310800	0.000314	3.143380	1.065006	0.000126
1750	1.7403e+02	-10.3088	-40.129129	0.000456	4.562971	1.545976	0.000183
1751	1.7413e+02	-10.2671	-40.048387	0.000203	2.027987	0.687101	0.000081
1752	1.7422e+02	-10.2398	-39.927272	0.000304	3.041981	1.030651	0.000122
1753	1.7432e+02	-10.2013	-39.846530	0.000203	2.027987	0.687101	0.000081
1754	1.7442e+02	-10.1548	-39.697156	0.000375	3.751776	1.271136	0.000150
1755	1.7452e+02	-10.1211	-39.620450	0.000193	1.926588	0.652746	0.000077
1756	1.7462e+02	-10.0762	-39.499336	0.000304	3.041981	1.030651	0.000122
1757	1.7472e+02	-10.0345	-39.358036	0.000355	3.548978	1.202426	0.000142
1758	1.7482e+02	-9.9912	-39.281331	0.000193	1.926588	0.652746	0.000077
1759	1.7492e+02	-9.9527	-39.176365	0.000264	2.636383	0.893231	0.000105
1760	1.7502e+02	-9.9158	-39.014880	0.000406	4.055974	1.374201	0.000162
1761	1.7512e+02	-9.8821	-38.946248	0.000172	1.723789	0.584036	0.000069
1762	1.7522e+02	-9.8323	-38.849357	0.000243	2.433585	0.824521	0.000097
1763	1.7532e+02	-9.7954	-38.760540	0.000223	2.230786	0.755811	0.000089
1764	1.7542e+02	-9.7537	-38.615203	0.000365	3.650377	1.236781	0.000146
1765	1.7552e+02	-9.7217	-38.546572	0.000172	1.723789	0.584036	0.000069
1766	1.7562e+02	-9.6703	-38.461792	0.000213	2.129387	0.721456	0.000085
1767	1.7572e+02	-9.6350	-38.320492	0.000355	3.548978	1.202426	0.000142
1768	1.7582e+02	-9.6013	-38.175156	0.000365	3.650377	1.236781	0.000146
1769	1.7592e+02	-9.5548	-38.054041	0.000304	3.041981	1.030651	0.000122
1770	1.7602e+02	-9.5051	-37.945039	0.000274	2.737783	0.927586	0.000110
1771	1.7612e+02	-9.4810	-37.827962	0.000294	2.940581	0.996296	0.000118
1772	1.7621e+02	-9.4281	-37.731071	0.000243	2.433585	0.824521	0.000097
1773	1.7631e+02	-9.3960	-37.626105	0.000264	2.636383	0.893231	0.000105
1774	1.7641e+02	-9.3559	-37.513065	0.000284	2.839182	0.961941	0.000114
1775	1.7651e+02	-9.3222	-37.395988	0.000294	2.940581	0.996296	0.000118
1776	1.7661e+02	-9.2693	-37.286986	0.000274	2.737783	0.927586	0.000110
1777	1.7671e+02	-9.2452	-37.169909	0.000294	2.940581	0.996296	0.000118
1778	1.7681e+02	-9.2003	-37.089166	0.000203	2.027987	0.687101	0.000081
1779	1.7691e+02	-9.1650	-36.976126	0.000284	2.839182	0.961941	0.000114
1780	1.7701e+02	-9.1201	-36.855012	0.000304	3.041981	1.030651	0.000122
1781	1.7711e+02	-9.0751	-36.762158	0.000233	2.332185	0.790166	0.000093
1782	1.7721e+02	-9.0318	-36.596635	0.000416	4.157374	1.408556	0.000166
1783	1.7731e+02	-8.9981	-36.528004	0.000172	1.723789	0.584036	0.000069
1784	1.7741e+02	-8.9596	-36.382667	0.000365	3.650377	1.236781	0.000146
1785	1.7751e+02	-8.9163	-36.309999	0.000183	1.825188	0.618391	0.000073
1786	1.7761e+02	-8.8842	-36.184848	0.000314	3.143380	1.065006	0.000126
1787	1.7771e+02	-8.8345	-36.031436	0.000385	3.853176	1.305491	0.000154
1788	1.7781e+02	-8.7960	-35.922434	0.000274	2.737783	0.927586	0.000110
1789	1.7791e+02	-8.7527	-35.793245	0.000324	3.244779	1.099361	0.000130
1790	1.7801e+02	-8.7078	-35.692317	0.000253	2.534984	0.858876	0.000101
1791	1.7810e+02	-8.6821	-35.559092	0.000335	3.346179	1.133716	0.000134
1792	1.7820e+02	-8.6388	-35.494497	0.000162	1.622390	0.549681	0.000065
1793	1.7830e+02	-8.6003	-35.361272	0.000335	3.346179	1.133716	0.000134
1794	1.7840e+02	-8.5586	-35.224009	0.000345	3.447578	1.168071	0.000138
1795	1.7850e+02	-8.5137	-35.119044	0.000264	2.636383	0.893231	0.000105
1796	1.7860e+02	-8.4800	-35.034264	0.000213	2.129387	0.721456	0.000085
1797	1.7870e+02	-8.4431	-34.913150	0.000304	3.041981	1.030651	0.000122
1798	1.7880e+02	-8.3982	-34.800110	0.000284	2.839182	0.961941	0.000114
1799	1.7890e+02	-8.3661	-34.707256	0.000233	2.332185	0.790166	0.000093
1800	1.7900e+02	-8.3244	-34.598253	0.000274	2.737783	0.927586	0.000110
1801	1.7910e+02	-8.2891	-34.473102	0.000314	3.143380	1.065006	0.000126
1802	1.7920e+02	-8.2393	-34.396396	0.000193	1.926588	0.652746	0.000077
1803	1.7930e+02	-8.1976	-34.271245	0.000314	3.143380	1.065006	0.000126
1804	1.7940e+02	-8.1591	-34.150131	0.000304	3.041981	1.030651	0.000122
1805	1.7950e+02	-8.1206	-34.065351	0.000213	2.129387	0.721456	0.000085
1806	1.7960e+02	-8.0757	-33.851383	0.000537	5.374166	1.820817	0.000215
1807	1.7970e+02	-8.0468	-33.811012	0.000101	1.013994	0.343550	0.000041
1808	1.7980e+02	-8.0035	-33.697972	0.000284	2.839182	0.961941	0.000114
1809	1.7990e+02	-7.9586	-33.544561	0.000385	3.853176	1.305491	0.000154
1810	1.8000e+02	-7.9201	-33.455744	0.000223	2.230786	0.755811	0.000089
1811	1.8009e+02	-7.8864	-33.362890	0.000233	2.332185	0.790166	0.000093
1812	1.8019e+02	-7.8415	-33.217553	0.000365	3.650377	1.236781	0.000146
1813	1.8029e+02	-7.8094	-33.112587	0.000264	2.636383	0.893231	0.000105
1814	1.8039e+02	-7.7581	-32.987436	0.000314	3.143380	1.065006	0.000126
1815	1.8049e+02	-7.7196	-32.910731	0.000193	1.926588	0.652746	0.000077
1816	1.8059e+02	-7.6939	-32.777505	0.000335	3.346179	1.133716	0.000134
1817	1.8069e+02	-7.6442	-32.652354	0.000314	3.143380	1.065006	0.000126
1818	1.8079e+02	-7.6057	-32.535277	0.000294	2.940581	0.996296	0.000118
1819	1.8089e+02	-7.5640	-32.478757	0.000142	1.419591	0.480970	0.000057
1820	1.8099e+02	-7.5271	-32.389940	0.000223	2.230786	0.755811	0.000089
1821	1.8109e+02	-7.4918	-32.272863	0.000294	2.940581	0.996296	0.000118
1822	1.8119e+02	-7.4452	-32.119452	0.000385	3.853176	1.305491	0.000154
1823	1.8129e+02	-7.4067	-31.974115	0.000365	3.650377	1.236781	0.000146
1824	1.8139e+02	-7.3634	-31.857038	0.000294	2.940581	0.996296	0.000118
1825	1.8149e+02	-7.3329	-31.760147	0.000243	2.433585	0.824521	0.000097
1826	1.8159e+02	-7.2848	-31.655181	0.000264	2.636383	0.893231	0.000105
1827	1.8169e+02	-7.2495	-31.481584	0.000436	4.360172	1.477266	0.000174
1828	1.8179e+02	-7.1982	-31.384693	0.000243	2.433585	0.824521	0.000097
1829	1.8189e+02	-7.1789	-31.275691	0.000274	2.737783	0.927586	0.000110
1830	1.8199e+02	-7.1228	-31.166688	0.000274	2.737783	0.927586	0.000110
1831	1.8209e+02	-7.0859	-31.057685	0.000274	2.737783	0.927586	0.000110
1832	1.8218e+02	-7.0378	-30.904274	0.000385	3.853176	1.305491	0.000154
1833	1.8228e+02	-6.9993	-30.799309	0.000264	2.636383	0.893231	0.000105
1834	1.8238e+02	-6.9672	-30.722603	0.000193	1.926588	0.652746	0.000077
1835	1.8248e+02	-6.9319	-30.561118	0.000406	4.055974	1.374201	0.000162
1836	1.8258e+02	-6.8918	-30.472301	0.000223	2.230786	0.755811	0.000089
1837	1.8268e+02	-6.8485	-30.306778	0.000416	4.157374	1.408556	0.000166
1838	1.8278e+02	-6.7955	-30.274481	0.000081	0.811195	0.274840	0.000032
1839	1.8288e+02	-6.7683	-30.145293	0.000324	3.244779	1.099361	0.000130
1840	1.8298e+02	-6.7265	-30.032253	0.000284	2.839182	0.961941	0.000114
1841	1.8308e+02	-6.6768	-29.894990	0.000345	3.447578	1.168071	0.000138
1842	1.8318e+02	-6.6528	-29.781950	0.000284	2.839182	0.961941	0.000114
1843	1.8328e+02	-6.6030	-29.612391	0.000426	4.258773	1.442911	0.000170
1844	1.8338e+02	-6.5661	-29.507425	0.000264	2.636383	0.893231	0.000105
1845	1.8348e+02	-6.5228	-29.394385	0.000284	2.839182	0.961941	0.000114
1846	1.8358e+02	-6.4955	-29.236937	0.000395	3.954575	1.339846	0.000158
1847	1.8368e+02	-6.4458	-29.119860	0.000294	2.940581	0.996296	0.000118
1848	1.8378e+02	-6.4073	-29.006820	0.000284	2.839182	0.961941	0.000114
1849	1.8388e+02	-6.3736	-28.946263	0.000152	1.520990	0.515325	0.000061
1850	1.8398e+02	-6.3255	-28.780741	0.000416	4.157374	1.408556	0.000166
1851	1.8407e+02	-6.2902	-28.659627	0.000304	3.041981	1.030651	0.000122
1852	1.8417e+02	-6.2485	-28.542550	0.000294	2.940581	0.996296	0.000118
1853	1.8427e+02	-6.2228	-28.405287	0.000345	3.447578	1.168071	0.000138
1854	1.8437e+02	-6.1699	-28.300322	0.000264	2.636383	0.893231	0.000105
1855	1.8447e+02	-6.1314	-28.159022	0.000355	3.548978	1.202426	0.000142
1856	1.8457e+02	-6.0913	-28.058093	0.000253	2.534984	0.858876	0.000101
1857	1.8467e+02	-6.0480	-27.953128	0.000264	2.636383	0.893231	0.000105
1858	1.8477e+02	-6.0143	-27.819902	0.000335	3.346179	1.133716	0.000134
1859	1.8487e+02	-5.9710	-27.682640	0.000345	3.447578	1.168071	0.000138
1860	1.8497e+02	-5.9228	-27.529229	0.000385	3.853176	1.305491	0.000154
1861	1.8507e+02	-5.8891	-27.432337	0.000243	2.433585	0.824521	0.000097
1862	1.8517e+02	-5.8538	-27.270852	0.000406	4.055974	1.374201	0.000162
1863	1.8527e+02	-5.8025	-27.149738	0.000304	3.041981	1.030651	0.000122
1864	1.8537e+02	-5.7720	-27.036698	0.000284	2.839182	0.961941	0.000114
1865	1.8547e+02	-5.7480	-26.907510	0.000324	3.244779	1.099361	0.000130
1866	1.8557e+02	-5.7047	-26.770247	0.000345	3.447578	1.168071	0.000138
1867	1.8567e+02	-5.6517	-26.677393	0.000233	2.332185	0.790166	0.000093
1868	1.8577e+02	-5.6068	-26.511870	0.000416	4.157374	1.408556	0.000166
1869	1.8587e+02	-5.5699	-26.398831	0.000284	2.839182	0.961941	0.000114
1870	1.8597e+02	-5.5346	-26.289828	0.000274	2.737783	0.927586	0.000110
1871	1.8606e+02	-5.4961	-26.196974	0.000233	2.332185	0.790166	0.000093
1872	1.8616e+02	-5.4624	-26.067785	0.000324	3.244779	1.099361	0.000130
1873	1.8626e+02	-5.4159	-25.930523	0.000345	3.447578	1.168071	0.000138
1874	1.8636e+02	-5.3726	-25.821520	0.000274	2.737783	0.927586	0.000110
1875	1.8646e+02	-5.3293	-25.712518	0.000274	2.737783	0.927586	0.000110
1876	1.8656e+02	-5.2924	-25.559106	0.000385	3.853176	1.305491	0.000154
1877	1.8666e+02	-5.2555	-25.462215	0.000243	2.433585	0.824521	0.000097
1878	1.8676e+02	-5.2073	-25.284581	0.000446	4.461572	1.511621	0.000179
1879	1.8686e+02	-5.1769	-25.163467	0.000304	3.041981	1.030651	0.000122
1880	1.8696e+02	-5.1368	-25.026204	0.000345	3.447578	1.168071	0.000138
1881	1.8706e+02	-5.0966	-24.905090	0.000304	3.041981	1.030651	0.000122
1882	1.8716e+02	-5.0549	-24.783976	0.000304	3.041981	1.030651	0.000122
1883	1.8726e+02	-5.0245	-24.622491	0.000406	4.055974	1.374201	0.000162
1884	1.8736e+02	-4.9731	-24.497340	0.000314	3.143380	1.065006	0.000126
1885	1.8746e+02	-4.9330	-24.339891	0.000395	3.954575	1.339846	0.000158
1886	1.8756e+02	-4.8977	-24.255112	0.000213	2.129387	0.721456	0.000085
1887	1.8766e+02	-4.8624	-24.117849	0.000345	3.447578	1.168071	0.000138
1888	1.8776e+02	-4.8191	-24.000772	0.000294	2.940581	0.996296	0.000118
1889	1.8786e+02	-4.7726	-23.871584	0.000324	3.244779	1.099361	0.000130
1890	1.8796e+02	-4.7405	-23.742395	0.000324	3.244779	1.099361	0.000130
1891	1.8806e+02	-4.6956	-23.617244	0.000314	3.143380	1.065006	0.000126
1892	1.8815e+02	-4.6619	-23.496130	0.000304	3.041981	1.030651	0.000122
1893	1.8825e+02	-4.6138	-23.354830	0.000355	3.548978	1.202426	0.000142
1894	1.8835e+02	-4.5705	-23.229679	0.000314	3.143380	1.065006	0.000126
1895	1.8845e+02	-4.5384	-23.140862	0.000223	2.230786	0.755811	0.000089
1896	1.8855e+02	-4.5015	-23.007637	0.000335	3.346179	1.133716	0.000134
1897	1.8865e+02	-4.4598	-22.858263	0.000375	3.751776	1.271136	0.000150
1898	1.8875e+02	-4.4148	-22.725037	0.000335	3.346179	1.133716	0.000134
1899	1.8885e+02	-4.3796	-22.555477	0.000426	4.258773	1.442911	0.000170
1900	1.8895e+02	-4.3427	-22.426289	0.000324	3.244779	1.099361	0.000130
1901	1.8905e+02	-4.2913	-22.313249	0.000284	2.839182	0.961941	0.000114
1902	1.8915e+02	-4.2592	-22.167912	0.000365	3.650377	1.236781	0.000146
1903	1.8925e+02	-4.2288	-22.026613	0.000355	3.548978	1.202426	0.000142
1904	1.8935e+02	-4.1903	-21.937796	0.000223	2.230786	0.755811	0.000089
1905	1.8945e+02	-4.1437	-21.764199	0.000436	4.360172	1.477266	0.000174
1906	1.8955e+02	-4.1036	-21.699605	0.000162	1.622390	0.549681	0.000065
1907	1.8965e+02	-4.0619	-21.485636	0.000537	5.374166	1.820817	0.000215
1908	1.8975e+02	-4.0186	-21.380671	0.000264	2.636383	0.893231	0.000105
1909	1.8985e+02	-3.9769	-21.267631	0.000284	2.839182	0.961941	0.000114
1910	1.8995e+02	-3.9384	-21.146517	0.000304	3.041981	1.030651	0.000122
1911	1.9004e+02	-3.9015	-21.049626	0.000243	2.433585	0.824521	0.000097
1912	1.9014e+02	-3.8614	-20.924475	0.000314	3.143380	1.065006	0.000126
1913	1.9024e+02	-3.8181	-20.795286	0.000324	3.244779	1.099361	0.000130
1914	1.9034e+02	-3.7780	-20.633801	0.000406	4.055974	1.374201	0.000162
1915	1.9044e+02	-3.7347	-20.532872	0.000253	2.534984	0.858876	0.000101
1916	1.9054e+02	-3.7026	-20.339090	0.000487	4.867169	1.649042	0.000195
1917	1.9064e+02	-3.6625	-20.205864	0.000335	3.346179	1.133716	0.000134
1918	1.9074e+02	-3.6111	-20.068602	0.000345	3.447578	1.168071	0.000138
1919	1.9084e+02	-3.5790	-19.935376	0.000335	3.346179	1.133716	0.000134
1920	1.9094e+02	-3.5470	-19.818299	0.000294	2.940581	0.996296	0.000118
1921	1.9104e+02	-3.4956	-19.693148	0.000314	3.143380	1.065006	0.000126
1922	1.9114e+02	-3.4571	-19.555886	0.000345	3.447578	1.168071	0.000138
1923	1.9124e+02	-3.4234	-19.410549	0.000365	3.650377	1.236781	0.000146
1924	1.9134e+02	-3.3897	-19.277323	0.000335	3.346179	1.133716	0.000134
1925	1.9144e+02	-3.3416	-19.156209	0.000304	3.041981	1.030651	0.000122
1926	1.9154e+02	-3.2999	-19.039132	0.000294	2.940581	0.996296	0.000118
1927	1.9164e+02	-3.2550	-18.909944	0.000324	3.244779	1.099361	0.000130
1928	1.9174e+02	-3.2197	-18.857461	0.000132	1.318192	0.446615	0.000053
1929	1.9184e+02	-3.1812	-18.700013	0.000395	3.954575	1.339846	0.000158
1930	1.9194e+02	-3.1363	-18.603121	0.000243	2.433585	0.824521	0.000097
1931	1.9203e+02	-3.1138	-18.445673	0.000395	3.954575	1.339846	0.000158
1932	1.9213e+02	-3.0577	-18.336671	0.000274	2.737783	0.927586	0.000110
1933	1.9223e+02	-3.0256	-18.187296	0.000375	3.751776	1.271136	0.000150
1934	1.9233e+02	-2.9823	-18.098480	0.000223	2.230786	0.755811	0.000089
1935	1.9243e+02	-2.9550	-17.969291	0.000324	3.244779	1.099361	0.000130
1936	1.9253e+02	-2.9021	-17.783583	0.000466	4.664371	1.580332	0.000187
1937	1.9263e+02	-2.8603	-17.601912	0.000456	4.562971	1.545976	0.000183
1938	1.9273e+02	-2.8202	-17.432352	0.000426	4.258773	1.442911	0.000170
1939	1.9283e+02	-2.7785	-17.387944	0.000112	1.115393	0.377905	0.000045
1940	1.9293e+02	-2.7432	-17.214347	0.000436	4.360172	1.477266	0.000174
1941	1.9303e+02	-2.7047	-17.081121	0.000335	3.346179	1.133716	0.000134
1942	1.9313e+02	-2.6710	-16.988267	0.000233	2.332185	0.790166	0.000093
1943	1.9323e+02	-2.6229	-16.838893	0.000375	3.751776	1.271136	0.000150
1944	1.9333e+02	-2.5876	-16.713742	0.000314	3.143380	1.065006	0.000126
1945	1.9343e+02	-2.5379	-16.604739	0.000274	2.737783	0.927586	0.000110
1946	1.9353e+02	-2.5042	-16.483625	0.000304	3.041981	1.030651	0.000122
1947	1.9363e+02	-2.4577	-16.346363	0.000345	3.447578	1.168071	0.000138
1948	1.9373e+02	-2.4256	-16.269657	0.000193	1.926588	0.652746	0.000077
1949	1.9383e+02	-2.3871	-16.124320	0.000365	3.650377	1.236781	0.000146
1950	1.9393e+02	-2.3454	-16.007243	0.000294	2.940581	0.996296	0.000118
1951	1.9403e+02	-2.3037	-15.886129	0.000304	3.041981	1.030651	0.000122
1952	1.9412e+02	-2.2684	-15.732718	0.000385	3.853176	1.305491	0.000154
1953	1.9422e+02	-2.2219	-15.599492	0.000335	3.346179	1.133716	0.000134
1954	1.9432e+02	-2.1834	-15.450118	0.000375	3.751776	1.271136	0.000150
1955	1.9442e+02	-2.1433	-15.333042	0.000294	2.940581	0.996296	0.000118
1956	1.9452e+02	-2.1031	-15.155408	0.000446	4.461572	1.511621	0.000179
1957	1.9462e+02	-2.0743	-14.993922	0.000406	4.055974	1.374201	0.000162
1958	1.9472e+02	-2.0342	-14.844548	0.000375	3.751776	1.271136	0.000150
1959	1.9482e+02	-1.9892	-14.767843	0.000193	1.926588	0.652746	0.000077
1960	1.9492e+02	-1.9459	-14.642691	0.000314	3.143380	1.065006	0.000126
1961	1.9502e+02	-1.9187	-14.473132	0.000426	4.258773	1.442911	0.000170
1962	1.9512e+02	-1.8753	-14.339906	0.000335	3.346179	1.133716	0.000134
1963	1.9522e+02	-1.8256	-14.267238	0.000183	1.825188	0.618391	0.000073
1964	1.9532e+02	-1.7807	-14.162272	0.000264	2.636383	0.893231	0.000105
1965	1.9542e+02	-1.7502	-14.049232	0.000284	2.839182	0.961941	0.000114
1966	1.9552e+02	-1.7181	-13.916007	0.000335	3.346179	1.133716	0.000134
1967	1.9562e+02	-1.6652	-13.762596	0.000385	3.853176	1.305491	0.000154
1968	1.9572e+02	-1.6267	-13.625333	0.000345	3.447578	1.168071	0.000138
1969	1.9582e+02	-1.5866	-13.528442	0.000243	2.433585	0.824521	0.000097
1970	1.9592e+02	-1.5513	-13.415402	0.000284	2.839182	0.961941	0.000114
1971	1.9601e+02	-1.5128	-13.274102	0.000355	3.548978	1.202426	0.000142
1972	1.9611e+02	-1.4679	-13.128765	0.000365	3.650377	1.236781	0.000146
1973	1.9621e+02	-1.4294	-13.007651	0.000304	3.041981	1.030651	0.000122
1974	1.9631e+02	-1.3973	-12.821943	0.000466	4.664371	1.580332	0.000187
1975	1.9641e+02	-1.3476	-12.684680	0.000345	3.447578	1.168071	0.000138
1976	1.9651e+02	-1.3074	-12.555492	0.000324	3.244779	1.099361	0.000130
1977	1.9661e+02	-1.2738	-12.410155	0.000365	3.650377	1.236781	0.000146
1978	1.9671e+02	-1.2256	-12.325375	0.000213	2.129387	0.721456	0.000085
1979	1.9681e+02	-1.1887	-12.171964	0.000385	3.853176	1.305491	0.000154
1980	1.9691e+02	-1.1518	-12.030664	0.000355	3.548978	1.202426	0.000142
1981	1.9701e+02	-1.1101	-11.925699	0.000264	2.636383	0.893231	0.000105
1982	1.9711e+02	-1.0764	-11.788436	0.000345	3.447578	1.168071	0.000138
1983	1.9721e+02	-1.0363	-11.695582	0.000233	2.332185	0.790166	0.000093
1984	1.9731e+02	-0.9962	-11.550245	0.000365	3.650377	1.236781	0.000146
1985	1.9741e+02	-0.9545	-11.441243	0.000274	2.737783	0.927586	0.000110
1986	1.9751e+02	-0.9096	-11.324166	0.000294	2.940581	0.996296	0.000118
1987	1.9761e+02	-0.8695	-11.178829	0.000365	3.650377	1.236781	0.000146
1988	1.9771e+02	-0.8230	-11.029455	0.000375	3.751776	1.271136	0.000150
1989	1.9781e+02	-0.7861	-10.916415	0.000284	2.839182	0.961941	0.000114
1990	1.9791e+02	-0.7556	-10.763004	0.000385	3.853176	1.305491	0.000154
1991	1.9800e+02	-0.7059	-10.649964	0.000284	2.839182	0.961941	0.000114
1992	1.9810e+02	-0.6802	-10.492516	0.000395	3.954575	1.339846	0.000158
1993	1.9820e+02	-0.6353	-10.343142	0.000375	3.751776	1.271136	0.000150
1994	1.9830e+02	-0.5984	-10.185693	0.000395	3.954575	1.339846	0.000158
1995	1.9840e+02	-0.5567	-10.096876	0.000223	2.230786	0.755811	0.000089
1996	1.9850e+02	-0.5118	-9.923280	0.000436	4.360172	1.477266	0.000174
1997	1.9860e+02	-0.4749	-9.810240	0.000284	2.839182	0.961941	0.000114
1998	1.9870e+02	-0.4315	-9.709311	0.000253	2.534984	0.858876	0.000101
1999	1.9880e+02	-0.3930	-9.543789	0.000416	4.157374	1.408556	0.000166
2000	1.9890e+02	-0.3465	-9.406526	0.000345	3.447578	1.168071	0.000138
2001	1.9900e+02	-0.3144	-9.317709	0.000223	2.230786	0.755811	0.000089
2002	1.9910e+02	-0.2775	-9.196595	0.000304	3.041981	1.030651	0.000122
2003	1.9920e+02	-0.2358	-9.043184	0.000385	3.853176	1.305491	0.000154
2004	1.9930e+02	-0.1957	-8.918033	0.000314	3.143380	1.065006	0.000126
2005	1.9940e+02	-0.1540	-8.804993	0.000284	2.839182	0.961941	0.000114
2006	1.9950e+02	-0.1267	-8.643508	0.000406	4.055974	1.374201	0.000162
2007	1.9960e+02	-0.0674	-8.514319	0.000324	3.244779	1.099361	0.000130
2008	1.9970e+02	-0.0289	-8.364945	0.000375	3.751776	1.271136	0.000150
2009	1.9980e+02	0.0000	-8.219608	0.000375	3.751776	1.271136	0.000146

PMax (uC/cm2):	6.68e+01
Pr (uC/cm2):	3.06e+00
-Pr (uC/cm2):	-4.05e+00
PLoss (uC/cm2):	-4.04e+00
-Vc:	-9.06e-01
C (Max-Eff) (nF):	3.34e-01
K (Eff):	1.13e+03
Vert. (+/-Pr) Shift (uC/cm2):	-4.94e-01
Offset (uC/cm2):	4.17e+00

A (Loop Area - uC/cm2·Volts):	6.63e-02



Hysteresis Version: 5.48.1 - Radiant Technologies, Inc., 1999 - 9/12/24

