»»»»»»»»»»»»»»»»»»»»»»»»»»»»»»»»»»»» Hysteresis ««««««««««««««««««««««««««««««««««««
»»»  Executed Version:	5.48.1
»»»  Vision Version:	5.48.4 (R)
»»»  Vision Compiled:	9/18/24
»»»  Driver Version:	5.47.0
»»»  Windows Version:	Windows 8 or 8.1
»»»  Processor Information:	x86 (AMD or Intel) - 32 Processors
»»»  Tester Name:	PMF21124-494 (100V)
»»»  Tester S/N:	PMF21124-494
»»»  Internal Amp Type:	100V RevK 270k
»»»  Internal Amp S/N:	iAB2-596/K     
»»»  Execution Count:	1
»»»»»»»»»»»»»»»»»»»»»»»»»»»»»»»»»»»»»»»»»»««««««««««««««««««««««««««««««««««««««««««

Stored:	6/19/2025 - 18:30:3
Configured:	06/19/25 10:04:32 AM
Executed:	06/19/25 06:29:12 PM

»»»»»»»»»»»»»»»»»»»»»»»»»»»»»»»»»»» Sample Info ««««««««««««««««««««««««««««««««««««
Sample Name:	
Lot Name:	
Wafer Name:	
Die Row/Column:	0/0
Capacitor Number:	0
Sample Area (cm2):	1.00e-04
Sample Thickness (microns):	3.00e-01

Amplifier:	Internal

»»»»»»»»»»»»»»»»»»»»»»»»»»»»»»»»»»» Tester Info «««««««««««««««««««««««««««««««««««
Tester Name:	PMF21124-494 (100V)
Tester Serial Number:	PMF21124-494
Return Signal Amp. Level:	0.19 [Index: 3]

»»»»»»»»»»»»»»»»»»»»»»»»»»»»»»»» Hysteresis Info ««««««««««««««««««««««««««««««««««
Task Name:	Hyst-1168
Volts:	20.00
Field:	666.67 (kV/cm)
DCBias:	0.00
DCField:	0.00 (kV/cm)
Hysteresis Period (ms):	2.00e+02
Preset:	Enabled
Preset Delay (ms):	1.00e+03
Profile:	Standard Bipolar

»»»»»»»»»»»»»»»»»»»»»»»»»»»»»»»»»»»»»» Data «««««««««««««««««««««««««««««««««««««««
Points:	2009

Valid Data

Point	Time (ms)	Drive Voltage	Measured Polarization (uC/cm2)	Capacitance (uF)	Normalized Capacitance (uF/cm2)	Dielectric Constant	Instantaneous Current (mA)
   1	0.0000e+00	0.0160	-5.290666	0.000182	1.824822	0.618267	0.000073
   2	9.9500e-02	0.0401	-5.217998	0.000182	1.824822	0.618267	0.000073
   3	1.9900e-01	0.0770	-5.072661	0.000365	3.649645	1.236533	0.000146
   4	2.9850e-01	0.1155	-4.987881	0.000213	2.128959	0.721311	0.000085
   5	3.9800e-01	0.1540	-4.834470	0.000385	3.852403	1.305229	0.000154
   6	4.9750e-01	0.2086	-4.705282	0.000324	3.244129	1.099140	0.000130
   7	5.9700e-01	0.2342	-4.580130	0.000314	3.142749	1.064792	0.000126
   8	6.9650e-01	0.2775	-4.454979	0.000314	3.142749	1.064792	0.000126
   9	7.9600e-01	0.3192	-4.313680	0.000355	3.548266	1.202185	0.000142
  10	8.9550e-01	0.3433	-4.192565	0.000304	3.041370	1.030444	0.000122
  11	9.9500e-01	0.4107	-4.067414	0.000314	3.142749	1.064792	0.000126
  12	1.0945e+00	0.4364	-3.942263	0.000314	3.142749	1.064792	0.000126
  13	1.1940e+00	0.4829	-3.764629	0.000446	4.460677	1.511318	0.000179
  14	1.2935e+00	0.5166	-3.679849	0.000213	2.128959	0.721311	0.000085
  15	1.3930e+00	0.5438	-3.566809	0.000284	2.838612	0.961748	0.000114
  16	1.4925e+00	0.5952	-3.433584	0.000335	3.345508	1.133489	0.000134
  17	1.5920e+00	0.6353	-3.255950	0.000446	4.460677	1.511318	0.000179
  18	1.6915e+00	0.6802	-3.106576	0.000375	3.751024	1.270881	0.000150
  19	1.7910e+00	0.7091	-2.989499	0.000294	2.939991	0.996096	0.000118
  20	1.8905e+00	0.7668	-2.807828	0.000456	4.562056	1.545666	0.000183
  21	1.9900e+00	0.8037	-2.714974	0.000233	2.331717	0.790007	0.000093
  22	2.0895e+00	0.8390	-2.618083	0.000243	2.433096	0.824355	0.000097
  23	2.1890e+00	0.8775	-2.480820	0.000345	3.446887	1.167837	0.000138
  24	2.2885e+00	0.9240	-2.347594	0.000335	3.345508	1.133489	0.000134
  25	2.3880e+00	0.9545	-2.234555	0.000284	2.838612	0.961748	0.000114
  26	2.4875e+00	0.9946	-2.117478	0.000294	2.939991	0.996096	0.000118
  27	2.5870e+00	1.0347	-1.947918	0.000426	4.257919	1.442622	0.000170
  28	2.6865e+00	1.0716	-1.834878	0.000284	2.838612	0.961748	0.000114
  29	2.7860e+00	1.1165	-1.677430	0.000395	3.953782	1.339577	0.000158
  30	2.8855e+00	1.1567	-1.528056	0.000375	3.751024	1.270881	0.000150
  31	2.9850e+00	1.1935	-1.398868	0.000324	3.244129	1.099140	0.000130
  32	3.0845e+00	1.2337	-1.269679	0.000324	3.244129	1.099140	0.000130
  33	3.1840e+00	1.2689	-1.148565	0.000304	3.041370	1.030444	0.000122
  34	3.2835e+00	1.3155	-0.991117	0.000395	3.953782	1.339577	0.000158
  35	3.3830e+00	1.3572	-0.845780	0.000365	3.649645	1.236533	0.000146
  36	3.4825e+00	1.3989	-0.720629	0.000314	3.142749	1.064792	0.000126
  37	3.5820e+00	1.4342	-0.555106	0.000416	4.156540	1.408274	0.000166
  38	3.6815e+00	1.4695	-0.401695	0.000385	3.852403	1.305229	0.000154
  39	3.7810e+00	1.5128	-0.276544	0.000314	3.142749	1.064792	0.000126
  40	3.8805e+00	1.5545	-0.143318	0.000335	3.345508	1.133489	0.000134
  41	3.9800e+00	1.5930	-0.014130	0.000324	3.244129	1.099140	0.000130
  42	4.0795e+00	1.6395	0.086798	0.000253	2.534475	0.858704	0.000101
  43	4.1790e+00	1.6780	0.240210	0.000385	3.852403	1.305229	0.000154
  44	4.2785e+00	1.7101	0.361324	0.000304	3.041370	1.030444	0.000122
  45	4.3780e+00	1.7550	0.514735	0.000385	3.852403	1.305229	0.000154
  46	4.4775e+00	1.7855	0.635849	0.000304	3.041370	1.030444	0.000122
  47	4.5770e+00	1.8336	0.813483	0.000446	4.460677	1.511318	0.000179
  48	4.6765e+00	1.8721	0.930560	0.000294	2.939991	0.996096	0.000118
  49	4.7760e+00	1.9042	1.075897	0.000365	3.649645	1.236533	0.000146
  50	4.8755e+00	1.9524	1.164714	0.000223	2.230338	0.755659	0.000089
  51	4.9750e+00	1.9941	1.314088	0.000375	3.751024	1.270881	0.000150
  52	5.0745e+00	2.0326	1.487685	0.000436	4.359298	1.476970	0.000174
  53	5.1740e+00	2.0711	1.616873	0.000324	3.244129	1.099140	0.000130
  54	5.2735e+00	2.1128	1.766247	0.000375	3.751024	1.270881	0.000150
  55	5.3730e+00	2.1625	1.899472	0.000335	3.345508	1.133489	0.000134
  56	5.4725e+00	2.1882	2.020586	0.000304	3.041370	1.030444	0.000122
  57	5.5720e+00	2.2299	2.210332	0.000476	4.764814	1.614363	0.000191
  58	5.6715e+00	2.2652	2.387966	0.000446	4.460677	1.511318	0.000179
  59	5.7710e+00	2.3117	2.468709	0.000203	2.027580	0.686963	0.000081
  60	5.8705e+00	2.3454	2.610008	0.000355	3.548266	1.202185	0.000142
  61	5.9700e+00	2.3887	2.727085	0.000294	2.939991	0.996096	0.000118
  62	6.0695e+00	2.4352	2.920868	0.000487	4.866193	1.648711	0.000195
  63	6.1690e+00	2.4625	3.033908	0.000284	2.838612	0.961748	0.000114
  64	6.2685e+00	2.5122	3.142910	0.000274	2.737233	0.927400	0.000110
  65	6.3680e+00	2.5539	3.264024	0.000304	3.041370	1.030444	0.000122
  66	6.4675e+00	2.5924	3.437621	0.000436	4.359298	1.476970	0.000174
  67	6.5670e+00	2.6325	3.599107	0.000406	4.055161	1.373926	0.000162
  68	6.6665e+00	2.6710	3.708109	0.000274	2.737233	0.927400	0.000110
  69	6.7660e+00	2.7063	3.849409	0.000355	3.548266	1.202185	0.000142
  70	6.8655e+00	2.7464	3.974560	0.000314	3.142749	1.064792	0.000126
  71	6.9650e+00	2.7817	4.132008	0.000395	3.953782	1.339577	0.000158
  72	7.0645e+00	2.8283	4.277345	0.000365	3.649645	1.236533	0.000146
  73	7.1640e+00	2.8652	4.382311	0.000264	2.635854	0.893052	0.000105
  74	7.2635e+00	2.9037	4.576093	0.000487	4.866193	1.648711	0.000195
  75	7.3630e+00	2.9486	4.681059	0.000264	2.635854	0.893052	0.000105
  76	7.4625e+00	2.9903	4.826396	0.000365	3.649645	1.236533	0.000146
  77	7.5620e+00	3.0256	5.004030	0.000446	4.460677	1.511318	0.000179
  78	7.6615e+00	3.0705	5.141292	0.000345	3.446887	1.167837	0.000138
  79	7.7610e+00	3.1074	5.278555	0.000345	3.446887	1.167837	0.000138
  80	7.8605e+00	3.1539	5.448115	0.000426	4.257919	1.442622	0.000170
  81	7.9600e+00	3.1924	5.532895	0.000213	2.128959	0.721311	0.000085
  82	8.0595e+00	3.2309	5.666120	0.000335	3.345508	1.133489	0.000134
  83	8.1590e+00	3.2598	5.811457	0.000365	3.649645	1.236533	0.000146
  84	8.2585e+00	3.3079	5.964868	0.000385	3.852403	1.305229	0.000154
  85	8.3580e+00	3.3432	6.118279	0.000385	3.852403	1.305229	0.000154
  86	8.4575e+00	3.3849	6.255542	0.000345	3.446887	1.167837	0.000138
  87	8.5570e+00	3.4250	6.417027	0.000406	4.055161	1.373926	0.000162
  88	8.6565e+00	3.4667	6.526030	0.000274	2.737233	0.927400	0.000110
  89	8.7560e+00	3.4972	6.711738	0.000466	4.663435	1.580014	0.000187
  90	8.8555e+00	3.5438	6.796518	0.000213	2.128959	0.721311	0.000085
  91	8.9550e+00	3.5855	6.941855	0.000365	3.649645	1.236533	0.000146
  92	9.0545e+00	3.6191	7.087192	0.000365	3.649645	1.236533	0.000146
  93	9.1540e+00	3.6609	7.216380	0.000324	3.244129	1.099140	0.000130
  94	9.2535e+00	3.6978	7.353643	0.000345	3.446887	1.167837	0.000138
  95	9.3530e+00	3.7523	7.482831	0.000324	3.244129	1.099140	0.000130
  96	9.4525e+00	3.7828	7.672576	0.000476	4.764814	1.614363	0.000191
  97	9.5520e+00	3.8261	7.809839	0.000345	3.446887	1.167837	0.000138
  98	9.6515e+00	3.8710	7.955176	0.000365	3.649645	1.236533	0.000146
  99	9.7510e+00	3.8983	8.080327	0.000314	3.142749	1.064792	0.000126
 100	9.8505e+00	3.9416	8.173181	0.000233	2.331717	0.790007	0.000093
 101	9.9500e+00	3.9913	8.334667	0.000406	4.055161	1.373926	0.000162
 102	1.0050e+01	4.0330	8.467892	0.000335	3.345508	1.133489	0.000134
 103	1.0149e+01	4.0619	8.572858	0.000264	2.635854	0.893052	0.000105
 104	1.0248e+01	4.1004	8.734343	0.000406	4.055161	1.373926	0.000162
 105	1.0348e+01	4.1357	8.851420	0.000294	2.939991	0.996096	0.000118
 106	1.0447e+01	4.1854	8.980608	0.000324	3.244129	1.099140	0.000130
 107	1.0547e+01	4.2239	9.158242	0.000446	4.460677	1.511318	0.000179
 108	1.0646e+01	4.2624	9.315691	0.000395	3.953782	1.339577	0.000158
 109	1.0746e+01	4.3042	9.424693	0.000274	2.737233	0.927400	0.000110
 110	1.0845e+01	4.3411	9.565993	0.000355	3.548266	1.202185	0.000142
 111	1.0945e+01	4.3812	9.735553	0.000426	4.257919	1.442622	0.000170
 112	1.1044e+01	4.4197	9.840518	0.000264	2.635854	0.893052	0.000105
 113	1.1144e+01	4.4501	10.054487	0.000537	5.373088	1.820451	0.000215
 114	1.1243e+01	4.4999	10.123118	0.000172	1.723443	0.583918	0.000069
 115	1.1343e+01	4.5480	10.296715	0.000436	4.359298	1.476970	0.000174
 116	1.1443e+01	4.5881	10.450126	0.000385	3.852403	1.305229	0.000154
 117	1.1542e+01	4.6202	10.559129	0.000274	2.737233	0.927400	0.000110
 118	1.1642e+01	4.6635	10.692354	0.000335	3.345508	1.133489	0.000134
 119	1.1741e+01	4.6988	10.801357	0.000274	2.737233	0.927400	0.000110
 120	1.1841e+01	4.7421	10.922471	0.000304	3.041370	1.030444	0.000122
 121	1.1940e+01	4.7774	11.075882	0.000385	3.852403	1.305229	0.000154
 122	1.2040e+01	4.8239	11.201033	0.000314	3.142749	1.064792	0.000126
 123	1.2139e+01	4.8592	11.366556	0.000416	4.156540	1.408274	0.000166
 124	1.2239e+01	4.8945	11.515930	0.000375	3.751024	1.270881	0.000150
 125	1.2338e+01	4.9346	11.620895	0.000264	2.635854	0.893052	0.000105
 126	1.2438e+01	4.9747	11.774306	0.000385	3.852403	1.305229	0.000154
 127	1.2537e+01	5.0164	11.899458	0.000314	3.142749	1.064792	0.000126
 128	1.2636e+01	5.0614	12.052869	0.000385	3.852403	1.305229	0.000154
 129	1.2736e+01	5.0950	12.182057	0.000324	3.244129	1.099140	0.000130
 130	1.2835e+01	5.1384	12.347580	0.000416	4.156540	1.408274	0.000166
 131	1.2935e+01	5.1785	12.436397	0.000223	2.230338	0.755659	0.000089
 132	1.3034e+01	5.2170	12.638253	0.000507	5.068951	1.717407	0.000203
 133	1.3134e+01	5.2635	12.771479	0.000335	3.345508	1.133489	0.000134
 134	1.3233e+01	5.3100	12.892593	0.000304	3.041370	1.030444	0.000122
 135	1.3333e+01	5.3341	13.033893	0.000355	3.548266	1.202185	0.000142
 136	1.3432e+01	5.3806	13.155007	0.000304	3.041370	1.030444	0.000122
 137	1.3532e+01	5.4207	13.296307	0.000355	3.548266	1.202185	0.000142
 138	1.3632e+01	5.4576	13.401272	0.000264	2.635854	0.893052	0.000105
 139	1.3731e+01	5.4977	13.538535	0.000345	3.446887	1.167837	0.000138
 140	1.3831e+01	5.5346	13.695983	0.000395	3.953782	1.339577	0.000158
 141	1.3930e+01	5.5827	13.825171	0.000324	3.244129	1.099140	0.000130
 142	1.4030e+01	5.6068	13.954360	0.000324	3.244129	1.099140	0.000130
 143	1.4129e+01	5.6597	14.071437	0.000294	2.939991	0.996096	0.000118
 144	1.4229e+01	5.6966	14.245033	0.000436	4.359298	1.476970	0.000174
 145	1.4328e+01	5.7415	14.398445	0.000385	3.852403	1.305229	0.000154
 146	1.4428e+01	5.7849	14.483224	0.000213	2.128959	0.721311	0.000085
 147	1.4527e+01	5.8089	14.648747	0.000416	4.156540	1.408274	0.000166
 148	1.4627e+01	5.8587	14.781973	0.000335	3.345508	1.133489	0.000134
 149	1.4726e+01	5.8988	14.931347	0.000375	3.751024	1.270881	0.000150
 150	1.4825e+01	5.9325	15.080721	0.000375	3.751024	1.270881	0.000150
 151	1.4925e+01	5.9822	15.189723	0.000274	2.737233	0.927400	0.000110
 152	1.5024e+01	6.0143	15.355246	0.000416	4.156540	1.408274	0.000166
 153	1.5124e+01	6.0496	15.500583	0.000365	3.649645	1.236533	0.000146
 154	1.5223e+01	6.0977	15.621697	0.000304	3.041370	1.030444	0.000122
 155	1.5323e+01	6.1346	15.762996	0.000355	3.548266	1.202185	0.000142
 156	1.5422e+01	6.1779	15.908333	0.000365	3.649645	1.236533	0.000146
 157	1.5522e+01	6.2084	16.017336	0.000274	2.737233	0.927400	0.000110
 158	1.5621e+01	6.2581	16.154599	0.000345	3.446887	1.167837	0.000138
 159	1.5721e+01	6.2966	16.291861	0.000345	3.446887	1.167837	0.000138
 160	1.5820e+01	6.3383	16.425087	0.000335	3.345508	1.133489	0.000134
 161	1.5920e+01	6.3832	16.554275	0.000324	3.244129	1.099140	0.000130
 162	1.6020e+01	6.4121	16.715761	0.000406	4.055161	1.373926	0.000162
 163	1.6119e+01	6.4458	16.844949	0.000324	3.244129	1.099140	0.000130
 164	1.6218e+01	6.4907	16.953952	0.000274	2.737233	0.927400	0.000110
 165	1.6318e+01	6.5308	17.087177	0.000335	3.345508	1.133489	0.000134
 166	1.6418e+01	6.5709	17.264811	0.000446	4.460677	1.511318	0.000179
 167	1.6517e+01	6.6062	17.381888	0.000294	2.939991	0.996096	0.000118
 168	1.6616e+01	6.6463	17.531262	0.000375	3.751024	1.270881	0.000150
 169	1.6716e+01	6.6929	17.640265	0.000274	2.737233	0.927400	0.000110
 170	1.6816e+01	6.7330	17.789639	0.000375	3.751024	1.270881	0.000150
 171	1.6915e+01	6.7683	17.926901	0.000345	3.446887	1.167837	0.000138
 172	1.7015e+01	6.8180	18.064164	0.000345	3.446887	1.167837	0.000138
 173	1.7114e+01	6.8469	18.253909	0.000476	4.764814	1.614363	0.000191
 174	1.7213e+01	6.8902	18.318503	0.000162	1.622064	0.549570	0.000065
 175	1.7313e+01	6.9287	18.471915	0.000385	3.852403	1.305229	0.000154
 176	1.7413e+01	6.9704	18.641474	0.000426	4.257919	1.442622	0.000170
 177	1.7512e+01	7.0009	18.754514	0.000284	2.838612	0.961748	0.000114
 178	1.7611e+01	7.0442	18.875628	0.000304	3.041370	1.030444	0.000122
 179	1.7711e+01	7.0875	19.085559	0.000527	5.271709	1.786103	0.000211
 180	1.7811e+01	7.1260	19.202636	0.000294	2.939991	0.996096	0.000118
 181	1.7910e+01	7.1677	19.327787	0.000314	3.142749	1.064792	0.000126
 182	1.8009e+01	7.2126	19.465050	0.000345	3.446887	1.167837	0.000138
 183	1.8109e+01	7.2463	19.638647	0.000436	4.359298	1.476970	0.000174
 184	1.8209e+01	7.2848	19.779947	0.000355	3.548266	1.202185	0.000142
 185	1.8308e+01	7.3217	19.905098	0.000314	3.142749	1.064792	0.000126
 186	1.8407e+01	7.3618	20.014100	0.000274	2.737233	0.927400	0.000110
 187	1.8507e+01	7.4067	20.139252	0.000314	3.142749	1.064792	0.000126
 188	1.8607e+01	7.4468	20.312848	0.000436	4.359298	1.476970	0.000174
 189	1.8706e+01	7.4886	20.446074	0.000335	3.345508	1.133489	0.000134
 190	1.8805e+01	7.5367	20.591411	0.000365	3.649645	1.236533	0.000146
 191	1.8905e+01	7.5736	20.728673	0.000345	3.446887	1.167837	0.000138
 192	1.9005e+01	7.6185	20.878047	0.000375	3.751024	1.270881	0.000150
 193	1.9104e+01	7.6490	21.027421	0.000375	3.751024	1.270881	0.000150
 194	1.9203e+01	7.6795	21.140461	0.000284	2.838612	0.961748	0.000114
 195	1.9303e+01	7.7292	21.310021	0.000426	4.257919	1.442622	0.000170
 196	1.9402e+01	7.7629	21.414987	0.000264	2.635854	0.893052	0.000105
 197	1.9502e+01	7.8062	21.584546	0.000426	4.257919	1.442622	0.000170
 198	1.9602e+01	7.8495	21.721809	0.000345	3.446887	1.167837	0.000138
 199	1.9701e+01	7.8912	21.842923	0.000304	3.041370	1.030444	0.000122
 200	1.9800e+01	7.9313	21.992297	0.000375	3.751024	1.270881	0.000150
 201	1.9900e+01	7.9650	22.133597	0.000355	3.548266	1.202185	0.000142
 202	2.0000e+01	8.0083	22.282971	0.000375	3.751024	1.270881	0.000150
 203	2.0099e+01	8.0436	22.448493	0.000416	4.156540	1.408274	0.000166
 204	2.0198e+01	8.0805	22.581719	0.000335	3.345508	1.133489	0.000134
 205	2.0298e+01	8.1286	22.706870	0.000314	3.142749	1.064792	0.000126
 206	2.0398e+01	8.1655	22.836058	0.000324	3.244129	1.099140	0.000130
 207	2.0497e+01	8.1944	22.969284	0.000335	3.345508	1.133489	0.000134
 208	2.0596e+01	8.2329	23.150955	0.000456	4.562056	1.545666	0.000183
 209	2.0696e+01	8.2794	23.316477	0.000416	4.156540	1.408274	0.000166
 210	2.0796e+01	8.3388	23.449703	0.000335	3.345508	1.133489	0.000134
 211	2.0895e+01	8.3645	23.550631	0.000253	2.534475	0.858704	0.000101
 212	2.0994e+01	8.4030	23.695968	0.000365	3.649645	1.236533	0.000146
 213	2.1094e+01	8.4511	23.853417	0.000395	3.953782	1.339577	0.000158
 214	2.1194e+01	8.4960	23.974531	0.000304	3.041370	1.030444	0.000122
 215	2.1293e+01	8.5313	24.099682	0.000314	3.142749	1.064792	0.000126
 216	2.1392e+01	8.5650	24.261167	0.000406	4.055161	1.373926	0.000162
 217	2.1492e+01	8.6003	24.410541	0.000375	3.751024	1.270881	0.000150
 218	2.1591e+01	8.6324	24.547804	0.000345	3.446887	1.167837	0.000138
 219	2.1691e+01	8.6853	24.717364	0.000426	4.257919	1.442622	0.000170
 220	2.1791e+01	8.7206	24.838478	0.000304	3.041370	1.030444	0.000122
 221	2.1890e+01	8.7703	25.016112	0.000446	4.460677	1.511318	0.000179
 222	2.1989e+01	8.8024	25.137226	0.000304	3.041370	1.030444	0.000122
 223	2.2089e+01	8.8441	25.262377	0.000314	3.142749	1.064792	0.000126
 224	2.2189e+01	8.8891	25.456159	0.000487	4.866193	1.648711	0.000195
 225	2.2288e+01	8.9227	25.544976	0.000223	2.230338	0.755659	0.000089
 226	2.2387e+01	8.9612	25.694350	0.000375	3.751024	1.270881	0.000150
 227	2.2487e+01	9.0094	25.871984	0.000446	4.460677	1.511318	0.000179
 228	2.2587e+01	9.0431	25.976950	0.000264	2.635854	0.893052	0.000105
 229	2.2686e+01	9.0767	26.142472	0.000416	4.156540	1.408274	0.000166
 230	2.2785e+01	9.1233	26.267624	0.000314	3.142749	1.064792	0.000126
 231	2.2885e+01	9.1666	26.400849	0.000335	3.345508	1.133489	0.000134
 232	2.2985e+01	9.2003	26.530038	0.000324	3.244129	1.099140	0.000130
 233	2.3084e+01	9.2388	26.679412	0.000375	3.751024	1.270881	0.000150
 234	2.3183e+01	9.2933	26.832823	0.000385	3.852403	1.305229	0.000154
 235	2.3283e+01	9.3190	26.974122	0.000355	3.548266	1.202185	0.000142
 236	2.3383e+01	9.3639	27.103311	0.000324	3.244129	1.099140	0.000130
 237	2.3482e+01	9.4024	27.280945	0.000446	4.460677	1.511318	0.000179
 238	2.3581e+01	9.4393	27.402059	0.000304	3.041370	1.030444	0.000122
 239	2.3681e+01	9.4778	27.527210	0.000314	3.142749	1.064792	0.000126
 240	2.3780e+01	9.5195	27.660436	0.000335	3.345508	1.133489	0.000134
 241	2.3880e+01	9.5596	27.789624	0.000324	3.244129	1.099140	0.000130
 242	2.3980e+01	9.5997	27.938998	0.000375	3.751024	1.270881	0.000150
 243	2.4079e+01	9.6446	28.116632	0.000446	4.460677	1.511318	0.000179
 244	2.4178e+01	9.6815	28.233709	0.000294	2.939991	0.996096	0.000118
 245	2.4278e+01	9.7233	28.395194	0.000406	4.055161	1.373926	0.000162
 246	2.4378e+01	9.7585	28.508234	0.000284	2.838612	0.961748	0.000114
 247	2.4477e+01	9.8019	28.702017	0.000487	4.866193	1.648711	0.000195
 248	2.4576e+01	9.8452	28.859465	0.000395	3.953782	1.339577	0.000158
 249	2.4676e+01	9.8853	28.952319	0.000233	2.331717	0.790007	0.000093
 250	2.4776e+01	9.9206	29.073433	0.000304	3.041370	1.030444	0.000122
 251	2.4875e+01	9.9687	29.226844	0.000385	3.852403	1.305229	0.000154
 252	2.4974e+01	9.9960	29.388330	0.000406	4.055161	1.373926	0.000162
 253	2.5074e+01	10.0297	29.489258	0.000253	2.534475	0.858704	0.000101
 254	2.5174e+01	10.0762	29.634595	0.000365	3.649645	1.236533	0.000146
 255	2.5273e+01	10.1195	29.820303	0.000466	4.663435	1.580014	0.000187
 256	2.5372e+01	10.1500	29.905083	0.000213	2.128959	0.721311	0.000085
 257	2.5472e+01	10.1965	30.046383	0.000355	3.548266	1.202185	0.000142
 258	2.5572e+01	10.2286	30.183645	0.000345	3.446887	1.167837	0.000138
 259	2.5671e+01	10.2719	30.349168	0.000416	4.156540	1.408274	0.000166
 260	2.5770e+01	10.3104	30.546988	0.000497	4.967572	1.683059	0.000199
 261	2.5870e+01	10.3489	30.619656	0.000182	1.824822	0.618267	0.000073
 262	2.5970e+01	10.3986	30.781141	0.000406	4.055161	1.373926	0.000162
 263	2.6069e+01	10.4403	30.882070	0.000253	2.534475	0.858704	0.000101
 264	2.6169e+01	10.4740	31.019332	0.000345	3.446887	1.167837	0.000138
 265	2.6268e+01	10.5141	31.184855	0.000416	4.156540	1.408274	0.000166
 266	2.6367e+01	10.5494	31.322118	0.000345	3.446887	1.167837	0.000138
 267	2.6467e+01	10.5992	31.479566	0.000395	3.953782	1.339577	0.000158
 268	2.6567e+01	10.6393	31.576457	0.000243	2.433096	0.824355	0.000097
 269	2.6666e+01	10.6714	31.713720	0.000345	3.446887	1.167837	0.000138
 270	2.6765e+01	10.7259	31.867131	0.000385	3.852403	1.305229	0.000154
 271	2.6865e+01	10.7548	31.976134	0.000274	2.737233	0.927400	0.000110
 272	2.6965e+01	10.7981	32.121470	0.000365	3.649645	1.236533	0.000146
 273	2.7064e+01	10.8286	32.246622	0.000314	3.142749	1.064792	0.000126
 274	2.7163e+01	10.8767	32.391959	0.000365	3.649645	1.236533	0.000146
 275	2.7263e+01	10.9008	32.549407	0.000395	3.953782	1.339577	0.000158
 276	2.7363e+01	10.9617	32.682632	0.000335	3.345508	1.133489	0.000134
 277	2.7462e+01	10.9890	32.771449	0.000223	2.230338	0.755659	0.000089
 278	2.7561e+01	11.0371	32.916786	0.000365	3.649645	1.236533	0.000146
 279	2.7661e+01	11.0708	33.098457	0.000456	4.562056	1.545666	0.000183
 280	2.7761e+01	11.1125	33.211497	0.000284	2.838612	0.961748	0.000114
 281	2.7860e+01	11.1623	33.352797	0.000355	3.548266	1.202185	0.000142
 282	2.7959e+01	11.1975	33.469874	0.000294	2.939991	0.996096	0.000118
 283	2.8059e+01	11.2264	33.623285	0.000385	3.852403	1.305229	0.000154
 284	2.8159e+01	11.2745	33.821105	0.000497	4.967572	1.683059	0.000199
 285	2.8258e+01	11.3195	33.958367	0.000345	3.446887	1.167837	0.000138
 286	2.8358e+01	11.3451	34.071407	0.000284	2.838612	0.961748	0.000114
 287	2.8457e+01	11.3949	34.152150	0.000203	2.027580	0.686963	0.000081
 288	2.8556e+01	11.4350	34.297487	0.000365	3.649645	1.236533	0.000146
 289	2.8656e+01	11.4735	34.426675	0.000324	3.244129	1.099140	0.000130
 290	2.8756e+01	11.5072	34.588160	0.000406	4.055161	1.373926	0.000162
 291	2.8855e+01	11.5569	34.713312	0.000314	3.142749	1.064792	0.000126
 292	2.8954e+01	11.5954	34.818277	0.000264	2.635854	0.893052	0.000105
 293	2.9054e+01	11.6371	34.967651	0.000375	3.751024	1.270881	0.000150
 294	2.9154e+01	11.6692	35.092802	0.000314	3.142749	1.064792	0.000126
 295	2.9253e+01	11.7221	35.226028	0.000335	3.345508	1.133489	0.000134
 296	2.9352e+01	11.7494	35.359253	0.000335	3.345508	1.133489	0.000134
 297	2.9452e+01	11.7847	35.504590	0.000365	3.649645	1.236533	0.000146
 298	2.9552e+01	11.8280	35.617630	0.000284	2.838612	0.961748	0.000114
 299	2.9651e+01	11.8713	35.758930	0.000355	3.548266	1.202185	0.000142
 300	2.9750e+01	11.9082	35.900230	0.000355	3.548266	1.202185	0.000142
 301	2.9850e+01	11.9387	36.041529	0.000355	3.548266	1.202185	0.000142
 302	2.9950e+01	11.9948	36.174755	0.000335	3.345508	1.133489	0.000134
 303	3.0049e+01	12.0317	36.328166	0.000385	3.852403	1.305229	0.000154
 304	3.0148e+01	12.0735	36.461391	0.000335	3.345508	1.133489	0.000134
 305	3.0248e+01	12.1168	36.590580	0.000324	3.244129	1.099140	0.000130
 306	3.0348e+01	12.1521	36.667285	0.000193	1.926201	0.652615	0.000077
 307	3.0447e+01	12.1890	36.800511	0.000335	3.345508	1.133489	0.000134
 308	3.0547e+01	12.2291	36.982182	0.000456	4.562056	1.545666	0.000183
 309	3.0646e+01	12.2692	37.070999	0.000223	2.230338	0.755659	0.000089
 310	3.0745e+01	12.3061	37.220373	0.000375	3.751024	1.270881	0.000150
 311	3.0845e+01	12.3510	37.357636	0.000345	3.446887	1.167837	0.000138
 312	3.0945e+01	12.3911	37.446453	0.000223	2.230338	0.755659	0.000089
 313	3.1044e+01	12.4296	37.603901	0.000395	3.953782	1.339577	0.000158
 314	3.1143e+01	12.4681	37.729052	0.000314	3.142749	1.064792	0.000126
 315	3.1243e+01	12.5098	37.846129	0.000294	2.939991	0.996096	0.000118
 316	3.1343e+01	12.5547	38.011652	0.000416	4.156540	1.408274	0.000166
 317	3.1442e+01	12.5804	38.136803	0.000314	3.142749	1.064792	0.000126
 318	3.1541e+01	12.6237	38.265991	0.000324	3.244129	1.099140	0.000130
 319	3.1641e+01	12.6766	38.423439	0.000395	3.953782	1.339577	0.000158
 320	3.1741e+01	12.7087	38.536479	0.000284	2.838612	0.961748	0.000114
 321	3.1840e+01	12.7392	38.653556	0.000294	2.939991	0.996096	0.000118
 322	3.1939e+01	12.7905	38.855413	0.000507	5.068951	1.717407	0.000203
 323	3.2039e+01	12.8290	38.956341	0.000253	2.534475	0.858704	0.000101
 324	3.2139e+01	12.8884	39.065344	0.000274	2.737233	0.927400	0.000110
 325	3.2238e+01	12.9077	39.194532	0.000324	3.244129	1.099140	0.000130
 326	3.2337e+01	12.9494	39.307572	0.000284	2.838612	0.961748	0.000114
 327	3.2437e+01	12.9750	39.420612	0.000284	2.838612	0.961748	0.000114
 328	3.2536e+01	13.0183	39.569986	0.000375	3.751024	1.270881	0.000150
 329	3.2636e+01	13.0536	39.715323	0.000365	3.649645	1.236533	0.000146
 330	3.2736e+01	13.1050	39.800103	0.000213	2.128959	0.721311	0.000085
 331	3.2835e+01	13.1515	39.945440	0.000365	3.649645	1.236533	0.000146
 332	3.2934e+01	13.1820	40.058479	0.000284	2.838612	0.961748	0.000114
 333	3.3034e+01	13.2285	40.224002	0.000416	4.156540	1.408274	0.000166
 334	3.3133e+01	13.2606	40.353190	0.000324	3.244129	1.099140	0.000130
 335	3.3233e+01	13.2959	40.498527	0.000365	3.649645	1.236533	0.000146
 336	3.3333e+01	13.3376	40.607530	0.000274	2.737233	0.927400	0.000110
 337	3.3432e+01	13.3825	40.744792	0.000345	3.446887	1.167837	0.000138
 338	3.3532e+01	13.4194	40.886092	0.000355	3.548266	1.202185	0.000142
 339	3.3631e+01	13.4611	41.023355	0.000345	3.446887	1.167837	0.000138
 340	3.3730e+01	13.5044	41.132357	0.000274	2.737233	0.927400	0.000110
 341	3.3830e+01	13.5429	41.293843	0.000406	4.055161	1.373926	0.000162
 342	3.3929e+01	13.5798	41.467440	0.000436	4.359298	1.476970	0.000174
 343	3.4029e+01	13.6231	41.576442	0.000274	2.737233	0.927400	0.000110
 344	3.4129e+01	13.6616	41.665259	0.000223	2.230338	0.755659	0.000089
 345	3.4228e+01	13.7082	41.778299	0.000284	2.838612	0.961748	0.000114
 346	3.4328e+01	13.7354	41.927673	0.000375	3.751024	1.270881	0.000150
 347	3.4427e+01	13.7852	42.089159	0.000406	4.055161	1.373926	0.000162
 348	3.4526e+01	13.8221	42.214310	0.000314	3.142749	1.064792	0.000126
 349	3.4626e+01	13.8590	42.343498	0.000324	3.244129	1.099140	0.000130
 350	3.4725e+01	13.9007	42.472687	0.000324	3.244129	1.099140	0.000130
 351	3.4825e+01	13.9424	42.593801	0.000304	3.041370	1.030444	0.000122
 352	3.4925e+01	13.9841	42.731063	0.000345	3.446887	1.167837	0.000138
 353	3.5024e+01	14.0210	42.872363	0.000355	3.548266	1.202185	0.000142
 354	3.5123e+01	14.0563	42.969254	0.000243	2.433096	0.824355	0.000097
 355	3.5223e+01	14.1012	43.175148	0.000517	5.170330	1.751755	0.000207
 356	3.5322e+01	14.1445	43.292225	0.000294	2.939991	0.996096	0.000118
 357	3.5422e+01	14.1702	43.441599	0.000375	3.751024	1.270881	0.000150
 358	3.5522e+01	14.2263	43.542528	0.000253	2.534475	0.858704	0.000101
 359	3.5621e+01	14.2584	43.679790	0.000345	3.446887	1.167837	0.000138
 360	3.5721e+01	14.2969	43.873573	0.000487	4.866193	1.648711	0.000195
 361	3.5820e+01	14.3370	43.994687	0.000304	3.041370	1.030444	0.000122
 362	3.5919e+01	14.3771	44.107727	0.000284	2.838612	0.961748	0.000114
 363	3.6019e+01	14.4156	44.200581	0.000233	2.331717	0.790007	0.000093
 364	3.6118e+01	14.4654	44.374177	0.000436	4.359298	1.476970	0.000174
 365	3.6218e+01	14.5039	44.495292	0.000304	3.041370	1.030444	0.000122
 366	3.6318e+01	14.5440	44.580071	0.000213	2.128959	0.721311	0.000085
 367	3.6417e+01	14.5857	44.765780	0.000466	4.663435	1.580014	0.000187
 368	3.6517e+01	14.6130	44.878819	0.000284	2.838612	0.961748	0.000114
 369	3.6616e+01	14.6563	44.987822	0.000274	2.737233	0.927400	0.000110
 370	3.6715e+01	14.6980	45.141233	0.000385	3.852403	1.305229	0.000154
 371	3.6815e+01	14.7269	45.286570	0.000365	3.649645	1.236533	0.000146
 372	3.6914e+01	14.7718	45.411721	0.000314	3.142749	1.064792	0.000126
 373	3.7014e+01	14.8055	45.544947	0.000335	3.345508	1.133489	0.000134
 374	3.7114e+01	14.8600	45.649912	0.000264	2.635854	0.893052	0.000105
 375	3.7213e+01	14.8969	45.819472	0.000426	4.257919	1.442622	0.000170
 376	3.7313e+01	14.9322	45.952698	0.000335	3.345508	1.133489	0.000134
 377	3.7412e+01	14.9787	46.102072	0.000375	3.751024	1.270881	0.000150
 378	3.7511e+01	15.0204	46.267594	0.000416	4.156540	1.408274	0.000166
 379	3.7611e+01	15.0509	46.425042	0.000395	3.953782	1.339577	0.000158
 380	3.7711e+01	15.0814	46.534045	0.000274	2.737233	0.927400	0.000110
 381	3.7810e+01	15.1440	46.659196	0.000314	3.142749	1.064792	0.000126
 382	3.7910e+01	15.1793	46.743976	0.000213	2.128959	0.721311	0.000085
 383	3.8009e+01	15.2178	46.897387	0.000385	3.852403	1.305229	0.000154
 384	3.8108e+01	15.2546	47.018501	0.000304	3.041370	1.030444	0.000122
 385	3.8208e+01	15.2948	47.179987	0.000406	4.055161	1.373926	0.000162
 386	3.8307e+01	15.3284	47.305138	0.000314	3.142749	1.064792	0.000126
 387	3.8407e+01	15.3830	47.446438	0.000355	3.548266	1.202185	0.000142
 388	3.8507e+01	15.4167	47.547366	0.000253	2.534475	0.858704	0.000101
 389	3.8606e+01	15.4520	47.737112	0.000476	4.764814	1.614363	0.000191
 390	3.8706e+01	15.4921	47.854188	0.000294	2.939991	0.996096	0.000118
 391	3.8805e+01	15.5402	47.983377	0.000324	3.244129	1.099140	0.000130
 392	3.8904e+01	15.5659	48.112565	0.000324	3.244129	1.099140	0.000130
 393	3.9004e+01	15.6156	48.265976	0.000385	3.852403	1.305229	0.000154
 394	3.9103e+01	15.6525	48.391128	0.000314	3.142749	1.064792	0.000126
 395	3.9203e+01	15.6974	48.544539	0.000385	3.852403	1.305229	0.000154
 396	3.9303e+01	15.7279	48.681801	0.000345	3.446887	1.167837	0.000138
 397	3.9402e+01	15.7808	48.786767	0.000264	2.635854	0.893052	0.000105
 398	3.9502e+01	15.8209	48.968438	0.000456	4.562056	1.545666	0.000183
 399	3.9601e+01	15.8546	49.097626	0.000324	3.244129	1.099140	0.000130
 400	3.9700e+01	15.8947	49.190480	0.000233	2.331717	0.790007	0.000093
 401	3.9800e+01	15.9252	49.360040	0.000426	4.257919	1.442622	0.000170
 402	3.9900e+01	15.9798	49.469043	0.000274	2.737233	0.927400	0.000110
 403	3.9999e+01	16.0167	49.618417	0.000375	3.751024	1.270881	0.000150
 404	4.0099e+01	16.0520	49.739531	0.000304	3.041370	1.030444	0.000122
 405	4.0198e+01	16.0969	49.892942	0.000385	3.852403	1.305229	0.000154
 406	4.0297e+01	16.1338	49.997908	0.000264	2.635854	0.893052	0.000105
 407	4.0397e+01	16.1739	50.131133	0.000335	3.345508	1.133489	0.000134
 408	4.0496e+01	16.2124	50.272433	0.000355	3.548266	1.202185	0.000142
 409	4.0596e+01	16.2477	50.413733	0.000355	3.548266	1.202185	0.000142
 410	4.0696e+01	16.2910	50.563107	0.000375	3.751024	1.270881	0.000150
 411	4.0795e+01	16.3279	50.676146	0.000284	2.838612	0.961748	0.000114
 412	4.0895e+01	16.3776	50.805335	0.000324	3.244129	1.099140	0.000130
 413	4.0994e+01	16.4129	50.958746	0.000385	3.852403	1.305229	0.000154
 414	4.1093e+01	16.4562	51.067749	0.000274	2.737233	0.927400	0.000110
 415	4.1193e+01	16.4899	51.221160	0.000385	3.852403	1.305229	0.000154
 416	4.1292e+01	16.5364	51.338237	0.000294	2.939991	0.996096	0.000118
 417	4.1392e+01	16.5701	51.499722	0.000406	4.055161	1.373926	0.000162
 418	4.1492e+01	16.6118	51.641022	0.000355	3.548266	1.202185	0.000142
 419	4.1591e+01	16.6487	51.770210	0.000324	3.244129	1.099140	0.000130
 420	4.1691e+01	16.6856	51.842879	0.000182	1.824822	0.618267	0.000073
 421	4.1790e+01	16.7305	52.024550	0.000456	4.562056	1.545666	0.000183
 422	4.1889e+01	16.7739	52.165849	0.000355	3.548266	1.202185	0.000142
 423	4.1989e+01	16.8043	52.323298	0.000395	3.953782	1.339577	0.000158
 424	4.2089e+01	16.8541	52.428263	0.000264	2.635854	0.893052	0.000105
 425	4.2188e+01	16.8797	52.549377	0.000304	3.041370	1.030444	0.000122
 426	4.2288e+01	16.9263	52.674529	0.000314	3.142749	1.064792	0.000126
 427	4.2387e+01	16.9760	52.803717	0.000324	3.244129	1.099140	0.000130
 428	4.2486e+01	17.0145	52.928868	0.000314	3.142749	1.064792	0.000126
 429	4.2586e+01	17.0353	53.066131	0.000345	3.446887	1.167837	0.000138
 430	4.2685e+01	17.1011	53.199356	0.000335	3.345508	1.133489	0.000134
 431	4.2785e+01	17.1268	53.336619	0.000345	3.446887	1.167837	0.000138
 432	4.2885e+01	17.1749	53.477919	0.000355	3.548266	1.202185	0.000142
 433	4.2984e+01	17.2070	53.603070	0.000314	3.142749	1.064792	0.000126
 434	4.3084e+01	17.2407	53.720147	0.000294	2.939991	0.996096	0.000118
 435	4.3183e+01	17.2920	53.861446	0.000355	3.548266	1.202185	0.000142
 436	4.3282e+01	17.3241	53.974486	0.000284	2.838612	0.961748	0.000114
 437	4.3382e+01	17.3642	54.119823	0.000365	3.649645	1.236533	0.000146
 438	4.3481e+01	17.4123	54.220752	0.000253	2.534475	0.858704	0.000101
 439	4.3581e+01	17.4573	54.374163	0.000385	3.852403	1.305229	0.000154
 440	4.3681e+01	17.4781	54.495277	0.000304	3.041370	1.030444	0.000122
 441	4.3780e+01	17.5311	54.680985	0.000466	4.663435	1.580014	0.000187
 442	4.3880e+01	17.5728	54.741542	0.000152	1.520685	0.515222	0.000061
 443	4.3979e+01	17.6113	54.903027	0.000406	4.055161	1.373926	0.000162
 444	4.4078e+01	17.6450	55.003956	0.000253	2.534475	0.858704	0.000101
 445	4.4178e+01	17.6819	55.141218	0.000345	3.446887	1.167837	0.000138
 446	4.4278e+01	17.7204	55.258295	0.000294	2.939991	0.996096	0.000118
 447	4.4377e+01	17.7685	55.387484	0.000324	3.244129	1.099140	0.000130
 448	4.4477e+01	17.7990	55.528784	0.000355	3.548266	1.202185	0.000142
 449	4.4576e+01	17.8423	55.682195	0.000385	3.852403	1.305229	0.000154
 450	4.4675e+01	17.8888	55.791197	0.000274	2.737233	0.927400	0.000110
 451	4.4775e+01	17.9209	55.944608	0.000385	3.852403	1.305229	0.000154
 452	4.4874e+01	17.9658	56.041500	0.000243	2.433096	0.824355	0.000097
 453	4.4974e+01	18.0043	56.190874	0.000375	3.751024	1.270881	0.000150
 454	4.5074e+01	18.0508	56.320062	0.000324	3.244129	1.099140	0.000130
 455	4.5173e+01	18.0941	56.445213	0.000314	3.142749	1.064792	0.000126
 456	4.5273e+01	18.1182	56.558253	0.000284	2.838612	0.961748	0.000114
 457	4.5372e+01	18.1647	56.691479	0.000335	3.345508	1.133489	0.000134
 458	4.5471e+01	18.2032	56.816630	0.000314	3.142749	1.064792	0.000126
 459	4.5571e+01	18.2433	56.953892	0.000345	3.446887	1.167837	0.000138
 460	4.5670e+01	18.2818	57.058858	0.000264	2.635854	0.893052	0.000105
 461	4.5770e+01	18.3332	57.208232	0.000375	3.751024	1.270881	0.000150
 462	4.5870e+01	18.3669	57.337420	0.000324	3.244129	1.099140	0.000130
 463	4.5969e+01	18.4086	57.466609	0.000324	3.244129	1.099140	0.000130
 464	4.6069e+01	18.4423	57.611946	0.000365	3.649645	1.236533	0.000146
 465	4.6168e+01	18.4936	57.696725	0.000213	2.128959	0.721311	0.000085
 466	4.6267e+01	18.5177	57.870322	0.000436	4.359298	1.476970	0.000174
 467	4.6367e+01	18.5594	58.011622	0.000355	3.548266	1.202185	0.000142
 468	4.6467e+01	18.6027	58.096402	0.000213	2.128959	0.721311	0.000085
 469	4.6566e+01	18.6444	58.225590	0.000324	3.244129	1.099140	0.000130
 470	4.6666e+01	18.6829	58.354779	0.000324	3.244129	1.099140	0.000130
 471	4.6765e+01	18.7310	58.475893	0.000304	3.041370	1.030444	0.000122
 472	4.6864e+01	18.7679	58.649489	0.000436	4.359298	1.476970	0.000174
 473	4.6964e+01	18.8000	58.734269	0.000213	2.128959	0.721311	0.000085
 474	4.7063e+01	18.8401	58.871532	0.000345	3.446887	1.167837	0.000138
 475	4.7163e+01	18.8818	58.980535	0.000274	2.737233	0.927400	0.000110
 476	4.7263e+01	18.9299	59.113760	0.000335	3.345508	1.133489	0.000134
 477	4.7362e+01	18.9508	59.238911	0.000314	3.142749	1.064792	0.000126
 478	4.7462e+01	19.0070	59.335803	0.000243	2.433096	0.824355	0.000097
 479	4.7561e+01	19.0374	59.477102	0.000355	3.548266	1.202185	0.000142
 480	4.7660e+01	19.0840	59.618402	0.000355	3.548266	1.202185	0.000142
 481	4.7760e+01	19.1257	59.743553	0.000314	3.142749	1.064792	0.000126
 482	4.7859e+01	19.1674	59.888890	0.000365	3.649645	1.236533	0.000146
 483	4.7959e+01	19.1979	60.005967	0.000294	2.939991	0.996096	0.000118
 484	4.8059e+01	19.2396	60.127081	0.000304	3.041370	1.030444	0.000122
 485	4.8158e+01	19.2893	60.252232	0.000314	3.142749	1.064792	0.000126
 486	4.8258e+01	19.3134	60.361235	0.000274	2.737233	0.927400	0.000110
 487	4.8357e+01	19.3567	60.486386	0.000314	3.142749	1.064792	0.000126
 488	4.8456e+01	19.4000	60.631723	0.000365	3.649645	1.236533	0.000146
 489	4.8556e+01	19.4449	60.764949	0.000335	3.345508	1.133489	0.000134
 490	4.8656e+01	19.4642	60.906248	0.000355	3.548266	1.202185	0.000142
 491	4.8755e+01	19.5155	61.011214	0.000264	2.635854	0.893052	0.000105
 492	4.8855e+01	19.5716	61.128291	0.000294	2.939991	0.996096	0.000118
 493	4.8954e+01	19.6021	61.257479	0.000324	3.244129	1.099140	0.000130
 494	4.9053e+01	19.6422	61.378593	0.000304	3.041370	1.030444	0.000122
 495	4.9153e+01	19.6727	61.515856	0.000345	3.446887	1.167837	0.000138
 496	4.9252e+01	19.7160	61.632933	0.000294	2.939991	0.996096	0.000118
 497	4.9352e+01	19.7529	61.725787	0.000233	2.331717	0.790007	0.000093
 498	4.9452e+01	19.7962	61.879198	0.000385	3.852403	1.305229	0.000154
 499	4.9551e+01	19.8315	62.024535	0.000365	3.649645	1.236533	0.000146
 500	4.9651e+01	19.8764	62.137575	0.000284	2.838612	0.961748	0.000114
 501	4.9750e+01	19.9214	62.270800	0.000335	3.345508	1.133489	0.000134
 502	4.9849e+01	19.9583	62.391914	0.000304	3.041370	1.030444	0.000122
 503	4.9949e+01	20.0000	62.533214	0.000355	3.548266	1.202185	0.000142
 504	5.0048e+01	19.9599	62.424211	0.000274	2.737233	0.927400	-0.000110
 505	5.0148e+01	19.9101	62.323283	0.000253	2.534475	0.858704	-0.000101
 506	5.0248e+01	19.8732	62.206206	0.000294	2.939991	0.996096	-0.000118
 507	5.0347e+01	19.8363	62.129500	0.000193	1.926201	0.652615	-0.000077
 508	5.0447e+01	19.7962	62.036646	0.000233	2.331717	0.790007	-0.000093
 509	5.0546e+01	19.7561	61.875161	0.000406	4.055161	1.373926	-0.000162
 510	5.0645e+01	19.7096	61.818641	0.000142	1.419306	0.480874	-0.000057
 511	5.0745e+01	19.6952	61.709638	0.000274	2.737233	0.927400	-0.000110
 512	5.0844e+01	19.6326	61.584487	0.000314	3.142749	1.064792	-0.000126
 513	5.0944e+01	19.5989	61.467410	0.000294	2.939991	0.996096	-0.000118
 514	5.1044e+01	19.5588	61.386667	0.000203	2.027580	0.686963	-0.000081
 515	5.1143e+01	19.5219	61.241331	0.000365	3.649645	1.236533	-0.000146
 516	5.1242e+01	19.4674	61.172699	0.000172	1.723443	0.583918	-0.000069
 517	5.1342e+01	19.4433	61.047548	0.000314	3.142749	1.064792	-0.000126
 518	5.1441e+01	19.3984	60.930471	0.000294	2.939991	0.996096	-0.000118
 519	5.1541e+01	19.3583	60.805320	0.000314	3.142749	1.064792	-0.000126
 520	5.1641e+01	19.3230	60.668057	0.000345	3.446887	1.167837	-0.000138
 521	5.1740e+01	19.2877	60.603463	0.000162	1.622064	0.549570	-0.000065
 522	5.1840e+01	19.2412	60.502535	0.000253	2.534475	0.858704	-0.000101
 523	5.1939e+01	19.1979	60.381421	0.000304	3.041370	1.030444	-0.000122
 524	5.2038e+01	19.1529	60.284529	0.000243	2.433096	0.824355	-0.000097
 525	5.2138e+01	19.1257	60.127081	0.000395	3.953782	1.339577	-0.000158
 526	5.2237e+01	19.0791	60.058450	0.000172	1.723443	0.583918	-0.000069
 527	5.2337e+01	19.0438	59.913113	0.000365	3.649645	1.236533	-0.000146
 528	5.2437e+01	18.9989	59.796036	0.000294	2.939991	0.996096	-0.000118
 529	5.2536e+01	18.9620	59.707219	0.000223	2.230338	0.755659	-0.000089
 530	5.2636e+01	18.9251	59.594179	0.000284	2.838612	0.961748	-0.000114
 531	5.2735e+01	18.8786	59.493251	0.000253	2.534475	0.858704	-0.000101
 532	5.2834e+01	18.8417	59.388285	0.000264	2.635854	0.893052	-0.000105
 533	5.2934e+01	18.8064	59.263134	0.000314	3.142749	1.064792	-0.000126
 534	5.3033e+01	18.7679	59.142020	0.000304	3.041370	1.030444	-0.000122
 535	5.3133e+01	18.7230	59.008795	0.000335	3.345508	1.133489	-0.000134
 536	5.3233e+01	18.6813	58.924015	0.000213	2.128959	0.721311	-0.000085
 537	5.3332e+01	18.6540	58.802901	0.000304	3.041370	1.030444	-0.000122
 538	5.3431e+01	18.6075	58.685824	0.000294	2.939991	0.996096	-0.000118
 539	5.3531e+01	18.5562	58.584895	0.000253	2.534475	0.858704	-0.000101
 540	5.3630e+01	18.5353	58.451670	0.000335	3.345508	1.133489	-0.000134
 541	5.3730e+01	18.4776	58.366890	0.000213	2.128959	0.721311	-0.000085
 542	5.3830e+01	18.4487	58.261924	0.000264	2.635854	0.893052	-0.000105
 543	5.3929e+01	18.4054	58.124662	0.000345	3.446887	1.167837	-0.000138
 544	5.4029e+01	18.3588	57.999511	0.000314	3.142749	1.064792	-0.000126
 545	5.4128e+01	18.3252	57.894545	0.000264	2.635854	0.893052	-0.000105
 546	5.4227e+01	18.2850	57.765357	0.000324	3.244129	1.099140	-0.000130
 547	5.4327e+01	18.2369	57.700763	0.000162	1.622064	0.549570	-0.000065
 548	5.4426e+01	18.2032	57.559463	0.000355	3.548266	1.202185	-0.000142
 549	5.4526e+01	18.1663	57.438349	0.000304	3.041370	1.030444	-0.000122
 550	5.4626e+01	18.1246	57.305123	0.000335	3.345508	1.133489	-0.000134
 551	5.4725e+01	18.0909	57.228418	0.000193	1.926201	0.652615	-0.000077
 552	5.4825e+01	18.0524	57.123452	0.000264	2.635854	0.893052	-0.000105
 553	5.4924e+01	18.0123	57.018487	0.000264	2.635854	0.893052	-0.000105
 554	5.5023e+01	17.9610	56.865075	0.000385	3.852403	1.305229	-0.000154
 555	5.5123e+01	17.9353	56.768184	0.000243	2.433096	0.824355	-0.000097
 556	5.5222e+01	17.8856	56.626884	0.000355	3.548266	1.202185	-0.000142
 557	5.5322e+01	17.8551	56.538067	0.000223	2.230338	0.755659	-0.000089
 558	5.5422e+01	17.8054	56.396768	0.000355	3.548266	1.202185	-0.000142
 559	5.5521e+01	17.7701	56.279691	0.000294	2.939991	0.996096	-0.000118
 560	5.5620e+01	17.7300	56.231245	0.000122	1.216548	0.412178	-0.000049
 561	5.5720e+01	17.6835	56.114168	0.000294	2.939991	0.996096	-0.000118
 562	5.5819e+01	17.6466	55.980943	0.000335	3.345508	1.133489	-0.000134
 563	5.5919e+01	17.6113	55.888089	0.000233	2.331717	0.790007	-0.000093
 564	5.6019e+01	17.5663	55.734677	0.000385	3.852403	1.305229	-0.000154
 565	5.6118e+01	17.5214	55.637786	0.000243	2.433096	0.824355	-0.000097
 566	5.6218e+01	17.4845	55.524746	0.000284	2.838612	0.961748	-0.000114
 567	5.6317e+01	17.4428	55.407669	0.000294	2.939991	0.996096	-0.000118
 568	5.6416e+01	17.4011	55.298667	0.000274	2.737233	0.927400	-0.000110
 569	5.6516e+01	17.3706	55.201776	0.000243	2.433096	0.824355	-0.000097
 570	5.6615e+01	17.3289	55.088736	0.000284	2.838612	0.961748	-0.000114
 571	5.6715e+01	17.2968	54.967622	0.000304	3.041370	1.030444	-0.000122
 572	5.6815e+01	17.2423	54.838433	0.000324	3.244129	1.099140	-0.000130
 573	5.6914e+01	17.2166	54.741542	0.000243	2.433096	0.824355	-0.000097
 574	5.7014e+01	17.1749	54.596205	0.000365	3.649645	1.236533	-0.000146
 575	5.7113e+01	17.1332	54.479128	0.000294	2.939991	0.996096	-0.000118
 576	5.7212e+01	17.0899	54.341866	0.000345	3.446887	1.167837	-0.000138
 577	5.7312e+01	17.0498	54.265160	0.000193	1.926201	0.652615	-0.000077
 578	5.7411e+01	17.0097	54.148083	0.000294	2.939991	0.996096	-0.000118
 579	5.7511e+01	16.9632	53.974486	0.000436	4.359298	1.476970	-0.000174
 580	5.7611e+01	16.9295	53.897781	0.000193	1.926201	0.652615	-0.000077
 581	5.7710e+01	16.8878	53.792815	0.000264	2.635854	0.893052	-0.000105
 582	5.7809e+01	16.8493	53.667664	0.000314	3.142749	1.064792	-0.000126
 583	5.7909e+01	16.8124	53.550587	0.000294	2.939991	0.996096	-0.000118
 584	5.8008e+01	16.7723	53.433510	0.000294	2.939991	0.996096	-0.000118
 585	5.8108e+01	16.7273	53.304322	0.000324	3.244129	1.099140	-0.000130
 586	5.8208e+01	16.6840	53.211468	0.000233	2.331717	0.790007	-0.000093
 587	5.8307e+01	16.6567	53.094391	0.000294	2.939991	0.996096	-0.000118
 588	5.8407e+01	16.6086	52.969239	0.000314	3.142749	1.064792	-0.000126
 589	5.8506e+01	16.5653	52.856200	0.000284	2.838612	0.961748	-0.000114
 590	5.8605e+01	16.5332	52.722974	0.000335	3.345508	1.133489	-0.000134
 591	5.8705e+01	16.4899	52.593786	0.000324	3.244129	1.099140	-0.000130
 592	5.8804e+01	16.4498	52.513043	0.000203	2.027580	0.686963	-0.000081
 593	5.8904e+01	16.4129	52.400003	0.000284	2.838612	0.961748	-0.000114
 594	5.9004e+01	16.3792	52.242555	0.000395	3.953782	1.339577	-0.000158
 595	5.9103e+01	16.3263	52.121441	0.000304	3.041370	1.030444	-0.000122
 596	5.9203e+01	16.2926	52.008401	0.000284	2.838612	0.961748	-0.000114
 597	5.9302e+01	16.2541	51.895361	0.000284	2.838612	0.961748	-0.000114
 598	5.9401e+01	16.2140	51.762136	0.000335	3.345508	1.133489	-0.000134
 599	5.9501e+01	16.1707	51.641022	0.000304	3.041370	1.030444	-0.000122
 600	5.9600e+01	16.1322	51.515871	0.000314	3.142749	1.064792	-0.000126
 601	5.9700e+01	16.0872	51.406868	0.000274	2.737233	0.927400	-0.000110
 602	5.9800e+01	16.0520	51.305940	0.000253	2.534475	0.858704	-0.000101
 603	5.9899e+01	16.0070	51.152528	0.000385	3.852403	1.305229	-0.000154
 604	5.9998e+01	15.9669	51.007191	0.000365	3.649645	1.236533	-0.000146
 605	6.0098e+01	15.9300	50.914337	0.000233	2.331717	0.790007	-0.000093
 606	6.0197e+01	15.8883	50.813409	0.000253	2.534475	0.858704	-0.000101
 607	6.0297e+01	15.8562	50.708443	0.000264	2.635854	0.893052	-0.000105
 608	6.0397e+01	15.8161	50.599441	0.000274	2.737233	0.927400	-0.000110
 609	6.0496e+01	15.7824	50.409695	0.000476	4.764814	1.614363	-0.000191
 610	6.0596e+01	15.7295	50.312804	0.000243	2.433096	0.824355	-0.000097
 611	6.0695e+01	15.6990	50.187653	0.000314	3.142749	1.064792	-0.000126
 612	6.0794e+01	15.6573	50.058465	0.000324	3.244129	1.099140	-0.000130
 613	6.0894e+01	15.6044	49.933313	0.000314	3.142749	1.064792	-0.000126
 614	6.0993e+01	15.5787	49.783939	0.000375	3.751024	1.270881	-0.000150
 615	6.1093e+01	15.5386	49.662825	0.000304	3.041370	1.030444	-0.000122
 616	6.1193e+01	15.5033	49.557860	0.000264	2.635854	0.893052	-0.000105
 617	6.1292e+01	15.4504	49.432709	0.000314	3.142749	1.064792	-0.000126
 618	6.1392e+01	15.4183	49.315632	0.000294	2.939991	0.996096	-0.000118
 619	6.1491e+01	15.3782	49.202592	0.000284	2.838612	0.961748	-0.000114
 620	6.1590e+01	15.3300	49.057255	0.000365	3.649645	1.236533	-0.000146
 621	6.1690e+01	15.2803	48.944215	0.000284	2.838612	0.961748	-0.000114
 622	6.1789e+01	15.2546	48.835212	0.000274	2.737233	0.927400	-0.000110
 623	6.1889e+01	15.2306	48.673727	0.000406	4.055161	1.373926	-0.000162
 624	6.1989e+01	15.1760	48.548576	0.000314	3.142749	1.064792	-0.000126
 625	6.2088e+01	15.1343	48.443610	0.000264	2.635854	0.893052	-0.000105
 626	6.2188e+01	15.0990	48.330570	0.000284	2.838612	0.961748	-0.000114
 627	6.2287e+01	15.0525	48.217531	0.000284	2.838612	0.961748	-0.000114
 628	6.2386e+01	15.0156	48.096417	0.000304	3.041370	1.030444	-0.000122
 629	6.2486e+01	14.9803	47.922820	0.000436	4.359298	1.476970	-0.000174
 630	6.2586e+01	14.9450	47.785557	0.000345	3.446887	1.167837	-0.000138
 631	6.2685e+01	14.8985	47.680592	0.000264	2.635854	0.893052	-0.000105
 632	6.2785e+01	14.8456	47.571589	0.000274	2.737233	0.927400	-0.000110
 633	6.2884e+01	14.8215	47.414141	0.000395	3.953782	1.339577	-0.000158
 634	6.2983e+01	14.7686	47.301101	0.000284	2.838612	0.961748	-0.000114
 635	6.3083e+01	14.7349	47.135578	0.000416	4.156540	1.408274	-0.000166
 636	6.3182e+01	14.7028	47.030613	0.000264	2.635854	0.893052	-0.000105
 637	6.3282e+01	14.6515	46.893350	0.000345	3.446887	1.167837	-0.000138
 638	6.3382e+01	14.6226	46.780310	0.000284	2.838612	0.961748	-0.000114
 639	6.3481e+01	14.5680	46.655159	0.000314	3.142749	1.064792	-0.000126
 640	6.3581e+01	14.5408	46.513859	0.000355	3.548266	1.202185	-0.000142
 641	6.3680e+01	14.4975	46.392745	0.000304	3.041370	1.030444	-0.000122
 642	6.3779e+01	14.4541	46.255483	0.000345	3.446887	1.167837	-0.000138
 643	6.3879e+01	14.4140	46.150517	0.000264	2.635854	0.893052	-0.000105
 644	6.3978e+01	14.3803	46.013255	0.000345	3.446887	1.167837	-0.000138
 645	6.4078e+01	14.3402	45.924438	0.000223	2.230338	0.755659	-0.000089
 646	6.4177e+01	14.3082	45.819472	0.000264	2.635854	0.893052	-0.000105
 647	6.4277e+01	14.2552	45.653949	0.000416	4.156540	1.408274	-0.000166
 648	6.4376e+01	14.2295	45.488427	0.000416	4.156540	1.408274	-0.000166
 649	6.4476e+01	14.1862	45.355201	0.000335	3.345508	1.133489	-0.000134
 650	6.4576e+01	14.1397	45.238125	0.000294	2.939991	0.996096	-0.000118
 651	6.4675e+01	14.0980	45.125085	0.000284	2.838612	0.961748	-0.000114
 652	6.4775e+01	14.0659	44.967636	0.000395	3.953782	1.339577	-0.000158
 653	6.4874e+01	14.0242	44.850559	0.000294	2.939991	0.996096	-0.000118
 654	6.4974e+01	13.9793	44.737520	0.000284	2.838612	0.961748	-0.000114
 655	6.5073e+01	13.9376	44.604294	0.000335	3.345508	1.133489	-0.000134
 656	6.5172e+01	13.8959	44.479143	0.000314	3.142749	1.064792	-0.000126
 657	6.5272e+01	13.8622	44.353992	0.000314	3.142749	1.064792	-0.000126
 658	6.5371e+01	13.8157	44.228841	0.000314	3.142749	1.064792	-0.000126
 659	6.5471e+01	13.7804	44.095615	0.000335	3.345508	1.133489	-0.000134
 660	6.5570e+01	13.7451	43.978538	0.000294	2.939991	0.996096	-0.000118
 661	6.5670e+01	13.6985	43.841276	0.000345	3.446887	1.167837	-0.000138
 662	6.5769e+01	13.6665	43.675753	0.000416	4.156540	1.408274	-0.000166
 663	6.5869e+01	13.6231	43.574825	0.000253	2.534475	0.858704	-0.000101
 664	6.5969e+01	13.5830	43.498119	0.000193	1.926201	0.652615	-0.000077
 665	6.6068e+01	13.5494	43.372968	0.000314	3.142749	1.064792	-0.000126
 666	6.6168e+01	13.4996	43.191297	0.000456	4.562056	1.545666	-0.000183
 667	6.6267e+01	13.4707	43.062108	0.000324	3.244129	1.099140	-0.000130
 668	6.6367e+01	13.4242	42.920809	0.000355	3.548266	1.202185	-0.000142
 669	6.6466e+01	13.3793	42.807769	0.000284	2.838612	0.961748	-0.000114
 670	6.6566e+01	13.3424	42.674543	0.000335	3.345508	1.133489	-0.000134
 671	6.6665e+01	13.3023	42.513058	0.000406	4.055161	1.373926	-0.000162
 672	6.6764e+01	13.2782	42.412129	0.000253	2.534475	0.858704	-0.000101
 673	6.6864e+01	13.2269	42.238533	0.000436	4.359298	1.476970	-0.000174
 674	6.6963e+01	13.1724	42.137604	0.000253	2.534475	0.858704	-0.000101
 675	6.7063e+01	13.1467	42.044750	0.000233	2.331717	0.790007	-0.000093
 676	6.7162e+01	13.1066	41.895376	0.000375	3.751024	1.270881	-0.000150
 677	6.7262e+01	13.0649	41.778299	0.000294	2.939991	0.996096	-0.000118
 678	6.7362e+01	13.0312	41.620851	0.000395	3.953782	1.339577	-0.000158
 679	6.7461e+01	12.9831	41.483588	0.000345	3.446887	1.167837	-0.000138
 680	6.7561e+01	12.9413	41.386697	0.000243	2.433096	0.824355	-0.000097
 681	6.7660e+01	12.9125	41.301917	0.000213	2.128959	0.721311	-0.000085
 682	6.7760e+01	12.8643	41.116209	0.000466	4.663435	1.580014	-0.000187
 683	6.7859e+01	12.8355	41.031429	0.000213	2.128959	0.721311	-0.000085
 684	6.7959e+01	12.7809	40.934538	0.000243	2.433096	0.824355	-0.000097
 685	6.8058e+01	12.7520	40.801312	0.000335	3.345508	1.133489	-0.000134
 686	6.8157e+01	12.7119	40.639827	0.000406	4.055161	1.373926	-0.000162
 687	6.8257e+01	12.6606	40.518713	0.000304	3.041370	1.030444	-0.000122
 688	6.8356e+01	12.6381	40.349153	0.000426	4.257919	1.442622	-0.000170
 689	6.8456e+01	12.5964	40.276485	0.000182	1.824822	0.618267	-0.000073
 690	6.8555e+01	12.5563	40.127111	0.000375	3.751024	1.270881	-0.000150
 691	6.8655e+01	12.5098	40.018108	0.000274	2.737233	0.927400	-0.000110
 692	6.8754e+01	12.4729	39.880845	0.000345	3.446887	1.167837	-0.000138
 693	6.8854e+01	12.4312	39.755694	0.000314	3.142749	1.064792	-0.000126
 694	6.8954e+01	12.3911	39.626506	0.000324	3.244129	1.099140	-0.000130
 695	6.9053e+01	12.3462	39.497317	0.000324	3.244129	1.099140	-0.000130
 696	6.9153e+01	12.3125	39.360055	0.000345	3.446887	1.167837	-0.000138
 697	6.9252e+01	12.2644	39.238941	0.000304	3.041370	1.030444	-0.000122
 698	6.9352e+01	12.2259	39.101678	0.000345	3.446887	1.167837	-0.000138
 699	6.9451e+01	12.1890	38.976527	0.000314	3.142749	1.064792	-0.000126
 700	6.9550e+01	12.1440	38.831190	0.000365	3.649645	1.236533	-0.000146
 701	6.9650e+01	12.1007	38.758522	0.000182	1.824822	0.618267	-0.000073
 702	6.9749e+01	12.0751	38.633370	0.000314	3.142749	1.064792	-0.000126
 703	6.9849e+01	12.0366	38.512256	0.000304	3.041370	1.030444	-0.000122
 704	6.9948e+01	11.9868	38.374994	0.000345	3.446887	1.167837	-0.000138
 705	7.0048e+01	11.9563	38.249843	0.000314	3.142749	1.064792	-0.000126
 706	7.0147e+01	11.9098	38.080283	0.000426	4.257919	1.442622	-0.000170
 707	7.0247e+01	11.8761	37.971280	0.000274	2.737233	0.927400	-0.000110
 708	7.0347e+01	11.8296	37.834018	0.000345	3.446887	1.167837	-0.000138
 709	7.0446e+01	11.7911	37.708866	0.000314	3.142749	1.064792	-0.000126
 710	7.0546e+01	11.7558	37.567567	0.000355	3.548266	1.202185	-0.000142
 711	7.0645e+01	11.7141	37.458564	0.000274	2.737233	0.927400	-0.000110
 712	7.0745e+01	11.6708	37.289004	0.000426	4.257919	1.442622	-0.000170
 713	7.0844e+01	11.6355	37.208262	0.000203	2.027580	0.686963	-0.000081
 714	7.0944e+01	11.5874	37.091185	0.000294	2.939991	0.996096	-0.000118
 715	7.1043e+01	11.5633	36.953922	0.000345	3.446887	1.167837	-0.000138
 716	7.1142e+01	11.5104	36.812622	0.000355	3.548266	1.202185	-0.000142
 717	7.1242e+01	11.4735	36.683434	0.000324	3.244129	1.099140	-0.000130
 718	7.1341e+01	11.4382	36.562320	0.000304	3.041370	1.030444	-0.000122
 719	7.1441e+01	11.3997	36.416983	0.000365	3.649645	1.236533	-0.000146
 720	7.1540e+01	11.3483	36.303943	0.000284	2.838612	0.961748	-0.000114
 721	7.1640e+01	11.3082	36.227238	0.000193	1.926201	0.652615	-0.000077
 722	7.1740e+01	11.2794	36.118235	0.000274	2.737233	0.927400	-0.000110
 723	7.1839e+01	11.2264	35.993084	0.000314	3.142749	1.064792	-0.000126
 724	7.1939e+01	11.2040	35.867932	0.000314	3.142749	1.064792	-0.000126
 725	7.2038e+01	11.1542	35.706447	0.000406	4.055161	1.373926	-0.000162
 726	7.2138e+01	11.1238	35.536887	0.000426	4.257919	1.442622	-0.000170
 727	7.2237e+01	11.0644	35.419810	0.000294	2.939991	0.996096	-0.000118
 728	7.2337e+01	11.0323	35.290622	0.000324	3.244129	1.099140	-0.000130
 729	7.2436e+01	10.9970	35.197768	0.000233	2.331717	0.790007	-0.000093
 730	7.2535e+01	10.9537	35.048394	0.000375	3.751024	1.270881	-0.000150
 731	7.2635e+01	10.9120	34.935354	0.000284	2.838612	0.961748	-0.000114
 732	7.2734e+01	10.8863	34.826351	0.000274	2.737233	0.927400	-0.000110
 733	7.2834e+01	10.8302	34.628532	0.000497	4.967572	1.683059	-0.000199
 734	7.2933e+01	10.7933	34.535678	0.000233	2.331717	0.790007	-0.000093
 735	7.3033e+01	10.7564	34.406489	0.000324	3.244129	1.099140	-0.000130
 736	7.3132e+01	10.7163	34.277301	0.000324	3.244129	1.099140	-0.000130
 737	7.3232e+01	10.6730	34.127927	0.000375	3.751024	1.270881	-0.000150
 738	7.3332e+01	10.6409	34.039110	0.000223	2.230338	0.755659	-0.000089
 739	7.3431e+01	10.6008	33.913959	0.000314	3.142749	1.064792	-0.000126
 740	7.3531e+01	10.5526	33.825142	0.000223	2.230338	0.755659	-0.000089
 741	7.3630e+01	10.5190	33.695953	0.000324	3.244129	1.099140	-0.000130
 742	7.3730e+01	10.4772	33.570802	0.000314	3.142749	1.064792	-0.000126
 743	7.3829e+01	10.4275	33.465837	0.000264	2.635854	0.893052	-0.000105
 744	7.3928e+01	10.4018	33.280128	0.000466	4.663435	1.580014	-0.000187
 745	7.4028e+01	10.3537	33.167089	0.000284	2.838612	0.961748	-0.000114
 746	7.4127e+01	10.3168	33.009640	0.000395	3.953782	1.339577	-0.000158
 747	7.4227e+01	10.2847	32.852192	0.000395	3.953782	1.339577	-0.000158
 748	7.4326e+01	10.2446	32.690707	0.000406	4.055161	1.373926	-0.000162
 749	7.4426e+01	10.1981	32.622075	0.000172	1.723443	0.583918	-0.000069
 750	7.4525e+01	10.1628	32.472701	0.000375	3.751024	1.270881	-0.000150
 751	7.4625e+01	10.1211	32.363699	0.000274	2.737233	0.927400	-0.000110
 752	7.4725e+01	10.0842	32.202213	0.000406	4.055161	1.373926	-0.000162
 753	7.4824e+01	10.0393	32.068988	0.000335	3.345508	1.133489	-0.000134
 754	7.4924e+01	10.0024	31.943837	0.000314	3.142749	1.064792	-0.000126
 755	7.5023e+01	9.9543	31.822722	0.000304	3.041370	1.030444	-0.000122
 756	7.5123e+01	9.9238	31.713720	0.000274	2.737233	0.927400	-0.000110
 757	7.5222e+01	9.8741	31.564346	0.000375	3.751024	1.270881	-0.000150
 758	7.5322e+01	9.8356	31.487640	0.000193	1.926201	0.652615	-0.000077
 759	7.5421e+01	9.8035	31.370563	0.000294	2.939991	0.996096	-0.000118
 760	7.5520e+01	9.7521	31.192929	0.000446	4.460677	1.511318	-0.000179
 761	7.5620e+01	9.7184	31.075852	0.000294	2.939991	0.996096	-0.000118
 762	7.5719e+01	9.6767	30.978961	0.000243	2.433096	0.824355	-0.000097
 763	7.5819e+01	9.6446	30.853810	0.000314	3.142749	1.064792	-0.000126
 764	7.5918e+01	9.6045	30.720584	0.000335	3.345508	1.133489	-0.000134
 765	7.6018e+01	9.5725	30.555062	0.000416	4.156540	1.408274	-0.000166
 766	7.6118e+01	9.5115	30.401651	0.000385	3.852403	1.305229	-0.000154
 767	7.6217e+01	9.4858	30.284574	0.000294	2.939991	0.996096	-0.000118
 768	7.6317e+01	9.4457	30.098865	0.000466	4.663435	1.580014	-0.000187
 769	7.6416e+01	9.3976	29.965640	0.000335	3.345508	1.133489	-0.000134
 770	7.6516e+01	9.3639	29.824340	0.000355	3.548266	1.202185	-0.000142
 771	7.6615e+01	9.3174	29.691115	0.000335	3.345508	1.133489	-0.000134
 772	7.6715e+01	9.2885	29.561926	0.000324	3.244129	1.099140	-0.000130
 773	7.6814e+01	9.2292	29.424664	0.000345	3.446887	1.167837	-0.000138
 774	7.6913e+01	9.1955	29.315661	0.000274	2.737233	0.927400	-0.000110
 775	7.7013e+01	9.1634	29.166287	0.000375	3.751024	1.270881	-0.000150
 776	7.7112e+01	9.1217	29.073433	0.000233	2.331717	0.790007	-0.000093
 777	7.7212e+01	9.0703	28.940208	0.000335	3.345508	1.133489	-0.000134
 778	7.7311e+01	9.0399	28.815056	0.000314	3.142749	1.064792	-0.000126
 779	7.7411e+01	8.9997	28.697979	0.000294	2.939991	0.996096	-0.000118
 780	7.7510e+01	8.9516	28.576865	0.000304	3.041370	1.030444	-0.000122
 781	7.7610e+01	8.9227	28.399231	0.000446	4.460677	1.511318	-0.000179
 782	7.7710e+01	8.8826	28.310414	0.000223	2.230338	0.755659	-0.000089
 783	7.7809e+01	8.8425	28.148929	0.000406	4.055161	1.373926	-0.000162
 784	7.7909e+01	8.8056	27.995518	0.000385	3.852403	1.305229	-0.000154
 785	7.8008e+01	8.7559	27.801735	0.000487	4.866193	1.648711	-0.000195
 786	7.8108e+01	8.7238	27.688695	0.000284	2.838612	0.961748	-0.000114
 787	7.8207e+01	8.6853	27.515099	0.000436	4.359298	1.476970	-0.000174
 788	7.8306e+01	8.6388	27.402059	0.000284	2.838612	0.961748	-0.000114
 789	7.8406e+01	8.6019	27.280945	0.000304	3.041370	1.030444	-0.000122
 790	7.8505e+01	8.5650	27.155794	0.000314	3.142749	1.064792	-0.000126
 791	7.8605e+01	8.5233	27.006420	0.000375	3.751024	1.270881	-0.000150
 792	7.8704e+01	8.4832	26.881268	0.000314	3.142749	1.064792	-0.000126
 793	7.8804e+01	8.4447	26.748043	0.000335	3.345508	1.133489	-0.000134
 794	7.8903e+01	8.4078	26.618854	0.000324	3.244129	1.099140	-0.000130
 795	7.9003e+01	8.3645	26.469480	0.000375	3.751024	1.270881	-0.000150
 796	7.9103e+01	8.3244	26.376626	0.000233	2.331717	0.790007	-0.000093
 797	7.9202e+01	8.2859	26.267624	0.000274	2.737233	0.927400	-0.000110
 798	7.9302e+01	8.2409	26.110175	0.000395	3.953782	1.339577	-0.000158
 799	7.9401e+01	8.1992	25.972913	0.000345	3.446887	1.167837	-0.000138
 800	7.9501e+01	8.1639	25.831613	0.000355	3.548266	1.202185	-0.000142
 801	7.9600e+01	8.1270	25.702425	0.000324	3.244129	1.099140	-0.000130
 802	7.9700e+01	8.0901	25.520754	0.000456	4.562056	1.545666	-0.000183
 803	7.9799e+01	8.0484	25.403677	0.000294	2.939991	0.996096	-0.000118
 804	7.9898e+01	8.0115	25.242191	0.000406	4.055161	1.373926	-0.000162
 805	7.9998e+01	7.9682	25.072632	0.000426	4.257919	1.442622	-0.000170
 806	8.0097e+01	7.9297	24.923257	0.000375	3.751024	1.270881	-0.000150
 807	8.0197e+01	7.8864	24.858663	0.000162	1.622064	0.549570	-0.000065
 808	8.0296e+01	7.8511	24.636621	0.000558	5.575846	1.889148	-0.000223
 809	8.0396e+01	7.8110	24.531655	0.000264	2.635854	0.893052	-0.000105
 810	8.0496e+01	7.7597	24.398430	0.000335	3.345508	1.133489	-0.000134
 811	8.0595e+01	7.7212	24.245019	0.000385	3.852403	1.305229	-0.000154
 812	8.0695e+01	7.6843	24.079496	0.000416	4.156540	1.408274	-0.000166
 813	8.0794e+01	7.6442	24.014902	0.000162	1.622064	0.549570	-0.000065
 814	8.0894e+01	7.6041	23.853417	0.000406	4.055161	1.373926	-0.000162
 815	8.0993e+01	7.5720	23.700005	0.000385	3.852403	1.305229	-0.000154
 816	8.1093e+01	7.5255	23.643485	0.000142	1.419306	0.480874	-0.000057
 817	8.1192e+01	7.4789	23.502186	0.000355	3.548266	1.202185	-0.000142
 818	8.1291e+01	7.4549	23.332626	0.000426	4.257919	1.442622	-0.000170
 819	8.1391e+01	7.4116	23.215549	0.000294	2.939991	0.996096	-0.000118
 820	8.1490e+01	7.3666	23.050026	0.000416	4.156540	1.408274	-0.000166
 821	8.1590e+01	7.3329	22.904690	0.000365	3.649645	1.236533	-0.000146
 822	8.1689e+01	7.2864	22.751278	0.000385	3.852403	1.305229	-0.000154
 823	8.1789e+01	7.2431	22.597867	0.000385	3.852403	1.305229	-0.000154
 824	8.1888e+01	7.1982	22.456568	0.000355	3.548266	1.202185	-0.000142
 825	8.1988e+01	7.1629	22.278934	0.000446	4.460677	1.511318	-0.000179
 826	8.2088e+01	7.1388	22.145708	0.000335	3.345508	1.133489	-0.000134
 827	8.2187e+01	7.0859	22.028631	0.000294	2.939991	0.996096	-0.000118
 828	8.2287e+01	7.0522	21.903480	0.000314	3.142749	1.064792	-0.000126
 829	8.2386e+01	7.0153	21.782366	0.000304	3.041370	1.030444	-0.000122
 830	8.2486e+01	6.9736	21.624918	0.000395	3.953782	1.339577	-0.000158
 831	8.2585e+01	6.9303	21.483618	0.000355	3.548266	1.202185	-0.000142
 832	8.2684e+01	6.8870	21.350392	0.000335	3.345508	1.133489	-0.000134
 833	8.2784e+01	6.8453	21.237353	0.000284	2.838612	0.961748	-0.000114
 834	8.2883e+01	6.8068	21.116238	0.000304	3.041370	1.030444	-0.000122
 835	8.2983e+01	6.7667	20.954753	0.000406	4.055161	1.373926	-0.000162
 836	8.3082e+01	6.7314	20.853825	0.000253	2.534475	0.858704	-0.000101
 837	8.3182e+01	6.6848	20.704451	0.000375	3.751024	1.270881	-0.000150
 838	8.3281e+01	6.6544	20.567188	0.000345	3.446887	1.167837	-0.000138
 839	8.3381e+01	6.6223	20.405703	0.000406	4.055161	1.373926	-0.000162
 840	8.3481e+01	6.5677	20.232106	0.000436	4.359298	1.476970	-0.000174
 841	8.3580e+01	6.5260	20.062546	0.000426	4.257919	1.442622	-0.000170
 842	8.3680e+01	6.4987	19.969692	0.000233	2.331717	0.790007	-0.000093
 843	8.3779e+01	6.4538	19.812244	0.000395	3.953782	1.339577	-0.000158
 844	8.3879e+01	6.4089	19.687092	0.000314	3.142749	1.064792	-0.000126
 845	8.3978e+01	6.3784	19.529644	0.000395	3.953782	1.339577	-0.000158
 846	8.4078e+01	6.3351	19.396419	0.000335	3.345508	1.133489	-0.000134
 847	8.4177e+01	6.2934	19.275305	0.000304	3.041370	1.030444	-0.000122
 848	8.4276e+01	6.2597	19.134005	0.000355	3.548266	1.202185	-0.000142
 849	8.4376e+01	6.2116	18.968482	0.000416	4.156540	1.408274	-0.000166
 850	8.4475e+01	6.1779	18.883702	0.000213	2.128959	0.721311	-0.000085
 851	8.4575e+01	6.1298	18.750477	0.000335	3.345508	1.133489	-0.000134
 852	8.4674e+01	6.0961	18.633400	0.000294	2.939991	0.996096	-0.000118
 853	8.4774e+01	6.0560	18.467877	0.000416	4.156540	1.408274	-0.000166
 854	8.4874e+01	6.0095	18.415395	0.000132	1.317927	0.446526	-0.000053
 855	8.4973e+01	5.9806	18.261984	0.000385	3.852403	1.305229	-0.000154
 856	8.5073e+01	5.9405	18.120684	0.000355	3.548266	1.202185	-0.000142
 857	8.5172e+01	5.9020	17.999570	0.000304	3.041370	1.030444	-0.000122
 858	8.5272e+01	5.8554	17.785601	0.000537	5.373088	1.820451	-0.000215
 859	8.5371e+01	5.8121	17.668525	0.000294	2.939991	0.996096	-0.000118
 860	8.5471e+01	5.7817	17.498965	0.000426	4.257919	1.442622	-0.000170
 861	8.5570e+01	5.7399	17.369777	0.000324	3.244129	1.099140	-0.000130
 862	8.5669e+01	5.6998	17.228477	0.000355	3.548266	1.202185	-0.000142
 863	8.5769e+01	5.6565	17.075066	0.000385	3.852403	1.305229	-0.000154
 864	8.5868e+01	5.6148	16.945877	0.000324	3.244129	1.099140	-0.000130
 865	8.5968e+01	5.5811	16.828800	0.000294	2.939991	0.996096	-0.000118
 866	8.6067e+01	5.5362	16.663278	0.000416	4.156540	1.408274	-0.000166
 867	8.6167e+01	5.4945	16.513904	0.000375	3.751024	1.270881	-0.000150
 868	8.6266e+01	5.4512	16.376641	0.000345	3.446887	1.167837	-0.000138
 869	8.6366e+01	5.4159	16.295898	0.000203	2.027580	0.686963	-0.000081
 870	8.6466e+01	5.3742	16.182859	0.000284	2.838612	0.961748	-0.000114
 871	8.6565e+01	5.3389	16.061745	0.000304	3.041370	1.030444	-0.000122
 872	8.6665e+01	5.2908	15.892185	0.000426	4.257919	1.442622	-0.000170
 873	8.6764e+01	5.2555	15.811442	0.000203	2.027580	0.686963	-0.000081
 874	8.6864e+01	5.2186	15.633808	0.000446	4.460677	1.511318	-0.000179
 875	8.6963e+01	5.1769	15.504620	0.000324	3.244129	1.099140	-0.000130
 876	8.7063e+01	5.1416	15.343134	0.000406	4.055161	1.373926	-0.000162
 877	8.7162e+01	5.0966	15.193760	0.000375	3.751024	1.270881	-0.000150
 878	8.7261e+01	5.0694	15.076683	0.000294	2.939991	0.996096	-0.000118
 879	8.7361e+01	5.0116	14.866752	0.000527	5.271709	1.786103	-0.000211
 880	8.7460e+01	4.9795	14.749675	0.000294	2.939991	0.996096	-0.000118
 881	8.7560e+01	4.9458	14.632598	0.000294	2.939991	0.996096	-0.000118
 882	8.7659e+01	4.8961	14.475150	0.000395	3.953782	1.339577	-0.000158
 883	8.7759e+01	4.8624	14.345962	0.000324	3.244129	1.099140	-0.000130
 884	8.7859e+01	4.8175	14.200625	0.000365	3.649645	1.236533	-0.000146
 885	8.7958e+01	4.7806	14.083548	0.000294	2.939991	0.996096	-0.000118
 886	8.8058e+01	4.7389	13.946285	0.000345	3.446887	1.167837	-0.000138
 887	8.8157e+01	4.6940	13.817097	0.000324	3.244129	1.099140	-0.000130
 888	8.8257e+01	4.6587	13.695983	0.000304	3.041370	1.030444	-0.000122
 889	8.8356e+01	4.6170	13.639463	0.000142	1.419306	0.480874	-0.000057
 890	8.8456e+01	4.5753	13.473941	0.000416	4.156540	1.408274	-0.000166
 891	8.8555e+01	4.5384	13.356864	0.000294	2.939991	0.996096	-0.000118
 892	8.8654e+01	4.5095	13.207490	0.000375	3.751024	1.270881	-0.000150
 893	8.8754e+01	4.4566	13.050041	0.000395	3.953782	1.339577	-0.000158
 894	8.8853e+01	4.4229	12.973336	0.000193	1.926201	0.652615	-0.000077
 895	8.8953e+01	4.3812	12.811850	0.000406	4.055161	1.373926	-0.000162
 896	8.9052e+01	4.3443	12.658439	0.000385	3.852403	1.305229	-0.000154
 897	8.9152e+01	4.3090	12.521176	0.000345	3.446887	1.167837	-0.000138
 898	8.9251e+01	4.2657	12.359691	0.000406	4.055161	1.373926	-0.000162
 899	8.9351e+01	4.2143	12.210317	0.000375	3.751024	1.270881	-0.000150
 900	8.9451e+01	4.1903	12.105352	0.000264	2.635854	0.893052	-0.000105
 901	8.9550e+01	4.1485	11.931755	0.000436	4.359298	1.476970	-0.000174
 902	8.9650e+01	4.1004	11.790455	0.000355	3.548266	1.202185	-0.000142
 903	8.9749e+01	4.0635	11.669341	0.000304	3.041370	1.030444	-0.000122
 904	8.9849e+01	4.0170	11.552264	0.000294	2.939991	0.996096	-0.000118
 905	8.9948e+01	3.9833	11.394816	0.000395	3.953782	1.339577	-0.000158
 906	9.0047e+01	3.9320	11.241404	0.000385	3.852403	1.305229	-0.000154
 907	9.0147e+01	3.8999	11.132402	0.000274	2.737233	0.927400	-0.000110
 908	9.0246e+01	3.8662	11.019362	0.000284	2.838612	0.961748	-0.000114
 909	9.0346e+01	3.8229	10.902285	0.000294	2.939991	0.996096	-0.000118
 910	9.0445e+01	3.7780	10.773097	0.000324	3.244129	1.099140	-0.000130
 911	9.0545e+01	3.7523	10.639871	0.000335	3.345508	1.133489	-0.000134
 912	9.0644e+01	3.7042	10.514720	0.000314	3.142749	1.064792	-0.000126
 913	9.0744e+01	3.6641	10.365346	0.000375	3.751024	1.270881	-0.000150
 914	9.0844e+01	3.6240	10.252306	0.000284	2.838612	0.961748	-0.000114
 915	9.0943e+01	3.5806	10.102932	0.000375	3.751024	1.270881	-0.000150
 916	9.1043e+01	3.5502	9.965670	0.000345	3.446887	1.167837	-0.000138
 917	9.1142e+01	3.5052	9.828407	0.000345	3.446887	1.167837	-0.000138
 918	9.1242e+01	3.4635	9.606364	0.000558	5.575846	1.889148	-0.000223
 919	9.1341e+01	3.4250	9.501399	0.000264	2.635854	0.893052	-0.000105
 920	9.1441e+01	3.3833	9.352025	0.000375	3.751024	1.270881	-0.000150
 921	9.1540e+01	3.3480	9.234948	0.000294	2.939991	0.996096	-0.000118
 922	9.1639e+01	3.3063	9.081537	0.000385	3.852403	1.305229	-0.000154
 923	9.1739e+01	3.2678	8.972534	0.000274	2.737233	0.927400	-0.000110
 924	9.1838e+01	3.2229	8.798937	0.000436	4.359298	1.476970	-0.000174
 925	9.1938e+01	3.1892	8.677823	0.000304	3.041370	1.030444	-0.000122
 926	9.2037e+01	3.1555	8.544598	0.000335	3.345508	1.133489	-0.000134
 927	9.2137e+01	3.1058	8.427521	0.000294	2.939991	0.996096	-0.000118
 928	9.2237e+01	3.0641	8.326592	0.000253	2.534475	0.858704	-0.000101
 929	9.2336e+01	3.0224	8.169144	0.000395	3.953782	1.339577	-0.000158
 930	9.2436e+01	2.9791	8.060142	0.000274	2.737233	0.927400	-0.000110
 931	9.2535e+01	2.9438	7.910767	0.000375	3.751024	1.270881	-0.000150
 932	9.2635e+01	2.9037	7.793691	0.000294	2.939991	0.996096	-0.000118
 933	9.2734e+01	2.8668	7.620094	0.000436	4.359298	1.476970	-0.000174
 934	9.2834e+01	2.8283	7.494942	0.000314	3.142749	1.064792	-0.000126
 935	9.2933e+01	2.7882	7.325383	0.000426	4.257919	1.442622	-0.000170
 936	9.3032e+01	2.7432	7.236566	0.000223	2.230338	0.755659	-0.000089
 937	9.3132e+01	2.7112	7.034709	0.000507	5.068951	1.717407	-0.000203
 938	9.3231e+01	2.6646	6.893409	0.000355	3.548266	1.202185	-0.000142
 939	9.3331e+01	2.6245	6.768258	0.000314	3.142749	1.064792	-0.000126
 940	9.3430e+01	2.5940	6.614847	0.000385	3.852403	1.305229	-0.000154
 941	9.3530e+01	2.5491	6.445287	0.000426	4.257919	1.442622	-0.000170
 942	9.3629e+01	2.5170	6.299950	0.000365	3.649645	1.236533	-0.000146
 943	9.3729e+01	2.4625	6.150576	0.000375	3.751024	1.270881	-0.000150
 944	9.3829e+01	2.4320	6.053685	0.000243	2.433096	0.824355	-0.000097
 945	9.3928e+01	2.3951	5.896237	0.000395	3.953782	1.339577	-0.000158
 946	9.4028e+01	2.3406	5.763011	0.000335	3.345508	1.133489	-0.000134
 947	9.4127e+01	2.3021	5.690343	0.000182	1.824822	0.618267	-0.000073
 948	9.4227e+01	2.2732	5.512709	0.000446	4.460677	1.511318	-0.000179
 949	9.4326e+01	2.2267	5.403706	0.000274	2.737233	0.927400	-0.000110
 950	9.4425e+01	2.1898	5.250295	0.000385	3.852403	1.305229	-0.000154
 951	9.4525e+01	2.1513	5.113032	0.000345	3.446887	1.167837	-0.000138
 952	9.4624e+01	2.1176	4.951547	0.000406	4.055161	1.373926	-0.000162
 953	9.4724e+01	2.0679	4.846581	0.000264	2.635854	0.893052	-0.000105
 954	9.4823e+01	2.0229	4.721430	0.000314	3.142749	1.064792	-0.000126
 955	9.4923e+01	1.9844	4.559945	0.000406	4.055161	1.373926	-0.000162
 956	9.5022e+01	1.9427	4.394422	0.000416	4.156540	1.408274	-0.000166
 957	9.5122e+01	1.9171	4.200640	0.000487	4.866193	1.648711	-0.000195
 958	9.5222e+01	1.8705	4.071451	0.000324	3.244129	1.099140	-0.000130
 959	9.5321e+01	1.8288	3.934189	0.000345	3.446887	1.167837	-0.000138
 960	9.5421e+01	1.7919	3.800963	0.000335	3.345508	1.133489	-0.000134
 961	9.5520e+01	1.7598	3.675812	0.000314	3.142749	1.064792	-0.000126
 962	9.5620e+01	1.7053	3.522401	0.000385	3.852403	1.305229	-0.000154
 963	9.5719e+01	1.6748	3.348804	0.000436	4.359298	1.476970	-0.000174
 964	9.5819e+01	1.6283	3.215579	0.000335	3.345508	1.133489	-0.000134
 965	9.5918e+01	1.5946	3.114650	0.000253	2.534475	0.858704	-0.000101
 966	9.6017e+01	1.5529	2.981425	0.000335	3.345508	1.133489	-0.000134
 967	9.6117e+01	1.5208	2.904719	0.000193	1.926201	0.652615	-0.000077
 968	9.6216e+01	1.4711	2.714974	0.000476	4.764814	1.614363	-0.000191
 969	9.6316e+01	1.4326	2.593860	0.000304	3.041370	1.030444	-0.000122
 970	9.6415e+01	1.3861	2.472746	0.000304	3.041370	1.030444	-0.000122
 971	9.6515e+01	1.3476	2.319334	0.000385	3.852403	1.305229	-0.000154
 972	9.6615e+01	1.3058	2.161886	0.000395	3.953782	1.339577	-0.000158
 973	9.6714e+01	1.2722	2.012512	0.000375	3.751024	1.270881	-0.000150
 974	9.6814e+01	1.2240	1.867175	0.000365	3.649645	1.236533	-0.000146
 975	9.6913e+01	1.1984	1.762210	0.000264	2.635854	0.893052	-0.000105
 976	9.7013e+01	1.1486	1.544204	0.000547	5.474467	1.854800	-0.000219
 977	9.7112e+01	1.1165	1.378682	0.000416	4.156540	1.408274	-0.000166
 978	9.7212e+01	1.0764	1.229308	0.000375	3.751024	1.270881	-0.000150
 979	9.7311e+01	1.0347	1.100119	0.000324	3.244129	1.099140	-0.000130
 980	9.7410e+01	0.9898	0.946708	0.000385	3.852403	1.305229	-0.000154
 981	9.7510e+01	0.9481	0.793297	0.000385	3.852403	1.305229	-0.000154
 982	9.7609e+01	0.9080	0.692369	0.000253	2.534475	0.858704	-0.000101
 983	9.7709e+01	0.8615	0.538958	0.000385	3.852403	1.305229	-0.000154
 984	9.7808e+01	0.8326	0.389584	0.000375	3.751024	1.270881	-0.000150
 985	9.7908e+01	0.7861	0.312878	0.000193	1.926201	0.652615	-0.000077
 986	9.8007e+01	0.7652	0.175615	0.000345	3.446887	1.167837	-0.000138
 987	9.8107e+01	0.7091	0.034316	0.000355	3.548266	1.202185	-0.000142
 988	9.8207e+01	0.6770	-0.102947	0.000345	3.446887	1.167837	-0.000138
 989	9.8306e+01	0.6465	-0.248284	0.000365	3.649645	1.236533	-0.000146
 990	9.8406e+01	0.5936	-0.377472	0.000324	3.244129	1.099140	-0.000130
 991	9.8505e+01	0.5486	-0.518772	0.000355	3.548266	1.202185	-0.000142
 992	9.8605e+01	0.5101	-0.680257	0.000406	4.055161	1.373926	-0.000162
 993	9.8704e+01	0.4700	-0.805409	0.000314	3.142749	1.064792	-0.000126
 994	9.8803e+01	0.4347	-0.966894	0.000406	4.055161	1.373926	-0.000162
 995	9.8903e+01	0.3866	-1.092045	0.000314	3.142749	1.064792	-0.000126
 996	9.9002e+01	0.3561	-1.277753	0.000466	4.663435	1.580014	-0.000187
 997	9.9102e+01	0.3080	-1.415016	0.000345	3.446887	1.167837	-0.000138
 998	9.9201e+01	0.2695	-1.620910	0.000517	5.170330	1.751755	-0.000207
 999	9.9301e+01	0.2342	-1.746061	0.000314	3.142749	1.064792	-0.000126
1000	9.9400e+01	0.2005	-1.891398	0.000365	3.649645	1.236533	-0.000146
1001	9.9500e+01	0.1684	-1.992326	0.000253	2.534475	0.858704	-0.000101
1002	9.9600e+01	0.1139	-2.141701	0.000375	3.751024	1.270881	-0.000150
1003	9.9699e+01	0.0834	-2.299149	0.000395	3.953782	1.339577	-0.000158
1004	9.9799e+01	0.0241	-2.420263	0.000304	3.041370	1.030444	-0.000122
1005	9.9898e+01	0.0048	-2.480820	0.000152	1.520685	0.515222	-0.000061
1006	9.9998e+01	-0.0305	-2.597897	0.000294	2.939991	0.996096	-0.000118
1007	1.0010e+02	-0.0738	-2.799754	0.000507	5.068951	1.717407	-0.000203
1008	1.0020e+02	-0.1107	-2.908756	0.000274	2.737233	0.927400	-0.000110
1009	1.0030e+02	-0.1636	-3.017759	0.000274	2.737233	0.927400	-0.000110
1010	1.0040e+02	-0.2005	-3.183282	0.000416	4.156540	1.408274	-0.000166
1011	1.0050e+02	-0.2326	-3.320544	0.000345	3.446887	1.167837	-0.000138
1012	1.0059e+02	-0.2839	-3.465881	0.000365	3.649645	1.236533	-0.000146
1013	1.0069e+02	-0.3192	-3.595069	0.000324	3.244129	1.099140	-0.000130
1014	1.0079e+02	-0.3545	-3.760592	0.000416	4.156540	1.408274	-0.000166
1015	1.0089e+02	-0.3946	-3.877669	0.000294	2.939991	0.996096	-0.000118
1016	1.0099e+02	-0.4267	-4.051266	0.000436	4.359298	1.476970	-0.000174
1017	1.0109e+02	-0.4749	-4.164306	0.000284	2.838612	0.961748	-0.000114
1018	1.0119e+02	-0.5166	-4.337902	0.000436	4.359298	1.476970	-0.000174
1019	1.0129e+02	-0.5422	-4.467091	0.000324	3.244129	1.099140	-0.000130
1020	1.0139e+02	-0.5952	-4.616465	0.000375	3.751024	1.270881	-0.000150
1021	1.0149e+02	-0.6305	-4.741616	0.000314	3.142749	1.064792	-0.000126
1022	1.0159e+02	-0.6577	-4.866767	0.000314	3.142749	1.064792	-0.000126
1023	1.0169e+02	-0.7107	-4.943473	0.000193	1.926201	0.652615	-0.000077
1024	1.0179e+02	-0.7540	-5.096884	0.000385	3.852403	1.305229	-0.000154
1025	1.0189e+02	-0.7957	-5.242221	0.000365	3.649645	1.236533	-0.000146
1026	1.0199e+02	-0.8214	-5.375446	0.000335	3.345508	1.133489	-0.000134
1027	1.0209e+02	-0.8647	-5.512709	0.000345	3.446887	1.167837	-0.000138
1028	1.0219e+02	-0.9096	-5.637860	0.000314	3.142749	1.064792	-0.000126
1029	1.0229e+02	-0.9561	-5.783197	0.000365	3.649645	1.236533	-0.000146
1030	1.0239e+02	-0.9834	-5.896237	0.000284	2.838612	0.961748	-0.000114
1031	1.0248e+02	-1.0347	-6.041574	0.000365	3.649645	1.236533	-0.000146
1032	1.0258e+02	-1.0684	-6.166725	0.000314	3.142749	1.064792	-0.000126
1033	1.0268e+02	-1.1182	-6.279765	0.000284	2.838612	0.961748	-0.000114
1034	1.0278e+02	-1.1518	-6.449324	0.000426	4.257919	1.442622	-0.000170
1035	1.0288e+02	-1.1871	-6.594661	0.000365	3.649645	1.236533	-0.000146
1036	1.0298e+02	-1.2256	-6.764221	0.000426	4.257919	1.442622	-0.000170
1037	1.0308e+02	-1.2722	-6.909558	0.000365	3.649645	1.236533	-0.000146
1038	1.0318e+02	-1.3026	-7.042783	0.000335	3.345508	1.133489	-0.000134
1039	1.0328e+02	-1.3524	-7.167935	0.000314	3.142749	1.064792	-0.000126
1040	1.0338e+02	-1.3973	-7.345568	0.000446	4.460677	1.511318	-0.000179
1041	1.0348e+02	-1.4278	-7.422274	0.000193	1.926201	0.652615	-0.000077
1042	1.0358e+02	-1.4647	-7.535314	0.000284	2.838612	0.961748	-0.000114
1043	1.0368e+02	-1.5128	-7.680651	0.000365	3.649645	1.236533	-0.000146
1044	1.0378e+02	-1.5529	-7.821950	0.000355	3.548266	1.202185	-0.000142
1045	1.0388e+02	-1.5850	-7.898656	0.000193	1.926201	0.652615	-0.000077
1046	1.0398e+02	-1.6283	-8.048030	0.000375	3.751024	1.270881	-0.000150
1047	1.0408e+02	-1.6700	-8.165107	0.000294	2.939991	0.996096	-0.000118
1048	1.0418e+02	-1.7069	-8.326592	0.000406	4.055161	1.373926	-0.000162
1049	1.0428e+02	-1.7518	-8.459818	0.000335	3.345508	1.133489	-0.000134
1050	1.0438e+02	-1.7871	-8.548635	0.000223	2.230338	0.755659	-0.000089
1051	1.0447e+02	-1.8336	-8.730306	0.000456	4.562056	1.545666	-0.000183
1052	1.0457e+02	-1.8705	-8.847383	0.000294	2.939991	0.996096	-0.000118
1053	1.0467e+02	-1.9026	-8.972534	0.000314	3.142749	1.064792	-0.000126
1054	1.0477e+02	-1.9475	-9.105760	0.000335	3.345508	1.133489	-0.000134
1055	1.0487e+02	-1.9860	-9.311654	0.000517	5.170330	1.751755	-0.000207
1056	1.0497e+02	-2.0294	-9.428731	0.000294	2.939991	0.996096	-0.000118
1057	1.0507e+02	-2.0663	-9.545807	0.000294	2.939991	0.996096	-0.000118
1058	1.0517e+02	-2.1128	-9.703256	0.000395	3.953782	1.339577	-0.000158
1059	1.0527e+02	-2.1288	-9.828407	0.000314	3.142749	1.064792	-0.000126
1060	1.0537e+02	-2.1834	-9.945484	0.000294	2.939991	0.996096	-0.000118
1061	1.0547e+02	-2.2219	-10.046412	0.000253	2.534475	0.858704	-0.000101
1062	1.0557e+02	-2.2732	-10.163489	0.000294	2.939991	0.996096	-0.000118
1063	1.0567e+02	-2.3117	-10.292678	0.000324	3.244129	1.099140	-0.000130
1064	1.0577e+02	-2.3438	-10.413792	0.000304	3.041370	1.030444	-0.000122
1065	1.0587e+02	-2.4080	-10.547017	0.000335	3.345508	1.133489	-0.000134
1066	1.0597e+02	-2.4288	-10.680243	0.000335	3.345508	1.133489	-0.000134
1067	1.0607e+02	-2.4641	-10.817505	0.000345	3.446887	1.167837	-0.000138
1068	1.0617e+02	-2.5026	-10.906322	0.000223	2.230338	0.755659	-0.000089
1069	1.0627e+02	-2.5507	-11.079919	0.000436	4.359298	1.476970	-0.000174
1070	1.0637e+02	-2.5860	-11.192959	0.000284	2.838612	0.961748	-0.000114
1071	1.0647e+02	-2.6293	-11.285813	0.000233	2.331717	0.790007	-0.000093
1072	1.0656e+02	-2.6582	-11.479595	0.000487	4.866193	1.648711	-0.000195
1073	1.0666e+02	-2.7079	-11.596672	0.000294	2.939991	0.996096	-0.000118
1074	1.0676e+02	-2.7529	-11.770269	0.000436	4.359298	1.476970	-0.000174
1075	1.0686e+02	-2.7882	-11.915606	0.000365	3.649645	1.236533	-0.000146
1076	1.0696e+02	-2.8202	-12.069017	0.000385	3.852403	1.305229	-0.000154
1077	1.0706e+02	-2.8636	-12.190131	0.000304	3.041370	1.030444	-0.000122
1078	1.0716e+02	-2.9005	-12.278948	0.000223	2.230338	0.755659	-0.000089
1079	1.0726e+02	-2.9422	-12.424285	0.000365	3.649645	1.236533	-0.000146
1080	1.0736e+02	-2.9759	-12.517139	0.000233	2.331717	0.790007	-0.000093
1081	1.0746e+02	-3.0176	-12.658439	0.000355	3.548266	1.202185	-0.000142
1082	1.0756e+02	-3.0673	-12.735145	0.000193	1.926201	0.652615	-0.000077
1083	1.0766e+02	-3.1106	-12.896630	0.000406	4.055161	1.373926	-0.000162
1084	1.0776e+02	-3.1427	-13.005633	0.000274	2.737233	0.927400	-0.000110
1085	1.0786e+02	-3.1780	-13.171155	0.000416	4.156540	1.408274	-0.000166
1086	1.0796e+02	-3.2165	-13.300344	0.000324	3.244129	1.099140	-0.000130
1087	1.0806e+02	-3.2550	-13.385124	0.000213	2.128959	0.721311	-0.000085
1088	1.0816e+02	-3.3047	-13.546609	0.000406	4.055161	1.373926	-0.000162
1089	1.0826e+02	-3.3320	-13.671760	0.000314	3.142749	1.064792	-0.000126
1090	1.0836e+02	-3.3881	-13.817097	0.000365	3.649645	1.236533	-0.000146
1091	1.0845e+02	-3.4266	-13.970508	0.000385	3.852403	1.305229	-0.000154
1092	1.0855e+02	-3.4571	-14.119882	0.000375	3.751024	1.270881	-0.000150
1093	1.0865e+02	-3.5036	-14.257145	0.000345	3.446887	1.167837	-0.000138
1094	1.0875e+02	-3.5438	-14.382296	0.000314	3.142749	1.064792	-0.000126
1095	1.0885e+02	-3.5758	-14.495336	0.000284	2.838612	0.961748	-0.000114
1096	1.0895e+02	-3.6208	-14.677007	0.000456	4.562056	1.545666	-0.000183
1097	1.0905e+02	-3.6609	-14.757750	0.000203	2.027580	0.686963	-0.000081
1098	1.0915e+02	-3.7106	-14.846567	0.000223	2.230338	0.755659	-0.000089
1099	1.0925e+02	-3.7363	-14.995941	0.000375	3.751024	1.270881	-0.000150
1100	1.0935e+02	-3.7780	-15.121092	0.000314	3.142749	1.064792	-0.000126
1101	1.0945e+02	-3.8293	-15.250280	0.000324	3.244129	1.099140	-0.000130
1102	1.0955e+02	-3.8598	-15.387543	0.000345	3.446887	1.167837	-0.000138
1103	1.0965e+02	-3.8999	-15.504620	0.000294	2.939991	0.996096	-0.000118
1104	1.0975e+02	-3.9400	-15.666105	0.000406	4.055161	1.373926	-0.000162
1105	1.0985e+02	-3.9881	-15.762996	0.000243	2.433096	0.824355	-0.000097
1106	1.0995e+02	-4.0250	-15.888148	0.000314	3.142749	1.064792	-0.000126
1107	1.1005e+02	-4.0699	-16.045596	0.000395	3.953782	1.339577	-0.000158
1108	1.1015e+02	-4.1036	-16.150562	0.000264	2.635854	0.893052	-0.000105
1109	1.1025e+02	-4.1357	-16.295898	0.000365	3.649645	1.236533	-0.000146
1110	1.1035e+02	-4.1790	-16.497755	0.000507	5.068951	1.717407	-0.000203
1111	1.1044e+02	-4.2191	-16.630981	0.000335	3.345508	1.133489	-0.000134
1112	1.1054e+02	-4.2608	-16.744020	0.000284	2.838612	0.961748	-0.000114
1113	1.1064e+02	-4.2993	-16.861097	0.000294	2.939991	0.996096	-0.000118
1114	1.1074e+02	-4.3459	-16.990286	0.000324	3.244129	1.099140	-0.000130
1115	1.1084e+02	-4.3812	-17.143697	0.000385	3.852403	1.305229	-0.000154
1116	1.1094e+02	-4.4132	-17.289034	0.000365	3.649645	1.236533	-0.000146
1117	1.1104e+02	-4.4550	-17.385925	0.000243	2.433096	0.824355	-0.000097
1118	1.1114e+02	-4.4999	-17.490891	0.000264	2.635854	0.893052	-0.000105
1119	1.1124e+02	-4.5464	-17.571633	0.000203	2.027580	0.686963	-0.000081
1120	1.1134e+02	-4.5833	-17.745230	0.000436	4.359298	1.476970	-0.000174
1121	1.1144e+02	-4.6170	-17.874418	0.000324	3.244129	1.099140	-0.000130
1122	1.1154e+02	-4.6619	-17.991495	0.000294	2.939991	0.996096	-0.000118
1123	1.1164e+02	-4.7100	-18.128758	0.000345	3.446887	1.167837	-0.000138
1124	1.1174e+02	-4.7453	-18.241798	0.000284	2.838612	0.961748	-0.000114
1125	1.1184e+02	-4.7806	-18.375023	0.000335	3.345508	1.133489	-0.000134
1126	1.1194e+02	-4.8207	-18.528434	0.000385	3.852403	1.305229	-0.000154
1127	1.1204e+02	-4.8560	-18.641474	0.000284	2.838612	0.961748	-0.000114
1128	1.1214e+02	-4.8881	-18.815071	0.000436	4.359298	1.476970	-0.000174
1129	1.1224e+02	-4.9346	-18.907925	0.000233	2.331717	0.790007	-0.000093
1130	1.1234e+02	-4.9779	-19.101708	0.000487	4.866193	1.648711	-0.000195
1131	1.1244e+02	-5.0196	-19.247045	0.000365	3.649645	1.236533	-0.000146
1132	1.1253e+02	-5.0581	-19.388344	0.000355	3.548266	1.202185	-0.000142
1133	1.1263e+02	-5.0999	-19.513496	0.000314	3.142749	1.064792	-0.000126
1134	1.1273e+02	-5.1287	-19.622498	0.000274	2.737233	0.927400	-0.000110
1135	1.1283e+02	-5.1769	-19.763798	0.000355	3.548266	1.202185	-0.000142
1136	1.1293e+02	-5.2154	-19.913172	0.000375	3.751024	1.270881	-0.000150
1137	1.1303e+02	-5.2523	-20.038323	0.000314	3.142749	1.064792	-0.000126
1138	1.1313e+02	-5.2956	-20.110992	0.000182	1.824822	0.618267	-0.000073
1139	1.1323e+02	-5.3437	-20.240180	0.000324	3.244129	1.099140	-0.000130
1140	1.1333e+02	-5.3742	-20.337071	0.000243	2.433096	0.824355	-0.000097
1141	1.1343e+02	-5.4143	-20.502594	0.000416	4.156540	1.408274	-0.000166
1142	1.1353e+02	-5.4512	-20.615634	0.000284	2.838612	0.961748	-0.000114
1143	1.1363e+02	-5.4897	-20.760971	0.000365	3.649645	1.236533	-0.000146
1144	1.1373e+02	-5.5426	-20.898233	0.000345	3.446887	1.167837	-0.000138
1145	1.1383e+02	-5.5699	-21.043570	0.000365	3.649645	1.236533	-0.000146
1146	1.1393e+02	-5.6020	-21.144498	0.000253	2.534475	0.858704	-0.000101
1147	1.1403e+02	-5.6517	-21.293872	0.000375	3.751024	1.270881	-0.000150
1148	1.1413e+02	-5.6918	-21.515915	0.000558	5.575846	1.889148	-0.000223
1149	1.1423e+02	-5.7319	-21.600695	0.000213	2.128959	0.721311	-0.000085
1150	1.1433e+02	-5.7704	-21.774292	0.000436	4.359298	1.476970	-0.000174
1151	1.1442e+02	-5.8089	-21.850997	0.000193	1.926201	0.652615	-0.000077
1152	1.1452e+02	-5.8538	-22.016520	0.000416	4.156540	1.408274	-0.000166
1153	1.1462e+02	-5.8988	-22.169931	0.000385	3.852403	1.305229	-0.000154
1154	1.1472e+02	-5.9260	-22.266822	0.000243	2.433096	0.824355	-0.000097
1155	1.1482e+02	-5.9645	-22.387936	0.000304	3.041370	1.030444	-0.000122
1156	1.1492e+02	-6.0127	-22.468679	0.000203	2.027580	0.686963	-0.000081
1157	1.1502e+02	-6.0528	-22.614016	0.000365	3.649645	1.236533	-0.000146
1158	1.1512e+02	-6.0913	-22.682647	0.000172	1.723443	0.583918	-0.000069
1159	1.1522e+02	-6.1218	-22.836058	0.000385	3.852403	1.305229	-0.000154
1160	1.1532e+02	-6.1891	-22.941024	0.000264	2.635854	0.893052	-0.000105
1161	1.1542e+02	-6.2068	-23.110584	0.000426	4.257919	1.442622	-0.000170
1162	1.1552e+02	-6.2565	-23.259958	0.000375	3.751024	1.270881	-0.000150
1163	1.1562e+02	-6.2966	-23.352812	0.000233	2.331717	0.790007	-0.000093
1164	1.1572e+02	-6.3271	-23.486037	0.000335	3.345508	1.133489	-0.000134
1165	1.1582e+02	-6.3688	-23.627337	0.000355	3.548266	1.202185	-0.000142
1166	1.1592e+02	-6.4041	-23.813045	0.000466	4.663435	1.580014	-0.000187
1167	1.1602e+02	-6.4442	-23.918011	0.000264	2.635854	0.893052	-0.000105
1168	1.1612e+02	-6.4859	-24.059310	0.000355	3.548266	1.202185	-0.000142
1169	1.1622e+02	-6.5292	-24.172350	0.000284	2.838612	0.961748	-0.000114
1170	1.1632e+02	-6.5549	-24.329799	0.000395	3.953782	1.339577	-0.000158
1171	1.1642e+02	-6.6046	-24.414578	0.000213	2.128959	0.721311	-0.000085
1172	1.1651e+02	-6.6383	-24.547804	0.000335	3.345508	1.133489	-0.000134
1173	1.1661e+02	-6.6880	-24.709289	0.000406	4.055161	1.373926	-0.000162
1174	1.1671e+02	-6.7298	-24.798106	0.000223	2.230338	0.755659	-0.000089
1175	1.1681e+02	-6.7634	-24.943443	0.000365	3.649645	1.236533	-0.000146
1176	1.1691e+02	-6.8084	-25.064557	0.000304	3.041370	1.030444	-0.000122
1177	1.1701e+02	-6.8485	-25.201820	0.000345	3.446887	1.167837	-0.000138
1178	1.1711e+02	-6.8822	-25.266414	0.000162	1.622064	0.549570	-0.000065
1179	1.1721e+02	-6.9239	-25.407714	0.000355	3.548266	1.202185	-0.000142
1180	1.1731e+02	-6.9624	-25.508642	0.000253	2.534475	0.858704	-0.000101
1181	1.1741e+02	-7.0089	-25.613608	0.000264	2.635854	0.893052	-0.000105
1182	1.1751e+02	-7.0490	-25.811427	0.000497	4.967572	1.683059	-0.000199
1183	1.1761e+02	-7.0843	-25.928504	0.000294	2.939991	0.996096	-0.000118
1184	1.1771e+02	-7.1308	-26.106138	0.000446	4.460677	1.511318	-0.000179
1185	1.1781e+02	-7.1693	-26.170732	0.000162	1.622064	0.549570	-0.000065
1186	1.1791e+02	-7.2014	-26.303958	0.000335	3.345508	1.133489	-0.000134
1187	1.1801e+02	-7.2447	-26.481592	0.000446	4.460677	1.511318	-0.000179
1188	1.1811e+02	-7.2880	-26.566372	0.000213	2.128959	0.721311	-0.000085
1189	1.1821e+02	-7.3249	-26.683449	0.000294	2.939991	0.996096	-0.000118
1190	1.1831e+02	-7.3618	-26.808600	0.000314	3.142749	1.064792	-0.000126
1191	1.1841e+02	-7.3971	-26.962011	0.000385	3.852403	1.305229	-0.000154
1192	1.1850e+02	-7.4501	-27.083125	0.000304	3.041370	1.030444	-0.000122
1193	1.1860e+02	-7.4821	-27.167905	0.000213	2.128959	0.721311	-0.000085
1194	1.1870e+02	-7.5287	-27.284982	0.000294	2.939991	0.996096	-0.000118
1195	1.1880e+02	-7.5688	-27.398022	0.000284	2.838612	0.961748	-0.000114
1196	1.1890e+02	-7.6089	-27.486839	0.000223	2.230338	0.755659	-0.000089
1197	1.1900e+02	-7.6474	-27.583730	0.000243	2.433096	0.824355	-0.000097
1198	1.1910e+02	-7.6875	-27.737141	0.000385	3.852403	1.305229	-0.000154
1199	1.1920e+02	-7.7196	-27.886515	0.000375	3.751024	1.270881	-0.000150
1200	1.1930e+02	-7.7597	-27.955146	0.000172	1.723443	0.583918	-0.000069
1201	1.1940e+02	-7.8062	-28.112595	0.000395	3.953782	1.339577	-0.000158
1202	1.1950e+02	-7.8367	-28.241783	0.000324	3.244129	1.099140	-0.000130
1203	1.1960e+02	-7.8768	-28.391157	0.000375	3.751024	1.270881	-0.000150
1204	1.1970e+02	-7.9265	-28.540531	0.000375	3.751024	1.270881	-0.000150
1205	1.1980e+02	-7.9618	-28.661645	0.000304	3.041370	1.030444	-0.000122
1206	1.1990e+02	-8.0019	-28.746425	0.000213	2.128959	0.721311	-0.000085
1207	1.2000e+02	-8.0404	-28.887725	0.000355	3.548266	1.202185	-0.000142
1208	1.2010e+02	-8.0757	-29.029025	0.000355	3.548266	1.202185	-0.000142
1209	1.2020e+02	-8.1270	-29.133990	0.000264	2.635854	0.893052	-0.000105
1210	1.2030e+02	-8.1639	-29.259141	0.000314	3.142749	1.064792	-0.000126
1211	1.2039e+02	-8.2024	-29.372181	0.000284	2.838612	0.961748	-0.000114
1212	1.2049e+02	-8.2409	-29.497332	0.000314	3.142749	1.064792	-0.000126
1213	1.2059e+02	-8.2778	-29.622483	0.000314	3.142749	1.064792	-0.000126
1214	1.2069e+02	-8.3131	-29.747635	0.000314	3.142749	1.064792	-0.000126
1215	1.2079e+02	-8.3677	-29.812229	0.000162	1.622064	0.549570	-0.000065
1216	1.2089e+02	-8.3998	-29.917194	0.000264	2.635854	0.893052	-0.000105
1217	1.2099e+02	-8.4447	-29.989863	0.000182	1.824822	0.618267	-0.000073
1218	1.2109e+02	-8.4848	-30.147311	0.000395	3.953782	1.339577	-0.000158
1219	1.2119e+02	-8.5089	-30.272462	0.000314	3.142749	1.064792	-0.000126
1220	1.2129e+02	-8.5538	-30.417799	0.000365	3.649645	1.236533	-0.000146
1221	1.2139e+02	-8.5939	-30.567173	0.000375	3.751024	1.270881	-0.000150
1222	1.2149e+02	-8.6404	-30.680213	0.000284	2.838612	0.961748	-0.000114
1223	1.2159e+02	-8.6837	-30.756919	0.000193	1.926201	0.652615	-0.000077
1224	1.2169e+02	-8.7142	-30.934553	0.000446	4.460677	1.511318	-0.000179
1225	1.2179e+02	-8.7527	-31.043555	0.000274	2.737233	0.927400	-0.000110
1226	1.2189e+02	-8.8008	-31.172744	0.000324	3.244129	1.099140	-0.000130
1227	1.2199e+02	-8.8409	-31.269635	0.000243	2.433096	0.824355	-0.000097
1228	1.2209e+02	-8.8891	-31.366526	0.000243	2.433096	0.824355	-0.000097
1229	1.2219e+02	-8.9163	-31.471492	0.000264	2.635854	0.893052	-0.000105
1230	1.2229e+02	-8.9628	-31.616829	0.000365	3.649645	1.236533	-0.000146
1231	1.2239e+02	-8.9981	-31.713720	0.000243	2.433096	0.824355	-0.000097
1232	1.2248e+02	-9.0350	-31.838871	0.000314	3.142749	1.064792	-0.000126
1233	1.2258e+02	-9.0784	-31.915577	0.000193	1.926201	0.652615	-0.000077
1234	1.2268e+02	-9.1217	-32.036691	0.000304	3.041370	1.030444	-0.000122
1235	1.2278e+02	-9.1538	-32.157805	0.000304	3.041370	1.030444	-0.000122
1236	1.2288e+02	-9.1955	-32.262770	0.000264	2.635854	0.893052	-0.000105
1237	1.2298e+02	-9.2372	-32.387921	0.000314	3.142749	1.064792	-0.000126
1238	1.2308e+02	-9.2805	-32.521147	0.000335	3.345508	1.133489	-0.000134
1239	1.2318e+02	-9.3142	-32.638224	0.000294	2.939991	0.996096	-0.000118
1240	1.2328e+02	-9.3495	-32.767412	0.000324	3.244129	1.099140	-0.000130
1241	1.2338e+02	-9.3960	-32.896601	0.000324	3.244129	1.099140	-0.000130
1242	1.2348e+02	-9.4265	-32.941009	0.000112	1.115169	0.377830	-0.000045
1243	1.2358e+02	-9.4746	-33.110569	0.000426	4.257919	1.442622	-0.000170
1244	1.2368e+02	-9.5115	-33.195349	0.000213	2.128959	0.721311	-0.000085
1245	1.2378e+02	-9.5516	-33.336648	0.000355	3.548266	1.202185	-0.000142
1246	1.2388e+02	-9.5949	-33.477948	0.000355	3.548266	1.202185	-0.000142
1247	1.2398e+02	-9.6366	-33.550617	0.000182	1.824822	0.618267	-0.000073
1248	1.2408e+02	-9.6767	-33.667693	0.000294	2.939991	0.996096	-0.000118
1249	1.2418e+02	-9.7168	-33.784770	0.000294	2.939991	0.996096	-0.000118
1250	1.2428e+02	-9.7602	-33.913959	0.000324	3.244129	1.099140	-0.000130
1251	1.2438e+02	-9.7906	-34.018924	0.000264	2.635854	0.893052	-0.000105
1252	1.2447e+02	-9.8339	-34.075444	0.000142	1.419306	0.480874	-0.000057
1253	1.2457e+02	-9.8644	-34.196558	0.000304	3.041370	1.030444	-0.000122
1254	1.2467e+02	-9.9206	-34.333821	0.000345	3.446887	1.167837	-0.000138
1255	1.2477e+02	-9.9511	-34.434749	0.000253	2.534475	0.858704	-0.000101
1256	1.2487e+02	-9.9880	-34.567975	0.000335	3.345508	1.133489	-0.000134
1257	1.2497e+02	-10.0313	-34.717349	0.000375	3.751024	1.270881	-0.000150
1258	1.2507e+02	-10.0730	-34.842500	0.000314	3.142749	1.064792	-0.000126
1259	1.2517e+02	-10.1163	-34.955540	0.000284	2.838612	0.961748	-0.000114
1260	1.2527e+02	-10.1484	-35.084728	0.000324	3.244129	1.099140	-0.000130
1261	1.2537e+02	-10.1965	-35.165471	0.000203	2.027580	0.686963	-0.000081
1262	1.2547e+02	-10.2238	-35.355216	0.000476	4.764814	1.614363	-0.000191
1263	1.2557e+02	-10.2703	-35.439996	0.000213	2.128959	0.721311	-0.000085
1264	1.2567e+02	-10.3184	-35.524776	0.000213	2.128959	0.721311	-0.000085
1265	1.2577e+02	-10.3521	-35.694336	0.000426	4.257919	1.442622	-0.000170
1266	1.2587e+02	-10.4034	-35.750856	0.000142	1.419306	0.480874	-0.000057
1267	1.2597e+02	-10.4339	-35.880044	0.000324	3.244129	1.099140	-0.000130
1268	1.2607e+02	-10.4740	-36.013269	0.000335	3.345508	1.133489	-0.000134
1269	1.2617e+02	-10.5061	-36.130346	0.000294	2.939991	0.996096	-0.000118
1270	1.2627e+02	-10.5639	-36.231275	0.000253	2.534475	0.858704	-0.000101
1271	1.2636e+02	-10.5992	-36.312017	0.000203	2.027580	0.686963	-0.000081
1272	1.2646e+02	-10.6248	-36.429094	0.000294	2.939991	0.996096	-0.000118
1273	1.2656e+02	-10.6617	-36.562320	0.000335	3.345508	1.133489	-0.000134
1274	1.2666e+02	-10.6986	-36.727842	0.000416	4.156540	1.408274	-0.000166
1275	1.2676e+02	-10.7468	-36.873179	0.000365	3.649645	1.236533	-0.000146
1276	1.2686e+02	-10.7901	-36.933736	0.000152	1.520685	0.515222	-0.000061
1277	1.2696e+02	-10.8318	-37.050813	0.000294	2.939991	0.996096	-0.000118
1278	1.2706e+02	-10.8655	-37.188076	0.000345	3.446887	1.167837	-0.000138
1279	1.2716e+02	-10.9024	-37.248633	0.000152	1.520685	0.515222	-0.000061
1280	1.2726e+02	-10.9489	-37.365710	0.000294	2.939991	0.996096	-0.000118
1281	1.2736e+02	-10.9890	-37.527195	0.000406	4.055161	1.373926	-0.000162
1282	1.2746e+02	-11.0339	-37.672532	0.000365	3.649645	1.236533	-0.000146
1283	1.2756e+02	-11.0692	-37.725015	0.000132	1.317927	0.446526	-0.000053
1284	1.2766e+02	-11.1077	-37.878426	0.000385	3.852403	1.305229	-0.000154
1285	1.2776e+02	-11.1639	-37.951095	0.000182	1.824822	0.618267	-0.000073
1286	1.2786e+02	-11.1943	-38.052023	0.000253	2.534475	0.858704	-0.000101
1287	1.2796e+02	-11.2296	-38.213508	0.000406	4.055161	1.373926	-0.000162
1288	1.2806e+02	-11.2665	-38.314437	0.000253	2.534475	0.858704	-0.000101
1289	1.2816e+02	-11.3002	-38.435551	0.000304	3.041370	1.030444	-0.000122
1290	1.2826e+02	-11.3483	-38.576851	0.000355	3.548266	1.202185	-0.000142
1291	1.2835e+02	-11.3836	-38.685853	0.000274	2.737233	0.927400	-0.000110
1292	1.2845e+02	-11.4302	-38.766596	0.000203	2.027580	0.686963	-0.000081
1293	1.2855e+02	-11.4622	-38.915970	0.000375	3.751024	1.270881	-0.000150
1294	1.2865e+02	-11.5040	-39.037084	0.000304	3.041370	1.030444	-0.000122
1295	1.2875e+02	-11.5457	-39.142050	0.000264	2.635854	0.893052	-0.000105
1296	1.2885e+02	-11.5906	-39.251052	0.000274	2.737233	0.927400	-0.000110
1297	1.2895e+02	-11.6227	-39.404463	0.000385	3.852403	1.305229	-0.000154
1298	1.2905e+02	-11.6660	-39.509429	0.000264	2.635854	0.893052	-0.000105
1299	1.2915e+02	-11.7093	-39.614394	0.000264	2.635854	0.893052	-0.000105
1300	1.2925e+02	-11.7414	-39.751657	0.000345	3.446887	1.167837	-0.000138
1301	1.2935e+02	-11.7943	-39.840474	0.000223	2.230338	0.755659	-0.000089
1302	1.2945e+02	-11.8216	-39.941402	0.000253	2.534475	0.858704	-0.000101
1303	1.2955e+02	-11.8617	-40.106925	0.000416	4.156540	1.408274	-0.000166
1304	1.2965e+02	-11.9194	-40.215928	0.000274	2.737233	0.927400	-0.000110
1305	1.2975e+02	-11.9483	-40.345116	0.000324	3.244129	1.099140	-0.000130
1306	1.2985e+02	-11.9852	-40.429896	0.000213	2.128959	0.721311	-0.000085
1307	1.2995e+02	-12.0253	-40.526787	0.000243	2.433096	0.824355	-0.000097
1308	1.3005e+02	-12.0638	-40.660013	0.000335	3.345508	1.133489	-0.000134
1309	1.3015e+02	-12.1023	-40.764978	0.000264	2.635854	0.893052	-0.000105
1310	1.3025e+02	-12.1424	-40.869944	0.000264	2.635854	0.893052	-0.000105
1311	1.3034e+02	-12.1858	-41.023355	0.000385	3.852403	1.305229	-0.000154
1312	1.3044e+02	-12.2339	-41.136395	0.000284	2.838612	0.961748	-0.000114
1313	1.3054e+02	-12.2579	-41.233286	0.000243	2.433096	0.824355	-0.000097
1314	1.3064e+02	-12.3029	-41.370548	0.000345	3.446887	1.167837	-0.000138
1315	1.3074e+02	-12.3462	-41.495700	0.000314	3.142749	1.064792	-0.000126
1316	1.3084e+02	-12.3911	-41.636999	0.000355	3.548266	1.202185	-0.000142
1317	1.3094e+02	-12.4216	-41.717742	0.000203	2.027580	0.686963	-0.000081
1318	1.3104e+02	-12.4697	-41.859042	0.000355	3.548266	1.202185	-0.000142
1319	1.3114e+02	-12.5066	-41.976119	0.000294	2.939991	0.996096	-0.000118
1320	1.3124e+02	-12.5435	-42.077047	0.000253	2.534475	0.858704	-0.000101
1321	1.3134e+02	-12.5852	-42.173938	0.000243	2.433096	0.824355	-0.000097
1322	1.3144e+02	-12.6141	-42.286978	0.000284	2.838612	0.961748	-0.000114
1323	1.3154e+02	-12.6590	-42.375795	0.000223	2.230338	0.755659	-0.000089
1324	1.3164e+02	-12.7023	-42.545355	0.000426	4.257919	1.442622	-0.000170
1325	1.3174e+02	-12.7392	-42.662432	0.000294	2.939991	0.996096	-0.000118
1326	1.3184e+02	-12.7809	-42.763360	0.000253	2.534475	0.858704	-0.000101
1327	1.3194e+02	-12.8242	-42.848140	0.000213	2.128959	0.721311	-0.000085
1328	1.3204e+02	-12.8708	-42.949069	0.000253	2.534475	0.858704	-0.000101
1329	1.3214e+02	-12.9093	-43.098443	0.000375	3.751024	1.270881	-0.000150
1330	1.3224e+02	-12.9413	-43.227631	0.000324	3.244129	1.099140	-0.000130
1331	1.3234e+02	-12.9798	-43.332596	0.000264	2.635854	0.893052	-0.000105
1332	1.3243e+02	-13.0200	-43.437562	0.000264	2.635854	0.893052	-0.000105
1333	1.3253e+02	-13.0585	-43.582899	0.000365	3.649645	1.236533	-0.000146
1334	1.3263e+02	-13.0986	-43.720161	0.000345	3.446887	1.167837	-0.000138
1335	1.3273e+02	-13.1339	-43.764570	0.000112	1.115169	0.377830	-0.000045
1336	1.3283e+02	-13.1868	-43.885684	0.000304	3.041370	1.030444	-0.000122
1337	1.3293e+02	-13.2253	-44.031021	0.000365	3.649645	1.236533	-0.000146
1338	1.3303e+02	-13.2574	-44.140024	0.000274	2.737233	0.927400	-0.000110
1339	1.3313e+02	-13.2975	-44.253063	0.000284	2.838612	0.961748	-0.000114
1340	1.3323e+02	-13.3360	-44.349955	0.000243	2.433096	0.824355	-0.000097
1341	1.3333e+02	-13.3793	-44.467032	0.000294	2.939991	0.996096	-0.000118
1342	1.3343e+02	-13.4226	-44.600257	0.000335	3.345508	1.133489	-0.000134
1343	1.3353e+02	-13.4643	-44.697148	0.000243	2.433096	0.824355	-0.000097
1344	1.3363e+02	-13.5028	-44.781928	0.000213	2.128959	0.721311	-0.000085
1345	1.3373e+02	-13.5301	-44.915154	0.000335	3.345508	1.133489	-0.000134
1346	1.3383e+02	-13.5734	-45.020119	0.000264	2.635854	0.893052	-0.000105
1347	1.3393e+02	-13.6087	-45.145270	0.000314	3.142749	1.064792	-0.000126
1348	1.3403e+02	-13.6536	-45.262347	0.000294	2.939991	0.996096	-0.000118
1349	1.3413e+02	-13.6889	-45.351164	0.000223	2.230338	0.755659	-0.000089
1350	1.3423e+02	-13.7338	-45.500538	0.000375	3.751024	1.270881	-0.000150
1351	1.3432e+02	-13.7820	-45.585318	0.000213	2.128959	0.721311	-0.000085
1352	1.3442e+02	-13.8221	-45.698358	0.000284	2.838612	0.961748	-0.000114
1353	1.3452e+02	-13.8718	-45.827546	0.000324	3.244129	1.099140	-0.000130
1354	1.3462e+02	-13.8911	-45.904252	0.000193	1.926201	0.652615	-0.000077
1355	1.3472e+02	-13.9552	-46.053626	0.000375	3.751024	1.270881	-0.000150
1356	1.3482e+02	-13.9777	-46.134369	0.000203	2.027580	0.686963	-0.000081
1357	1.3492e+02	-14.0242	-46.247408	0.000284	2.838612	0.961748	-0.000114
1358	1.3502e+02	-14.0611	-46.368523	0.000304	3.041370	1.030444	-0.000122
1359	1.3512e+02	-14.0868	-46.453302	0.000213	2.128959	0.721311	-0.000085
1360	1.3522e+02	-14.1381	-46.598639	0.000365	3.649645	1.236533	-0.000146
1361	1.3532e+02	-14.1846	-46.707642	0.000274	2.737233	0.927400	-0.000110
1362	1.3542e+02	-14.2231	-46.776273	0.000172	1.723443	0.583918	-0.000069
1363	1.3552e+02	-14.2552	-46.917573	0.000355	3.548266	1.202185	-0.000142
1364	1.3562e+02	-14.2969	-47.018501	0.000253	2.534475	0.858704	-0.000101
1365	1.3572e+02	-14.3386	-47.131541	0.000284	2.838612	0.961748	-0.000114
1366	1.3582e+02	-14.3787	-47.220358	0.000223	2.230338	0.755659	-0.000089
1367	1.3592e+02	-14.4188	-47.313212	0.000233	2.331717	0.790007	-0.000093
1368	1.3602e+02	-14.4509	-47.470661	0.000395	3.953782	1.339577	-0.000158
1369	1.3612e+02	-14.4942	-47.575626	0.000264	2.635854	0.893052	-0.000105
1370	1.3622e+02	-14.5376	-47.636183	0.000152	1.520685	0.515222	-0.000061
1371	1.3631e+02	-14.5761	-47.749223	0.000284	2.838612	0.961748	-0.000114
1372	1.3641e+02	-14.6130	-47.890523	0.000355	3.548266	1.202185	-0.000142
1373	1.3651e+02	-14.6482	-47.947043	0.000142	1.419306	0.480874	-0.000057
1374	1.3661e+02	-14.6900	-48.092379	0.000365	3.649645	1.236533	-0.000146
1375	1.3671e+02	-14.7317	-48.233679	0.000355	3.548266	1.202185	-0.000142
1376	1.3681e+02	-14.7798	-48.302311	0.000172	1.723443	0.583918	-0.000069
1377	1.3691e+02	-14.8055	-48.407276	0.000264	2.635854	0.893052	-0.000105
1378	1.3701e+02	-14.8552	-48.512242	0.000264	2.635854	0.893052	-0.000105
1379	1.3711e+02	-14.8889	-48.601059	0.000223	2.230338	0.755659	-0.000089
1380	1.3721e+02	-14.9306	-48.762544	0.000406	4.055161	1.373926	-0.000162
1381	1.3731e+02	-14.9627	-48.871547	0.000274	2.737233	0.927400	-0.000110
1382	1.3741e+02	-15.0156	-49.024958	0.000385	3.852403	1.305229	-0.000154
1383	1.3751e+02	-15.0509	-49.077441	0.000132	1.317927	0.446526	-0.000053
1384	1.3761e+02	-15.0798	-49.174332	0.000243	2.433096	0.824355	-0.000097
1385	1.3771e+02	-15.1456	-49.287372	0.000284	2.838612	0.961748	-0.000114
1386	1.3781e+02	-15.1648	-49.356003	0.000172	1.723443	0.583918	-0.000069
1387	1.3791e+02	-15.2210	-49.473080	0.000294	2.939991	0.996096	-0.000118
1388	1.3801e+02	-15.2546	-49.537674	0.000162	1.622064	0.549570	-0.000065
1389	1.3811e+02	-15.2996	-49.642640	0.000264	2.635854	0.893052	-0.000105
1390	1.3821e+02	-15.3300	-49.739531	0.000243	2.433096	0.824355	-0.000097
1391	1.3831e+02	-15.3750	-49.892942	0.000385	3.852403	1.305229	-0.000154
1392	1.3840e+02	-15.4103	-49.981759	0.000223	2.230338	0.755659	-0.000089
1393	1.3850e+02	-15.4568	-50.082687	0.000253	2.534475	0.858704	-0.000101
1394	1.3860e+02	-15.4953	-50.223987	0.000355	3.548266	1.202185	-0.000142
1395	1.3870e+02	-15.5386	-50.320878	0.000243	2.433096	0.824355	-0.000097
1396	1.3880e+02	-15.5675	-50.369324	0.000122	1.216548	0.412178	-0.000049
1397	1.3890e+02	-15.6028	-50.486401	0.000294	2.939991	0.996096	-0.000118
1398	1.3900e+02	-15.6493	-50.611552	0.000314	3.142749	1.064792	-0.000126
1399	1.3910e+02	-15.6846	-50.777075	0.000416	4.156540	1.408274	-0.000166
1400	1.3920e+02	-15.7263	-50.837632	0.000152	1.520685	0.515222	-0.000061
1401	1.3930e+02	-15.7632	-50.978932	0.000355	3.548266	1.202185	-0.000142
1402	1.3940e+02	-15.8097	-51.079860	0.000253	2.534475	0.858704	-0.000101
1403	1.3950e+02	-15.8627	-51.152528	0.000182	1.824822	0.618267	-0.000073
1404	1.3960e+02	-15.8899	-51.241345	0.000223	2.230338	0.755659	-0.000089
1405	1.3970e+02	-15.9316	-51.309977	0.000172	1.723443	0.583918	-0.000069
1406	1.3980e+02	-15.9669	-51.451276	0.000355	3.548266	1.202185	-0.000142
1407	1.3990e+02	-16.0118	-51.564316	0.000284	2.838612	0.961748	-0.000114
1408	1.4000e+02	-16.0439	-51.641022	0.000193	1.926201	0.652615	-0.000077
1409	1.4010e+02	-16.0905	-51.737913	0.000243	2.433096	0.824355	-0.000097
1410	1.4020e+02	-16.1338	-51.822693	0.000213	2.128959	0.721311	-0.000085
1411	1.4029e+02	-16.1659	-51.939770	0.000294	2.939991	0.996096	-0.000118
1412	1.4039e+02	-16.2060	-52.044735	0.000264	2.635854	0.893052	-0.000105
1413	1.4049e+02	-16.2493	-52.109330	0.000162	1.622064	0.549570	-0.000065
1414	1.4059e+02	-16.2926	-52.254666	0.000365	3.649645	1.236533	-0.000146
1415	1.4069e+02	-16.3247	-52.404040	0.000375	3.751024	1.270881	-0.000150
1416	1.4079e+02	-16.3648	-52.529192	0.000314	3.142749	1.064792	-0.000126
1417	1.4089e+02	-16.4081	-52.654343	0.000314	3.142749	1.064792	-0.000126
1418	1.4099e+02	-16.4482	-52.747197	0.000233	2.331717	0.790007	-0.000093
1419	1.4109e+02	-16.4883	-52.900608	0.000385	3.852403	1.305229	-0.000154
1420	1.4119e+02	-16.5300	-52.981351	0.000203	2.027580	0.686963	-0.000081
1421	1.4129e+02	-16.5621	-53.045945	0.000162	1.622064	0.549570	-0.000065
1422	1.4139e+02	-16.6022	-53.118613	0.000182	1.824822	0.618267	-0.000073
1423	1.4149e+02	-16.6455	-53.195319	0.000193	1.926201	0.652615	-0.000077
1424	1.4159e+02	-16.6872	-53.320470	0.000314	3.142749	1.064792	-0.000126
1425	1.4169e+02	-16.7113	-53.381027	0.000152	1.520685	0.515222	-0.000061
1426	1.4179e+02	-16.7610	-53.538476	0.000395	3.953782	1.339577	-0.000158
1427	1.4189e+02	-16.8108	-53.599033	0.000152	1.520685	0.515222	-0.000061
1428	1.4199e+02	-16.8412	-53.708035	0.000274	2.737233	0.927400	-0.000110
1429	1.4209e+02	-16.8829	-53.817038	0.000274	2.737233	0.927400	-0.000110
1430	1.4219e+02	-16.9198	-53.926041	0.000274	2.737233	0.927400	-0.000110
1431	1.4228e+02	-16.9680	-54.006783	0.000203	2.027580	0.686963	-0.000081
1432	1.4238e+02	-16.9936	-54.135972	0.000324	3.244129	1.099140	-0.000130
1433	1.4248e+02	-17.0370	-54.265160	0.000324	3.244129	1.099140	-0.000130
1434	1.4258e+02	-17.0867	-54.382237	0.000294	2.939991	0.996096	-0.000118
1435	1.4268e+02	-17.1284	-54.523537	0.000355	3.548266	1.202185	-0.000142
1436	1.4278e+02	-17.1637	-54.648688	0.000314	3.142749	1.064792	-0.000126
1437	1.4288e+02	-17.2054	-54.781913	0.000335	3.345508	1.133489	-0.000134
1438	1.4298e+02	-17.2375	-54.826322	0.000112	1.115169	0.377830	-0.000045
1439	1.4308e+02	-17.2920	-54.967622	0.000355	3.548266	1.202185	-0.000142
1440	1.4318e+02	-17.3161	-55.012030	0.000112	1.115169	0.377830	-0.000045
1441	1.4328e+02	-17.3674	-55.153330	0.000355	3.548266	1.202185	-0.000142
1442	1.4338e+02	-17.4011	-55.205813	0.000132	1.317927	0.446526	-0.000053
1443	1.4348e+02	-17.4444	-55.314815	0.000274	2.737233	0.927400	-0.000110
1444	1.4358e+02	-17.4829	-55.460152	0.000365	3.649645	1.236533	-0.000146
1445	1.4368e+02	-17.5278	-55.528784	0.000172	1.723443	0.583918	-0.000069
1446	1.4378e+02	-17.5647	-55.645860	0.000294	2.939991	0.996096	-0.000118
1447	1.4388e+02	-17.6000	-55.722566	0.000193	1.926201	0.652615	-0.000077
1448	1.4398e+02	-17.6385	-55.867903	0.000365	3.649645	1.236533	-0.000146
1449	1.4408e+02	-17.6802	-55.964794	0.000243	2.433096	0.824355	-0.000097
1450	1.4418e+02	-17.7220	-56.033425	0.000172	1.723443	0.583918	-0.000069
1451	1.4428e+02	-17.7701	-56.182799	0.000375	3.751024	1.270881	-0.000150
1452	1.4437e+02	-17.7861	-56.303914	0.000304	3.041370	1.030444	-0.000122
1453	1.4447e+02	-17.8359	-56.429065	0.000314	3.142749	1.064792	-0.000126
1454	1.4457e+02	-17.8760	-56.562290	0.000335	3.345508	1.133489	-0.000134
1455	1.4467e+02	-17.9161	-56.659182	0.000243	2.433096	0.824355	-0.000097
1456	1.4477e+02	-17.9562	-56.800481	0.000355	3.548266	1.202185	-0.000142
1457	1.4487e+02	-17.9931	-56.877187	0.000193	1.926201	0.652615	-0.000077
1458	1.4497e+02	-18.0428	-56.990227	0.000284	2.838612	0.961748	-0.000114
1459	1.4507e+02	-18.0797	-57.083081	0.000233	2.331717	0.790007	-0.000093
1460	1.4517e+02	-18.1278	-57.179972	0.000243	2.433096	0.824355	-0.000097
1461	1.4527e+02	-18.1615	-57.276863	0.000243	2.433096	0.824355	-0.000097
1462	1.4537e+02	-18.2048	-57.377792	0.000253	2.534475	0.858704	-0.000101
1463	1.4547e+02	-18.2369	-57.490831	0.000284	2.838612	0.961748	-0.000114
1464	1.4557e+02	-18.2834	-57.587723	0.000243	2.433096	0.824355	-0.000097
1465	1.4567e+02	-18.3268	-57.716911	0.000324	3.244129	1.099140	-0.000130
1466	1.4577e+02	-18.3669	-57.817839	0.000253	2.534475	0.858704	-0.000101
1467	1.4587e+02	-18.4038	-57.922805	0.000264	2.635854	0.893052	-0.000105
1468	1.4597e+02	-18.4471	-57.995473	0.000182	1.824822	0.618267	-0.000073
1469	1.4607e+02	-18.4856	-58.124662	0.000324	3.244129	1.099140	-0.000130
1470	1.4617e+02	-18.5145	-58.253850	0.000324	3.244129	1.099140	-0.000130
1471	1.4626e+02	-18.5610	-58.395150	0.000355	3.548266	1.202185	-0.000142
1472	1.4636e+02	-18.5995	-58.544524	0.000375	3.751024	1.270881	-0.000150
1473	1.4646e+02	-18.6396	-58.657564	0.000284	2.838612	0.961748	-0.000114
1474	1.4656e+02	-18.6797	-58.758492	0.000253	2.534475	0.858704	-0.000101
1475	1.4666e+02	-18.7182	-58.851346	0.000233	2.331717	0.790007	-0.000093
1476	1.4676e+02	-18.7599	-58.996683	0.000365	3.649645	1.236533	-0.000146
1477	1.4686e+02	-18.7984	-59.077426	0.000203	2.027580	0.686963	-0.000081
1478	1.4696e+02	-18.8353	-59.170280	0.000233	2.331717	0.790007	-0.000093
1479	1.4706e+02	-18.8786	-59.303505	0.000335	3.345508	1.133489	-0.000134
1480	1.4716e+02	-18.9235	-59.364062	0.000152	1.520685	0.515222	-0.000061
1481	1.4726e+02	-18.9620	-59.473065	0.000274	2.737233	0.927400	-0.000110
1482	1.4736e+02	-18.9925	-59.626476	0.000385	3.852403	1.305229	-0.000154
1483	1.4746e+02	-19.0438	-59.707219	0.000203	2.027580	0.686963	-0.000081
1484	1.4756e+02	-19.0856	-59.832370	0.000314	3.142749	1.064792	-0.000126
1485	1.4766e+02	-19.1128	-59.909076	0.000193	1.926201	0.652615	-0.000077
1486	1.4776e+02	-19.1545	-60.082673	0.000436	4.359298	1.476970	-0.000174
1487	1.4786e+02	-19.1962	-60.167452	0.000213	2.128959	0.721311	-0.000085
1488	1.4796e+02	-19.2299	-60.349124	0.000456	4.562056	1.545666	-0.000183
1489	1.4806e+02	-19.2781	-60.446015	0.000243	2.433096	0.824355	-0.000097
1490	1.4816e+02	-19.3118	-60.555018	0.000274	2.737233	0.927400	-0.000110
1491	1.4825e+02	-19.3454	-60.708429	0.000385	3.852403	1.305229	-0.000154
1492	1.4835e+02	-19.3872	-60.793209	0.000213	2.128959	0.721311	-0.000085
1493	1.4845e+02	-19.4369	-60.898174	0.000264	2.635854	0.893052	-0.000105
1494	1.4855e+02	-19.4770	-61.015251	0.000294	2.939991	0.996096	-0.000118
1495	1.4865e+02	-19.5139	-61.104068	0.000223	2.230338	0.755659	-0.000089
1496	1.4875e+02	-19.5604	-61.249405	0.000365	3.649645	1.236533	-0.000146
1497	1.4885e+02	-19.5893	-61.334185	0.000213	2.128959	0.721311	-0.000085
1498	1.4895e+02	-19.6262	-61.455299	0.000304	3.041370	1.030444	-0.000122
1499	1.4905e+02	-19.6743	-61.491633	0.000091	0.912411	0.309133	-0.000037
1500	1.4915e+02	-19.7176	-61.645044	0.000385	3.852403	1.305229	-0.000154
1501	1.4925e+02	-19.7658	-61.810567	0.000416	4.156540	1.408274	-0.000166
1502	1.4935e+02	-19.8010	-61.883235	0.000182	1.824822	0.618267	-0.000073
1503	1.4945e+02	-19.8363	-61.996275	0.000284	2.838612	0.961748	-0.000114
1504	1.4955e+02	-19.8716	-62.105278	0.000274	2.737233	0.927400	-0.000110
1505	1.4965e+02	-19.9101	-62.242540	0.000345	3.446887	1.167837	-0.000138
1506	1.4975e+02	-19.9534	-62.387877	0.000365	3.649645	1.236533	-0.000146
1507	1.4985e+02	-19.9855	-62.533214	0.000365	3.649645	1.236533	-0.000146
1508	1.4995e+02	-19.9406	-62.476694	0.000142	1.419306	0.480874	0.000057
1509	1.5005e+02	-19.9085	-62.412100	0.000162	1.622064	0.549570	0.000065
1510	1.5015e+02	-19.8748	-62.335394	0.000193	1.926201	0.652615	0.000077
1511	1.5025e+02	-19.8283	-62.299060	0.000091	0.912411	0.309133	0.000037
1512	1.5034e+02	-19.8010	-62.210243	0.000223	2.230338	0.755659	0.000089
1513	1.5044e+02	-19.7465	-62.157760	0.000132	1.317927	0.446526	0.000053
1514	1.5054e+02	-19.7096	-62.125463	0.000081	0.811032	0.274785	0.000032
1515	1.5064e+02	-19.6711	-62.024535	0.000253	2.534475	0.858704	0.000101
1516	1.5074e+02	-19.6358	-61.927644	0.000243	2.433096	0.824355	0.000097
1517	1.5084e+02	-19.5909	-61.859012	0.000172	1.723443	0.583918	0.000069
1518	1.5094e+02	-19.5492	-61.794418	0.000162	1.622064	0.549570	0.000065
1519	1.5104e+02	-19.5187	-61.616784	0.000446	4.460677	1.511318	0.000179
1520	1.5114e+02	-19.4754	-61.608710	0.000020	0.202758	0.068696	0.000008
1521	1.5124e+02	-19.4401	-61.507782	0.000253	2.534475	0.858704	0.000101
1522	1.5134e+02	-19.4032	-61.427039	0.000203	2.027580	0.686963	0.000081
1523	1.5144e+02	-19.3583	-61.342259	0.000213	2.128959	0.721311	0.000085
1524	1.5154e+02	-19.3134	-61.326110	0.000041	0.405516	0.137393	0.000016
1525	1.5164e+02	-19.2716	-61.265553	0.000152	1.520685	0.515222	0.000061
1526	1.5174e+02	-19.2315	-61.176736	0.000223	2.230338	0.755659	0.000089
1527	1.5184e+02	-19.1946	-61.100031	0.000193	1.926201	0.652615	0.000077
1528	1.5194e+02	-19.1561	-61.027362	0.000182	1.824822	0.618267	0.000073
1529	1.5204e+02	-19.1225	-60.942583	0.000213	2.128959	0.721311	0.000085
1530	1.5214e+02	-19.0856	-60.877988	0.000162	1.622064	0.549570	0.000065
1531	1.5224e+02	-19.0358	-60.740726	0.000345	3.446887	1.167837	0.000138
1532	1.5233e+02	-19.0053	-60.720540	0.000051	0.506895	0.171741	0.000020
1533	1.5243e+02	-18.9572	-60.595389	0.000314	3.142749	1.064792	0.000126
1534	1.5253e+02	-18.9155	-60.538869	0.000142	1.419306	0.480874	0.000057
1535	1.5263e+02	-18.8802	-60.446015	0.000233	2.331717	0.790007	0.000093
1536	1.5273e+02	-18.8417	-60.349124	0.000243	2.433096	0.824355	0.000097
1537	1.5283e+02	-18.7936	-60.276455	0.000182	1.824822	0.618267	0.000073
1538	1.5293e+02	-18.7647	-60.159378	0.000294	2.939991	0.996096	0.000118
1539	1.5303e+02	-18.7214	-60.086710	0.000182	1.824822	0.618267	0.000073
1540	1.5313e+02	-18.6765	-59.941373	0.000365	3.649645	1.236533	0.000146
1541	1.5323e+02	-18.6332	-59.892927	0.000122	1.216548	0.412178	0.000049
1542	1.5333e+02	-18.5995	-59.808147	0.000213	2.128959	0.721311	0.000085
1543	1.5343e+02	-18.5530	-59.751627	0.000142	1.419306	0.480874	0.000057
1544	1.5353e+02	-18.5193	-59.638588	0.000284	2.838612	0.961748	0.000114
1545	1.5363e+02	-18.4792	-59.573994	0.000162	1.622064	0.549570	0.000065
1546	1.5373e+02	-18.4407	-59.481139	0.000233	2.331717	0.790007	0.000093
1547	1.5383e+02	-18.3989	-59.384248	0.000243	2.433096	0.824355	0.000097
1548	1.5393e+02	-18.3588	-59.283320	0.000253	2.534475	0.858704	0.000101
1549	1.5403e+02	-18.3155	-59.198540	0.000213	2.128959	0.721311	0.000085
1550	1.5413e+02	-18.2738	-59.129909	0.000172	1.723443	0.583918	0.000069
1551	1.5422e+02	-18.2417	-58.988609	0.000355	3.548266	1.202185	0.000142
1552	1.5432e+02	-18.2080	-58.928052	0.000152	1.520685	0.515222	0.000061
1553	1.5442e+02	-18.1647	-58.863458	0.000162	1.622064	0.549570	0.000065
1554	1.5452e+02	-18.1150	-58.762529	0.000253	2.534475	0.858704	0.000101
1555	1.5462e+02	-18.0829	-58.669675	0.000233	2.331717	0.790007	0.000093
1556	1.5472e+02	-18.0492	-58.617192	0.000132	1.317927	0.446526	0.000053
1557	1.5482e+02	-18.0075	-58.467818	0.000375	3.751024	1.270881	0.000150
1558	1.5492e+02	-17.9658	-58.350741	0.000294	2.939991	0.996096	0.000118
1559	1.5502e+02	-17.9273	-58.274036	0.000193	1.926201	0.652615	0.000077
1560	1.5512e+02	-17.8744	-58.173107	0.000253	2.534475	0.858704	0.000101
1561	1.5522e+02	-17.8343	-58.116588	0.000142	1.419306	0.480874	0.000057
1562	1.5532e+02	-17.8038	-58.031808	0.000213	2.128959	0.721311	0.000085
1563	1.5542e+02	-17.7685	-57.906656	0.000314	3.142749	1.064792	0.000126
1564	1.5552e+02	-17.7204	-57.850137	0.000142	1.419306	0.480874	0.000057
1565	1.5562e+02	-17.6786	-57.724985	0.000314	3.142749	1.064792	0.000126
1566	1.5572e+02	-17.6466	-57.636168	0.000223	2.230338	0.755659	0.000089
1567	1.5582e+02	-17.6065	-57.547351	0.000223	2.230338	0.755659	0.000089
1568	1.5592e+02	-17.5647	-57.478720	0.000172	1.723443	0.583918	0.000069
1569	1.5602e+02	-17.5214	-57.406052	0.000182	1.824822	0.618267	0.000073
1570	1.5612e+02	-17.4910	-57.276863	0.000324	3.244129	1.099140	0.000130
1571	1.5622e+02	-17.4460	-57.228418	0.000122	1.216548	0.412178	0.000049
1572	1.5631e+02	-17.3995	-57.119415	0.000274	2.737233	0.927400	0.000110
1573	1.5641e+02	-17.3658	-56.970041	0.000375	3.751024	1.270881	0.000150
1574	1.5651e+02	-17.3241	-56.925632	0.000112	1.115169	0.377830	0.000045
1575	1.5661e+02	-17.2888	-56.776258	0.000375	3.751024	1.270881	0.000150
1576	1.5671e+02	-17.2535	-56.723776	0.000132	1.317927	0.446526	0.000053
1577	1.5681e+02	-17.2054	-56.586513	0.000345	3.446887	1.167837	0.000138
1578	1.5691e+02	-17.1637	-56.481548	0.000264	2.635854	0.893052	0.000105
1579	1.5701e+02	-17.1156	-56.396768	0.000213	2.128959	0.721311	0.000085
1580	1.5711e+02	-17.0835	-56.299876	0.000243	2.433096	0.824355	0.000097
1581	1.5721e+02	-17.0450	-56.247394	0.000132	1.317927	0.446526	0.000053
1582	1.5731e+02	-17.0049	-56.126280	0.000304	3.041370	1.030444	0.000122
1583	1.5741e+02	-16.9632	-56.041500	0.000213	2.128959	0.721311	0.000085
1584	1.5751e+02	-16.9295	-55.964794	0.000193	1.926201	0.652615	0.000077
1585	1.5761e+02	-16.8910	-55.843680	0.000304	3.041370	1.030444	0.000122
1586	1.5771e+02	-16.8477	-55.730640	0.000284	2.838612	0.961748	0.000114
1587	1.5781e+02	-16.8043	-55.678158	0.000132	1.317927	0.446526	0.000053
1588	1.5791e+02	-16.7723	-55.609526	0.000172	1.723443	0.583918	0.000069
1589	1.5801e+02	-16.7338	-55.484375	0.000314	3.142749	1.064792	0.000126
1590	1.5811e+02	-16.6840	-55.339038	0.000365	3.649645	1.236533	0.000146
1591	1.5821e+02	-16.6455	-55.290593	0.000122	1.216548	0.412178	0.000049
1592	1.5830e+02	-16.6215	-55.213887	0.000193	1.926201	0.652615	0.000077
1593	1.5840e+02	-16.5733	-55.068550	0.000365	3.649645	1.236533	0.000146
1594	1.5850e+02	-16.5332	-54.995882	0.000182	1.824822	0.618267	0.000073
1595	1.5860e+02	-16.4819	-54.898990	0.000243	2.433096	0.824355	0.000097
1596	1.5870e+02	-16.4562	-54.814210	0.000213	2.128959	0.721311	0.000085
1597	1.5880e+02	-16.4097	-54.680985	0.000335	3.345508	1.133489	0.000134
1598	1.5890e+02	-16.3680	-54.636577	0.000112	1.115169	0.377830	0.000045
1599	1.5900e+02	-16.3215	-54.491240	0.000365	3.649645	1.236533	0.000146
1600	1.5910e+02	-16.2974	-54.438757	0.000132	1.317927	0.446526	0.000053
1601	1.5920e+02	-16.2445	-54.293420	0.000365	3.649645	1.236533	0.000146
1602	1.5930e+02	-16.2011	-54.228826	0.000162	1.622064	0.549570	0.000065
1603	1.5940e+02	-16.1675	-54.123860	0.000264	2.635854	0.893052	0.000105
1604	1.5950e+02	-16.1338	-54.059266	0.000162	1.622064	0.549570	0.000065
1605	1.5960e+02	-16.0921	-53.942189	0.000294	2.939991	0.996096	0.000118
1606	1.5970e+02	-16.0552	-53.865484	0.000193	1.926201	0.652615	0.000077
1607	1.5980e+02	-16.0038	-53.752444	0.000284	2.838612	0.961748	0.000114
1608	1.5990e+02	-15.9621	-53.663627	0.000223	2.230338	0.755659	0.000089
1609	1.6000e+02	-15.9300	-53.562698	0.000253	2.534475	0.858704	0.000101
1610	1.6010e+02	-15.8963	-53.506179	0.000142	1.419306	0.480874	0.000057
1611	1.6019e+02	-15.8434	-53.401213	0.000264	2.635854	0.893052	0.000105
1612	1.6029e+02	-15.8081	-53.296247	0.000264	2.635854	0.893052	0.000105
1613	1.6039e+02	-15.7857	-53.179171	0.000294	2.939991	0.996096	0.000118
1614	1.6049e+02	-15.7311	-53.074205	0.000264	2.635854	0.893052	0.000105
1615	1.6059e+02	-15.6798	-52.981351	0.000233	2.331717	0.790007	0.000093
1616	1.6069e+02	-15.6429	-52.880422	0.000253	2.534475	0.858704	0.000101
1617	1.6079e+02	-15.6076	-52.791605	0.000223	2.230338	0.755659	0.000089
1618	1.6089e+02	-15.5659	-52.670491	0.000304	3.041370	1.030444	0.000122
1619	1.6099e+02	-15.5354	-52.593786	0.000193	1.926201	0.652615	0.000077
1620	1.6109e+02	-15.4953	-52.496895	0.000243	2.433096	0.824355	0.000097
1621	1.6119e+02	-15.4504	-52.420189	0.000193	1.926201	0.652615	0.000077
1622	1.6129e+02	-15.4135	-52.331372	0.000223	2.230338	0.755659	0.000089
1623	1.6139e+02	-15.3686	-52.242555	0.000223	2.230338	0.755659	0.000089
1624	1.6149e+02	-15.3365	-52.117404	0.000314	3.142749	1.064792	0.000126
1625	1.6159e+02	-15.2964	-52.032624	0.000213	2.128959	0.721311	0.000085
1626	1.6169e+02	-15.2450	-51.947844	0.000213	2.128959	0.721311	0.000085
1627	1.6179e+02	-15.2178	-51.826730	0.000304	3.041370	1.030444	0.000122
1628	1.6189e+02	-15.1744	-51.725802	0.000253	2.534475	0.858704	0.000101
1629	1.6199e+02	-15.1295	-51.608725	0.000294	2.939991	0.996096	0.000118
1630	1.6209e+02	-15.0974	-51.532019	0.000193	1.926201	0.652615	0.000077
1631	1.6219e+02	-15.0589	-51.475499	0.000142	1.419306	0.480874	0.000057
1632	1.6228e+02	-15.0108	-51.382645	0.000233	2.331717	0.790007	0.000093
1633	1.6238e+02	-14.9691	-51.297865	0.000213	2.128959	0.721311	0.000085
1634	1.6248e+02	-14.9322	-51.152528	0.000365	3.649645	1.236533	0.000146
1635	1.6258e+02	-14.8841	-51.108120	0.000112	1.115169	0.377830	0.000045
1636	1.6268e+02	-14.8424	-50.982969	0.000314	3.142749	1.064792	0.000126
1637	1.6278e+02	-14.8039	-50.873966	0.000274	2.737233	0.927400	0.000110
1638	1.6288e+02	-14.7718	-50.777075	0.000243	2.433096	0.824355	0.000097
1639	1.6298e+02	-14.7413	-50.676146	0.000253	2.534475	0.858704	0.000101
1640	1.6308e+02	-14.6948	-50.587329	0.000223	2.230338	0.755659	0.000089
1641	1.6318e+02	-14.6515	-50.506587	0.000203	2.027580	0.686963	0.000081
1642	1.6328e+02	-14.6130	-50.381435	0.000314	3.142749	1.064792	0.000126
1643	1.6338e+02	-14.5712	-50.300693	0.000203	2.027580	0.686963	0.000081
1644	1.6348e+02	-14.5327	-50.219950	0.000203	2.027580	0.686963	0.000081
1645	1.6358e+02	-14.4910	-50.127096	0.000233	2.331717	0.790007	0.000093
1646	1.6368e+02	-14.4573	-50.014056	0.000284	2.838612	0.961748	0.000114
1647	1.6378e+02	-14.4092	-49.929276	0.000213	2.128959	0.721311	0.000085
1648	1.6388e+02	-14.3819	-49.848534	0.000203	2.027580	0.686963	0.000081
1649	1.6398e+02	-14.3370	-49.767791	0.000203	2.027580	0.686963	0.000081
1650	1.6408e+02	-14.2985	-49.634565	0.000335	3.345508	1.133489	0.000134
1651	1.6418e+02	-14.2600	-49.509414	0.000314	3.142749	1.064792	0.000126
1652	1.6427e+02	-14.2247	-49.473080	0.000091	0.912411	0.309133	0.000037
1653	1.6437e+02	-14.1782	-49.323706	0.000375	3.751024	1.270881	0.000150
1654	1.6447e+02	-14.1381	-49.299483	0.000061	0.608274	0.206089	0.000024
1655	1.6457e+02	-14.0916	-49.150109	0.000375	3.751024	1.270881	0.000150
1656	1.6467e+02	-14.0563	-49.053218	0.000243	2.433096	0.824355	0.000097
1657	1.6477e+02	-14.0194	-48.928067	0.000314	3.142749	1.064792	0.000126
1658	1.6487e+02	-13.9665	-48.859435	0.000172	1.723443	0.583918	0.000069
1659	1.6497e+02	-13.9344	-48.754470	0.000264	2.635854	0.893052	0.000105
1660	1.6507e+02	-13.8959	-48.625281	0.000324	3.244129	1.099140	0.000130
1661	1.6517e+02	-13.8622	-48.516279	0.000274	2.737233	0.927400	0.000110
1662	1.6527e+02	-13.8205	-48.411313	0.000264	2.635854	0.893052	0.000105
1663	1.6537e+02	-13.7836	-48.342682	0.000172	1.723443	0.583918	0.000069
1664	1.6547e+02	-13.7354	-48.278088	0.000162	1.622064	0.549570	0.000065
1665	1.6557e+02	-13.6937	-48.120639	0.000395	3.953782	1.339577	0.000158
1666	1.6567e+02	-13.6633	-48.064120	0.000142	1.419306	0.480874	0.000057
1667	1.6577e+02	-13.6312	-47.959154	0.000264	2.635854	0.893052	0.000105
1668	1.6587e+02	-13.5862	-47.854188	0.000264	2.635854	0.893052	0.000105
1669	1.6597e+02	-13.5429	-47.757297	0.000243	2.433096	0.824355	0.000097
1670	1.6607e+02	-13.5012	-47.652332	0.000264	2.635854	0.893052	0.000105
1671	1.6616e+02	-13.4675	-47.551403	0.000253	2.534475	0.858704	0.000101
1672	1.6626e+02	-13.4130	-47.462586	0.000223	2.230338	0.755659	0.000089
1673	1.6636e+02	-13.3761	-47.385881	0.000193	1.926201	0.652615	0.000077
1674	1.6646e+02	-13.3344	-47.268804	0.000294	2.939991	0.996096	0.000118
1675	1.6656e+02	-13.3039	-47.179987	0.000223	2.230338	0.755659	0.000089
1676	1.6666e+02	-13.2526	-47.034650	0.000365	3.649645	1.236533	0.000146
1677	1.6676e+02	-13.2269	-46.933722	0.000253	2.534475	0.858704	0.000101
1678	1.6686e+02	-13.1820	-46.852979	0.000203	2.027580	0.686963	0.000081
1679	1.6696e+02	-13.1387	-46.739939	0.000284	2.838612	0.961748	0.000114
1680	1.6706e+02	-13.1018	-46.671308	0.000172	1.723443	0.583918	0.000069
1681	1.6716e+02	-13.0649	-46.546156	0.000314	3.142749	1.064792	0.000126
1682	1.6726e+02	-13.0167	-46.461377	0.000213	2.128959	0.721311	0.000085
1683	1.6736e+02	-12.9815	-46.344300	0.000294	2.939991	0.996096	0.000118
1684	1.6746e+02	-12.9397	-46.263557	0.000203	2.027580	0.686963	0.000081
1685	1.6756e+02	-12.9044	-46.138406	0.000314	3.142749	1.064792	0.000126
1686	1.6766e+02	-12.8563	-46.045552	0.000233	2.331717	0.790007	0.000093
1687	1.6776e+02	-12.8226	-45.924438	0.000304	3.041370	1.030444	0.000122
1688	1.6786e+02	-12.7922	-45.835621	0.000223	2.230338	0.755659	0.000089
1689	1.6796e+02	-12.7456	-45.714507	0.000304	3.041370	1.030444	0.000122
1690	1.6806e+02	-12.7023	-45.605504	0.000274	2.737233	0.927400	0.000110
1691	1.6816e+02	-12.6590	-45.504575	0.000253	2.534475	0.858704	0.000101
1692	1.6825e+02	-12.6253	-45.363276	0.000355	3.548266	1.202185	0.000142
1693	1.6835e+02	-12.5804	-45.290607	0.000182	1.824822	0.618267	0.000073
1694	1.6845e+02	-12.5435	-45.169493	0.000304	3.041370	1.030444	0.000122
1695	1.6855e+02	-12.4986	-45.052416	0.000294	2.939991	0.996096	0.000118
1696	1.6865e+02	-12.4601	-44.967636	0.000213	2.128959	0.721311	0.000085
1697	1.6875e+02	-12.4168	-44.834411	0.000335	3.345508	1.133489	0.000134
1698	1.6885e+02	-12.3895	-44.769817	0.000162	1.622064	0.549570	0.000065
1699	1.6895e+02	-12.3446	-44.656777	0.000284	2.838612	0.961748	0.000114
1700	1.6905e+02	-12.3061	-44.563923	0.000233	2.331717	0.790007	0.000093
1701	1.6915e+02	-12.2708	-44.402437	0.000406	4.055161	1.373926	0.000162
1702	1.6925e+02	-12.2210	-44.366103	0.000091	0.912411	0.309133	0.000037
1703	1.6935e+02	-12.1922	-44.249026	0.000294	2.939991	0.996096	0.000118
1704	1.6945e+02	-12.1408	-44.140024	0.000274	2.737233	0.927400	0.000110
1705	1.6955e+02	-12.1007	-43.990650	0.000375	3.751024	1.270881	0.000150
1706	1.6965e+02	-12.0719	-43.905870	0.000213	2.128959	0.721311	0.000085
1707	1.6975e+02	-12.0285	-43.792830	0.000284	2.838612	0.961748	0.000114
1708	1.6985e+02	-11.9884	-43.695939	0.000243	2.433096	0.824355	0.000097
1709	1.6995e+02	-11.9403	-43.603085	0.000233	2.331717	0.790007	0.000093
1710	1.7005e+02	-11.9050	-43.465822	0.000345	3.446887	1.167837	0.000138
1711	1.7015e+02	-11.8601	-43.360856	0.000264	2.635854	0.893052	0.000105
1712	1.7024e+02	-11.8264	-43.259928	0.000253	2.534475	0.858704	0.000101
1713	1.7034e+02	-11.7831	-43.122665	0.000345	3.446887	1.167837	0.000138
1714	1.7044e+02	-11.7414	-43.037886	0.000213	2.128959	0.721311	0.000085
1715	1.7054e+02	-11.7157	-42.924846	0.000284	2.838612	0.961748	0.000114
1716	1.7064e+02	-11.6756	-42.827954	0.000243	2.433096	0.824355	0.000097
1717	1.7074e+02	-11.6339	-42.706840	0.000304	3.041370	1.030444	0.000122
1718	1.7084e+02	-11.5858	-42.642246	0.000162	1.622064	0.549570	0.000065
1719	1.7094e+02	-11.5505	-42.513058	0.000324	3.244129	1.099140	0.000130
1720	1.7104e+02	-11.4943	-42.371758	0.000355	3.548266	1.202185	0.000142
1721	1.7114e+02	-11.4703	-42.274867	0.000243	2.433096	0.824355	0.000097
1722	1.7124e+02	-11.4221	-42.177976	0.000243	2.433096	0.824355	0.000097
1723	1.7134e+02	-11.3933	-42.024564	0.000385	3.852403	1.305229	0.000154
1724	1.7144e+02	-11.3580	-41.939785	0.000213	2.128959	0.721311	0.000085
1725	1.7154e+02	-11.3114	-41.798485	0.000355	3.548266	1.202185	0.000142
1726	1.7164e+02	-11.2697	-41.717742	0.000203	2.027580	0.686963	0.000081
1727	1.7174e+02	-11.2248	-41.576442	0.000355	3.548266	1.202185	0.000142
1728	1.7184e+02	-11.1879	-41.532034	0.000112	1.115169	0.377830	0.000045
1729	1.7194e+02	-11.1574	-41.370548	0.000406	4.055161	1.373926	0.000162
1730	1.7204e+02	-11.1125	-41.269620	0.000253	2.534475	0.858704	0.000101
1731	1.7213e+02	-11.0644	-41.124283	0.000365	3.649645	1.236533	0.000146
1732	1.7223e+02	-11.0371	-40.974909	0.000375	3.751024	1.270881	0.000150
1733	1.7233e+02	-10.9922	-40.890129	0.000213	2.128959	0.721311	0.000085
1734	1.7243e+02	-10.9457	-40.805349	0.000213	2.128959	0.721311	0.000085
1735	1.7253e+02	-10.9072	-40.680198	0.000314	3.142749	1.064792	0.000126
1736	1.7263e+02	-10.8703	-40.546973	0.000335	3.345508	1.133489	0.000134
1737	1.7273e+02	-10.8350	-40.450082	0.000243	2.433096	0.824355	0.000097
1738	1.7283e+02	-10.7933	-40.361265	0.000223	2.230338	0.755659	0.000089
1739	1.7293e+02	-10.7452	-40.207853	0.000385	3.852403	1.305229	0.000154
1740	1.7303e+02	-10.7115	-40.094814	0.000284	2.838612	0.961748	0.000114
1741	1.7313e+02	-10.6714	-39.989848	0.000264	2.635854	0.893052	0.000105
1742	1.7323e+02	-10.6345	-39.880845	0.000274	2.737233	0.927400	0.000110
1743	1.7333e+02	-10.5960	-39.796066	0.000213	2.128959	0.721311	0.000085
1744	1.7343e+02	-10.5526	-39.678989	0.000294	2.939991	0.996096	0.000118
1745	1.7353e+02	-10.5045	-39.537689	0.000355	3.548266	1.202185	0.000142
1746	1.7363e+02	-10.4660	-39.473095	0.000162	1.622064	0.549570	0.000065
1747	1.7373e+02	-10.4355	-39.376203	0.000243	2.433096	0.824355	0.000097
1748	1.7383e+02	-10.3842	-39.226829	0.000375	3.751024	1.270881	0.000150
1749	1.7393e+02	-10.3425	-39.117827	0.000274	2.737233	0.927400	0.000110
1750	1.7403e+02	-10.3152	-38.948267	0.000426	4.257919	1.442622	0.000170
1751	1.7413e+02	-10.2719	-38.879636	0.000172	1.723443	0.583918	0.000069
1752	1.7422e+02	-10.2302	-38.742373	0.000345	3.446887	1.167837	0.000138
1753	1.7432e+02	-10.1933	-38.621259	0.000304	3.041370	1.030444	0.000122
1754	1.7442e+02	-10.1484	-38.524368	0.000243	2.433096	0.824355	0.000097
1755	1.7452e+02	-10.1179	-38.391142	0.000335	3.345508	1.133489	0.000134
1756	1.7462e+02	-10.0682	-38.270028	0.000304	3.041370	1.030444	0.000122
1757	1.7472e+02	-10.0265	-38.193323	0.000193	1.926201	0.652615	0.000077
1758	1.7482e+02	-9.9896	-38.068171	0.000314	3.142749	1.064792	0.000126
1759	1.7492e+02	-9.9623	-37.947057	0.000304	3.041370	1.030444	0.000122
1760	1.7502e+02	-9.9222	-37.834018	0.000284	2.838612	0.961748	0.000114
1761	1.7512e+02	-9.8773	-37.652346	0.000456	4.562056	1.545666	0.000183
1762	1.7522e+02	-9.8323	-37.624087	0.000071	0.709653	0.240437	0.000028
1763	1.7532e+02	-9.7922	-37.482787	0.000355	3.548266	1.202185	0.000142
1764	1.7542e+02	-9.7489	-37.406081	0.000193	1.926201	0.652615	0.000077
1765	1.7552e+02	-9.7152	-37.349561	0.000142	1.419306	0.480874	0.000057
1766	1.7562e+02	-9.6703	-37.175964	0.000436	4.359298	1.476970	0.000174
1767	1.7572e+02	-9.6334	-37.058888	0.000294	2.939991	0.996096	0.000118
1768	1.7582e+02	-9.5949	-36.941811	0.000294	2.939991	0.996096	0.000118
1769	1.7592e+02	-9.5532	-36.808585	0.000335	3.345508	1.133489	0.000134
1770	1.7602e+02	-9.5099	-36.667285	0.000355	3.548266	1.202185	0.000142
1771	1.7612e+02	-9.4746	-36.574431	0.000233	2.331717	0.790007	0.000093
1772	1.7621e+02	-9.4249	-36.425057	0.000375	3.751024	1.270881	0.000150
1773	1.7631e+02	-9.3928	-36.332203	0.000233	2.331717	0.790007	0.000093
1774	1.7641e+02	-9.3543	-36.203015	0.000324	3.244129	1.099140	0.000130
1775	1.7651e+02	-9.3158	-36.110161	0.000233	2.331717	0.790007	0.000093
1776	1.7661e+02	-9.2901	-36.005195	0.000264	2.635854	0.893052	0.000105
1777	1.7671e+02	-9.2372	-35.916378	0.000223	2.230338	0.755659	0.000089
1778	1.7681e+02	-9.1890	-35.767004	0.000375	3.751024	1.270881	0.000150
1779	1.7691e+02	-9.1586	-35.666076	0.000253	2.534475	0.858704	0.000101
1780	1.7701e+02	-9.1072	-35.520739	0.000365	3.649645	1.236533	0.000146
1781	1.7711e+02	-9.0735	-35.448070	0.000182	1.824822	0.618267	0.000073
1782	1.7721e+02	-9.0399	-35.306771	0.000355	3.548266	1.202185	0.000142
1783	1.7731e+02	-8.9949	-35.254288	0.000132	1.317927	0.446526	0.000053
1784	1.7741e+02	-8.9548	-35.129137	0.000314	3.142749	1.064792	0.000126
1785	1.7751e+02	-8.9179	-35.016097	0.000284	2.838612	0.961748	0.000114
1786	1.7761e+02	-8.8794	-34.939391	0.000193	1.926201	0.652615	0.000077
1787	1.7771e+02	-8.8393	-34.781943	0.000395	3.953782	1.339577	0.000158
1788	1.7781e+02	-8.7944	-34.652755	0.000324	3.244129	1.099140	0.000130
1789	1.7791e+02	-8.7639	-34.495306	0.000395	3.953782	1.339577	0.000158
1790	1.7801e+02	-8.7190	-34.414564	0.000203	2.027580	0.686963	0.000081
1791	1.7810e+02	-8.6789	-34.285375	0.000324	3.244129	1.099140	0.000130
1792	1.7820e+02	-8.6420	-34.192521	0.000233	2.331717	0.790007	0.000093
1793	1.7830e+02	-8.6099	-34.059296	0.000335	3.345508	1.133489	0.000134
1794	1.7840e+02	-8.5618	-33.966442	0.000233	2.331717	0.790007	0.000093
1795	1.7850e+02	-8.5233	-33.813030	0.000385	3.852403	1.305229	0.000154
1796	1.7860e+02	-8.4816	-33.720176	0.000233	2.331717	0.790007	0.000093
1797	1.7870e+02	-8.4431	-33.603099	0.000294	2.939991	0.996096	0.000118
1798	1.7880e+02	-8.4094	-33.514282	0.000223	2.230338	0.755659	0.000089
1799	1.7890e+02	-8.3629	-33.393168	0.000304	3.041370	1.030444	0.000122
1800	1.7900e+02	-8.3308	-33.304351	0.000223	2.230338	0.755659	0.000089
1801	1.7910e+02	-8.2778	-33.167089	0.000345	3.446887	1.167837	0.000138
1802	1.7920e+02	-8.2425	-33.054049	0.000284	2.838612	0.961748	0.000114
1803	1.7930e+02	-8.1944	-32.973306	0.000203	2.027580	0.686963	0.000081
1804	1.7940e+02	-8.1591	-32.856229	0.000294	2.939991	0.996096	0.000118
1805	1.7950e+02	-8.1303	-32.763375	0.000233	2.331717	0.790007	0.000093
1806	1.7960e+02	-8.0805	-32.626112	0.000345	3.446887	1.167837	0.000138
1807	1.7970e+02	-8.0436	-32.472701	0.000385	3.852403	1.305229	0.000154
1808	1.7980e+02	-8.0035	-32.359662	0.000284	2.838612	0.961748	0.000114
1809	1.7990e+02	-7.9650	-32.246622	0.000284	2.838612	0.961748	0.000114
1810	1.8000e+02	-7.9281	-32.117433	0.000324	3.244129	1.099140	0.000130
1811	1.8009e+02	-7.8816	-32.032654	0.000213	2.128959	0.721311	0.000085
1812	1.8019e+02	-7.8415	-31.891354	0.000355	3.548266	1.202185	0.000142
1813	1.8029e+02	-7.7998	-31.770240	0.000304	3.041370	1.030444	0.000122
1814	1.8039e+02	-7.7581	-31.649126	0.000304	3.041370	1.030444	0.000122
1815	1.8049e+02	-7.7244	-31.532049	0.000294	2.939991	0.996096	0.000118
1816	1.8059e+02	-7.6843	-31.435157	0.000243	2.433096	0.824355	0.000097
1817	1.8069e+02	-7.6345	-31.366526	0.000172	1.723443	0.583918	0.000069
1818	1.8079e+02	-7.5993	-31.201004	0.000416	4.156540	1.408274	0.000166
1819	1.8089e+02	-7.5640	-31.059704	0.000355	3.548266	1.202185	0.000142
1820	1.8099e+02	-7.5158	-30.995110	0.000162	1.622064	0.549570	0.000065
1821	1.8109e+02	-7.4886	-30.934553	0.000152	1.520685	0.515222	0.000061
1822	1.8119e+02	-7.4501	-30.769030	0.000416	4.156540	1.408274	0.000166
1823	1.8129e+02	-7.3987	-30.732696	0.000091	0.912411	0.309133	0.000037
1824	1.8139e+02	-7.3634	-30.559099	0.000436	4.359298	1.476970	0.000174
1825	1.8149e+02	-7.3233	-30.425873	0.000335	3.345508	1.133489	0.000134
1826	1.8159e+02	-7.2832	-30.308797	0.000294	2.939991	0.996096	0.000118
1827	1.8169e+02	-7.2447	-30.147311	0.000406	4.055161	1.373926	0.000162
1828	1.8179e+02	-7.2126	-30.050420	0.000243	2.433096	0.824355	0.000097
1829	1.8189e+02	-7.1709	-29.937380	0.000284	2.838612	0.961748	0.000114
1830	1.8199e+02	-7.1308	-29.828377	0.000274	2.737233	0.927400	0.000110
1831	1.8209e+02	-7.0843	-29.703226	0.000314	3.142749	1.064792	0.000126
1832	1.8218e+02	-7.0442	-29.578075	0.000314	3.142749	1.064792	0.000126
1833	1.8228e+02	-6.9945	-29.452924	0.000314	3.142749	1.064792	0.000126
1834	1.8238e+02	-6.9688	-29.327773	0.000314	3.142749	1.064792	0.000126
1835	1.8248e+02	-6.9239	-29.210696	0.000294	2.939991	0.996096	0.000118
1836	1.8258e+02	-6.8902	-29.117842	0.000233	2.331717	0.790007	0.000093
1837	1.8268e+02	-6.8581	-28.976542	0.000355	3.548266	1.202185	0.000142
1838	1.8278e+02	-6.8148	-28.891762	0.000213	2.128959	0.721311	0.000085
1839	1.8288e+02	-6.7650	-28.811019	0.000203	2.027580	0.686963	0.000081
1840	1.8298e+02	-6.7265	-28.689905	0.000304	3.041370	1.030444	0.000122
1841	1.8308e+02	-6.6897	-28.572828	0.000294	2.939991	0.996096	0.000118
1842	1.8318e+02	-6.6463	-28.447677	0.000314	3.142749	1.064792	0.000126
1843	1.8328e+02	-6.6078	-28.338674	0.000274	2.737233	0.927400	0.000110
1844	1.8338e+02	-6.5758	-28.205449	0.000335	3.345508	1.133489	0.000134
1845	1.8348e+02	-6.5116	-28.048001	0.000395	3.953782	1.339577	0.000158
1846	1.8358e+02	-6.4859	-27.898627	0.000375	3.751024	1.270881	0.000150
1847	1.8368e+02	-6.4538	-27.813847	0.000213	2.128959	0.721311	0.000085
1848	1.8378e+02	-6.4185	-27.704844	0.000274	2.737233	0.927400	0.000110
1849	1.8388e+02	-6.3720	-27.583730	0.000304	3.041370	1.030444	0.000122
1850	1.8398e+02	-6.3287	-27.462616	0.000304	3.041370	1.030444	0.000122
1851	1.8407e+02	-6.2950	-27.333428	0.000324	3.244129	1.099140	0.000130
1852	1.8417e+02	-6.2533	-27.248648	0.000213	2.128959	0.721311	0.000085
1853	1.8427e+02	-6.2100	-27.111385	0.000345	3.446887	1.167837	0.000138
1854	1.8437e+02	-6.1811	-26.974122	0.000345	3.446887	1.167837	0.000138
1855	1.8447e+02	-6.1346	-26.820711	0.000385	3.852403	1.305229	0.000154
1856	1.8457e+02	-6.0849	-26.715746	0.000264	2.635854	0.893052	0.000105
1857	1.8467e+02	-6.0431	-26.630966	0.000213	2.128959	0.721311	0.000085
1858	1.8477e+02	-6.0239	-26.509852	0.000304	3.041370	1.030444	0.000122
1859	1.8487e+02	-5.9742	-26.408923	0.000253	2.534475	0.858704	0.000101
1860	1.8497e+02	-5.9244	-26.255512	0.000385	3.852403	1.305229	0.000154
1861	1.8507e+02	-5.8956	-26.162658	0.000233	2.331717	0.790007	0.000093
1862	1.8517e+02	-5.8474	-26.009247	0.000385	3.852403	1.305229	0.000154
1863	1.8527e+02	-5.8186	-25.871984	0.000345	3.446887	1.167837	0.000138
1864	1.8537e+02	-5.7720	-25.734722	0.000345	3.446887	1.167837	0.000138
1865	1.8547e+02	-5.7223	-25.577273	0.000395	3.953782	1.339577	0.000158
1866	1.8557e+02	-5.6966	-25.484419	0.000233	2.331717	0.790007	0.000093
1867	1.8567e+02	-5.6581	-25.367342	0.000294	2.939991	0.996096	0.000118
1868	1.8577e+02	-5.6084	-25.177597	0.000476	4.764814	1.614363	0.000191
1869	1.8587e+02	-5.5715	-25.064557	0.000284	2.838612	0.961748	0.000114
1870	1.8597e+02	-5.5362	-24.983815	0.000203	2.027580	0.686963	0.000081
1871	1.8606e+02	-5.4929	-24.862700	0.000304	3.041370	1.030444	0.000122
1872	1.8616e+02	-5.4480	-24.717364	0.000365	3.649645	1.236533	0.000146
1873	1.8626e+02	-5.4159	-24.604324	0.000284	2.838612	0.961748	0.000114
1874	1.8636e+02	-5.3774	-24.458987	0.000365	3.649645	1.236533	0.000146
1875	1.8646e+02	-5.3293	-24.325761	0.000335	3.345508	1.133489	0.000134
1876	1.8656e+02	-5.2892	-24.228870	0.000243	2.433096	0.824355	0.000097
1877	1.8666e+02	-5.2571	-24.144090	0.000213	2.128959	0.721311	0.000085
1878	1.8676e+02	-5.2170	-24.031050	0.000284	2.838612	0.961748	0.000114
1879	1.8686e+02	-5.1769	-23.901862	0.000324	3.244129	1.099140	0.000130
1880	1.8696e+02	-5.1223	-23.760562	0.000355	3.548266	1.202185	0.000142
1881	1.8706e+02	-5.0886	-23.619263	0.000355	3.548266	1.202185	0.000142
1882	1.8716e+02	-5.0501	-23.482000	0.000345	3.446887	1.167837	0.000138
1883	1.8726e+02	-5.0212	-23.332626	0.000375	3.751024	1.270881	0.000150
1884	1.8736e+02	-4.9763	-23.179215	0.000385	3.852403	1.305229	0.000154
1885	1.8746e+02	-4.9282	-23.050026	0.000324	3.244129	1.099140	0.000130
1886	1.8756e+02	-4.8993	-22.953135	0.000243	2.433096	0.824355	0.000097
1887	1.8766e+02	-4.8576	-22.819910	0.000335	3.345508	1.133489	0.000134
1888	1.8776e+02	-4.8095	-22.674573	0.000365	3.649645	1.236533	0.000146
1889	1.8786e+02	-4.7726	-22.549422	0.000314	3.142749	1.064792	0.000126
1890	1.8796e+02	-4.7373	-22.444456	0.000264	2.635854	0.893052	0.000105
1891	1.8806e+02	-4.6924	-22.299119	0.000365	3.649645	1.236533	0.000146
1892	1.8815e+02	-4.6587	-22.173968	0.000314	3.142749	1.064792	0.000126
1893	1.8825e+02	-4.6202	-22.040743	0.000335	3.345508	1.133489	0.000134
1894	1.8835e+02	-4.5705	-21.891369	0.000375	3.751024	1.270881	0.000150
1895	1.8845e+02	-4.5304	-21.818700	0.000182	1.824822	0.618267	0.000073
1896	1.8855e+02	-4.5031	-21.685475	0.000335	3.345508	1.133489	0.000134
1897	1.8865e+02	-4.4598	-21.556286	0.000324	3.244129	1.099140	0.000130
1898	1.8875e+02	-4.4181	-21.431135	0.000314	3.142749	1.064792	0.000126
1899	1.8885e+02	-4.3763	-21.289835	0.000355	3.548266	1.202185	0.000142
1900	1.8895e+02	-4.3507	-21.156610	0.000335	3.345508	1.133489	0.000134
1901	1.8905e+02	-4.2945	-21.011273	0.000365	3.649645	1.236533	0.000146
1902	1.8915e+02	-4.2592	-20.845750	0.000416	4.156540	1.408274	0.000166
1903	1.8925e+02	-4.2175	-20.720599	0.000314	3.142749	1.064792	0.000126
1904	1.8935e+02	-4.1806	-20.603522	0.000294	2.939991	0.996096	0.000118
1905	1.8945e+02	-4.1341	-20.446074	0.000395	3.953782	1.339577	0.000158
1906	1.8955e+02	-4.1068	-20.320923	0.000314	3.142749	1.064792	0.000126
1907	1.8965e+02	-4.0667	-20.191734	0.000324	3.244129	1.099140	0.000130
1908	1.8975e+02	-4.0266	-20.098880	0.000233	2.331717	0.790007	0.000093
1909	1.8985e+02	-3.9737	-19.945469	0.000385	3.852403	1.305229	0.000154
1910	1.8995e+02	-3.9432	-19.792058	0.000385	3.852403	1.305229	0.000154
1911	1.9004e+02	-3.8983	-19.683055	0.000274	2.737233	0.927400	0.000110
1912	1.9014e+02	-3.8582	-19.545793	0.000345	3.446887	1.167837	0.000138
1913	1.9024e+02	-3.8181	-19.481199	0.000162	1.622064	0.549570	0.000065
1914	1.9034e+02	-3.7748	-19.327787	0.000385	3.852403	1.305229	0.000154
1915	1.9044e+02	-3.7347	-19.198599	0.000324	3.244129	1.099140	0.000130
1916	1.9054e+02	-3.6978	-19.089596	0.000274	2.737233	0.927400	0.000110
1917	1.9064e+02	-3.6657	-18.924074	0.000416	4.156540	1.408274	0.000166
1918	1.9074e+02	-3.6256	-18.794885	0.000324	3.244129	1.099140	0.000130
1919	1.9084e+02	-3.5823	-18.605140	0.000476	4.764814	1.614363	0.000191
1920	1.9094e+02	-3.5373	-18.431543	0.000436	4.359298	1.476970	0.000174
1921	1.9104e+02	-3.5085	-18.318503	0.000284	2.838612	0.961748	0.000114
1922	1.9114e+02	-3.4555	-18.270058	0.000122	1.216548	0.412178	0.000049
1923	1.9124e+02	-3.4186	-18.064164	0.000517	5.170330	1.751755	0.000207
1924	1.9134e+02	-3.3897	-17.975347	0.000223	2.230338	0.755659	0.000089
1925	1.9144e+02	-3.3448	-17.825973	0.000375	3.751024	1.270881	0.000150
1926	1.9154e+02	-3.3127	-17.688710	0.000345	3.446887	1.167837	0.000138
1927	1.9164e+02	-3.2550	-17.559522	0.000324	3.244129	1.099140	0.000130
1928	1.9174e+02	-3.2149	-17.418222	0.000355	3.548266	1.202185	0.000142
1929	1.9184e+02	-3.1844	-17.297108	0.000304	3.041370	1.030444	0.000122
1930	1.9194e+02	-3.1347	-17.127548	0.000426	4.257919	1.442622	0.000170
1931	1.9203e+02	-3.1026	-17.091214	0.000091	0.912411	0.309133	0.000037
1932	1.9213e+02	-3.0561	-16.970100	0.000304	3.041370	1.030444	0.000122
1933	1.9223e+02	-3.0176	-16.808615	0.000406	4.055161	1.373926	0.000162
1934	1.9233e+02	-2.9775	-16.671352	0.000345	3.446887	1.167837	0.000138
1935	1.9243e+02	-2.9390	-16.566387	0.000264	2.635854	0.893052	0.000105
1936	1.9253e+02	-2.8988	-16.392790	0.000436	4.359298	1.476970	0.000174
1937	1.9263e+02	-2.8620	-16.247453	0.000365	3.649645	1.236533	0.000146
1938	1.9273e+02	-2.8267	-16.077893	0.000426	4.257919	1.442622	0.000170
1939	1.9283e+02	-2.7785	-15.952742	0.000314	3.142749	1.064792	0.000126
1940	1.9293e+02	-2.7432	-15.843739	0.000274	2.737233	0.927400	0.000110
1941	1.9303e+02	-2.7063	-15.698402	0.000365	3.649645	1.236533	0.000146
1942	1.9313e+02	-2.6630	-15.549028	0.000375	3.751024	1.270881	0.000150
1943	1.9323e+02	-2.6358	-15.419840	0.000324	3.244129	1.099140	0.000130
1944	1.9333e+02	-2.5908	-15.294689	0.000314	3.142749	1.064792	0.000126
1945	1.9343e+02	-2.5475	-15.193760	0.000253	2.534475	0.858704	0.000101
1946	1.9353e+02	-2.5090	-15.060535	0.000335	3.345508	1.133489	0.000134
1947	1.9363e+02	-2.4689	-14.903087	0.000395	3.953782	1.339577	0.000158
1948	1.9373e+02	-2.4272	-14.790047	0.000284	2.838612	0.961748	0.000114
1949	1.9383e+02	-2.3727	-14.709304	0.000203	2.027580	0.686963	0.000081
1950	1.9393e+02	-2.3502	-14.596264	0.000284	2.838612	0.961748	0.000114
1951	1.9403e+02	-2.3053	-14.454965	0.000355	3.548266	1.202185	0.000142
1952	1.9412e+02	-2.2700	-14.333850	0.000304	3.041370	1.030444	0.000122
1953	1.9422e+02	-2.2331	-14.200625	0.000335	3.345508	1.133489	0.000134
1954	1.9432e+02	-2.1898	-14.103734	0.000243	2.433096	0.824355	0.000097
1955	1.9442e+02	-2.1400	-13.901877	0.000507	5.068951	1.717407	0.000203
1956	1.9452e+02	-2.0951	-13.752503	0.000375	3.751024	1.270881	0.000150
1957	1.9462e+02	-2.0663	-13.619277	0.000335	3.345508	1.133489	0.000134
1958	1.9472e+02	-2.0278	-13.502200	0.000294	2.939991	0.996096	0.000118
1959	1.9482e+02	-1.9973	-13.348789	0.000385	3.852403	1.305229	0.000154
1960	1.9492e+02	-1.9475	-13.191341	0.000395	3.953782	1.339577	0.000158
1961	1.9502e+02	-1.9026	-13.106561	0.000213	2.128959	0.721311	0.000085
1962	1.9512e+02	-1.8705	-12.949113	0.000395	3.953782	1.339577	0.000158
1963	1.9522e+02	-1.8304	-12.827999	0.000304	3.041370	1.030444	0.000122
1964	1.9532e+02	-1.7839	-12.690736	0.000345	3.446887	1.167837	0.000138
1965	1.9542e+02	-1.7422	-12.545399	0.000365	3.649645	1.236533	0.000146
1966	1.9552e+02	-1.7037	-12.416211	0.000324	3.244129	1.099140	0.000130
1967	1.9562e+02	-1.6620	-12.299134	0.000294	2.939991	0.996096	0.000118
1968	1.9572e+02	-1.6251	-12.226466	0.000182	1.824822	0.618267	0.000073
1969	1.9582e+02	-1.5882	-12.028646	0.000497	4.967572	1.683059	0.000199
1970	1.9592e+02	-1.5401	-11.964052	0.000162	1.622064	0.549570	0.000065
1971	1.9601e+02	-1.5064	-11.806603	0.000395	3.953782	1.339577	0.000158
1972	1.9611e+02	-1.4679	-11.669341	0.000345	3.446887	1.167837	0.000138
1973	1.9621e+02	-1.4342	-11.548227	0.000304	3.041370	1.030444	0.000122
1974	1.9631e+02	-1.3893	-11.427113	0.000304	3.041370	1.030444	0.000122
1975	1.9641e+02	-1.3508	-11.261590	0.000416	4.156540	1.408274	0.000166
1976	1.9651e+02	-1.3091	-11.112216	0.000375	3.751024	1.270881	0.000150
1977	1.9661e+02	-1.2754	-10.970916	0.000355	3.548266	1.202185	0.000142
1978	1.9671e+02	-1.2337	-10.829617	0.000355	3.548266	1.202185	0.000142
1979	1.9681e+02	-1.1887	-10.672168	0.000395	3.953782	1.339577	0.000158
1980	1.9691e+02	-1.1550	-10.563166	0.000274	2.737233	0.927400	0.000110
1981	1.9701e+02	-1.1165	-10.429940	0.000335	3.345508	1.133489	0.000134
1982	1.9711e+02	-1.0716	-10.292678	0.000345	3.446887	1.167837	0.000138
1983	1.9721e+02	-1.0283	-10.187712	0.000264	2.635854	0.893052	0.000105
1984	1.9731e+02	-0.9850	-10.046412	0.000355	3.548266	1.202185	0.000142
1985	1.9741e+02	-0.9497	-9.981818	0.000162	1.622064	0.549570	0.000065
1986	1.9751e+02	-0.9176	-9.848593	0.000335	3.345508	1.133489	0.000134
1987	1.9761e+02	-0.8775	-9.739590	0.000274	2.737233	0.927400	0.000110
1988	1.9771e+02	-0.8310	-9.618476	0.000304	3.041370	1.030444	0.000122
1989	1.9781e+02	-0.7973	-9.481213	0.000345	3.446887	1.167837	0.000138
1990	1.9791e+02	-0.7524	-9.335876	0.000365	3.649645	1.236533	0.000146
1991	1.9800e+02	-0.6994	-9.190540	0.000365	3.649645	1.236533	0.000146
1992	1.9810e+02	-0.6706	-9.033091	0.000395	3.953782	1.339577	0.000158
1993	1.9820e+02	-0.6305	-8.895829	0.000345	3.446887	1.167837	0.000138
1994	1.9830e+02	-0.5984	-8.742417	0.000385	3.852403	1.305229	0.000154
1995	1.9840e+02	-0.5519	-8.572858	0.000426	4.257919	1.442622	0.000170
1996	1.9850e+02	-0.5198	-8.475966	0.000243	2.433096	0.824355	0.000097
1997	1.9860e+02	-0.4813	-8.274110	0.000507	5.068951	1.717407	0.000203
1998	1.9870e+02	-0.4380	-8.144921	0.000324	3.244129	1.099140	0.000130
1999	1.9880e+02	-0.3930	-8.039956	0.000264	2.635854	0.893052	0.000105
2000	1.9890e+02	-0.3465	-7.930953	0.000274	2.737233	0.927400	0.000110
2001	1.9900e+02	-0.3208	-7.809839	0.000304	3.041370	1.030444	0.000122
2002	1.9910e+02	-0.2711	-7.692762	0.000294	2.939991	0.996096	0.000118
2003	1.9920e+02	-0.2294	-7.587797	0.000264	2.635854	0.893052	0.000105
2004	1.9930e+02	-0.1941	-7.418237	0.000426	4.257919	1.442622	0.000170
2005	1.9940e+02	-0.1556	-7.325383	0.000233	2.331717	0.790007	0.000093
2006	1.9950e+02	-0.1155	-7.204269	0.000304	3.041370	1.030444	0.000122
2007	1.9960e+02	-0.0754	-7.030672	0.000436	4.359298	1.476970	0.000174
2008	1.9970e+02	-0.0305	-6.925706	0.000264	2.635854	0.893052	0.000105
2009	1.9980e+02	0.0080	-6.768258	0.000264	2.635854	0.893052	0.000158

PMax (uC/cm2):	6.78e+01
Pr (uC/cm2):	2.79e+00
-Pr (uC/cm2):	-1.48e+00
PLoss (uC/cm2):	-1.48e+00
-Vc:	-8.05e-01
C (Max-Eff) (nF):	3.39e-01
K (Eff):	1.15e+03
Vert. (+/-Pr) Shift (uC/cm2):	6.58e-01
Offset (uC/cm2):	5.29e+00

A (Loop Area - uC/cm2·Volts):	1.19e-02



Hysteresis Version: 5.48.1 - Radiant Technologies, Inc., 1999 - 9/12/24

