»»»»»»»»»»»»»»»»»»»»»»»»»»»»»»»»»»»» Hysteresis ««««««««««««««««««««««««««««««««««««
»»»  Executed Version:	5.48.1
»»»  Vision Version:	5.48.4 (R)
»»»  Vision Compiled:	9/18/24
»»»  Driver Version:	5.47.0
»»»  Windows Version:	Windows 8 or 8.1
»»»  Processor Information:	x86 (AMD or Intel) - 32 Processors
»»»  Tester Name:	PMF21124-494 (100V)
»»»  Tester S/N:	PMF21124-494
»»»  Internal Amp Type:	100V RevK 270k
»»»  Internal Amp S/N:	iAB2-596/K     
»»»  Execution Count:	1
»»»»»»»»»»»»»»»»»»»»»»»»»»»»»»»»»»»»»»»»»»««««««««««««««««««««««««««««««««««««««««««

Stored:	6/19/2025 - 19:8:4
Configured:	06/19/25 10:04:32 AM
Executed:	06/19/25 07:07:05 PM

»»»»»»»»»»»»»»»»»»»»»»»»»»»»»»»»»»» Sample Info ««««««««««««««««««««««««««««««««««««
Sample Name:	
Lot Name:	
Wafer Name:	
Die Row/Column:	0/0
Capacitor Number:	0
Sample Area (cm2):	1.00e-04
Sample Thickness (microns):	3.00e-01

Amplifier:	Internal

»»»»»»»»»»»»»»»»»»»»»»»»»»»»»»»»»»» Tester Info «««««««««««««««««««««««««««««««««««
Tester Name:	PMF21124-494 (100V)
Tester Serial Number:	PMF21124-494
Return Signal Amp. Level:	0.19 [Index: 3]

»»»»»»»»»»»»»»»»»»»»»»»»»»»»»»»» Hysteresis Info ««««««««««««««««««««««««««««««««««
Task Name:	Hyst-1168
Volts:	20.00
Field:	666.67 (kV/cm)
DCBias:	0.00
DCField:	0.00 (kV/cm)
Hysteresis Period (ms):	2.00e+02
Preset:	Enabled
Preset Delay (ms):	1.00e+03
Profile:	Standard Bipolar

»»»»»»»»»»»»»»»»»»»»»»»»»»»»»»»»»»»»»» Data «««««««««««««««««««««««««««««««««««««««
Points:	2009

Valid Data

Point	Time (ms)	Drive Voltage	Measured Polarization (uC/cm2)	Capacitance (uF)	Normalized Capacitance (uF/cm2)	Dielectric Constant	Instantaneous Current (mA)
   1	0.0000e+00	0.0048	-6.001202	0.000182	1.824712	0.618229	0.000073
   2	9.9500e-02	0.0353	-5.928534	0.000182	1.824712	0.618229	0.000073
   3	1.9900e-01	0.0690	-5.783197	0.000365	3.649425	1.236459	0.000146
   4	2.9850e-01	0.1107	-5.633823	0.000375	3.750798	1.270805	0.000150
   5	3.9800e-01	0.1620	-5.452152	0.000456	4.561781	1.545573	0.000183
   6	4.9750e-01	0.2021	-5.351223	0.000253	2.534323	0.858652	0.000101
   7	5.9700e-01	0.2342	-5.213961	0.000345	3.446679	1.167766	0.000138
   8	6.9650e-01	0.2823	-5.040364	0.000436	4.359035	1.476881	0.000174
   9	7.9600e-01	0.3160	-4.903101	0.000345	3.446679	1.167766	0.000138
  10	8.9550e-01	0.3610	-4.802173	0.000253	2.534323	0.858652	0.000101
  11	9.9500e-01	0.3962	-4.677022	0.000314	3.142560	1.064728	0.000126
  12	1.0945e+00	0.4283	-4.487276	0.000476	4.764527	1.614265	0.000191
  13	1.1940e+00	0.4797	-4.394422	0.000233	2.331577	0.789960	0.000093
  14	1.2935e+00	0.5262	-4.257160	0.000345	3.446679	1.167766	0.000138
  15	1.3930e+00	0.5567	-4.055303	0.000507	5.068646	1.717304	0.000203
  16	1.4925e+00	0.5936	-3.954374	0.000253	2.534323	0.858652	0.000101
  17	1.5920e+00	0.6337	-3.833260	0.000304	3.041187	1.030382	0.000122
  18	1.6915e+00	0.6706	-3.647552	0.000466	4.663154	1.579919	0.000187
  19	1.7910e+00	0.7171	-3.538549	0.000274	2.737069	0.927344	0.000110
  20	1.8905e+00	0.7460	-3.449732	0.000223	2.230204	0.755614	0.000089
  21	1.9900e+00	0.7877	-3.255950	0.000487	4.865900	1.648612	0.000195
  22	2.0895e+00	0.8438	-3.118687	0.000345	3.446679	1.167766	0.000138
  23	2.1890e+00	0.8807	-2.989499	0.000324	3.243933	1.099074	0.000130
  24	2.2885e+00	0.9144	-2.856274	0.000335	3.345306	1.133420	0.000134
  25	2.3880e+00	0.9497	-2.723048	0.000335	3.345306	1.133420	0.000134
  26	2.4875e+00	0.9914	-2.537340	0.000466	4.663154	1.579919	0.000187
  27	2.5870e+00	1.0363	-2.416226	0.000304	3.041187	1.030382	0.000122
  28	2.6865e+00	1.0780	-2.278963	0.000345	3.446679	1.167766	0.000138
  29	2.7860e+00	1.1085	-2.145738	0.000335	3.345306	1.133420	0.000134
  30	2.8855e+00	1.1599	-1.972141	0.000436	4.359035	1.476881	0.000174
  31	2.9850e+00	1.1935	-1.855064	0.000294	2.939815	0.996036	0.000118
  32	3.0845e+00	1.2337	-1.725876	0.000324	3.243933	1.099074	0.000130
  33	3.1840e+00	1.2689	-1.588613	0.000345	3.446679	1.167766	0.000138
  34	3.2835e+00	1.3123	-1.459425	0.000324	3.243933	1.099074	0.000130
  35	3.3830e+00	1.3556	-1.289865	0.000426	4.257662	1.442535	0.000170
  36	3.4825e+00	1.3812	-1.128379	0.000405	4.054917	1.373843	0.000162
  37	3.5820e+00	1.4326	-1.011303	0.000294	2.939815	0.996036	0.000118
  38	3.6815e+00	1.4711	-0.841743	0.000426	4.257662	1.442535	0.000170
  39	3.7810e+00	1.5128	-0.708517	0.000335	3.345306	1.133420	0.000134
  40	3.8805e+00	1.5545	-0.563180	0.000365	3.649425	1.236459	0.000146
  41	3.9800e+00	1.5946	-0.413806	0.000375	3.750798	1.270805	0.000150
  42	4.0795e+00	1.6347	-0.296729	0.000294	2.939815	0.996036	0.000118
  43	4.1790e+00	1.6636	-0.139281	0.000395	3.953544	1.339497	0.000158
  44	4.2785e+00	1.7181	-0.014130	0.000314	3.142560	1.064728	0.000126
  45	4.3780e+00	1.7534	0.195801	0.000527	5.271392	1.785996	0.000211
  46	4.4775e+00	1.7855	0.300767	0.000264	2.635696	0.892998	0.000105
  47	4.5770e+00	1.8352	0.429955	0.000324	3.243933	1.099074	0.000130
  48	4.6765e+00	1.8721	0.538958	0.000274	2.737069	0.927344	0.000110
  49	4.7760e+00	1.9042	0.744852	0.000517	5.170019	1.751650	0.000207
  50	4.8755e+00	1.9475	0.870003	0.000314	3.142560	1.064728	0.000126
  51	4.9750e+00	1.9909	1.011303	0.000355	3.548052	1.202113	0.000142
  52	5.0745e+00	2.0294	1.168751	0.000395	3.953544	1.339497	0.000158
  53	5.1740e+00	2.0743	1.257568	0.000223	2.230204	0.755614	0.000089
  54	5.2735e+00	2.1208	1.423090	0.000416	4.156290	1.408189	0.000166
  55	5.3730e+00	2.1497	1.576502	0.000385	3.852171	1.305151	0.000154
  56	5.4725e+00	2.1930	1.733950	0.000395	3.953544	1.339497	0.000158
  57	5.5720e+00	2.2235	1.863138	0.000324	3.243933	1.099074	0.000130
  58	5.6715e+00	2.2732	2.024624	0.000405	4.054917	1.373843	0.000162
  59	5.7710e+00	2.3085	2.186109	0.000405	4.054917	1.373843	0.000162
  60	5.8705e+00	2.3550	2.270889	0.000213	2.128831	0.721268	0.000085
  61	5.9700e+00	2.3871	2.456597	0.000466	4.663154	1.579919	0.000187
  62	6.0695e+00	2.4352	2.614045	0.000395	3.953544	1.339497	0.000158
  63	6.1690e+00	2.4625	2.706900	0.000233	2.331577	0.789960	0.000093
  64	6.2685e+00	2.5122	2.856274	0.000375	3.750798	1.270805	0.000150
  65	6.3680e+00	2.5315	3.037945	0.000456	4.561781	1.545573	0.000183
  66	6.4675e+00	2.5828	3.150984	0.000284	2.838442	0.961690	0.000114
  67	6.5670e+00	2.6277	3.304396	0.000385	3.852171	1.305151	0.000154
  68	6.6665e+00	2.6646	3.449732	0.000365	3.649425	1.236459	0.000146
  69	6.7660e+00	2.7063	3.603144	0.000385	3.852171	1.305151	0.000154
  70	6.8655e+00	2.7432	3.764629	0.000405	4.054917	1.373843	0.000162
  71	6.9650e+00	2.7962	3.930152	0.000416	4.156290	1.408189	0.000166
  72	7.0645e+00	2.8315	4.027043	0.000243	2.432950	0.824306	0.000097
  73	7.1640e+00	2.8700	4.180454	0.000385	3.852171	1.305151	0.000154
  74	7.2635e+00	2.9085	4.378274	0.000497	4.967273	1.682958	0.000199
  75	7.3630e+00	2.9566	4.495351	0.000294	2.939815	0.996036	0.000118
  76	7.4625e+00	2.9839	4.628576	0.000335	3.345306	1.133420	0.000134
  77	7.5620e+00	3.0111	4.786024	0.000395	3.953544	1.339497	0.000158
  78	7.6615e+00	3.0625	4.919250	0.000335	3.345306	1.133420	0.000134
  79	7.7610e+00	3.1042	5.064587	0.000365	3.649425	1.236459	0.000146
  80	7.8605e+00	3.1491	5.254332	0.000476	4.764527	1.614265	0.000191
  81	7.9600e+00	3.1828	5.391595	0.000345	3.446679	1.167766	0.000138
  82	8.0595e+00	3.2213	5.524820	0.000335	3.345306	1.133420	0.000134
  83	8.1590e+00	3.2726	5.666120	0.000355	3.548052	1.202113	0.000142
  84	8.2585e+00	3.2999	5.839717	0.000436	4.359035	1.476881	0.000174
  85	8.3580e+00	3.3512	5.993128	0.000385	3.852171	1.305151	0.000154
  86	8.4575e+00	3.3881	6.118279	0.000314	3.142560	1.064728	0.000126
  87	8.5570e+00	3.4202	6.295913	0.000446	4.460408	1.511227	0.000179
  88	8.6565e+00	3.4651	6.449324	0.000385	3.852171	1.305151	0.000154
  89	8.7560e+00	3.5101	6.590624	0.000355	3.548052	1.202113	0.000142
  90	8.8555e+00	3.5486	6.735961	0.000365	3.649425	1.236459	0.000146
  91	8.9550e+00	3.5903	6.881298	0.000365	3.649425	1.236459	0.000146
  92	9.0545e+00	3.6191	7.022598	0.000355	3.548052	1.202113	0.000142
  93	9.1540e+00	3.6657	7.159860	0.000345	3.446679	1.167766	0.000138
  94	9.2535e+00	3.7090	7.345568	0.000466	4.663154	1.579919	0.000187
  95	9.3530e+00	3.7395	7.450534	0.000264	2.635696	0.892998	0.000105
  96	9.4525e+00	3.7812	7.595871	0.000365	3.649425	1.236459	0.000146
  97	9.5520e+00	3.8261	7.745245	0.000375	3.750798	1.270805	0.000150
  98	9.6515e+00	3.8678	7.910767	0.000416	4.156290	1.408189	0.000166
  99	9.7510e+00	3.8951	8.031882	0.000304	3.041187	1.030382	0.000122
 100	9.8505e+00	3.9416	8.197404	0.000416	4.156290	1.408189	0.000166
 101	9.9500e+00	3.9865	8.395224	0.000497	4.967273	1.682958	0.000199
 102	1.0050e+01	4.0202	8.496152	0.000253	2.534323	0.858652	0.000101
 103	1.0149e+01	4.0635	8.637452	0.000355	3.548052	1.202113	0.000142
 104	1.0248e+01	4.1084	8.786826	0.000375	3.750798	1.270805	0.000150
 105	1.0348e+01	4.1357	8.952348	0.000416	4.156290	1.408189	0.000166
 106	1.0447e+01	4.1774	9.073463	0.000304	3.041187	1.030382	0.000122
 107	1.0547e+01	4.2175	9.243022	0.000426	4.257662	1.442535	0.000170
 108	1.0646e+01	4.2657	9.408545	0.000416	4.156290	1.408189	0.000166
 109	1.0746e+01	4.3074	9.578105	0.000426	4.257662	1.442535	0.000170
 110	1.0845e+01	4.3378	9.695181	0.000294	2.939815	0.996036	0.000118
 111	1.0945e+01	4.3828	9.816296	0.000304	3.041187	1.030382	0.000122
 112	1.1044e+01	4.4197	9.989892	0.000436	4.359035	1.476881	0.000174
 113	1.1144e+01	4.4598	10.139266	0.000375	3.750798	1.270805	0.000150
 114	1.1243e+01	4.4967	10.288640	0.000375	3.750798	1.270805	0.000150
 115	1.1343e+01	4.5464	10.450126	0.000405	4.054917	1.373843	0.000162
 116	1.1443e+01	4.5801	10.579314	0.000324	3.243933	1.099074	0.000130
 117	1.1542e+01	4.6138	10.728688	0.000375	3.750798	1.270805	0.000150
 118	1.1642e+01	4.6651	10.886137	0.000395	3.953544	1.339497	0.000158
 119	1.1741e+01	4.7020	11.035511	0.000375	3.750798	1.270805	0.000150
 120	1.1841e+01	4.7277	11.164699	0.000324	3.243933	1.099074	0.000130
 121	1.1940e+01	4.7694	11.346370	0.000456	4.561781	1.545573	0.000183
 122	1.2040e+01	4.8223	11.475558	0.000324	3.243933	1.099074	0.000130
 123	1.2139e+01	4.8512	11.616858	0.000355	3.548052	1.202113	0.000142
 124	1.2239e+01	4.9073	11.746046	0.000324	3.243933	1.099074	0.000130
 125	1.2338e+01	4.9314	11.923680	0.000446	4.460408	1.511227	0.000179
 126	1.2438e+01	4.9683	12.060943	0.000345	3.446679	1.167766	0.000138
 127	1.2537e+01	5.0212	12.234540	0.000436	4.359035	1.476881	0.000174
 128	1.2636e+01	5.0662	12.351617	0.000294	2.939815	0.996036	0.000118
 129	1.2736e+01	5.0999	12.517139	0.000416	4.156290	1.408189	0.000166
 130	1.2835e+01	5.1512	12.626142	0.000274	2.737069	0.927344	0.000110
 131	1.2935e+01	5.1769	12.779553	0.000385	3.852171	1.305151	0.000154
 132	1.3034e+01	5.2170	12.941039	0.000405	4.054917	1.373843	0.000162
 133	1.3134e+01	5.2667	13.134821	0.000487	4.865900	1.648612	0.000195
 134	1.3233e+01	5.2827	13.276121	0.000355	3.548052	1.202113	0.000142
 135	1.3333e+01	5.3437	13.453755	0.000446	4.460408	1.511227	0.000179
 136	1.3432e+01	5.3822	13.562758	0.000274	2.737069	0.927344	0.000110
 137	1.3532e+01	5.4223	13.724243	0.000405	4.054917	1.373843	0.000162
 138	1.3632e+01	5.4560	13.857468	0.000335	3.345306	1.133420	0.000134
 139	1.3731e+01	5.5009	14.002805	0.000365	3.649425	1.236459	0.000146
 140	1.3831e+01	5.5362	14.140068	0.000345	3.446679	1.167766	0.000138
 141	1.3930e+01	5.5763	14.333850	0.000487	4.865900	1.648612	0.000195
 142	1.4030e+01	5.6212	14.471113	0.000345	3.446679	1.167766	0.000138
 143	1.4129e+01	5.6517	14.628561	0.000395	3.953544	1.339497	0.000158
 144	1.4229e+01	5.6966	14.777935	0.000375	3.750798	1.270805	0.000150
 145	1.4328e+01	5.7399	14.923272	0.000365	3.649425	1.236459	0.000146
 146	1.4428e+01	5.7736	15.072646	0.000375	3.750798	1.270805	0.000150
 147	1.4527e+01	5.8186	15.197797	0.000314	3.142560	1.064728	0.000126
 148	1.4627e+01	5.8587	15.395617	0.000497	4.967273	1.682958	0.000199
 149	1.4726e+01	5.9036	15.520768	0.000314	3.142560	1.064728	0.000126
 150	1.4825e+01	5.9292	15.678217	0.000395	3.953544	1.339497	0.000158
 151	1.4925e+01	5.9710	15.787219	0.000274	2.737069	0.927344	0.000110
 152	1.5024e+01	6.0046	15.964853	0.000446	4.460408	1.511227	0.000179
 153	1.5124e+01	6.0592	16.102116	0.000345	3.446679	1.167766	0.000138
 154	1.5223e+01	6.1009	16.283787	0.000456	4.561781	1.545573	0.000183
 155	1.5323e+01	6.1362	16.412975	0.000324	3.243933	1.099074	0.000130
 156	1.5422e+01	6.1747	16.566387	0.000385	3.852171	1.305151	0.000154
 157	1.5522e+01	6.2068	16.647129	0.000203	2.027458	0.686921	0.000081
 158	1.5621e+01	6.2581	16.844949	0.000497	4.967273	1.682958	0.000199
 159	1.5721e+01	6.2966	17.002397	0.000395	3.953544	1.339497	0.000158
 160	1.5820e+01	6.3335	17.131586	0.000324	3.243933	1.099074	0.000130
 161	1.5920e+01	6.3816	17.289034	0.000395	3.953544	1.339497	0.000158
 162	1.6020e+01	6.4153	17.406111	0.000294	2.939815	0.996036	0.000118
 163	1.6119e+01	6.4458	17.555485	0.000375	3.750798	1.270805	0.000150
 164	1.6218e+01	6.4891	17.692747	0.000345	3.446679	1.167766	0.000138
 165	1.6318e+01	6.5308	17.850196	0.000395	3.953544	1.339497	0.000158
 166	1.6418e+01	6.5709	18.007644	0.000395	3.953544	1.339497	0.000158
 167	1.6517e+01	6.6110	18.108572	0.000253	2.534323	0.858652	0.000101
 168	1.6616e+01	6.6592	18.282169	0.000436	4.359035	1.476881	0.000174
 169	1.6716e+01	6.6977	18.467877	0.000466	4.663154	1.579919	0.000187
 170	1.6816e+01	6.7314	18.601103	0.000335	3.345306	1.133420	0.000134
 171	1.6915e+01	6.7667	18.730291	0.000324	3.243933	1.099074	0.000130
 172	1.7015e+01	6.8100	18.891777	0.000405	4.054917	1.373843	0.000162
 173	1.7114e+01	6.8485	19.020965	0.000324	3.243933	1.099074	0.000130
 174	1.7213e+01	6.8918	19.190525	0.000426	4.257662	1.442535	0.000170
 175	1.7313e+01	6.9239	19.315676	0.000314	3.142560	1.064728	0.000126
 176	1.7413e+01	6.9656	19.456976	0.000355	3.548052	1.202113	0.000142
 177	1.7512e+01	7.0089	19.570015	0.000284	2.838442	0.961690	0.000114
 178	1.7611e+01	7.0522	19.735538	0.000416	4.156290	1.408189	0.000166
 179	1.7711e+01	7.0907	19.909135	0.000436	4.359035	1.476881	0.000174
 180	1.7811e+01	7.1260	20.074657	0.000416	4.156290	1.408189	0.000166
 181	1.7910e+01	7.1693	20.187697	0.000284	2.838442	0.961690	0.000114
 182	1.8009e+01	7.2094	20.324960	0.000345	3.446679	1.167766	0.000138
 183	1.8109e+01	7.2479	20.478371	0.000385	3.852171	1.305151	0.000154
 184	1.8209e+01	7.2928	20.627745	0.000375	3.750798	1.270805	0.000150
 185	1.8308e+01	7.3249	20.765008	0.000345	3.446679	1.167766	0.000138
 186	1.8407e+01	7.3666	20.922456	0.000395	3.953544	1.339497	0.000158
 187	1.8507e+01	7.4051	21.075867	0.000385	3.852171	1.305151	0.000154
 188	1.8607e+01	7.4436	21.217167	0.000355	3.548052	1.202113	0.000142
 189	1.8706e+01	7.4854	21.374615	0.000395	3.953544	1.339497	0.000158
 190	1.8805e+01	7.5222	21.487655	0.000284	2.838442	0.961690	0.000114
 191	1.8905e+01	7.5656	21.701623	0.000537	5.372764	1.820342	0.000215
 192	1.9005e+01	7.5976	21.790440	0.000223	2.230204	0.755614	0.000089
 193	1.9104e+01	7.6426	21.980186	0.000476	4.764527	1.614265	0.000191
 194	1.9203e+01	7.6923	22.125522	0.000365	3.649425	1.236459	0.000146
 195	1.9303e+01	7.7244	22.238562	0.000284	2.838442	0.961690	0.000114
 196	1.9402e+01	7.7645	22.440419	0.000507	5.068646	1.717304	0.000203
 197	1.9502e+01	7.8094	22.561533	0.000304	3.041187	1.030382	0.000122
 198	1.9602e+01	7.8479	22.698796	0.000345	3.446679	1.167766	0.000138
 199	1.9701e+01	7.8864	22.860281	0.000405	4.054917	1.373843	0.000162
 200	1.9800e+01	7.9185	22.973321	0.000284	2.838442	0.961690	0.000114
 201	1.9900e+01	7.9682	23.122695	0.000375	3.750798	1.270805	0.000150
 202	2.0000e+01	8.0115	23.304366	0.000456	4.561781	1.545573	0.000183
 203	2.0099e+01	8.0549	23.453740	0.000375	3.750798	1.270805	0.000150
 204	2.0198e+01	8.0869	23.566780	0.000284	2.838442	0.961690	0.000114
 205	2.0298e+01	8.1174	23.740377	0.000436	4.359035	1.476881	0.000174
 206	2.0398e+01	8.1607	23.901862	0.000405	4.054917	1.373843	0.000162
 207	2.0497e+01	8.1960	24.002791	0.000253	2.534323	0.858652	0.000101
 208	2.0596e+01	8.2490	24.156202	0.000385	3.852171	1.305151	0.000154
 209	2.0696e+01	8.2859	24.289427	0.000335	3.345306	1.133420	0.000134
 210	2.0796e+01	8.3276	24.458987	0.000426	4.257662	1.442535	0.000170
 211	2.0895e+01	8.3581	24.632584	0.000436	4.359035	1.476881	0.000174
 212	2.0994e+01	8.4094	24.790032	0.000395	3.953544	1.339497	0.000158
 213	2.1094e+01	8.4447	24.931332	0.000355	3.548052	1.202113	0.000142
 214	2.1194e+01	8.4848	25.056483	0.000314	3.142560	1.064728	0.000126
 215	2.1293e+01	8.5329	25.230080	0.000436	4.359035	1.476881	0.000174
 216	2.1392e+01	8.5586	25.335045	0.000264	2.635696	0.892998	0.000105
 217	2.1492e+01	8.5939	25.500568	0.000416	4.156290	1.408189	0.000166
 218	2.1591e+01	8.6356	25.653979	0.000385	3.852171	1.305151	0.000154
 219	2.1691e+01	8.6837	25.799316	0.000365	3.649425	1.236459	0.000146
 220	2.1791e+01	8.7222	25.916393	0.000294	2.939815	0.996036	0.000118
 221	2.1890e+01	8.7591	26.098064	0.000456	4.561781	1.545573	0.000183
 222	2.1989e+01	8.8024	26.211104	0.000284	2.838442	0.961690	0.000114
 223	2.2089e+01	8.8361	26.380663	0.000426	4.257662	1.442535	0.000170
 224	2.2189e+01	8.8858	26.521963	0.000355	3.548052	1.202113	0.000142
 225	2.2288e+01	8.9195	26.663263	0.000355	3.548052	1.202113	0.000142
 226	2.2387e+01	8.9645	26.808600	0.000365	3.649425	1.236459	0.000146
 227	2.2487e+01	9.0094	26.921640	0.000284	2.838442	0.961690	0.000114
 228	2.2587e+01	9.0382	27.050828	0.000324	3.243933	1.099074	0.000130
 229	2.2686e+01	9.0832	27.228462	0.000446	4.460408	1.511227	0.000179
 230	2.2785e+01	9.1169	27.341502	0.000284	2.838442	0.961690	0.000114
 231	2.2885e+01	9.1650	27.551433	0.000527	5.271392	1.785996	0.000211
 232	2.2985e+01	9.1987	27.652361	0.000253	2.534323	0.858652	0.000101
 233	2.3084e+01	9.2388	27.781550	0.000324	3.243933	1.099074	0.000130
 234	2.3183e+01	9.2901	27.943035	0.000405	4.054917	1.373843	0.000162
 235	2.3283e+01	9.3206	28.152966	0.000527	5.271392	1.785996	0.000211
 236	2.3383e+01	9.3751	28.225635	0.000182	1.824712	0.618229	0.000073
 237	2.3482e+01	9.4008	28.387120	0.000405	4.054917	1.373843	0.000162
 238	2.3581e+01	9.4473	28.564754	0.000446	4.460408	1.511227	0.000179
 239	2.3681e+01	9.4778	28.702017	0.000345	3.446679	1.167766	0.000138
 240	2.3780e+01	9.5195	28.871576	0.000426	4.257662	1.442535	0.000170
 241	2.3880e+01	9.5596	28.956356	0.000213	2.128831	0.721268	0.000085
 242	2.3980e+01	9.6094	29.162250	0.000517	5.170019	1.751650	0.000207
 243	2.4079e+01	9.6286	29.279327	0.000294	2.939815	0.996036	0.000118
 244	2.4178e+01	9.6719	29.396404	0.000294	2.939815	0.996036	0.000118
 245	2.4278e+01	9.7088	29.602298	0.000517	5.170019	1.751650	0.000207
 246	2.4378e+01	9.7537	29.719375	0.000294	2.939815	0.996036	0.000118
 247	2.4477e+01	9.8019	29.884897	0.000416	4.156290	1.408189	0.000166
 248	2.4576e+01	9.8388	30.034271	0.000375	3.750798	1.270805	0.000150
 249	2.4676e+01	9.8805	30.163460	0.000324	3.243933	1.099074	0.000130
 250	2.4776e+01	9.9270	30.337057	0.000436	4.359035	1.476881	0.000174
 251	2.4875e+01	9.9623	30.446059	0.000274	2.737069	0.927344	0.000110
 252	2.4974e+01	9.9976	30.591396	0.000365	3.649425	1.236459	0.000146
 253	2.5074e+01	10.0393	30.789216	0.000497	4.967273	1.682958	0.000199
 254	2.5174e+01	10.0794	30.902256	0.000284	2.838442	0.961690	0.000114
 255	2.5273e+01	10.1163	31.067778	0.000416	4.156290	1.408189	0.000166
 256	2.5372e+01	10.1532	31.176781	0.000274	2.737069	0.927344	0.000110
 257	2.5472e+01	10.1997	31.354415	0.000446	4.460408	1.511227	0.000179
 258	2.5572e+01	10.2318	31.491677	0.000345	3.446679	1.167766	0.000138
 259	2.5671e+01	10.2687	31.628940	0.000345	3.446679	1.167766	0.000138
 260	2.5770e+01	10.3184	31.790425	0.000405	4.054917	1.373843	0.000162
 261	2.5870e+01	10.3666	31.899428	0.000274	2.737069	0.927344	0.000110
 262	2.5970e+01	10.3970	32.064951	0.000416	4.156290	1.408189	0.000166
 263	2.6069e+01	10.4339	32.214325	0.000375	3.750798	1.270805	0.000150
 264	2.6169e+01	10.4788	32.359662	0.000365	3.649425	1.236459	0.000146
 265	2.6268e+01	10.5093	32.480776	0.000304	3.041187	1.030382	0.000122
 266	2.6367e+01	10.5526	32.646298	0.000416	4.156290	1.408189	0.000166
 267	2.6467e+01	10.5960	32.771449	0.000314	3.142560	1.064728	0.000126
 268	2.6567e+01	10.6409	32.945046	0.000436	4.359035	1.476881	0.000174
 269	2.6666e+01	10.6842	33.082309	0.000345	3.446679	1.167766	0.000138
 270	2.6765e+01	10.7211	33.215534	0.000335	3.345306	1.133420	0.000134
 271	2.6865e+01	10.7564	33.397205	0.000456	4.561781	1.545573	0.000183
 272	2.6965e+01	10.7917	33.530431	0.000335	3.345306	1.133420	0.000134
 273	2.7064e+01	10.8382	33.651545	0.000304	3.041187	1.030382	0.000122
 274	2.7163e+01	10.8719	33.821105	0.000426	4.257662	1.442535	0.000170
 275	2.7263e+01	10.9136	33.934144	0.000284	2.838442	0.961690	0.000114
 276	2.7363e+01	10.9489	34.091593	0.000395	3.953544	1.339497	0.000158
 277	2.7462e+01	10.9986	34.240967	0.000375	3.750798	1.270805	0.000150
 278	2.7561e+01	11.0355	34.394378	0.000385	3.852171	1.305151	0.000154
 279	2.7661e+01	11.0676	34.523566	0.000324	3.243933	1.099074	0.000130
 280	2.7761e+01	11.1157	34.644680	0.000304	3.041187	1.030382	0.000122
 281	2.7860e+01	11.1526	34.826351	0.000456	4.561781	1.545573	0.000183
 282	2.7959e+01	11.1927	34.947466	0.000304	3.041187	1.030382	0.000122
 283	2.8059e+01	11.2312	35.117025	0.000426	4.257662	1.442535	0.000170
 284	2.8159e+01	11.2794	35.246214	0.000324	3.243933	1.099074	0.000130
 285	2.8258e+01	11.3163	35.415773	0.000426	4.257662	1.442535	0.000170
 286	2.8358e+01	11.3548	35.561110	0.000365	3.649425	1.236459	0.000146
 287	2.8457e+01	11.3917	35.690298	0.000324	3.243933	1.099074	0.000130
 288	2.8556e+01	11.4398	35.827561	0.000345	3.446679	1.167766	0.000138
 289	2.8656e+01	11.4735	35.960787	0.000335	3.345306	1.133420	0.000134
 290	2.8756e+01	11.5168	36.122272	0.000405	4.054917	1.373843	0.000162
 291	2.8855e+01	11.5489	36.239349	0.000294	2.939815	0.996036	0.000118
 292	2.8954e+01	11.5954	36.372574	0.000335	3.345306	1.133420	0.000134
 293	2.9054e+01	11.6435	36.525986	0.000385	3.852171	1.305151	0.000154
 294	2.9154e+01	11.6740	36.699582	0.000436	4.359035	1.476881	0.000174
 295	2.9253e+01	11.7093	36.844919	0.000365	3.649425	1.236459	0.000146
 296	2.9352e+01	11.7446	36.949885	0.000264	2.635696	0.892998	0.000105
 297	2.9452e+01	11.7879	37.111370	0.000405	4.054917	1.373843	0.000162
 298	2.9552e+01	11.8312	37.260744	0.000375	3.750798	1.270805	0.000150
 299	2.9651e+01	11.8713	37.402044	0.000355	3.548052	1.202113	0.000142
 300	2.9750e+01	11.9082	37.567567	0.000416	4.156290	1.408189	0.000166
 301	2.9850e+01	11.9483	37.700792	0.000335	3.345306	1.133420	0.000134
 302	2.9950e+01	11.9836	37.838055	0.000345	3.446679	1.167766	0.000138
 303	3.0049e+01	12.0317	37.975317	0.000345	3.446679	1.167766	0.000138
 304	3.0148e+01	12.0654	38.116617	0.000355	3.548052	1.202113	0.000142
 305	3.0248e+01	12.1168	38.241768	0.000314	3.142560	1.064728	0.000126
 306	3.0348e+01	12.1537	38.374994	0.000335	3.345306	1.133420	0.000134
 307	3.0447e+01	12.1858	38.568776	0.000487	4.865900	1.648612	0.000195
 308	3.0547e+01	12.2291	38.689890	0.000304	3.041187	1.030382	0.000122
 309	3.0646e+01	12.2628	38.811004	0.000304	3.041187	1.030382	0.000122
 310	3.0745e+01	12.3077	38.964416	0.000385	3.852171	1.305151	0.000154
 311	3.0845e+01	12.3446	39.138012	0.000436	4.359035	1.476881	0.000174
 312	3.0945e+01	12.3879	39.283349	0.000365	3.649425	1.236459	0.000146
 313	3.1044e+01	12.4248	39.420612	0.000345	3.446679	1.167766	0.000138
 314	3.1143e+01	12.4617	39.569986	0.000375	3.750798	1.270805	0.000150
 315	3.1243e+01	12.5002	39.703211	0.000335	3.345306	1.133420	0.000134
 316	3.1343e+01	12.5547	39.836437	0.000335	3.345306	1.133420	0.000134
 317	3.1442e+01	12.5868	39.969662	0.000335	3.345306	1.133420	0.000134
 318	3.1541e+01	12.6285	40.098851	0.000324	3.243933	1.099074	0.000130
 319	3.1641e+01	12.6718	40.264373	0.000416	4.156290	1.408189	0.000166
 320	3.1741e+01	12.7119	40.442007	0.000446	4.460408	1.511227	0.000179
 321	3.1840e+01	12.7408	40.514676	0.000182	1.824712	0.618229	0.000073
 322	3.1939e+01	12.7905	40.672124	0.000395	3.953544	1.339497	0.000158
 323	3.2039e+01	12.8274	40.801312	0.000324	3.243933	1.099074	0.000130
 324	3.2139e+01	12.8692	40.962798	0.000405	4.054917	1.373843	0.000162
 325	3.2238e+01	12.9093	41.075838	0.000284	2.838442	0.961690	0.000114
 326	3.2337e+01	12.9494	41.217137	0.000355	3.548052	1.202113	0.000142
 327	3.2437e+01	12.9815	41.358437	0.000355	3.548052	1.202113	0.000142
 328	3.2536e+01	13.0264	41.536071	0.000446	4.460408	1.511227	0.000179
 329	3.2636e+01	13.0713	41.649111	0.000284	2.838442	0.961690	0.000114
 330	3.2736e+01	13.1098	41.790411	0.000355	3.548052	1.202113	0.000142
 331	3.2835e+01	13.1499	41.915562	0.000314	3.142560	1.064728	0.000126
 332	3.2934e+01	13.1772	42.044750	0.000324	3.243933	1.099074	0.000130
 333	3.3034e+01	13.2221	42.190087	0.000365	3.649425	1.236459	0.000146
 334	3.3133e+01	13.2638	42.359647	0.000426	4.257662	1.442535	0.000170
 335	3.3233e+01	13.2991	42.472687	0.000284	2.838442	0.961690	0.000114
 336	3.3333e+01	13.3472	42.642246	0.000426	4.257662	1.442535	0.000170
 337	3.3432e+01	13.3793	42.751249	0.000274	2.737069	0.927344	0.000110
 338	3.3532e+01	13.4226	42.888512	0.000345	3.446679	1.167766	0.000138
 339	3.3631e+01	13.4659	43.033848	0.000365	3.649425	1.236459	0.000146
 340	3.3730e+01	13.5092	43.130740	0.000243	2.432950	0.824306	0.000097
 341	3.3830e+01	13.5461	43.288188	0.000395	3.953544	1.339497	0.000158
 342	3.3929e+01	13.5862	43.425451	0.000345	3.446679	1.167766	0.000138
 343	3.4029e+01	13.6231	43.590973	0.000416	4.156290	1.408189	0.000166
 344	3.4129e+01	13.6600	43.699976	0.000274	2.737069	0.927344	0.000110
 345	3.4228e+01	13.6921	43.833201	0.000335	3.345306	1.133420	0.000134
 346	3.4328e+01	13.7354	44.002761	0.000426	4.257662	1.442535	0.000170
 347	3.4427e+01	13.7836	44.131949	0.000324	3.243933	1.099074	0.000130
 348	3.4526e+01	13.8253	44.293435	0.000405	4.054917	1.373843	0.000162
 349	3.4626e+01	13.8622	44.438772	0.000365	3.649425	1.236459	0.000146
 350	3.4725e+01	13.9119	44.547774	0.000274	2.737069	0.927344	0.000110
 351	3.4825e+01	13.9440	44.713297	0.000416	4.156290	1.408189	0.000166
 352	3.4925e+01	13.9857	44.834411	0.000304	3.041187	1.030382	0.000122
 353	3.5024e+01	14.0178	44.999934	0.000416	4.156290	1.408189	0.000166
 354	3.5123e+01	14.0547	45.137196	0.000345	3.446679	1.167766	0.000138
 355	3.5223e+01	14.1044	45.238125	0.000253	2.534323	0.858652	0.000101
 356	3.5322e+01	14.1381	45.387499	0.000375	3.750798	1.270805	0.000150
 357	3.5422e+01	14.1782	45.524761	0.000345	3.446679	1.167766	0.000138
 358	3.5522e+01	14.2167	45.666061	0.000355	3.548052	1.202113	0.000142
 359	3.5621e+01	14.2584	45.795249	0.000324	3.243933	1.099074	0.000130
 360	3.5721e+01	14.2921	45.908289	0.000284	2.838442	0.961690	0.000114
 361	3.5820e+01	14.3354	46.093997	0.000466	4.663154	1.579919	0.000187
 362	3.5919e+01	14.3819	46.190889	0.000243	2.432950	0.824306	0.000097
 363	3.6019e+01	14.4124	46.376597	0.000466	4.663154	1.579919	0.000187
 364	3.6118e+01	14.4557	46.501748	0.000314	3.142560	1.064728	0.000126
 365	3.6218e+01	14.5007	46.667271	0.000416	4.156290	1.408189	0.000166
 366	3.6318e+01	14.5343	46.808570	0.000355	3.548052	1.202113	0.000142
 367	3.6417e+01	14.5664	46.945833	0.000345	3.446679	1.167766	0.000138
 368	3.6517e+01	14.6178	47.103281	0.000395	3.953544	1.339497	0.000158
 369	3.6616e+01	14.6531	47.200172	0.000243	2.432950	0.824306	0.000097
 370	3.6715e+01	14.6996	47.309175	0.000274	2.737069	0.927344	0.000110
 371	3.6815e+01	14.7413	47.470661	0.000405	4.054917	1.373843	0.000162
 372	3.6914e+01	14.7782	47.591775	0.000304	3.041187	1.030382	0.000122
 373	3.7014e+01	14.8183	47.765371	0.000436	4.359035	1.476881	0.000174
 374	3.7114e+01	14.8616	47.902634	0.000345	3.446679	1.167766	0.000138
 375	3.7213e+01	14.8985	48.007600	0.000264	2.635696	0.892998	0.000105
 376	3.7313e+01	14.9290	48.165048	0.000395	3.953544	1.339497	0.000158
 377	3.7412e+01	14.9771	48.294236	0.000324	3.243933	1.099074	0.000130
 378	3.7511e+01	15.0172	48.443610	0.000375	3.750798	1.270805	0.000150
 379	3.7611e+01	15.0493	48.617207	0.000436	4.359035	1.476881	0.000174
 380	3.7711e+01	15.0974	48.718136	0.000253	2.534323	0.858652	0.000101
 381	3.7810e+01	15.1407	48.855398	0.000345	3.446679	1.167766	0.000138
 382	3.7910e+01	15.1825	49.004772	0.000375	3.750798	1.270805	0.000150
 383	3.8009e+01	15.2113	49.146072	0.000355	3.548052	1.202113	0.000142
 384	3.8108e+01	15.2595	49.263149	0.000294	2.939815	0.996036	0.000118
 385	3.8208e+01	15.2932	49.408486	0.000365	3.649425	1.236459	0.000146
 386	3.8307e+01	15.3397	49.553823	0.000365	3.649425	1.236459	0.000146
 387	3.8407e+01	15.3702	49.670900	0.000294	2.939815	0.996036	0.000118
 388	3.8507e+01	15.4183	49.800088	0.000324	3.243933	1.099074	0.000130
 389	3.8606e+01	15.4520	49.965610	0.000416	4.156290	1.408189	0.000166
 390	3.8706e+01	15.4953	50.086725	0.000304	3.041187	1.030382	0.000122
 391	3.8805e+01	15.5338	50.211876	0.000314	3.142560	1.064728	0.000126
 392	3.8904e+01	15.5755	50.341064	0.000324	3.243933	1.099074	0.000130
 393	3.9004e+01	15.6140	50.514661	0.000436	4.359035	1.476881	0.000174
 394	3.9103e+01	15.6573	50.659998	0.000365	3.649425	1.236459	0.000146
 395	3.9203e+01	15.6958	50.740741	0.000203	2.027458	0.686921	0.000081
 396	3.9303e+01	15.7359	50.894152	0.000385	3.852171	1.305151	0.000154
 397	3.9402e+01	15.7728	51.039489	0.000365	3.649425	1.236459	0.000146
 398	3.9502e+01	15.8065	51.192900	0.000385	3.852171	1.305151	0.000154
 399	3.9601e+01	15.8594	51.301902	0.000274	2.737069	0.927344	0.000110
 400	3.9700e+01	15.8867	51.439165	0.000345	3.446679	1.167766	0.000138
 401	3.9800e+01	15.9300	51.596613	0.000395	3.953544	1.339497	0.000158
 402	3.9900e+01	15.9717	51.741950	0.000365	3.649425	1.236459	0.000146
 403	3.9999e+01	16.0102	51.879213	0.000345	3.446679	1.167766	0.000138
 404	4.0099e+01	16.0439	51.984178	0.000264	2.635696	0.892998	0.000105
 405	4.0198e+01	16.0921	52.173924	0.000476	4.764527	1.614265	0.000191
 406	4.0297e+01	16.1322	52.291001	0.000294	2.939815	0.996036	0.000118
 407	4.0397e+01	16.1739	52.432300	0.000355	3.548052	1.202113	0.000142
 408	4.0496e+01	16.2156	52.573600	0.000355	3.548052	1.202113	0.000142
 409	4.0596e+01	16.2541	52.678566	0.000264	2.635696	0.892998	0.000105
 410	4.0696e+01	16.2910	52.856200	0.000446	4.460408	1.511227	0.000179
 411	4.0795e+01	16.3359	52.969239	0.000284	2.838442	0.961690	0.000114
 412	4.0895e+01	16.3648	53.158985	0.000476	4.764527	1.614265	0.000191
 413	4.0994e+01	16.4113	53.300285	0.000355	3.548052	1.202113	0.000142
 414	4.1093e+01	16.4482	53.393139	0.000233	2.331577	0.789960	0.000093
 415	4.1193e+01	16.4867	53.518290	0.000314	3.142560	1.064728	0.000126
 416	4.1292e+01	16.5332	53.691887	0.000436	4.359035	1.476881	0.000174
 417	4.1392e+01	16.5653	53.845298	0.000385	3.852171	1.305151	0.000154
 418	4.1492e+01	16.6150	53.998709	0.000385	3.852171	1.305151	0.000154
 419	4.1591e+01	16.6487	54.123860	0.000314	3.142560	1.064728	0.000126
 420	4.1691e+01	16.7001	54.236900	0.000284	2.838442	0.961690	0.000114
 421	4.1790e+01	16.7273	54.382237	0.000365	3.649425	1.236459	0.000146
 422	4.1889e+01	16.7723	54.531611	0.000375	3.750798	1.270805	0.000150
 423	4.1989e+01	16.8059	54.713282	0.000456	4.561781	1.545573	0.000183
 424	4.2089e+01	16.8509	54.806136	0.000233	2.331577	0.789960	0.000093
 425	4.2188e+01	16.8813	54.959547	0.000385	3.852171	1.305151	0.000154
 426	4.2288e+01	16.9327	55.096810	0.000345	3.446679	1.167766	0.000138
 427	4.2387e+01	16.9776	55.258295	0.000405	4.054917	1.373843	0.000162
 428	4.2486e+01	17.0113	55.322890	0.000162	1.621967	0.549537	0.000065
 429	4.2586e+01	17.0498	55.512635	0.000476	4.764527	1.614265	0.000191
 430	4.2685e+01	17.0835	55.617600	0.000264	2.635696	0.892998	0.000105
 431	4.2785e+01	17.1268	55.775049	0.000395	3.953544	1.339497	0.000158
 432	4.2885e+01	17.1669	55.871940	0.000243	2.432950	0.824306	0.000097
 433	4.2984e+01	17.2086	56.025351	0.000385	3.852171	1.305151	0.000154
 434	4.3084e+01	17.2439	56.190874	0.000416	4.156290	1.408189	0.000166
 435	4.3183e+01	17.2808	56.311988	0.000304	3.041187	1.030382	0.000122
 436	4.3282e+01	17.3273	56.461362	0.000375	3.750798	1.270805	0.000150
 437	4.3382e+01	17.3626	56.562290	0.000253	2.534323	0.858652	0.000101
 438	4.3481e+01	17.4059	56.735887	0.000436	4.359035	1.476881	0.000174
 439	4.3581e+01	17.4541	56.857001	0.000304	3.041187	1.030382	0.000122
 440	4.3681e+01	17.4861	57.006375	0.000375	3.750798	1.270805	0.000150
 441	4.3780e+01	17.5327	57.135564	0.000324	3.243933	1.099074	0.000130
 442	4.3880e+01	17.5567	57.305123	0.000426	4.257662	1.442535	0.000170
 443	4.3979e+01	17.6065	57.426237	0.000304	3.041187	1.030382	0.000122
 444	4.4078e+01	17.6498	57.567537	0.000355	3.548052	1.202113	0.000142
 445	4.4178e+01	17.6851	57.700763	0.000335	3.345306	1.133420	0.000134
 446	4.4278e+01	17.7236	57.842062	0.000355	3.548052	1.202113	0.000142
 447	4.4377e+01	17.7653	57.983362	0.000355	3.548052	1.202113	0.000142
 448	4.4477e+01	17.8086	58.088328	0.000264	2.635696	0.892998	0.000105
 449	4.4576e+01	17.8455	58.237702	0.000375	3.750798	1.270805	0.000150
 450	4.4675e+01	17.8824	58.342667	0.000264	2.635696	0.892998	0.000105
 451	4.4775e+01	17.9193	58.516264	0.000436	4.359035	1.476881	0.000174
 452	4.4874e+01	17.9674	58.677749	0.000405	4.054917	1.373843	0.000162
 453	4.4974e+01	18.0059	58.810975	0.000335	3.345306	1.133420	0.000134
 454	4.5074e+01	18.0540	58.956312	0.000365	3.649425	1.236459	0.000146
 455	4.5173e+01	18.0861	59.081463	0.000314	3.142560	1.064728	0.000126
 456	4.5273e+01	18.1230	59.202577	0.000304	3.041187	1.030382	0.000122
 457	4.5372e+01	18.1615	59.319654	0.000294	2.939815	0.996036	0.000118
 458	4.5471e+01	18.2048	59.460954	0.000355	3.548052	1.202113	0.000142
 459	4.5571e+01	18.2433	59.602253	0.000355	3.548052	1.202113	0.000142
 460	4.5670e+01	18.2786	59.747590	0.000365	3.649425	1.236459	0.000146
 461	4.5770e+01	18.3219	59.905039	0.000395	3.953544	1.339497	0.000158
 462	4.5870e+01	18.3620	59.993856	0.000223	2.230204	0.755614	0.000089
 463	4.5969e+01	18.4086	60.155341	0.000405	4.054917	1.373843	0.000162
 464	4.6069e+01	18.4391	60.312789	0.000395	3.953544	1.339497	0.000158
 465	4.6168e+01	18.4808	60.437941	0.000314	3.142560	1.064728	0.000126
 466	4.6267e+01	18.5257	60.575203	0.000345	3.446679	1.167766	0.000138
 467	4.6367e+01	18.5642	60.716503	0.000355	3.548052	1.202113	0.000142
 468	4.6467e+01	18.5995	60.873951	0.000395	3.953544	1.339497	0.000158
 469	4.6566e+01	18.6316	60.991028	0.000294	2.939815	0.996036	0.000118
 470	4.6666e+01	18.6941	61.120217	0.000324	3.243933	1.099074	0.000130
 471	4.6765e+01	18.7198	61.257479	0.000345	3.446679	1.167766	0.000138
 472	4.6864e+01	18.7599	61.374556	0.000294	2.939815	0.996036	0.000118
 473	4.6964e+01	18.7968	61.540079	0.000416	4.156290	1.408189	0.000166
 474	4.7063e+01	18.8417	61.661193	0.000304	3.041187	1.030382	0.000122
 475	4.7163e+01	18.8802	61.806530	0.000365	3.649425	1.236459	0.000146
 476	4.7263e+01	18.9235	61.935718	0.000324	3.243933	1.099074	0.000130
 477	4.7362e+01	18.9668	62.093166	0.000395	3.953544	1.339497	0.000158
 478	4.7462e+01	19.0086	62.218317	0.000314	3.142560	1.064728	0.000126
 479	4.7561e+01	19.0438	62.339431	0.000304	3.041187	1.030382	0.000122
 480	4.7660e+01	19.0775	62.529177	0.000476	4.764527	1.614265	0.000191
 481	4.7760e+01	19.1209	62.638180	0.000274	2.737069	0.927344	0.000110
 482	4.7859e+01	19.1626	62.759294	0.000304	3.041187	1.030382	0.000122
 483	4.7959e+01	19.1979	62.912705	0.000385	3.852171	1.305151	0.000154
 484	4.8059e+01	19.2299	63.086302	0.000436	4.359035	1.476881	0.000174
 485	4.8158e+01	19.2813	63.219527	0.000335	3.345306	1.133420	0.000134
 486	4.8258e+01	19.3278	63.312381	0.000233	2.331577	0.789960	0.000093
 487	4.8357e+01	19.3663	63.461755	0.000375	3.750798	1.270805	0.000150
 488	4.8456e+01	19.3968	63.627278	0.000416	4.156290	1.408189	0.000166
 489	4.8556e+01	19.4417	63.748392	0.000304	3.041187	1.030382	0.000122
 490	4.8656e+01	19.4722	63.857395	0.000274	2.737069	0.927344	0.000110
 491	4.8755e+01	19.5187	64.002731	0.000365	3.649425	1.236459	0.000146
 492	4.8855e+01	19.5572	64.103660	0.000253	2.534323	0.858652	0.000101
 493	4.8954e+01	19.6005	64.261108	0.000395	3.953544	1.339497	0.000158
 494	4.9053e+01	19.6326	64.378185	0.000294	2.939815	0.996036	0.000118
 495	4.9153e+01	19.6887	64.511411	0.000335	3.345306	1.133420	0.000134
 496	4.9252e+01	19.7064	64.644636	0.000335	3.345306	1.133420	0.000134
 497	4.9352e+01	19.7561	64.773824	0.000324	3.243933	1.099074	0.000130
 498	4.9452e+01	19.7978	64.911087	0.000345	3.446679	1.167766	0.000138
 499	4.9551e+01	19.8412	65.060461	0.000375	3.750798	1.270805	0.000150
 500	4.9651e+01	19.8780	65.193686	0.000335	3.345306	1.133420	0.000134
 501	4.9750e+01	19.9101	65.347098	0.000385	3.852171	1.305151	0.000154
 502	4.9849e+01	19.9567	65.452063	0.000264	2.635696	0.892998	0.000105
 503	4.9949e+01	19.9871	65.585289	0.000335	3.345306	1.133420	0.000134
 504	5.0048e+01	19.9567	65.431877	0.000385	3.852171	1.305151	-0.000154
 505	5.0148e+01	19.9101	65.363246	0.000172	1.723340	0.583883	-0.000069
 506	5.0248e+01	19.8748	65.230021	0.000335	3.345306	1.133420	-0.000134
 507	5.0347e+01	19.8412	65.161389	0.000172	1.723340	0.583883	-0.000069
 508	5.0447e+01	19.7978	65.044312	0.000294	2.939815	0.996036	-0.000118
 509	5.0546e+01	19.7641	64.959533	0.000213	2.128831	0.721268	-0.000085
 510	5.0645e+01	19.7192	64.794010	0.000416	4.156290	1.408189	-0.000166
 511	5.0745e+01	19.6743	64.737490	0.000142	1.419221	0.480845	-0.000057
 512	5.0844e+01	19.6342	64.608302	0.000324	3.243933	1.099074	-0.000130
 513	5.0944e+01	19.6005	64.479113	0.000324	3.243933	1.099074	-0.000130
 514	5.1044e+01	19.5572	64.349925	0.000324	3.243933	1.099074	-0.000130
 515	5.1143e+01	19.5203	64.265145	0.000213	2.128831	0.721268	-0.000085
 516	5.1242e+01	19.4754	64.180365	0.000213	2.128831	0.721268	-0.000085
 517	5.1342e+01	19.4337	64.055214	0.000314	3.142560	1.064728	-0.000126
 518	5.1441e+01	19.4000	63.950249	0.000264	2.635696	0.892998	-0.000105
 519	5.1541e+01	19.3631	63.817023	0.000335	3.345306	1.133420	-0.000134
 520	5.1641e+01	19.3182	63.720132	0.000243	2.432950	0.824306	-0.000097
 521	5.1740e+01	19.2716	63.582869	0.000345	3.446679	1.167766	-0.000138
 522	5.1840e+01	19.2508	63.457718	0.000314	3.142560	1.064728	-0.000126
 523	5.1939e+01	19.1995	63.328530	0.000324	3.243933	1.099074	-0.000130
 524	5.2038e+01	19.1642	63.276047	0.000132	1.317848	0.446499	-0.000053
 525	5.2138e+01	19.1209	63.122636	0.000385	3.852171	1.305151	-0.000154
 526	5.2237e+01	19.0791	63.009596	0.000284	2.838442	0.961690	-0.000114
 527	5.2337e+01	19.0422	62.872333	0.000345	3.446679	1.167766	-0.000138
 528	5.2437e+01	19.0070	62.775442	0.000243	2.432950	0.824306	-0.000097
 529	5.2536e+01	18.9508	62.662402	0.000284	2.838442	0.961690	-0.000114
 530	5.2636e+01	18.9203	62.513028	0.000375	3.750798	1.270805	-0.000150
 531	5.2735e+01	18.8802	62.395951	0.000294	2.939815	0.996036	-0.000118
 532	5.2834e+01	18.8417	62.274837	0.000304	3.041187	1.030382	-0.000122
 533	5.2934e+01	18.8096	62.186020	0.000223	2.230204	0.755614	-0.000089
 534	5.3033e+01	18.7663	62.036646	0.000375	3.750798	1.270805	-0.000150
 535	5.3133e+01	18.7214	61.939755	0.000243	2.432950	0.824306	-0.000097
 536	5.3233e+01	18.6781	61.770195	0.000426	4.257662	1.442535	-0.000170
 537	5.3332e+01	18.6460	61.689453	0.000203	2.027458	0.686921	-0.000081
 538	5.3431e+01	18.5898	61.552190	0.000345	3.446679	1.167766	-0.000138
 539	5.3531e+01	18.5546	61.463373	0.000223	2.230204	0.755614	-0.000089
 540	5.3630e+01	18.5225	61.342259	0.000304	3.041187	1.030382	-0.000122
 541	5.3730e+01	18.4824	61.188848	0.000385	3.852171	1.305151	-0.000154
 542	5.3830e+01	18.4439	61.116179	0.000182	1.824712	0.618229	-0.000073
 543	5.3929e+01	18.3957	60.946620	0.000426	4.257662	1.442535	-0.000170
 544	5.4029e+01	18.3669	60.857803	0.000223	2.230204	0.755614	-0.000089
 545	5.4128e+01	18.3252	60.756874	0.000253	2.534323	0.858652	-0.000101
 546	5.4227e+01	18.2770	60.611537	0.000365	3.649425	1.236459	-0.000146
 547	5.4327e+01	18.2401	60.494460	0.000294	2.939815	0.996036	-0.000118
 548	5.4426e+01	18.2113	60.385458	0.000274	2.737069	0.927344	-0.000110
 549	5.4526e+01	18.1583	60.268381	0.000294	2.939815	0.996036	-0.000118
 550	5.4626e+01	18.1230	60.123044	0.000365	3.649425	1.236459	-0.000146
 551	5.4725e+01	18.0877	59.985781	0.000345	3.446679	1.167766	-0.000138
 552	5.4825e+01	18.0524	59.905039	0.000203	2.027458	0.686921	-0.000081
 553	5.4924e+01	17.9995	59.771813	0.000335	3.345306	1.133420	-0.000134
 554	5.5023e+01	17.9658	59.678959	0.000233	2.331577	0.789960	-0.000093
 555	5.5123e+01	17.9273	59.521511	0.000395	3.953544	1.339497	-0.000158
 556	5.5222e+01	17.8856	59.408471	0.000284	2.838442	0.961690	-0.000114
 557	5.5322e+01	17.8487	59.267171	0.000355	3.548052	1.202113	-0.000142
 558	5.5422e+01	17.8022	59.121834	0.000365	3.649425	1.236459	-0.000146
 559	5.5521e+01	17.7701	59.065314	0.000142	1.419221	0.480845	-0.000057
 560	5.5620e+01	17.7155	58.867495	0.000497	4.967273	1.682958	-0.000199
 561	5.5720e+01	17.6867	58.782715	0.000213	2.128831	0.721268	-0.000085
 562	5.5819e+01	17.6450	58.665638	0.000294	2.939815	0.996036	-0.000118
 563	5.5919e+01	17.6016	58.540487	0.000314	3.142560	1.064728	-0.000126
 564	5.6019e+01	17.5599	58.383038	0.000395	3.953544	1.339497	-0.000158
 565	5.6118e+01	17.5343	58.265962	0.000294	2.939815	0.996036	-0.000118
 566	5.6218e+01	17.4893	58.156959	0.000274	2.737069	0.927344	-0.000110
 567	5.6317e+01	17.4412	58.015659	0.000355	3.548052	1.202113	-0.000142
 568	5.6416e+01	17.4075	57.898582	0.000294	2.939815	0.996036	-0.000118
 569	5.6516e+01	17.3626	57.765357	0.000335	3.345306	1.133420	-0.000134
 570	5.6615e+01	17.3257	57.636168	0.000324	3.243933	1.099074	-0.000130
 571	5.6715e+01	17.2776	57.511017	0.000314	3.142560	1.064728	-0.000126
 572	5.6815e+01	17.2455	57.446423	0.000162	1.621967	0.549537	-0.000065
 573	5.6914e+01	17.2086	57.333383	0.000284	2.838442	0.961690	-0.000114
 574	5.7014e+01	17.1605	57.171898	0.000405	4.054917	1.373843	-0.000162
 575	5.7113e+01	17.1300	57.054821	0.000294	2.939815	0.996036	-0.000118
 576	5.7212e+01	17.0915	56.970041	0.000213	2.128831	0.721268	-0.000085
 577	5.7312e+01	17.0450	56.824704	0.000365	3.649425	1.236459	-0.000146
 578	5.7411e+01	17.0065	56.695516	0.000324	3.243933	1.099074	-0.000130
 579	5.7511e+01	16.9760	56.529993	0.000416	4.156290	1.408189	-0.000166
 580	5.7611e+01	16.9214	56.481548	0.000122	1.216475	0.412153	-0.000049
 581	5.7710e+01	16.8878	56.324099	0.000395	3.953544	1.339497	-0.000158
 582	5.7809e+01	16.8573	56.207022	0.000294	2.939815	0.996036	-0.000118
 583	5.7909e+01	16.8156	56.061685	0.000365	3.649425	1.236459	-0.000146
 584	5.8008e+01	16.7739	55.948646	0.000284	2.838442	0.961690	-0.000114
 585	5.8108e+01	16.7386	55.827532	0.000304	3.041187	1.030382	-0.000122
 586	5.8208e+01	16.6920	55.694306	0.000335	3.345306	1.133420	-0.000134
 587	5.8307e+01	16.6503	55.617600	0.000193	1.926085	0.652575	-0.000077
 588	5.8407e+01	16.6102	55.456115	0.000405	4.054917	1.373843	-0.000162
 589	5.8506e+01	16.5749	55.326927	0.000324	3.243933	1.099074	-0.000130
 590	5.8605e+01	16.5252	55.209850	0.000294	2.939815	0.996036	-0.000118
 591	5.8705e+01	16.4883	55.072587	0.000345	3.446679	1.167766	-0.000138
 592	5.8804e+01	16.4434	54.975696	0.000243	2.432950	0.824306	-0.000097
 593	5.8904e+01	16.4113	54.826322	0.000375	3.750798	1.270805	-0.000150
 594	5.9004e+01	16.3728	54.741542	0.000213	2.128831	0.721268	-0.000085
 595	5.9103e+01	16.3311	54.600242	0.000355	3.548052	1.202113	-0.000142
 596	5.9203e+01	16.2974	54.495277	0.000264	2.635696	0.892998	-0.000105
 597	5.9302e+01	16.2493	54.349940	0.000365	3.649425	1.236459	-0.000146
 598	5.9401e+01	16.2092	54.220752	0.000324	3.243933	1.099074	-0.000130
 599	5.9501e+01	16.1659	54.059266	0.000405	4.054917	1.373843	-0.000162
 600	5.9600e+01	16.1322	53.970449	0.000223	2.230204	0.755614	-0.000089
 601	5.9700e+01	16.0889	53.865484	0.000264	2.635696	0.892998	-0.000105
 602	5.9800e+01	16.0552	53.687850	0.000446	4.460408	1.511227	-0.000179
 603	5.9899e+01	16.0118	53.611144	0.000193	1.926085	0.652575	-0.000077
 604	5.9998e+01	15.9717	53.457733	0.000385	3.852171	1.305151	-0.000154
 605	6.0098e+01	15.9332	53.340656	0.000294	2.939815	0.996036	-0.000118
 606	6.0197e+01	15.8899	53.223579	0.000294	2.939815	0.996036	-0.000118
 607	6.0297e+01	15.8466	53.078242	0.000365	3.649425	1.236459	-0.000146
 608	6.0397e+01	15.8145	52.949054	0.000324	3.243933	1.099074	-0.000130
 609	6.0496e+01	15.7792	52.856200	0.000233	2.331577	0.789960	-0.000093
 610	6.0596e+01	15.7343	52.714900	0.000355	3.548052	1.202113	-0.000142
 611	6.0695e+01	15.7022	52.549377	0.000416	4.156290	1.408189	-0.000166
 612	6.0794e+01	15.6589	52.428263	0.000304	3.041187	1.030382	-0.000122
 613	6.0894e+01	15.6076	52.355595	0.000182	1.824712	0.618229	-0.000073
 614	6.0993e+01	15.5803	52.210258	0.000365	3.649425	1.236459	-0.000146
 615	6.1093e+01	15.5386	52.056847	0.000385	3.852171	1.305151	-0.000154
 616	6.1193e+01	15.4969	51.927658	0.000324	3.243933	1.099074	-0.000130
 617	6.1292e+01	15.4520	51.822693	0.000264	2.635696	0.892998	-0.000105
 618	6.1392e+01	15.4199	51.685430	0.000345	3.446679	1.167766	-0.000138
 619	6.1491e+01	15.3782	51.568353	0.000294	2.939815	0.996036	-0.000118
 620	6.1590e+01	15.3365	51.435128	0.000335	3.345306	1.133420	-0.000134
 621	6.1690e+01	15.2932	51.297865	0.000345	3.446679	1.167766	-0.000138
 622	6.1789e+01	15.2579	51.192900	0.000264	2.635696	0.892998	-0.000105
 623	6.1889e+01	15.2033	51.067749	0.000314	3.142560	1.064728	-0.000126
 624	6.1989e+01	15.1728	50.930486	0.000345	3.446679	1.167766	-0.000138
 625	6.2088e+01	15.1327	50.805335	0.000314	3.142560	1.064728	-0.000126
 626	6.2188e+01	15.0958	50.655961	0.000375	3.750798	1.270805	-0.000150
 627	6.2287e+01	15.0718	50.542921	0.000284	2.838442	0.961690	-0.000114
 628	6.2386e+01	15.0188	50.421807	0.000304	3.041187	1.030382	-0.000122
 629	6.2486e+01	14.9787	50.272433	0.000375	3.750798	1.270805	-0.000150
 630	6.2586e+01	14.9418	50.163430	0.000274	2.737069	0.927344	-0.000110
 631	6.2685e+01	14.8985	50.030205	0.000335	3.345306	1.133420	-0.000134
 632	6.2785e+01	14.8536	49.909091	0.000304	3.041187	1.030382	-0.000122
 633	6.2884e+01	14.8135	49.783939	0.000314	3.142560	1.064728	-0.000126
 634	6.2983e+01	14.7782	49.646677	0.000345	3.446679	1.167766	-0.000138
 635	6.3083e+01	14.7301	49.505377	0.000355	3.548052	1.202113	-0.000142
 636	6.3182e+01	14.6868	49.368114	0.000345	3.446679	1.167766	-0.000138
 637	6.3282e+01	14.6579	49.263149	0.000264	2.635696	0.892998	-0.000105
 638	6.3382e+01	14.6274	49.133960	0.000324	3.243933	1.099074	-0.000130
 639	6.3481e+01	14.5825	48.968438	0.000416	4.156290	1.408189	-0.000166
 640	6.3581e+01	14.5376	48.895769	0.000182	1.824712	0.618229	-0.000073
 641	6.3680e+01	14.4975	48.710061	0.000466	4.663154	1.579919	-0.000187
 642	6.3779e+01	14.4573	48.641430	0.000172	1.723340	0.583883	-0.000069
 643	6.3879e+01	14.4188	48.500130	0.000355	3.548052	1.202113	-0.000142
 644	6.3978e+01	14.3803	48.374979	0.000314	3.142560	1.064728	-0.000126
 645	6.4078e+01	14.3418	48.225605	0.000375	3.750798	1.270805	-0.000150
 646	6.4177e+01	14.2985	48.104491	0.000304	3.041187	1.030382	-0.000122
 647	6.4277e+01	14.2616	47.959154	0.000365	3.649425	1.236459	-0.000146
 648	6.4376e+01	14.2199	47.854188	0.000264	2.635696	0.892998	-0.000105
 649	6.4476e+01	14.1846	47.741149	0.000284	2.838442	0.961690	-0.000114
 650	6.4576e+01	14.1349	47.615997	0.000314	3.142560	1.064728	-0.000126
 651	6.4675e+01	14.1012	47.519106	0.000243	2.432950	0.824306	-0.000097
 652	6.4775e+01	14.0627	47.325324	0.000487	4.865900	1.648612	-0.000195
 653	6.4874e+01	14.0210	47.208247	0.000294	2.939815	0.996036	-0.000118
 654	6.4974e+01	13.9809	47.034650	0.000436	4.359035	1.476881	-0.000174
 655	6.5073e+01	13.9344	46.905462	0.000324	3.243933	1.099074	-0.000130
 656	6.5172e+01	13.8959	46.812607	0.000233	2.331577	0.789960	-0.000093
 657	6.5272e+01	13.8558	46.655159	0.000395	3.953544	1.339497	-0.000158
 658	6.5371e+01	13.8317	46.534045	0.000304	3.041187	1.030382	-0.000122
 659	6.5471e+01	13.7852	46.400820	0.000335	3.345306	1.133420	-0.000134
 660	6.5570e+01	13.7354	46.283743	0.000294	2.939815	0.996036	-0.000118
 661	6.5670e+01	13.7018	46.138406	0.000365	3.649425	1.236459	-0.000146
 662	6.5769e+01	13.6584	46.013255	0.000314	3.142560	1.064728	-0.000126
 663	6.5869e+01	13.6199	45.875992	0.000345	3.446679	1.167766	-0.000138
 664	6.5969e+01	13.5846	45.718544	0.000395	3.953544	1.339497	-0.000158
 665	6.6068e+01	13.5494	45.637801	0.000203	2.027458	0.686921	-0.000081
 666	6.6168e+01	13.4948	45.480353	0.000395	3.953544	1.339497	-0.000158
 667	6.6267e+01	13.4659	45.387499	0.000233	2.331577	0.789960	-0.000093
 668	6.6367e+01	13.4226	45.201790	0.000466	4.663154	1.579919	-0.000187
 669	6.6466e+01	13.3793	45.072602	0.000324	3.243933	1.099074	-0.000130
 670	6.6566e+01	13.3424	44.955525	0.000294	2.939815	0.996036	-0.000118
 671	6.6665e+01	13.3087	44.785965	0.000426	4.257662	1.442535	-0.000170
 672	6.6764e+01	13.2526	44.644666	0.000355	3.548052	1.202113	-0.000142
 673	6.6864e+01	13.2189	44.543737	0.000253	2.534323	0.858652	-0.000101
 674	6.6963e+01	13.1852	44.394363	0.000375	3.750798	1.270805	-0.000150
 675	6.7063e+01	13.1467	44.265175	0.000324	3.243933	1.099074	-0.000130
 676	6.7162e+01	13.1098	44.164246	0.000253	2.534323	0.858652	-0.000101
 677	6.7262e+01	13.0649	44.018910	0.000365	3.649425	1.236459	-0.000146
 678	6.7362e+01	13.0200	43.849350	0.000426	4.257662	1.442535	-0.000170
 679	6.7461e+01	12.9831	43.699976	0.000375	3.750798	1.270805	-0.000150
 680	6.7561e+01	12.9430	43.586936	0.000284	2.838442	0.961690	-0.000114
 681	6.7660e+01	12.8964	43.449673	0.000345	3.446679	1.167766	-0.000138
 682	6.7760e+01	12.8643	43.336634	0.000284	2.838442	0.961690	-0.000114
 683	6.7859e+01	12.8242	43.207445	0.000324	3.243933	1.099074	-0.000130
 684	6.7959e+01	12.7873	43.114591	0.000233	2.331577	0.789960	-0.000093
 685	6.8058e+01	12.7456	42.961180	0.000385	3.852171	1.305151	-0.000154
 686	6.8157e+01	12.7039	42.815843	0.000365	3.649425	1.236459	-0.000146
 687	6.8257e+01	12.6686	42.714915	0.000253	2.534323	0.858652	-0.000101
 688	6.8356e+01	12.6221	42.533244	0.000456	4.561781	1.545573	-0.000183
 689	6.8456e+01	12.5852	42.395981	0.000345	3.446679	1.167766	-0.000138
 690	6.8555e+01	12.5451	42.299090	0.000243	2.432950	0.824306	-0.000097
 691	6.8655e+01	12.5018	42.125493	0.000436	4.359035	1.476881	-0.000174
 692	6.8754e+01	12.4537	41.968045	0.000395	3.953544	1.339497	-0.000158
 693	6.8854e+01	12.4232	41.838856	0.000324	3.243933	1.099074	-0.000130
 694	6.8954e+01	12.3927	41.725816	0.000284	2.838442	0.961690	-0.000114
 695	6.9053e+01	12.3398	41.608739	0.000294	2.939815	0.996036	-0.000118
 696	6.9153e+01	12.3077	41.443217	0.000416	4.156290	1.408189	-0.000166
 697	6.9252e+01	12.2628	41.309991	0.000335	3.345306	1.133420	-0.000134
 698	6.9352e+01	12.2259	41.200989	0.000274	2.737069	0.927344	-0.000110
 699	6.9451e+01	12.1906	41.051615	0.000375	3.750798	1.270805	-0.000150
 700	6.9550e+01	12.1521	40.938575	0.000284	2.838442	0.961690	-0.000114
 701	6.9650e+01	12.1136	40.821498	0.000294	2.939815	0.996036	-0.000118
 702	6.9749e+01	12.0719	40.676161	0.000365	3.649425	1.236459	-0.000146
 703	6.9849e+01	12.0269	40.542936	0.000335	3.345306	1.133420	-0.000134
 704	6.9948e+01	11.9916	40.393562	0.000375	3.750798	1.270805	-0.000150
 705	7.0048e+01	11.9660	40.248225	0.000365	3.649425	1.236459	-0.000146
 706	7.0147e+01	11.9114	40.110962	0.000345	3.446679	1.167766	-0.000138
 707	7.0247e+01	11.8777	40.034257	0.000193	1.926085	0.652575	-0.000077
 708	7.0347e+01	11.8264	39.836437	0.000497	4.967273	1.682958	-0.000199
 709	7.0446e+01	11.7943	39.739546	0.000243	2.432950	0.824306	-0.000097
 710	7.0546e+01	11.7462	39.602283	0.000345	3.446679	1.167766	-0.000138
 711	7.0645e+01	11.7109	39.465020	0.000345	3.446679	1.167766	-0.000138
 712	7.0745e+01	11.6740	39.315646	0.000375	3.750798	1.270805	-0.000150
 713	7.0844e+01	11.6339	39.194532	0.000304	3.041187	1.030382	-0.000122
 714	7.0944e+01	11.5986	39.029010	0.000416	4.156290	1.408189	-0.000166
 715	7.1043e+01	11.5505	38.911933	0.000294	2.939815	0.996036	-0.000118
 716	7.1142e+01	11.5184	38.798893	0.000284	2.838442	0.961690	-0.000114
 717	7.1242e+01	11.4655	38.641445	0.000395	3.953544	1.339497	-0.000158
 718	7.1341e+01	11.4270	38.500145	0.000355	3.548052	1.202113	-0.000142
 719	7.1441e+01	11.3884	38.374994	0.000314	3.142560	1.064728	-0.000126
 720	7.1540e+01	11.3483	38.209471	0.000416	4.156290	1.408189	-0.000166
 721	7.1640e+01	11.3179	38.108543	0.000253	2.534323	0.858652	-0.000101
 722	7.1740e+01	11.2745	37.967243	0.000355	3.548052	1.202113	-0.000142
 723	7.1839e+01	11.2328	37.793646	0.000436	4.359035	1.476881	-0.000174
 724	7.1939e+01	11.1927	37.676569	0.000294	2.939815	0.996036	-0.000118
 725	7.2038e+01	11.1494	37.547381	0.000324	3.243933	1.099074	-0.000130
 726	7.2138e+01	11.1173	37.373784	0.000436	4.359035	1.476881	-0.000174
 727	7.2237e+01	11.0692	37.272856	0.000253	2.534323	0.858652	-0.000101
 728	7.2337e+01	11.0435	37.143667	0.000324	3.243933	1.099074	-0.000130
 729	7.2436e+01	10.9890	36.998330	0.000365	3.649425	1.236459	-0.000146
 730	7.2535e+01	10.9505	36.869142	0.000324	3.243933	1.099074	-0.000130
 731	7.2635e+01	10.9152	36.695545	0.000436	4.359035	1.476881	-0.000174
 732	7.2734e+01	10.8703	36.594617	0.000253	2.534323	0.858652	-0.000101
 733	7.2834e+01	10.8382	36.421020	0.000436	4.359035	1.476881	-0.000174
 734	7.2933e+01	10.7869	36.307980	0.000284	2.838442	0.961690	-0.000114
 735	7.3033e+01	10.7516	36.150532	0.000395	3.953544	1.339497	-0.000158
 736	7.3132e+01	10.7115	36.009232	0.000355	3.548052	1.202113	-0.000142
 737	7.3232e+01	10.6746	35.900230	0.000274	2.737069	0.927344	-0.000110
 738	7.3332e+01	10.6409	35.742781	0.000395	3.953544	1.339497	-0.000158
 739	7.3431e+01	10.5976	35.601482	0.000355	3.548052	1.202113	-0.000142
 740	7.3531e+01	10.5575	35.476330	0.000314	3.142560	1.064728	-0.000126
 741	7.3630e+01	10.5254	35.367328	0.000274	2.737069	0.927344	-0.000110
 742	7.3730e+01	10.4708	35.205842	0.000405	4.054917	1.373843	-0.000162
 743	7.3829e+01	10.4339	35.076654	0.000324	3.243933	1.099074	-0.000130
 744	7.3928e+01	10.3954	34.923243	0.000385	3.852171	1.305151	-0.000154
 745	7.4028e+01	10.3521	34.794054	0.000324	3.243933	1.099074	-0.000130
 746	7.4127e+01	10.3072	34.713312	0.000203	2.027458	0.686921	-0.000081
 747	7.4227e+01	10.2783	34.535678	0.000446	4.460408	1.511227	-0.000179
 748	7.4326e+01	10.2398	34.394378	0.000355	3.548052	1.202113	-0.000142
 749	7.4426e+01	10.1965	34.285375	0.000274	2.737069	0.927344	-0.000110
 750	7.4525e+01	10.1532	34.140038	0.000365	3.649425	1.236459	-0.000146
 751	7.4625e+01	10.1163	33.978553	0.000405	4.054917	1.373843	-0.000162
 752	7.4725e+01	10.0714	33.833216	0.000365	3.649425	1.236459	-0.000146
 753	7.4824e+01	10.0329	33.712102	0.000304	3.041187	1.030382	-0.000122
 754	7.4924e+01	9.9912	33.590988	0.000304	3.041187	1.030382	-0.000122
 755	7.5023e+01	9.9591	33.461800	0.000324	3.243933	1.099074	-0.000130
 756	7.5123e+01	9.9142	33.320500	0.000355	3.548052	1.202113	-0.000142
 757	7.5222e+01	9.8805	33.154977	0.000416	4.156290	1.408189	-0.000166
 758	7.5322e+01	9.8356	33.017715	0.000345	3.446679	1.167766	-0.000138
 759	7.5421e+01	9.7922	32.908712	0.000274	2.737069	0.927344	-0.000110
 760	7.5520e+01	9.7553	32.791635	0.000294	2.939815	0.996036	-0.000118
 761	7.5620e+01	9.7152	32.634187	0.000395	3.953544	1.339497	-0.000158
 762	7.5719e+01	9.6783	32.480776	0.000385	3.852171	1.305151	-0.000154
 763	7.5819e+01	9.6495	32.363699	0.000294	2.939815	0.996036	-0.000118
 764	7.5918e+01	9.6013	32.238547	0.000314	3.142560	1.064728	-0.000126
 765	7.6018e+01	9.5580	32.052839	0.000466	4.663154	1.579919	-0.000187
 766	7.6118e+01	9.5243	31.935762	0.000294	2.939815	0.996036	-0.000118
 767	7.6217e+01	9.4794	31.774277	0.000405	4.054917	1.373843	-0.000162
 768	7.6317e+01	9.4345	31.669311	0.000264	2.635696	0.892998	-0.000105
 769	7.6416e+01	9.3928	31.552234	0.000294	2.939815	0.996036	-0.000118
 770	7.6516e+01	9.3591	31.374600	0.000446	4.460408	1.511227	-0.000179
 771	7.6615e+01	9.3190	31.253486	0.000304	3.041187	1.030382	-0.000122
 772	7.6715e+01	9.2853	31.140447	0.000284	2.838442	0.961690	-0.000114
 773	7.6814e+01	9.2500	30.995110	0.000365	3.649425	1.236459	-0.000146
 774	7.6913e+01	9.2051	30.857847	0.000345	3.446679	1.167766	-0.000138
 775	7.7013e+01	9.1554	30.708473	0.000375	3.750798	1.270805	-0.000150
 776	7.7112e+01	9.1249	30.559099	0.000375	3.750798	1.270805	-0.000150
 777	7.7212e+01	9.0832	30.425873	0.000335	3.345306	1.133420	-0.000134
 778	7.7311e+01	9.0415	30.296685	0.000324	3.243933	1.099074	-0.000130
 779	7.7411e+01	9.0014	30.110977	0.000466	4.663154	1.579919	-0.000187
 780	7.7510e+01	8.9628	30.006011	0.000264	2.635696	0.892998	-0.000105
 781	7.7610e+01	8.9195	29.888934	0.000294	2.939815	0.996036	-0.000118
 782	7.7710e+01	8.8907	29.763783	0.000314	3.142560	1.064728	-0.000126
 783	7.7809e+01	8.8377	29.598261	0.000416	4.156290	1.408189	-0.000166
 784	7.7909e+01	8.8040	29.456961	0.000355	3.548052	1.202113	-0.000142
 785	7.8008e+01	8.7671	29.311624	0.000365	3.649425	1.236459	-0.000146
 786	7.8108e+01	8.7254	29.182436	0.000324	3.243933	1.099074	-0.000130
 787	7.8207e+01	8.6773	29.053247	0.000324	3.243933	1.099074	-0.000130
 788	7.8306e+01	8.6500	28.932133	0.000304	3.041187	1.030382	-0.000122
 789	7.8406e+01	8.6003	28.730276	0.000507	5.068646	1.717304	-0.000203
 790	7.8505e+01	8.5746	28.617237	0.000284	2.838442	0.961690	-0.000114
 791	7.8605e+01	8.5249	28.484011	0.000335	3.345306	1.133420	-0.000134
 792	7.8704e+01	8.4784	28.342711	0.000355	3.548052	1.202113	-0.000142
 793	7.8804e+01	8.4447	28.177189	0.000416	4.156290	1.408189	-0.000166
 794	7.8903e+01	8.4014	28.056075	0.000304	3.041187	1.030382	-0.000122
 795	7.9003e+01	8.3661	27.874404	0.000456	4.561781	1.545573	-0.000183
 796	7.9103e+01	8.3260	27.781550	0.000233	2.331577	0.789960	-0.000093
 797	7.9202e+01	8.2875	27.607953	0.000436	4.359035	1.476881	-0.000174
 798	7.9302e+01	8.2442	27.486839	0.000304	3.041187	1.030382	-0.000122
 799	7.9401e+01	8.2137	27.321316	0.000416	4.156290	1.408189	-0.000166
 800	7.9501e+01	8.1559	27.180016	0.000355	3.548052	1.202113	-0.000142
 801	7.9600e+01	8.1270	27.062939	0.000294	2.939815	0.996036	-0.000118
 802	7.9700e+01	8.0918	26.933751	0.000324	3.243933	1.099074	-0.000130
 803	7.9799e+01	8.0468	26.764191	0.000426	4.257662	1.442535	-0.000170
 804	7.9898e+01	8.0067	26.687486	0.000193	1.926085	0.652575	-0.000077
 805	7.9998e+01	7.9634	26.473518	0.000537	5.372764	1.820342	-0.000215
 806	8.0097e+01	7.9185	26.348366	0.000314	3.142560	1.064728	-0.000126
 807	8.0197e+01	7.8880	26.263587	0.000213	2.128831	0.721268	-0.000085
 808	8.0296e+01	7.8479	26.098064	0.000416	4.156290	1.408189	-0.000166
 809	8.0396e+01	7.8142	25.932541	0.000416	4.156290	1.408189	-0.000166
 810	8.0496e+01	7.7693	25.799316	0.000335	3.345306	1.133420	-0.000134
 811	8.0595e+01	7.7260	25.662053	0.000345	3.446679	1.167766	-0.000138
 812	8.0695e+01	7.6827	25.524791	0.000345	3.446679	1.167766	-0.000138
 813	8.0794e+01	7.6554	25.383491	0.000355	3.548052	1.202113	-0.000142
 814	8.0894e+01	7.6137	25.282563	0.000253	2.534323	0.858652	-0.000101
 815	8.0993e+01	7.5736	25.084743	0.000497	4.967273	1.682958	-0.000199
 816	8.1093e+01	7.5303	24.967666	0.000294	2.939815	0.996036	-0.000118
 817	8.1192e+01	7.4870	24.818292	0.000375	3.750798	1.270805	-0.000150
 818	8.1291e+01	7.4501	24.676992	0.000355	3.548052	1.202113	-0.000142
 819	8.1391e+01	7.4035	24.551841	0.000314	3.142560	1.064728	-0.000126
 820	8.1490e+01	7.3666	24.438801	0.000284	2.838442	0.961690	-0.000114
 821	8.1590e+01	7.3201	24.277316	0.000405	4.054917	1.373843	-0.000162
 822	8.1689e+01	7.2880	24.111793	0.000416	4.156290	1.408189	-0.000166
 823	8.1789e+01	7.2463	23.982605	0.000324	3.243933	1.099074	-0.000130
 824	8.1888e+01	7.2030	23.825157	0.000395	3.953544	1.339497	-0.000158
 825	8.1988e+01	7.1693	23.671745	0.000385	3.852171	1.305151	-0.000154
 826	8.2088e+01	7.1292	23.526409	0.000365	3.649425	1.236459	-0.000146
 827	8.2187e+01	7.0843	23.389146	0.000345	3.446679	1.167766	-0.000138
 828	8.2287e+01	7.0426	23.231698	0.000395	3.953544	1.339497	-0.000158
 829	8.2386e+01	7.0105	23.102509	0.000324	3.243933	1.099074	-0.000130
 830	8.2486e+01	6.9672	22.941024	0.000405	4.054917	1.373843	-0.000162
 831	8.2585e+01	6.9351	22.815873	0.000314	3.142560	1.064728	-0.000126
 832	8.2684e+01	6.8918	22.670536	0.000365	3.649425	1.236459	-0.000146
 833	8.2784e+01	6.8469	22.549422	0.000304	3.041187	1.030382	-0.000122
 834	8.2883e+01	6.8148	22.339491	0.000527	5.271392	1.785996	-0.000211
 835	8.2983e+01	6.7715	22.266822	0.000182	1.824712	0.618229	-0.000073
 836	8.3082e+01	6.7265	22.097262	0.000426	4.257662	1.442535	-0.000170
 837	8.3182e+01	6.6800	21.943851	0.000385	3.852171	1.305151	-0.000154
 838	8.3281e+01	6.6495	21.766217	0.000446	4.460408	1.511227	-0.000179
 839	8.3381e+01	6.6110	21.661252	0.000264	2.635696	0.892998	-0.000105
 840	8.3481e+01	6.5741	21.519952	0.000355	3.548052	1.202113	-0.000142
 841	8.3580e+01	6.5276	21.350392	0.000426	4.257662	1.442535	-0.000170
 842	8.3680e+01	6.4795	21.217167	0.000335	3.345306	1.133420	-0.000134
 843	8.3779e+01	6.4538	21.083941	0.000335	3.345306	1.133420	-0.000134
 844	8.3879e+01	6.4153	20.946679	0.000345	3.446679	1.167766	-0.000138
 845	8.3978e+01	6.3720	20.801342	0.000365	3.649425	1.236459	-0.000146
 846	8.4078e+01	6.3303	20.672154	0.000324	3.243933	1.099074	-0.000130
 847	8.4177e+01	6.2902	20.506631	0.000416	4.156290	1.408189	-0.000166
 848	8.4276e+01	6.2581	20.373406	0.000335	3.345306	1.133420	-0.000134
 849	8.4376e+01	6.2164	20.207883	0.000416	4.156290	1.408189	-0.000166
 850	8.4475e+01	6.1731	20.054472	0.000385	3.852171	1.305151	-0.000154
 851	8.4575e+01	6.1362	19.909135	0.000365	3.649425	1.236459	-0.000146
 852	8.4674e+01	6.0929	19.808206	0.000253	2.534323	0.858652	-0.000101
 853	8.4774e+01	6.0560	19.646721	0.000405	4.054917	1.373843	-0.000162
 854	8.4874e+01	6.0062	19.489273	0.000395	3.953544	1.339497	-0.000158
 855	8.4973e+01	5.9742	19.327787	0.000405	4.054917	1.373843	-0.000162
 856	8.5073e+01	5.9357	19.210710	0.000294	2.939815	0.996036	-0.000118
 857	8.5172e+01	5.8907	19.089596	0.000304	3.041187	1.030382	-0.000122
 858	8.5272e+01	5.8522	18.895814	0.000487	4.865900	1.648612	-0.000195
 859	8.5371e+01	5.8057	18.794885	0.000253	2.534323	0.858652	-0.000101
 860	8.5471e+01	5.7752	18.593029	0.000507	5.068646	1.717304	-0.000203
 861	8.5570e+01	5.7255	18.484026	0.000274	2.737069	0.927344	-0.000110
 862	8.5669e+01	5.7014	18.298318	0.000466	4.663154	1.579919	-0.000187
 863	8.5769e+01	5.6597	18.185278	0.000284	2.838442	0.961690	-0.000114
 864	8.5868e+01	5.6100	18.031867	0.000385	3.852171	1.305151	-0.000154
 865	8.5968e+01	5.5747	17.910753	0.000304	3.041187	1.030382	-0.000122
 866	8.6067e+01	5.5234	17.769453	0.000355	3.548052	1.202113	-0.000142
 867	8.6167e+01	5.4945	17.620079	0.000375	3.750798	1.270805	-0.000150
 868	8.6266e+01	5.4608	17.454556	0.000416	4.156290	1.408189	-0.000166
 869	8.6366e+01	5.4159	17.321331	0.000335	3.345306	1.133420	-0.000134
 870	8.6466e+01	5.3790	17.171957	0.000375	3.750798	1.270805	-0.000150
 871	8.6565e+01	5.3261	17.054880	0.000294	2.939815	0.996036	-0.000118
 872	8.6665e+01	5.2908	16.881283	0.000436	4.359035	1.476881	-0.000174
 873	8.6764e+01	5.2555	16.768243	0.000284	2.838442	0.961690	-0.000114
 874	8.6864e+01	5.2154	16.606758	0.000405	4.054917	1.373843	-0.000162
 875	8.6963e+01	5.1785	16.441235	0.000416	4.156290	1.408189	-0.000166
 876	8.7063e+01	5.1464	16.295898	0.000365	3.649425	1.236459	-0.000146
 877	8.7162e+01	5.0966	16.162673	0.000335	3.345306	1.133420	-0.000134
 878	8.7261e+01	5.0581	15.989076	0.000436	4.359035	1.476881	-0.000174
 879	8.7361e+01	5.0148	15.900259	0.000223	2.230204	0.755614	-0.000089
 880	8.7460e+01	4.9811	15.758959	0.000355	3.548052	1.202113	-0.000142
 881	8.7560e+01	4.9330	15.605548	0.000385	3.852171	1.305151	-0.000154
 882	8.7659e+01	4.8977	15.440026	0.000416	4.156290	1.408189	-0.000166
 883	8.7759e+01	4.8672	15.306800	0.000335	3.345306	1.133420	-0.000134
 884	8.7859e+01	4.8127	15.125129	0.000456	4.561781	1.545573	-0.000183
 885	8.7958e+01	4.7726	14.983829	0.000355	3.548052	1.202113	-0.000142
 886	8.8058e+01	4.7389	14.854641	0.000324	3.243933	1.099074	-0.000130
 887	8.8157e+01	4.7020	14.709304	0.000365	3.649425	1.236459	-0.000146
 888	8.8257e+01	4.6619	14.572041	0.000345	3.446679	1.167766	-0.000138
 889	8.8356e+01	4.6170	14.430742	0.000355	3.548052	1.202113	-0.000142
 890	8.8456e+01	4.5817	14.261182	0.000426	4.257662	1.442535	-0.000170
 891	8.8555e+01	4.5432	14.119882	0.000355	3.548052	1.202113	-0.000142
 892	8.8654e+01	4.4999	13.978582	0.000355	3.548052	1.202113	-0.000142
 893	8.8754e+01	4.4678	13.841320	0.000345	3.446679	1.167766	-0.000138
 894	8.8853e+01	4.4213	13.675797	0.000416	4.156290	1.408189	-0.000166
 895	8.8953e+01	4.3763	13.554683	0.000304	3.041187	1.030382	-0.000122
 896	8.9052e+01	4.3475	13.409346	0.000365	3.649425	1.236459	-0.000146
 897	8.9152e+01	4.2945	13.255935	0.000385	3.852171	1.305151	-0.000154
 898	8.9251e+01	4.2624	13.078301	0.000446	4.460408	1.511227	-0.000179
 899	8.9351e+01	4.2191	12.941039	0.000345	3.446679	1.167766	-0.000138
 900	8.9451e+01	4.1854	12.799739	0.000355	3.548052	1.202113	-0.000142
 901	8.9550e+01	4.1341	12.654402	0.000365	3.649425	1.236459	-0.000146
 902	8.9650e+01	4.0988	12.484842	0.000426	4.257662	1.442535	-0.000170
 903	8.9749e+01	4.0619	12.315283	0.000426	4.257662	1.442535	-0.000170
 904	8.9849e+01	4.0138	12.214354	0.000253	2.534323	0.858652	-0.000101
 905	8.9948e+01	3.9929	12.073054	0.000355	3.548052	1.202113	-0.000142
 906	9.0047e+01	3.9416	11.911569	0.000405	4.054917	1.373843	-0.000162
 907	9.0147e+01	3.9063	11.770269	0.000355	3.548052	1.202113	-0.000142
 908	9.0246e+01	3.8534	11.628969	0.000355	3.548052	1.202113	-0.000142
 909	9.0346e+01	3.8245	11.503818	0.000314	3.142560	1.064728	-0.000126
 910	9.0445e+01	3.7828	11.322147	0.000456	4.561781	1.545573	-0.000183
 911	9.0545e+01	3.7363	11.172773	0.000375	3.750798	1.270805	-0.000150
 912	9.0644e+01	3.7058	11.079919	0.000233	2.331577	0.789960	-0.000093
 913	9.0744e+01	3.6625	10.918434	0.000405	4.054917	1.373843	-0.000162
 914	9.0844e+01	3.6208	10.736762	0.000456	4.561781	1.545573	-0.000183
 915	9.0943e+01	3.5887	10.615648	0.000304	3.041187	1.030382	-0.000122
 916	9.1043e+01	3.5389	10.510683	0.000264	2.635696	0.892998	-0.000105
 917	9.1142e+01	3.5036	10.345160	0.000416	4.156290	1.408189	-0.000166
 918	9.1242e+01	3.4684	10.163489	0.000456	4.561781	1.545573	-0.000183
 919	9.1341e+01	3.4218	10.022189	0.000355	3.548052	1.202113	-0.000142
 920	9.1441e+01	3.3833	9.905113	0.000294	2.939815	0.996036	-0.000118
 921	9.1540e+01	3.3480	9.731516	0.000436	4.359035	1.476881	-0.000174
 922	9.1639e+01	3.3031	9.610402	0.000304	3.041187	1.030382	-0.000122
 923	9.1739e+01	3.2614	9.489288	0.000304	3.041187	1.030382	-0.000122
 924	9.1838e+01	3.2261	9.339914	0.000375	3.750798	1.270805	-0.000150
 925	9.1938e+01	3.1844	9.166317	0.000436	4.359035	1.476881	-0.000174
 926	9.2037e+01	3.1507	9.033091	0.000335	3.345306	1.133420	-0.000134
 927	9.2137e+01	3.1010	8.863532	0.000426	4.257662	1.442535	-0.000170
 928	9.2237e+01	3.0577	8.742417	0.000304	3.041187	1.030382	-0.000122
 929	9.2336e+01	3.0272	8.576895	0.000416	4.156290	1.408189	-0.000166
 930	9.2436e+01	2.9887	8.459818	0.000294	2.939815	0.996036	-0.000118
 931	9.2535e+01	2.9341	8.266035	0.000487	4.865900	1.648612	-0.000195
 932	9.2635e+01	2.9005	8.132810	0.000335	3.345306	1.133420	-0.000134
 933	9.2734e+01	2.8668	8.056104	0.000193	1.926085	0.652575	-0.000077
 934	9.2834e+01	2.8283	7.870396	0.000466	4.663154	1.579919	-0.000187
 935	9.2933e+01	2.7817	7.716985	0.000385	3.852171	1.305151	-0.000154
 936	9.3032e+01	2.7481	7.603945	0.000284	2.838442	0.961690	-0.000114
 937	9.3132e+01	2.7079	7.450534	0.000385	3.852171	1.305151	-0.000154
 938	9.3231e+01	2.6743	7.297123	0.000385	3.852171	1.305151	-0.000154
 939	9.3331e+01	2.6261	7.143712	0.000385	3.852171	1.305151	-0.000154
 940	9.3430e+01	2.5860	7.026635	0.000294	2.939815	0.996036	-0.000118
 941	9.3530e+01	2.5459	6.857075	0.000426	4.257662	1.442535	-0.000170
 942	9.3629e+01	2.5090	6.752110	0.000264	2.635696	0.892998	-0.000105
 943	9.3729e+01	2.4673	6.570438	0.000456	4.561781	1.545573	-0.000183
 944	9.3829e+01	2.4288	6.412990	0.000395	3.953544	1.339497	-0.000158
 945	9.3928e+01	2.3855	6.283802	0.000324	3.243933	1.099074	-0.000130
 946	9.4028e+01	2.3470	6.122316	0.000405	4.054917	1.373843	-0.000162
 947	9.4127e+01	2.3021	6.001202	0.000304	3.041187	1.030382	-0.000122
 948	9.4227e+01	2.2636	5.835680	0.000416	4.156290	1.408189	-0.000166
 949	9.4326e+01	2.2331	5.722640	0.000284	2.838442	0.961690	-0.000114
 950	9.4425e+01	2.1882	5.528857	0.000487	4.865900	1.648612	-0.000195
 951	9.4525e+01	2.1433	5.403706	0.000314	3.142560	1.064728	-0.000126
 952	9.4624e+01	2.1080	5.254332	0.000375	3.750798	1.270805	-0.000150
 953	9.4724e+01	2.0663	5.129181	0.000314	3.142560	1.064728	-0.000126
 954	9.4823e+01	2.0342	4.919250	0.000527	5.271392	1.785996	-0.000211
 955	9.4923e+01	1.9796	4.794099	0.000314	3.142560	1.064728	-0.000126
 956	9.5022e+01	1.9475	4.660873	0.000335	3.345306	1.133420	-0.000134
 957	9.5122e+01	1.9090	4.511499	0.000375	3.750798	1.270805	-0.000150
 958	9.5222e+01	1.8625	4.382311	0.000324	3.243933	1.099074	-0.000130
 959	9.5321e+01	1.8352	4.261197	0.000304	3.041187	1.030382	-0.000122
 960	9.5421e+01	1.7903	4.099711	0.000405	4.054917	1.373843	-0.000162
 961	9.5520e+01	1.7550	3.946300	0.000385	3.852171	1.305151	-0.000154
 962	9.5620e+01	1.7069	3.728295	0.000547	5.474137	1.854688	-0.000219
 963	9.5719e+01	1.6716	3.675812	0.000132	1.317848	0.446499	-0.000053
 964	9.5819e+01	1.6219	3.518364	0.000395	3.953544	1.339497	-0.000158
 965	9.5918e+01	1.5930	3.312470	0.000517	5.170019	1.751650	-0.000207
 966	9.6017e+01	1.5545	3.191356	0.000304	3.041187	1.030382	-0.000122
 967	9.6117e+01	1.5176	3.082353	0.000274	2.737069	0.927344	-0.000110
 968	9.6216e+01	1.4679	2.949128	0.000335	3.345306	1.133420	-0.000134
 969	9.6316e+01	1.4342	2.763419	0.000466	4.663154	1.579919	-0.000187
 970	9.6415e+01	1.3973	2.650380	0.000284	2.838442	0.961690	-0.000114
 971	9.6515e+01	1.3508	2.472746	0.000446	4.460408	1.511227	-0.000179
 972	9.6615e+01	1.3139	2.367780	0.000264	2.635696	0.892998	-0.000105
 973	9.6714e+01	1.2738	2.173998	0.000487	4.865900	1.648612	-0.000195
 974	9.6814e+01	1.2304	2.032698	0.000355	3.548052	1.202113	-0.000142
 975	9.6913e+01	1.1952	1.915621	0.000294	2.939815	0.996036	-0.000118
 976	9.7013e+01	1.1583	1.786433	0.000324	3.243933	1.099074	-0.000130
 977	9.7112e+01	1.1117	1.596687	0.000476	4.764527	1.614265	-0.000191
 978	9.7212e+01	1.0748	1.459425	0.000345	3.446679	1.167766	-0.000138
 979	9.7311e+01	1.0379	1.346385	0.000284	2.838442	0.961690	-0.000114
 980	9.7410e+01	0.9962	1.205085	0.000355	3.548052	1.202113	-0.000142
 981	9.7510e+01	0.9465	1.075897	0.000324	3.243933	1.099074	-0.000130
 982	9.7609e+01	0.9112	0.870003	0.000517	5.170019	1.751650	-0.000207
 983	9.7709e+01	0.8775	0.740814	0.000324	3.243933	1.099074	-0.000130
 984	9.7808e+01	0.8374	0.623737	0.000294	2.939815	0.996036	-0.000118
 985	9.7908e+01	0.7957	0.454178	0.000426	4.257662	1.442535	-0.000170
 986	9.8007e+01	0.7540	0.337101	0.000294	2.939815	0.996036	-0.000118
 987	9.8107e+01	0.7123	0.139281	0.000497	4.967273	1.682958	-0.000199
 988	9.8207e+01	0.6754	0.006056	0.000335	3.345306	1.133420	-0.000134
 989	9.8306e+01	0.6273	-0.159467	0.000416	4.156290	1.408189	-0.000166
 990	9.8406e+01	0.5904	-0.272507	0.000284	2.838442	0.961690	-0.000114
 991	9.8505e+01	0.5519	-0.417844	0.000365	3.649425	1.236459	-0.000146
 992	9.8605e+01	0.5214	-0.563180	0.000365	3.649425	1.236459	-0.000146
 993	9.8704e+01	0.4668	-0.740814	0.000446	4.460408	1.511227	-0.000179
 994	9.8803e+01	0.4299	-0.898263	0.000395	3.953544	1.339497	-0.000158
 995	9.8903e+01	0.3914	-1.023414	0.000314	3.142560	1.064728	-0.000126
 996	9.9002e+01	0.3497	-1.160677	0.000345	3.446679	1.167766	-0.000138
 997	9.9102e+01	0.3064	-1.354459	0.000487	4.865900	1.648612	-0.000195
 998	9.9201e+01	0.2727	-1.451350	0.000243	2.432950	0.824306	-0.000097
 999	9.9301e+01	0.2438	-1.596687	0.000365	3.649425	1.236459	-0.000146
1000	9.9400e+01	0.2053	-1.754135	0.000395	3.953544	1.339497	-0.000158
1001	9.9500e+01	0.1604	-1.907547	0.000385	3.852171	1.305151	-0.000154
1002	9.9600e+01	0.1107	-2.048846	0.000355	3.548052	1.202113	-0.000142
1003	9.9699e+01	0.0802	-2.214369	0.000416	4.156290	1.408189	-0.000166
1004	9.9799e+01	0.0369	-2.379892	0.000416	4.156290	1.408189	-0.000166
1005	9.9898e+01	0.0064	-2.448523	0.000172	1.723340	0.583883	-0.000069
1006	9.9998e+01	-0.0465	-2.622120	0.000436	4.359035	1.476881	-0.000174
1007	1.0010e+02	-0.0690	-2.763419	0.000355	3.548052	1.202113	-0.000142
1008	1.0020e+02	-0.1203	-2.912793	0.000375	3.750798	1.270805	-0.000150
1009	1.0030e+02	-0.1556	-3.029870	0.000294	2.939815	0.996036	-0.000118
1010	1.0040e+02	-0.1989	-3.207504	0.000446	4.460408	1.511227	-0.000179
1011	1.0050e+02	-0.2390	-3.360916	0.000385	3.852171	1.305151	-0.000154
1012	1.0059e+02	-0.2711	-3.494141	0.000335	3.345306	1.133420	-0.000134
1013	1.0069e+02	-0.3080	-3.635441	0.000355	3.548052	1.202113	-0.000142
1014	1.0079e+02	-0.3593	-3.853446	0.000547	5.474137	1.854688	-0.000219
1015	1.0089e+02	-0.3930	-3.922077	0.000172	1.723340	0.583883	-0.000069
1016	1.0099e+02	-0.4347	-4.075489	0.000385	3.852171	1.305151	-0.000154
1017	1.0109e+02	-0.4668	-4.232937	0.000395	3.953544	1.339497	-0.000158
1018	1.0119e+02	-0.5085	-4.390385	0.000395	3.953544	1.339497	-0.000158
1019	1.0129e+02	-0.5583	-4.523611	0.000335	3.345306	1.133420	-0.000134
1020	1.0139e+02	-0.5839	-4.652799	0.000324	3.243933	1.099074	-0.000130
1021	1.0149e+02	-0.6305	-4.806210	0.000385	3.852171	1.305151	-0.000154
1022	1.0159e+02	-0.6754	-4.923287	0.000294	2.939815	0.996036	-0.000118
1023	1.0169e+02	-0.7059	-5.088810	0.000416	4.156290	1.408189	-0.000166
1024	1.0179e+02	-0.7508	-5.217998	0.000324	3.243933	1.099074	-0.000130
1025	1.0189e+02	-0.7861	-5.367372	0.000375	3.750798	1.270805	-0.000150
1026	1.0199e+02	-0.8406	-5.528857	0.000405	4.054917	1.373843	-0.000162
1027	1.0209e+02	-0.8727	-5.702454	0.000436	4.359035	1.476881	-0.000174
1028	1.0219e+02	-0.9224	-5.823568	0.000304	3.041187	1.030382	-0.000122
1029	1.0229e+02	-0.9529	-5.956794	0.000335	3.345306	1.133420	-0.000134
1030	1.0239e+02	-0.9914	-6.122316	0.000416	4.156290	1.408189	-0.000166
1031	1.0248e+02	-1.0395	-6.275728	0.000385	3.852171	1.305151	-0.000154
1032	1.0258e+02	-1.0748	-6.417027	0.000355	3.548052	1.202113	-0.000142
1033	1.0268e+02	-1.1133	-6.546216	0.000324	3.243933	1.099074	-0.000130
1034	1.0278e+02	-1.1454	-6.695590	0.000375	3.750798	1.270805	-0.000150
1035	1.0288e+02	-1.1952	-6.828815	0.000335	3.345306	1.133420	-0.000134
1036	1.0298e+02	-1.2337	-6.974152	0.000365	3.649425	1.236459	-0.000146
1037	1.0308e+02	-1.2770	-7.155823	0.000456	4.561781	1.545573	-0.000183
1038	1.0318e+02	-1.3091	-7.289049	0.000335	3.345306	1.133420	-0.000134
1039	1.0328e+02	-1.3524	-7.402088	0.000284	2.838442	0.961690	-0.000114
1040	1.0338e+02	-1.3861	-7.575685	0.000436	4.359035	1.476881	-0.000174
1041	1.0348e+02	-1.4422	-7.680651	0.000264	2.635696	0.892998	-0.000105
1042	1.0358e+02	-1.4791	-7.842136	0.000405	4.054917	1.373843	-0.000162
1043	1.0368e+02	-1.5144	-7.963250	0.000304	3.041187	1.030382	-0.000122
1044	1.0378e+02	-1.5561	-8.136847	0.000436	4.359035	1.476881	-0.000174
1045	1.0388e+02	-1.5802	-8.257961	0.000304	3.041187	1.030382	-0.000122
1046	1.0398e+02	-1.6267	-8.431558	0.000436	4.359035	1.476881	-0.000174
1047	1.0408e+02	-1.6620	-8.564783	0.000335	3.345306	1.133420	-0.000134
1048	1.0418e+02	-1.7117	-8.698009	0.000335	3.345306	1.133420	-0.000134
1049	1.0428e+02	-1.7422	-8.875643	0.000446	4.460408	1.511227	-0.000179
1050	1.0438e+02	-1.7823	-8.992720	0.000294	2.939815	0.996036	-0.000118
1051	1.0447e+02	-1.8336	-9.150168	0.000395	3.953544	1.339497	-0.000158
1052	1.0457e+02	-1.8689	-9.267245	0.000294	2.939815	0.996036	-0.000118
1053	1.0467e+02	-1.9090	-9.420656	0.000385	3.852171	1.305151	-0.000154
1054	1.0477e+02	-1.9411	-9.553882	0.000335	3.345306	1.133420	-0.000134
1055	1.0487e+02	-1.9876	-9.727479	0.000436	4.359035	1.476881	-0.000174
1056	1.0497e+02	-2.0294	-9.868778	0.000355	3.548052	1.202113	-0.000142
1057	1.0507e+02	-2.0663	-10.022189	0.000385	3.852171	1.305151	-0.000154
1058	1.0517e+02	-2.0983	-10.151378	0.000324	3.243933	1.099074	-0.000130
1059	1.0527e+02	-2.1513	-10.288640	0.000345	3.446679	1.167766	-0.000138
1060	1.0537e+02	-2.1802	-10.393606	0.000264	2.635696	0.892998	-0.000105
1061	1.0547e+02	-2.2235	-10.587388	0.000487	4.865900	1.648612	-0.000195
1062	1.0557e+02	-2.2684	-10.708503	0.000304	3.041187	1.030382	-0.000122
1063	1.0567e+02	-2.3069	-10.865951	0.000395	3.953544	1.339497	-0.000158
1064	1.0577e+02	-2.3470	-11.019362	0.000385	3.852171	1.305151	-0.000154
1065	1.0587e+02	-2.3919	-11.176810	0.000395	3.953544	1.339497	-0.000158
1066	1.0597e+02	-2.4304	-11.301961	0.000314	3.142560	1.064728	-0.000126
1067	1.0607e+02	-2.4609	-11.459410	0.000395	3.953544	1.339497	-0.000158
1068	1.0617e+02	-2.5058	-11.592635	0.000335	3.345306	1.133420	-0.000134
1069	1.0627e+02	-2.5507	-11.725861	0.000335	3.345306	1.133420	-0.000134
1070	1.0637e+02	-2.5844	-11.891383	0.000416	4.156290	1.408189	-0.000166
1071	1.0647e+02	-2.6165	-12.016535	0.000314	3.142560	1.064728	-0.000126
1072	1.0656e+02	-2.6743	-12.141686	0.000314	3.142560	1.064728	-0.000126
1073	1.0666e+02	-2.7031	-12.307208	0.000416	4.156290	1.408189	-0.000166
1074	1.0676e+02	-2.7432	-12.448508	0.000355	3.548052	1.202113	-0.000142
1075	1.0686e+02	-2.7930	-12.557511	0.000274	2.737069	0.927344	-0.000110
1076	1.0696e+02	-2.8234	-12.706885	0.000375	3.750798	1.270805	-0.000150
1077	1.0706e+02	-2.8587	-12.856259	0.000375	3.750798	1.270805	-0.000150
1078	1.0716e+02	-2.9069	-12.985447	0.000324	3.243933	1.099074	-0.000130
1079	1.0726e+02	-2.9470	-13.134821	0.000375	3.750798	1.270805	-0.000150
1080	1.0736e+02	-2.9919	-13.300344	0.000416	4.156290	1.408189	-0.000166
1081	1.0746e+02	-3.0240	-13.425495	0.000314	3.142560	1.064728	-0.000126
1082	1.0756e+02	-3.0561	-13.542572	0.000294	2.939815	0.996036	-0.000118
1083	1.0766e+02	-3.0978	-13.716169	0.000436	4.359035	1.476881	-0.000174
1084	1.0776e+02	-3.1459	-13.833246	0.000294	2.939815	0.996036	-0.000118
1085	1.0786e+02	-3.1876	-13.962434	0.000324	3.243933	1.099074	-0.000130
1086	1.0796e+02	-3.2181	-14.083548	0.000304	3.041187	1.030382	-0.000122
1087	1.0806e+02	-3.2646	-14.224848	0.000355	3.548052	1.202113	-0.000142
1088	1.0816e+02	-3.3063	-14.374222	0.000375	3.750798	1.270805	-0.000150
1089	1.0826e+02	-3.3432	-14.499373	0.000314	3.142560	1.064728	-0.000126
1090	1.0836e+02	-3.3801	-14.644710	0.000365	3.649425	1.236459	-0.000146
1091	1.0845e+02	-3.4202	-14.773898	0.000324	3.243933	1.099074	-0.000130
1092	1.0855e+02	-3.4635	-14.866752	0.000233	2.331577	0.789960	-0.000093
1093	1.0865e+02	-3.4940	-15.056498	0.000476	4.764527	1.614265	-0.000191
1094	1.0875e+02	-3.5421	-15.242206	0.000466	4.663154	1.579919	-0.000187
1095	1.0885e+02	-3.5839	-15.306800	0.000162	1.621967	0.549537	-0.000065
1096	1.0895e+02	-3.6336	-15.456174	0.000375	3.750798	1.270805	-0.000150
1097	1.0905e+02	-3.6609	-15.633808	0.000446	4.460408	1.511227	-0.000179
1098	1.0915e+02	-3.6962	-15.718588	0.000213	2.128831	0.721268	-0.000085
1099	1.0925e+02	-3.7379	-15.859888	0.000355	3.548052	1.202113	-0.000142
1100	1.0935e+02	-3.7812	-15.997150	0.000345	3.446679	1.167766	-0.000138
1101	1.0945e+02	-3.8149	-16.174784	0.000446	4.460408	1.511227	-0.000179
1102	1.0955e+02	-3.8486	-16.316084	0.000355	3.548052	1.202113	-0.000142
1103	1.0965e+02	-3.8951	-16.433161	0.000294	2.939815	0.996036	-0.000118
1104	1.0975e+02	-3.9464	-16.606758	0.000436	4.359035	1.476881	-0.000174
1105	1.0985e+02	-3.9769	-16.735946	0.000324	3.243933	1.099074	-0.000130
1106	1.0995e+02	-4.0122	-16.816689	0.000203	2.027458	0.686921	-0.000081
1107	1.1005e+02	-4.0635	-17.010471	0.000487	4.865900	1.648612	-0.000195
1108	1.1015e+02	-4.1020	-17.159845	0.000375	3.750798	1.270805	-0.000150
1109	1.1025e+02	-4.1469	-17.325368	0.000416	4.156290	1.408189	-0.000166
1110	1.1035e+02	-4.1806	-17.402074	0.000193	1.926085	0.652575	-0.000077
1111	1.1044e+02	-4.2159	-17.559522	0.000395	3.953544	1.339497	-0.000158
1112	1.1054e+02	-4.2689	-17.676599	0.000294	2.939815	0.996036	-0.000118
1113	1.1064e+02	-4.3009	-17.838084	0.000405	4.054917	1.373843	-0.000162
1114	1.1074e+02	-4.3427	-17.975347	0.000345	3.446679	1.167766	-0.000138
1115	1.1084e+02	-4.3763	-18.104535	0.000324	3.243933	1.099074	-0.000130
1116	1.1094e+02	-4.4213	-18.261984	0.000395	3.953544	1.339497	-0.000158
1117	1.1104e+02	-4.4566	-18.354838	0.000233	2.331577	0.789960	-0.000093
1118	1.1114e+02	-4.4967	-18.536509	0.000456	4.561781	1.545573	-0.000183
1119	1.1124e+02	-4.5287	-18.669734	0.000335	3.345306	1.133420	-0.000134
1120	1.1134e+02	-4.5801	-18.778737	0.000274	2.737069	0.927344	-0.000110
1121	1.1144e+02	-4.6106	-18.920037	0.000355	3.548052	1.202113	-0.000142
1122	1.1154e+02	-4.6619	-19.069411	0.000375	3.750798	1.270805	-0.000150
1123	1.1164e+02	-4.6940	-19.210710	0.000355	3.548052	1.202113	-0.000142
1124	1.1174e+02	-4.7437	-19.339899	0.000324	3.243933	1.099074	-0.000130
1125	1.1184e+02	-4.7678	-19.436790	0.000243	2.432950	0.824306	-0.000097
1126	1.1194e+02	-4.8159	-19.602313	0.000416	4.156290	1.408189	-0.000166
1127	1.1204e+02	-4.8592	-19.755724	0.000385	3.852171	1.305151	-0.000154
1128	1.1214e+02	-4.9041	-19.852615	0.000243	2.432950	0.824306	-0.000097
1129	1.1224e+02	-4.9362	-19.993915	0.000355	3.548052	1.202113	-0.000142
1130	1.1234e+02	-4.9731	-20.159437	0.000416	4.156290	1.408189	-0.000166
1131	1.1244e+02	-5.0132	-20.296700	0.000345	3.446679	1.167766	-0.000138
1132	1.1253e+02	-5.0517	-20.442037	0.000365	3.649425	1.236459	-0.000146
1133	1.1263e+02	-5.0934	-20.563151	0.000304	3.041187	1.030382	-0.000122
1134	1.1273e+02	-5.1368	-20.668116	0.000264	2.635696	0.892998	-0.000105
1135	1.1283e+02	-5.1753	-20.849788	0.000456	4.561781	1.545573	-0.000183
1136	1.1293e+02	-5.2170	-20.983013	0.000335	3.345306	1.133420	-0.000134
1137	1.1303e+02	-5.2555	-21.096053	0.000284	2.838442	0.961690	-0.000114
1138	1.1313e+02	-5.2956	-21.201018	0.000264	2.635696	0.892998	-0.000105
1139	1.1323e+02	-5.3421	-21.374615	0.000436	4.359035	1.476881	-0.000174
1140	1.1333e+02	-5.3710	-21.507841	0.000335	3.345306	1.133420	-0.000134
1141	1.1343e+02	-5.4175	-21.620880	0.000284	2.838442	0.961690	-0.000114
1142	1.1353e+02	-5.4576	-21.786403	0.000416	4.156290	1.408189	-0.000166
1143	1.1363e+02	-5.4929	-21.927703	0.000355	3.548052	1.202113	-0.000142
1144	1.1373e+02	-5.5298	-22.028631	0.000253	2.534323	0.858652	-0.000101
1145	1.1383e+02	-5.5763	-22.169931	0.000355	3.548052	1.202113	-0.000142
1146	1.1393e+02	-5.6132	-22.287008	0.000294	2.939815	0.996036	-0.000118
1147	1.1403e+02	-5.6613	-22.416196	0.000324	3.243933	1.099074	-0.000130
1148	1.1413e+02	-5.6886	-22.577682	0.000405	4.054917	1.373843	-0.000162
1149	1.1423e+02	-5.7271	-22.706870	0.000324	3.243933	1.099074	-0.000130
1150	1.1433e+02	-5.7784	-22.807798	0.000253	2.534323	0.858652	-0.000101
1151	1.1442e+02	-5.8202	-23.025804	0.000547	5.474137	1.854688	-0.000219
1152	1.1452e+02	-5.8394	-23.082324	0.000142	1.419221	0.480845	-0.000057
1153	1.1462e+02	-5.8988	-23.215549	0.000335	3.345306	1.133420	-0.000134
1154	1.1472e+02	-5.9325	-23.413369	0.000497	4.967273	1.682958	-0.000199
1155	1.1482e+02	-5.9726	-23.490074	0.000193	1.926085	0.652575	-0.000077
1156	1.1492e+02	-6.0127	-23.695968	0.000517	5.170019	1.751650	-0.000207
1157	1.1502e+02	-6.0560	-23.716154	0.000051	0.506865	0.171730	-0.000020
1158	1.1512e+02	-6.0929	-23.918011	0.000507	5.068646	1.717304	-0.000203
1159	1.1522e+02	-6.1250	-24.018939	0.000253	2.534323	0.858652	-0.000101
1160	1.1532e+02	-6.1779	-24.144090	0.000314	3.142560	1.064728	-0.000126
1161	1.1542e+02	-6.2132	-24.317687	0.000436	4.359035	1.476881	-0.000174
1162	1.1552e+02	-6.2581	-24.438801	0.000304	3.041187	1.030382	-0.000122
1163	1.1562e+02	-6.2886	-24.580101	0.000355	3.548052	1.202113	-0.000142
1164	1.1572e+02	-6.3319	-24.681029	0.000253	2.534323	0.858652	-0.000101
1165	1.1582e+02	-6.3768	-24.830403	0.000375	3.750798	1.270805	-0.000150
1166	1.1592e+02	-6.4105	-24.999963	0.000426	4.257662	1.442535	-0.000170
1167	1.1602e+02	-6.4474	-25.117040	0.000294	2.939815	0.996036	-0.000118
1168	1.1612e+02	-6.4875	-25.246228	0.000324	3.243933	1.099074	-0.000130
1169	1.1622e+02	-6.5292	-25.383491	0.000345	3.446679	1.167766	-0.000138
1170	1.1632e+02	-6.5613	-25.492494	0.000274	2.737069	0.927344	-0.000110
1171	1.1642e+02	-6.6078	-25.609571	0.000294	2.939815	0.996036	-0.000118
1172	1.1651e+02	-6.6463	-25.815464	0.000517	5.170019	1.751650	-0.000207
1173	1.1661e+02	-6.6961	-25.924467	0.000274	2.737069	0.927344	-0.000110
1174	1.1671e+02	-6.7249	-26.041544	0.000294	2.939815	0.996036	-0.000118
1175	1.1681e+02	-6.7602	-26.170732	0.000324	3.243933	1.099074	-0.000130
1176	1.1691e+02	-6.8052	-26.336255	0.000416	4.156290	1.408189	-0.000166
1177	1.1701e+02	-6.8469	-26.416998	0.000203	2.027458	0.686921	-0.000081
1178	1.1711e+02	-6.8838	-26.582520	0.000416	4.156290	1.408189	-0.000166
1179	1.1721e+02	-6.9271	-26.735931	0.000385	3.852171	1.305151	-0.000154
1180	1.1731e+02	-6.9592	-26.824748	0.000223	2.230204	0.755614	-0.000089
1181	1.1741e+02	-7.0057	-26.966048	0.000355	3.548052	1.202113	-0.000142
1182	1.1751e+02	-7.0442	-27.095237	0.000324	3.243933	1.099074	-0.000130
1183	1.1761e+02	-7.0827	-27.224425	0.000324	3.243933	1.099074	-0.000130
1184	1.1771e+02	-7.1276	-27.349576	0.000314	3.142560	1.064728	-0.000126
1185	1.1781e+02	-7.1661	-27.498950	0.000375	3.750798	1.270805	-0.000150
1186	1.1791e+02	-7.1982	-27.620064	0.000304	3.041187	1.030382	-0.000122
1187	1.1801e+02	-7.2383	-27.773475	0.000385	3.852171	1.305151	-0.000154
1188	1.1811e+02	-7.2848	-27.854218	0.000203	2.027458	0.686921	-0.000081
1189	1.1821e+02	-7.3265	-28.035889	0.000456	4.561781	1.545573	-0.000183
1190	1.1831e+02	-7.3731	-28.152966	0.000294	2.939815	0.996036	-0.000118
1191	1.1841e+02	-7.4035	-28.282154	0.000324	3.243933	1.099074	-0.000130
1192	1.1850e+02	-7.4452	-28.427491	0.000365	3.649425	1.236459	-0.000146
1193	1.1860e+02	-7.4982	-28.572828	0.000365	3.649425	1.236459	-0.000146
1194	1.1870e+02	-7.5303	-28.685868	0.000284	2.838442	0.961690	-0.000114
1195	1.1880e+02	-7.5575	-28.847353	0.000405	4.054917	1.373843	-0.000162
1196	1.1890e+02	-7.5944	-28.907910	0.000152	1.520594	0.515191	-0.000061
1197	1.1900e+02	-7.6442	-29.089582	0.000456	4.561781	1.545573	-0.000183
1198	1.1910e+02	-7.6795	-29.214733	0.000314	3.142560	1.064728	-0.000126
1199	1.1920e+02	-7.7212	-29.339884	0.000314	3.142560	1.064728	-0.000126
1200	1.1930e+02	-7.7645	-29.416590	0.000193	1.926085	0.652575	-0.000077
1201	1.1940e+02	-7.8030	-29.578075	0.000405	4.054917	1.373843	-0.000162
1202	1.1950e+02	-7.8383	-29.703226	0.000314	3.142560	1.064728	-0.000126
1203	1.1960e+02	-7.8784	-29.852600	0.000375	3.750798	1.270805	-0.000150
1204	1.1970e+02	-7.9217	-29.961603	0.000274	2.737069	0.927344	-0.000110
1205	1.1980e+02	-7.9714	-30.106940	0.000365	3.649425	1.236459	-0.000146
1206	1.1990e+02	-7.9971	-30.248240	0.000355	3.548052	1.202113	-0.000142
1207	1.2000e+02	-8.0484	-30.397614	0.000375	3.750798	1.270805	-0.000150
1208	1.2010e+02	-8.0773	-30.518728	0.000304	3.041187	1.030382	-0.000122
1209	1.2020e+02	-8.1222	-30.647916	0.000324	3.243933	1.099074	-0.000130
1210	1.2030e+02	-8.1688	-30.740770	0.000233	2.331577	0.789960	-0.000093
1211	1.2039e+02	-8.2024	-30.873996	0.000335	3.345306	1.133420	-0.000134
1212	1.2049e+02	-8.2490	-30.987035	0.000284	2.838442	0.961690	-0.000114
1213	1.2059e+02	-8.2827	-31.116224	0.000324	3.243933	1.099074	-0.000130
1214	1.2069e+02	-8.3179	-31.285783	0.000426	4.257662	1.442535	-0.000170
1215	1.2079e+02	-8.3629	-31.390749	0.000264	2.635696	0.892998	-0.000105
1216	1.2089e+02	-8.3998	-31.544160	0.000385	3.852171	1.305151	-0.000154
1217	1.2099e+02	-8.4367	-31.657200	0.000284	2.838442	0.961690	-0.000114
1218	1.2109e+02	-8.4848	-31.786388	0.000324	3.243933	1.099074	-0.000130
1219	1.2119e+02	-8.5249	-31.846945	0.000152	1.520594	0.515191	-0.000061
1220	1.2129e+02	-8.5682	-32.020542	0.000436	4.359035	1.476881	-0.000174
1221	1.2139e+02	-8.6003	-32.149730	0.000324	3.243933	1.099074	-0.000130
1222	1.2149e+02	-8.6404	-32.286993	0.000345	3.446679	1.167766	-0.000138
1223	1.2159e+02	-8.6853	-32.395996	0.000274	2.737069	0.927344	-0.000110
1224	1.2169e+02	-8.7222	-32.529221	0.000335	3.345306	1.133420	-0.000134
1225	1.2179e+02	-8.7527	-32.638224	0.000274	2.737069	0.927344	-0.000110
1226	1.2189e+02	-8.8024	-32.803746	0.000416	4.156290	1.408189	-0.000166
1227	1.2199e+02	-8.8393	-32.892563	0.000223	2.230204	0.755614	-0.000089
1228	1.2209e+02	-8.8762	-33.078272	0.000466	4.663154	1.579919	-0.000187
1229	1.2219e+02	-8.9243	-33.203423	0.000314	3.142560	1.064728	-0.000126
1230	1.2229e+02	-8.9516	-33.263980	0.000152	1.520594	0.515191	-0.000061
1231	1.2239e+02	-9.0030	-33.437577	0.000436	4.359035	1.476881	-0.000174
1232	1.2248e+02	-9.0350	-33.558691	0.000304	3.041187	1.030382	-0.000122
1233	1.2258e+02	-9.0800	-33.708065	0.000375	3.750798	1.270805	-0.000150
1234	1.2268e+02	-9.1040	-33.825142	0.000294	2.939815	0.996036	-0.000118
1235	1.2278e+02	-9.1554	-33.942219	0.000294	2.939815	0.996036	-0.000118
1236	1.2288e+02	-9.1939	-34.095630	0.000385	3.852171	1.305151	-0.000154
1237	1.2298e+02	-9.2356	-34.208670	0.000284	2.838442	0.961690	-0.000114
1238	1.2308e+02	-9.2805	-34.273264	0.000162	1.621967	0.549537	-0.000065
1239	1.2318e+02	-9.3174	-34.458972	0.000466	4.663154	1.579919	-0.000187
1240	1.2328e+02	-9.3607	-34.559900	0.000253	2.534323	0.858652	-0.000101
1241	1.2338e+02	-9.3944	-34.721386	0.000405	4.054917	1.373843	-0.000162
1242	1.2348e+02	-9.4409	-34.814240	0.000233	2.331577	0.789960	-0.000093
1243	1.2358e+02	-9.4858	-34.959577	0.000365	3.649425	1.236459	-0.000146
1244	1.2368e+02	-9.5179	-35.112988	0.000385	3.852171	1.305151	-0.000154
1245	1.2378e+02	-9.5580	-35.213916	0.000253	2.534323	0.858652	-0.000101
1246	1.2388e+02	-9.5949	-35.314845	0.000253	2.534323	0.858652	-0.000101
1247	1.2398e+02	-9.6366	-35.435959	0.000304	3.041187	1.030382	-0.000122
1248	1.2408e+02	-9.6687	-35.577259	0.000355	3.548052	1.202113	-0.000142
1249	1.2418e+02	-9.7088	-35.678187	0.000253	2.534323	0.858652	-0.000101
1250	1.2428e+02	-9.7505	-35.787190	0.000274	2.737069	0.927344	-0.000110
1251	1.2438e+02	-9.7954	-35.936564	0.000375	3.750798	1.270805	-0.000150
1252	1.2447e+02	-9.8339	-36.025381	0.000223	2.230204	0.755614	-0.000089
1253	1.2457e+02	-9.8724	-36.134383	0.000274	2.737069	0.927344	-0.000110
1254	1.2467e+02	-9.9093	-36.263572	0.000324	3.243933	1.099074	-0.000130
1255	1.2477e+02	-9.9575	-36.384686	0.000304	3.041187	1.030382	-0.000122
1256	1.2487e+02	-9.9928	-36.497726	0.000284	2.838442	0.961690	-0.000114
1257	1.2497e+02	-10.0249	-36.634988	0.000345	3.446679	1.167766	-0.000138
1258	1.2507e+02	-10.0746	-36.768214	0.000335	3.345306	1.133420	-0.000134
1259	1.2517e+02	-10.1291	-36.905476	0.000345	3.446679	1.167766	-0.000138
1260	1.2527e+02	-10.1580	-37.014479	0.000274	2.737069	0.927344	-0.000110
1261	1.2537e+02	-10.1917	-37.135593	0.000304	3.041187	1.030382	-0.000122
1262	1.2547e+02	-10.2334	-37.260744	0.000314	3.142560	1.064728	-0.000126
1263	1.2557e+02	-10.2703	-37.349561	0.000223	2.230204	0.755614	-0.000089
1264	1.2567e+02	-10.3136	-37.511047	0.000405	4.054917	1.373843	-0.000162
1265	1.2577e+02	-10.3537	-37.616012	0.000264	2.635696	0.892998	-0.000105
1266	1.2587e+02	-10.3890	-37.769423	0.000385	3.852171	1.305151	-0.000154
1267	1.2597e+02	-10.4355	-37.898612	0.000324	3.243933	1.099074	-0.000130
1268	1.2607e+02	-10.4724	-37.983392	0.000213	2.128831	0.721268	-0.000085
1269	1.2617e+02	-10.5109	-38.080283	0.000243	2.432950	0.824306	-0.000097
1270	1.2627e+02	-10.5462	-38.241768	0.000405	4.054917	1.373843	-0.000162
1271	1.2636e+02	-10.5895	-38.334622	0.000233	2.331577	0.789960	-0.000093
1272	1.2646e+02	-10.6345	-38.475922	0.000355	3.548052	1.202113	-0.000142
1273	1.2656e+02	-10.6714	-38.613185	0.000345	3.446679	1.167766	-0.000138
1274	1.2666e+02	-10.7050	-38.710076	0.000243	2.432950	0.824306	-0.000097
1275	1.2676e+02	-10.7676	-38.855413	0.000365	3.649425	1.236459	-0.000146
1276	1.2686e+02	-10.7901	-39.020935	0.000416	4.156290	1.408189	-0.000166
1277	1.2696e+02	-10.8286	-39.069381	0.000122	1.216475	0.412153	-0.000049
1278	1.2706e+02	-10.8671	-39.198569	0.000324	3.243933	1.099074	-0.000130
1279	1.2716e+02	-10.9088	-39.315646	0.000294	2.939815	0.996036	-0.000118
1280	1.2726e+02	-10.9585	-39.452909	0.000345	3.446679	1.167766	-0.000138
1281	1.2736e+02	-11.0002	-39.557875	0.000264	2.635696	0.892998	-0.000105
1282	1.2746e+02	-11.0323	-39.707249	0.000375	3.750798	1.270805	-0.000150
1283	1.2756e+02	-11.0660	-39.820288	0.000284	2.838442	0.961690	-0.000114
1284	1.2766e+02	-11.1125	-39.929291	0.000274	2.737069	0.927344	-0.000110
1285	1.2776e+02	-11.1510	-40.058479	0.000324	3.243933	1.099074	-0.000130
1286	1.2786e+02	-11.1895	-40.155371	0.000243	2.432950	0.824306	-0.000097
1287	1.2796e+02	-11.2312	-40.284559	0.000324	3.243933	1.099074	-0.000130
1288	1.2806e+02	-11.2649	-40.397599	0.000284	2.838442	0.961690	-0.000114
1289	1.2816e+02	-11.3147	-40.555047	0.000395	3.953544	1.339497	-0.000158
1290	1.2826e+02	-11.3499	-40.651938	0.000243	2.432950	0.824306	-0.000097
1291	1.2835e+02	-11.3820	-40.785164	0.000335	3.345306	1.133420	-0.000134
1292	1.2845e+02	-11.4237	-40.902241	0.000294	2.939815	0.996036	-0.000118
1293	1.2855e+02	-11.4751	-41.011243	0.000274	2.737069	0.927344	-0.000110
1294	1.2865e+02	-11.5136	-41.176766	0.000416	4.156290	1.408189	-0.000166
1295	1.2875e+02	-11.5505	-41.261546	0.000213	2.128831	0.721268	-0.000085
1296	1.2885e+02	-11.5826	-41.366511	0.000264	2.635696	0.892998	-0.000105
1297	1.2895e+02	-11.6227	-41.495700	0.000324	3.243933	1.099074	-0.000130
1298	1.2905e+02	-11.6724	-41.636999	0.000355	3.548052	1.202113	-0.000142
1299	1.2915e+02	-11.7061	-41.725816	0.000223	2.230204	0.755614	-0.000089
1300	1.2925e+02	-11.7462	-41.859042	0.000335	3.345306	1.133420	-0.000134
1301	1.2935e+02	-11.7863	-41.968045	0.000274	2.737069	0.927344	-0.000110
1302	1.2945e+02	-11.8280	-42.097233	0.000324	3.243933	1.099074	-0.000130
1303	1.2955e+02	-11.8649	-42.222384	0.000314	3.142560	1.064728	-0.000126
1304	1.2965e+02	-11.9050	-42.307164	0.000213	2.128831	0.721268	-0.000085
1305	1.2975e+02	-11.9547	-42.500946	0.000487	4.865900	1.648612	-0.000195
1306	1.2985e+02	-11.9868	-42.585726	0.000213	2.128831	0.721268	-0.000085
1307	1.2995e+02	-12.0253	-42.678580	0.000233	2.331577	0.789960	-0.000093
1308	1.3005e+02	-12.0606	-42.819880	0.000355	3.548052	1.202113	-0.000142
1309	1.3015e+02	-12.0991	-42.912734	0.000233	2.331577	0.789960	-0.000093
1310	1.3025e+02	-12.1553	-43.025774	0.000284	2.838442	0.961690	-0.000114
1311	1.3034e+02	-12.1890	-43.138814	0.000284	2.838442	0.961690	-0.000114
1312	1.3044e+02	-12.2226	-43.324522	0.000466	4.663154	1.579919	-0.000187
1313	1.3054e+02	-12.2660	-43.417376	0.000233	2.331577	0.789960	-0.000093
1314	1.3064e+02	-12.3061	-43.506193	0.000223	2.230204	0.755614	-0.000089
1315	1.3074e+02	-12.3494	-43.639419	0.000335	3.345306	1.133420	-0.000134
1316	1.3084e+02	-12.3847	-43.752459	0.000284	2.838442	0.961690	-0.000114
1317	1.3094e+02	-12.4264	-43.869535	0.000294	2.939815	0.996036	-0.000118
1318	1.3104e+02	-12.4729	-43.958352	0.000223	2.230204	0.755614	-0.000089
1319	1.3114e+02	-12.5130	-44.103689	0.000365	3.649425	1.236459	-0.000146
1320	1.3124e+02	-12.5355	-44.212692	0.000274	2.737069	0.927344	-0.000110
1321	1.3134e+02	-12.5804	-44.329769	0.000294	2.939815	0.996036	-0.000118
1322	1.3144e+02	-12.6205	-44.418586	0.000223	2.230204	0.755614	-0.000089
1323	1.3154e+02	-12.6638	-44.563923	0.000365	3.649425	1.236459	-0.000146
1324	1.3164e+02	-12.6975	-44.685037	0.000304	3.041187	1.030382	-0.000122
1325	1.3174e+02	-12.7456	-44.830374	0.000365	3.649425	1.236459	-0.000146
1326	1.3184e+02	-12.7809	-44.923228	0.000233	2.331577	0.789960	-0.000093
1327	1.3194e+02	-12.8274	-45.012045	0.000223	2.230204	0.755614	-0.000089
1328	1.3204e+02	-12.8611	-45.161419	0.000375	3.750798	1.270805	-0.000150
1329	1.3214e+02	-12.8964	-45.270422	0.000274	2.737069	0.927344	-0.000110
1330	1.3224e+02	-12.9430	-45.359239	0.000223	2.230204	0.755614	-0.000089
1331	1.3234e+02	-12.9766	-45.488427	0.000324	3.243933	1.099074	-0.000130
1332	1.3243e+02	-13.0183	-45.617615	0.000324	3.243933	1.099074	-0.000130
1333	1.3253e+02	-13.0601	-45.730655	0.000284	2.838442	0.961690	-0.000114
1334	1.3263e+02	-13.0986	-45.888103	0.000395	3.953544	1.339497	-0.000158
1335	1.3273e+02	-13.1419	-45.980957	0.000233	2.331577	0.789960	-0.000093
1336	1.3283e+02	-13.1659	-46.154554	0.000436	4.359035	1.476881	-0.000174
1337	1.3293e+02	-13.2237	-46.194926	0.000101	1.013729	0.343461	-0.000041
1338	1.3303e+02	-13.2622	-46.356411	0.000405	4.054917	1.373843	-0.000162
1339	1.3313e+02	-13.3103	-46.437154	0.000203	2.027458	0.686921	-0.000081
1340	1.3323e+02	-13.3456	-46.614788	0.000446	4.460408	1.511227	-0.000179
1341	1.3333e+02	-13.3793	-46.727828	0.000284	2.838442	0.961690	-0.000114
1342	1.3343e+02	-13.4194	-46.812607	0.000213	2.128831	0.721268	-0.000085
1343	1.3353e+02	-13.4579	-46.978130	0.000416	4.156290	1.408189	-0.000166
1344	1.3363e+02	-13.4948	-47.046761	0.000172	1.723340	0.583883	-0.000069
1345	1.3373e+02	-13.5397	-47.208247	0.000405	4.054917	1.373843	-0.000162
1346	1.3383e+02	-13.5750	-47.313212	0.000264	2.635696	0.892998	-0.000105
1347	1.3393e+02	-13.6231	-47.414141	0.000253	2.534323	0.858652	-0.000101
1348	1.3403e+02	-13.6665	-47.515069	0.000253	2.534323	0.858652	-0.000101
1349	1.3413e+02	-13.6889	-47.656369	0.000355	3.548052	1.202113	-0.000142
1350	1.3423e+02	-13.7419	-47.785557	0.000324	3.243933	1.099074	-0.000130
1351	1.3432e+02	-13.7852	-47.878411	0.000233	2.331577	0.789960	-0.000093
1352	1.3442e+02	-13.8060	-47.987414	0.000274	2.737069	0.927344	-0.000110
1353	1.3452e+02	-13.8590	-48.084305	0.000243	2.432950	0.824306	-0.000097
1354	1.3462e+02	-13.8894	-48.233679	0.000375	3.750798	1.270805	-0.000150
1355	1.3472e+02	-13.9440	-48.358830	0.000314	3.142560	1.064728	-0.000126
1356	1.3482e+02	-13.9777	-48.451685	0.000233	2.331577	0.789960	-0.000093
1357	1.3492e+02	-14.0130	-48.609133	0.000395	3.953544	1.339497	-0.000158
1358	1.3502e+02	-14.0595	-48.681801	0.000182	1.824712	0.618229	-0.000073
1359	1.3512e+02	-14.0964	-48.778693	0.000243	2.432950	0.824306	-0.000097
1360	1.3522e+02	-14.1381	-48.952289	0.000436	4.359035	1.476881	-0.000174
1361	1.3532e+02	-14.1750	-49.053218	0.000253	2.534323	0.858652	-0.000101
1362	1.3542e+02	-14.2167	-49.142035	0.000223	2.230204	0.755614	-0.000089
1363	1.3552e+02	-14.2584	-49.259112	0.000294	2.939815	0.996036	-0.000118
1364	1.3562e+02	-14.2969	-49.356003	0.000243	2.432950	0.824306	-0.000097
1365	1.3572e+02	-14.3450	-49.529600	0.000436	4.359035	1.476881	-0.000174
1366	1.3582e+02	-14.3707	-49.626491	0.000243	2.432950	0.824306	-0.000097
1367	1.3592e+02	-14.4237	-49.735494	0.000274	2.737069	0.927344	-0.000110
1368	1.3602e+02	-14.4638	-49.876793	0.000355	3.548052	1.202113	-0.000142
1369	1.3612e+02	-14.4991	-49.953499	0.000193	1.926085	0.652575	-0.000077
1370	1.3622e+02	-14.5295	-50.074613	0.000304	3.041187	1.030382	-0.000122
1371	1.3631e+02	-14.5745	-50.207839	0.000335	3.345306	1.133420	-0.000134
1372	1.3641e+02	-14.6194	-50.288581	0.000203	2.027458	0.686921	-0.000081
1373	1.3651e+02	-14.6595	-50.413733	0.000314	3.142560	1.064728	-0.000126
1374	1.3661e+02	-14.7092	-50.559069	0.000365	3.649425	1.236459	-0.000146
1375	1.3671e+02	-14.7349	-50.676146	0.000294	2.939815	0.996036	-0.000118
1376	1.3681e+02	-14.7766	-50.813409	0.000345	3.446679	1.167766	-0.000138
1377	1.3691e+02	-14.8151	-50.882040	0.000172	1.723340	0.583883	-0.000069
1378	1.3701e+02	-14.8648	-50.991043	0.000274	2.737069	0.927344	-0.000110
1379	1.3711e+02	-14.8937	-51.104083	0.000284	2.838442	0.961690	-0.000114
1380	1.3721e+02	-14.9290	-51.241345	0.000345	3.446679	1.167766	-0.000138
1381	1.3731e+02	-14.9707	-51.362459	0.000304	3.041187	1.030382	-0.000122
1382	1.3741e+02	-15.0108	-51.455314	0.000233	2.331577	0.789960	-0.000093
1383	1.3751e+02	-15.0557	-51.580465	0.000314	3.142560	1.064728	-0.000126
1384	1.3761e+02	-15.0862	-51.705616	0.000314	3.142560	1.064728	-0.000126
1385	1.3771e+02	-15.1391	-51.786359	0.000203	2.027458	0.686921	-0.000081
1386	1.3781e+02	-15.1776	-51.927658	0.000355	3.548052	1.202113	-0.000142
1387	1.3791e+02	-15.2097	-52.004364	0.000193	1.926085	0.652575	-0.000077
1388	1.3801e+02	-15.2546	-52.133552	0.000324	3.243933	1.099074	-0.000130
1389	1.3811e+02	-15.2851	-52.278889	0.000365	3.649425	1.236459	-0.000146
1390	1.3821e+02	-15.3317	-52.379818	0.000253	2.534323	0.858652	-0.000101
1391	1.3831e+02	-15.3718	-52.525155	0.000365	3.649425	1.236459	-0.000146
1392	1.3840e+02	-15.4119	-52.654343	0.000324	3.243933	1.099074	-0.000130
1393	1.3850e+02	-15.4552	-52.718937	0.000162	1.621967	0.549537	-0.000065
1394	1.3860e+02	-15.4937	-52.811791	0.000233	2.331577	0.789960	-0.000093
1395	1.3870e+02	-15.5354	-52.961165	0.000375	3.750798	1.270805	-0.000150
1396	1.3880e+02	-15.5691	-53.062094	0.000253	2.534323	0.858652	-0.000101
1397	1.3890e+02	-15.6156	-53.191282	0.000324	3.243933	1.099074	-0.000130
1398	1.3900e+02	-15.6477	-53.304322	0.000284	2.838442	0.961690	-0.000114
1399	1.3910e+02	-15.6878	-53.417362	0.000284	2.838442	0.961690	-0.000114
1400	1.3920e+02	-15.7359	-53.546550	0.000324	3.243933	1.099074	-0.000130
1401	1.3930e+02	-15.7728	-53.631330	0.000213	2.128831	0.721268	-0.000085
1402	1.3940e+02	-15.8065	-53.784741	0.000385	3.852171	1.305151	-0.000154
1403	1.3950e+02	-15.8450	-53.905855	0.000304	3.041187	1.030382	-0.000122
1404	1.3960e+02	-15.8931	-53.994672	0.000223	2.230204	0.755614	-0.000089
1405	1.3970e+02	-15.9413	-54.095600	0.000253	2.534323	0.858652	-0.000101
1406	1.3980e+02	-15.9605	-54.224789	0.000324	3.243933	1.099074	-0.000130
1407	1.3990e+02	-16.0118	-54.309569	0.000213	2.128831	0.721268	-0.000085
1408	1.4000e+02	-16.0487	-54.434720	0.000314	3.142560	1.064728	-0.000126
1409	1.4010e+02	-16.0985	-54.555834	0.000304	3.041187	1.030382	-0.000122
1410	1.4020e+02	-16.1370	-54.672911	0.000294	2.939815	0.996036	-0.000118
1411	1.4029e+02	-16.1659	-54.769802	0.000243	2.432950	0.824306	-0.000097
1412	1.4039e+02	-16.2124	-54.866693	0.000243	2.432950	0.824306	-0.000097
1413	1.4049e+02	-16.2525	-55.032216	0.000416	4.156290	1.408189	-0.000166
1414	1.4059e+02	-16.2862	-55.129107	0.000243	2.432950	0.824306	-0.000097
1415	1.4069e+02	-16.3311	-55.205813	0.000193	1.926085	0.652575	-0.000077
1416	1.4079e+02	-16.3712	-55.330964	0.000314	3.142560	1.064728	-0.000126
1417	1.4089e+02	-16.4049	-55.435929	0.000264	2.635696	0.892998	-0.000105
1418	1.4099e+02	-16.4418	-55.528784	0.000233	2.331577	0.789960	-0.000093
1419	1.4109e+02	-16.4883	-55.674120	0.000365	3.649425	1.236459	-0.000146
1420	1.4119e+02	-16.5316	-55.775049	0.000253	2.534323	0.858652	-0.000101
1421	1.4129e+02	-16.5685	-55.904237	0.000324	3.243933	1.099074	-0.000130
1422	1.4139e+02	-16.6038	-56.009203	0.000264	2.635696	0.892998	-0.000105
1423	1.4149e+02	-16.6439	-56.093983	0.000213	2.128831	0.721268	-0.000085
1424	1.4159e+02	-16.6936	-56.190874	0.000243	2.432950	0.824306	-0.000097
1425	1.4169e+02	-16.7257	-56.311988	0.000304	3.041187	1.030382	-0.000122
1426	1.4179e+02	-16.7674	-56.425028	0.000284	2.838442	0.961690	-0.000114
1427	1.4189e+02	-16.8172	-56.501733	0.000193	1.926085	0.652575	-0.000077
1428	1.4199e+02	-16.8493	-56.655144	0.000385	3.852171	1.305151	-0.000154
1429	1.4209e+02	-16.8862	-56.756073	0.000253	2.534323	0.858652	-0.000101
1430	1.4219e+02	-16.9327	-56.909484	0.000385	3.852171	1.305151	-0.000154
1431	1.4228e+02	-16.9680	-56.978115	0.000172	1.723340	0.583883	-0.000069
1432	1.4238e+02	-16.9952	-57.083081	0.000264	2.635696	0.892998	-0.000105
1433	1.4248e+02	-17.0450	-57.208232	0.000314	3.142560	1.064728	-0.000126
1434	1.4258e+02	-17.0803	-57.297049	0.000223	2.230204	0.755614	-0.000089
1435	1.4268e+02	-17.1316	-57.442386	0.000365	3.649425	1.236459	-0.000146
1436	1.4278e+02	-17.1701	-57.559463	0.000294	2.939815	0.996036	-0.000118
1437	1.4288e+02	-17.2118	-57.688651	0.000324	3.243933	1.099074	-0.000130
1438	1.4298e+02	-17.2375	-57.781505	0.000233	2.331577	0.789960	-0.000093
1439	1.4308e+02	-17.2856	-57.898582	0.000294	2.939815	0.996036	-0.000118
1440	1.4318e+02	-17.3305	-57.995473	0.000243	2.432950	0.824306	-0.000097
1441	1.4328e+02	-17.3722	-58.104476	0.000274	2.737069	0.927344	-0.000110
1442	1.4338e+02	-17.4059	-58.229627	0.000314	3.142560	1.064728	-0.000126
1443	1.4348e+02	-17.4460	-58.338630	0.000274	2.737069	0.927344	-0.000110
1444	1.4358e+02	-17.4781	-58.403224	0.000162	1.621967	0.549537	-0.000065
1445	1.4368e+02	-17.5343	-58.556635	0.000385	3.852171	1.305151	-0.000154
1446	1.4378e+02	-17.5680	-58.649489	0.000233	2.331577	0.789960	-0.000093
1447	1.4388e+02	-17.6049	-58.810975	0.000405	4.054917	1.373843	-0.000162
1448	1.4398e+02	-17.6514	-58.855383	0.000112	1.115102	0.377807	-0.000045
1449	1.4408e+02	-17.6802	-59.012832	0.000395	3.953544	1.339497	-0.000158
1450	1.4418e+02	-17.7188	-59.097612	0.000213	2.128831	0.721268	-0.000085
1451	1.4428e+02	-17.7605	-59.234874	0.000345	3.446679	1.167766	-0.000138
1452	1.4437e+02	-17.8038	-59.303505	0.000172	1.723340	0.583883	-0.000069
1453	1.4447e+02	-17.8567	-59.412508	0.000274	2.737069	0.927344	-0.000110
1454	1.4457e+02	-17.8856	-59.541696	0.000324	3.243933	1.099074	-0.000130
1455	1.4467e+02	-17.9145	-59.666848	0.000314	3.142560	1.064728	-0.000126
1456	1.4477e+02	-17.9626	-59.771813	0.000264	2.635696	0.892998	-0.000105
1457	1.4487e+02	-17.9995	-59.892927	0.000304	3.041187	1.030382	-0.000122
1458	1.4497e+02	-18.0380	-59.989818	0.000243	2.432950	0.824306	-0.000097
1459	1.4507e+02	-18.0797	-60.131118	0.000355	3.548052	1.202113	-0.000142
1460	1.4517e+02	-18.1198	-60.211861	0.000203	2.027458	0.686921	-0.000081
1461	1.4527e+02	-18.1744	-60.328938	0.000294	2.939815	0.996036	-0.000118
1462	1.4537e+02	-18.1984	-60.482349	0.000385	3.852171	1.305151	-0.000154
1463	1.4547e+02	-18.2369	-60.567129	0.000213	2.128831	0.721268	-0.000085
1464	1.4557e+02	-18.2834	-60.704392	0.000345	3.446679	1.167766	-0.000138
1465	1.4567e+02	-18.3171	-60.777060	0.000182	1.824712	0.618229	-0.000073
1466	1.4577e+02	-18.3669	-60.894137	0.000294	2.939815	0.996036	-0.000118
1467	1.4587e+02	-18.3989	-61.027362	0.000335	3.345306	1.133420	-0.000134
1468	1.4597e+02	-18.4455	-61.140402	0.000284	2.838442	0.961690	-0.000114
1469	1.4607e+02	-18.4727	-61.249405	0.000274	2.737069	0.927344	-0.000110
1470	1.4617e+02	-18.5112	-61.382630	0.000335	3.345306	1.133420	-0.000134
1471	1.4626e+02	-18.5578	-61.463373	0.000203	2.027458	0.686921	-0.000081
1472	1.4636e+02	-18.6027	-61.560264	0.000243	2.432950	0.824306	-0.000097
1473	1.4646e+02	-18.6396	-61.697527	0.000345	3.446679	1.167766	-0.000138
1474	1.4656e+02	-18.6941	-61.778270	0.000203	2.027458	0.686921	-0.000081
1475	1.4666e+02	-18.7198	-61.895347	0.000294	2.939815	0.996036	-0.000118
1476	1.4676e+02	-18.7583	-62.008386	0.000284	2.838442	0.961690	-0.000114
1477	1.4686e+02	-18.7968	-62.109315	0.000253	2.534323	0.858652	-0.000101
1478	1.4696e+02	-18.8417	-62.254652	0.000365	3.649425	1.236459	-0.000146
1479	1.4706e+02	-18.8786	-62.375766	0.000304	3.041187	1.030382	-0.000122
1480	1.4716e+02	-18.9219	-62.476694	0.000253	2.534323	0.858652	-0.000101
1481	1.4726e+02	-18.9540	-62.549363	0.000182	1.824712	0.618229	-0.000073
1482	1.4736e+02	-18.9989	-62.694699	0.000365	3.649425	1.236459	-0.000146
1483	1.4746e+02	-19.0422	-62.795628	0.000253	2.534323	0.858652	-0.000101
1484	1.4756e+02	-19.0840	-62.940965	0.000365	3.649425	1.236459	-0.000146
1485	1.4766e+02	-19.1176	-63.041893	0.000253	2.534323	0.858652	-0.000101
1486	1.4776e+02	-19.1594	-63.102450	0.000152	1.520594	0.515191	-0.000061
1487	1.4786e+02	-19.1898	-63.284121	0.000456	4.561781	1.545573	-0.000183
1488	1.4796e+02	-19.2364	-63.328530	0.000112	1.115102	0.377807	-0.000045
1489	1.4806e+02	-19.2733	-63.441570	0.000284	2.838442	0.961690	-0.000114
1490	1.4816e+02	-19.3182	-63.586906	0.000365	3.649425	1.236459	-0.000146
1491	1.4825e+02	-19.3551	-63.712058	0.000314	3.142560	1.064728	-0.000126
1492	1.4835e+02	-19.3904	-63.817023	0.000264	2.635696	0.892998	-0.000105
1493	1.4845e+02	-19.4353	-63.926026	0.000274	2.737069	0.927344	-0.000110
1494	1.4855e+02	-19.4690	-64.026954	0.000253	2.534323	0.858652	-0.000101
1495	1.4865e+02	-19.5155	-64.156143	0.000324	3.243933	1.099074	-0.000130
1496	1.4875e+02	-19.5540	-64.301479	0.000365	3.649425	1.236459	-0.000146
1497	1.4885e+02	-19.5909	-64.390296	0.000223	2.230204	0.755614	-0.000089
1498	1.4895e+02	-19.6310	-64.491225	0.000253	2.534323	0.858652	-0.000101
1499	1.4905e+02	-19.6743	-64.648673	0.000395	3.953544	1.339497	-0.000158
1500	1.4915e+02	-19.7080	-64.745564	0.000243	2.432950	0.824306	-0.000097
1501	1.4925e+02	-19.7545	-64.886864	0.000355	3.548052	1.202113	-0.000142
1502	1.4935e+02	-19.7930	-64.983755	0.000243	2.432950	0.824306	-0.000097
1503	1.4945e+02	-19.8428	-65.125055	0.000355	3.548052	1.202113	-0.000142
1504	1.4955e+02	-19.8716	-65.242132	0.000294	2.939815	0.996036	-0.000118
1505	1.4965e+02	-19.9021	-65.343060	0.000253	2.534323	0.858652	-0.000101
1506	1.4975e+02	-19.9518	-65.484360	0.000355	3.548052	1.202113	-0.000142
1507	1.4985e+02	-19.9952	-65.585289	0.000253	2.534323	0.858652	-0.000101
1508	1.4995e+02	-19.9583	-65.557029	0.000071	0.709610	0.240423	0.000028
1509	1.5005e+02	-19.9182	-65.476286	0.000203	2.027458	0.686921	0.000081
1510	1.5015e+02	-19.8668	-65.379395	0.000243	2.432950	0.824306	0.000097
1511	1.5025e+02	-19.8331	-65.310763	0.000172	1.723340	0.583883	0.000069
1512	1.5034e+02	-19.7962	-65.246169	0.000162	1.621967	0.549537	0.000065
1513	1.5044e+02	-19.7577	-65.149278	0.000243	2.432950	0.824306	0.000097
1514	1.5054e+02	-19.7176	-65.100832	0.000122	1.216475	0.412153	0.000049
1515	1.5064e+02	-19.6631	-65.016052	0.000213	2.128831	0.721268	0.000085
1516	1.5074e+02	-19.6310	-64.955495	0.000152	1.520594	0.515191	0.000061
1517	1.5084e+02	-19.5973	-64.870716	0.000213	2.128831	0.721268	0.000085
1518	1.5094e+02	-19.5588	-64.826307	0.000112	1.115102	0.377807	0.000045
1519	1.5104e+02	-19.5171	-64.721342	0.000264	2.635696	0.892998	0.000105
1520	1.5114e+02	-19.4690	-64.620413	0.000253	2.534323	0.858652	0.000101
1521	1.5124e+02	-19.4337	-64.563893	0.000142	1.419221	0.480845	0.000057
1522	1.5134e+02	-19.3952	-64.519485	0.000112	1.115102	0.377807	0.000045
1523	1.5144e+02	-19.3631	-64.398371	0.000304	3.041187	1.030382	0.000122
1524	1.5154e+02	-19.3102	-64.325702	0.000182	1.824712	0.618229	0.000073
1525	1.5164e+02	-19.2684	-64.313591	0.000030	0.304119	0.103038	0.000012
1526	1.5174e+02	-19.2348	-64.160180	0.000385	3.852171	1.305151	0.000154
1527	1.5184e+02	-19.2027	-64.107697	0.000132	1.317848	0.446499	0.000053
1528	1.5194e+02	-19.1626	-64.018880	0.000223	2.230204	0.755614	0.000089
1529	1.5204e+02	-19.1128	-63.954286	0.000162	1.621967	0.549537	0.000065
1530	1.5214e+02	-19.0823	-63.837209	0.000294	2.939815	0.996036	0.000118
1531	1.5224e+02	-19.0471	-63.756466	0.000203	2.027458	0.686921	0.000081
1532	1.5233e+02	-18.9973	-63.687835	0.000172	1.723340	0.583883	0.000069
1533	1.5243e+02	-18.9604	-63.590944	0.000243	2.432950	0.824306	0.000097
1534	1.5253e+02	-18.9043	-63.522312	0.000172	1.723340	0.583883	0.000069
1535	1.5263e+02	-18.8802	-63.405235	0.000294	2.939815	0.996036	0.000118
1536	1.5273e+02	-18.8321	-63.368901	0.000091	0.912356	0.309115	0.000037
1537	1.5283e+02	-18.8048	-63.251824	0.000294	2.939815	0.996036	0.000118
1538	1.5293e+02	-18.7615	-63.179156	0.000182	1.824712	0.618229	0.000073
1539	1.5303e+02	-18.7118	-63.058042	0.000304	3.041187	1.030382	0.000122
1540	1.5313e+02	-18.6861	-63.029782	0.000071	0.709610	0.240423	0.000028
1541	1.5323e+02	-18.6428	-62.920779	0.000274	2.737069	0.927344	0.000110
1542	1.5333e+02	-18.5947	-62.827925	0.000233	2.331577	0.789960	0.000093
1543	1.5343e+02	-18.5642	-62.747182	0.000203	2.027458	0.686921	0.000081
1544	1.5353e+02	-18.5193	-62.658365	0.000223	2.230204	0.755614	0.000089
1545	1.5363e+02	-18.4840	-62.561474	0.000243	2.432950	0.824306	0.000097
1546	1.5373e+02	-18.4391	-62.488806	0.000182	1.824712	0.618229	0.000073
1547	1.5383e+02	-18.3973	-62.383840	0.000264	2.635696	0.892998	0.000105
1548	1.5393e+02	-18.3604	-62.323283	0.000152	1.520594	0.515191	0.000061
1549	1.5403e+02	-18.3139	-62.198132	0.000314	3.142560	1.064728	0.000126
1550	1.5413e+02	-18.2770	-62.121426	0.000193	1.926085	0.652575	0.000077
1551	1.5422e+02	-18.2417	-62.020498	0.000253	2.534323	0.858652	0.000101
1552	1.5432e+02	-18.2032	-61.959941	0.000152	1.520594	0.515191	0.000061
1553	1.5442e+02	-18.1615	-61.806530	0.000385	3.852171	1.305151	0.000154
1554	1.5452e+02	-18.1198	-61.750010	0.000142	1.419221	0.480845	0.000057
1555	1.5462e+02	-18.0893	-61.713675	0.000091	0.912356	0.309115	0.000037
1556	1.5472e+02	-18.0380	-61.572376	0.000355	3.548052	1.202113	0.000142
1557	1.5482e+02	-17.9995	-61.499707	0.000182	1.824712	0.618229	0.000073
1558	1.5492e+02	-17.9626	-61.362445	0.000345	3.446679	1.167766	0.000138
1559	1.5502e+02	-17.9257	-61.285739	0.000193	1.926085	0.652575	0.000077
1560	1.5512e+02	-17.8824	-61.221145	0.000162	1.621967	0.549537	0.000065
1561	1.5522e+02	-17.8310	-61.124254	0.000243	2.432950	0.824306	0.000097
1562	1.5532e+02	-17.8022	-61.035437	0.000223	2.230204	0.755614	0.000089
1563	1.5542e+02	-17.7605	-60.938545	0.000243	2.432950	0.824306	0.000097
1564	1.5552e+02	-17.7236	-60.821468	0.000294	2.939815	0.996036	0.000118
1565	1.5562e+02	-17.6802	-60.768986	0.000132	1.317848	0.446499	0.000053
1566	1.5572e+02	-17.6385	-60.664020	0.000264	2.635696	0.892998	0.000105
1567	1.5582e+02	-17.6065	-60.583277	0.000203	2.027458	0.686921	0.000081
1568	1.5592e+02	-17.5615	-60.490423	0.000233	2.331577	0.789960	0.000093
1569	1.5602e+02	-17.5166	-60.373346	0.000294	2.939815	0.996036	0.000118
1570	1.5612e+02	-17.4845	-60.337012	0.000091	0.912356	0.309115	0.000037
1571	1.5622e+02	-17.4412	-60.228010	0.000274	2.737069	0.927344	0.000110
1572	1.5631e+02	-17.4107	-60.139193	0.000223	2.230204	0.755614	0.000089
1573	1.5641e+02	-17.3626	-60.022116	0.000294	2.939815	0.996036	0.000118
1574	1.5651e+02	-17.3289	-59.965596	0.000142	1.419221	0.480845	0.000057
1575	1.5661e+02	-17.2936	-59.828333	0.000345	3.446679	1.167766	0.000138
1576	1.5671e+02	-17.2471	-59.771813	0.000142	1.419221	0.480845	0.000057
1577	1.5681e+02	-17.2054	-59.614365	0.000395	3.953544	1.339497	0.000158
1578	1.5691e+02	-17.1605	-59.525548	0.000223	2.230204	0.755614	0.000089
1579	1.5701e+02	-17.1268	-59.473065	0.000132	1.317848	0.446499	0.000053
1580	1.5711e+02	-17.0851	-59.372137	0.000253	2.534323	0.858652	0.000101
1581	1.5721e+02	-17.0402	-59.275245	0.000243	2.432950	0.824306	0.000097
1582	1.5731e+02	-17.0017	-59.154131	0.000304	3.041187	1.030382	0.000122
1583	1.5741e+02	-16.9567	-59.053203	0.000253	2.534323	0.858652	0.000101
1584	1.5751e+02	-16.9166	-58.988609	0.000162	1.621967	0.549537	0.000065
1585	1.5761e+02	-16.8813	-58.855383	0.000335	3.345306	1.133420	0.000134
1586	1.5771e+02	-16.8444	-58.758492	0.000243	2.432950	0.824306	0.000097
1587	1.5781e+02	-16.8075	-58.714084	0.000112	1.115102	0.377807	0.000045
1588	1.5791e+02	-16.7626	-58.605081	0.000274	2.737069	0.927344	0.000110
1589	1.5801e+02	-16.7354	-58.500115	0.000264	2.635696	0.892998	0.000105
1590	1.5811e+02	-16.6969	-58.370927	0.000324	3.243933	1.099074	0.000130
1591	1.5821e+02	-16.6391	-58.282110	0.000223	2.230204	0.755614	0.000089
1592	1.5830e+02	-16.5990	-58.193293	0.000223	2.230204	0.755614	0.000089
1593	1.5840e+02	-16.5749	-58.056030	0.000345	3.446679	1.167766	0.000138
1594	1.5850e+02	-16.5300	-57.967213	0.000223	2.230204	0.755614	0.000089
1595	1.5860e+02	-16.4867	-57.898582	0.000172	1.723340	0.583883	0.000069
1596	1.5870e+02	-16.4546	-57.809765	0.000223	2.230204	0.755614	0.000089
1597	1.5880e+02	-16.4049	-57.712874	0.000243	2.432950	0.824306	0.000097
1598	1.5890e+02	-16.3792	-57.587723	0.000314	3.142560	1.064728	0.000126
1599	1.5900e+02	-16.3279	-57.490831	0.000243	2.432950	0.824306	0.000097
1600	1.5910e+02	-16.2942	-57.430274	0.000152	1.520594	0.515191	0.000061
1601	1.5920e+02	-16.2525	-57.264752	0.000416	4.156290	1.408189	0.000166
1602	1.5930e+02	-16.2011	-57.196121	0.000172	1.723340	0.583883	0.000069
1603	1.5940e+02	-16.1707	-57.095192	0.000253	2.534323	0.858652	0.000101
1604	1.5950e+02	-16.1209	-57.014449	0.000203	2.027458	0.686921	0.000081
1605	1.5960e+02	-16.0889	-56.929670	0.000213	2.128831	0.721268	0.000085
1606	1.5970e+02	-16.0471	-56.820667	0.000274	2.737069	0.927344	0.000110
1607	1.5980e+02	-16.0199	-56.707627	0.000284	2.838442	0.961690	0.000114
1608	1.5990e+02	-15.9605	-56.614773	0.000233	2.331577	0.789960	0.000093
1609	1.6000e+02	-15.9236	-56.538067	0.000193	1.926085	0.652575	0.000077
1610	1.6010e+02	-15.8883	-56.433102	0.000264	2.635696	0.892998	0.000105
1611	1.6019e+02	-15.8482	-56.267579	0.000416	4.156290	1.408189	0.000166
1612	1.6029e+02	-15.8193	-56.211059	0.000142	1.419221	0.480845	0.000057
1613	1.6039e+02	-15.7760	-56.134354	0.000193	1.926085	0.652575	0.000077
1614	1.6049e+02	-15.7295	-56.005166	0.000324	3.243933	1.099074	0.000130
1615	1.6059e+02	-15.6894	-55.940571	0.000162	1.621967	0.549537	0.000065
1616	1.6069e+02	-15.6445	-55.839643	0.000253	2.534323	0.858652	0.000101
1617	1.6079e+02	-15.6076	-55.686232	0.000385	3.852171	1.305151	0.000154
1618	1.6089e+02	-15.5723	-55.597415	0.000223	2.230204	0.755614	0.000089
1619	1.6099e+02	-15.5322	-55.561081	0.000091	0.912356	0.309115	0.000037
1620	1.6109e+02	-15.4857	-55.427855	0.000335	3.345306	1.133420	0.000134
1621	1.6119e+02	-15.4488	-55.298667	0.000324	3.243933	1.099074	0.000130
1622	1.6129e+02	-15.4054	-55.189664	0.000274	2.737069	0.927344	0.000110
1623	1.6139e+02	-15.3702	-55.112959	0.000193	1.926085	0.652575	0.000077
1624	1.6149e+02	-15.3381	-55.020104	0.000233	2.331577	0.789960	0.000093
1625	1.6159e+02	-15.2883	-54.866693	0.000385	3.852171	1.305151	0.000154
1626	1.6169e+02	-15.2434	-54.781913	0.000213	2.128831	0.721268	0.000085
1627	1.6179e+02	-15.2161	-54.697134	0.000213	2.128831	0.721268	0.000085
1628	1.6189e+02	-15.1696	-54.620428	0.000193	1.926085	0.652575	0.000077
1629	1.6199e+02	-15.1359	-54.535648	0.000213	2.128831	0.721268	0.000085
1630	1.6209e+02	-15.0942	-54.394348	0.000355	3.548052	1.202113	0.000142
1631	1.6219e+02	-15.0445	-54.305531	0.000223	2.230204	0.755614	0.000089
1632	1.6228e+02	-15.0092	-54.188454	0.000294	2.939815	0.996036	0.000118
1633	1.6238e+02	-14.9723	-54.039080	0.000375	3.750798	1.270805	0.000150
1634	1.6248e+02	-14.9306	-53.986598	0.000132	1.317848	0.446499	0.000053
1635	1.6258e+02	-14.8937	-53.881632	0.000264	2.635696	0.892998	0.000105
1636	1.6268e+02	-14.8584	-53.796852	0.000213	2.128831	0.721268	0.000085
1637	1.6278e+02	-14.8215	-53.708035	0.000223	2.230204	0.755614	0.000089
1638	1.6288e+02	-14.7670	-53.574810	0.000335	3.345306	1.133420	0.000134
1639	1.6298e+02	-14.7349	-53.502141	0.000182	1.824712	0.618229	0.000073
1640	1.6308e+02	-14.6948	-53.405250	0.000243	2.432950	0.824306	0.000097
1641	1.6318e+02	-14.6499	-53.272025	0.000335	3.345306	1.133420	0.000134
1642	1.6328e+02	-14.6162	-53.179171	0.000233	2.331577	0.789960	0.000093
1643	1.6338e+02	-14.5809	-53.013648	0.000416	4.156290	1.408189	0.000166
1644	1.6348e+02	-14.5392	-52.981351	0.000081	0.810983	0.274769	0.000032
1645	1.6358e+02	-14.4975	-52.860237	0.000304	3.041187	1.030382	0.000122
1646	1.6368e+02	-14.4622	-52.751234	0.000274	2.737069	0.927344	0.000110
1647	1.6378e+02	-14.4188	-52.634157	0.000294	2.939815	0.996036	0.000118
1648	1.6388e+02	-14.3675	-52.517080	0.000294	2.939815	0.996036	0.000118
1649	1.6398e+02	-14.3450	-52.448449	0.000172	1.723340	0.583883	0.000069
1650	1.6408e+02	-14.2969	-52.307149	0.000355	3.548052	1.202113	0.000142
1651	1.6418e+02	-14.2584	-52.202184	0.000264	2.635696	0.892998	0.000105
1652	1.6427e+02	-14.2183	-52.089144	0.000284	2.838442	0.961690	0.000114
1653	1.6437e+02	-14.1750	-51.976104	0.000284	2.838442	0.961690	0.000114
1654	1.6447e+02	-14.1381	-51.911510	0.000162	1.621967	0.549537	0.000065
1655	1.6457e+02	-14.0948	-51.822693	0.000223	2.230204	0.755614	0.000089
1656	1.6467e+02	-14.0611	-51.669282	0.000385	3.852171	1.305151	0.000154
1657	1.6477e+02	-14.0242	-51.564316	0.000264	2.635696	0.892998	0.000105
1658	1.6487e+02	-13.9809	-51.507796	0.000142	1.419221	0.480845	0.000057
1659	1.6497e+02	-13.9360	-51.370534	0.000345	3.446679	1.167766	0.000138
1660	1.6507e+02	-13.9039	-51.245382	0.000314	3.142560	1.064728	0.000126
1661	1.6517e+02	-13.8590	-51.152528	0.000233	2.331577	0.789960	0.000093
1662	1.6527e+02	-13.8140	-51.096008	0.000142	1.419221	0.480845	0.000057
1663	1.6537e+02	-13.7804	-50.954709	0.000355	3.548052	1.202113	0.000142
1664	1.6547e+02	-13.7290	-50.837632	0.000294	2.939815	0.996036	0.000118
1665	1.6557e+02	-13.7001	-50.781112	0.000142	1.419221	0.480845	0.000057
1666	1.6567e+02	-13.6616	-50.643849	0.000345	3.446679	1.167766	0.000138
1667	1.6577e+02	-13.6296	-50.514661	0.000324	3.243933	1.099074	0.000130
1668	1.6587e+02	-13.5718	-50.409695	0.000264	2.635696	0.892998	0.000105
1669	1.6597e+02	-13.5413	-50.328953	0.000203	2.027458	0.686921	0.000081
1670	1.6607e+02	-13.5012	-50.219950	0.000274	2.737069	0.927344	0.000110
1671	1.6616e+02	-13.4595	-50.131133	0.000223	2.230204	0.755614	0.000089
1672	1.6626e+02	-13.4194	-50.022130	0.000274	2.737069	0.927344	0.000110
1673	1.6636e+02	-13.3841	-49.925239	0.000243	2.432950	0.824306	0.000097
1674	1.6646e+02	-13.3376	-49.832385	0.000233	2.331577	0.789960	0.000093
1675	1.6656e+02	-13.2975	-49.707234	0.000314	3.142560	1.064728	0.000126
1676	1.6666e+02	-13.2638	-49.594194	0.000284	2.838442	0.961690	0.000114
1677	1.6676e+02	-13.2237	-49.509414	0.000213	2.128831	0.721268	0.000085
1678	1.6686e+02	-13.1772	-49.408486	0.000253	2.534323	0.858652	0.000101
1679	1.6696e+02	-13.1435	-49.299483	0.000274	2.737069	0.927344	0.000110
1680	1.6706e+02	-13.0905	-49.166258	0.000335	3.345306	1.133420	0.000134
1681	1.6716e+02	-13.0633	-49.097626	0.000172	1.723340	0.583883	0.000069
1682	1.6726e+02	-13.0216	-48.960364	0.000345	3.446679	1.167766	0.000138
1683	1.6736e+02	-12.9798	-48.847324	0.000284	2.838442	0.961690	0.000114
1684	1.6746e+02	-12.9542	-48.750433	0.000243	2.432950	0.824306	0.000097
1685	1.6756e+02	-12.9061	-48.609133	0.000355	3.548052	1.202113	0.000142
1686	1.6766e+02	-12.8708	-48.528390	0.000203	2.027458	0.686921	0.000081
1687	1.6776e+02	-12.8210	-48.443610	0.000213	2.128831	0.721268	0.000085
1688	1.6786e+02	-12.7873	-48.338645	0.000264	2.635696	0.892998	0.000105
1689	1.6796e+02	-12.7408	-48.233679	0.000264	2.635696	0.892998	0.000105
1690	1.6806e+02	-12.6975	-48.112565	0.000304	3.041187	1.030382	0.000122
1691	1.6816e+02	-12.6686	-47.995488	0.000294	2.939815	0.996036	0.000118
1692	1.6825e+02	-12.6301	-47.870337	0.000314	3.142560	1.064728	0.000126
1693	1.6835e+02	-12.5884	-47.769409	0.000253	2.534323	0.858652	0.000101
1694	1.6845e+02	-12.5403	-47.688666	0.000203	2.027458	0.686921	0.000081
1695	1.6855e+02	-12.4954	-47.567552	0.000304	3.041187	1.030382	0.000122
1696	1.6865e+02	-12.4665	-47.462586	0.000264	2.635696	0.892998	0.000105
1697	1.6875e+02	-12.4200	-47.349547	0.000284	2.838442	0.961690	0.000114
1698	1.6885e+02	-12.3831	-47.232470	0.000294	2.939815	0.996036	0.000118
1699	1.6895e+02	-12.3333	-47.171913	0.000152	1.520594	0.515191	0.000061
1700	1.6905e+02	-12.2997	-46.998316	0.000436	4.359035	1.476881	0.000174
1701	1.6915e+02	-12.2644	-46.933722	0.000162	1.621967	0.549537	0.000065
1702	1.6925e+02	-12.2178	-46.820682	0.000284	2.838442	0.961690	0.000114
1703	1.6935e+02	-12.1874	-46.667271	0.000385	3.852171	1.305151	0.000154
1704	1.6945e+02	-12.1473	-46.562305	0.000264	2.635696	0.892998	0.000105
1705	1.6955e+02	-12.0991	-46.497711	0.000162	1.621967	0.549537	0.000065
1706	1.6965e+02	-12.0751	-46.364485	0.000335	3.345306	1.133420	0.000134
1707	1.6975e+02	-12.0269	-46.255483	0.000274	2.737069	0.927344	0.000110
1708	1.6985e+02	-11.9868	-46.142443	0.000284	2.838442	0.961690	0.000114
1709	1.6995e+02	-11.9403	-46.053626	0.000223	2.230204	0.755614	0.000089
1710	1.7005e+02	-11.9034	-45.912326	0.000355	3.548052	1.202113	0.000142
1711	1.7015e+02	-11.8649	-45.811398	0.000253	2.534323	0.858652	0.000101
1712	1.7024e+02	-11.8248	-45.686247	0.000314	3.142560	1.064728	0.000126
1713	1.7034e+02	-11.7831	-45.589355	0.000243	2.432950	0.824306	0.000097
1714	1.7044e+02	-11.7382	-45.460167	0.000324	3.243933	1.099074	0.000130
1715	1.7054e+02	-11.7077	-45.371350	0.000223	2.230204	0.755614	0.000089
1716	1.7064e+02	-11.6628	-45.278496	0.000233	2.331577	0.789960	0.000093
1717	1.7074e+02	-11.6259	-45.133159	0.000365	3.649425	1.236459	0.000146
1718	1.7084e+02	-11.5794	-45.020119	0.000284	2.838442	0.961690	0.000114
1719	1.7094e+02	-11.5473	-44.894968	0.000314	3.142560	1.064728	0.000126
1720	1.7104e+02	-11.5088	-44.773854	0.000304	3.041187	1.030382	0.000122
1721	1.7114e+02	-11.4638	-44.660814	0.000284	2.838442	0.961690	0.000114
1722	1.7124e+02	-11.4270	-44.612368	0.000122	1.216475	0.412153	0.000049
1723	1.7134e+02	-11.3917	-44.479143	0.000335	3.345306	1.133420	0.000134
1724	1.7144e+02	-11.3499	-44.370140	0.000274	2.737069	0.927344	0.000110
1725	1.7154e+02	-11.3066	-44.257101	0.000284	2.838442	0.961690	0.000114
1726	1.7164e+02	-11.2665	-44.152135	0.000264	2.635696	0.892998	0.000105
1727	1.7174e+02	-11.2280	-44.035058	0.000294	2.939815	0.996036	0.000118
1728	1.7184e+02	-11.1895	-43.934130	0.000253	2.534323	0.858652	0.000101
1729	1.7194e+02	-11.1510	-43.796867	0.000345	3.446679	1.167766	0.000138
1730	1.7204e+02	-11.1093	-43.683827	0.000284	2.838442	0.961690	0.000114
1731	1.7213e+02	-11.0724	-43.586936	0.000243	2.432950	0.824306	0.000097
1732	1.7223e+02	-11.0403	-43.481970	0.000264	2.635696	0.892998	0.000105
1733	1.7233e+02	-10.9922	-43.360856	0.000304	3.041187	1.030382	0.000122
1734	1.7243e+02	-10.9553	-43.255891	0.000264	2.635696	0.892998	0.000105
1735	1.7253e+02	-10.9008	-43.114591	0.000355	3.548052	1.202113	0.000142
1736	1.7263e+02	-10.8719	-42.993477	0.000304	3.041187	1.030382	0.000122
1737	1.7273e+02	-10.8334	-42.880437	0.000284	2.838442	0.961690	0.000114
1738	1.7283e+02	-10.7949	-42.815843	0.000162	1.621967	0.549537	0.000065
1739	1.7293e+02	-10.7500	-42.678580	0.000345	3.446679	1.167766	0.000138
1740	1.7303e+02	-10.7147	-42.585726	0.000233	2.331577	0.789960	0.000093
1741	1.7313e+02	-10.6714	-42.488835	0.000243	2.432950	0.824306	0.000097
1742	1.7323e+02	-10.6393	-42.359647	0.000324	3.243933	1.099074	0.000130
1743	1.7333e+02	-10.5960	-42.226421	0.000335	3.345306	1.133420	0.000134
1744	1.7343e+02	-10.5575	-42.101270	0.000314	3.142560	1.064728	0.000126
1745	1.7353e+02	-10.5093	-41.959970	0.000355	3.548052	1.202113	0.000142
1746	1.7363e+02	-10.4740	-41.875190	0.000213	2.128831	0.721268	0.000085
1747	1.7373e+02	-10.4307	-41.737928	0.000345	3.446679	1.167766	0.000138
1748	1.7383e+02	-10.3874	-41.600665	0.000345	3.446679	1.167766	0.000138
1749	1.7393e+02	-10.3489	-41.532034	0.000172	1.723340	0.583883	0.000069
1750	1.7403e+02	-10.3120	-41.398808	0.000335	3.345306	1.133420	0.000134
1751	1.7413e+02	-10.2751	-41.289806	0.000274	2.737069	0.927344	0.000110
1752	1.7422e+02	-10.2366	-41.168692	0.000304	3.041187	1.030382	0.000122
1753	1.7432e+02	-10.1965	-41.047578	0.000304	3.041187	1.030382	0.000122
1754	1.7442e+02	-10.1596	-40.950686	0.000243	2.432950	0.824306	0.000097
1755	1.7452e+02	-10.1211	-40.805349	0.000365	3.649425	1.236459	0.000146
1756	1.7462e+02	-10.0762	-40.668087	0.000345	3.446679	1.167766	0.000138
1757	1.7472e+02	-10.0265	-40.522750	0.000365	3.649425	1.236459	0.000146
1758	1.7482e+02	-9.9960	-40.458156	0.000162	1.621967	0.549537	0.000065
1759	1.7492e+02	-9.9559	-40.333005	0.000314	3.142560	1.064728	0.000126
1760	1.7502e+02	-9.9174	-40.175556	0.000395	3.953544	1.339497	0.000158
1761	1.7512e+02	-9.8789	-40.082702	0.000233	2.331577	0.789960	0.000093
1762	1.7522e+02	-9.8372	-39.957551	0.000314	3.142560	1.064728	0.000126
1763	1.7532e+02	-9.8019	-39.860660	0.000243	2.432950	0.824306	0.000097
1764	1.7542e+02	-9.7553	-39.755694	0.000264	2.635696	0.892998	0.000105
1765	1.7552e+02	-9.7233	-39.622469	0.000335	3.345306	1.133420	0.000134
1766	1.7562e+02	-9.6783	-39.497317	0.000314	3.142560	1.064728	0.000126
1767	1.7572e+02	-9.6286	-39.412538	0.000213	2.128831	0.721268	0.000085
1768	1.7582e+02	-9.5869	-39.238941	0.000436	4.359035	1.476881	0.000174
1769	1.7592e+02	-9.5612	-39.162235	0.000193	1.926085	0.652575	0.000077
1770	1.7602e+02	-9.5179	-39.008824	0.000385	3.852171	1.305151	0.000154
1771	1.7612e+02	-9.4730	-38.883673	0.000314	3.142560	1.064728	0.000126
1772	1.7621e+02	-9.4345	-38.811004	0.000182	1.824712	0.618229	0.000073
1773	1.7631e+02	-9.3928	-38.710076	0.000253	2.534323	0.858652	0.000101
1774	1.7641e+02	-9.3511	-38.540516	0.000426	4.257662	1.442535	0.000170
1775	1.7651e+02	-9.3158	-38.423439	0.000294	2.939815	0.996036	0.000118
1776	1.7661e+02	-9.2805	-38.314437	0.000274	2.737069	0.927344	0.000110
1777	1.7671e+02	-9.2420	-38.229657	0.000213	2.128831	0.721268	0.000085
1778	1.7681e+02	-9.1874	-38.100469	0.000324	3.243933	1.099074	0.000130
1779	1.7691e+02	-9.1602	-37.959169	0.000355	3.548052	1.202113	0.000142
1780	1.7701e+02	-9.1169	-37.829980	0.000324	3.243933	1.099074	0.000130
1781	1.7711e+02	-9.0816	-37.737126	0.000233	2.331577	0.789960	0.000093
1782	1.7721e+02	-9.0334	-37.583715	0.000385	3.852171	1.305151	0.000154
1783	1.7731e+02	-8.9997	-37.482787	0.000253	2.534323	0.858652	0.000101
1784	1.7741e+02	-8.9596	-37.365710	0.000294	2.939815	0.996036	0.000118
1785	1.7751e+02	-8.9227	-37.224410	0.000355	3.548052	1.202113	0.000142
1786	1.7761e+02	-8.8826	-37.103296	0.000304	3.041187	1.030382	0.000122
1787	1.7771e+02	-8.8281	-36.957959	0.000365	3.649425	1.236459	0.000146
1788	1.7781e+02	-8.7960	-36.848956	0.000274	2.737069	0.927344	0.000110
1789	1.7791e+02	-8.7527	-36.756102	0.000233	2.331577	0.789960	0.000093
1790	1.7801e+02	-8.7190	-36.602691	0.000385	3.852171	1.305151	0.000154
1791	1.7810e+02	-8.6725	-36.525986	0.000193	1.926085	0.652575	0.000077
1792	1.7820e+02	-8.6468	-36.368537	0.000395	3.953544	1.339497	0.000158
1793	1.7830e+02	-8.5939	-36.243386	0.000314	3.142560	1.064728	0.000126
1794	1.7840e+02	-8.5634	-36.130346	0.000284	2.838442	0.961690	0.000114
1795	1.7850e+02	-8.5185	-35.997121	0.000335	3.345306	1.133420	0.000134
1796	1.7860e+02	-8.4784	-35.896192	0.000253	2.534323	0.858652	0.000101
1797	1.7870e+02	-8.4383	-35.754893	0.000355	3.548052	1.202113	0.000142
1798	1.7880e+02	-8.3982	-35.625704	0.000324	3.243933	1.099074	0.000130
1799	1.7890e+02	-8.3629	-35.528813	0.000243	2.432950	0.824306	0.000097
1800	1.7900e+02	-8.3228	-35.391550	0.000345	3.446679	1.167766	0.000138
1801	1.7910e+02	-8.2730	-35.298696	0.000233	2.331577	0.789960	0.000093
1802	1.7920e+02	-8.2474	-35.157397	0.000355	3.548052	1.202113	0.000142
1803	1.7930e+02	-8.1992	-35.060505	0.000243	2.432950	0.824306	0.000097
1804	1.7940e+02	-8.1623	-34.947466	0.000284	2.838442	0.961690	0.000114
1805	1.7950e+02	-8.1270	-34.769832	0.000446	4.460408	1.511227	0.000179
1806	1.7960e+02	-8.0837	-34.636606	0.000335	3.345306	1.133420	0.000134
1807	1.7970e+02	-8.0484	-34.535678	0.000253	2.534323	0.858652	0.000101
1808	1.7980e+02	-7.9971	-34.394378	0.000355	3.548052	1.202113	0.000142
1809	1.7990e+02	-7.9522	-34.309598	0.000213	2.128831	0.721268	0.000085
1810	1.8000e+02	-7.9169	-34.148113	0.000405	4.054917	1.373843	0.000162
1811	1.8009e+02	-7.8816	-34.047184	0.000253	2.534323	0.858652	0.000101
1812	1.8019e+02	-7.8319	-33.909922	0.000345	3.446679	1.167766	0.000138
1813	1.8029e+02	-7.7982	-33.792845	0.000294	2.939815	0.996036	0.000118
1814	1.8039e+02	-7.7629	-33.675768	0.000294	2.939815	0.996036	0.000118
1815	1.8049e+02	-7.7164	-33.538505	0.000345	3.446679	1.167766	0.000138
1816	1.8059e+02	-7.6843	-33.405280	0.000335	3.345306	1.133420	0.000134
1817	1.8069e+02	-7.6474	-33.276091	0.000324	3.243933	1.099074	0.000130
1818	1.8079e+02	-7.6073	-33.187274	0.000223	2.230204	0.755614	0.000089
1819	1.8089e+02	-7.5591	-33.050012	0.000345	3.446679	1.167766	0.000138
1820	1.8099e+02	-7.5190	-32.916786	0.000335	3.345306	1.133420	0.000134
1821	1.8109e+02	-7.4902	-32.787598	0.000324	3.243933	1.099074	0.000130
1822	1.8119e+02	-7.4420	-32.618038	0.000426	4.257662	1.442535	0.000170
1823	1.8129e+02	-7.3971	-32.533258	0.000213	2.128831	0.721268	0.000085
1824	1.8139e+02	-7.3634	-32.359662	0.000436	4.359035	1.476881	0.000174
1825	1.8149e+02	-7.3233	-32.295067	0.000162	1.621967	0.549537	0.000065
1826	1.8159e+02	-7.2944	-32.137619	0.000395	3.953544	1.339497	0.000158
1827	1.8169e+02	-7.2543	-32.024579	0.000284	2.838442	0.961690	0.000114
1828	1.8179e+02	-7.2046	-31.859057	0.000416	4.156290	1.408189	0.000166
1829	1.8189e+02	-7.1629	-31.790425	0.000172	1.723340	0.583883	0.000069
1830	1.8199e+02	-7.1260	-31.657200	0.000335	3.345306	1.133420	0.000134
1831	1.8209e+02	-7.0827	-31.519937	0.000345	3.446679	1.167766	0.000138
1832	1.8218e+02	-7.0442	-31.427083	0.000233	2.331577	0.789960	0.000093
1833	1.8228e+02	-7.0009	-31.269635	0.000395	3.953544	1.339497	0.000158
1834	1.8238e+02	-6.9640	-31.160632	0.000274	2.737069	0.927344	0.000110
1835	1.8248e+02	-6.9158	-31.047592	0.000284	2.838442	0.961690	0.000114
1836	1.8258e+02	-6.8838	-30.934553	0.000284	2.838442	0.961690	0.000114
1837	1.8268e+02	-6.8437	-30.769030	0.000416	4.156290	1.408189	0.000166
1838	1.8278e+02	-6.8068	-30.668102	0.000253	2.534323	0.858652	0.000101
1839	1.8288e+02	-6.7731	-30.546988	0.000304	3.041187	1.030382	0.000122
1840	1.8298e+02	-6.7233	-30.417799	0.000324	3.243933	1.099074	0.000130
1841	1.8308e+02	-6.6800	-30.292648	0.000314	3.142560	1.064728	0.000126
1842	1.8318e+02	-6.6447	-30.191720	0.000253	2.534323	0.858652	0.000101
1843	1.8328e+02	-6.5998	-30.062531	0.000324	3.243933	1.099074	0.000130
1844	1.8338e+02	-6.5677	-29.945454	0.000294	2.939815	0.996036	0.000118
1845	1.8348e+02	-6.5244	-29.767820	0.000446	4.460408	1.511227	0.000179
1846	1.8358e+02	-6.4827	-29.642669	0.000314	3.142560	1.064728	0.000126
1847	1.8368e+02	-6.4410	-29.525592	0.000294	2.939815	0.996036	0.000118
1848	1.8378e+02	-6.4153	-29.424664	0.000253	2.534323	0.858652	0.000101
1849	1.8388e+02	-6.3704	-29.291438	0.000335	3.345306	1.133420	0.000134
1850	1.8398e+02	-6.3271	-29.194547	0.000243	2.432950	0.824306	0.000097
1851	1.8407e+02	-6.2918	-29.037099	0.000395	3.953544	1.339497	0.000158
1852	1.8417e+02	-6.2597	-28.920022	0.000294	2.939815	0.996036	0.000118
1853	1.8427e+02	-6.2068	-28.790834	0.000324	3.243933	1.099074	0.000130
1854	1.8437e+02	-6.1747	-28.665682	0.000314	3.142560	1.064728	0.000126
1855	1.8447e+02	-6.1330	-28.516308	0.000375	3.750798	1.270805	0.000150
1856	1.8457e+02	-6.0865	-28.447677	0.000172	1.723340	0.583883	0.000069
1857	1.8467e+02	-6.0464	-28.302340	0.000365	3.649425	1.236459	0.000146
1858	1.8477e+02	-6.0079	-28.120669	0.000456	4.561781	1.545573	0.000183
1859	1.8487e+02	-5.9758	-28.031852	0.000223	2.230204	0.755614	0.000089
1860	1.8497e+02	-5.9308	-27.842107	0.000476	4.764527	1.614265	0.000191
1861	1.8507e+02	-5.8891	-27.769438	0.000182	1.824712	0.618229	0.000073
1862	1.8517e+02	-5.8474	-27.624101	0.000365	3.649425	1.236459	0.000146
1863	1.8527e+02	-5.8169	-27.494913	0.000324	3.243933	1.099074	0.000130
1864	1.8537e+02	-5.7720	-27.402059	0.000233	2.331577	0.789960	0.000093
1865	1.8547e+02	-5.7271	-27.252685	0.000375	3.750798	1.270805	0.000150
1866	1.8557e+02	-5.6934	-27.135608	0.000294	2.939815	0.996036	0.000118
1867	1.8567e+02	-5.6597	-27.026605	0.000274	2.737069	0.927344	0.000110
1868	1.8577e+02	-5.6212	-26.865120	0.000405	4.054917	1.373843	0.000162
1869	1.8587e+02	-5.5859	-26.739969	0.000314	3.142560	1.064728	0.000126
1870	1.8597e+02	-5.5378	-26.602706	0.000345	3.446679	1.167766	0.000138
1871	1.8606e+02	-5.4897	-26.493703	0.000274	2.737069	0.927344	0.000110
1872	1.8616e+02	-5.4544	-26.344329	0.000375	3.750798	1.270805	0.000150
1873	1.8626e+02	-5.4207	-26.211104	0.000335	3.345306	1.133420	0.000134
1874	1.8636e+02	-5.3726	-26.077878	0.000335	3.345306	1.133420	0.000134
1875	1.8646e+02	-5.3341	-25.948690	0.000324	3.243933	1.099074	0.000130
1876	1.8656e+02	-5.2859	-25.795279	0.000385	3.852171	1.305151	0.000154
1877	1.8666e+02	-5.2571	-25.678202	0.000294	2.939815	0.996036	0.000118
1878	1.8676e+02	-5.2234	-25.565162	0.000284	2.838442	0.961690	0.000114
1879	1.8686e+02	-5.1785	-25.383491	0.000456	4.561781	1.545573	0.000183
1880	1.8696e+02	-5.1351	-25.286600	0.000243	2.432950	0.824306	0.000097
1881	1.8706e+02	-5.0934	-25.141263	0.000365	3.649425	1.236459	0.000146
1882	1.8716e+02	-5.0501	-25.016112	0.000314	3.142560	1.064728	0.000126
1883	1.8726e+02	-5.0132	-24.874812	0.000355	3.548052	1.202113	0.000142
1884	1.8736e+02	-4.9779	-24.725438	0.000375	3.750798	1.270805	0.000150
1885	1.8746e+02	-4.9330	-24.612398	0.000284	2.838442	0.961690	0.000114
1886	1.8756e+02	-4.8977	-24.475135	0.000345	3.446679	1.167766	0.000138
1887	1.8766e+02	-4.8560	-24.354021	0.000304	3.041187	1.030382	0.000122
1888	1.8776e+02	-4.8255	-24.188499	0.000416	4.156290	1.408189	0.000166
1889	1.8786e+02	-4.7726	-24.091608	0.000243	2.432950	0.824306	0.000097
1890	1.8796e+02	-4.7373	-23.974531	0.000294	2.939815	0.996036	0.000118
1891	1.8806e+02	-4.6956	-23.821119	0.000385	3.852171	1.305151	0.000154
1892	1.8815e+02	-4.6635	-23.655597	0.000416	4.156290	1.408189	0.000166
1893	1.8825e+02	-4.6154	-23.570817	0.000213	2.128831	0.721268	0.000085
1894	1.8835e+02	-4.5753	-23.389146	0.000456	4.561781	1.545573	0.000183
1895	1.8845e+02	-4.5271	-23.288218	0.000253	2.534323	0.858652	0.000101
1896	1.8855e+02	-4.5031	-23.150955	0.000345	3.446679	1.167766	0.000138
1897	1.8865e+02	-4.4598	-22.989469	0.000405	4.054917	1.373843	0.000162
1898	1.8875e+02	-4.4165	-22.884504	0.000264	2.635696	0.892998	0.000105
1899	1.8885e+02	-4.3844	-22.735130	0.000375	3.750798	1.270805	0.000150
1900	1.8895e+02	-4.3443	-22.601904	0.000335	3.345306	1.133420	0.000134
1901	1.8905e+02	-4.3042	-22.513087	0.000223	2.230204	0.755614	0.000089
1902	1.8915e+02	-4.2560	-22.339491	0.000436	4.359035	1.476881	0.000174
1903	1.8925e+02	-4.2255	-22.230488	0.000274	2.737069	0.927344	0.000110
1904	1.8935e+02	-4.1822	-22.109374	0.000304	3.041187	1.030382	0.000122
1905	1.8945e+02	-4.1421	-21.955963	0.000385	3.852171	1.305151	0.000154
1906	1.8955e+02	-4.1020	-21.863109	0.000233	2.331577	0.789960	0.000093
1907	1.8965e+02	-4.0523	-21.693549	0.000426	4.257662	1.442535	0.000170
1908	1.8975e+02	-4.0282	-21.515915	0.000446	4.460408	1.511227	0.000179
1909	1.8985e+02	-3.9833	-21.414987	0.000253	2.534323	0.858652	0.000101
1910	1.8995e+02	-3.9384	-21.289835	0.000314	3.142560	1.064728	0.000126
1911	1.9004e+02	-3.8999	-21.144498	0.000365	3.649425	1.236459	0.000146
1912	1.9014e+02	-3.8534	-20.983013	0.000405	4.054917	1.373843	0.000162
1913	1.9024e+02	-3.8293	-20.857862	0.000314	3.142560	1.064728	0.000126
1914	1.9034e+02	-3.7796	-20.720599	0.000345	3.446679	1.167766	0.000138
1915	1.9044e+02	-3.7411	-20.583337	0.000345	3.446679	1.167766	0.000138
1916	1.9054e+02	-3.7010	-20.442037	0.000355	3.548052	1.202113	0.000142
1917	1.9064e+02	-3.6689	-20.292663	0.000375	3.750798	1.270805	0.000150
1918	1.9074e+02	-3.6272	-20.175586	0.000294	2.939815	0.996036	0.000118
1919	1.9084e+02	-3.5903	-20.038323	0.000345	3.446679	1.167766	0.000138
1920	1.9094e+02	-3.5405	-19.864726	0.000436	4.359035	1.476881	0.000174
1921	1.9104e+02	-3.5101	-19.739575	0.000314	3.142560	1.064728	0.000126
1922	1.9114e+02	-3.4651	-19.634610	0.000264	2.635696	0.892998	0.000105
1923	1.9124e+02	-3.4218	-19.477161	0.000395	3.953544	1.339497	0.000158
1924	1.9134e+02	-3.3737	-19.315676	0.000405	4.054917	1.373843	0.000162
1925	1.9144e+02	-3.3416	-19.166302	0.000375	3.750798	1.270805	0.000150
1926	1.9154e+02	-3.2983	-19.041151	0.000314	3.142560	1.064728	0.000126
1927	1.9164e+02	-3.2710	-18.924074	0.000294	2.939815	0.996036	0.000118
1928	1.9174e+02	-3.2181	-18.746440	0.000446	4.460408	1.511227	0.000179
1929	1.9184e+02	-3.1780	-18.613214	0.000335	3.345306	1.133420	0.000134
1930	1.9194e+02	-3.1443	-18.508249	0.000264	2.635696	0.892998	0.000105
1931	1.9203e+02	-3.0994	-18.350800	0.000395	3.953544	1.339497	0.000158
1932	1.9213e+02	-3.0641	-18.197389	0.000385	3.852171	1.305151	0.000154
1933	1.9223e+02	-3.0208	-18.056090	0.000355	3.548052	1.202113	0.000142
1934	1.9233e+02	-2.9871	-17.926901	0.000324	3.243933	1.099074	0.000130
1935	1.9243e+02	-2.9422	-17.773490	0.000385	3.852171	1.305151	0.000154
1936	1.9253e+02	-2.9053	-17.688710	0.000213	2.128831	0.721268	0.000085
1937	1.9263e+02	-2.8587	-17.523188	0.000416	4.156290	1.408189	0.000166
1938	1.9273e+02	-2.8186	-17.373814	0.000375	3.750798	1.270805	0.000150
1939	1.9283e+02	-2.7930	-17.240588	0.000335	3.345306	1.133420	0.000134
1940	1.9293e+02	-2.7448	-17.115437	0.000314	3.142560	1.064728	0.000126
1941	1.9303e+02	-2.7079	-16.949914	0.000416	4.156290	1.408189	0.000166
1942	1.9313e+02	-2.6710	-16.808615	0.000355	3.548052	1.202113	0.000142
1943	1.9323e+02	-2.6229	-16.651166	0.000395	3.953544	1.339497	0.000158
1944	1.9333e+02	-2.5876	-16.526015	0.000314	3.142560	1.064728	0.000126
1945	1.9343e+02	-2.5523	-16.417012	0.000274	2.737069	0.927344	0.000110
1946	1.9353e+02	-2.5074	-16.263601	0.000385	3.852171	1.305151	0.000154
1947	1.9363e+02	-2.4689	-16.069819	0.000487	4.865900	1.648612	0.000195
1948	1.9373e+02	-2.4240	-15.940630	0.000324	3.243933	1.099074	0.000130
1949	1.9383e+02	-2.3839	-15.851813	0.000223	2.230204	0.755614	0.000089
1950	1.9393e+02	-2.3470	-15.678217	0.000436	4.359035	1.476881	0.000174
1951	1.9403e+02	-2.3069	-15.512694	0.000416	4.156290	1.408189	0.000166
1952	1.9412e+02	-2.2668	-15.371394	0.000355	3.548052	1.202113	0.000142
1953	1.9422e+02	-2.2267	-15.282577	0.000223	2.230204	0.755614	0.000089
1954	1.9432e+02	-2.1882	-15.157426	0.000314	3.142560	1.064728	0.000126
1955	1.9442e+02	-2.1529	-14.999978	0.000395	3.953544	1.339497	0.000158
1956	1.9452e+02	-2.1064	-14.830418	0.000426	4.257662	1.442535	0.000170
1957	1.9462e+02	-2.0630	-14.677007	0.000385	3.852171	1.305151	0.000154
1958	1.9472e+02	-2.0278	-14.563967	0.000284	2.838442	0.961690	0.000114
1959	1.9482e+02	-1.9828	-14.414593	0.000375	3.750798	1.270805	0.000150
1960	1.9492e+02	-1.9443	-14.257145	0.000395	3.953544	1.339497	0.000158
1961	1.9502e+02	-1.9090	-14.099697	0.000395	3.953544	1.339497	0.000158
1962	1.9512e+02	-1.8705	-13.962434	0.000345	3.446679	1.167766	0.000138
1963	1.9522e+02	-1.8368	-13.841320	0.000304	3.041187	1.030382	0.000122
1964	1.9532e+02	-1.7903	-13.695983	0.000365	3.649425	1.236459	0.000146
1965	1.9542e+02	-1.7438	-13.558720	0.000345	3.446679	1.167766	0.000138
1966	1.9552e+02	-1.7165	-13.421458	0.000345	3.446679	1.167766	0.000138
1967	1.9562e+02	-1.6716	-13.231712	0.000476	4.764527	1.614265	0.000191
1968	1.9572e+02	-1.6283	-13.122710	0.000274	2.737069	0.927344	0.000110
1969	1.9582e+02	-1.6026	-12.961224	0.000405	4.054917	1.373843	0.000162
1970	1.9592e+02	-1.5545	-12.827999	0.000335	3.345306	1.133420	0.000134
1971	1.9601e+02	-1.5080	-12.670551	0.000395	3.953544	1.339497	0.000158
1972	1.9611e+02	-1.4743	-12.553474	0.000294	2.939815	0.996036	0.000118
1973	1.9621e+02	-1.4422	-12.367765	0.000466	4.663154	1.579919	0.000187
1974	1.9631e+02	-1.3941	-12.270874	0.000243	2.432950	0.824306	0.000097
1975	1.9641e+02	-1.3492	-12.105352	0.000416	4.156290	1.408189	0.000166
1976	1.9651e+02	-1.3155	-11.980200	0.000314	3.142560	1.064728	0.000126
1977	1.9661e+02	-1.2706	-11.814678	0.000416	4.156290	1.408189	0.000166
1978	1.9671e+02	-1.2353	-11.673378	0.000355	3.548052	1.202113	0.000142
1979	1.9681e+02	-1.1952	-11.536115	0.000345	3.446679	1.167766	0.000138
1980	1.9691e+02	-1.1567	-11.362519	0.000436	4.359035	1.476881	0.000174
1981	1.9701e+02	-1.1149	-11.253516	0.000274	2.737069	0.927344	0.000110
1982	1.9711e+02	-1.0700	-11.100105	0.000385	3.852171	1.305151	0.000154
1983	1.9721e+02	-1.0331	-10.938619	0.000405	4.054917	1.373843	0.000162
1984	1.9731e+02	-0.9914	-10.805394	0.000335	3.345306	1.133420	0.000134
1985	1.9741e+02	-0.9625	-10.672168	0.000335	3.345306	1.133420	0.000134
1986	1.9751e+02	-0.9160	-10.478386	0.000487	4.865900	1.648612	0.000195
1987	1.9761e+02	-0.8679	-10.357272	0.000304	3.041187	1.030382	0.000122
1988	1.9771e+02	-0.8374	-10.228083	0.000324	3.243933	1.099074	0.000130
1989	1.9781e+02	-0.7861	-10.074672	0.000385	3.852171	1.305151	0.000154
1990	1.9791e+02	-0.7444	-9.917224	0.000395	3.953544	1.339497	0.000158
1991	1.9800e+02	-0.7059	-9.755739	0.000405	4.054917	1.373843	0.000162
1992	1.9810e+02	-0.6690	-9.610402	0.000365	3.649425	1.236459	0.000146
1993	1.9820e+02	-0.6353	-9.461028	0.000375	3.750798	1.270805	0.000150
1994	1.9830e+02	-0.5871	-9.339914	0.000304	3.041187	1.030382	0.000122
1995	1.9840e+02	-0.5519	-9.186502	0.000385	3.852171	1.305151	0.000154
1996	1.9850e+02	-0.5166	-9.065388	0.000304	3.041187	1.030382	0.000122
1997	1.9860e+02	-0.4636	-8.911977	0.000385	3.852171	1.305151	0.000154
1998	1.9870e+02	-0.4283	-8.762603	0.000375	3.750798	1.270805	0.000150
1999	1.9880e+02	-0.3914	-8.633415	0.000324	3.243933	1.099074	0.000130
2000	1.9890e+02	-0.3561	-8.480004	0.000385	3.852171	1.305151	0.000154
2001	1.9900e+02	-0.3160	-8.342741	0.000345	3.446679	1.167766	0.000138
2002	1.9910e+02	-0.2711	-8.205478	0.000345	3.446679	1.167766	0.000138
2003	1.9920e+02	-0.2310	-8.060142	0.000365	3.649425	1.236459	0.000146
2004	1.9930e+02	-0.1957	-7.934990	0.000314	3.142560	1.064728	0.000126
2005	1.9940e+02	-0.1572	-7.805802	0.000324	3.243933	1.099074	0.000130
2006	1.9950e+02	-0.1267	-7.648354	0.000395	3.953544	1.339497	0.000158
2007	1.9960e+02	-0.0770	-7.498980	0.000375	3.750798	1.270805	0.000150
2008	1.9970e+02	-0.0321	-7.337494	0.000405	4.054917	1.373843	0.000162
2009	1.9980e+02	0.0080	-7.180046	0.000405	4.054917	1.373843	0.000158

PMax (uC/cm2):	7.16e+01
Pr (uC/cm2):	3.50e+00
-Pr (uC/cm2):	-1.21e+00
PLoss (uC/cm2):	-1.18e+00
-Vc:	-9.57e-01
C (Max-Eff) (nF):	3.58e-01
K (Eff):	1.21e+03
Vert. (+/-Pr) Shift (uC/cm2):	1.15e+00
Offset (uC/cm2):	5.97e+00

A (Loop Area - uC/cm2·Volts):	1.70e-02



Hysteresis Version: 5.48.1 - Radiant Technologies, Inc., 1999 - 9/12/24

