»»»»»»»»»»»»»»»»»»»»»»»»»»»»»»»»»»»» Hysteresis ««««««««««««««««««««««««««««««««««««
»»»  Executed Version:	5.48.1
»»»  Vision Version:	5.48.4 (R)
»»»  Vision Compiled:	9/18/24
»»»  Driver Version:	5.47.0
»»»  Windows Version:	Windows 8 or 8.1
»»»  Processor Information:	x86 (AMD or Intel) - 32 Processors
»»»  Tester Name:	PMF21124-494 (100V)
»»»  Tester S/N:	PMF21124-494
»»»  Internal Amp Type:	100V RevK 270k
»»»  Internal Amp S/N:	iAB2-596/K     
»»»  Execution Count:	1
»»»»»»»»»»»»»»»»»»»»»»»»»»»»»»»»»»»»»»»»»»««««««««««««««««««««««««««««««««««««««««««

Stored:	6/19/2025 - 18:55:26
Configured:	06/19/25 10:04:32 AM
Executed:	06/19/25 06:54:30 PM

»»»»»»»»»»»»»»»»»»»»»»»»»»»»»»»»»»» Sample Info ««««««««««««««««««««««««««««««««««««
Sample Name:	
Lot Name:	
Wafer Name:	
Die Row/Column:	0/0
Capacitor Number:	0
Sample Area (cm2):	1.00e-04
Sample Thickness (microns):	3.00e-01

Amplifier:	Internal

»»»»»»»»»»»»»»»»»»»»»»»»»»»»»»»»»»» Tester Info «««««««««««««««««««««««««««««««««««
Tester Name:	PMF21124-494 (100V)
Tester Serial Number:	PMF21124-494
Return Signal Amp. Level:	0.19 [Index: 3]

»»»»»»»»»»»»»»»»»»»»»»»»»»»»»»»» Hysteresis Info ««««««««««««««««««««««««««««««««««
Task Name:	Hyst-1168
Volts:	20.00
Field:	666.67 (kV/cm)
DCBias:	0.00
DCField:	0.00 (kV/cm)
Hysteresis Period (ms):	2.00e+02
Preset:	Enabled
Preset Delay (ms):	1.00e+03
Profile:	Standard Bipolar

»»»»»»»»»»»»»»»»»»»»»»»»»»»»»»»»»»»»»» Data «««««««««««««««««««««««««««««««««««««««
Points:	2009

Valid Data

Point	Time (ms)	Drive Voltage	Measured Polarization (uC/cm2)	Capacitance (uF)	Normalized Capacitance (uF/cm2)	Dielectric Constant	Instantaneous Current (mA)
   1	0.0000e+00	0.0128	-4.366162	0.000294	2.939461	0.995916	0.000118
   2	9.9500e-02	0.0321	-4.249085	0.000294	2.939461	0.995916	0.000118
   3	1.9900e-01	0.0722	-4.119897	0.000324	3.243543	1.098942	0.000130
   4	2.9850e-01	0.1203	-4.018969	0.000253	2.534018	0.858548	0.000101
   5	3.9800e-01	0.1476	-3.873632	0.000365	3.648986	1.236310	0.000146
   6	4.9750e-01	0.1989	-3.756555	0.000294	2.939461	0.995916	0.000118
   7	5.9700e-01	0.2471	-3.627366	0.000324	3.243543	1.098942	0.000130
   8	6.9650e-01	0.2663	-3.477992	0.000375	3.750346	1.270652	0.000150
   9	7.9600e-01	0.3225	-3.328618	0.000375	3.750346	1.270652	0.000150
  10	8.9550e-01	0.3529	-3.199430	0.000324	3.243543	1.098942	0.000130
  11	9.9500e-01	0.3914	-3.074279	0.000314	3.142182	1.064600	0.000126
  12	1.0945e+00	0.4380	-2.937016	0.000345	3.446264	1.167626	0.000138
  13	1.1940e+00	0.4700	-2.807828	0.000324	3.243543	1.098942	0.000130
  14	1.2935e+00	0.5166	-2.678640	0.000324	3.243543	1.098942	0.000130
  15	1.3930e+00	0.5454	-2.565600	0.000284	2.838100	0.961574	0.000114
  16	1.4925e+00	0.5952	-2.428337	0.000345	3.446264	1.167626	0.000138
  17	1.5920e+00	0.6257	-2.339520	0.000223	2.229936	0.755523	0.000089
  18	1.6915e+00	0.6770	-2.141701	0.000497	4.966675	1.682755	0.000199
  19	1.7910e+00	0.7107	-1.980215	0.000405	4.054429	1.373678	0.000162
  20	1.8905e+00	0.7524	-1.907547	0.000182	1.824493	0.618155	0.000073
  21	1.9900e+00	0.7909	-1.750098	0.000395	3.953068	1.339336	0.000158
  22	2.0895e+00	0.8310	-1.576502	0.000436	4.358511	1.476703	0.000174
  23	2.1890e+00	0.8695	-1.479610	0.000243	2.432657	0.824207	0.000097
  24	2.2885e+00	0.9096	-1.318125	0.000405	4.054429	1.373678	0.000162
  25	2.3880e+00	0.9561	-1.209122	0.000274	2.736739	0.927232	0.000110
  26	2.4875e+00	0.9978	-1.075897	0.000334	3.344904	1.133284	0.000134
  27	2.5870e+00	1.0235	-0.934597	0.000355	3.547625	1.201968	0.000142
  28	2.6865e+00	1.0620	-0.777149	0.000395	3.953068	1.339336	0.000158
  29	2.7860e+00	1.1085	-0.607589	0.000426	4.257150	1.442361	0.000170
  30	2.8855e+00	1.1502	-0.506661	0.000253	2.534018	0.858548	0.000101
  31	2.9850e+00	1.1952	-0.320952	0.000466	4.662593	1.579729	0.000187
  32	3.0845e+00	1.2288	-0.228098	0.000233	2.331296	0.789865	0.000093
  33	3.1840e+00	1.2673	-0.086798	0.000355	3.547625	1.201968	0.000142
  34	3.2835e+00	1.3155	0.074687	0.000405	4.054429	1.373678	0.000162
  35	3.3830e+00	1.3443	0.224061	0.000375	3.750346	1.270652	0.000150
  36	3.4825e+00	1.3877	0.377472	0.000385	3.851707	1.304994	0.000154
  37	3.5820e+00	1.4294	0.498586	0.000304	3.040821	1.030258	0.000122
  38	3.6815e+00	1.4727	0.627775	0.000324	3.243543	1.098942	0.000130
  39	3.7810e+00	1.5112	0.765037	0.000345	3.446264	1.167626	0.000138
  40	3.8805e+00	1.5577	0.922486	0.000395	3.953068	1.339336	0.000158
  41	3.9800e+00	1.5882	1.079934	0.000395	3.953068	1.339336	0.000158
  42	4.0795e+00	1.6283	1.188936	0.000274	2.736739	0.927232	0.000110
  43	4.1790e+00	1.6748	1.342348	0.000385	3.851707	1.304994	0.000154
  44	4.2785e+00	1.7037	1.479610	0.000345	3.446264	1.167626	0.000138
  45	4.3780e+00	1.7534	1.649170	0.000426	4.257150	1.442361	0.000170
  46	4.4775e+00	1.7919	1.766247	0.000294	2.939461	0.995916	0.000118
  47	4.5770e+00	1.8304	1.911584	0.000365	3.648986	1.236310	0.000146
  48	4.6765e+00	1.8705	2.073069	0.000405	4.054429	1.373678	0.000162
  49	4.7760e+00	1.9106	2.242629	0.000426	4.257150	1.442361	0.000170
  50	4.8755e+00	1.9507	2.347594	0.000264	2.635379	0.892890	0.000105
  51	4.9750e+00	1.9957	2.501006	0.000385	3.851707	1.304994	0.000154
  52	5.0745e+00	2.0326	2.634231	0.000334	3.344904	1.133284	0.000134
  53	5.1740e+00	2.0679	2.799754	0.000416	4.155789	1.408020	0.000166
  54	5.2735e+00	2.1080	2.912793	0.000284	2.838100	0.961574	0.000114
  55	5.3730e+00	2.1529	3.078316	0.000416	4.155789	1.408020	0.000166
  56	5.4725e+00	2.1834	3.219616	0.000355	3.547625	1.201968	0.000142
  57	5.5720e+00	2.2235	3.348804	0.000324	3.243543	1.098942	0.000130
  58	5.6715e+00	2.2748	3.506252	0.000395	3.953068	1.339336	0.000158
  59	5.7710e+00	2.3101	3.671775	0.000416	4.155789	1.408020	0.000166
  60	5.8705e+00	2.3582	3.784815	0.000284	2.838100	0.961574	0.000114
  61	5.9700e+00	2.3903	3.950337	0.000416	4.155789	1.408020	0.000166
  62	6.0695e+00	2.4336	4.091637	0.000355	3.547625	1.201968	0.000142
  63	6.1690e+00	2.4641	4.220825	0.000324	3.243543	1.098942	0.000130
  64	6.2685e+00	2.5106	4.394422	0.000436	4.358511	1.476703	0.000174
  65	6.3680e+00	2.5443	4.507462	0.000284	2.838100	0.961574	0.000114
  66	6.4675e+00	2.5844	4.668947	0.000405	4.054429	1.373678	0.000162
  67	6.5670e+00	2.6229	4.802173	0.000334	3.344904	1.133284	0.000134
  68	6.6665e+00	2.6694	4.931361	0.000324	3.243543	1.098942	0.000130
  69	6.7660e+00	2.7112	5.113032	0.000456	4.561232	1.545387	0.000183
  70	6.8655e+00	2.7497	5.274518	0.000405	4.054429	1.373678	0.000162
  71	6.9650e+00	2.7946	5.444078	0.000426	4.257150	1.442361	0.000170
  72	7.0645e+00	2.8154	5.549043	0.000264	2.635379	0.892890	0.000105
  73	7.1640e+00	2.8684	5.658046	0.000274	2.736739	0.927232	0.000110
  74	7.2635e+00	2.9101	5.859903	0.000507	5.068036	1.717097	0.000203
  75	7.3630e+00	2.9470	5.993128	0.000334	3.344904	1.133284	0.000134
  76	7.4625e+00	2.9823	6.122316	0.000324	3.243543	1.098942	0.000130
  77	7.5620e+00	3.0240	6.251505	0.000324	3.243543	1.098942	0.000130
  78	7.6615e+00	3.0673	6.445287	0.000487	4.865314	1.648413	0.000195
  79	7.7610e+00	3.1042	6.602735	0.000395	3.953068	1.339336	0.000158
  80	7.8605e+00	3.1523	6.731924	0.000324	3.243543	1.098942	0.000130
  81	7.9600e+00	3.1908	6.877261	0.000365	3.648986	1.236310	0.000146
  82	8.0595e+00	3.2261	7.034709	0.000395	3.953068	1.339336	0.000158
  83	8.1590e+00	3.2646	7.184083	0.000375	3.750346	1.270652	0.000150
  84	8.2585e+00	3.2951	7.337494	0.000385	3.851707	1.304994	0.000154
  85	8.3580e+00	3.3432	7.527240	0.000476	4.763954	1.614071	0.000191
  86	8.4575e+00	3.3881	7.632205	0.000264	2.635379	0.892890	0.000105
  87	8.5570e+00	3.4234	7.797728	0.000416	4.155789	1.408020	0.000166
  88	8.6565e+00	3.4684	7.971325	0.000436	4.358511	1.476703	0.000174
  89	8.7560e+00	3.4988	8.100513	0.000324	3.243543	1.098942	0.000130
  90	8.8555e+00	3.5502	8.245850	0.000365	3.648986	1.236310	0.000146
  91	8.9550e+00	3.5903	8.387149	0.000355	3.547625	1.201968	0.000142
  92	9.0545e+00	3.6272	8.536524	0.000375	3.750346	1.270652	0.000150
  93	9.1540e+00	3.6673	8.726269	0.000476	4.763954	1.614071	0.000191
  94	9.2535e+00	3.7010	8.835272	0.000274	2.736739	0.927232	0.000110
  95	9.3530e+00	3.7363	8.984646	0.000375	3.750346	1.270652	0.000150
  96	9.4525e+00	3.7764	9.117871	0.000334	3.344904	1.133284	0.000134
  97	9.5520e+00	3.8245	9.327802	0.000527	5.270757	1.785781	0.000211
  98	9.6515e+00	3.8598	9.400471	0.000182	1.824493	0.618155	0.000073
  99	9.7510e+00	3.8999	9.537733	0.000345	3.446264	1.167626	0.000138
 100	9.8505e+00	3.9384	9.763813	0.000568	5.676200	1.923149	0.000227
 101	9.9500e+00	3.9849	9.880890	0.000294	2.939461	0.995916	0.000118
 102	1.0050e+01	4.0154	10.042375	0.000405	4.054429	1.373678	0.000162
 103	1.0149e+01	4.0587	10.207898	0.000416	4.155789	1.408020	0.000166
 104	1.0248e+01	4.1052	10.316900	0.000274	2.736739	0.927232	0.000110
 105	1.0348e+01	4.1373	10.454163	0.000345	3.446264	1.167626	0.000138
 106	1.0447e+01	4.1838	10.623723	0.000426	4.257150	1.442361	0.000170
 107	1.0547e+01	4.2159	10.765022	0.000355	3.547625	1.201968	0.000142
 108	1.0646e+01	4.2496	10.958805	0.000487	4.865314	1.648413	0.000195
 109	1.0746e+01	4.2977	11.079919	0.000304	3.040821	1.030258	0.000122
 110	1.0845e+01	4.3427	11.253516	0.000436	4.358511	1.476703	0.000174
 111	1.0945e+01	4.3731	11.342333	0.000223	2.229936	0.755523	0.000089
 112	1.1044e+01	4.4213	11.540153	0.000497	4.966675	1.682755	0.000199
 113	1.1144e+01	4.4566	11.641081	0.000253	2.534018	0.858548	0.000101
 114	1.1243e+01	4.5031	11.806603	0.000416	4.155789	1.408020	0.000166
 115	1.1343e+01	4.5352	11.931755	0.000314	3.142182	1.064600	0.000126
 116	1.1443e+01	4.5785	12.097277	0.000416	4.155789	1.408020	0.000166
 117	1.1542e+01	4.6250	12.214354	0.000294	2.939461	0.995916	0.000118
 118	1.1642e+01	4.6715	12.428322	0.000537	5.372118	1.820123	0.000215
 119	1.1741e+01	4.7036	12.565585	0.000345	3.446264	1.167626	0.000138
 120	1.1841e+01	4.7389	12.698810	0.000334	3.344904	1.133284	0.000134
 121	1.1940e+01	4.7758	12.819925	0.000304	3.040821	1.030258	0.000122
 122	1.2040e+01	4.8143	13.009670	0.000476	4.763954	1.614071	0.000191
 123	1.2139e+01	4.8480	13.155007	0.000365	3.648986	1.236310	0.000146
 124	1.2239e+01	4.9025	13.243824	0.000223	2.229936	0.755523	0.000089
 125	1.2338e+01	4.9378	13.449718	0.000517	5.169396	1.751439	0.000207
 126	1.2438e+01	4.9827	13.595055	0.000365	3.648986	1.236310	0.000146
 127	1.2537e+01	5.0196	13.756540	0.000405	4.054429	1.373678	0.000162
 128	1.2636e+01	5.0581	13.873617	0.000294	2.939461	0.995916	0.000118
 129	1.2736e+01	5.0983	14.010880	0.000345	3.446264	1.167626	0.000138
 130	1.2835e+01	5.1351	14.136031	0.000314	3.142182	1.064600	0.000126
 131	1.2935e+01	5.1720	14.289442	0.000385	3.851707	1.304994	0.000154
 132	1.3034e+01	5.2138	14.442853	0.000385	3.851707	1.304994	0.000154
 133	1.3134e+01	5.2539	14.604339	0.000405	4.054429	1.373678	0.000162
 134	1.3233e+01	5.2940	14.721415	0.000294	2.939461	0.995916	0.000118
 135	1.3333e+01	5.3405	14.903087	0.000456	4.561232	1.545387	0.000183
 136	1.3432e+01	5.3838	15.028238	0.000314	3.142182	1.064600	0.000126
 137	1.3532e+01	5.4111	15.177612	0.000375	3.750346	1.270652	0.000150
 138	1.3632e+01	5.4528	15.314874	0.000345	3.446264	1.167626	0.000138
 139	1.3731e+01	5.4945	15.468286	0.000385	3.851707	1.304994	0.000154
 140	1.3831e+01	5.5234	15.613622	0.000365	3.648986	1.236310	0.000146
 141	1.3930e+01	5.5747	15.754922	0.000355	3.547625	1.201968	0.000142
 142	1.4030e+01	5.6084	15.924482	0.000426	4.257150	1.442361	0.000170
 143	1.4129e+01	5.6469	16.069819	0.000365	3.648986	1.236310	0.000146
 144	1.4229e+01	5.6902	16.223230	0.000385	3.851707	1.304994	0.000154
 145	1.4328e+01	5.7399	16.344344	0.000304	3.040821	1.030258	0.000122
 146	1.4428e+01	5.7688	16.473532	0.000324	3.243543	1.098942	0.000130
 147	1.4527e+01	5.8073	16.639055	0.000416	4.155789	1.408020	0.000166
 148	1.4627e+01	5.8554	16.792466	0.000385	3.851707	1.304994	0.000154
 149	1.4726e+01	5.9020	16.921654	0.000324	3.243543	1.098942	0.000130
 150	1.4825e+01	5.9357	17.058917	0.000345	3.446264	1.167626	0.000138
 151	1.4925e+01	5.9790	17.216365	0.000395	3.953068	1.339336	0.000158
 152	1.5024e+01	6.0223	17.369777	0.000385	3.851707	1.304994	0.000154
 153	1.5124e+01	6.0544	17.490891	0.000304	3.040821	1.030258	0.000122
 154	1.5223e+01	6.0897	17.652376	0.000405	4.054429	1.373678	0.000162
 155	1.5323e+01	6.1394	17.813861	0.000405	4.054429	1.373678	0.000162
 156	1.5422e+01	6.1667	17.951124	0.000345	3.446264	1.167626	0.000138
 157	1.5522e+01	6.2132	18.068201	0.000294	2.939461	0.995916	0.000118
 158	1.5621e+01	6.2501	18.193352	0.000314	3.142182	1.064600	0.000126
 159	1.5721e+01	6.2950	18.391172	0.000497	4.966675	1.682755	0.000199
 160	1.5820e+01	6.3271	18.520360	0.000324	3.243543	1.098942	0.000130
 161	1.5920e+01	6.3672	18.645511	0.000314	3.142182	1.064600	0.000126
 162	1.6020e+01	6.4266	18.815071	0.000426	4.257150	1.442361	0.000170
 163	1.6119e+01	6.4618	18.968482	0.000385	3.851707	1.304994	0.000154
 164	1.6218e+01	6.4907	19.105745	0.000345	3.446264	1.167626	0.000138
 165	1.6318e+01	6.5260	19.206673	0.000253	2.534018	0.858548	0.000101
 166	1.6418e+01	6.5725	19.343936	0.000345	3.446264	1.167626	0.000138
 167	1.6517e+01	6.6078	19.493310	0.000375	3.750346	1.270652	0.000150
 168	1.6616e+01	6.6544	19.642684	0.000375	3.750346	1.270652	0.000150
 169	1.6716e+01	6.6897	19.792058	0.000375	3.750346	1.270652	0.000150
 170	1.6816e+01	6.7298	19.933358	0.000355	3.547625	1.201968	0.000142
 171	1.6915e+01	6.7715	20.094843	0.000405	4.054429	1.373678	0.000162
 172	1.7015e+01	6.8116	20.195772	0.000253	2.534018	0.858548	0.000101
 173	1.7114e+01	6.8517	20.353220	0.000395	3.953068	1.339336	0.000158
 174	1.7213e+01	6.8886	20.514705	0.000405	4.054429	1.373678	0.000162
 175	1.7313e+01	6.9303	20.656005	0.000355	3.547625	1.201968	0.000142
 176	1.7413e+01	6.9720	20.801342	0.000365	3.648986	1.236310	0.000146
 177	1.7512e+01	7.0137	20.946679	0.000365	3.648986	1.236310	0.000146
 178	1.7611e+01	7.0554	21.079904	0.000334	3.344904	1.133284	0.000134
 179	1.7711e+01	7.0891	21.233315	0.000385	3.851707	1.304994	0.000154
 180	1.7811e+01	7.1372	21.374615	0.000355	3.547625	1.201968	0.000142
 181	1.7910e+01	7.1661	21.523989	0.000375	3.750346	1.270652	0.000150
 182	1.8009e+01	7.2094	21.657215	0.000334	3.344904	1.133284	0.000134
 183	1.8109e+01	7.2415	21.810626	0.000385	3.851707	1.304994	0.000154
 184	1.8209e+01	7.2848	21.972111	0.000405	4.054429	1.373678	0.000162
 185	1.8308e+01	7.3281	22.105337	0.000334	3.344904	1.133284	0.000134
 186	1.8407e+01	7.3698	22.246636	0.000355	3.547625	1.201968	0.000142
 187	1.8507e+01	7.4116	22.387936	0.000355	3.547625	1.201968	0.000142
 188	1.8607e+01	7.4517	22.496939	0.000274	2.736739	0.927232	0.000110
 189	1.8706e+01	7.4886	22.682647	0.000466	4.662593	1.579729	0.000187
 190	1.8805e+01	7.5287	22.848170	0.000416	4.155789	1.408020	0.000166
 191	1.8905e+01	7.5607	22.993507	0.000365	3.648986	1.236310	0.000146
 192	1.9005e+01	7.6057	23.094435	0.000253	2.534018	0.858548	0.000101
 193	1.9104e+01	7.6458	23.268032	0.000436	4.358511	1.476703	0.000174
 194	1.9203e+01	7.6875	23.405294	0.000345	3.446264	1.167626	0.000138
 195	1.9303e+01	7.7388	23.554668	0.000375	3.750346	1.270652	0.000150
 196	1.9402e+01	7.7613	23.712117	0.000395	3.953068	1.339336	0.000158
 197	1.9502e+01	7.8062	23.853417	0.000355	3.547625	1.201968	0.000142
 198	1.9602e+01	7.8463	24.014902	0.000405	4.054429	1.373678	0.000162
 199	1.9701e+01	7.8880	24.184462	0.000426	4.257150	1.442361	0.000170
 200	1.9800e+01	7.9249	24.297501	0.000284	2.838100	0.961574	0.000114
 201	1.9900e+01	7.9650	24.418616	0.000304	3.040821	1.030258	0.000122
 202	2.0000e+01	8.0083	24.604324	0.000466	4.662593	1.579729	0.000187
 203	2.0099e+01	8.0532	24.721401	0.000294	2.939461	0.995916	0.000118
 204	2.0198e+01	8.0869	24.862700	0.000355	3.547625	1.201968	0.000142
 205	2.0298e+01	8.1206	25.036297	0.000436	4.358511	1.476703	0.000174
 206	2.0398e+01	8.1655	25.145300	0.000274	2.736739	0.927232	0.000110
 207	2.0497e+01	8.2024	25.343120	0.000497	4.966675	1.682755	0.000199
 208	2.0596e+01	8.2409	25.472308	0.000324	3.243543	1.098942	0.000130
 209	2.0696e+01	8.2827	25.629756	0.000395	3.953068	1.339336	0.000158
 210	2.0796e+01	8.3276	25.754907	0.000314	3.142182	1.064600	0.000126
 211	2.0895e+01	8.3613	25.916393	0.000405	4.054429	1.373678	0.000162
 212	2.0994e+01	8.4062	26.073841	0.000395	3.953068	1.339336	0.000158
 213	2.1094e+01	8.4367	26.198992	0.000314	3.142182	1.064600	0.000126
 214	2.1194e+01	8.4896	26.384701	0.000466	4.662593	1.579729	0.000187
 215	2.1293e+01	8.5249	26.517926	0.000334	3.344904	1.133284	0.000134
 216	2.1392e+01	8.5666	26.630966	0.000284	2.838100	0.961574	0.000114
 217	2.1492e+01	8.6019	26.788414	0.000395	3.953068	1.339336	0.000158
 218	2.1591e+01	8.6420	26.966048	0.000446	4.459871	1.511045	0.000179
 219	2.1691e+01	8.6853	27.087162	0.000304	3.040821	1.030258	0.000122
 220	2.1791e+01	8.7238	27.240573	0.000385	3.851707	1.304994	0.000154
 221	2.1890e+01	8.7623	27.393985	0.000385	3.851707	1.304994	0.000154
 222	2.1989e+01	8.7928	27.543359	0.000375	3.750346	1.270652	0.000150
 223	2.2089e+01	8.8409	27.692733	0.000375	3.750346	1.270652	0.000150
 224	2.2189e+01	8.8891	27.842107	0.000375	3.750346	1.270652	0.000150
 225	2.2288e+01	8.9227	27.979369	0.000345	3.446264	1.167626	0.000138
 226	2.2387e+01	8.9661	28.124706	0.000365	3.648986	1.236310	0.000146
 227	2.2487e+01	9.0078	28.286192	0.000405	4.054429	1.373678	0.000162
 228	2.2587e+01	9.0399	28.467863	0.000456	4.561232	1.545387	0.000183
 229	2.2686e+01	9.0880	28.576865	0.000274	2.736739	0.927232	0.000110
 230	2.2785e+01	9.1185	28.750462	0.000436	4.358511	1.476703	0.000174
 231	2.2885e+01	9.1570	28.875613	0.000314	3.142182	1.064600	0.000126
 232	2.2985e+01	9.2051	29.041136	0.000416	4.155789	1.408020	0.000166
 233	2.3084e+01	9.2372	29.158213	0.000294	2.939461	0.995916	0.000118
 234	2.3183e+01	9.2837	29.291438	0.000334	3.344904	1.133284	0.000134
 235	2.3283e+01	9.3190	29.505407	0.000537	5.372118	1.820123	0.000215
 236	2.3383e+01	9.3623	29.634595	0.000324	3.243543	1.098942	0.000130
 237	2.3482e+01	9.3960	29.804155	0.000426	4.257150	1.442361	0.000170
 238	2.3581e+01	9.4457	29.961603	0.000395	3.953068	1.339336	0.000158
 239	2.3681e+01	9.4810	30.058494	0.000243	2.432657	0.824207	0.000097
 240	2.3780e+01	9.5243	30.215942	0.000395	3.953068	1.339336	0.000158
 241	2.3880e+01	9.5628	30.397614	0.000456	4.561232	1.545387	0.000183
 242	2.3980e+01	9.5981	30.546988	0.000375	3.750346	1.270652	0.000150
 243	2.4079e+01	9.6463	30.668102	0.000304	3.040821	1.030258	0.000122
 244	2.4178e+01	9.6799	30.825550	0.000395	3.953068	1.339336	0.000158
 245	2.4278e+01	9.7200	30.970887	0.000365	3.648986	1.236310	0.000146
 246	2.4378e+01	9.7585	31.144484	0.000436	4.358511	1.476703	0.000174
 247	2.4477e+01	9.7987	31.269635	0.000314	3.142182	1.064600	0.000126
 248	2.4576e+01	9.8356	31.378638	0.000274	2.736739	0.927232	0.000110
 249	2.4676e+01	9.8837	31.572420	0.000487	4.865314	1.648413	0.000195
 250	2.4776e+01	9.9158	31.709683	0.000345	3.446264	1.167626	0.000138
 251	2.4875e+01	9.9623	31.867131	0.000395	3.953068	1.339336	0.000158
 252	2.4974e+01	10.0024	31.980171	0.000284	2.838100	0.961574	0.000114
 253	2.5074e+01	10.0329	32.173953	0.000487	4.865314	1.648413	0.000195
 254	2.5174e+01	10.0746	32.303142	0.000324	3.243543	1.098942	0.000130
 255	2.5273e+01	10.1179	32.460590	0.000395	3.953068	1.339336	0.000158
 256	2.5372e+01	10.1660	32.662447	0.000507	5.068036	1.717097	0.000203
 257	2.5472e+01	10.1965	32.763375	0.000253	2.534018	0.858548	0.000101
 258	2.5572e+01	10.2334	32.892563	0.000324	3.243543	1.098942	0.000130
 259	2.5671e+01	10.2751	33.041937	0.000375	3.750346	1.270652	0.000150
 260	2.5770e+01	10.3248	33.215534	0.000436	4.358511	1.476703	0.000174
 261	2.5870e+01	10.3569	33.356834	0.000355	3.547625	1.201968	0.000142
 262	2.5970e+01	10.3954	33.522357	0.000416	4.155789	1.408020	0.000166
 263	2.6069e+01	10.4371	33.643471	0.000304	3.040821	1.030258	0.000122
 264	2.6169e+01	10.4740	33.800919	0.000395	3.953068	1.339336	0.000158
 265	2.6268e+01	10.5141	33.942219	0.000355	3.547625	1.201968	0.000142
 266	2.6367e+01	10.5607	34.095630	0.000385	3.851707	1.304994	0.000154
 267	2.6467e+01	10.5944	34.232892	0.000345	3.446264	1.167626	0.000138
 268	2.6567e+01	10.6296	34.378229	0.000365	3.648986	1.236310	0.000146
 269	2.6666e+01	10.6778	34.555863	0.000446	4.459871	1.511045	0.000179
 270	2.6765e+01	10.7211	34.701200	0.000365	3.648986	1.236310	0.000146
 271	2.6865e+01	10.7516	34.806166	0.000264	2.635379	0.892890	0.000105
 272	2.6965e+01	10.7997	34.975725	0.000426	4.257150	1.442361	0.000170
 273	2.7064e+01	10.8430	35.129137	0.000385	3.851707	1.304994	0.000154
 274	2.7163e+01	10.8767	35.310808	0.000456	4.561232	1.545387	0.000183
 275	2.7263e+01	10.9184	35.464219	0.000385	3.851707	1.304994	0.000154
 276	2.7363e+01	10.9505	35.605519	0.000355	3.547625	1.201968	0.000142
 277	2.7462e+01	10.9874	35.706447	0.000253	2.534018	0.858548	0.000101
 278	2.7561e+01	11.0339	35.819487	0.000284	2.838100	0.961574	0.000114
 279	2.7661e+01	11.0660	35.972898	0.000385	3.851707	1.304994	0.000154
 280	2.7761e+01	11.1141	36.130346	0.000395	3.953068	1.339336	0.000158
 281	2.7860e+01	11.1414	36.324129	0.000487	4.865314	1.648413	0.000195
 282	2.7959e+01	11.1959	36.416983	0.000233	2.331296	0.789865	0.000093
 283	2.8059e+01	11.2248	36.598654	0.000456	4.561232	1.545387	0.000183
 284	2.8159e+01	11.2778	36.727842	0.000324	3.243543	1.098942	0.000130
 285	2.8258e+01	11.3147	36.881254	0.000385	3.851707	1.304994	0.000154
 286	2.8358e+01	11.3451	37.018516	0.000345	3.446264	1.167626	0.000138
 287	2.8457e+01	11.3949	37.143667	0.000314	3.142182	1.064600	0.000126
 288	2.8556e+01	11.4382	37.321301	0.000446	4.459871	1.511045	0.000179
 289	2.8656e+01	11.4783	37.438378	0.000294	2.939461	0.995916	0.000118
 290	2.8756e+01	11.5104	37.595827	0.000395	3.953068	1.339336	0.000158
 291	2.8855e+01	11.5617	37.733089	0.000345	3.446264	1.167626	0.000138
 292	2.8954e+01	11.5970	37.870352	0.000345	3.446264	1.167626	0.000138
 293	2.9054e+01	11.6419	38.031837	0.000405	4.054429	1.373678	0.000162
 294	2.9154e+01	11.6692	38.165063	0.000334	3.344904	1.133284	0.000134
 295	2.9253e+01	11.7125	38.290214	0.000314	3.142182	1.064600	0.000126
 296	2.9352e+01	11.7542	38.439588	0.000375	3.750346	1.270652	0.000150
 297	2.9452e+01	11.7943	38.576851	0.000345	3.446264	1.167626	0.000138
 298	2.9552e+01	11.8344	38.730262	0.000385	3.851707	1.304994	0.000154
 299	2.9651e+01	11.8842	38.863487	0.000334	3.344904	1.133284	0.000134
 300	2.9750e+01	11.9114	39.004787	0.000355	3.547625	1.201968	0.000142
 301	2.9850e+01	11.9612	39.138012	0.000334	3.344904	1.133284	0.000134
 302	2.9950e+01	11.9804	39.303535	0.000416	4.155789	1.408020	0.000166
 303	3.0049e+01	12.0285	39.420612	0.000294	2.939461	0.995916	0.000118
 304	3.0148e+01	12.0638	39.561912	0.000355	3.547625	1.201968	0.000142
 305	3.0248e+01	12.1104	39.699174	0.000345	3.446264	1.167626	0.000138
 306	3.0348e+01	12.1569	39.840474	0.000355	3.547625	1.201968	0.000142
 307	3.0447e+01	12.1858	39.953514	0.000284	2.838100	0.961574	0.000114
 308	3.0547e+01	12.2291	40.102888	0.000375	3.750346	1.270652	0.000150
 309	3.0646e+01	12.2708	40.300708	0.000497	4.966675	1.682755	0.000199
 310	3.0745e+01	12.3077	40.401636	0.000253	2.534018	0.858548	0.000101
 311	3.0845e+01	12.3398	40.546973	0.000365	3.648986	1.236310	0.000146
 312	3.0945e+01	12.3815	40.692310	0.000365	3.648986	1.236310	0.000146
 313	3.1044e+01	12.4264	40.825535	0.000334	3.344904	1.133284	0.000134
 314	3.1143e+01	12.4681	40.958761	0.000334	3.344904	1.133284	0.000134
 315	3.1243e+01	12.5018	41.112172	0.000385	3.851707	1.304994	0.000154
 316	3.1343e+01	12.5515	41.281731	0.000426	4.257150	1.442361	0.000170
 317	3.1442e+01	12.5868	41.370548	0.000223	2.229936	0.755523	0.000089
 318	3.1541e+01	12.6301	41.523960	0.000385	3.851707	1.304994	0.000154
 319	3.1641e+01	12.6654	41.669297	0.000365	3.648986	1.236310	0.000146
 320	3.1741e+01	12.7087	41.806559	0.000345	3.446264	1.167626	0.000138
 321	3.1840e+01	12.7424	41.951896	0.000365	3.648986	1.236310	0.000146
 322	3.1939e+01	12.7970	42.085122	0.000334	3.344904	1.133284	0.000134
 323	3.2039e+01	12.8226	42.230458	0.000365	3.648986	1.236310	0.000146
 324	3.2139e+01	12.8692	42.367721	0.000345	3.446264	1.167626	0.000138
 325	3.2238e+01	12.9028	42.513058	0.000365	3.648986	1.236310	0.000146
 326	3.2337e+01	12.9413	42.609949	0.000243	2.432657	0.824207	0.000097
 327	3.2437e+01	12.9734	42.779509	0.000426	4.257150	1.442361	0.000170
 328	3.2536e+01	13.0183	42.892549	0.000284	2.838100	0.961574	0.000114
 329	3.2636e+01	13.0665	43.025774	0.000334	3.344904	1.133284	0.000134
 330	3.2736e+01	13.1018	43.187260	0.000405	4.054429	1.373678	0.000162
 331	3.2835e+01	13.1451	43.296262	0.000274	2.736739	0.927232	0.000110
 332	3.2934e+01	13.1996	43.465822	0.000426	4.257150	1.442361	0.000170
 333	3.3034e+01	13.2189	43.574825	0.000274	2.736739	0.927232	0.000110
 334	3.3133e+01	13.2606	43.720161	0.000365	3.648986	1.236310	0.000146
 335	3.3233e+01	13.3071	43.817053	0.000243	2.432657	0.824207	0.000097
 336	3.3333e+01	13.3440	44.002761	0.000466	4.662593	1.579729	0.000187
 337	3.3432e+01	13.3825	44.123875	0.000304	3.040821	1.030258	0.000122
 338	3.3532e+01	13.4210	44.265175	0.000355	3.547625	1.201968	0.000142
 339	3.3631e+01	13.4627	44.446846	0.000456	4.561232	1.545387	0.000183
 340	3.3730e+01	13.5044	44.507403	0.000152	1.520411	0.515129	0.000061
 341	3.3830e+01	13.5461	44.672926	0.000416	4.155789	1.408020	0.000166
 342	3.3929e+01	13.5782	44.810188	0.000345	3.446264	1.167626	0.000138
 343	3.4029e+01	13.6167	44.975711	0.000416	4.155789	1.408020	0.000166
 344	3.4129e+01	13.6616	45.100862	0.000314	3.142182	1.064600	0.000126
 345	3.4228e+01	13.7018	45.205827	0.000264	2.635379	0.892890	0.000105
 346	3.4328e+01	13.7370	45.339053	0.000334	3.344904	1.133284	0.000134
 347	3.4427e+01	13.7788	45.484390	0.000365	3.648986	1.236310	0.000146
 348	3.4526e+01	13.8221	45.629727	0.000365	3.648986	1.236310	0.000146
 349	3.4626e+01	13.8702	45.799286	0.000426	4.257150	1.442361	0.000170
 350	3.4725e+01	13.9039	45.908289	0.000274	2.736739	0.927232	0.000110
 351	3.4825e+01	13.9440	45.997106	0.000223	2.229936	0.755523	0.000089
 352	3.4925e+01	13.9809	46.182814	0.000466	4.662593	1.579729	0.000187
 353	3.5024e+01	14.0146	46.336225	0.000385	3.851707	1.304994	0.000154
 354	3.5123e+01	14.0643	46.437154	0.000253	2.534018	0.858548	0.000101
 355	3.5223e+01	14.1044	46.594602	0.000395	3.953068	1.339336	0.000158
 356	3.5322e+01	14.1461	46.727828	0.000334	3.344904	1.133284	0.000134
 357	3.5422e+01	14.1782	46.848942	0.000304	3.040821	1.030258	0.000122
 358	3.5522e+01	14.2167	47.018501	0.000426	4.257150	1.442361	0.000170
 359	3.5621e+01	14.2616	47.115393	0.000243	2.432657	0.824207	0.000097
 360	3.5721e+01	14.3001	47.288989	0.000436	4.358511	1.476703	0.000174
 361	3.5820e+01	14.3386	47.418178	0.000324	3.243543	1.098942	0.000130
 362	3.5919e+01	14.3803	47.563515	0.000365	3.648986	1.236310	0.000146
 363	3.6019e+01	14.4269	47.692703	0.000324	3.243543	1.098942	0.000130
 364	3.6118e+01	14.4638	47.846114	0.000385	3.851707	1.304994	0.000154
 365	3.6218e+01	14.4991	47.975303	0.000324	3.243543	1.098942	0.000130
 366	3.6318e+01	14.5472	48.165048	0.000476	4.763954	1.614071	0.000191
 367	3.6417e+01	14.5745	48.253865	0.000223	2.229936	0.755523	0.000089
 368	3.6517e+01	14.6210	48.395165	0.000355	3.547625	1.201968	0.000142
 369	3.6616e+01	14.6515	48.516279	0.000304	3.040821	1.030258	0.000122
 370	3.6715e+01	14.6996	48.706024	0.000476	4.763954	1.614071	0.000191
 371	3.6815e+01	14.7365	48.810990	0.000264	2.635379	0.892890	0.000105
 372	3.6914e+01	14.7718	48.919992	0.000274	2.736739	0.927232	0.000110
 373	3.7014e+01	14.8167	49.109738	0.000476	4.763954	1.614071	0.000191
 374	3.7114e+01	14.8536	49.255075	0.000365	3.648986	1.236310	0.000146
 375	3.7213e+01	14.9033	49.392337	0.000345	3.446264	1.167626	0.000138
 376	3.7313e+01	14.9386	49.537674	0.000365	3.648986	1.236310	0.000146
 377	3.7412e+01	14.9771	49.654751	0.000294	2.939461	0.995916	0.000118
 378	3.7511e+01	15.0044	49.796051	0.000355	3.547625	1.201968	0.000142
 379	3.7611e+01	15.0541	49.937351	0.000355	3.547625	1.201968	0.000142
 380	3.7711e+01	15.0910	50.082687	0.000365	3.648986	1.236310	0.000146
 381	3.7810e+01	15.1343	50.199764	0.000294	2.939461	0.995916	0.000118
 382	3.7910e+01	15.1776	50.353175	0.000385	3.851707	1.304994	0.000154
 383	3.8009e+01	15.2145	50.502550	0.000375	3.750346	1.270652	0.000150
 384	3.8108e+01	15.2595	50.647886	0.000365	3.648986	1.236310	0.000146
 385	3.8208e+01	15.2948	50.785149	0.000345	3.446264	1.167626	0.000138
 386	3.8307e+01	15.3397	50.942597	0.000395	3.953068	1.339336	0.000158
 387	3.8407e+01	15.3798	51.075823	0.000334	3.344904	1.133284	0.000134
 388	3.8507e+01	15.4199	51.233271	0.000395	3.953068	1.339336	0.000158
 389	3.8606e+01	15.4456	51.322088	0.000223	2.229936	0.755523	0.000089
 390	3.8706e+01	15.5017	51.459351	0.000345	3.446264	1.167626	0.000138
 391	3.8805e+01	15.5258	51.624873	0.000416	4.155789	1.408020	0.000166
 392	3.8904e+01	15.5739	51.782322	0.000395	3.953068	1.339336	0.000158
 393	3.9004e+01	15.6124	51.899398	0.000294	2.939461	0.995916	0.000118
 394	3.9103e+01	15.6461	52.036661	0.000345	3.446264	1.167626	0.000138
 395	3.9203e+01	15.6974	52.181998	0.000365	3.648986	1.236310	0.000146
 396	3.9303e+01	15.7311	52.323298	0.000355	3.547625	1.201968	0.000142
 397	3.9402e+01	15.7760	52.448449	0.000314	3.142182	1.064600	0.000126
 398	3.9502e+01	15.8129	52.585712	0.000345	3.446264	1.167626	0.000138
 399	3.9601e+01	15.8530	52.727011	0.000355	3.547625	1.201968	0.000142
 400	3.9700e+01	15.8899	52.896571	0.000426	4.257150	1.442361	0.000170
 401	3.9800e+01	15.9300	53.005574	0.000274	2.736739	0.927232	0.000110
 402	3.9900e+01	15.9782	53.171096	0.000416	4.155789	1.408020	0.000166
 403	3.9999e+01	16.0183	53.324507	0.000385	3.851707	1.304994	0.000154
 404	4.0099e+01	16.0600	53.421399	0.000243	2.432657	0.824207	0.000097
 405	4.0198e+01	16.0921	53.619218	0.000497	4.966675	1.682755	0.000199
 406	4.0297e+01	16.1225	53.752444	0.000334	3.344904	1.133284	0.000134
 407	4.0397e+01	16.1755	53.909892	0.000395	3.953068	1.339336	0.000158
 408	4.0496e+01	16.2060	53.998709	0.000223	2.229936	0.755523	0.000089
 409	4.0596e+01	16.2493	54.176343	0.000446	4.459871	1.511045	0.000179
 410	4.0696e+01	16.2846	54.285346	0.000274	2.736739	0.927232	0.000110
 411	4.0795e+01	16.3295	54.402423	0.000294	2.939461	0.995916	0.000118
 412	4.0895e+01	16.3696	54.576019	0.000436	4.358511	1.476703	0.000174
 413	4.0994e+01	16.4097	54.745579	0.000426	4.257150	1.442361	0.000170
 414	4.1093e+01	16.4418	54.866693	0.000304	3.040821	1.030258	0.000122
 415	4.1193e+01	16.4867	54.983770	0.000294	2.939461	0.995916	0.000118
 416	4.1292e+01	16.5332	55.149293	0.000416	4.155789	1.408020	0.000166
 417	4.1392e+01	16.5621	55.290593	0.000355	3.547625	1.201968	0.000142
 418	4.1492e+01	16.6118	55.452078	0.000405	4.054429	1.373678	0.000162
 419	4.1591e+01	16.6567	55.569155	0.000294	2.939461	0.995916	0.000118
 420	4.1691e+01	16.6920	55.730640	0.000405	4.054429	1.373678	0.000162
 421	4.1790e+01	16.7273	55.880014	0.000375	3.750346	1.270652	0.000150
 422	4.1889e+01	16.7723	56.009203	0.000324	3.243543	1.098942	0.000130
 423	4.1989e+01	16.8059	56.130317	0.000304	3.040821	1.030258	0.000122
 424	4.2089e+01	16.8493	56.283728	0.000385	3.851707	1.304994	0.000154
 425	4.2188e+01	16.8942	56.404842	0.000304	3.040821	1.030258	0.000122
 426	4.2288e+01	16.9279	56.554216	0.000375	3.750346	1.270652	0.000150
 427	4.2387e+01	16.9680	56.691479	0.000345	3.446264	1.167626	0.000138
 428	4.2486e+01	17.0049	56.844890	0.000385	3.851707	1.304994	0.000154
 429	4.2586e+01	17.0434	56.998301	0.000385	3.851707	1.304994	0.000154
 430	4.2685e+01	17.0947	57.107304	0.000274	2.736739	0.927232	0.000110
 431	4.2785e+01	17.1220	57.252640	0.000365	3.648986	1.236310	0.000146
 432	4.2885e+01	17.1733	57.414126	0.000405	4.054429	1.373678	0.000162
 433	4.2984e+01	17.2038	57.559463	0.000365	3.648986	1.236310	0.000146
 434	4.3084e+01	17.2535	57.680577	0.000304	3.040821	1.030258	0.000122
 435	4.3183e+01	17.2872	57.825914	0.000365	3.648986	1.236310	0.000146
 436	4.3282e+01	17.3321	57.999511	0.000436	4.358511	1.476703	0.000174
 437	4.3382e+01	17.3642	58.096402	0.000243	2.432657	0.824207	0.000097
 438	4.3481e+01	17.4027	58.249813	0.000385	3.851707	1.304994	0.000154
 439	4.3581e+01	17.4492	58.383038	0.000334	3.344904	1.133284	0.000134
 440	4.3681e+01	17.4877	58.544524	0.000405	4.054429	1.373678	0.000162
 441	4.3780e+01	17.5230	58.645452	0.000253	2.534018	0.858548	0.000101
 442	4.3880e+01	17.5663	58.798863	0.000385	3.851707	1.304994	0.000154
 443	4.3979e+01	17.6145	58.972460	0.000436	4.358511	1.476703	0.000174
 444	4.4078e+01	17.6498	59.069352	0.000243	2.432657	0.824207	0.000097
 445	4.4178e+01	17.6786	59.214688	0.000365	3.648986	1.236310	0.000146
 446	4.4278e+01	17.7284	59.327728	0.000284	2.838100	0.961574	0.000114
 447	4.4377e+01	17.7605	59.440768	0.000284	2.838100	0.961574	0.000114
 448	4.4477e+01	17.8022	59.618402	0.000446	4.459871	1.511045	0.000179
 449	4.4576e+01	17.8487	59.779887	0.000405	4.054429	1.373678	0.000162
 450	4.4675e+01	17.8840	59.876779	0.000243	2.432657	0.824207	0.000097
 451	4.4775e+01	17.9209	60.030190	0.000385	3.851707	1.304994	0.000154
 452	4.4874e+01	17.9658	60.163415	0.000334	3.344904	1.133284	0.000134
 453	4.4974e+01	18.0043	60.280492	0.000294	2.939461	0.995916	0.000118
 454	4.5074e+01	18.0476	60.433903	0.000385	3.851707	1.304994	0.000154
 455	4.5173e+01	18.0925	60.591352	0.000395	3.953068	1.339336	0.000158
 456	4.5273e+01	18.1246	60.696317	0.000264	2.635379	0.892890	0.000105
 457	4.5372e+01	18.1599	60.849728	0.000385	3.851707	1.304994	0.000154
 458	4.5471e+01	18.2032	60.982954	0.000334	3.344904	1.133284	0.000134
 459	4.5571e+01	18.2369	61.132328	0.000375	3.750346	1.270652	0.000150
 460	4.5670e+01	18.2786	61.261516	0.000324	3.243543	1.098942	0.000130
 461	4.5770e+01	18.3219	61.394742	0.000334	3.344904	1.133284	0.000134
 462	4.5870e+01	18.3637	61.532004	0.000345	3.446264	1.167626	0.000138
 463	4.5969e+01	18.4038	61.632933	0.000253	2.534018	0.858548	0.000101
 464	4.6069e+01	18.4455	61.794418	0.000405	4.054429	1.373678	0.000162
 465	4.6168e+01	18.4840	61.951866	0.000395	3.953068	1.339336	0.000158
 466	4.6267e+01	18.5209	62.056832	0.000264	2.635379	0.892890	0.000105
 467	4.6367e+01	18.5610	62.198132	0.000355	3.547625	1.201968	0.000142
 468	4.6467e+01	18.5979	62.383840	0.000466	4.662593	1.579729	0.000187
 469	4.6566e+01	18.6428	62.472657	0.000223	2.229936	0.755523	0.000089
 470	4.6666e+01	18.6797	62.593771	0.000304	3.040821	1.030258	0.000122
 471	4.6765e+01	18.7230	62.722959	0.000324	3.243543	1.098942	0.000130
 472	4.6864e+01	18.7487	62.900593	0.000446	4.459871	1.511045	0.000179
 473	4.6964e+01	18.8096	62.981336	0.000203	2.027214	0.686839	0.000081
 474	4.7063e+01	18.8401	63.179156	0.000497	4.966675	1.682755	0.000199
 475	4.7163e+01	18.8786	63.308344	0.000324	3.243543	1.098942	0.000130
 476	4.7263e+01	18.9203	63.417347	0.000274	2.736739	0.927232	0.000110
 477	4.7362e+01	18.9652	63.534424	0.000294	2.939461	0.995916	0.000118
 478	4.7462e+01	18.9989	63.659575	0.000314	3.142182	1.064600	0.000126
 479	4.7561e+01	19.0438	63.812986	0.000385	3.851707	1.304994	0.000154
 480	4.7660e+01	19.0807	63.917952	0.000264	2.635379	0.892890	0.000105
 481	4.7760e+01	19.1289	64.059251	0.000355	3.547625	1.201968	0.000142
 482	4.7859e+01	19.1610	64.244960	0.000466	4.662593	1.579729	0.000187
 483	4.7959e+01	19.1962	64.353962	0.000274	2.736739	0.927232	0.000110
 484	4.8059e+01	19.2492	64.495262	0.000355	3.547625	1.201968	0.000142
 485	4.8158e+01	19.2781	64.632525	0.000345	3.446264	1.167626	0.000138
 486	4.8258e+01	19.3246	64.753639	0.000304	3.040821	1.030258	0.000122
 487	4.8357e+01	19.3599	64.878790	0.000314	3.142182	1.064600	0.000126
 488	4.8456e+01	19.3984	65.020090	0.000355	3.547625	1.201968	0.000142
 489	4.8556e+01	19.4385	65.116981	0.000243	2.432657	0.824207	0.000097
 490	4.8656e+01	19.4818	65.234058	0.000294	2.939461	0.995916	0.000118
 491	4.8755e+01	19.5187	65.443989	0.000527	5.270757	1.785781	0.000211
 492	4.8855e+01	19.5556	65.540880	0.000243	2.432657	0.824207	0.000097
 493	4.8954e+01	19.6069	65.657957	0.000294	2.939461	0.995916	0.000118
 494	4.9053e+01	19.6278	65.766960	0.000274	2.736739	0.927232	0.000110
 495	4.9153e+01	19.6711	65.940557	0.000436	4.358511	1.476703	0.000174
 496	4.9252e+01	19.7208	66.053596	0.000284	2.838100	0.961574	0.000114
 497	4.9352e+01	19.7465	66.198933	0.000365	3.648986	1.236310	0.000146
 498	4.9452e+01	19.7962	66.328122	0.000324	3.243543	1.098942	0.000130
 499	4.9551e+01	19.8347	66.453273	0.000314	3.142182	1.064600	0.000126
 500	4.9651e+01	19.8684	66.582461	0.000324	3.243543	1.098942	0.000130
 501	4.9750e+01	19.9214	66.727798	0.000365	3.648986	1.236310	0.000146
 502	4.9849e+01	19.9583	66.852949	0.000314	3.142182	1.064600	0.000126
 503	4.9949e+01	19.9952	66.961952	0.000274	2.736739	0.927232	0.000110
 504	5.0048e+01	19.9583	66.844875	0.000294	2.939461	0.995916	-0.000118
 505	5.0148e+01	19.9117	66.752021	0.000233	2.331296	0.789865	-0.000093
 506	5.0248e+01	19.8732	66.643018	0.000274	2.736739	0.927232	-0.000110
 507	5.0347e+01	19.8412	66.554201	0.000223	2.229936	0.755523	-0.000089
 508	5.0447e+01	19.8059	66.429050	0.000314	3.142182	1.064600	-0.000126
 509	5.0546e+01	19.7593	66.295825	0.000334	3.344904	1.133284	-0.000134
 510	5.0645e+01	19.7192	66.227193	0.000172	1.723132	0.583813	-0.000069
 511	5.0745e+01	19.6759	66.098005	0.000324	3.243543	1.098942	-0.000130
 512	5.0844e+01	19.6358	65.984965	0.000284	2.838100	0.961574	-0.000114
 513	5.0944e+01	19.6005	65.823480	0.000405	4.054429	1.373678	-0.000162
 514	5.1044e+01	19.5572	65.762923	0.000152	1.520411	0.515129	-0.000061
 515	5.1143e+01	19.5219	65.641809	0.000304	3.040821	1.030258	-0.000122
 516	5.1242e+01	19.4738	65.504546	0.000345	3.446264	1.167626	-0.000138
 517	5.1342e+01	19.4449	65.448026	0.000142	1.419050	0.480787	-0.000057
 518	5.1441e+01	19.4016	65.290578	0.000395	3.953068	1.339336	-0.000158
 519	5.1541e+01	19.3631	65.165427	0.000314	3.142182	1.064600	-0.000126
 520	5.1641e+01	19.3182	65.044312	0.000304	3.040821	1.030258	-0.000122
 521	5.1740e+01	19.2861	64.919161	0.000314	3.142182	1.064600	-0.000126
 522	5.1840e+01	19.2476	64.830344	0.000223	2.229936	0.755523	-0.000089
 523	5.1939e+01	19.2043	64.676933	0.000385	3.851707	1.304994	-0.000154
 524	5.2038e+01	19.1626	64.523522	0.000385	3.851707	1.304994	-0.000154
 525	5.2138e+01	19.1225	64.458928	0.000162	1.621771	0.549471	-0.000065
 526	5.2237e+01	19.0791	64.337814	0.000304	3.040821	1.030258	-0.000122
 527	5.2337e+01	19.0422	64.196514	0.000355	3.547625	1.201968	-0.000142
 528	5.2437e+01	19.0053	64.119808	0.000193	1.925854	0.652497	-0.000077
 529	5.2536e+01	18.9636	63.978509	0.000355	3.547625	1.201968	-0.000142
 530	5.2636e+01	18.9171	63.889692	0.000223	2.229936	0.755523	-0.000089
 531	5.2735e+01	18.8754	63.780689	0.000274	2.736739	0.927232	-0.000110
 532	5.2834e+01	18.8401	63.627278	0.000385	3.851707	1.304994	-0.000154
 533	5.2934e+01	18.7936	63.485978	0.000355	3.547625	1.201968	-0.000142
 534	5.3033e+01	18.7599	63.417347	0.000172	1.723132	0.583813	-0.000069
 535	5.3133e+01	18.7182	63.292196	0.000314	3.142182	1.064600	-0.000126
 536	5.3233e+01	18.6813	63.167044	0.000314	3.142182	1.064600	-0.000126
 537	5.3332e+01	18.6412	63.045930	0.000304	3.040821	1.030258	-0.000122
 538	5.3431e+01	18.5963	62.932890	0.000284	2.838100	0.961574	-0.000114
 539	5.3531e+01	18.5706	62.803702	0.000324	3.243543	1.098942	-0.000130
 540	5.3630e+01	18.5305	62.690662	0.000284	2.838100	0.961574	-0.000114
 541	5.3730e+01	18.4792	62.561474	0.000324	3.243543	1.098942	-0.000130
 542	5.3830e+01	18.4374	62.436323	0.000314	3.142182	1.064600	-0.000126
 543	5.3929e+01	18.4006	62.359617	0.000193	1.925854	0.652497	-0.000077
 544	5.4029e+01	18.3476	62.181983	0.000446	4.459871	1.511045	-0.000179
 545	5.4128e+01	18.3235	62.072981	0.000274	2.736739	0.927232	-0.000110
 546	5.4227e+01	18.2834	61.955904	0.000294	2.939461	0.995916	-0.000118
 547	5.4327e+01	18.2369	61.830752	0.000314	3.142182	1.064600	-0.000126
 548	5.4426e+01	18.1936	61.733861	0.000243	2.432657	0.824207	-0.000097
 549	5.4526e+01	18.1727	61.616784	0.000294	2.939461	0.995916	-0.000118
 550	5.4626e+01	18.1294	61.507782	0.000274	2.736739	0.927232	-0.000110
 551	5.4725e+01	18.0877	61.390705	0.000294	2.939461	0.995916	-0.000118
 552	5.4825e+01	18.0476	61.273628	0.000294	2.939461	0.995916	-0.000118
 553	5.4924e+01	17.9995	61.152514	0.000304	3.040821	1.030258	-0.000122
 554	5.5023e+01	17.9706	61.007177	0.000365	3.648986	1.236310	-0.000146
 555	5.5123e+01	17.9257	60.902211	0.000264	2.635379	0.892890	-0.000105
 556	5.5222e+01	17.8744	60.797246	0.000264	2.635379	0.892890	-0.000105
 557	5.5322e+01	17.8519	60.647872	0.000375	3.750346	1.270652	-0.000150
 558	5.5422e+01	17.7990	60.534832	0.000284	2.838100	0.961574	-0.000114
 559	5.5521e+01	17.7685	60.405643	0.000324	3.243543	1.098942	-0.000130
 560	5.5620e+01	17.7300	60.272418	0.000334	3.344904	1.133284	-0.000134
 561	5.5720e+01	17.6883	60.195712	0.000193	1.925854	0.652497	-0.000077
 562	5.5819e+01	17.6434	60.066524	0.000324	3.243543	1.098942	-0.000130
 563	5.5919e+01	17.6097	59.937336	0.000324	3.243543	1.098942	-0.000130
 564	5.6019e+01	17.5615	59.767776	0.000426	4.257150	1.442361	-0.000170
 565	5.6118e+01	17.5262	59.670885	0.000243	2.432657	0.824207	-0.000097
 566	5.6218e+01	17.4958	59.586105	0.000213	2.128575	0.721181	-0.000085
 567	5.6317e+01	17.4541	59.436731	0.000375	3.750346	1.270652	-0.000150
 568	5.6416e+01	17.4059	59.323691	0.000284	2.838100	0.961574	-0.000114
 569	5.6516e+01	17.3722	59.202577	0.000304	3.040821	1.030258	-0.000122
 570	5.6615e+01	17.3225	59.065314	0.000345	3.446264	1.167626	-0.000138
 571	5.6715e+01	17.2872	58.976497	0.000223	2.229936	0.755523	-0.000089
 572	5.6815e+01	17.2407	58.851346	0.000314	3.142182	1.064600	-0.000126
 573	5.6914e+01	17.2070	58.714084	0.000345	3.446264	1.167626	-0.000138
 574	5.7014e+01	17.1717	58.592970	0.000304	3.040821	1.030258	-0.000122
 575	5.7113e+01	17.1204	58.488004	0.000264	2.635379	0.892890	-0.000105
 576	5.7212e+01	17.0883	58.370927	0.000294	2.939461	0.995916	-0.000118
 577	5.7312e+01	17.0466	58.217516	0.000385	3.851707	1.304994	-0.000154
 578	5.7411e+01	17.0033	58.116588	0.000253	2.534018	0.858548	-0.000101
 579	5.7511e+01	16.9696	58.007585	0.000274	2.736739	0.927232	-0.000110
 580	5.7611e+01	16.9311	57.842062	0.000416	4.155789	1.408020	-0.000166
 581	5.7710e+01	16.8829	57.785542	0.000142	1.419050	0.480787	-0.000057
 582	5.7809e+01	16.8525	57.632131	0.000385	3.851707	1.304994	-0.000154
 583	5.7909e+01	16.8108	57.519091	0.000284	2.838100	0.961574	-0.000114
 584	5.8008e+01	16.7706	57.381829	0.000345	3.446264	1.167626	-0.000138
 585	5.8108e+01	16.7354	57.236492	0.000365	3.648986	1.236310	-0.000146
 586	5.8208e+01	16.6840	57.139601	0.000243	2.432657	0.824207	-0.000097
 587	5.8307e+01	16.6455	56.994264	0.000365	3.648986	1.236310	-0.000146
 588	5.8407e+01	16.6166	56.937744	0.000142	1.419050	0.480787	-0.000057
 589	5.8506e+01	16.5701	56.788370	0.000375	3.750346	1.270652	-0.000150
 590	5.8605e+01	16.5220	56.659182	0.000324	3.243543	1.098942	-0.000130
 591	5.8705e+01	16.4915	56.562290	0.000243	2.432657	0.824207	-0.000097
 592	5.8804e+01	16.4562	56.449250	0.000284	2.838100	0.961574	-0.000114
 593	5.8904e+01	16.4113	56.311988	0.000345	3.446264	1.167626	-0.000138
 594	5.9004e+01	16.3760	56.178762	0.000334	3.344904	1.133284	-0.000134
 595	5.9103e+01	16.3295	56.053611	0.000314	3.142182	1.064600	-0.000126
 596	5.9203e+01	16.2878	55.964794	0.000223	2.229936	0.755523	-0.000089
 597	5.9302e+01	16.2477	55.807346	0.000395	3.953068	1.339336	-0.000158
 598	5.9401e+01	16.2124	55.662009	0.000365	3.648986	1.236310	-0.000146
 599	5.9501e+01	16.1642	55.569155	0.000233	2.331296	0.789865	-0.000093
 600	5.9600e+01	16.1193	55.452078	0.000294	2.939461	0.995916	-0.000118
 601	5.9700e+01	16.1001	55.347112	0.000264	2.635379	0.892890	-0.000105
 602	5.9800e+01	16.0503	55.217924	0.000324	3.243543	1.098942	-0.000130
 603	5.9899e+01	16.0183	55.072587	0.000365	3.648986	1.236310	-0.000146
 604	5.9998e+01	15.9782	54.971659	0.000253	2.534018	0.858548	-0.000101
 605	6.0098e+01	15.9300	54.838433	0.000334	3.344904	1.133284	-0.000134
 606	6.0197e+01	15.8931	54.676948	0.000405	4.054429	1.373678	-0.000162
 607	6.0297e+01	15.8546	54.600242	0.000193	1.925854	0.652497	-0.000077
 608	6.0397e+01	15.8113	54.446831	0.000385	3.851707	1.304994	-0.000154
 609	6.0496e+01	15.7760	54.329754	0.000294	2.939461	0.995916	-0.000118
 610	6.0596e+01	15.7295	54.224789	0.000264	2.635379	0.892890	-0.000105
 611	6.0695e+01	15.7022	54.091563	0.000334	3.344904	1.133284	-0.000134
 612	6.0794e+01	15.6637	53.942189	0.000375	3.750346	1.270652	-0.000150
 613	6.0894e+01	15.6156	53.825112	0.000294	2.939461	0.995916	-0.000118
 614	6.0993e+01	15.5771	53.712072	0.000284	2.838100	0.961574	-0.000114
 615	6.1093e+01	15.5322	53.586921	0.000314	3.142182	1.064600	-0.000126
 616	6.1193e+01	15.4857	53.469844	0.000294	2.939461	0.995916	-0.000118
 617	6.1292e+01	15.4584	53.316433	0.000385	3.851707	1.304994	-0.000154
 618	6.1392e+01	15.4119	53.227616	0.000223	2.229936	0.755523	-0.000089
 619	6.1491e+01	15.3686	53.066131	0.000405	4.054429	1.373678	-0.000162
 620	6.1590e+01	15.3461	52.916757	0.000375	3.750346	1.270652	-0.000150
 621	6.1690e+01	15.3028	52.783531	0.000334	3.344904	1.133284	-0.000134
 622	6.1789e+01	15.2498	52.678566	0.000264	2.635379	0.892890	-0.000105
 623	6.1889e+01	15.2113	52.561489	0.000294	2.939461	0.995916	-0.000118
 624	6.1989e+01	15.1728	52.440375	0.000304	3.040821	1.030258	-0.000122
 625	6.2088e+01	15.1375	52.278889	0.000405	4.054429	1.373678	-0.000162
 626	6.2188e+01	15.0990	52.149701	0.000324	3.243543	1.098942	-0.000130
 627	6.2287e+01	15.0477	52.036661	0.000284	2.838100	0.961574	-0.000114
 628	6.2386e+01	15.0220	51.927658	0.000274	2.736739	0.927232	-0.000110
 629	6.2486e+01	14.9739	51.786359	0.000355	3.547625	1.201968	-0.000142
 630	6.2586e+01	14.9306	51.645059	0.000355	3.547625	1.201968	-0.000142
 631	6.2685e+01	14.8905	51.511833	0.000334	3.344904	1.133284	-0.000134
 632	6.2785e+01	14.8520	51.374571	0.000345	3.446264	1.167626	-0.000138
 633	6.2884e+01	14.8151	51.225197	0.000375	3.750346	1.270652	-0.000150
 634	6.2983e+01	14.7846	51.120231	0.000264	2.635379	0.892890	-0.000105
 635	6.3083e+01	14.7333	50.962783	0.000395	3.953068	1.339336	-0.000158
 636	6.3182e+01	14.6948	50.857817	0.000264	2.635379	0.892890	-0.000105
 637	6.3282e+01	14.6643	50.720555	0.000345	3.446264	1.167626	-0.000138
 638	6.3382e+01	14.6194	50.579255	0.000355	3.547625	1.201968	-0.000142
 639	6.3481e+01	14.5729	50.506587	0.000182	1.824493	0.618155	-0.000073
 640	6.3581e+01	14.5456	50.341064	0.000416	4.155789	1.408020	-0.000166
 641	6.3680e+01	14.5055	50.215913	0.000314	3.142182	1.064600	-0.000126
 642	6.3779e+01	14.4622	50.046353	0.000426	4.257150	1.442361	-0.000170
 643	6.3879e+01	14.4269	49.949462	0.000243	2.432657	0.824207	-0.000097
 644	6.3978e+01	14.3787	49.804125	0.000365	3.648986	1.236310	-0.000146
 645	6.4078e+01	14.3370	49.670900	0.000334	3.344904	1.133284	-0.000134
 646	6.4177e+01	14.2985	49.533637	0.000345	3.446264	1.167626	-0.000138
 647	6.4277e+01	14.2552	49.420597	0.000284	2.838100	0.961574	-0.000114
 648	6.4376e+01	14.2167	49.275260	0.000365	3.648986	1.236310	-0.000146
 649	6.4476e+01	14.1798	49.154146	0.000304	3.040821	1.030258	-0.000122
 650	6.4576e+01	14.1317	48.992661	0.000405	4.054429	1.373678	-0.000162
 651	6.4675e+01	14.0996	48.887695	0.000264	2.635379	0.892890	-0.000105
 652	6.4775e+01	14.0547	48.742358	0.000365	3.648986	1.236310	-0.000146
 653	6.4874e+01	14.0210	48.597021	0.000365	3.648986	1.236310	-0.000146
 654	6.4974e+01	13.9761	48.483982	0.000284	2.838100	0.961574	-0.000114
 655	6.5073e+01	13.9392	48.354793	0.000324	3.243543	1.098942	-0.000130
 656	6.5172e+01	13.8991	48.221568	0.000334	3.344904	1.133284	-0.000134
 657	6.5272e+01	13.8638	48.092379	0.000324	3.243543	1.098942	-0.000130
 658	6.5371e+01	13.8221	47.959154	0.000334	3.344904	1.133284	-0.000134
 659	6.5471e+01	13.7804	47.813817	0.000365	3.648986	1.236310	-0.000146
 660	6.5570e+01	13.7370	47.696740	0.000294	2.939461	0.995916	-0.000118
 661	6.5670e+01	13.6969	47.515069	0.000456	4.561232	1.545387	-0.000183
 662	6.5769e+01	13.6616	47.414141	0.000253	2.534018	0.858548	-0.000101
 663	6.5869e+01	13.6247	47.236507	0.000446	4.459871	1.511045	-0.000179
 664	6.5969e+01	13.5814	47.107318	0.000324	3.243543	1.098942	-0.000130
 665	6.6068e+01	13.5413	47.010427	0.000243	2.432657	0.824207	-0.000097
 666	6.6168e+01	13.5044	46.844905	0.000416	4.155789	1.408020	-0.000166
 667	6.6267e+01	13.4563	46.715716	0.000324	3.243543	1.098942	-0.000130
 668	6.6367e+01	13.4242	46.602676	0.000284	2.838100	0.961574	-0.000114
 669	6.6466e+01	13.3841	46.461377	0.000355	3.547625	1.201968	-0.000142
 670	6.6566e+01	13.3504	46.287780	0.000436	4.358511	1.476703	-0.000174
 671	6.6665e+01	13.3023	46.166666	0.000304	3.040821	1.030258	-0.000122
 672	6.6764e+01	13.2622	46.017292	0.000375	3.750346	1.270652	-0.000150
 673	6.6864e+01	13.2157	45.904252	0.000284	2.838100	0.961574	-0.000114
 674	6.6963e+01	13.1756	45.750841	0.000385	3.851707	1.304994	-0.000154
 675	6.7063e+01	13.1483	45.609541	0.000355	3.547625	1.201968	-0.000142
 676	6.7162e+01	13.1066	45.488427	0.000304	3.040821	1.030258	-0.000122
 677	6.7262e+01	13.0585	45.355201	0.000334	3.344904	1.133284	-0.000134
 678	6.7362e+01	13.0232	45.221976	0.000334	3.344904	1.133284	-0.000134
 679	6.7461e+01	12.9863	45.072602	0.000375	3.750346	1.270652	-0.000150
 680	6.7561e+01	12.9510	44.947451	0.000314	3.142182	1.064600	-0.000126
 681	6.7660e+01	12.9093	44.830374	0.000294	2.939461	0.995916	-0.000118
 682	6.7760e+01	12.8643	44.676963	0.000385	3.851707	1.304994	-0.000154
 683	6.7859e+01	12.8210	44.523551	0.000385	3.851707	1.304994	-0.000154
 684	6.7959e+01	12.7841	44.414549	0.000274	2.736739	0.927232	-0.000110
 685	6.8058e+01	12.7392	44.285360	0.000324	3.243543	1.098942	-0.000130
 686	6.8157e+01	12.7023	44.135986	0.000375	3.750346	1.270652	-0.000150
 687	6.8257e+01	12.6606	43.962390	0.000436	4.358511	1.476703	-0.000174
 688	6.8356e+01	12.6237	43.845313	0.000294	2.939461	0.995916	-0.000118
 689	6.8456e+01	12.5900	43.704013	0.000355	3.547625	1.201968	-0.000142
 690	6.8555e+01	12.5579	43.595010	0.000274	2.736739	0.927232	-0.000110
 691	6.8655e+01	12.5130	43.449673	0.000365	3.648986	1.236310	-0.000146
 692	6.8754e+01	12.4649	43.336634	0.000284	2.838100	0.961574	-0.000114
 693	6.8854e+01	12.4296	43.183222	0.000385	3.851707	1.304994	-0.000154
 694	6.8954e+01	12.3943	43.054034	0.000324	3.243543	1.098942	-0.000130
 695	6.9053e+01	12.3462	42.884474	0.000426	4.257150	1.442361	-0.000170
 696	6.9153e+01	12.3109	42.771435	0.000284	2.838100	0.961574	-0.000114
 697	6.9252e+01	12.2628	42.638209	0.000334	3.344904	1.133284	-0.000134
 698	6.9352e+01	12.2339	42.529206	0.000274	2.736739	0.927232	-0.000110
 699	6.9451e+01	12.1970	42.375795	0.000385	3.851707	1.304994	-0.000154
 700	6.9550e+01	12.1424	42.210273	0.000416	4.155789	1.408020	-0.000166
 701	6.9650e+01	12.1152	42.085122	0.000314	3.142182	1.064600	-0.000126
 702	6.9749e+01	12.0622	41.959970	0.000314	3.142182	1.064600	-0.000126
 703	6.9849e+01	12.0382	41.834819	0.000314	3.142182	1.064600	-0.000126
 704	6.9948e+01	11.9900	41.645074	0.000476	4.763954	1.614071	-0.000191
 705	7.0048e+01	11.9419	41.568368	0.000193	1.925854	0.652497	-0.000077
 706	7.0147e+01	11.9178	41.439180	0.000324	3.243543	1.098942	-0.000130
 707	7.0247e+01	11.8729	41.281731	0.000395	3.953068	1.339336	-0.000158
 708	7.0347e+01	11.8312	41.116209	0.000416	4.155789	1.408020	-0.000166
 709	7.0446e+01	11.7927	41.011243	0.000264	2.635379	0.892890	-0.000105
 710	7.0546e+01	11.7494	40.853795	0.000395	3.953068	1.339336	-0.000158
 711	7.0645e+01	11.7093	40.752867	0.000253	2.534018	0.858548	-0.000101
 712	7.0745e+01	11.6676	40.619641	0.000334	3.344904	1.133284	-0.000134
 713	7.0844e+01	11.6307	40.490453	0.000324	3.243543	1.098942	-0.000130
 714	7.0944e+01	11.5858	40.357227	0.000334	3.344904	1.133284	-0.000134
 715	7.1043e+01	11.5553	40.236113	0.000304	3.040821	1.030258	-0.000122
 716	7.1142e+01	11.5088	40.066554	0.000426	4.257150	1.442361	-0.000170
 717	7.1242e+01	11.4671	39.961588	0.000264	2.635379	0.892890	-0.000105
 718	7.1341e+01	11.4462	39.808177	0.000385	3.851707	1.304994	-0.000154
 719	7.1441e+01	11.4013	39.683026	0.000314	3.142182	1.064600	-0.000126
 720	7.1540e+01	11.3499	39.545763	0.000345	3.446264	1.167626	-0.000138
 721	7.1640e+01	11.3147	39.412538	0.000334	3.344904	1.133284	-0.000134
 722	7.1740e+01	11.2681	39.255089	0.000395	3.953068	1.339336	-0.000158
 723	7.1839e+01	11.2360	39.129938	0.000314	3.142182	1.064600	-0.000126
 724	7.1939e+01	11.1991	38.992676	0.000345	3.446264	1.167626	-0.000138
 725	7.2038e+01	11.1446	38.851376	0.000355	3.547625	1.201968	-0.000142
 726	7.2138e+01	11.1157	38.746410	0.000264	2.635379	0.892890	-0.000105
 727	7.2237e+01	11.0740	38.605110	0.000355	3.547625	1.201968	-0.000142
 728	7.2337e+01	11.0371	38.475922	0.000324	3.243543	1.098942	-0.000130
 729	7.2436e+01	10.9922	38.334622	0.000355	3.547625	1.201968	-0.000142
 730	7.2535e+01	10.9633	38.193323	0.000355	3.547625	1.201968	-0.000142
 731	7.2635e+01	10.9168	38.072209	0.000304	3.040821	1.030258	-0.000122
 732	7.2734e+01	10.8687	37.918797	0.000385	3.851707	1.304994	-0.000154
 733	7.2834e+01	10.8254	37.785572	0.000334	3.344904	1.133284	-0.000134
 734	7.2933e+01	10.7933	37.684644	0.000253	2.534018	0.858548	-0.000101
 735	7.3033e+01	10.7532	37.502972	0.000456	4.561232	1.545387	-0.000183
 736	7.3132e+01	10.7211	37.377821	0.000314	3.142182	1.064600	-0.000126
 737	7.3232e+01	10.6778	37.240559	0.000345	3.446264	1.167626	-0.000138
 738	7.3332e+01	10.6280	37.111370	0.000324	3.243543	1.098942	-0.000130
 739	7.3431e+01	10.5911	36.953922	0.000395	3.953068	1.339336	-0.000158
 740	7.3531e+01	10.5623	36.800511	0.000385	3.851707	1.304994	-0.000154
 741	7.3630e+01	10.5157	36.691508	0.000274	2.736739	0.927232	-0.000110
 742	7.3730e+01	10.4805	36.574431	0.000294	2.939461	0.995916	-0.000118
 743	7.3829e+01	10.4291	36.421020	0.000385	3.851707	1.304994	-0.000154
 744	7.3928e+01	10.4034	36.283757	0.000345	3.446264	1.167626	-0.000138
 745	7.4028e+01	10.3537	36.174755	0.000274	2.736739	0.927232	-0.000110
 746	7.4127e+01	10.3152	36.037492	0.000345	3.446264	1.167626	-0.000138
 747	7.4227e+01	10.2735	35.920415	0.000294	2.939461	0.995916	-0.000118
 748	7.4326e+01	10.2478	35.775078	0.000365	3.648986	1.236310	-0.000146
 749	7.4426e+01	10.1869	35.621667	0.000385	3.851707	1.304994	-0.000154
 750	7.4525e+01	10.1500	35.492479	0.000324	3.243543	1.098942	-0.000130
 751	7.4625e+01	10.1163	35.343105	0.000375	3.750346	1.270652	-0.000150
 752	7.4725e+01	10.0778	35.234102	0.000274	2.736739	0.927232	-0.000110
 753	7.4824e+01	10.0345	35.092802	0.000355	3.547625	1.201968	-0.000142
 754	7.4924e+01	10.0024	34.959577	0.000334	3.344904	1.133284	-0.000134
 755	7.5023e+01	9.9623	34.842500	0.000294	2.939461	0.995916	-0.000118
 756	7.5123e+01	9.9238	34.668903	0.000436	4.358511	1.476703	-0.000174
 757	7.5222e+01	9.8757	34.572012	0.000243	2.432657	0.824207	-0.000097
 758	7.5322e+01	9.8372	34.442824	0.000324	3.243543	1.098942	-0.000130
 759	7.5421e+01	9.7954	34.273264	0.000426	4.257150	1.442361	-0.000170
 760	7.5520e+01	9.7569	34.148113	0.000314	3.142182	1.064600	-0.000126
 761	7.5620e+01	9.7217	34.051221	0.000243	2.432657	0.824207	-0.000097
 762	7.5719e+01	9.6767	33.889736	0.000405	4.054429	1.373678	-0.000162
 763	7.5819e+01	9.6463	33.752473	0.000345	3.446264	1.167626	-0.000138
 764	7.5918e+01	9.6061	33.619248	0.000334	3.344904	1.133284	-0.000134
 765	7.6018e+01	9.5548	33.490060	0.000324	3.243543	1.098942	-0.000130
 766	7.6118e+01	9.5227	33.328574	0.000405	4.054429	1.373678	-0.000162
 767	7.6217e+01	9.4778	33.227646	0.000253	2.534018	0.858548	-0.000101
 768	7.6317e+01	9.4441	33.066160	0.000405	4.054429	1.373678	-0.000162
 769	7.6416e+01	9.4024	32.936972	0.000324	3.243543	1.098942	-0.000130
 770	7.6516e+01	9.3687	32.799709	0.000345	3.446264	1.167626	-0.000138
 771	7.6615e+01	9.3270	32.666484	0.000334	3.344904	1.133284	-0.000134
 772	7.6715e+01	9.2773	32.529221	0.000345	3.446264	1.167626	-0.000138
 773	7.6814e+01	9.2404	32.404070	0.000314	3.142182	1.064600	-0.000126
 774	7.6913e+01	9.2051	32.214325	0.000476	4.763954	1.614071	-0.000191
 775	7.7013e+01	9.1570	32.169916	0.000111	1.114968	0.377761	-0.000045
 776	7.7112e+01	9.1201	31.959985	0.000527	5.270757	1.785781	-0.000211
 777	7.7212e+01	9.0800	31.846945	0.000284	2.838100	0.961574	-0.000114
 778	7.7311e+01	9.0382	31.713720	0.000334	3.344904	1.133284	-0.000134
 779	7.7411e+01	8.9997	31.560309	0.000385	3.851707	1.304994	-0.000154
 780	7.7510e+01	8.9612	31.423046	0.000345	3.446264	1.167626	-0.000138
 781	7.7610e+01	8.9211	31.265598	0.000395	3.953068	1.339336	-0.000158
 782	7.7710e+01	8.8794	31.160632	0.000264	2.635379	0.892890	-0.000105
 783	7.7809e+01	8.8457	30.982998	0.000446	4.459871	1.511045	-0.000179
 784	7.7909e+01	8.8121	30.841698	0.000355	3.547625	1.201968	-0.000142
 785	7.8008e+01	8.7591	30.752881	0.000223	2.229936	0.755523	-0.000089
 786	7.8108e+01	8.7254	30.538913	0.000537	5.372118	1.820123	-0.000215
 787	7.8207e+01	8.6869	30.466245	0.000182	1.824493	0.618155	-0.000073
 788	7.8306e+01	8.6436	30.300722	0.000416	4.155789	1.408020	-0.000166
 789	7.8406e+01	8.6051	30.131163	0.000426	4.257150	1.442361	-0.000170
 790	7.8505e+01	8.5650	29.993900	0.000345	3.446264	1.167626	-0.000138
 791	7.8605e+01	8.5233	29.876823	0.000294	2.939461	0.995916	-0.000118
 792	7.8704e+01	8.4800	29.687078	0.000476	4.763954	1.614071	-0.000191
 793	7.8804e+01	8.4479	29.582112	0.000264	2.635379	0.892890	-0.000105
 794	7.8903e+01	8.4014	29.448887	0.000334	3.344904	1.133284	-0.000134
 795	7.9003e+01	8.3629	29.295475	0.000385	3.851707	1.304994	-0.000154
 796	7.9103e+01	8.3212	29.142064	0.000385	3.851707	1.304994	-0.000154
 797	7.9202e+01	8.2843	29.016913	0.000314	3.142182	1.064600	-0.000126
 798	7.9302e+01	8.2345	28.855428	0.000405	4.054429	1.373678	-0.000162
 799	7.9401e+01	8.2121	28.738351	0.000294	2.939461	0.995916	-0.000118
 800	7.9501e+01	8.1655	28.580902	0.000395	3.953068	1.339336	-0.000158
 801	7.9600e+01	8.1222	28.443640	0.000345	3.446264	1.167626	-0.000138
 802	7.9700e+01	8.0918	28.322526	0.000304	3.040821	1.030258	-0.000122
 803	7.9799e+01	8.0404	28.169115	0.000385	3.851707	1.304994	-0.000154
 804	7.9898e+01	8.0099	28.003592	0.000416	4.155789	1.408020	-0.000166
 805	7.9998e+01	7.9650	27.894589	0.000274	2.736739	0.927232	-0.000110
 806	8.0097e+01	7.9249	27.720993	0.000436	4.358511	1.476703	-0.000174
 807	8.0197e+01	7.8928	27.599878	0.000304	3.040821	1.030258	-0.000122
 808	8.0296e+01	7.8463	27.418207	0.000456	4.561232	1.545387	-0.000183
 809	8.0396e+01	7.8030	27.305168	0.000284	2.838100	0.961574	-0.000114
 810	8.0496e+01	7.7709	27.135608	0.000426	4.257150	1.442361	-0.000170
 811	8.0595e+01	7.7292	27.010457	0.000314	3.142182	1.064600	-0.000126
 812	8.0695e+01	7.6811	26.861083	0.000375	3.750346	1.270652	-0.000150
 813	8.0794e+01	7.6426	26.707671	0.000385	3.851707	1.304994	-0.000154
 814	8.0894e+01	7.6057	26.574446	0.000334	3.344904	1.133284	-0.000134
 815	8.0993e+01	7.5688	26.433146	0.000355	3.547625	1.201968	-0.000142
 816	8.1093e+01	7.5206	26.275698	0.000395	3.953068	1.339336	-0.000158
 817	8.1192e+01	7.4902	26.166695	0.000274	2.736739	0.927232	-0.000110
 818	8.1291e+01	7.4372	26.021358	0.000365	3.648986	1.236310	-0.000146
 819	8.1391e+01	7.4116	25.884096	0.000345	3.446264	1.167626	-0.000138
 820	8.1490e+01	7.3731	25.710499	0.000436	4.358511	1.476703	-0.000174
 821	8.1590e+01	7.3346	25.565162	0.000365	3.648986	1.236310	-0.000146
 822	8.1689e+01	7.2848	25.387528	0.000446	4.459871	1.511045	-0.000179
 823	8.1789e+01	7.2527	25.298711	0.000223	2.229936	0.755523	-0.000089
 824	8.1888e+01	7.1982	25.133189	0.000416	4.155789	1.408020	-0.000166
 825	8.1988e+01	7.1693	24.995926	0.000345	3.446264	1.167626	-0.000138
 826	8.2088e+01	7.1244	24.826366	0.000426	4.257150	1.442361	-0.000170
 827	8.2187e+01	7.0939	24.681029	0.000365	3.648986	1.236310	-0.000146
 828	8.2287e+01	7.0490	24.531655	0.000375	3.750346	1.270652	-0.000150
 829	8.2386e+01	7.0009	24.418616	0.000284	2.838100	0.961574	-0.000114
 830	8.2486e+01	6.9624	24.240982	0.000446	4.459871	1.511045	-0.000179
 831	8.2585e+01	6.9367	24.095645	0.000365	3.648986	1.236310	-0.000146
 832	8.2684e+01	6.8870	23.966456	0.000324	3.243543	1.098942	-0.000130
 833	8.2784e+01	6.8485	23.800934	0.000416	4.155789	1.408020	-0.000166
 834	8.2883e+01	6.8148	23.651560	0.000375	3.750346	1.270652	-0.000150
 835	8.2983e+01	6.7779	23.510260	0.000355	3.547625	1.201968	-0.000142
 836	8.3082e+01	6.7282	23.360886	0.000375	3.750346	1.270652	-0.000150
 837	8.3182e+01	6.6848	23.239772	0.000304	3.040821	1.030258	-0.000122
 838	8.3281e+01	6.6592	23.074249	0.000416	4.155789	1.408020	-0.000166
 839	8.3381e+01	6.6126	22.912764	0.000405	4.054429	1.373678	-0.000162
 840	8.3481e+01	6.5677	22.775501	0.000345	3.446264	1.167626	-0.000138
 841	8.3580e+01	6.5260	22.642276	0.000334	3.344904	1.133284	-0.000134
 842	8.3680e+01	6.4939	22.444456	0.000497	4.966675	1.682755	-0.000199
 843	8.3779e+01	6.4474	22.311231	0.000334	3.344904	1.133284	-0.000134
 844	8.3879e+01	6.4105	22.182042	0.000324	3.243543	1.098942	-0.000130
 845	8.3978e+01	6.3624	22.024594	0.000395	3.953068	1.339336	-0.000158
 846	8.4078e+01	6.3255	21.879257	0.000365	3.648986	1.236310	-0.000146
 847	8.4177e+01	6.2982	21.741995	0.000345	3.446264	1.167626	-0.000138
 848	8.4276e+01	6.2549	21.604732	0.000345	3.446264	1.167626	-0.000138
 849	8.4376e+01	6.2180	21.439209	0.000416	4.155789	1.408020	-0.000166
 850	8.4475e+01	6.1747	21.305984	0.000334	3.344904	1.133284	-0.000134
 851	8.4575e+01	6.1490	21.168721	0.000345	3.446264	1.167626	-0.000138
 852	8.4674e+01	6.0913	20.995124	0.000436	4.358511	1.476703	-0.000174
 853	8.4774e+01	6.0480	20.825565	0.000426	4.257150	1.442361	-0.000170
 854	8.4874e+01	6.0095	20.696376	0.000324	3.243543	1.098942	-0.000130
 855	8.4973e+01	5.9774	20.547002	0.000375	3.750346	1.270652	-0.000150
 856	8.5073e+01	5.9308	20.409740	0.000345	3.446264	1.167626	-0.000138
 857	8.5172e+01	5.8956	20.276514	0.000334	3.344904	1.133284	-0.000134
 858	8.5272e+01	5.8426	20.127140	0.000375	3.750346	1.270652	-0.000150
 859	8.5371e+01	5.8186	19.973729	0.000385	3.851707	1.304994	-0.000154
 860	8.5471e+01	5.7640	19.852615	0.000304	3.040821	1.030258	-0.000122
 861	8.5570e+01	5.7367	19.695167	0.000395	3.953068	1.339336	-0.000158
 862	8.5669e+01	5.6982	19.553867	0.000355	3.547625	1.201968	-0.000142
 863	8.5769e+01	5.6517	19.376233	0.000446	4.459871	1.511045	-0.000179
 864	8.5868e+01	5.6132	19.210710	0.000416	4.155789	1.408020	-0.000166
 865	8.5968e+01	5.5795	19.117856	0.000233	2.331296	0.789865	-0.000093
 866	8.6067e+01	5.5314	18.960408	0.000395	3.953068	1.339336	-0.000158
 867	8.6167e+01	5.4897	18.806997	0.000385	3.851707	1.304994	-0.000154
 868	8.6266e+01	5.4496	18.677808	0.000324	3.243543	1.098942	-0.000130
 869	8.6366e+01	5.4303	18.528434	0.000375	3.750346	1.270652	-0.000150
 870	8.6466e+01	5.3742	18.362912	0.000416	4.155789	1.408020	-0.000166
 871	8.6565e+01	5.3357	18.245835	0.000294	2.939461	0.995916	-0.000118
 872	8.6665e+01	5.3004	18.104535	0.000355	3.547625	1.201968	-0.000142
 873	8.6764e+01	5.2571	17.959198	0.000365	3.648986	1.236310	-0.000146
 874	8.6864e+01	5.2170	17.789639	0.000426	4.257150	1.442361	-0.000170
 875	8.6963e+01	5.1817	17.656413	0.000334	3.344904	1.133284	-0.000134
 876	8.7063e+01	5.1351	17.531262	0.000314	3.142182	1.064600	-0.000126
 877	8.7162e+01	5.0966	17.321331	0.000527	5.270757	1.785781	-0.000211
 878	8.7261e+01	5.0630	17.220402	0.000253	2.534018	0.858548	-0.000101
 879	8.7361e+01	5.0164	17.071028	0.000375	3.750346	1.270652	-0.000150
 880	8.7460e+01	4.9844	16.925692	0.000365	3.648986	1.236310	-0.000146
 881	8.7560e+01	4.9282	16.792466	0.000334	3.344904	1.133284	-0.000134
 882	8.7659e+01	4.8977	16.663278	0.000324	3.243543	1.098942	-0.000130
 883	8.7759e+01	4.8624	16.481607	0.000456	4.561232	1.545387	-0.000183
 884	8.7859e+01	4.8191	16.344344	0.000345	3.446264	1.167626	-0.000138
 885	8.7958e+01	4.7662	16.211119	0.000334	3.344904	1.133284	-0.000134
 886	8.8058e+01	4.7389	16.057707	0.000385	3.851707	1.304994	-0.000154
 887	8.8157e+01	4.6972	15.928519	0.000324	3.243543	1.098942	-0.000130
 888	8.8257e+01	4.6619	15.771071	0.000395	3.953068	1.339336	-0.000158
 889	8.8356e+01	4.6202	15.605548	0.000416	4.155789	1.408020	-0.000166
 890	8.8456e+01	4.5737	15.512694	0.000233	2.331296	0.789865	-0.000093
 891	8.8555e+01	4.5464	15.302763	0.000527	5.270757	1.785781	-0.000211
 892	8.8654e+01	4.4967	15.213946	0.000223	2.229936	0.755523	-0.000089
 893	8.8754e+01	4.4534	15.044386	0.000426	4.257150	1.442361	-0.000170
 894	8.8853e+01	4.4197	14.874827	0.000426	4.257150	1.442361	-0.000170
 895	8.8953e+01	4.3812	14.761787	0.000284	2.838100	0.961574	-0.000114
 896	8.9052e+01	4.3539	14.656821	0.000264	2.635379	0.892890	-0.000105
 897	8.9152e+01	4.3026	14.459002	0.000497	4.966675	1.682755	-0.000199
 898	8.9251e+01	4.2721	14.362110	0.000243	2.432657	0.824207	-0.000097
 899	8.9351e+01	4.2175	14.160254	0.000507	5.068036	1.717097	-0.000203
 900	8.9451e+01	4.1806	14.035102	0.000314	3.142182	1.064600	-0.000126
 901	8.9550e+01	4.1373	13.861506	0.000436	4.358511	1.476703	-0.000174
 902	8.9650e+01	4.1052	13.760577	0.000253	2.534018	0.858548	-0.000101
 903	8.9749e+01	4.0539	13.586980	0.000436	4.358511	1.476703	-0.000174
 904	8.9849e+01	4.0266	13.425495	0.000405	4.054429	1.373678	-0.000162
 905	8.9948e+01	3.9849	13.381086	0.000111	1.114968	0.377761	-0.000045
 906	9.0047e+01	3.9384	13.199415	0.000456	4.561232	1.545387	-0.000183
 907	9.0147e+01	3.8951	13.029856	0.000426	4.257150	1.442361	-0.000170
 908	9.0246e+01	3.8614	12.908742	0.000304	3.040821	1.030258	-0.000122
 909	9.0346e+01	3.8277	12.763405	0.000365	3.648986	1.236310	-0.000146
 910	9.0445e+01	3.7764	12.654402	0.000274	2.736739	0.927232	-0.000110
 911	9.0545e+01	3.7379	12.452545	0.000507	5.068036	1.717097	-0.000203
 912	9.0644e+01	3.6962	12.339505	0.000284	2.838100	0.961574	-0.000114
 913	9.0744e+01	3.6625	12.202243	0.000345	3.446264	1.167626	-0.000138
 914	9.0844e+01	3.6240	12.073054	0.000324	3.243543	1.098942	-0.000130
 915	9.0943e+01	3.5806	11.883309	0.000476	4.763954	1.614071	-0.000191
 916	9.1043e+01	3.5389	11.774306	0.000274	2.736739	0.927232	-0.000110
 917	9.1142e+01	3.5101	11.628969	0.000365	3.648986	1.236310	-0.000146
 918	9.1242e+01	3.4603	11.491707	0.000345	3.446264	1.167626	-0.000138
 919	9.1341e+01	3.4234	11.350407	0.000355	3.547625	1.201968	-0.000142
 920	9.1441e+01	3.3849	11.160662	0.000476	4.763954	1.614071	-0.000191
 921	9.1540e+01	3.3464	11.031473	0.000324	3.243543	1.098942	-0.000130
 922	9.1639e+01	3.2999	10.910359	0.000304	3.040821	1.030258	-0.000122
 923	9.1739e+01	3.2678	10.748874	0.000405	4.054429	1.373678	-0.000162
 924	9.1838e+01	3.2229	10.635834	0.000284	2.838100	0.961574	-0.000114
 925	9.1938e+01	3.1844	10.490497	0.000365	3.648986	1.236310	-0.000146
 926	9.2037e+01	3.1379	10.345160	0.000365	3.648986	1.236310	-0.000146
 927	9.2137e+01	3.1090	10.183675	0.000405	4.054429	1.373678	-0.000162
 928	9.2237e+01	3.0593	10.062561	0.000304	3.040821	1.030258	-0.000122
 929	9.2336e+01	3.0224	9.937410	0.000314	3.142182	1.064600	-0.000126
 930	9.2436e+01	2.9887	9.788036	0.000375	3.750346	1.270652	-0.000150
 931	9.2535e+01	2.9486	9.650773	0.000345	3.446264	1.167626	-0.000138
 932	9.2635e+01	2.9101	9.465065	0.000466	4.662593	1.579729	-0.000187
 933	9.2734e+01	2.8668	9.331839	0.000334	3.344904	1.133284	-0.000134
 934	9.2834e+01	2.8315	9.206688	0.000314	3.142182	1.064600	-0.000126
 935	9.2933e+01	2.7866	9.069425	0.000345	3.446264	1.167626	-0.000138
 936	9.3032e+01	2.7384	8.924089	0.000365	3.648986	1.236310	-0.000146
 937	9.3132e+01	2.7128	8.778752	0.000365	3.648986	1.236310	-0.000146
 938	9.3231e+01	2.6598	8.633415	0.000365	3.648986	1.236310	-0.000146
 939	9.3331e+01	2.6374	8.492115	0.000355	3.547625	1.201968	-0.000142
 940	9.3430e+01	2.5940	8.350815	0.000355	3.547625	1.201968	-0.000142
 941	9.3530e+01	2.5491	8.237775	0.000284	2.838100	0.961574	-0.000114
 942	9.3629e+01	2.5106	8.035919	0.000507	5.068036	1.717097	-0.000203
 943	9.3729e+01	2.4657	7.902693	0.000334	3.344904	1.133284	-0.000134
 944	9.3829e+01	2.4368	7.753319	0.000375	3.750346	1.270652	-0.000150
 945	9.3928e+01	2.3935	7.599908	0.000385	3.851707	1.304994	-0.000154
 946	9.4028e+01	2.3470	7.478794	0.000304	3.040821	1.030258	-0.000122
 947	9.4127e+01	2.3133	7.297123	0.000456	4.561232	1.545387	-0.000183
 948	9.4227e+01	2.2636	7.147749	0.000375	3.750346	1.270652	-0.000150
 949	9.4326e+01	2.2219	7.058932	0.000223	2.229936	0.755523	-0.000089
 950	9.4425e+01	2.1898	6.885335	0.000436	4.358511	1.476703	-0.000174
 951	9.4525e+01	2.1465	6.756147	0.000324	3.243543	1.098942	-0.000130
 952	9.4624e+01	2.1128	6.610810	0.000365	3.648986	1.236310	-0.000146
 953	9.4724e+01	2.0743	6.445287	0.000416	4.155789	1.408020	-0.000166
 954	9.4823e+01	2.0294	6.312062	0.000334	3.344904	1.133284	-0.000134
 955	9.4923e+01	1.9828	6.134428	0.000446	4.459871	1.511045	-0.000179
 956	9.5022e+01	1.9491	5.964868	0.000426	4.257150	1.442361	-0.000170
 957	9.5122e+01	1.9058	5.892200	0.000182	1.824493	0.618155	-0.000073
 958	9.5222e+01	1.8705	5.694380	0.000497	4.966675	1.682755	-0.000199
 959	9.5321e+01	1.8288	5.577303	0.000294	2.939461	0.995916	-0.000118
 960	9.5421e+01	1.7903	5.468300	0.000274	2.736739	0.927232	-0.000110
 961	9.5520e+01	1.7518	5.282592	0.000466	4.662593	1.579729	-0.000187
 962	9.5620e+01	1.7101	5.141292	0.000355	3.547625	1.201968	-0.000142
 963	9.5719e+01	1.6748	4.983844	0.000395	3.953068	1.339336	-0.000158
 964	9.5819e+01	1.6331	4.842544	0.000355	3.547625	1.201968	-0.000142
 965	9.5918e+01	1.5946	4.701245	0.000355	3.547625	1.201968	-0.000142
 966	9.6017e+01	1.5529	4.535722	0.000416	4.155789	1.408020	-0.000166
 967	9.6117e+01	1.5112	4.394422	0.000355	3.547625	1.201968	-0.000142
 968	9.6216e+01	1.4695	4.257160	0.000345	3.446264	1.167626	-0.000138
 969	9.6316e+01	1.4326	4.103748	0.000385	3.851707	1.304994	-0.000154
 970	9.6415e+01	1.3925	3.950337	0.000385	3.851707	1.304994	-0.000154
 971	9.6515e+01	1.3572	3.800963	0.000375	3.750346	1.270652	-0.000150
 972	9.6615e+01	1.3123	3.639478	0.000405	4.054429	1.373678	-0.000162
 973	9.6714e+01	1.2706	3.482030	0.000395	3.953068	1.339336	-0.000158
 974	9.6814e+01	1.2353	3.312470	0.000426	4.257150	1.442361	-0.000170
 975	9.6913e+01	1.1952	3.231727	0.000203	2.027214	0.686839	-0.000081
 976	9.7013e+01	1.1615	3.058130	0.000436	4.358511	1.476703	-0.000174
 977	9.7112e+01	1.1230	2.932979	0.000314	3.142182	1.064600	-0.000126
 978	9.7212e+01	1.0620	2.751308	0.000456	4.561232	1.545387	-0.000183
 979	9.7311e+01	1.0251	2.654417	0.000243	2.432657	0.824207	-0.000097
 980	9.7410e+01	1.0026	2.472746	0.000456	4.561232	1.545387	-0.000183
 981	9.7510e+01	0.9593	2.291075	0.000456	4.561232	1.545387	-0.000183
 982	9.7609e+01	0.9064	2.165923	0.000314	3.142182	1.064600	-0.000126
 983	9.7709e+01	0.8759	2.016549	0.000375	3.750346	1.270652	-0.000150
 984	9.7808e+01	0.8374	1.907547	0.000274	2.736739	0.927232	-0.000110
 985	9.7908e+01	0.7909	1.750098	0.000395	3.953068	1.339336	-0.000158
 986	9.8007e+01	0.7540	1.612836	0.000345	3.446264	1.167626	-0.000138
 987	9.8107e+01	0.7091	1.410979	0.000507	5.068036	1.717097	-0.000203
 988	9.8207e+01	0.6786	1.277753	0.000334	3.344904	1.133284	-0.000134
 989	9.8306e+01	0.6417	1.128379	0.000375	3.750346	1.270652	-0.000150
 990	9.8406e+01	0.5984	0.991117	0.000345	3.446264	1.167626	-0.000138
 991	9.8505e+01	0.5470	0.817520	0.000436	4.358511	1.476703	-0.000174
 992	9.8605e+01	0.5166	0.712554	0.000264	2.635379	0.892890	-0.000105
 993	9.8704e+01	0.4765	0.530883	0.000456	4.561232	1.545387	-0.000183
 994	9.8803e+01	0.4380	0.361324	0.000426	4.257150	1.442361	-0.000170
 995	9.8903e+01	0.3962	0.252321	0.000274	2.736739	0.927232	-0.000110
 996	9.9002e+01	0.3577	0.078724	0.000436	4.358511	1.476703	-0.000174
 997	9.9102e+01	0.3192	-0.050464	0.000324	3.243543	1.098942	-0.000130
 998	9.9201e+01	0.2711	-0.203875	0.000385	3.851707	1.304994	-0.000154
 999	9.9301e+01	0.2326	-0.357287	0.000385	3.851707	1.304994	-0.000154
1000	9.9400e+01	0.1877	-0.522809	0.000416	4.155789	1.408020	-0.000166
1001	9.9500e+01	0.1556	-0.676220	0.000385	3.851707	1.304994	-0.000154
1002	9.9600e+01	0.1171	-0.821557	0.000365	3.648986	1.236310	-0.000146
1003	9.9699e+01	0.0738	-0.954783	0.000334	3.344904	1.133284	-0.000134
1004	9.9799e+01	0.0241	-1.136454	0.000456	4.561232	1.545387	-0.000183
1005	9.9898e+01	0.0048	-1.229308	0.000233	2.331296	0.789865	-0.000093
1006	9.9998e+01	-0.0321	-1.386756	0.000395	3.953068	1.339336	-0.000158
1007	1.0010e+02	-0.0722	-1.548242	0.000405	4.054429	1.373678	-0.000162
1008	1.0020e+02	-0.1155	-1.665318	0.000294	2.939461	0.995916	-0.000118
1009	1.0030e+02	-0.1604	-1.806618	0.000355	3.547625	1.201968	-0.000142
1010	1.0040e+02	-0.1973	-1.996364	0.000476	4.763954	1.614071	-0.000191
1011	1.0050e+02	-0.2326	-2.097292	0.000253	2.534018	0.858548	-0.000101
1012	1.0059e+02	-0.2727	-2.291075	0.000487	4.865314	1.648413	-0.000195
1013	1.0069e+02	-0.3096	-2.412189	0.000304	3.040821	1.030258	-0.000122
1014	1.0079e+02	-0.3513	-2.589823	0.000446	4.459871	1.511045	-0.000179
1015	1.0089e+02	-0.3930	-2.755345	0.000416	4.155789	1.408020	-0.000166
1016	1.0099e+02	-0.4380	-2.892608	0.000345	3.446264	1.167626	-0.000138
1017	1.0109e+02	-0.4684	-3.017759	0.000314	3.142182	1.064600	-0.000126
1018	1.0119e+02	-0.5085	-3.195393	0.000446	4.459871	1.511045	-0.000179
1019	1.0129e+02	-0.5486	-3.324581	0.000324	3.243543	1.098942	-0.000130
1020	1.0139e+02	-0.5968	-3.469918	0.000365	3.648986	1.236310	-0.000146
1021	1.0149e+02	-0.6369	-3.623329	0.000385	3.851707	1.304994	-0.000154
1022	1.0159e+02	-0.6706	-3.748481	0.000314	3.142182	1.064600	-0.000126
1023	1.0169e+02	-0.7235	-3.869595	0.000304	3.040821	1.030258	-0.000122
1024	1.0179e+02	-0.7620	-4.047229	0.000446	4.459871	1.511045	-0.000179
1025	1.0189e+02	-0.7941	-4.216788	0.000426	4.257150	1.442361	-0.000170
1026	1.0199e+02	-0.8342	-4.362125	0.000365	3.648986	1.236310	-0.000146
1027	1.0209e+02	-0.8695	-4.491314	0.000324	3.243543	1.098942	-0.000130
1028	1.0219e+02	-0.9112	-4.677022	0.000466	4.662593	1.579729	-0.000187
1029	1.0229e+02	-0.9609	-4.802173	0.000314	3.142182	1.064600	-0.000126
1030	1.0239e+02	-0.9882	-4.959621	0.000395	3.953068	1.339336	-0.000158
1031	1.0248e+02	-1.0428	-5.108995	0.000375	3.750346	1.270652	-0.000150
1032	1.0258e+02	-1.0716	-5.250295	0.000355	3.547625	1.201968	-0.000142
1033	1.0268e+02	-1.1133	-5.351223	0.000253	2.534018	0.858548	-0.000101
1034	1.0278e+02	-1.1599	-5.512709	0.000405	4.054429	1.373678	-0.000162
1035	1.0288e+02	-1.1903	-5.674194	0.000405	4.054429	1.373678	-0.000162
1036	1.0298e+02	-1.2256	-5.819531	0.000365	3.648986	1.236310	-0.000146
1037	1.0308e+02	-1.2722	-5.928534	0.000274	2.736739	0.927232	-0.000110
1038	1.0318e+02	-1.3074	-6.081945	0.000385	3.851707	1.304994	-0.000154
1039	1.0328e+02	-1.3588	-6.251505	0.000426	4.257150	1.442361	-0.000170
1040	1.0338e+02	-1.3861	-6.380693	0.000324	3.243543	1.098942	-0.000130
1041	1.0348e+02	-1.4422	-6.526030	0.000365	3.648986	1.236310	-0.000146
1042	1.0358e+02	-1.4743	-6.691552	0.000416	4.155789	1.408020	-0.000166
1043	1.0368e+02	-1.5016	-6.844964	0.000385	3.851707	1.304994	-0.000154
1044	1.0378e+02	-1.5481	-6.941855	0.000243	2.432657	0.824207	-0.000097
1045	1.0388e+02	-1.5898	-7.087192	0.000365	3.648986	1.236310	-0.000146
1046	1.0398e+02	-1.6363	-7.228492	0.000355	3.547625	1.201968	-0.000142
1047	1.0408e+02	-1.6684	-7.353643	0.000314	3.142182	1.064600	-0.000126
1048	1.0418e+02	-1.7197	-7.498980	0.000365	3.648986	1.236310	-0.000146
1049	1.0428e+02	-1.7438	-7.660465	0.000405	4.054429	1.373678	-0.000162
1050	1.0438e+02	-1.7775	-7.825988	0.000416	4.155789	1.408020	-0.000166
1051	1.0447e+02	-1.8304	-7.939027	0.000284	2.838100	0.961574	-0.000114
1052	1.0457e+02	-1.8529	-8.112624	0.000436	4.358511	1.476703	-0.000174
1053	1.0467e+02	-1.9058	-8.241813	0.000324	3.243543	1.098942	-0.000130
1054	1.0477e+02	-1.9475	-8.362927	0.000304	3.040821	1.030258	-0.000122
1055	1.0487e+02	-1.9941	-8.524412	0.000405	4.054429	1.373678	-0.000162
1056	1.0497e+02	-2.0245	-8.661675	0.000345	3.446264	1.167626	-0.000138
1057	1.0507e+02	-2.0663	-8.819123	0.000395	3.953068	1.339336	-0.000158
1058	1.0517e+02	-2.1112	-8.960423	0.000355	3.547625	1.201968	-0.000142
1059	1.0527e+02	-2.1417	-9.089611	0.000324	3.243543	1.098942	-0.000130
1060	1.0537e+02	-2.1866	-9.238985	0.000375	3.750346	1.270652	-0.000150
1061	1.0547e+02	-2.2299	-9.388359	0.000375	3.750346	1.270652	-0.000150
1062	1.0557e+02	-2.2652	-9.509473	0.000304	3.040821	1.030258	-0.000122
1063	1.0567e+02	-2.2989	-9.654810	0.000365	3.648986	1.236310	-0.000146
1064	1.0577e+02	-2.3390	-9.775924	0.000304	3.040821	1.030258	-0.000122
1065	1.0587e+02	-2.3903	-9.925298	0.000375	3.750346	1.270652	-0.000150
1066	1.0597e+02	-2.4432	-10.070635	0.000365	3.648986	1.236310	-0.000146
1067	1.0607e+02	-2.4657	-10.183675	0.000284	2.838100	0.961574	-0.000114
1068	1.0617e+02	-2.5122	-10.349197	0.000416	4.155789	1.408020	-0.000166
1069	1.0627e+02	-2.5491	-10.470312	0.000304	3.040821	1.030258	-0.000122
1070	1.0637e+02	-2.5892	-10.643908	0.000436	4.358511	1.476703	-0.000174
1071	1.0647e+02	-2.6277	-10.793282	0.000375	3.750346	1.270652	-0.000150
1072	1.0656e+02	-2.6598	-10.878062	0.000213	2.128575	0.721181	-0.000085
1073	1.0666e+02	-2.7079	-11.087993	0.000527	5.270757	1.785781	-0.000211
1074	1.0676e+02	-2.7416	-11.229293	0.000355	3.547625	1.201968	-0.000142
1075	1.0686e+02	-2.7946	-11.346370	0.000294	2.939461	0.995916	-0.000118
1076	1.0696e+02	-2.8283	-11.487670	0.000355	3.547625	1.201968	-0.000142
1077	1.0706e+02	-2.8603	-11.572450	0.000213	2.128575	0.721181	-0.000085
1078	1.0716e+02	-2.9005	-11.782381	0.000527	5.270757	1.785781	-0.000211
1079	1.0726e+02	-2.9422	-11.903495	0.000304	3.040821	1.030258	-0.000122
1080	1.0736e+02	-2.9823	-12.048832	0.000365	3.648986	1.236310	-0.000146
1081	1.0746e+02	-3.0192	-12.178020	0.000324	3.243543	1.098942	-0.000130
1082	1.0756e+02	-3.0737	-12.303171	0.000314	3.142182	1.064600	-0.000126
1083	1.0766e+02	-3.1042	-12.440434	0.000345	3.446264	1.167626	-0.000138
1084	1.0776e+02	-3.1459	-12.593845	0.000385	3.851707	1.304994	-0.000154
1085	1.0786e+02	-3.1828	-12.743219	0.000375	3.750346	1.270652	-0.000150
1086	1.0796e+02	-3.2261	-12.840110	0.000243	2.432657	0.824207	-0.000097
1087	1.0806e+02	-3.2534	-12.973336	0.000334	3.344904	1.133284	-0.000134
1088	1.0816e+02	-3.3047	-13.134821	0.000405	4.054429	1.373678	-0.000162
1089	1.0826e+02	-3.3416	-13.268047	0.000334	3.344904	1.133284	-0.000134
1090	1.0836e+02	-3.3817	-13.377049	0.000274	2.736739	0.927232	-0.000110
1091	1.0845e+02	-3.4218	-13.538535	0.000405	4.054429	1.373678	-0.000162
1092	1.0855e+02	-3.4667	-13.667723	0.000324	3.243543	1.098942	-0.000130
1093	1.0865e+02	-3.4972	-13.784800	0.000294	2.939461	0.995916	-0.000118
1094	1.0875e+02	-3.5486	-13.982620	0.000497	4.966675	1.682755	-0.000199
1095	1.0885e+02	-3.5806	-14.079511	0.000243	2.432657	0.824207	-0.000097
1096	1.0895e+02	-3.6143	-14.168328	0.000223	2.229936	0.755523	-0.000089
1097	1.0905e+02	-3.6657	-14.313665	0.000365	3.648986	1.236310	-0.000146
1098	1.0915e+02	-3.6929	-14.479187	0.000416	4.155789	1.408020	-0.000166
1099	1.0925e+02	-3.7443	-14.636636	0.000395	3.953068	1.339336	-0.000158
1100	1.0935e+02	-3.7876	-14.749675	0.000284	2.838100	0.961574	-0.000114
1101	1.0945e+02	-3.8277	-14.923272	0.000436	4.358511	1.476703	-0.000174
1102	1.0955e+02	-3.8566	-15.048423	0.000314	3.142182	1.064600	-0.000126
1103	1.0965e+02	-3.9031	-15.181649	0.000334	3.344904	1.133284	-0.000134
1104	1.0975e+02	-3.9400	-15.310837	0.000324	3.243543	1.098942	-0.000130
1105	1.0985e+02	-3.9817	-15.460211	0.000375	3.750346	1.270652	-0.000150
1106	1.0995e+02	-4.0250	-15.573251	0.000284	2.838100	0.961574	-0.000114
1107	1.1005e+02	-4.0555	-15.718588	0.000365	3.648986	1.236310	-0.000146
1108	1.1015e+02	-4.0988	-15.855851	0.000345	3.446264	1.167626	-0.000138
1109	1.1025e+02	-4.1389	-15.956779	0.000253	2.534018	0.858548	-0.000101
1110	1.1035e+02	-4.1742	-16.138450	0.000456	4.561232	1.545387	-0.000183
1111	1.1044e+02	-4.2175	-16.215156	0.000193	1.925854	0.652497	-0.000077
1112	1.1054e+02	-4.2512	-16.412975	0.000497	4.966675	1.682755	-0.000199
1113	1.1064e+02	-4.2929	-16.546201	0.000334	3.344904	1.133284	-0.000134
1114	1.1074e+02	-4.3362	-16.703649	0.000395	3.953068	1.339336	-0.000158
1115	1.1084e+02	-4.3731	-16.816689	0.000284	2.838100	0.961574	-0.000114
1116	1.1094e+02	-4.4132	-16.901469	0.000213	2.128575	0.721181	-0.000085
1117	1.1104e+02	-4.4469	-17.091214	0.000476	4.763954	1.614071	-0.000191
1118	1.1114e+02	-4.4935	-17.232514	0.000355	3.547625	1.201968	-0.000142
1119	1.1124e+02	-4.5448	-17.357665	0.000314	3.142182	1.064600	-0.000126
1120	1.1134e+02	-4.5656	-17.503002	0.000365	3.648986	1.236310	-0.000146
1121	1.1144e+02	-4.6154	-17.648339	0.000365	3.648986	1.236310	-0.000146
1122	1.1154e+02	-4.6539	-17.765416	0.000294	2.939461	0.995916	-0.000118
1123	1.1164e+02	-4.6924	-17.939013	0.000436	4.358511	1.476703	-0.000174
1124	1.1174e+02	-4.7293	-18.048015	0.000274	2.736739	0.927232	-0.000110
1125	1.1184e+02	-4.7726	-18.169129	0.000304	3.040821	1.030258	-0.000122
1126	1.1194e+02	-4.8239	-18.314466	0.000365	3.648986	1.236310	-0.000146
1127	1.1204e+02	-4.8576	-18.492100	0.000446	4.459871	1.511045	-0.000179
1128	1.1214e+02	-4.8945	-18.633400	0.000355	3.547625	1.201968	-0.000142
1129	1.1224e+02	-4.9378	-18.710106	0.000193	1.925854	0.652497	-0.000077
1130	1.1234e+02	-4.9747	-18.875628	0.000416	4.155789	1.408020	-0.000166
1131	1.1244e+02	-5.0180	-19.037114	0.000405	4.054429	1.373678	-0.000162
1132	1.1253e+02	-5.0710	-19.162265	0.000314	3.142182	1.064600	-0.000126
1133	1.1263e+02	-5.0983	-19.287416	0.000314	3.142182	1.064600	-0.000126
1134	1.1273e+02	-5.1384	-19.420641	0.000334	3.344904	1.133284	-0.000134
1135	1.1283e+02	-5.1785	-19.561941	0.000355	3.547625	1.201968	-0.000142
1136	1.1293e+02	-5.2073	-19.723427	0.000405	4.054429	1.373678	-0.000162
1137	1.1303e+02	-5.2555	-19.860689	0.000345	3.446264	1.167626	-0.000138
1138	1.1313e+02	-5.3004	-20.006026	0.000365	3.648986	1.236310	-0.000146
1139	1.1323e+02	-5.3373	-20.119066	0.000284	2.838100	0.961574	-0.000114
1140	1.1333e+02	-5.3710	-20.276514	0.000395	3.953068	1.339336	-0.000158
1141	1.1343e+02	-5.4143	-20.421851	0.000365	3.648986	1.236310	-0.000146
1142	1.1353e+02	-5.4448	-20.542965	0.000304	3.040821	1.030258	-0.000122
1143	1.1363e+02	-5.4961	-20.684265	0.000355	3.547625	1.201968	-0.000142
1144	1.1373e+02	-5.5346	-20.845750	0.000405	4.054429	1.373678	-0.000162
1145	1.1383e+02	-5.5747	-21.003199	0.000395	3.953068	1.339336	-0.000158
1146	1.1393e+02	-5.6100	-21.063756	0.000152	1.520411	0.515129	-0.000061
1147	1.1403e+02	-5.6453	-21.225241	0.000405	4.054429	1.373678	-0.000162
1148	1.1413e+02	-5.6982	-21.362504	0.000345	3.446264	1.167626	-0.000138
1149	1.1423e+02	-5.7287	-21.532063	0.000426	4.257150	1.442361	-0.000170
1150	1.1433e+02	-5.7752	-21.661252	0.000324	3.243543	1.098942	-0.000130
1151	1.1442e+02	-5.8169	-21.782366	0.000304	3.040821	1.030258	-0.000122
1152	1.1452e+02	-5.8490	-21.955963	0.000436	4.358511	1.476703	-0.000174
1153	1.1462e+02	-5.8956	-22.073040	0.000294	2.939461	0.995916	-0.000118
1154	1.1472e+02	-5.9341	-22.214339	0.000355	3.547625	1.201968	-0.000142
1155	1.1482e+02	-5.9742	-22.323342	0.000274	2.736739	0.927232	-0.000110
1156	1.1492e+02	-6.0175	-22.500976	0.000446	4.459871	1.511045	-0.000179
1157	1.1502e+02	-6.0528	-22.626127	0.000314	3.142182	1.064600	-0.000126
1158	1.1512e+02	-6.0929	-22.767427	0.000355	3.547625	1.201968	-0.000142
1159	1.1522e+02	-6.1298	-22.912764	0.000365	3.648986	1.236310	-0.000146
1160	1.1532e+02	-6.1747	-23.033878	0.000304	3.040821	1.030258	-0.000122
1161	1.1542e+02	-6.2068	-23.163066	0.000324	3.243543	1.098942	-0.000130
1162	1.1552e+02	-6.2565	-23.292255	0.000324	3.243543	1.098942	-0.000130
1163	1.1562e+02	-6.2902	-23.457777	0.000416	4.155789	1.408020	-0.000166
1164	1.1572e+02	-6.3287	-23.615225	0.000395	3.953068	1.339336	-0.000158
1165	1.1582e+02	-6.3656	-23.760562	0.000365	3.648986	1.236310	-0.000146
1166	1.1592e+02	-6.4169	-23.873602	0.000284	2.838100	0.961574	-0.000114
1167	1.1602e+02	-6.4506	-23.958382	0.000213	2.128575	0.721181	-0.000085
1168	1.1612e+02	-6.4843	-24.091608	0.000334	3.344904	1.133284	-0.000134
1169	1.1622e+02	-6.5228	-24.224833	0.000334	3.344904	1.133284	-0.000134
1170	1.1632e+02	-6.5645	-24.394393	0.000426	4.257150	1.442361	-0.000170
1171	1.1642e+02	-6.6062	-24.507432	0.000284	2.838100	0.961574	-0.000114
1172	1.1651e+02	-6.6463	-24.668918	0.000405	4.054429	1.373678	-0.000162
1173	1.1661e+02	-6.6864	-24.741586	0.000182	1.824493	0.618155	-0.000073
1174	1.1671e+02	-6.7217	-24.951517	0.000527	5.270757	1.785781	-0.000211
1175	1.1681e+02	-6.7699	-25.080706	0.000324	3.243543	1.098942	-0.000130
1176	1.1691e+02	-6.8036	-25.262377	0.000456	4.561232	1.545387	-0.000183
1177	1.1701e+02	-6.8485	-25.343120	0.000203	2.027214	0.686839	-0.000081
1178	1.1711e+02	-6.8757	-25.520754	0.000446	4.459871	1.511045	-0.000179
1179	1.1721e+02	-6.9303	-25.641868	0.000304	3.040821	1.030258	-0.000122
1180	1.1731e+02	-6.9576	-25.807390	0.000416	4.155789	1.408020	-0.000166
1181	1.1741e+02	-7.0041	-25.928504	0.000304	3.040821	1.030258	-0.000122
1182	1.1751e+02	-7.0538	-26.053655	0.000314	3.142182	1.064600	-0.000126
1183	1.1761e+02	-7.0811	-26.182844	0.000324	3.243543	1.098942	-0.000130
1184	1.1771e+02	-7.1308	-26.307995	0.000314	3.142182	1.064600	-0.000126
1185	1.1781e+02	-7.1581	-26.485629	0.000446	4.459871	1.511045	-0.000179
1186	1.1791e+02	-7.2014	-26.590595	0.000264	2.635379	0.892890	-0.000105
1187	1.1801e+02	-7.2447	-26.695560	0.000264	2.635379	0.892890	-0.000105
1188	1.1811e+02	-7.2816	-26.853008	0.000395	3.953068	1.339336	-0.000158
1189	1.1821e+02	-7.3329	-26.994308	0.000355	3.547625	1.201968	-0.000142
1190	1.1831e+02	-7.3666	-27.123496	0.000324	3.243543	1.098942	-0.000130
1191	1.1841e+02	-7.4051	-27.297093	0.000436	4.358511	1.476703	-0.000174
1192	1.1850e+02	-7.4436	-27.406096	0.000274	2.736739	0.927232	-0.000110
1193	1.1860e+02	-7.4837	-27.535284	0.000324	3.243543	1.098942	-0.000130
1194	1.1870e+02	-7.5206	-27.696770	0.000405	4.054429	1.373678	-0.000162
1195	1.1880e+02	-7.5656	-27.821921	0.000314	3.142182	1.064600	-0.000126
1196	1.1890e+02	-7.6009	-27.886515	0.000162	1.621771	0.549471	-0.000065
1197	1.1900e+02	-7.6394	-28.084335	0.000497	4.966675	1.682755	-0.000199
1198	1.1910e+02	-7.6859	-28.201412	0.000294	2.939461	0.995916	-0.000118
1199	1.1920e+02	-7.7212	-28.318489	0.000294	2.939461	0.995916	-0.000118
1200	1.1930e+02	-7.7677	-28.479974	0.000405	4.054429	1.373678	-0.000162
1201	1.1940e+02	-7.7950	-28.605125	0.000314	3.142182	1.064600	-0.000126
1202	1.1950e+02	-7.8367	-28.746425	0.000355	3.547625	1.201968	-0.000142
1203	1.1960e+02	-7.8768	-28.879651	0.000334	3.344904	1.133284	-0.000134
1204	1.1970e+02	-7.9169	-28.976542	0.000243	2.432657	0.824207	-0.000097
1205	1.1980e+02	-7.9586	-29.097656	0.000304	3.040821	1.030258	-0.000122
1206	1.1990e+02	-7.9971	-29.259141	0.000405	4.054429	1.373678	-0.000162
1207	1.2000e+02	-8.0420	-29.400441	0.000355	3.547625	1.201968	-0.000142
1208	1.2010e+02	-8.0837	-29.533666	0.000334	3.344904	1.133284	-0.000134
1209	1.2020e+02	-8.1238	-29.634595	0.000253	2.534018	0.858548	-0.000101
1210	1.2030e+02	-8.1623	-29.788006	0.000385	3.851707	1.304994	-0.000154
1211	1.2039e+02	-8.1960	-29.876823	0.000223	2.229936	0.755523	-0.000089
1212	1.2049e+02	-8.2458	-30.014086	0.000345	3.446264	1.167626	-0.000138
1213	1.2059e+02	-8.2827	-30.175571	0.000405	4.054429	1.373678	-0.000162
1214	1.2069e+02	-8.3228	-30.288611	0.000284	2.838100	0.961574	-0.000114
1215	1.2079e+02	-8.3581	-30.401651	0.000284	2.838100	0.961574	-0.000114
1216	1.2089e+02	-8.4046	-30.567173	0.000416	4.155789	1.408020	-0.000166
1217	1.2099e+02	-8.4399	-30.672139	0.000264	2.635379	0.892890	-0.000105
1218	1.2109e+02	-8.4800	-30.813439	0.000355	3.547625	1.201968	-0.000142
1219	1.2119e+02	-8.5169	-30.934553	0.000304	3.040821	1.030258	-0.000122
1220	1.2129e+02	-8.5586	-31.039518	0.000264	2.635379	0.892890	-0.000105
1221	1.2139e+02	-8.6035	-31.168706	0.000324	3.243543	1.098942	-0.000130
1222	1.2149e+02	-8.6340	-31.285783	0.000294	2.939461	0.995916	-0.000118
1223	1.2159e+02	-8.6821	-31.439195	0.000385	3.851707	1.304994	-0.000154
1224	1.2169e+02	-8.7174	-31.540123	0.000253	2.534018	0.858548	-0.000101
1225	1.2179e+02	-8.7671	-31.685460	0.000365	3.648986	1.236310	-0.000146
1226	1.2189e+02	-8.8040	-31.879242	0.000487	4.865314	1.648413	-0.000195
1227	1.2199e+02	-8.8361	-31.935762	0.000142	1.419050	0.480787	-0.000057
1228	1.2209e+02	-8.8682	-32.056876	0.000304	3.040821	1.030258	-0.000122
1229	1.2219e+02	-8.9260	-32.182028	0.000314	3.142182	1.064600	-0.000126
1230	1.2229e+02	-8.9548	-32.291030	0.000274	2.736739	0.927232	-0.000110
1231	1.2239e+02	-8.9901	-32.456553	0.000416	4.155789	1.408020	-0.000166
1232	1.2248e+02	-9.0366	-32.549407	0.000233	2.331296	0.789865	-0.000093
1233	1.2258e+02	-9.0735	-32.706855	0.000395	3.953068	1.339336	-0.000158
1234	1.2268e+02	-9.1136	-32.819895	0.000284	2.838100	0.961574	-0.000114
1235	1.2278e+02	-9.1505	-32.969269	0.000375	3.750346	1.270652	-0.000150
1236	1.2288e+02	-9.1971	-33.086346	0.000294	2.939461	0.995916	-0.000118
1237	1.2298e+02	-9.2388	-33.207460	0.000304	3.040821	1.030258	-0.000122
1238	1.2308e+02	-9.2741	-33.316463	0.000274	2.736739	0.927232	-0.000110
1239	1.2318e+02	-9.3158	-33.473911	0.000395	3.953068	1.339336	-0.000158
1240	1.2328e+02	-9.3495	-33.611174	0.000345	3.446264	1.167626	-0.000138
1241	1.2338e+02	-9.4024	-33.695953	0.000213	2.128575	0.721181	-0.000085
1242	1.2348e+02	-9.4313	-33.821105	0.000314	3.142182	1.064600	-0.000126
1243	1.2358e+02	-9.4858	-33.950293	0.000324	3.243543	1.098942	-0.000130
1244	1.2368e+02	-9.5163	-34.079481	0.000324	3.243543	1.098942	-0.000130
1245	1.2378e+02	-9.5596	-34.228855	0.000375	3.750346	1.270652	-0.000150
1246	1.2388e+02	-9.5997	-34.333821	0.000264	2.635379	0.892890	-0.000105
1247	1.2398e+02	-9.6238	-34.422638	0.000223	2.229936	0.755523	-0.000089
1248	1.2408e+02	-9.6623	-34.539715	0.000294	2.939461	0.995916	-0.000118
1249	1.2418e+02	-9.7200	-34.685052	0.000365	3.648986	1.236310	-0.000146
1250	1.2428e+02	-9.7425	-34.834426	0.000375	3.750346	1.270652	-0.000150
1251	1.2438e+02	-9.7922	-34.927280	0.000233	2.331296	0.789865	-0.000093
1252	1.2447e+02	-9.8211	-35.056468	0.000324	3.243543	1.098942	-0.000130
1253	1.2457e+02	-9.8724	-35.157397	0.000253	2.534018	0.858548	-0.000101
1254	1.2467e+02	-9.9222	-35.298696	0.000355	3.547625	1.201968	-0.000142
1255	1.2477e+02	-9.9623	-35.395588	0.000243	2.432657	0.824207	-0.000097
1256	1.2487e+02	-9.9863	-35.536887	0.000355	3.547625	1.201968	-0.000142
1257	1.2497e+02	-10.0281	-35.678187	0.000355	3.547625	1.201968	-0.000142
1258	1.2507e+02	-10.0730	-35.783153	0.000264	2.635379	0.892890	-0.000105
1259	1.2517e+02	-10.1083	-35.892155	0.000274	2.736739	0.927232	-0.000110
1260	1.2527e+02	-10.1532	-36.053641	0.000405	4.054429	1.373678	-0.000162
1261	1.2537e+02	-10.1917	-36.138421	0.000213	2.128575	0.721181	-0.000085
1262	1.2547e+02	-10.2334	-36.255497	0.000294	2.939461	0.995916	-0.000118
1263	1.2557e+02	-10.2671	-36.368537	0.000284	2.838100	0.961574	-0.000114
1264	1.2567e+02	-10.3120	-36.505800	0.000345	3.446264	1.167626	-0.000138
1265	1.2577e+02	-10.3537	-36.626914	0.000304	3.040821	1.030258	-0.000122
1266	1.2587e+02	-10.3794	-36.760139	0.000334	3.344904	1.133284	-0.000134
1267	1.2597e+02	-10.4339	-36.844919	0.000213	2.128575	0.721181	-0.000085
1268	1.2607e+02	-10.4644	-36.978145	0.000334	3.344904	1.133284	-0.000134
1269	1.2617e+02	-10.5109	-37.115407	0.000345	3.446264	1.167626	-0.000138
1270	1.2627e+02	-10.5510	-37.256707	0.000355	3.547625	1.201968	-0.000142
1271	1.2636e+02	-10.5927	-37.337450	0.000203	2.027214	0.686839	-0.000081
1272	1.2646e+02	-10.6280	-37.478750	0.000355	3.547625	1.201968	-0.000142
1273	1.2656e+02	-10.6698	-37.620049	0.000355	3.547625	1.201968	-0.000142
1274	1.2666e+02	-10.7147	-37.700792	0.000203	2.027214	0.686839	-0.000081
1275	1.2676e+02	-10.7564	-37.854203	0.000385	3.851707	1.304994	-0.000154
1276	1.2686e+02	-10.7820	-37.963206	0.000274	2.736739	0.927232	-0.000110
1277	1.2696e+02	-10.8286	-38.072209	0.000274	2.736739	0.927232	-0.000110
1278	1.2706e+02	-10.8687	-38.152951	0.000203	2.027214	0.686839	-0.000081
1279	1.2716e+02	-10.9104	-38.326548	0.000436	4.358511	1.476703	-0.000174
1280	1.2726e+02	-10.9537	-38.459774	0.000334	3.344904	1.133284	-0.000134
1281	1.2736e+02	-10.9906	-38.512256	0.000132	1.317689	0.446445	-0.000053
1282	1.2746e+02	-11.0355	-38.685853	0.000436	4.358511	1.476703	-0.000174
1283	1.2756e+02	-11.0676	-38.794856	0.000274	2.736739	0.927232	-0.000110
1284	1.2766e+02	-11.0965	-38.932118	0.000345	3.446264	1.167626	-0.000138
1285	1.2776e+02	-11.1462	-39.069381	0.000345	3.446264	1.167626	-0.000138
1286	1.2786e+02	-11.1927	-39.158198	0.000223	2.229936	0.755523	-0.000089
1287	1.2796e+02	-11.2280	-39.295461	0.000345	3.446264	1.167626	-0.000138
1288	1.2806e+02	-11.2697	-39.416575	0.000304	3.040821	1.030258	-0.000122
1289	1.2816e+02	-11.3082	-39.557875	0.000355	3.547625	1.201968	-0.000142
1290	1.2826e+02	-11.3467	-39.703211	0.000365	3.648986	1.236310	-0.000146
1291	1.2835e+02	-11.3868	-39.751657	0.000122	1.216329	0.412103	-0.000049
1292	1.2845e+02	-11.4270	-39.892957	0.000355	3.547625	1.201968	-0.000142
1293	1.2855e+02	-11.4719	-40.030219	0.000345	3.446264	1.167626	-0.000138
1294	1.2865e+02	-11.4975	-40.191705	0.000405	4.054429	1.373678	-0.000162
1295	1.2875e+02	-11.5521	-40.292633	0.000253	2.534018	0.858548	-0.000101
1296	1.2885e+02	-11.5874	-40.361265	0.000172	1.723132	0.583813	-0.000069
1297	1.2895e+02	-11.6259	-40.498527	0.000345	3.446264	1.167626	-0.000138
1298	1.2905e+02	-11.6708	-40.660013	0.000405	4.054429	1.373678	-0.000162
1299	1.2915e+02	-11.7077	-40.809387	0.000375	3.750346	1.270652	-0.000150
1300	1.2925e+02	-11.7398	-40.906278	0.000243	2.432657	0.824207	-0.000097
1301	1.2935e+02	-11.7911	-41.023355	0.000294	2.939461	0.995916	-0.000118
1302	1.2945e+02	-11.8312	-41.112172	0.000223	2.229936	0.755523	-0.000089
1303	1.2955e+02	-11.8681	-41.265583	0.000385	3.851707	1.304994	-0.000154
1304	1.2965e+02	-11.9130	-41.358437	0.000233	2.331296	0.789865	-0.000093
1305	1.2975e+02	-11.9499	-41.523960	0.000416	4.155789	1.408020	-0.000166
1306	1.2985e+02	-11.9948	-41.592591	0.000172	1.723132	0.583813	-0.000069
1307	1.2995e+02	-12.0189	-41.754076	0.000405	4.054429	1.373678	-0.000162
1308	1.3005e+02	-12.0590	-41.867116	0.000284	2.838100	0.961574	-0.000114
1309	1.3015e+02	-12.1055	-41.972082	0.000264	2.635379	0.892890	-0.000105
1310	1.3025e+02	-12.1408	-42.133567	0.000405	4.054429	1.373678	-0.000162
1311	1.3034e+02	-12.1858	-42.258718	0.000314	3.142182	1.064600	-0.000126
1312	1.3044e+02	-12.2243	-42.387907	0.000324	3.243543	1.098942	-0.000130
1313	1.3054e+02	-12.2644	-42.472687	0.000213	2.128575	0.721181	-0.000085
1314	1.3064e+02	-12.2980	-42.638209	0.000416	4.155789	1.408020	-0.000166
1315	1.3074e+02	-12.3398	-42.706840	0.000172	1.723132	0.583813	-0.000069
1316	1.3084e+02	-12.3831	-42.864289	0.000395	3.953068	1.339336	-0.000158
1317	1.3094e+02	-12.4248	-43.017700	0.000385	3.851707	1.304994	-0.000154
1318	1.3104e+02	-12.4681	-43.106517	0.000223	2.229936	0.755523	-0.000089
1319	1.3114e+02	-12.4986	-43.191297	0.000213	2.128575	0.721181	-0.000085
1320	1.3124e+02	-12.5451	-43.356819	0.000416	4.155789	1.408020	-0.000166
1321	1.3134e+02	-12.5772	-43.494082	0.000345	3.446264	1.167626	-0.000138
1322	1.3144e+02	-12.6237	-43.578862	0.000213	2.128575	0.721181	-0.000085
1323	1.3154e+02	-12.6686	-43.704013	0.000314	3.142182	1.064600	-0.000126
1324	1.3164e+02	-12.7055	-43.821090	0.000294	2.939461	0.995916	-0.000118
1325	1.3174e+02	-12.7456	-43.926055	0.000264	2.635379	0.892890	-0.000105
1326	1.3184e+02	-12.7922	-44.043132	0.000294	2.939461	0.995916	-0.000118
1327	1.3194e+02	-12.8226	-44.208655	0.000416	4.155789	1.408020	-0.000166
1328	1.3204e+02	-12.8708	-44.341880	0.000334	3.344904	1.133284	-0.000134
1329	1.3214e+02	-12.8980	-44.430697	0.000223	2.229936	0.755523	-0.000089
1330	1.3224e+02	-12.9317	-44.592183	0.000405	4.054429	1.373678	-0.000162
1331	1.3234e+02	-12.9750	-44.676963	0.000213	2.128575	0.721181	-0.000085
1332	1.3243e+02	-13.0216	-44.850559	0.000436	4.358511	1.476703	-0.000174
1333	1.3253e+02	-13.0569	-44.955525	0.000264	2.635379	0.892890	-0.000105
1334	1.3263e+02	-13.1002	-45.056453	0.000253	2.534018	0.858548	-0.000101
1335	1.3273e+02	-13.1371	-45.177567	0.000304	3.040821	1.030258	-0.000122
1336	1.3283e+02	-13.1820	-45.298682	0.000304	3.040821	1.030258	-0.000122
1337	1.3293e+02	-13.2205	-45.407684	0.000274	2.736739	0.927232	-0.000110
1338	1.3303e+02	-13.2606	-45.565133	0.000395	3.953068	1.339336	-0.000158
1339	1.3313e+02	-13.2943	-45.662024	0.000243	2.432657	0.824207	-0.000097
1340	1.3323e+02	-13.3376	-45.791212	0.000324	3.243543	1.098942	-0.000130
1341	1.3333e+02	-13.3873	-45.900215	0.000274	2.736739	0.927232	-0.000110
1342	1.3343e+02	-13.4146	-46.053626	0.000385	3.851707	1.304994	-0.000154
1343	1.3353e+02	-13.4691	-46.158591	0.000264	2.635379	0.892890	-0.000105
1344	1.3363e+02	-13.4964	-46.267594	0.000274	2.736739	0.927232	-0.000110
1345	1.3373e+02	-13.5413	-46.429080	0.000405	4.054429	1.373678	-0.000162
1346	1.3383e+02	-13.5798	-46.546156	0.000294	2.939461	0.995916	-0.000118
1347	1.3393e+02	-13.6087	-46.634973	0.000223	2.229936	0.755523	-0.000089
1348	1.3403e+02	-13.6552	-46.772236	0.000345	3.446264	1.167626	-0.000138
1349	1.3413e+02	-13.6953	-46.897387	0.000314	3.142182	1.064600	-0.000126
1350	1.3423e+02	-13.7338	-47.018501	0.000304	3.040821	1.030258	-0.000122
1351	1.3432e+02	-13.7804	-47.147690	0.000324	3.243543	1.098942	-0.000130
1352	1.3442e+02	-13.8189	-47.220358	0.000182	1.824493	0.618155	-0.000073
1353	1.3452e+02	-13.8574	-47.365695	0.000365	3.648986	1.236310	-0.000146
1354	1.3462e+02	-13.8878	-47.454512	0.000223	2.229936	0.755523	-0.000089
1355	1.3472e+02	-13.9376	-47.620035	0.000416	4.155789	1.408020	-0.000166
1356	1.3482e+02	-13.9857	-47.684629	0.000162	1.621771	0.549471	-0.000065
1357	1.3492e+02	-14.0178	-47.866300	0.000456	4.561232	1.545387	-0.000183
1358	1.3502e+02	-14.0531	-48.011637	0.000365	3.648986	1.236310	-0.000146
1359	1.3512e+02	-14.0996	-48.128714	0.000294	2.939461	0.995916	-0.000118
1360	1.3522e+02	-14.1301	-48.213494	0.000213	2.128575	0.721181	-0.000085
1361	1.3532e+02	-14.1798	-48.342682	0.000324	3.243543	1.098942	-0.000130
1362	1.3542e+02	-14.2231	-48.451685	0.000274	2.736739	0.927232	-0.000110
1363	1.3552e+02	-14.2568	-48.601059	0.000375	3.750346	1.270652	-0.000150
1364	1.3562e+02	-14.2985	-48.681801	0.000203	2.027214	0.686839	-0.000081
1365	1.3572e+02	-14.3354	-48.835212	0.000385	3.851707	1.304994	-0.000154
1366	1.3582e+02	-14.3643	-48.924029	0.000223	2.229936	0.755523	-0.000089
1367	1.3592e+02	-14.4140	-49.020921	0.000243	2.432657	0.824207	-0.000097
1368	1.3602e+02	-14.4590	-49.174332	0.000385	3.851707	1.304994	-0.000154
1369	1.3612e+02	-14.4958	-49.259112	0.000213	2.128575	0.721181	-0.000085
1370	1.3622e+02	-14.5376	-49.388300	0.000324	3.243543	1.098942	-0.000130
1371	1.3631e+02	-14.5712	-49.509414	0.000304	3.040821	1.030258	-0.000122
1372	1.3641e+02	-14.6114	-49.594194	0.000213	2.128575	0.721181	-0.000085
1373	1.3651e+02	-14.6595	-49.743568	0.000375	3.750346	1.270652	-0.000150
1374	1.3661e+02	-14.6948	-49.852571	0.000274	2.736739	0.927232	-0.000110
1375	1.3671e+02	-14.7285	-49.965610	0.000284	2.838100	0.961574	-0.000114
1376	1.3681e+02	-14.7798	-50.082687	0.000294	2.939461	0.995916	-0.000118
1377	1.3691e+02	-14.8135	-50.187653	0.000264	2.635379	0.892890	-0.000105
1378	1.3701e+02	-14.8680	-50.349138	0.000405	4.054429	1.373678	-0.000162
1379	1.3711e+02	-14.8841	-50.413733	0.000162	1.621771	0.549471	-0.000065
1380	1.3721e+02	-14.9370	-50.571181	0.000395	3.953068	1.339336	-0.000158
1381	1.3731e+02	-14.9723	-50.651924	0.000203	2.027214	0.686839	-0.000081
1382	1.3741e+02	-15.0156	-50.797260	0.000365	3.648986	1.236310	-0.000146
1383	1.3751e+02	-15.0493	-50.906263	0.000274	2.736739	0.927232	-0.000110
1384	1.3761e+02	-15.0862	-51.051600	0.000365	3.648986	1.236310	-0.000146
1385	1.3771e+02	-15.1359	-51.140417	0.000223	2.229936	0.755523	-0.000089
1386	1.3781e+02	-15.1776	-51.217123	0.000193	1.925854	0.652497	-0.000077
1387	1.3791e+02	-15.2113	-51.374571	0.000395	3.953068	1.339336	-0.000158
1388	1.3801e+02	-15.2482	-51.475499	0.000253	2.534018	0.858548	-0.000101
1389	1.3811e+02	-15.2915	-51.576428	0.000253	2.534018	0.858548	-0.000101
1390	1.3821e+02	-15.3300	-51.709653	0.000334	3.344904	1.133284	-0.000134
1391	1.3831e+02	-15.3750	-51.806544	0.000243	2.432657	0.824207	-0.000097
1392	1.3840e+02	-15.4103	-51.923621	0.000294	2.939461	0.995916	-0.000118
1393	1.3850e+02	-15.4552	-52.064921	0.000355	3.547625	1.201968	-0.000142
1394	1.3860e+02	-15.4969	-52.125478	0.000152	1.520411	0.515129	-0.000061
1395	1.3870e+02	-15.5242	-52.282926	0.000395	3.953068	1.339336	-0.000158
1396	1.3880e+02	-15.5675	-52.375780	0.000233	2.331296	0.789865	-0.000093
1397	1.3890e+02	-15.6140	-52.504969	0.000324	3.243543	1.098942	-0.000130
1398	1.3900e+02	-15.6557	-52.622046	0.000294	2.939461	0.995916	-0.000118
1399	1.3910e+02	-15.6958	-52.735086	0.000284	2.838100	0.961574	-0.000114
1400	1.3920e+02	-15.7295	-52.844088	0.000274	2.736739	0.927232	-0.000110
1401	1.3930e+02	-15.7824	-52.957128	0.000284	2.838100	0.961574	-0.000114
1402	1.3940e+02	-15.8129	-53.078242	0.000304	3.040821	1.030258	-0.000122
1403	1.3950e+02	-15.8434	-53.207430	0.000324	3.243543	1.098942	-0.000130
1404	1.3960e+02	-15.8819	-53.324507	0.000294	2.939461	0.995916	-0.000118
1405	1.3970e+02	-15.9284	-53.393139	0.000172	1.723132	0.583813	-0.000069
1406	1.3980e+02	-15.9669	-53.538476	0.000365	3.648986	1.236310	-0.000146
1407	1.3990e+02	-16.0102	-53.615181	0.000193	1.925854	0.652497	-0.000077
1408	1.4000e+02	-16.0391	-53.744370	0.000324	3.243543	1.098942	-0.000130
1409	1.4010e+02	-16.0808	-53.901818	0.000395	3.953068	1.339336	-0.000158
1410	1.4020e+02	-16.1257	-53.962375	0.000152	1.520411	0.515129	-0.000061
1411	1.4029e+02	-16.1707	-54.107712	0.000365	3.648986	1.236310	-0.000146
1412	1.4039e+02	-16.2028	-54.204603	0.000243	2.432657	0.824207	-0.000097
1413	1.4049e+02	-16.2509	-54.349940	0.000365	3.648986	1.236310	-0.000146
1414	1.4059e+02	-16.2894	-54.410497	0.000152	1.520411	0.515129	-0.000061
1415	1.4069e+02	-16.3279	-54.547760	0.000345	3.446264	1.167626	-0.000138
1416	1.4079e+02	-16.3728	-54.636577	0.000223	2.229936	0.755523	-0.000089
1417	1.4089e+02	-16.4033	-54.781913	0.000365	3.648986	1.236310	-0.000146
1418	1.4099e+02	-16.4450	-54.886879	0.000264	2.635379	0.892890	-0.000105
1419	1.4109e+02	-16.4867	-54.955510	0.000172	1.723132	0.583813	-0.000069
1420	1.4119e+02	-16.5316	-55.145256	0.000476	4.763954	1.614071	-0.000191
1421	1.4129e+02	-16.5701	-55.217924	0.000182	1.824493	0.618155	-0.000073
1422	1.4139e+02	-16.6150	-55.335001	0.000294	2.939461	0.995916	-0.000118
1423	1.4149e+02	-16.6391	-55.431892	0.000243	2.432657	0.824207	-0.000097
1424	1.4159e+02	-16.6872	-55.573192	0.000355	3.547625	1.201968	-0.000142
1425	1.4169e+02	-16.7305	-55.662009	0.000223	2.229936	0.755523	-0.000089
1426	1.4179e+02	-16.7723	-55.807346	0.000365	3.648986	1.236310	-0.000146
1427	1.4189e+02	-16.8011	-55.871940	0.000162	1.621771	0.549471	-0.000065
1428	1.4199e+02	-16.8493	-56.009203	0.000345	3.446264	1.167626	-0.000138
1429	1.4209e+02	-16.8765	-56.089945	0.000203	2.027214	0.686839	-0.000081
1430	1.4219e+02	-16.9311	-56.247394	0.000395	3.953068	1.339336	-0.000158
1431	1.4228e+02	-16.9712	-56.352359	0.000264	2.635379	0.892890	-0.000105
1432	1.4238e+02	-16.9985	-56.445213	0.000233	2.331296	0.789865	-0.000093
1433	1.4248e+02	-17.0386	-56.570365	0.000314	3.142182	1.064600	-0.000126
1434	1.4258e+02	-17.0915	-56.699553	0.000324	3.243543	1.098942	-0.000130
1435	1.4268e+02	-17.1220	-56.812593	0.000284	2.838100	0.961574	-0.000114
1436	1.4278e+02	-17.1653	-56.949855	0.000345	3.446264	1.167626	-0.000138
1437	1.4288e+02	-17.2006	-57.046747	0.000243	2.432657	0.824207	-0.000097
1438	1.4298e+02	-17.2503	-57.147675	0.000253	2.534018	0.858548	-0.000101
1439	1.4308e+02	-17.2904	-57.244566	0.000243	2.432657	0.824207	-0.000097
1440	1.4318e+02	-17.3257	-57.430274	0.000466	4.662593	1.579729	-0.000187
1441	1.4328e+02	-17.3578	-57.494869	0.000162	1.621771	0.549471	-0.000065
1442	1.4338e+02	-17.4091	-57.640205	0.000365	3.648986	1.236310	-0.000146
1443	1.4348e+02	-17.4492	-57.757282	0.000294	2.939461	0.995916	-0.000118
1444	1.4358e+02	-17.4845	-57.874359	0.000294	2.939461	0.995916	-0.000118
1445	1.4368e+02	-17.5166	-57.979325	0.000264	2.635379	0.892890	-0.000105
1446	1.4378e+02	-17.5647	-58.108513	0.000324	3.243543	1.098942	-0.000130
1447	1.4388e+02	-17.5968	-58.193293	0.000213	2.128575	0.721181	-0.000085
1448	1.4398e+02	-17.6401	-58.383038	0.000476	4.763954	1.614071	-0.000191
1449	1.4408e+02	-17.6883	-58.516264	0.000334	3.344904	1.133284	-0.000134
1450	1.4418e+02	-17.7252	-58.548561	0.000081	0.810886	0.274736	-0.000032
1451	1.4428e+02	-17.7621	-58.722158	0.000436	4.358511	1.476703	-0.000174
1452	1.4437e+02	-17.8038	-58.835198	0.000284	2.838100	0.961574	-0.000114
1453	1.4447e+02	-17.8439	-58.972460	0.000345	3.446264	1.167626	-0.000138
1454	1.4457e+02	-17.8792	-59.097612	0.000314	3.142182	1.064600	-0.000126
1455	1.4467e+02	-17.9209	-59.226800	0.000324	3.243543	1.098942	-0.000130
1456	1.4477e+02	-17.9594	-59.380211	0.000385	3.851707	1.304994	-0.000154
1457	1.4487e+02	-18.0027	-59.497288	0.000294	2.939461	0.995916	-0.000118
1458	1.4497e+02	-18.0412	-59.622439	0.000314	3.142182	1.064600	-0.000126
1459	1.4507e+02	-18.0829	-59.739516	0.000294	2.939461	0.995916	-0.000118
1460	1.4517e+02	-18.1310	-59.896964	0.000395	3.953068	1.339336	-0.000158
1461	1.4527e+02	-18.1615	-59.993856	0.000243	2.432657	0.824207	-0.000097
1462	1.4537e+02	-18.2064	-60.114970	0.000304	3.040821	1.030258	-0.000122
1463	1.4547e+02	-18.2449	-60.308752	0.000487	4.865314	1.648413	-0.000195
1464	1.4557e+02	-18.2802	-60.393532	0.000213	2.128575	0.721181	-0.000085
1465	1.4567e+02	-18.3187	-60.506572	0.000284	2.838100	0.961574	-0.000114
1466	1.4577e+02	-18.3572	-60.639797	0.000334	3.344904	1.133284	-0.000134
1467	1.4587e+02	-18.4038	-60.789171	0.000375	3.750346	1.270652	-0.000150
1468	1.4597e+02	-18.4423	-60.938545	0.000375	3.750346	1.270652	-0.000150
1469	1.4607e+02	-18.4840	-61.035437	0.000243	2.432657	0.824207	-0.000097
1470	1.4617e+02	-18.5305	-61.164625	0.000324	3.243543	1.098942	-0.000130
1471	1.4626e+02	-18.5530	-61.301888	0.000345	3.446264	1.167626	-0.000138
1472	1.4636e+02	-18.5963	-61.499707	0.000497	4.966675	1.682755	-0.000199
1473	1.4646e+02	-18.6380	-61.584487	0.000213	2.128575	0.721181	-0.000085
1474	1.4656e+02	-18.6813	-61.737898	0.000385	3.851707	1.304994	-0.000154
1475	1.4666e+02	-18.7262	-61.883235	0.000365	3.648986	1.236310	-0.000146
1476	1.4676e+02	-18.7615	-62.060869	0.000446	4.459871	1.511045	-0.000179
1477	1.4686e+02	-18.8016	-62.141612	0.000203	2.027214	0.686839	-0.000081
1478	1.4696e+02	-18.8385	-62.331357	0.000476	4.763954	1.614071	-0.000191
1479	1.4706e+02	-18.8786	-62.460546	0.000324	3.243543	1.098942	-0.000130
1480	1.4716e+02	-18.9139	-62.605882	0.000365	3.648986	1.236310	-0.000146
1481	1.4726e+02	-18.9620	-62.718922	0.000284	2.838100	0.961574	-0.000114
1482	1.4736e+02	-18.9973	-62.940965	0.000557	5.574839	1.888807	-0.000223
1483	1.4746e+02	-19.0390	-62.997485	0.000142	1.419050	0.480787	-0.000057
1484	1.4756e+02	-19.0920	-63.199341	0.000507	5.068036	1.717097	-0.000203
1485	1.4766e+02	-19.1112	-63.364864	0.000416	4.155789	1.408020	-0.000166
1486	1.4776e+02	-19.1642	-63.445607	0.000203	2.027214	0.686839	-0.000081
1487	1.4786e+02	-19.1946	-63.635352	0.000476	4.763954	1.614071	-0.000191
1488	1.4796e+02	-19.2348	-63.764540	0.000324	3.243543	1.098942	-0.000130
1489	1.4806e+02	-19.2733	-63.938137	0.000436	4.358511	1.476703	-0.000174
1490	1.4816e+02	-19.3166	-64.067326	0.000324	3.243543	1.098942	-0.000130
1491	1.4825e+02	-19.3487	-64.257071	0.000476	4.763954	1.614071	-0.000191
1492	1.4835e+02	-19.3952	-64.402408	0.000365	3.648986	1.236310	-0.000146
1493	1.4845e+02	-19.4353	-64.584079	0.000456	4.561232	1.545387	-0.000183
1494	1.4855e+02	-19.4754	-64.729416	0.000365	3.648986	1.236310	-0.000146
1495	1.4865e+02	-19.5235	-64.866678	0.000345	3.446264	1.167626	-0.000138
1496	1.4875e+02	-19.5620	-65.032201	0.000416	4.155789	1.408020	-0.000166
1497	1.4885e+02	-19.5957	-65.201761	0.000426	4.257150	1.442361	-0.000170
1498	1.4895e+02	-19.6326	-65.399580	0.000497	4.966675	1.682755	-0.000199
1499	1.4905e+02	-19.6759	-65.516657	0.000294	2.939461	0.995916	-0.000118
1500	1.4915e+02	-19.7240	-65.746774	0.000578	5.777561	1.957491	-0.000231
1501	1.4925e+02	-19.7545	-65.880000	0.000334	3.344904	1.133284	-0.000134
1502	1.4935e+02	-19.8010	-66.045522	0.000416	4.155789	1.408020	-0.000166
1503	1.4945e+02	-19.8363	-66.154525	0.000274	2.736739	0.927232	-0.000110
1504	1.4955e+02	-19.8700	-66.396753	0.000608	6.081643	2.060516	-0.000243
1505	1.4965e+02	-19.9037	-66.542090	0.000365	3.648986	1.236310	-0.000146
1506	1.4975e+02	-19.9486	-66.727798	0.000466	4.662593	1.579729	-0.000187
1507	1.4985e+02	-19.9968	-66.929655	0.000507	5.068036	1.717097	-0.000203
1508	1.4995e+02	-19.9454	-66.961952	-0.000081	-0.810886	-0.274736	-0.000032
1509	1.5005e+02	-19.9230	-66.949841	0.000030	0.304082	0.103026	0.000012
1510	1.5015e+02	-19.8797	-66.897358	0.000132	1.317689	0.446445	0.000053
1511	1.5025e+02	-19.8379	-66.856986	0.000101	1.013607	0.343419	0.000041
1512	1.5034e+02	-19.7930	-66.828726	0.000071	0.709525	0.240394	0.000028
1513	1.5044e+02	-19.7545	-66.812578	0.000041	0.405443	0.137368	0.000016
1514	1.5054e+02	-19.7096	-66.764132	0.000122	1.216329	0.412103	0.000049
1515	1.5064e+02	-19.6855	-66.739909	0.000061	0.608164	0.206052	0.000024
1516	1.5074e+02	-19.6358	-66.707612	0.000081	0.810886	0.274736	0.000032
1517	1.5084e+02	-19.5989	-66.683390	0.000061	0.608164	0.206052	0.000024
1518	1.5094e+02	-19.5556	-66.655130	0.000071	0.709525	0.240394	0.000028
1519	1.5104e+02	-19.5059	-66.578424	0.000193	1.925854	0.652497	0.000077
1520	1.5114e+02	-19.4706	-66.546127	0.000081	0.810886	0.274736	0.000032
1521	1.5124e+02	-19.4337	-66.509793	0.000091	0.912246	0.309077	0.000037
1522	1.5134e+02	-19.3904	-66.425013	0.000213	2.128575	0.721181	0.000085
1523	1.5144e+02	-19.3519	-66.372530	0.000132	1.317689	0.446445	0.000053
1524	1.5154e+02	-19.3182	-66.356382	0.000041	0.405443	0.137368	0.000016
1525	1.5164e+02	-19.2813	-66.307936	0.000122	1.216329	0.412103	0.000049
1526	1.5174e+02	-19.2396	-66.227193	0.000203	2.027214	0.686839	0.000081
1527	1.5184e+02	-19.2027	-66.190859	0.000091	0.912246	0.309077	0.000037
1528	1.5194e+02	-19.1610	-66.126265	0.000162	1.621771	0.549471	0.000065
1529	1.5204e+02	-19.1160	-66.065708	0.000152	1.520411	0.515129	0.000061
1530	1.5214e+02	-19.0791	-65.976891	0.000223	2.229936	0.755523	0.000089
1531	1.5224e+02	-19.0471	-65.924408	0.000132	1.317689	0.446445	0.000053
1532	1.5233e+02	-18.9957	-65.863851	0.000152	1.520411	0.515129	0.000061
1533	1.5243e+02	-18.9636	-65.815405	0.000122	1.216329	0.412103	0.000049
1534	1.5253e+02	-18.9283	-65.742737	0.000182	1.824493	0.618155	0.000073
1535	1.5263e+02	-18.8674	-65.653920	0.000223	2.229936	0.755523	0.000089
1536	1.5273e+02	-18.8289	-65.589326	0.000162	1.621771	0.549471	0.000065
1537	1.5283e+02	-18.7968	-65.508583	0.000203	2.027214	0.686839	0.000081
1538	1.5293e+02	-18.7583	-65.411692	0.000243	2.432657	0.824207	0.000097
1539	1.5303e+02	-18.7230	-65.351135	0.000152	1.520411	0.515129	0.000061
1540	1.5313e+02	-18.6765	-65.302689	0.000122	1.216329	0.412103	0.000049
1541	1.5323e+02	-18.6348	-65.217909	0.000213	2.128575	0.721181	0.000085
1542	1.5333e+02	-18.5947	-65.129092	0.000223	2.229936	0.755523	0.000089
1543	1.5343e+02	-18.5594	-65.032201	0.000243	2.432657	0.824207	0.000097
1544	1.5353e+02	-18.5145	-64.987793	0.000111	1.114968	0.377761	0.000045
1545	1.5363e+02	-18.4824	-64.903013	0.000213	2.128575	0.721181	0.000085
1546	1.5373e+02	-18.4423	-64.785936	0.000294	2.939461	0.995916	0.000118
1547	1.5383e+02	-18.4022	-64.745564	0.000101	1.013607	0.343419	0.000041
1548	1.5393e+02	-18.3572	-64.689044	0.000142	1.419050	0.480787	0.000057
1549	1.5403e+02	-18.3171	-64.588116	0.000253	2.534018	0.858548	0.000101
1550	1.5413e+02	-18.2786	-64.483151	0.000264	2.635379	0.892890	0.000105
1551	1.5422e+02	-18.2337	-64.402408	0.000203	2.027214	0.686839	0.000081
1552	1.5432e+02	-18.1952	-64.293405	0.000274	2.736739	0.927232	0.000110
1553	1.5442e+02	-18.1599	-64.232848	0.000152	1.520411	0.515129	0.000061
1554	1.5452e+02	-18.1198	-64.188440	0.000111	1.114968	0.377761	0.000045
1555	1.5462e+02	-18.0845	-64.039066	0.000375	3.750346	1.270652	0.000150
1556	1.5472e+02	-18.0396	-63.986583	0.000132	1.317689	0.446445	0.000053
1557	1.5482e+02	-18.0075	-63.893729	0.000233	2.331296	0.789865	0.000093
1558	1.5492e+02	-17.9578	-63.800875	0.000233	2.331296	0.789865	0.000093
1559	1.5502e+02	-17.9225	-63.712058	0.000223	2.229936	0.755523	0.000089
1560	1.5512e+02	-17.8808	-63.615166	0.000243	2.432657	0.824207	0.000097
1561	1.5522e+02	-17.8375	-63.518275	0.000243	2.432657	0.824207	0.000097
1562	1.5532e+02	-17.7990	-63.445607	0.000182	1.824493	0.618155	0.000073
1563	1.5542e+02	-17.7589	-63.385050	0.000152	1.520411	0.515129	0.000061
1564	1.5552e+02	-17.7139	-63.267973	0.000294	2.939461	0.995916	0.000118
1565	1.5562e+02	-17.6819	-63.191267	0.000193	1.925854	0.652497	0.000077
1566	1.5572e+02	-17.6450	-63.082264	0.000274	2.736739	0.927232	0.000110
1567	1.5582e+02	-17.5968	-63.001522	0.000203	2.027214	0.686839	0.000081
1568	1.5592e+02	-17.5712	-62.928853	0.000182	1.824493	0.618155	0.000073
1569	1.5602e+02	-17.5295	-62.803702	0.000314	3.142182	1.064600	0.000126
1570	1.5612e+02	-17.4861	-62.718922	0.000213	2.128575	0.721181	0.000085
1571	1.5622e+02	-17.4428	-62.646254	0.000182	1.824493	0.618155	0.000073
1572	1.5631e+02	-17.4043	-62.504954	0.000355	3.547625	1.201968	0.000142
1573	1.5641e+02	-17.3626	-62.472657	0.000081	0.810886	0.274736	0.000032
1574	1.5651e+02	-17.3305	-62.315209	0.000395	3.953068	1.339336	0.000158
1575	1.5661e+02	-17.2856	-62.258689	0.000142	1.419050	0.480787	0.000057
1576	1.5671e+02	-17.2343	-62.153723	0.000264	2.635379	0.892890	0.000105
1577	1.5681e+02	-17.1974	-62.064906	0.000223	2.229936	0.755523	0.000089
1578	1.5691e+02	-17.1701	-61.959941	0.000264	2.635379	0.892890	0.000105
1579	1.5701e+02	-17.1236	-61.854975	0.000264	2.635379	0.892890	0.000105
1580	1.5711e+02	-17.0819	-61.782307	0.000182	1.824493	0.618155	0.000073
1581	1.5721e+02	-17.0418	-61.713675	0.000172	1.723132	0.583813	0.000069
1582	1.5731e+02	-17.0033	-61.568339	0.000365	3.648986	1.236310	0.000146
1583	1.5741e+02	-16.9712	-61.507782	0.000152	1.520411	0.515129	0.000061
1584	1.5751e+02	-16.9295	-61.410890	0.000243	2.432657	0.824207	0.000097
1585	1.5761e+02	-16.8862	-61.297850	0.000284	2.838100	0.961574	0.000114
1586	1.5771e+02	-16.8477	-61.184811	0.000284	2.838100	0.961574	0.000114
1587	1.5781e+02	-16.8092	-61.100031	0.000213	2.128575	0.721181	0.000085
1588	1.5791e+02	-16.7642	-61.031400	0.000172	1.723132	0.583813	0.000069
1589	1.5801e+02	-16.7225	-60.877988	0.000385	3.851707	1.304994	0.000154
1590	1.5811e+02	-16.6856	-60.793209	0.000213	2.128575	0.721181	0.000085
1591	1.5821e+02	-16.6471	-60.692280	0.000253	2.534018	0.858548	0.000101
1592	1.5830e+02	-16.6102	-60.595389	0.000243	2.432657	0.824207	0.000097
1593	1.5840e+02	-16.5669	-60.478312	0.000294	2.939461	0.995916	0.000118
1594	1.5850e+02	-16.5284	-60.417755	0.000152	1.520411	0.515129	0.000061
1595	1.5860e+02	-16.4851	-60.276455	0.000355	3.547625	1.201968	0.000142
1596	1.5870e+02	-16.4514	-60.195712	0.000203	2.027214	0.686839	0.000081
1597	1.5880e+02	-16.4113	-60.082673	0.000284	2.838100	0.961574	0.000114
1598	1.5890e+02	-16.3712	-59.965596	0.000294	2.939461	0.995916	0.000118
1599	1.5900e+02	-16.3327	-59.888890	0.000193	1.925854	0.652497	0.000077
1600	1.5910e+02	-16.2894	-59.791999	0.000243	2.432657	0.824207	0.000097
1601	1.5920e+02	-16.2493	-59.715293	0.000193	1.925854	0.652497	0.000077
1602	1.5930e+02	-16.1915	-59.610328	0.000264	2.635379	0.892890	0.000105
1603	1.5940e+02	-16.1626	-59.493251	0.000294	2.939461	0.995916	0.000118
1604	1.5950e+02	-16.1241	-59.380211	0.000284	2.838100	0.961574	0.000114
1605	1.5960e+02	-16.0953	-59.315617	0.000162	1.621771	0.549471	0.000065
1606	1.5970e+02	-16.0439	-59.206614	0.000274	2.736739	0.927232	0.000110
1607	1.5980e+02	-16.0102	-59.129909	0.000193	1.925854	0.652497	0.000077
1608	1.5990e+02	-15.9621	-58.984572	0.000365	3.648986	1.236310	0.000146
1609	1.6000e+02	-15.9268	-58.883643	0.000253	2.534018	0.858548	0.000101
1610	1.6010e+02	-15.8867	-58.754455	0.000324	3.243543	1.098942	0.000130
1611	1.6019e+02	-15.8450	-58.657564	0.000243	2.432657	0.824207	0.000097
1612	1.6029e+02	-15.8097	-58.552598	0.000264	2.635379	0.892890	0.000105
1613	1.6039e+02	-15.7632	-58.475893	0.000193	1.925854	0.652497	0.000077
1614	1.6049e+02	-15.7295	-58.354779	0.000304	3.040821	1.030258	0.000122
1615	1.6059e+02	-15.6990	-58.261924	0.000233	2.331296	0.789865	0.000093
1616	1.6069e+02	-15.6493	-58.156959	0.000264	2.635379	0.892890	0.000105
1617	1.6079e+02	-15.6236	-58.051993	0.000264	2.635379	0.892890	0.000105
1618	1.6089e+02	-15.5707	-57.999511	0.000132	1.317689	0.446445	0.000053
1619	1.6099e+02	-15.5290	-57.878397	0.000304	3.040821	1.030258	0.000122
1620	1.6109e+02	-15.4921	-57.765357	0.000284	2.838100	0.961574	0.000114
1621	1.6119e+02	-15.4504	-57.652317	0.000284	2.838100	0.961574	0.000114
1622	1.6129e+02	-15.4071	-57.559463	0.000233	2.331296	0.789865	0.000093
1623	1.6139e+02	-15.3653	-57.466609	0.000233	2.331296	0.789865	0.000093
1624	1.6149e+02	-15.3365	-57.381829	0.000213	2.128575	0.721181	0.000085
1625	1.6159e+02	-15.2915	-57.256678	0.000314	3.142182	1.064600	0.000126
1626	1.6169e+02	-15.2563	-57.139601	0.000294	2.939461	0.995916	0.000118
1627	1.6179e+02	-15.2129	-57.042709	0.000243	2.432657	0.824207	0.000097
1628	1.6189e+02	-15.1696	-56.929670	0.000284	2.838100	0.961574	0.000114
1629	1.6199e+02	-15.1391	-56.848927	0.000203	2.027214	0.686839	0.000081
1630	1.6209e+02	-15.0990	-56.780296	0.000172	1.723132	0.583813	0.000069
1631	1.6219e+02	-15.0525	-56.659182	0.000304	3.040821	1.030258	0.000122
1632	1.6228e+02	-15.0172	-56.558253	0.000253	2.534018	0.858548	0.000101
1633	1.6238e+02	-14.9659	-56.437139	0.000304	3.040821	1.030258	0.000122
1634	1.6248e+02	-14.9402	-56.360433	0.000193	1.925854	0.652497	0.000077
1635	1.6258e+02	-14.8889	-56.207022	0.000385	3.851707	1.304994	0.000154
1636	1.6268e+02	-14.8584	-56.174725	0.000081	0.810886	0.274736	0.000032
1637	1.6278e+02	-14.8119	-56.053611	0.000304	3.040821	1.030258	0.000122
1638	1.6288e+02	-14.7718	-55.932497	0.000304	3.040821	1.030258	0.000122
1639	1.6298e+02	-14.7285	-55.807346	0.000314	3.142182	1.064600	0.000126
1640	1.6308e+02	-14.6964	-55.734677	0.000182	1.824493	0.618155	0.000073
1641	1.6318e+02	-14.6611	-55.633749	0.000253	2.534018	0.858548	0.000101
1642	1.6328e+02	-14.6194	-55.520709	0.000284	2.838100	0.961574	0.000114
1643	1.6338e+02	-14.5777	-55.403632	0.000294	2.939461	0.995916	0.000118
1644	1.6348e+02	-14.5408	-55.314815	0.000223	2.229936	0.755523	0.000089
1645	1.6358e+02	-14.4975	-55.157367	0.000395	3.953068	1.339336	0.000158
1646	1.6368e+02	-14.4622	-55.141218	0.000041	0.405443	0.137368	0.000016
1647	1.6378e+02	-14.4237	-55.007993	0.000334	3.344904	1.133284	0.000134
1648	1.6388e+02	-14.3707	-54.927250	0.000203	2.027214	0.686839	0.000081
1649	1.6398e+02	-14.3386	-54.789988	0.000345	3.446264	1.167626	0.000138
1650	1.6408e+02	-14.3049	-54.745579	0.000111	1.114968	0.377761	0.000045
1651	1.6418e+02	-14.2632	-54.576019	0.000426	4.257150	1.442361	0.000170
1652	1.6427e+02	-14.2103	-54.499314	0.000193	1.925854	0.652497	0.000077
1653	1.6437e+02	-14.1814	-54.398386	0.000253	2.534018	0.858548	0.000101
1654	1.6447e+02	-14.1477	-54.297457	0.000253	2.534018	0.858548	0.000101
1655	1.6457e+02	-14.0964	-54.244974	0.000132	1.317689	0.446445	0.000053
1656	1.6467e+02	-14.0563	-54.103675	0.000355	3.547625	1.201968	0.000142
1657	1.6477e+02	-14.0114	-53.982561	0.000304	3.040821	1.030258	0.000122
1658	1.6487e+02	-13.9697	-53.885669	0.000243	2.432657	0.824207	0.000097
1659	1.6497e+02	-13.9360	-53.788778	0.000243	2.432657	0.824207	0.000097
1660	1.6507e+02	-13.8991	-53.663627	0.000314	3.142182	1.064600	0.000126
1661	1.6517e+02	-13.8526	-53.554624	0.000274	2.736739	0.927232	0.000110
1662	1.6527e+02	-13.8205	-53.437547	0.000294	2.939461	0.995916	0.000118
1663	1.6537e+02	-13.7804	-53.393139	0.000111	1.114968	0.377761	0.000045
1664	1.6547e+02	-13.7322	-53.280099	0.000284	2.838100	0.961574	0.000114
1665	1.6557e+02	-13.6953	-53.142836	0.000345	3.446264	1.167626	0.000138
1666	1.6567e+02	-13.6536	-53.041908	0.000253	2.534018	0.858548	0.000101
1667	1.6577e+02	-13.6231	-52.924831	0.000294	2.939461	0.995916	0.000118
1668	1.6587e+02	-13.5766	-52.831977	0.000233	2.331296	0.789865	0.000093
1669	1.6597e+02	-13.5365	-52.743160	0.000223	2.229936	0.755523	0.000089
1670	1.6607e+02	-13.4980	-52.650306	0.000233	2.331296	0.789865	0.000093
1671	1.6616e+02	-13.4691	-52.525155	0.000314	3.142182	1.064600	0.000126
1672	1.6626e+02	-13.4210	-52.428263	0.000243	2.432657	0.824207	0.000097
1673	1.6636e+02	-13.3825	-52.311186	0.000294	2.939461	0.995916	0.000118
1674	1.6646e+02	-13.3312	-52.206221	0.000264	2.635379	0.892890	0.000105
1675	1.6656e+02	-13.3039	-52.109330	0.000243	2.432657	0.824207	0.000097
1676	1.6666e+02	-13.2510	-51.972067	0.000345	3.446264	1.167626	0.000138
1677	1.6676e+02	-13.2141	-51.891324	0.000203	2.027214	0.686839	0.000081
1678	1.6686e+02	-13.1756	-51.818656	0.000182	1.824493	0.618155	0.000073
1679	1.6696e+02	-13.1419	-51.705616	0.000284	2.838100	0.961574	0.000114
1680	1.6706e+02	-13.1018	-51.600650	0.000264	2.635379	0.892890	0.000105
1681	1.6716e+02	-13.0601	-51.552205	0.000122	1.216329	0.412103	0.000049
1682	1.6726e+02	-13.0167	-51.374571	0.000446	4.459871	1.511045	0.000179
1683	1.6736e+02	-12.9831	-51.249420	0.000314	3.142182	1.064600	0.000126
1684	1.6746e+02	-12.9365	-51.188863	0.000152	1.520411	0.515129	0.000061
1685	1.6756e+02	-12.8980	-51.096008	0.000233	2.331296	0.789865	0.000093
1686	1.6766e+02	-12.8659	-50.962783	0.000334	3.344904	1.133284	0.000134
1687	1.6776e+02	-12.8194	-50.865892	0.000243	2.432657	0.824207	0.000097
1688	1.6786e+02	-12.7905	-50.740741	0.000314	3.142182	1.064600	0.000126
1689	1.6796e+02	-12.7456	-50.664035	0.000193	1.925854	0.652497	0.000077
1690	1.6806e+02	-12.7055	-50.559069	0.000264	2.635379	0.892890	0.000105
1691	1.6816e+02	-12.6718	-50.433918	0.000314	3.142182	1.064600	0.000126
1692	1.6825e+02	-12.6317	-50.341064	0.000233	2.331296	0.789865	0.000093
1693	1.6835e+02	-12.5852	-50.195727	0.000365	3.648986	1.236310	0.000146
1694	1.6845e+02	-12.5419	-50.147282	0.000122	1.216329	0.412103	0.000049
1695	1.6855e+02	-12.4938	-50.001945	0.000365	3.648986	1.236310	0.000146
1696	1.6865e+02	-12.4617	-49.884868	0.000294	2.939461	0.995916	0.000118
1697	1.6875e+02	-12.4216	-49.804125	0.000203	2.027214	0.686839	0.000081
1698	1.6885e+02	-12.3767	-49.670900	0.000334	3.344904	1.133284	0.000134
1699	1.6895e+02	-12.3446	-49.574008	0.000243	2.432657	0.824207	0.000097
1700	1.6905e+02	-12.3013	-49.469043	0.000264	2.635379	0.892890	0.000105
1701	1.6915e+02	-12.2660	-49.347929	0.000304	3.040821	1.030258	0.000122
1702	1.6925e+02	-12.2307	-49.222777	0.000314	3.142182	1.064600	0.000126
1703	1.6935e+02	-12.1777	-49.142035	0.000203	2.027214	0.686839	0.000081
1704	1.6945e+02	-12.1424	-49.024958	0.000294	2.939461	0.995916	0.000118
1705	1.6955e+02	-12.1039	-48.887695	0.000345	3.446264	1.167626	0.000138
1706	1.6965e+02	-12.0670	-48.798878	0.000223	2.229936	0.755523	0.000089
1707	1.6975e+02	-12.0253	-48.665653	0.000334	3.344904	1.133284	0.000134
1708	1.6985e+02	-11.9884	-48.536464	0.000324	3.243543	1.098942	0.000130
1709	1.6995e+02	-11.9499	-48.419387	0.000294	2.939461	0.995916	0.000118
1710	1.7005e+02	-11.9082	-48.366905	0.000132	1.317689	0.446445	0.000053
1711	1.7015e+02	-11.8569	-48.241754	0.000314	3.142182	1.064600	0.000126
1712	1.7024e+02	-11.8264	-48.152937	0.000223	2.229936	0.755523	0.000089
1713	1.7034e+02	-11.7847	-48.019711	0.000334	3.344904	1.133284	0.000134
1714	1.7044e+02	-11.7574	-47.882448	0.000345	3.446264	1.167626	0.000138
1715	1.7054e+02	-11.7077	-47.757297	0.000314	3.142182	1.064600	0.000126
1716	1.7064e+02	-11.6708	-47.668480	0.000223	2.229936	0.755523	0.000089
1717	1.7074e+02	-11.6323	-47.575626	0.000233	2.331296	0.789865	0.000093
1718	1.7084e+02	-11.5777	-47.414141	0.000405	4.054429	1.373678	0.000162
1719	1.7094e+02	-11.5537	-47.325324	0.000223	2.229936	0.755523	0.000089
1720	1.7104e+02	-11.5088	-47.212284	0.000284	2.838100	0.961574	0.000114
1721	1.7114e+02	-11.4751	-47.095207	0.000294	2.939461	0.995916	0.000118
1722	1.7124e+02	-11.4286	-46.986204	0.000274	2.736739	0.927232	0.000110
1723	1.7134e+02	-11.3933	-46.812607	0.000436	4.358511	1.476703	0.000174
1724	1.7144e+02	-11.3483	-46.760125	0.000132	1.317689	0.446445	0.000053
1725	1.7154e+02	-11.3163	-46.651122	0.000274	2.736739	0.927232	0.000110
1726	1.7164e+02	-11.2794	-46.521934	0.000324	3.243543	1.098942	0.000130
1727	1.7174e+02	-11.2360	-46.408894	0.000284	2.838100	0.961574	0.000114
1728	1.7184e+02	-11.2024	-46.307965	0.000253	2.534018	0.858548	0.000101
1729	1.7194e+02	-11.1510	-46.190889	0.000294	2.939461	0.995916	0.000118
1730	1.7204e+02	-11.1109	-46.037477	0.000385	3.851707	1.304994	0.000154
1731	1.7213e+02	-11.0628	-45.944623	0.000233	2.331296	0.789865	0.000093
1732	1.7223e+02	-11.0275	-45.851769	0.000233	2.331296	0.789865	0.000093
1733	1.7233e+02	-10.9890	-45.722581	0.000324	3.243543	1.098942	0.000130
1734	1.7243e+02	-10.9505	-45.569170	0.000385	3.851707	1.304994	0.000154
1735	1.7253e+02	-10.9104	-45.484390	0.000213	2.128575	0.721181	0.000085
1736	1.7263e+02	-10.8687	-45.351164	0.000334	3.344904	1.133284	0.000134
1737	1.7273e+02	-10.8286	-45.246199	0.000264	2.635379	0.892890	0.000105
1738	1.7283e+02	-10.7804	-45.125085	0.000304	3.040821	1.030258	0.000122
1739	1.7293e+02	-10.7532	-45.016082	0.000274	2.736739	0.927232	0.000110
1740	1.7303e+02	-10.7050	-44.927265	0.000223	2.229936	0.755523	0.000089
1741	1.7313e+02	-10.6681	-44.753668	0.000436	4.358511	1.476703	0.000174
1742	1.7323e+02	-10.6296	-44.660814	0.000233	2.331296	0.789865	0.000093
1743	1.7333e+02	-10.5879	-44.527589	0.000334	3.344904	1.133284	0.000134
1744	1.7343e+02	-10.5575	-44.386289	0.000355	3.547625	1.201968	0.000142
1745	1.7353e+02	-10.5109	-44.289398	0.000243	2.432657	0.824207	0.000097
1746	1.7363e+02	-10.4772	-44.192506	0.000243	2.432657	0.824207	0.000097
1747	1.7373e+02	-10.4307	-44.043132	0.000375	3.750346	1.270652	0.000150
1748	1.7383e+02	-10.3762	-43.938167	0.000264	2.635379	0.892890	0.000105
1749	1.7393e+02	-10.3537	-43.804941	0.000334	3.344904	1.133284	0.000134
1750	1.7403e+02	-10.3248	-43.667679	0.000345	3.446264	1.167626	0.000138
1751	1.7413e+02	-10.2687	-43.538490	0.000324	3.243543	1.098942	0.000130
1752	1.7422e+02	-10.2414	-43.449673	0.000223	2.229936	0.755523	0.000089
1753	1.7432e+02	-10.1981	-43.316448	0.000334	3.344904	1.133284	0.000134
1754	1.7442e+02	-10.1564	-43.203408	0.000284	2.838100	0.961574	0.000114
1755	1.7452e+02	-10.1083	-43.110554	0.000233	2.331296	0.789865	0.000093
1756	1.7462e+02	-10.0762	-42.989440	0.000304	3.040821	1.030258	0.000122
1757	1.7472e+02	-10.0329	-42.840066	0.000375	3.750346	1.270652	0.000150
1758	1.7482e+02	-9.9880	-42.722989	0.000294	2.939461	0.995916	0.000118
1759	1.7492e+02	-9.9495	-42.597838	0.000314	3.142182	1.064600	0.000126
1760	1.7502e+02	-9.9142	-42.452501	0.000365	3.648986	1.236310	0.000146
1761	1.7512e+02	-9.8789	-42.327350	0.000314	3.142182	1.064600	0.000126
1762	1.7522e+02	-9.8323	-42.222384	0.000264	2.635379	0.892890	0.000105
1763	1.7532e+02	-9.7906	-42.113381	0.000274	2.736739	0.927232	0.000110
1764	1.7542e+02	-9.7602	-41.964007	0.000375	3.750346	1.270652	0.000150
1765	1.7552e+02	-9.7152	-41.830782	0.000334	3.344904	1.133284	0.000134
1766	1.7562e+02	-9.6831	-41.717742	0.000284	2.838100	0.961574	0.000114
1767	1.7572e+02	-9.6270	-41.628925	0.000223	2.229936	0.755523	0.000089
1768	1.7582e+02	-9.5981	-41.471477	0.000395	3.953068	1.339336	0.000158
1769	1.7592e+02	-9.5564	-41.358437	0.000284	2.838100	0.961574	0.000114
1770	1.7602e+02	-9.5067	-41.233286	0.000314	3.142182	1.064600	0.000126
1771	1.7612e+02	-9.4762	-41.168692	0.000162	1.621771	0.549471	0.000065
1772	1.7621e+02	-9.4377	-40.982983	0.000466	4.662593	1.579729	0.000187
1773	1.7631e+02	-9.4008	-40.853795	0.000324	3.243543	1.098942	0.000130
1774	1.7641e+02	-9.3543	-40.777090	0.000193	1.925854	0.652497	0.000077
1775	1.7651e+02	-9.3270	-40.603493	0.000436	4.358511	1.476703	0.000174
1776	1.7661e+02	-9.2757	-40.494490	0.000274	2.736739	0.927232	0.000110
1777	1.7671e+02	-9.2468	-40.393562	0.000253	2.534018	0.858548	0.000101
1778	1.7681e+02	-9.1906	-40.215928	0.000446	4.459871	1.511045	0.000179
1779	1.7691e+02	-9.1618	-40.123074	0.000233	2.331296	0.789865	0.000093
1780	1.7701e+02	-9.1217	-39.969662	0.000385	3.851707	1.304994	0.000154
1781	1.7711e+02	-9.0816	-39.901031	0.000172	1.723132	0.583813	0.000069
1782	1.7721e+02	-9.0415	-39.735509	0.000416	4.155789	1.408020	0.000166
1783	1.7731e+02	-8.9965	-39.658803	0.000193	1.925854	0.652497	0.000077
1784	1.7741e+02	-8.9628	-39.521540	0.000345	3.446264	1.167626	0.000138
1785	1.7751e+02	-8.9211	-39.404463	0.000294	2.939461	0.995916	0.000118
1786	1.7761e+02	-8.8746	-39.271238	0.000334	3.344904	1.133284	0.000134
1787	1.7771e+02	-8.8377	-39.190495	0.000203	2.027214	0.686839	0.000081
1788	1.7781e+02	-8.8056	-39.029010	0.000405	4.054429	1.373678	0.000162
1789	1.7791e+02	-8.7607	-38.928081	0.000253	2.534018	0.858548	0.000101
1790	1.7801e+02	-8.7270	-38.774670	0.000385	3.851707	1.304994	0.000154
1791	1.7810e+02	-8.6789	-38.677779	0.000243	2.432657	0.824207	0.000097
1792	1.7820e+02	-8.6452	-38.516294	0.000405	4.054429	1.373678	0.000162
1793	1.7830e+02	-8.6003	-38.431514	0.000213	2.128575	0.721181	0.000085
1794	1.7840e+02	-8.5682	-38.274065	0.000395	3.953068	1.339336	0.000158
1795	1.7850e+02	-8.5185	-38.185248	0.000223	2.229936	0.755523	0.000089
1796	1.7860e+02	-8.4896	-38.080283	0.000264	2.635379	0.892890	0.000105
1797	1.7870e+02	-8.4431	-37.930909	0.000375	3.750346	1.270652	0.000150
1798	1.7880e+02	-8.4110	-37.829980	0.000253	2.534018	0.858548	0.000101
1799	1.7890e+02	-8.3532	-37.664458	0.000416	4.155789	1.408020	0.000166
1800	1.7900e+02	-8.3212	-37.551418	0.000284	2.838100	0.961574	0.000114
1801	1.7910e+02	-8.2827	-37.442415	0.000274	2.736739	0.927232	0.000110
1802	1.7920e+02	-8.2377	-37.325338	0.000294	2.939461	0.995916	0.000118
1803	1.7930e+02	-8.2008	-37.204224	0.000304	3.040821	1.030258	0.000122
1804	1.7940e+02	-8.1639	-37.079073	0.000314	3.142182	1.064600	0.000126
1805	1.7950e+02	-8.1110	-36.953922	0.000314	3.142182	1.064600	0.000126
1806	1.7960e+02	-8.0789	-36.836845	0.000294	2.939461	0.995916	0.000118
1807	1.7970e+02	-8.0388	-36.727842	0.000274	2.736739	0.927232	0.000110
1808	1.7980e+02	-8.0131	-36.606728	0.000304	3.040821	1.030258	0.000122
1809	1.7990e+02	-7.9698	-36.469466	0.000345	3.446264	1.167626	0.000138
1810	1.8000e+02	-7.9137	-36.328166	0.000355	3.547625	1.201968	0.000142
1811	1.8009e+02	-7.8752	-36.178792	0.000375	3.750346	1.270652	0.000150
1812	1.8019e+02	-7.8399	-36.081901	0.000243	2.432657	0.824207	0.000097
1813	1.8029e+02	-7.8062	-35.985009	0.000243	2.432657	0.824207	0.000097
1814	1.8039e+02	-7.7613	-35.839673	0.000365	3.648986	1.236310	0.000146
1815	1.8049e+02	-7.7260	-35.738744	0.000253	2.534018	0.858548	0.000101
1816	1.8059e+02	-7.6843	-35.609556	0.000324	3.243543	1.098942	0.000130
1817	1.8069e+02	-7.6426	-35.488442	0.000304	3.040821	1.030258	0.000122
1818	1.8079e+02	-7.5976	-35.355216	0.000334	3.344904	1.133284	0.000134
1819	1.8089e+02	-7.5656	-35.258325	0.000243	2.432657	0.824207	0.000097
1820	1.8099e+02	-7.5190	-35.117025	0.000355	3.547625	1.201968	0.000142
1821	1.8109e+02	-7.4837	-35.012060	0.000264	2.635379	0.892890	0.000105
1822	1.8119e+02	-7.4404	-34.850574	0.000405	4.054429	1.373678	0.000162
1823	1.8129e+02	-7.4132	-34.761757	0.000223	2.229936	0.755523	0.000089
1824	1.8139e+02	-7.3650	-34.584123	0.000446	4.459871	1.511045	0.000179
1825	1.8149e+02	-7.3233	-34.438786	0.000365	3.648986	1.236310	0.000146
1826	1.8159e+02	-7.2832	-34.358044	0.000203	2.027214	0.686839	0.000081
1827	1.8169e+02	-7.2431	-34.228855	0.000324	3.243543	1.098942	0.000130
1828	1.8179e+02	-7.1998	-34.099667	0.000324	3.243543	1.098942	0.000130
1829	1.8189e+02	-7.1661	-33.986627	0.000284	2.838100	0.961574	0.000114
1830	1.8199e+02	-7.1132	-33.837253	0.000375	3.750346	1.270652	0.000150
1831	1.8209e+02	-7.0875	-33.712102	0.000314	3.142182	1.064600	0.000126
1832	1.8218e+02	-7.0474	-33.615211	0.000243	2.432657	0.824207	0.000097
1833	1.8228e+02	-7.0041	-33.506208	0.000274	2.736739	0.927232	0.000110
1834	1.8238e+02	-6.9688	-33.385094	0.000304	3.040821	1.030258	0.000122
1835	1.8248e+02	-6.9303	-33.263980	0.000304	3.040821	1.030258	0.000122
1836	1.8258e+02	-6.8982	-33.138829	0.000314	3.142182	1.064600	0.000126
1837	1.8268e+02	-6.8485	-33.013677	0.000314	3.142182	1.064600	0.000126
1838	1.8278e+02	-6.8068	-32.896601	0.000294	2.939461	0.995916	0.000118
1839	1.8288e+02	-6.7650	-32.755301	0.000355	3.547625	1.201968	0.000142
1840	1.8298e+02	-6.7298	-32.646298	0.000274	2.736739	0.927232	0.000110
1841	1.8308e+02	-6.6832	-32.529221	0.000294	2.939461	0.995916	0.000118
1842	1.8318e+02	-6.6447	-32.387921	0.000355	3.547625	1.201968	0.000142
1843	1.8328e+02	-6.6046	-32.246622	0.000355	3.547625	1.201968	0.000142
1844	1.8338e+02	-6.5613	-32.169916	0.000193	1.925854	0.652497	0.000077
1845	1.8348e+02	-6.5180	-31.992282	0.000446	4.459871	1.511045	0.000179
1846	1.8358e+02	-6.4875	-31.907502	0.000213	2.128575	0.721181	0.000085
1847	1.8368e+02	-6.4458	-31.733905	0.000436	4.358511	1.476703	0.000174
1848	1.8378e+02	-6.4089	-31.657200	0.000193	1.925854	0.652497	0.000077
1849	1.8388e+02	-6.3720	-31.568383	0.000223	2.229936	0.755523	0.000089
1850	1.8398e+02	-6.3319	-31.402860	0.000416	4.155789	1.408020	0.000166
1851	1.8407e+02	-6.2950	-31.265598	0.000345	3.446264	1.167626	0.000138
1852	1.8417e+02	-6.2469	-31.160632	0.000264	2.635379	0.892890	0.000105
1853	1.8427e+02	-6.2164	-31.051630	0.000274	2.736739	0.927232	0.000110
1854	1.8437e+02	-6.1667	-30.938590	0.000284	2.838100	0.961574	0.000114
1855	1.8447e+02	-6.1250	-30.777104	0.000405	4.054429	1.373678	0.000162
1856	1.8457e+02	-6.0961	-30.676176	0.000253	2.534018	0.858548	0.000101
1857	1.8467e+02	-6.0496	-30.551025	0.000314	3.142182	1.064600	0.000126
1858	1.8477e+02	-6.0159	-30.405688	0.000365	3.648986	1.236310	0.000146
1859	1.8487e+02	-5.9758	-30.256314	0.000375	3.750346	1.270652	0.000150
1860	1.8497e+02	-5.9341	-30.147311	0.000274	2.736739	0.927232	0.000110
1861	1.8507e+02	-5.8988	-30.022160	0.000314	3.142182	1.064600	0.000126
1862	1.8517e+02	-5.8490	-29.880860	0.000355	3.547625	1.201968	0.000142
1863	1.8527e+02	-5.8202	-29.788006	0.000233	2.331296	0.789865	0.000093
1864	1.8537e+02	-5.7688	-29.622483	0.000416	4.155789	1.408020	0.000166
1865	1.8547e+02	-5.7271	-29.537704	0.000213	2.128575	0.721181	0.000085
1866	1.8557e+02	-5.6998	-29.384292	0.000385	3.851707	1.304994	0.000154
1867	1.8567e+02	-5.6549	-29.234918	0.000375	3.750346	1.270652	0.000150
1868	1.8577e+02	-5.6228	-29.105730	0.000324	3.243543	1.098942	0.000130
1869	1.8587e+02	-5.5667	-29.000765	0.000264	2.635379	0.892890	0.000105
1870	1.8597e+02	-5.5314	-28.831205	0.000426	4.257150	1.442361	0.000170
1871	1.8606e+02	-5.4945	-28.710091	0.000304	3.040821	1.030258	0.000122
1872	1.8616e+02	-5.4576	-28.572828	0.000345	3.446264	1.167626	0.000138
1873	1.8626e+02	-5.4207	-28.439603	0.000334	3.344904	1.133284	0.000134
1874	1.8636e+02	-5.3774	-28.322526	0.000294	2.939461	0.995916	0.000118
1875	1.8646e+02	-5.3405	-28.205449	0.000294	2.939461	0.995916	0.000118
1876	1.8656e+02	-5.2876	-28.056075	0.000375	3.750346	1.270652	0.000150
1877	1.8666e+02	-5.2523	-27.886515	0.000426	4.257150	1.442361	0.000170
1878	1.8676e+02	-5.2089	-27.834032	0.000132	1.317689	0.446445	0.000053
1879	1.8686e+02	-5.1720	-27.660436	0.000436	4.358511	1.476703	0.000174
1880	1.8696e+02	-5.1384	-27.551433	0.000274	2.736739	0.927232	0.000110
1881	1.8706e+02	-5.1047	-27.418207	0.000334	3.344904	1.133284	0.000134
1882	1.8716e+02	-5.0646	-27.289019	0.000324	3.243543	1.098942	0.000130
1883	1.8726e+02	-5.0229	-27.143682	0.000365	3.648986	1.236310	0.000146
1884	1.8736e+02	-4.9763	-26.994308	0.000375	3.750346	1.270652	0.000150
1885	1.8746e+02	-4.9394	-26.857045	0.000345	3.446264	1.167626	0.000138
1886	1.8756e+02	-4.8977	-26.719783	0.000345	3.446264	1.167626	0.000138
1887	1.8766e+02	-4.8528	-26.586557	0.000334	3.344904	1.133284	0.000134
1888	1.8776e+02	-4.8207	-26.485629	0.000253	2.534018	0.858548	0.000101
1889	1.8786e+02	-4.7726	-26.312032	0.000436	4.358511	1.476703	0.000174
1890	1.8796e+02	-4.7293	-26.162658	0.000375	3.750346	1.270652	0.000150
1891	1.8806e+02	-4.7068	-26.057693	0.000264	2.635379	0.892890	0.000105
1892	1.8815e+02	-4.6523	-25.916393	0.000355	3.547625	1.201968	0.000142
1893	1.8825e+02	-4.6202	-25.787205	0.000324	3.243543	1.098942	0.000130
1894	1.8835e+02	-4.5817	-25.649942	0.000345	3.446264	1.167626	0.000138
1895	1.8845e+02	-4.5384	-25.544976	0.000264	2.635379	0.892890	0.000105
1896	1.8855e+02	-4.4983	-25.347157	0.000497	4.966675	1.682755	0.000199
1897	1.8865e+02	-4.4534	-25.217968	0.000324	3.243543	1.098942	0.000130
1898	1.8875e+02	-4.4229	-25.096854	0.000304	3.040821	1.030258	0.000122
1899	1.8885e+02	-4.3796	-24.983815	0.000284	2.838100	0.961574	0.000114
1900	1.8895e+02	-4.3330	-24.802143	0.000456	4.561232	1.545387	0.000183
1901	1.8905e+02	-4.2961	-24.697178	0.000264	2.635379	0.892890	0.000105
1902	1.8915e+02	-4.2624	-24.600287	0.000243	2.432657	0.824207	0.000097
1903	1.8925e+02	-4.2175	-24.406504	0.000487	4.865314	1.648413	0.000195
1904	1.8935e+02	-4.1790	-24.285390	0.000304	3.040821	1.030258	0.000122
1905	1.8945e+02	-4.1421	-24.152165	0.000334	3.344904	1.133284	0.000134
1906	1.8955e+02	-4.1004	-23.990679	0.000405	4.054429	1.373678	0.000162
1907	1.8965e+02	-4.0603	-23.881676	0.000274	2.736739	0.927232	0.000110
1908	1.8975e+02	-4.0186	-23.740377	0.000355	3.547625	1.201968	0.000142
1909	1.8985e+02	-3.9881	-23.623300	0.000294	2.939461	0.995916	0.000118
1910	1.8995e+02	-3.9368	-23.494111	0.000324	3.243543	1.098942	0.000130
1911	1.9004e+02	-3.9047	-23.316477	0.000446	4.459871	1.511045	0.000179
1912	1.9014e+02	-3.8550	-23.183252	0.000334	3.344904	1.133284	0.000134
1913	1.9024e+02	-3.8229	-23.029841	0.000385	3.851707	1.304994	0.000154
1914	1.9034e+02	-3.7812	-22.896615	0.000334	3.344904	1.133284	0.000134
1915	1.9044e+02	-3.7330	-22.714944	0.000456	4.561232	1.545387	0.000183
1916	1.9054e+02	-3.6929	-22.626127	0.000223	2.229936	0.755523	0.000089
1917	1.9064e+02	-3.6609	-22.476753	0.000375	3.750346	1.270652	0.000150
1918	1.9074e+02	-3.6240	-22.363713	0.000284	2.838100	0.961574	0.000114
1919	1.9084e+02	-3.5774	-22.202228	0.000405	4.054429	1.373678	0.000162
1920	1.9094e+02	-3.5438	-22.081114	0.000304	3.040821	1.030258	0.000122
1921	1.9104e+02	-3.5036	-21.911554	0.000426	4.257150	1.442361	0.000170
1922	1.9114e+02	-3.4667	-21.766217	0.000365	3.648986	1.236310	0.000146
1923	1.9124e+02	-3.4250	-21.624918	0.000355	3.547625	1.201968	0.000142
1924	1.9134e+02	-3.3817	-21.463432	0.000405	4.054429	1.373678	0.000162
1925	1.9144e+02	-3.3352	-21.358467	0.000264	2.635379	0.892890	0.000105
1926	1.9154e+02	-3.3031	-21.196981	0.000405	4.054429	1.373678	0.000162
1927	1.9164e+02	-3.2582	-21.120276	0.000193	1.925854	0.652497	0.000077
1928	1.9174e+02	-3.2213	-20.894196	0.000568	5.676200	1.923149	0.000227
1929	1.9184e+02	-3.1860	-20.817490	0.000193	1.925854	0.652497	0.000077
1930	1.9194e+02	-3.1427	-20.668116	0.000375	3.750346	1.270652	0.000150
1931	1.9203e+02	-3.1042	-20.498557	0.000426	4.257150	1.442361	0.000170
1932	1.9213e+02	-3.0657	-20.361294	0.000345	3.446264	1.167626	0.000138
1933	1.9223e+02	-3.0240	-20.199809	0.000405	4.054429	1.373678	0.000162
1934	1.9233e+02	-2.9807	-20.078695	0.000304	3.040821	1.030258	0.000122
1935	1.9243e+02	-2.9422	-19.937395	0.000355	3.547625	1.201968	0.000142
1936	1.9253e+02	-2.9021	-19.788021	0.000375	3.750346	1.270652	0.000150
1937	1.9263e+02	-2.8555	-19.594238	0.000487	4.865314	1.648413	0.000195
1938	1.9273e+02	-2.8299	-19.525607	0.000172	1.723132	0.583813	0.000069
1939	1.9283e+02	-2.7946	-19.360084	0.000416	4.155789	1.408020	0.000166
1940	1.9293e+02	-2.7432	-19.198599	0.000405	4.054429	1.373678	0.000162
1941	1.9303e+02	-2.7079	-19.073448	0.000314	3.142182	1.064600	0.000126
1942	1.9313e+02	-2.6662	-18.920037	0.000385	3.851707	1.304994	0.000154
1943	1.9323e+02	-2.6261	-18.790848	0.000324	3.243543	1.098942	0.000130
1944	1.9333e+02	-2.5860	-18.653586	0.000345	3.446264	1.167626	0.000138
1945	1.9343e+02	-2.5475	-18.544583	0.000274	2.736739	0.927232	0.000110
1946	1.9353e+02	-2.5058	-18.350800	0.000487	4.865314	1.648413	0.000195
1947	1.9363e+02	-2.4625	-18.209501	0.000355	3.547625	1.201968	0.000142
1948	1.9373e+02	-2.4336	-18.084350	0.000314	3.142182	1.064600	0.000126
1949	1.9383e+02	-2.3823	-17.959198	0.000314	3.142182	1.064600	0.000126
1950	1.9393e+02	-2.3534	-17.801750	0.000395	3.953068	1.339336	0.000158
1951	1.9403e+02	-2.3005	-17.688710	0.000284	2.838100	0.961574	0.000114
1952	1.9412e+02	-2.2668	-17.511076	0.000446	4.459871	1.511045	0.000179
1953	1.9422e+02	-2.2251	-17.393999	0.000294	2.939461	0.995916	0.000118
1954	1.9432e+02	-2.1898	-17.244625	0.000375	3.750346	1.270652	0.000150
1955	1.9442e+02	-2.1465	-17.107363	0.000345	3.446264	1.167626	0.000138
1956	1.9452e+02	-2.1128	-16.937803	0.000426	4.257150	1.442361	0.000170
1957	1.9462e+02	-2.0646	-16.780355	0.000395	3.953068	1.339336	0.000158
1958	1.9472e+02	-2.0294	-16.667315	0.000284	2.838100	0.961574	0.000114
1959	1.9482e+02	-1.9925	-16.517941	0.000375	3.750346	1.270652	0.000150
1960	1.9492e+02	-1.9459	-16.408938	0.000274	2.736739	0.927232	0.000110
1961	1.9502e+02	-1.8994	-16.251490	0.000395	3.953068	1.339336	0.000158
1962	1.9512e+02	-1.8689	-16.118264	0.000334	3.344904	1.133284	0.000134
1963	1.9522e+02	-1.8433	-15.956779	0.000405	4.054429	1.373678	0.000162
1964	1.9532e+02	-1.7839	-15.839702	0.000294	2.939461	0.995916	0.000118
1965	1.9542e+02	-1.7518	-15.698402	0.000355	3.547625	1.201968	0.000142
1966	1.9552e+02	-1.7101	-15.532880	0.000416	4.155789	1.408020	0.000166
1967	1.9562e+02	-1.6668	-15.435988	0.000243	2.432657	0.824207	0.000097
1968	1.9572e+02	-1.6203	-15.274503	0.000405	4.054429	1.373678	0.000162
1969	1.9582e+02	-1.5882	-15.145315	0.000324	3.243543	1.098942	0.000130
1970	1.9592e+02	-1.5609	-15.020164	0.000314	3.142182	1.064600	0.000126
1971	1.9601e+02	-1.5128	-14.862715	0.000395	3.953068	1.339336	0.000158
1972	1.9611e+02	-1.4663	-14.701230	0.000405	4.054429	1.373678	0.000162
1973	1.9621e+02	-1.4294	-14.580116	0.000304	3.040821	1.030258	0.000122
1974	1.9631e+02	-1.3861	-14.398445	0.000456	4.561232	1.545387	0.000183
1975	1.9641e+02	-1.3540	-14.289442	0.000274	2.736739	0.927232	0.000110
1976	1.9651e+02	-1.3074	-14.164291	0.000314	3.142182	1.064600	0.000126
1977	1.9661e+02	-1.2738	-14.002805	0.000405	4.054429	1.373678	0.000162
1978	1.9671e+02	-1.2321	-13.869580	0.000334	3.344904	1.133284	0.000134
1979	1.9681e+02	-1.1935	-13.728280	0.000355	3.547625	1.201968	0.000142
1980	1.9691e+02	-1.1550	-13.566795	0.000405	4.054429	1.373678	0.000162
1981	1.9701e+02	-1.1101	-13.417421	0.000375	3.750346	1.270652	0.000150
1982	1.9711e+02	-1.0732	-13.316492	0.000253	2.534018	0.858548	0.000101
1983	1.9721e+02	-1.0331	-13.195378	0.000304	3.040821	1.030258	0.000122
1984	1.9731e+02	-0.9866	-13.017744	0.000446	4.459871	1.511045	0.000179
1985	1.9741e+02	-0.9545	-12.884519	0.000334	3.344904	1.133284	0.000134
1986	1.9751e+02	-0.9096	-12.727070	0.000395	3.953068	1.339336	0.000158
1987	1.9761e+02	-0.8743	-12.622105	0.000264	2.635379	0.892890	0.000105
1988	1.9771e+02	-0.8278	-12.456582	0.000416	4.155789	1.408020	0.000166
1989	1.9781e+02	-0.7829	-12.307208	0.000375	3.750346	1.270652	0.000150
1990	1.9791e+02	-0.7460	-12.161871	0.000365	3.648986	1.236310	0.000146
1991	1.9800e+02	-0.7139	-12.040757	0.000304	3.040821	1.030258	0.000122
1992	1.9810e+02	-0.6690	-11.895420	0.000365	3.648986	1.236310	0.000146
1993	1.9820e+02	-0.6305	-11.778344	0.000294	2.939461	0.995916	0.000118
1994	1.9830e+02	-0.5968	-11.600710	0.000446	4.459871	1.511045	0.000179
1995	1.9840e+02	-0.5535	-11.447298	0.000385	3.851707	1.304994	0.000154
1996	1.9850e+02	-0.5085	-11.326184	0.000304	3.040821	1.030258	0.000122
1997	1.9860e+02	-0.4781	-11.116253	0.000527	5.270757	1.785781	0.000211
1998	1.9870e+02	-0.4299	-11.027436	0.000223	2.229936	0.755523	0.000089
1999	1.9880e+02	-0.3946	-10.894211	0.000334	3.344904	1.133284	0.000134
2000	1.9890e+02	-0.3561	-10.716577	0.000446	4.459871	1.511045	0.000179
2001	1.9900e+02	-0.3208	-10.672168	0.000111	1.114968	0.377761	0.000045
2002	1.9910e+02	-0.2663	-10.474349	0.000497	4.966675	1.682755	0.000199
2003	1.9920e+02	-0.2390	-10.324975	0.000375	3.750346	1.270652	0.000150
2004	1.9930e+02	-0.1925	-10.215972	0.000274	2.736739	0.927232	0.000110
2005	1.9940e+02	-0.1556	-10.078709	0.000345	3.446264	1.167626	0.000138
2006	1.9950e+02	-0.1155	-9.921261	0.000395	3.953068	1.339336	0.000158
2007	1.9960e+02	-0.0674	-9.800147	0.000304	3.040821	1.030258	0.000122
2008	1.9970e+02	-0.0369	-9.634624	0.000416	4.155789	1.408020	0.000166
2009	1.9980e+02	0.0064	-9.509473	0.000416	4.155789	1.408020	0.000126

PMax (uC/cm2):	7.13e+01
Pr (uC/cm2):	3.08e+00
-Pr (uC/cm2):	-5.18e+00
PLoss (uC/cm2):	-5.14e+00
-Vc:	-8.25e-01
C (Max-Eff) (nF):	3.57e-01
K (Eff):	1.21e+03
Vert. (+/-Pr) Shift (uC/cm2):	-1.05e+00
Offset (uC/cm2):	4.33e+00

A (Loop Area - uC/cm2·Volts):	6.04e-02



Hysteresis Version: 5.48.1 - Radiant Technologies, Inc., 1999 - 9/12/24

