»»»»»»»»»»»»»»»»»»»»»»»»»»»»»»»»»»»» Hysteresis ««««««««««««««««««««««««««««««««««««
»»»  Executed Version:	5.48.1
»»»  Vision Version:	5.48.4 (R)
»»»  Vision Compiled:	9/18/24
»»»  Driver Version:	5.47.0
»»»  Windows Version:	Windows 8 or 8.1
»»»  Processor Information:	x86 (AMD or Intel) - 32 Processors
»»»  Tester Name:	PMF21124-494 (100V)
»»»  Tester S/N:	PMF21124-494
»»»  Internal Amp Type:	100V RevK 270k
»»»  Internal Amp S/N:	iAB2-596/K     
»»»  Execution Count:	1
»»»»»»»»»»»»»»»»»»»»»»»»»»»»»»»»»»»»»»»»»»««««««««««««««««««««««««««««««««««««««««««

Stored:	6/19/2025 - 18:59:3
Configured:	06/19/25 10:04:32 AM
Executed:	06/19/25 06:58:40 PM

»»»»»»»»»»»»»»»»»»»»»»»»»»»»»»»»»»» Sample Info ««««««««««««««««««««««««««««««««««««
Sample Name:	
Lot Name:	
Wafer Name:	
Die Row/Column:	0/0
Capacitor Number:	0
Sample Area (cm2):	1.00e-04
Sample Thickness (microns):	3.00e-01

Amplifier:	Internal

»»»»»»»»»»»»»»»»»»»»»»»»»»»»»»»»»»» Tester Info «««««««««««««««««««««««««««««««««««
Tester Name:	PMF21124-494 (100V)
Tester Serial Number:	PMF21124-494
Return Signal Amp. Level:	0.19 [Index: 3]

»»»»»»»»»»»»»»»»»»»»»»»»»»»»»»»» Hysteresis Info ««««««««««««««««««««««««««««««««««
Task Name:	Hyst-1168
Volts:	20.00
Field:	666.67 (kV/cm)
DCBias:	0.00
DCField:	0.00 (kV/cm)
Hysteresis Period (ms):	2.00e+02
Preset:	Enabled
Preset Delay (ms):	1.00e+03
Profile:	Standard Bipolar

»»»»»»»»»»»»»»»»»»»»»»»»»»»»»»»»»»»»»» Data «««««««««««««««««««««««««««««««««««««««
Points:	2009

Valid Data

Point	Time (ms)	Drive Voltage	Measured Polarization (uC/cm2)	Capacitance (uF)	Normalized Capacitance (uF/cm2)	Dielectric Constant	Instantaneous Current (mA)
   1	0.0000e+00	0.0032	-4.751709	0.000193	1.926124	0.652588	0.000077
   2	9.9500e-02	0.0369	-4.675003	0.000193	1.926124	0.652588	0.000077
   3	1.9900e-01	0.0770	-4.505443	0.000426	4.257748	1.442564	0.000170
   4	2.9850e-01	0.1283	-4.400478	0.000264	2.635749	0.893016	0.000105
   5	3.9800e-01	0.1684	-4.247067	0.000385	3.852248	1.305177	0.000154
   6	4.9750e-01	0.1925	-4.097693	0.000375	3.750873	1.270830	0.000150
   7	5.9700e-01	0.2358	-3.944282	0.000385	3.852248	1.305177	0.000154
   8	6.9650e-01	0.2727	-3.782796	0.000405	4.054998	1.373870	0.000162
   9	7.9600e-01	0.3144	-3.641496	0.000355	3.548123	1.202137	0.000142
  10	8.9550e-01	0.3674	-3.504234	0.000345	3.446748	1.167790	0.000138
  11	9.9500e-01	0.4043	-3.395231	0.000274	2.737124	0.927363	0.000110
  12	1.0945e+00	0.4380	-3.241820	0.000385	3.852248	1.305177	0.000154
  13	1.1940e+00	0.4732	-3.084372	0.000395	3.953623	1.339524	0.000158
  14	1.2935e+00	0.5118	-2.939035	0.000365	3.649498	1.236483	0.000146
  15	1.3930e+00	0.5438	-2.797735	0.000355	3.548123	1.202137	0.000142
  16	1.4925e+00	0.6048	-2.640287	0.000395	3.953623	1.339524	0.000158
  17	1.5920e+00	0.6273	-2.511098	0.000324	3.243998	1.099096	0.000130
  18	1.6915e+00	0.6770	-2.329427	0.000456	4.561873	1.545604	0.000183
  19	1.7910e+00	0.7123	-2.240610	0.000223	2.230249	0.755629	0.000089
  20	1.8905e+00	0.7524	-2.083162	0.000395	3.953623	1.339524	0.000158
  21	1.9900e+00	0.7909	-1.958011	0.000314	3.142623	1.064750	0.000126
  22	2.0895e+00	0.8326	-1.800563	0.000395	3.953623	1.339524	0.000158
  23	2.1890e+00	0.8695	-1.667337	0.000335	3.345373	1.133443	0.000134
  24	2.2885e+00	0.9128	-1.530074	0.000345	3.446748	1.167790	0.000138
  25	2.3880e+00	0.9561	-1.384738	0.000365	3.649498	1.236483	0.000146
  26	2.4875e+00	0.9962	-1.207104	0.000446	4.460498	1.511258	0.000179
  27	2.5870e+00	1.0347	-1.102138	0.000264	2.635749	0.893016	0.000105
  28	2.6865e+00	1.0716	-0.940653	0.000405	4.054998	1.373870	0.000162
  29	2.7860e+00	1.1198	-0.803390	0.000345	3.446748	1.167790	0.000138
  30	2.8855e+00	1.1583	-0.654016	0.000375	3.750873	1.270830	0.000150
  31	2.9850e+00	1.1919	-0.512716	0.000355	3.548123	1.202137	0.000142
  32	3.0845e+00	1.2256	-0.343157	0.000426	4.257748	1.442564	0.000170
  33	3.1840e+00	1.2722	-0.205894	0.000345	3.446748	1.167790	0.000138
  34	3.2835e+00	1.3042	-0.048446	0.000395	3.953623	1.339524	0.000158
  35	3.3830e+00	1.3668	0.125151	0.000436	4.359123	1.476911	0.000174
  36	3.4825e+00	1.3989	0.242228	0.000294	2.939874	0.996056	0.000118
  37	3.5820e+00	1.4262	0.351231	0.000274	2.737124	0.927363	0.000110
  38	3.6815e+00	1.4759	0.536939	0.000466	4.663248	1.579951	0.000187
  39	3.7810e+00	1.5144	0.662090	0.000314	3.142623	1.064750	0.000126
  40	3.8805e+00	1.5449	0.839724	0.000446	4.460498	1.511258	0.000179
  41	3.9800e+00	1.5930	0.964875	0.000314	3.142623	1.064750	0.000126
  42	4.0795e+00	1.6203	1.142509	0.000446	4.460498	1.511258	0.000179
  43	4.1790e+00	1.6716	1.259586	0.000294	2.939874	0.996056	0.000118
  44	4.2785e+00	1.7117	1.425109	0.000416	4.156373	1.408217	0.000166
  45	4.3780e+00	1.7582	1.582557	0.000395	3.953623	1.339524	0.000158
  46	4.4775e+00	1.7935	1.707708	0.000314	3.142623	1.064750	0.000126
  47	4.5770e+00	1.8304	1.881305	0.000436	4.359123	1.476911	0.000174
  48	4.6765e+00	1.8673	2.030679	0.000375	3.750873	1.270830	0.000150
  49	4.7760e+00	1.9122	2.180053	0.000375	3.750873	1.270830	0.000150
  50	4.8755e+00	1.9540	2.325390	0.000365	3.649498	1.236483	0.000146
  51	4.9750e+00	1.9860	2.494950	0.000426	4.257748	1.442564	0.000170
  52	5.0745e+00	2.0294	2.628175	0.000335	3.345373	1.133443	0.000134
  53	5.1740e+00	2.0727	2.769475	0.000355	3.548123	1.202137	0.000142
  54	5.2735e+00	2.1144	2.934998	0.000416	4.156373	1.408217	0.000166
  55	5.3730e+00	2.1497	3.092446	0.000395	3.953623	1.339524	0.000158
  56	5.4725e+00	2.1834	3.237783	0.000365	3.649498	1.236483	0.000146
  57	5.5720e+00	2.2235	3.362934	0.000314	3.142623	1.064750	0.000126
  58	5.6715e+00	2.2684	3.532494	0.000426	4.257748	1.442564	0.000170
  59	5.7710e+00	2.3085	3.702053	0.000426	4.257748	1.442564	0.000170
  60	5.8705e+00	2.3518	3.839316	0.000345	3.446748	1.167790	0.000138
  61	5.9700e+00	2.3823	3.972542	0.000335	3.345373	1.133443	0.000134
  62	6.0695e+00	2.4288	4.109804	0.000345	3.446748	1.167790	0.000138
  63	6.1690e+00	2.4657	4.267252	0.000395	3.953623	1.339524	0.000158
  64	6.2685e+00	2.5090	4.416626	0.000375	3.750873	1.270830	0.000150
  65	6.3680e+00	2.5555	4.630595	0.000537	5.372872	1.820378	0.000215
  66	6.4675e+00	2.5940	4.719412	0.000223	2.230249	0.755629	0.000089
  67	6.5670e+00	2.6309	4.897046	0.000446	4.460498	1.511258	0.000179
  68	6.6665e+00	2.6694	5.054494	0.000395	3.953623	1.339524	0.000158
  69	6.7660e+00	2.7128	5.215979	0.000405	4.054998	1.373870	0.000162
  70	6.8655e+00	2.7513	5.377465	0.000405	4.054998	1.373870	0.000162
  71	6.9650e+00	2.7898	5.482430	0.000264	2.635749	0.893016	0.000105
  72	7.0645e+00	2.8202	5.631804	0.000375	3.750873	1.270830	0.000150
  73	7.1640e+00	2.8780	5.765030	0.000335	3.345373	1.133443	0.000134
  74	7.2635e+00	2.9149	5.942664	0.000446	4.460498	1.511258	0.000179
  75	7.3630e+00	2.9454	6.096075	0.000385	3.852248	1.305177	0.000154
  76	7.4625e+00	2.9871	6.249486	0.000385	3.852248	1.305177	0.000154
  77	7.5620e+00	3.0192	6.390786	0.000355	3.548123	1.202137	0.000142
  78	7.6615e+00	3.0609	6.580531	0.000476	4.764623	1.614298	0.000191
  79	7.7610e+00	3.1058	6.693571	0.000284	2.838499	0.961709	0.000114
  80	7.8605e+00	3.1491	6.846982	0.000385	3.852248	1.305177	0.000154
  81	7.9600e+00	3.1828	7.020579	0.000436	4.359123	1.476911	0.000174
  82	8.0595e+00	3.2245	7.161879	0.000355	3.548123	1.202137	0.000142
  83	8.1590e+00	3.2646	7.291067	0.000324	3.243998	1.099096	0.000130
  84	8.2585e+00	3.3095	7.456590	0.000416	4.156373	1.408217	0.000166
  85	8.3580e+00	3.3480	7.638261	0.000456	4.561873	1.545604	0.000183
  86	8.4575e+00	3.3849	7.747263	0.000274	2.737124	0.927363	0.000110
  87	8.5570e+00	3.4234	7.880489	0.000335	3.345373	1.133443	0.000134
  88	8.6565e+00	3.4635	8.062160	0.000456	4.561873	1.545604	0.000183
  89	8.7560e+00	3.5020	8.239794	0.000446	4.460498	1.511258	0.000179
  90	8.8555e+00	3.5438	8.389168	0.000375	3.750873	1.270830	0.000150
  91	8.9550e+00	3.5951	8.510282	0.000304	3.041248	1.030403	0.000122
  92	9.0545e+00	3.6320	8.704065	0.000487	4.865998	1.648645	0.000195
  93	9.1540e+00	3.6593	8.837290	0.000335	3.345373	1.133443	0.000134
  94	9.2535e+00	3.6978	8.994738	0.000395	3.953623	1.339524	0.000158
  95	9.3530e+00	3.7411	9.132001	0.000345	3.446748	1.167790	0.000138
  96	9.4525e+00	3.7828	9.277338	0.000365	3.649498	1.236483	0.000146
  97	9.5520e+00	3.8261	9.450935	0.000436	4.359123	1.476911	0.000174
  98	9.6515e+00	3.8598	9.535715	0.000213	2.128874	0.721282	0.000085
  99	9.7510e+00	3.8951	9.693163	0.000395	3.953623	1.339524	0.000158
 100	9.8505e+00	3.9448	9.886945	0.000487	4.865998	1.648645	0.000195
 101	9.9500e+00	3.9865	10.032282	0.000365	3.649498	1.236483	0.000146
 102	1.0050e+01	4.0282	10.213953	0.000456	4.561873	1.545604	0.000183
 103	1.0149e+01	4.0603	10.343142	0.000324	3.243998	1.099096	0.000130
 104	1.0248e+01	4.1116	10.500590	0.000395	3.953623	1.339524	0.000158
 105	1.0348e+01	4.1341	10.662075	0.000405	4.054998	1.373870	0.000162
 106	1.0447e+01	4.1854	10.843747	0.000456	4.561873	1.545604	0.000183
 107	1.0547e+01	4.2223	10.964861	0.000304	3.041248	1.030403	0.000122
 108	1.0646e+01	4.2657	11.118272	0.000385	3.852248	1.305177	0.000154
 109	1.0746e+01	4.3009	11.279757	0.000405	4.054998	1.373870	0.000162
 110	1.0845e+01	4.3443	11.433168	0.000385	3.852248	1.305177	0.000154
 111	1.0945e+01	4.3796	11.570431	0.000345	3.446748	1.167790	0.000138
 112	1.1044e+01	4.4277	11.744028	0.000436	4.359123	1.476911	0.000174
 113	1.1144e+01	4.4630	11.881290	0.000345	3.446748	1.167790	0.000138
 114	1.1243e+01	4.5111	12.030664	0.000375	3.750873	1.270830	0.000150
 115	1.1343e+01	4.5416	12.212336	0.000456	4.561873	1.545604	0.000183
 116	1.1443e+01	4.5833	12.313264	0.000253	2.534374	0.858669	0.000101
 117	1.1542e+01	4.6202	12.482824	0.000426	4.257748	1.442564	0.000170
 118	1.1642e+01	4.6587	12.664495	0.000456	4.561873	1.545604	0.000183
 119	1.1741e+01	4.7004	12.801757	0.000345	3.446748	1.167790	0.000138
 120	1.1841e+01	4.7341	12.963243	0.000405	4.054998	1.373870	0.000162
 121	1.1940e+01	4.7838	13.088394	0.000314	3.142623	1.064750	0.000126
 122	1.2040e+01	4.8223	13.282177	0.000487	4.865998	1.648645	0.000195
 123	1.2139e+01	4.8544	13.415402	0.000335	3.345373	1.133443	0.000134
 124	1.2239e+01	4.9041	13.593036	0.000446	4.460498	1.511258	0.000179
 125	1.2338e+01	4.9426	13.746447	0.000385	3.852248	1.305177	0.000154
 126	1.2438e+01	4.9795	13.871598	0.000314	3.142623	1.064750	0.000126
 127	1.2537e+01	5.0164	14.008861	0.000345	3.446748	1.167790	0.000138
 128	1.2636e+01	5.0614	14.174384	0.000416	4.156373	1.408217	0.000166
 129	1.2736e+01	5.0934	14.295498	0.000304	3.041248	1.030403	0.000122
 130	1.2835e+01	5.1400	14.469094	0.000436	4.359123	1.476911	0.000174
 131	1.2935e+01	5.1817	14.626543	0.000395	3.953623	1.339524	0.000158
 132	1.3034e+01	5.2170	14.763805	0.000345	3.446748	1.167790	0.000138
 133	1.3134e+01	5.2667	14.917217	0.000385	3.852248	1.305177	0.000154
 134	1.3233e+01	5.2956	15.086776	0.000426	4.257748	1.442564	0.000170
 135	1.3333e+01	5.3389	15.240187	0.000385	3.852248	1.305177	0.000154
 136	1.3432e+01	5.3678	15.361301	0.000304	3.041248	1.030403	0.000122
 137	1.3532e+01	5.4223	15.534898	0.000436	4.359123	1.476911	0.000174
 138	1.3632e+01	5.4576	15.660050	0.000314	3.142623	1.064750	0.000126
 139	1.3731e+01	5.4977	15.809424	0.000375	3.750873	1.270830	0.000150
 140	1.3831e+01	5.5378	15.978983	0.000426	4.257748	1.442564	0.000170
 141	1.3930e+01	5.5779	16.100097	0.000304	3.041248	1.030403	0.000122
 142	1.4030e+01	5.6132	16.265620	0.000416	4.156373	1.408217	0.000166
 143	1.4129e+01	5.6517	16.439217	0.000436	4.359123	1.476911	0.000174
 144	1.4229e+01	5.6950	16.641074	0.000507	5.068747	1.717338	0.000203
 145	1.4328e+01	5.7303	16.766225	0.000314	3.142623	1.064750	0.000126
 146	1.4428e+01	5.7784	16.919636	0.000385	3.852248	1.305177	0.000154
 147	1.4527e+01	5.8073	17.052861	0.000335	3.345373	1.133443	0.000134
 148	1.4627e+01	5.8538	17.169938	0.000294	2.939874	0.996056	0.000118
 149	1.4726e+01	5.9004	17.351609	0.000456	4.561873	1.545604	0.000183
 150	1.4825e+01	5.9549	17.525206	0.000436	4.359123	1.476911	0.000174
 151	1.4925e+01	5.9790	17.638246	0.000284	2.838499	0.961709	0.000114
 152	1.5024e+01	6.0095	17.819917	0.000456	4.561873	1.545604	0.000183
 153	1.5124e+01	6.0512	18.009663	0.000476	4.764623	1.614298	0.000191
 154	1.5223e+01	6.0929	18.142888	0.000335	3.345373	1.133443	0.000134
 155	1.5323e+01	6.1298	18.300336	0.000395	3.953623	1.339524	0.000158
 156	1.5422e+01	6.1715	18.433562	0.000335	3.345373	1.133443	0.000134
 157	1.5522e+01	6.2132	18.570824	0.000345	3.446748	1.167790	0.000138
 158	1.5621e+01	6.2533	18.756533	0.000466	4.663248	1.579951	0.000187
 159	1.5721e+01	6.2982	18.918018	0.000405	4.054998	1.373870	0.000162
 160	1.5820e+01	6.3335	19.014909	0.000243	2.432999	0.824322	0.000097
 161	1.5920e+01	6.3784	19.180432	0.000416	4.156373	1.408217	0.000166
 162	1.6020e+01	6.4121	19.349992	0.000426	4.257748	1.442564	0.000170
 163	1.6119e+01	6.4522	19.503403	0.000385	3.852248	1.305177	0.000154
 164	1.6218e+01	6.4859	19.640665	0.000345	3.446748	1.167790	0.000138
 165	1.6318e+01	6.5244	19.786002	0.000365	3.649498	1.236483	0.000146
 166	1.6418e+01	6.5709	19.951525	0.000416	4.156373	1.408217	0.000166
 167	1.6517e+01	6.6094	20.108973	0.000395	3.953623	1.339524	0.000158
 168	1.6616e+01	6.6431	20.238161	0.000324	3.243998	1.099096	0.000130
 169	1.6716e+01	6.6897	20.399647	0.000405	4.054998	1.373870	0.000162
 170	1.6816e+01	6.7298	20.565169	0.000416	4.156373	1.408217	0.000166
 171	1.6915e+01	6.7747	20.694358	0.000324	3.243998	1.099096	0.000130
 172	1.7015e+01	6.8132	20.863917	0.000426	4.257748	1.442564	0.000170
 173	1.7114e+01	6.8404	21.037514	0.000436	4.359123	1.476911	0.000174
 174	1.7213e+01	6.8822	21.134406	0.000243	2.432999	0.824322	0.000097
 175	1.7313e+01	6.9239	21.328188	0.000487	4.865998	1.648645	0.000195
 176	1.7413e+01	6.9688	21.473525	0.000365	3.649498	1.236483	0.000146
 177	1.7512e+01	7.0185	21.635010	0.000405	4.054998	1.373870	0.000162
 178	1.7611e+01	7.0442	21.764199	0.000324	3.243998	1.099096	0.000130
 179	1.7711e+01	7.0811	21.957981	0.000487	4.865998	1.648645	0.000195
 180	1.7811e+01	7.1324	22.058910	0.000253	2.534374	0.858669	0.000101
 181	1.7910e+01	7.1629	22.244618	0.000466	4.663248	1.579951	0.000187
 182	1.8009e+01	7.2158	22.414178	0.000426	4.257748	1.442564	0.000170
 183	1.8109e+01	7.2511	22.519143	0.000264	2.635749	0.893016	0.000105
 184	1.8209e+01	7.2896	22.708889	0.000476	4.764623	1.614298	0.000191
 185	1.8308e+01	7.3201	22.858263	0.000375	3.750873	1.270830	0.000150
 186	1.8407e+01	7.3618	22.999562	0.000355	3.548123	1.202137	0.000142
 187	1.8507e+01	7.4164	23.173159	0.000436	4.359123	1.476911	0.000174
 188	1.8607e+01	7.4485	23.338682	0.000416	4.156373	1.408217	0.000166
 189	1.8706e+01	7.4870	23.455759	0.000294	2.939874	0.996056	0.000118
 190	1.8805e+01	7.5303	23.588984	0.000335	3.345373	1.133443	0.000134
 191	1.8905e+01	7.5688	23.758544	0.000426	4.257748	1.442564	0.000170
 192	1.9005e+01	7.6105	23.891769	0.000335	3.345373	1.133443	0.000134
 193	1.9104e+01	7.6506	24.012883	0.000304	3.041248	1.030403	0.000122
 194	1.9203e+01	7.6811	24.218777	0.000517	5.170122	1.751685	0.000207
 195	1.9303e+01	7.7292	24.315669	0.000243	2.432999	0.824322	0.000097
 196	1.9402e+01	7.7741	24.513488	0.000497	4.967372	1.682991	0.000199
 197	1.9502e+01	7.8110	24.666899	0.000385	3.852248	1.305177	0.000154
 198	1.9602e+01	7.8479	24.788013	0.000304	3.041248	1.030403	0.000122
 199	1.9701e+01	7.8864	24.961610	0.000436	4.359123	1.476911	0.000174
 200	1.9800e+01	7.9233	25.115021	0.000385	3.852248	1.305177	0.000154
 201	1.9900e+01	7.9666	25.236135	0.000304	3.041248	1.030403	0.000122
 202	2.0000e+01	8.0099	25.393584	0.000395	3.953623	1.339524	0.000158
 203	2.0099e+01	8.0452	25.567181	0.000436	4.359123	1.476911	0.000174
 204	2.0198e+01	8.0966	25.696369	0.000324	3.243998	1.099096	0.000130
 205	2.0298e+01	8.1319	25.890151	0.000487	4.865998	1.648645	0.000195
 206	2.0398e+01	8.1607	26.019340	0.000324	3.243998	1.099096	0.000130
 207	2.0497e+01	8.2073	26.148528	0.000324	3.243998	1.099096	0.000130
 208	2.0596e+01	8.2506	26.330199	0.000456	4.561873	1.545604	0.000183
 209	2.0696e+01	8.2843	26.459388	0.000324	3.243998	1.099096	0.000130
 210	2.0796e+01	8.3228	26.641059	0.000456	4.561873	1.545604	0.000183
 211	2.0895e+01	8.3661	26.798507	0.000395	3.953623	1.339524	0.000158
 212	2.0994e+01	8.4126	26.955955	0.000395	3.953623	1.339524	0.000158
 213	2.1094e+01	8.4383	27.101292	0.000365	3.649498	1.236483	0.000146
 214	2.1194e+01	8.4848	27.238555	0.000345	3.446748	1.167790	0.000138
 215	2.1293e+01	8.5281	27.408115	0.000426	4.257748	1.442564	0.000170
 216	2.1392e+01	8.5586	27.541340	0.000335	3.345373	1.133443	0.000134
 217	2.1492e+01	8.5987	27.735123	0.000487	4.865998	1.648645	0.000195
 218	2.1591e+01	8.6436	27.860274	0.000314	3.142623	1.064750	0.000126
 219	2.1691e+01	8.6821	28.001573	0.000355	3.548123	1.202137	0.000142
 220	2.1791e+01	8.7302	28.175170	0.000436	4.359123	1.476911	0.000174
 221	2.1890e+01	8.7752	28.312433	0.000345	3.446748	1.167790	0.000138
 222	2.1989e+01	8.7976	28.449696	0.000345	3.446748	1.167790	0.000138
 223	2.2089e+01	8.8441	28.603107	0.000385	3.852248	1.305177	0.000154
 224	2.2189e+01	8.8826	28.744406	0.000355	3.548123	1.202137	0.000142
 225	2.2288e+01	8.9195	28.922040	0.000446	4.460498	1.511258	0.000179
 226	2.2387e+01	8.9612	29.059303	0.000345	3.446748	1.167790	0.000138
 227	2.2487e+01	9.0094	29.180417	0.000304	3.041248	1.030403	0.000122
 228	2.2587e+01	9.0431	29.374200	0.000487	4.865998	1.648645	0.000195
 229	2.2686e+01	9.0832	29.539722	0.000416	4.156373	1.408217	0.000166
 230	2.2785e+01	9.1201	29.697170	0.000395	3.953623	1.339524	0.000158
 231	2.2885e+01	9.1794	29.838470	0.000355	3.548123	1.202137	0.000142
 232	2.2985e+01	9.2019	29.979770	0.000355	3.548123	1.202137	0.000142
 233	2.3084e+01	9.2308	30.153367	0.000436	4.359123	1.476911	0.000174
 234	2.3183e+01	9.2837	30.278518	0.000314	3.142623	1.064750	0.000126
 235	2.3283e+01	9.3206	30.456152	0.000446	4.460498	1.511258	0.000179
 236	2.3383e+01	9.3687	30.593415	0.000345	3.446748	1.167790	0.000138
 237	2.3482e+01	9.3992	30.775086	0.000456	4.561873	1.545604	0.000183
 238	2.3581e+01	9.4409	30.888126	0.000284	2.838499	0.961709	0.000114
 239	2.3681e+01	9.4714	31.057685	0.000426	4.257748	1.442564	0.000170
 240	2.3780e+01	9.5227	31.170725	0.000284	2.838499	0.961709	0.000114
 241	2.3880e+01	9.5612	31.356433	0.000466	4.663248	1.579951	0.000187
 242	2.3980e+01	9.5997	31.509844	0.000385	3.852248	1.305177	0.000154
 243	2.4079e+01	9.6398	31.643070	0.000335	3.345373	1.133443	0.000134
 244	2.4178e+01	9.6831	31.792444	0.000375	3.750873	1.270830	0.000150
 245	2.4278e+01	9.7168	31.937781	0.000365	3.649498	1.236483	0.000146
 246	2.4378e+01	9.7521	32.042746	0.000264	2.635749	0.893016	0.000105
 247	2.4477e+01	9.7938	32.256715	0.000537	5.372872	1.820378	0.000215
 248	2.4576e+01	9.8339	32.389940	0.000335	3.345373	1.133443	0.000134
 249	2.4676e+01	9.8757	32.515091	0.000314	3.142623	1.064750	0.000126
 250	2.4776e+01	9.9254	32.672540	0.000395	3.953623	1.339524	0.000158
 251	2.4875e+01	9.9575	32.813839	0.000355	3.548123	1.202137	0.000142
 252	2.4974e+01	9.9896	32.955139	0.000355	3.548123	1.202137	0.000142
 253	2.5074e+01	10.0377	33.169107	0.000537	5.372872	1.820378	0.000215
 254	2.5174e+01	10.0778	33.294258	0.000314	3.142623	1.064750	0.000126
 255	2.5273e+01	10.1195	33.387113	0.000233	2.331624	0.789976	0.000093
 256	2.5372e+01	10.1580	33.580895	0.000487	4.865998	1.648645	0.000195
 257	2.5472e+01	10.1949	33.750455	0.000426	4.257748	1.442564	0.000170
 258	2.5572e+01	10.2350	33.907903	0.000395	3.953623	1.339524	0.000158
 259	2.5671e+01	10.2831	34.077463	0.000426	4.257748	1.442564	0.000170
 260	2.5770e+01	10.3232	34.210688	0.000335	3.345373	1.133443	0.000134
 261	2.5870e+01	10.3553	34.279320	0.000172	1.723374	0.583895	0.000069
 262	2.5970e+01	10.3954	34.465028	0.000466	4.663248	1.579951	0.000187
 263	2.6069e+01	10.4339	34.598253	0.000335	3.345373	1.133443	0.000134
 264	2.6169e+01	10.4756	34.743590	0.000365	3.649498	1.236483	0.000146
 265	2.6268e+01	10.5206	34.888927	0.000365	3.649498	1.236483	0.000146
 266	2.6367e+01	10.5542	35.074635	0.000466	4.663248	1.579951	0.000187
 267	2.6467e+01	10.5960	35.195749	0.000304	3.041248	1.030403	0.000122
 268	2.6567e+01	10.6313	35.337049	0.000355	3.548123	1.202137	0.000142
 269	2.6666e+01	10.6649	35.494497	0.000395	3.953623	1.339524	0.000158
 270	2.6765e+01	10.7131	35.672131	0.000446	4.460498	1.511258	0.000179
 271	2.6865e+01	10.7500	35.829580	0.000395	3.953623	1.339524	0.000158
 272	2.6965e+01	10.7949	35.962805	0.000335	3.345373	1.133443	0.000134
 273	2.7064e+01	10.8302	36.108142	0.000365	3.649498	1.236483	0.000146
 274	2.7163e+01	10.8815	36.277702	0.000426	4.257748	1.442564	0.000170
 275	2.7263e+01	10.9248	36.423039	0.000365	3.649498	1.236483	0.000146
 276	2.7363e+01	10.9505	36.580487	0.000395	3.953623	1.339524	0.000158
 277	2.7462e+01	10.9954	36.717750	0.000345	3.446748	1.167790	0.000138
 278	2.7561e+01	11.0403	36.895384	0.000446	4.460498	1.511258	0.000179
 279	2.7661e+01	11.0676	37.004386	0.000274	2.737124	0.927363	0.000110
 280	2.7761e+01	11.1141	37.173946	0.000426	4.257748	1.442564	0.000170
 281	2.7860e+01	11.1494	37.291023	0.000294	2.939874	0.996056	0.000118
 282	2.7959e+01	11.1959	37.464620	0.000436	4.359123	1.476911	0.000174
 283	2.8059e+01	11.2296	37.605919	0.000355	3.548123	1.202137	0.000142
 284	2.8159e+01	11.2713	37.751256	0.000365	3.649498	1.236483	0.000146
 285	2.8258e+01	11.3130	37.900630	0.000375	3.750873	1.270830	0.000150
 286	2.8358e+01	11.3580	38.058079	0.000395	3.953623	1.339524	0.000158
 287	2.8457e+01	11.3933	38.231675	0.000436	4.359123	1.476911	0.000174
 288	2.8556e+01	11.4286	38.320492	0.000223	2.230249	0.755629	0.000089
 289	2.8656e+01	11.4703	38.477941	0.000395	3.953623	1.339524	0.000158
 290	2.8756e+01	11.5072	38.667686	0.000476	4.764623	1.614298	0.000191
 291	2.8855e+01	11.5505	38.792837	0.000314	3.142623	1.064750	0.000126
 292	2.8954e+01	11.5986	38.913951	0.000304	3.041248	1.030403	0.000122
 293	2.9054e+01	11.6355	39.067363	0.000385	3.852248	1.305177	0.000154
 294	2.9154e+01	11.6708	39.188477	0.000304	3.041248	1.030403	0.000122
 295	2.9253e+01	11.7093	39.378222	0.000476	4.764623	1.614298	0.000191
 296	2.9352e+01	11.7446	39.507410	0.000324	3.243998	1.099096	0.000130
 297	2.9452e+01	11.7895	39.676970	0.000426	4.257748	1.442564	0.000170
 298	2.9552e+01	11.8296	39.790010	0.000284	2.838499	0.961709	0.000114
 299	2.9651e+01	11.8665	39.915161	0.000314	3.142623	1.064750	0.000126
 300	2.9750e+01	11.9098	40.068572	0.000385	3.852248	1.305177	0.000154
 301	2.9850e+01	11.9515	40.189686	0.000304	3.041248	1.030403	0.000122
 302	2.9950e+01	11.9884	40.318875	0.000324	3.243998	1.099096	0.000130
 303	3.0049e+01	12.0317	40.500546	0.000456	4.561873	1.545604	0.000183
 304	3.0148e+01	12.0638	40.678180	0.000446	4.460498	1.511258	0.000179
 305	3.0248e+01	12.1087	40.815442	0.000345	3.446748	1.167790	0.000138
 306	3.0348e+01	12.1537	40.944631	0.000324	3.243998	1.099096	0.000130
 307	3.0447e+01	12.1938	41.102079	0.000395	3.953623	1.339524	0.000158
 308	3.0547e+01	12.2371	41.251453	0.000375	3.750873	1.270830	0.000150
 309	3.0646e+01	12.2740	41.408901	0.000395	3.953623	1.339524	0.000158
 310	3.0745e+01	12.3077	41.530015	0.000304	3.041248	1.030403	0.000122
 311	3.0845e+01	12.3494	41.659204	0.000324	3.243998	1.099096	0.000130
 312	3.0945e+01	12.3879	41.852986	0.000487	4.865998	1.648645	0.000195
 313	3.1044e+01	12.4344	41.990249	0.000345	3.446748	1.167790	0.000138
 314	3.1143e+01	12.4601	42.099251	0.000274	2.737124	0.927363	0.000110
 315	3.1243e+01	12.5002	42.204217	0.000264	2.635749	0.893016	0.000105
 316	3.1343e+01	12.5563	42.414148	0.000527	5.271497	1.786032	0.000211
 317	3.1442e+01	12.5932	42.567559	0.000385	3.852248	1.305177	0.000154
 318	3.1541e+01	12.6301	42.716933	0.000375	3.750873	1.270830	0.000150
 319	3.1641e+01	12.6734	42.834010	0.000294	2.939874	0.996056	0.000118
 320	3.1741e+01	12.7071	42.991458	0.000395	3.953623	1.339524	0.000158
 321	3.1840e+01	12.7440	43.136795	0.000365	3.649498	1.236483	0.000146
 322	3.1939e+01	12.7905	43.294244	0.000395	3.953623	1.339524	0.000158
 323	3.2039e+01	12.8178	43.451692	0.000395	3.953623	1.339524	0.000158
 324	3.2139e+01	12.8756	43.592992	0.000355	3.548123	1.202137	0.000142
 325	3.2238e+01	12.9093	43.734291	0.000355	3.548123	1.202137	0.000142
 326	3.2337e+01	12.9462	43.863480	0.000324	3.243998	1.099096	0.000130
 327	3.2437e+01	12.9798	43.996705	0.000335	3.345373	1.133443	0.000134
 328	3.2536e+01	13.0200	44.117819	0.000304	3.041248	1.030403	0.000122
 329	3.2636e+01	13.0585	44.279305	0.000405	4.054998	1.373870	0.000162
 330	3.2736e+01	13.1050	44.420605	0.000355	3.548123	1.202137	0.000142
 331	3.2835e+01	13.1483	44.598238	0.000446	4.460498	1.511258	0.000179
 332	3.2934e+01	13.1804	44.739538	0.000355	3.548123	1.202137	0.000142
 333	3.3034e+01	13.2205	44.868727	0.000324	3.243998	1.099096	0.000130
 334	3.3133e+01	13.2686	44.989841	0.000304	3.041248	1.030403	0.000122
 335	3.3233e+01	13.3023	45.155363	0.000416	4.156373	1.408217	0.000166
 336	3.3333e+01	13.3392	45.276477	0.000304	3.041248	1.030403	0.000122
 337	3.3432e+01	13.3857	45.442000	0.000416	4.156373	1.408217	0.000166
 338	3.3532e+01	13.4178	45.599448	0.000395	3.953623	1.339524	0.000158
 339	3.3631e+01	13.4627	45.740748	0.000355	3.548123	1.202137	0.000142
 340	3.3730e+01	13.4964	45.857825	0.000294	2.939874	0.996056	0.000118
 341	3.3830e+01	13.5445	46.011236	0.000385	3.852248	1.305177	0.000154
 342	3.3929e+01	13.5798	46.144461	0.000335	3.345373	1.133443	0.000134
 343	3.4029e+01	13.6231	46.330170	0.000466	4.663248	1.579951	0.000187
 344	3.4129e+01	13.6584	46.463395	0.000335	3.345373	1.133443	0.000134
 345	3.4228e+01	13.7050	46.620844	0.000395	3.953623	1.339524	0.000158
 346	3.4328e+01	13.7386	46.741958	0.000304	3.041248	1.030403	0.000122
 347	3.4427e+01	13.7788	46.903443	0.000405	4.054998	1.373870	0.000162
 348	3.4526e+01	13.8253	47.052817	0.000375	3.750873	1.270830	0.000150
 349	3.4626e+01	13.8622	47.173931	0.000304	3.041248	1.030403	0.000122
 350	3.4725e+01	13.8991	47.335417	0.000405	4.054998	1.373870	0.000162
 351	3.4825e+01	13.9360	47.484791	0.000375	3.750873	1.270830	0.000150
 352	3.4925e+01	13.9825	47.613979	0.000324	3.243998	1.099096	0.000130
 353	3.5024e+01	14.0178	47.727019	0.000284	2.838499	0.961709	0.000114
 354	3.5123e+01	14.0659	47.884467	0.000395	3.953623	1.339524	0.000158
 355	3.5223e+01	14.1012	48.005581	0.000304	3.041248	1.030403	0.000122
 356	3.5322e+01	14.1349	48.175141	0.000426	4.257748	1.442564	0.000170
 357	3.5422e+01	14.1798	48.324515	0.000375	3.750873	1.270830	0.000150
 358	3.5522e+01	14.2135	48.465815	0.000355	3.548123	1.202137	0.000142
 359	3.5621e+01	14.2616	48.590966	0.000314	3.142623	1.064750	0.000126
 360	3.5721e+01	14.2889	48.744377	0.000385	3.852248	1.305177	0.000154
 361	3.5820e+01	14.3338	48.922011	0.000446	4.460498	1.511258	0.000179
 362	3.5919e+01	14.3787	49.039088	0.000294	2.939874	0.996056	0.000118
 363	3.6019e+01	14.4092	49.172313	0.000335	3.345373	1.133443	0.000134
 364	3.6118e+01	14.4622	49.366096	0.000487	4.865998	1.648645	0.000195
 365	3.6218e+01	14.5039	49.467024	0.000253	2.534374	0.858669	0.000101
 366	3.6318e+01	14.5376	49.608324	0.000355	3.548123	1.202137	0.000142
 367	3.6417e+01	14.5745	49.753661	0.000365	3.649498	1.236483	0.000146
 368	3.6517e+01	14.6178	49.919183	0.000416	4.156373	1.408217	0.000166
 369	3.6616e+01	14.6595	50.036260	0.000294	2.939874	0.996056	0.000118
 370	3.6715e+01	14.6996	50.181597	0.000365	3.649498	1.236483	0.000146
 371	3.6815e+01	14.7301	50.306748	0.000314	3.142623	1.064750	0.000126
 372	3.6914e+01	14.7814	50.480345	0.000436	4.359123	1.476911	0.000174
 373	3.7014e+01	14.8103	50.605496	0.000314	3.142623	1.064750	0.000126
 374	3.7114e+01	14.8584	50.754870	0.000375	3.750873	1.270830	0.000150
 375	3.7213e+01	14.9001	50.896170	0.000355	3.548123	1.202137	0.000142
 376	3.7313e+01	14.9306	51.037470	0.000355	3.548123	1.202137	0.000142
 377	3.7412e+01	14.9819	51.162621	0.000314	3.142623	1.064750	0.000126
 378	3.7511e+01	15.0156	51.344292	0.000456	4.561873	1.545604	0.000183
 379	3.7611e+01	15.0509	51.489629	0.000365	3.649498	1.236483	0.000146
 380	3.7711e+01	15.0910	51.626892	0.000345	3.446748	1.167790	0.000138
 381	3.7810e+01	15.1311	51.764154	0.000345	3.446748	1.167790	0.000138
 382	3.7910e+01	15.1712	51.925640	0.000405	4.054998	1.373870	0.000162
 383	3.8009e+01	15.2226	52.054828	0.000324	3.243998	1.099096	0.000130
 384	3.8108e+01	15.2546	52.220351	0.000416	4.156373	1.408217	0.000166
 385	3.8208e+01	15.2867	52.329353	0.000274	2.737124	0.927363	0.000110
 386	3.8307e+01	15.3236	52.502950	0.000436	4.359123	1.476911	0.000174
 387	3.8407e+01	15.3669	52.632139	0.000324	3.243998	1.099096	0.000130
 388	3.8507e+01	15.4119	52.773438	0.000355	3.548123	1.202137	0.000142
 389	3.8606e+01	15.4536	52.926850	0.000385	3.852248	1.305177	0.000154
 390	3.8706e+01	15.4857	53.072186	0.000365	3.649498	1.236483	0.000146
 391	3.8805e+01	15.5322	53.229635	0.000395	3.953623	1.339524	0.000158
 392	3.8904e+01	15.5723	53.362860	0.000335	3.345373	1.133443	0.000134
 393	3.9004e+01	15.6172	53.492049	0.000324	3.243998	1.099096	0.000130
 394	3.9103e+01	15.6525	53.641423	0.000375	3.750873	1.270830	0.000150
 395	3.9203e+01	15.6926	53.794834	0.000385	3.852248	1.305177	0.000154
 396	3.9303e+01	15.7327	53.932096	0.000345	3.446748	1.167790	0.000138
 397	3.9402e+01	15.7744	54.085507	0.000385	3.852248	1.305177	0.000154
 398	3.9502e+01	15.8113	54.210659	0.000314	3.142623	1.064750	0.000126
 399	3.9601e+01	15.8482	54.364070	0.000385	3.852248	1.305177	0.000154
 400	3.9700e+01	15.8867	54.481147	0.000294	2.939874	0.996056	0.000118
 401	3.9800e+01	15.9348	54.654744	0.000436	4.359123	1.476911	0.000174
 402	3.9900e+01	15.9733	54.759709	0.000264	2.635749	0.893016	0.000105
 403	3.9999e+01	16.0086	54.941380	0.000456	4.561873	1.545604	0.000183
 404	4.0099e+01	16.0552	55.050383	0.000274	2.737124	0.927363	0.000110
 405	4.0198e+01	16.0889	55.248203	0.000497	4.967372	1.682991	0.000199
 406	4.0297e+01	16.1209	55.369317	0.000304	3.041248	1.030403	0.000122
 407	4.0397e+01	16.1642	55.490431	0.000304	3.041248	1.030403	0.000122
 408	4.0496e+01	16.2060	55.623656	0.000335	3.345373	1.133443	0.000134
 409	4.0596e+01	16.2493	55.773030	0.000375	3.750873	1.270830	0.000150
 410	4.0696e+01	16.2846	55.926441	0.000385	3.852248	1.305177	0.000154
 411	4.0795e+01	16.3311	56.035444	0.000274	2.737124	0.927363	0.000110
 412	4.0895e+01	16.3712	56.180781	0.000365	3.649498	1.236483	0.000146
 413	4.0994e+01	16.4129	56.318044	0.000345	3.446748	1.167790	0.000138
 414	4.1093e+01	16.4450	56.515863	0.000497	4.967372	1.682991	0.000199
 415	4.1193e+01	16.4947	56.596606	0.000203	2.027499	0.686935	0.000081
 416	4.1292e+01	16.5252	56.802500	0.000517	5.170122	1.751685	0.000207
 417	4.1392e+01	16.5733	56.907465	0.000264	2.635749	0.893016	0.000105
 418	4.1492e+01	16.6038	57.068951	0.000405	4.054998	1.373870	0.000162
 419	4.1591e+01	16.6503	57.173916	0.000264	2.635749	0.893016	0.000105
 420	4.1691e+01	16.6856	57.327327	0.000385	3.852248	1.305177	0.000154
 421	4.1790e+01	16.7225	57.460553	0.000335	3.345373	1.133443	0.000134
 422	4.1889e+01	16.7706	57.626076	0.000416	4.156373	1.408217	0.000166
 423	4.1989e+01	16.8043	57.763338	0.000345	3.446748	1.167790	0.000138
 424	4.2089e+01	16.8460	57.904638	0.000355	3.548123	1.202137	0.000142
 425	4.2188e+01	16.8862	58.082272	0.000446	4.460498	1.511258	0.000179
 426	4.2288e+01	16.9214	58.179163	0.000243	2.432999	0.824322	0.000097
 427	4.2387e+01	16.9632	58.344686	0.000416	4.156373	1.408217	0.000166
 428	4.2486e+01	17.0129	58.473874	0.000324	3.243998	1.099096	0.000130
 429	4.2586e+01	17.0418	58.611137	0.000345	3.446748	1.167790	0.000138
 430	4.2685e+01	17.0867	58.764548	0.000385	3.852248	1.305177	0.000154
 431	4.2785e+01	17.1252	58.921996	0.000395	3.953623	1.339524	0.000158
 432	4.2885e+01	17.1717	59.059259	0.000345	3.446748	1.167790	0.000138
 433	4.2984e+01	17.1990	59.164224	0.000264	2.635749	0.893016	0.000105
 434	4.3084e+01	17.2471	59.313598	0.000375	3.750873	1.270830	0.000150
 435	4.3183e+01	17.2840	59.458935	0.000365	3.649498	1.236483	0.000146
 436	4.3282e+01	17.3305	59.608309	0.000375	3.750873	1.270830	0.000150
 437	4.3382e+01	17.3674	59.757683	0.000375	3.750873	1.270830	0.000150
 438	4.3481e+01	17.4075	59.834389	0.000193	1.926124	0.652588	0.000077
 439	4.3581e+01	17.4541	60.020097	0.000466	4.663248	1.579951	0.000187
 440	4.3681e+01	17.4910	60.169471	0.000375	3.750873	1.270830	0.000150
 441	4.3780e+01	17.5375	60.310771	0.000355	3.548123	1.202137	0.000142
 442	4.3880e+01	17.5583	60.443996	0.000335	3.345373	1.133443	0.000134
 443	4.3979e+01	17.6065	60.629705	0.000466	4.663248	1.579951	0.000187
 444	4.4078e+01	17.6546	60.738707	0.000274	2.737124	0.927363	0.000110
 445	4.4178e+01	17.6915	60.875970	0.000345	3.446748	1.167790	0.000138
 446	4.4278e+01	17.7236	61.009195	0.000335	3.345373	1.133443	0.000134
 447	4.4377e+01	17.7685	61.158569	0.000375	3.750873	1.270830	0.000150
 448	4.4477e+01	17.8022	61.299869	0.000355	3.548123	1.202137	0.000142
 449	4.4576e+01	17.8439	61.404835	0.000264	2.635749	0.893016	0.000105
 450	4.4675e+01	17.8824	61.590543	0.000466	4.663248	1.579951	0.000187
 451	4.4775e+01	17.9225	61.715694	0.000314	3.142623	1.064750	0.000126
 452	4.4874e+01	17.9626	61.885254	0.000426	4.257748	1.442564	0.000170
 453	4.4974e+01	18.0091	62.002331	0.000294	2.939874	0.996056	0.000118
 454	4.5074e+01	18.0460	62.155742	0.000385	3.852248	1.305177	0.000154
 455	4.5173e+01	18.0957	62.276856	0.000304	3.041248	1.030403	0.000122
 456	4.5273e+01	18.1134	62.454490	0.000446	4.460498	1.511258	0.000179
 457	4.5372e+01	18.1647	62.531195	0.000193	1.926124	0.652588	0.000077
 458	4.5471e+01	18.2016	62.704792	0.000436	4.359123	1.476911	0.000174
 459	4.5571e+01	18.2401	62.821869	0.000294	2.939874	0.996056	0.000118
 460	4.5670e+01	18.2866	62.987392	0.000416	4.156373	1.408217	0.000166
 461	4.5770e+01	18.3203	63.120617	0.000335	3.345373	1.133443	0.000134
 462	4.5870e+01	18.3620	63.265954	0.000365	3.649498	1.236483	0.000146
 463	4.5969e+01	18.4022	63.391105	0.000314	3.142623	1.064750	0.000126
 464	4.6069e+01	18.4407	63.516257	0.000314	3.142623	1.064750	0.000126
 465	4.6168e+01	18.4824	63.621222	0.000264	2.635749	0.893016	0.000105
 466	4.6267e+01	18.5193	63.782708	0.000405	4.054998	1.373870	0.000162
 467	4.6367e+01	18.5546	63.928044	0.000365	3.649498	1.236483	0.000146
 468	4.6467e+01	18.5915	64.077418	0.000375	3.750873	1.270830	0.000150
 469	4.6566e+01	18.6444	64.202570	0.000314	3.142623	1.064750	0.000126
 470	4.6666e+01	18.6829	64.355981	0.000385	3.852248	1.305177	0.000154
 471	4.6765e+01	18.7246	64.477095	0.000304	3.041248	1.030403	0.000122
 472	4.6864e+01	18.7663	64.646655	0.000426	4.257748	1.442564	0.000170
 473	4.6964e+01	18.7888	64.763732	0.000294	2.939874	0.996056	0.000118
 474	4.7063e+01	18.8369	64.921180	0.000395	3.953623	1.339524	0.000158
 475	4.7163e+01	18.8802	65.038257	0.000294	2.939874	0.996056	0.000118
 476	4.7263e+01	18.9251	65.159371	0.000304	3.041248	1.030403	0.000122
 477	4.7362e+01	18.9620	65.300671	0.000355	3.548123	1.202137	0.000142
 478	4.7462e+01	19.0037	65.446007	0.000365	3.649498	1.236483	0.000146
 479	4.7561e+01	19.0326	65.559047	0.000284	2.838499	0.961709	0.000114
 480	4.7660e+01	19.0759	65.736681	0.000446	4.460498	1.511258	0.000179
 481	4.7760e+01	19.1192	65.869907	0.000335	3.345373	1.133443	0.000134
 482	4.7859e+01	19.1658	65.974872	0.000264	2.635749	0.893016	0.000105
 483	4.7959e+01	19.2043	66.144432	0.000426	4.257748	1.442564	0.000170
 484	4.8059e+01	19.2460	66.289769	0.000365	3.649498	1.236483	0.000146
 485	4.8158e+01	19.2909	66.394734	0.000264	2.635749	0.893016	0.000105
 486	4.8258e+01	19.3246	66.548146	0.000385	3.852248	1.305177	0.000154
 487	4.8357e+01	19.3599	66.677334	0.000324	3.243998	1.099096	0.000130
 488	4.8456e+01	19.4000	66.838819	0.000405	4.054998	1.373870	0.000162
 489	4.8556e+01	19.4305	66.976082	0.000345	3.446748	1.167790	0.000138
 490	4.8656e+01	19.4754	67.089122	0.000284	2.838499	0.961709	0.000114
 491	4.8755e+01	19.5203	67.258681	0.000426	4.257748	1.442564	0.000170
 492	4.8855e+01	19.5508	67.391907	0.000335	3.345373	1.133443	0.000134
 493	4.8954e+01	19.5989	67.456501	0.000162	1.621999	0.549548	0.000065
 494	4.9053e+01	19.6390	67.638172	0.000456	4.561873	1.545604	0.000183
 495	4.9153e+01	19.6807	67.751212	0.000284	2.838499	0.961709	0.000114
 496	4.9252e+01	19.7160	67.949032	0.000497	4.967372	1.682991	0.000199
 497	4.9352e+01	19.7690	68.058034	0.000274	2.737124	0.927363	0.000110
 498	4.9452e+01	19.7914	68.171074	0.000284	2.838499	0.961709	0.000114
 499	4.9551e+01	19.8395	68.328522	0.000395	3.953623	1.339524	0.000158
 500	4.9651e+01	19.8748	68.477896	0.000375	3.750873	1.270830	0.000150
 501	4.9750e+01	19.9246	68.611122	0.000335	3.345373	1.133443	0.000134
 502	4.9849e+01	19.9567	68.720125	0.000274	2.737124	0.927363	0.000110
 503	4.9949e+01	19.9936	68.881610	0.000405	4.054998	1.373870	0.000162
 504	5.0048e+01	19.9631	68.784719	0.000243	2.432999	0.824322	-0.000097
 505	5.0148e+01	19.9230	68.659567	0.000314	3.142623	1.064750	-0.000126
 506	5.0248e+01	19.8732	68.550565	0.000274	2.737124	0.927363	-0.000110
 507	5.0347e+01	19.8331	68.437525	0.000284	2.838499	0.961709	-0.000114
 508	5.0447e+01	19.7962	68.320448	0.000294	2.939874	0.996056	-0.000118
 509	5.0546e+01	19.7577	68.227594	0.000233	2.331624	0.789976	-0.000093
 510	5.0645e+01	19.7112	68.134740	0.000233	2.331624	0.789976	-0.000093
 511	5.0745e+01	19.6791	68.017663	0.000294	2.939874	0.996056	-0.000118
 512	5.0844e+01	19.6406	67.904623	0.000284	2.838499	0.961709	-0.000114
 513	5.0944e+01	19.6005	67.775435	0.000324	3.243998	1.099096	-0.000130
 514	5.1044e+01	19.5572	67.662395	0.000284	2.838499	0.961709	-0.000114
 515	5.1143e+01	19.5155	67.573578	0.000223	2.230249	0.755629	-0.000089
 516	5.1242e+01	19.4802	67.408055	0.000416	4.156373	1.408217	-0.000166
 517	5.1342e+01	19.4401	67.311164	0.000243	2.432999	0.824322	-0.000097
 518	5.1441e+01	19.4016	67.218310	0.000233	2.331624	0.789976	-0.000093
 519	5.1541e+01	19.3599	67.036639	0.000456	4.561873	1.545604	-0.000183
 520	5.1641e+01	19.3246	66.972045	0.000162	1.621999	0.549548	-0.000065
 521	5.1740e+01	19.2765	66.850931	0.000304	3.041248	1.030403	-0.000122
 522	5.1840e+01	19.2460	66.745965	0.000264	2.635749	0.893016	-0.000105
 523	5.1939e+01	19.1995	66.620814	0.000314	3.142623	1.064750	-0.000126
 524	5.2038e+01	19.1577	66.491626	0.000324	3.243998	1.099096	-0.000130
 525	5.2138e+01	19.1112	66.362437	0.000324	3.243998	1.099096	-0.000130
 526	5.2237e+01	19.0759	66.265546	0.000243	2.432999	0.824322	-0.000097
 527	5.2337e+01	19.0390	66.116172	0.000375	3.750873	1.270830	-0.000150
 528	5.2437e+01	18.9989	65.991021	0.000314	3.142623	1.064750	-0.000126
 529	5.2536e+01	18.9556	65.857795	0.000335	3.345373	1.133443	-0.000134
 530	5.2636e+01	18.9219	65.740718	0.000294	2.939874	0.996056	-0.000118
 531	5.2735e+01	18.8818	65.664013	0.000193	1.926124	0.652588	-0.000077
 532	5.2834e+01	18.8449	65.474267	0.000476	4.764623	1.614298	-0.000191
 533	5.2934e+01	18.7984	65.405636	0.000172	1.723374	0.583895	-0.000069
 534	5.3033e+01	18.7631	65.272411	0.000335	3.345373	1.133443	-0.000134
 535	5.3133e+01	18.7214	65.143222	0.000324	3.243998	1.099096	-0.000130
 536	5.3233e+01	18.6941	65.066517	0.000193	1.926124	0.652588	-0.000077
 537	5.3332e+01	18.6364	64.909068	0.000395	3.953623	1.339524	-0.000158
 538	5.3431e+01	18.6027	64.771806	0.000345	3.446748	1.167790	-0.000138
 539	5.3531e+01	18.5674	64.670877	0.000253	2.534374	0.858669	-0.000101
 540	5.3630e+01	18.5305	64.505355	0.000416	4.156373	1.408217	-0.000166
 541	5.3730e+01	18.4872	64.408464	0.000243	2.432999	0.824322	-0.000097
 542	5.3830e+01	18.4471	64.311572	0.000243	2.432999	0.824322	-0.000097
 543	5.3929e+01	18.3989	64.186421	0.000314	3.142623	1.064750	-0.000126
 544	5.4029e+01	18.3669	64.085493	0.000253	2.534374	0.858669	-0.000101
 545	5.4128e+01	18.3268	63.928044	0.000395	3.953623	1.339524	-0.000158
 546	5.4227e+01	18.2883	63.843265	0.000213	2.128874	0.721282	-0.000085
 547	5.4327e+01	18.2401	63.701965	0.000355	3.548123	1.202137	-0.000142
 548	5.4426e+01	18.2000	63.588925	0.000284	2.838499	0.961709	-0.000114
 549	5.4526e+01	18.1695	63.483959	0.000264	2.635749	0.893016	-0.000105
 550	5.4626e+01	18.1278	63.330548	0.000385	3.852248	1.305177	-0.000154
 551	5.4725e+01	18.0829	63.221546	0.000274	2.737124	0.927363	-0.000110
 552	5.4825e+01	18.0396	63.124654	0.000243	2.432999	0.824322	-0.000097
 553	5.4924e+01	18.0075	63.011615	0.000284	2.838499	0.961709	-0.000114
 554	5.5023e+01	17.9674	62.838018	0.000436	4.359123	1.476911	-0.000174
 555	5.5123e+01	17.9257	62.724978	0.000284	2.838499	0.961709	-0.000114
 556	5.5222e+01	17.8840	62.620012	0.000264	2.635749	0.893016	-0.000105
 557	5.5322e+01	17.8503	62.486787	0.000335	3.345373	1.133443	-0.000134
 558	5.5422e+01	17.8070	62.373747	0.000284	2.838499	0.961709	-0.000114
 559	5.5521e+01	17.7669	62.228410	0.000365	3.649498	1.236483	-0.000146
 560	5.5620e+01	17.7204	62.095185	0.000335	3.345373	1.133443	-0.000134
 561	5.5720e+01	17.6883	61.994256	0.000253	2.534374	0.858669	-0.000101
 562	5.5819e+01	17.6466	61.865068	0.000324	3.243998	1.099096	-0.000130
 563	5.5919e+01	17.6097	61.731843	0.000335	3.345373	1.133443	-0.000134
 564	5.6019e+01	17.5615	61.610728	0.000304	3.041248	1.030403	-0.000122
 565	5.6118e+01	17.5311	61.501726	0.000274	2.737124	0.927363	-0.000110
 566	5.6218e+01	17.4877	61.348315	0.000385	3.852248	1.305177	-0.000154
 567	5.6317e+01	17.4492	61.227201	0.000304	3.041248	1.030403	-0.000122
 568	5.6416e+01	17.4139	61.142421	0.000213	2.128874	0.721282	-0.000085
 569	5.6516e+01	17.3530	60.993047	0.000375	3.750873	1.270830	-0.000150
 570	5.6615e+01	17.3209	60.855784	0.000345	3.446748	1.167790	-0.000138
 571	5.6715e+01	17.2856	60.722559	0.000335	3.345373	1.133443	-0.000134
 572	5.6815e+01	17.2551	60.597407	0.000314	3.142623	1.064750	-0.000126
 573	5.6914e+01	17.2102	60.492442	0.000264	2.635749	0.893016	-0.000105
 574	5.7014e+01	17.1605	60.391514	0.000253	2.534374	0.858669	-0.000101
 575	5.7113e+01	17.1300	60.221954	0.000426	4.257748	1.442564	-0.000170
 576	5.7212e+01	17.0851	60.092765	0.000324	3.243998	1.099096	-0.000130
 577	5.7312e+01	17.0450	59.971651	0.000304	3.041248	1.030403	-0.000122
 578	5.7411e+01	17.0129	59.838426	0.000335	3.345373	1.133443	-0.000134
 579	5.7511e+01	16.9712	59.757683	0.000203	2.027499	0.686935	-0.000081
 580	5.7611e+01	16.9327	59.580049	0.000446	4.460498	1.511258	-0.000179
 581	5.7710e+01	16.8926	59.462972	0.000294	2.939874	0.996056	-0.000118
 582	5.7809e+01	16.8541	59.370118	0.000233	2.331624	0.789976	-0.000093
 583	5.7909e+01	16.8140	59.269190	0.000253	2.534374	0.858669	-0.000101
 584	5.8008e+01	16.7706	59.123853	0.000365	3.649498	1.236483	-0.000146
 585	5.8108e+01	16.7241	58.970442	0.000385	3.852248	1.305177	-0.000154
 586	5.8208e+01	16.6904	58.857402	0.000284	2.838499	0.961709	-0.000114
 587	5.8307e+01	16.6584	58.708028	0.000375	3.750873	1.270830	-0.000150
 588	5.8407e+01	16.6070	58.562691	0.000365	3.649498	1.236483	-0.000146
 589	5.8506e+01	16.5781	58.469837	0.000233	2.331624	0.789976	-0.000093
 590	5.8605e+01	16.5332	58.300277	0.000426	4.257748	1.442564	-0.000170
 591	5.8705e+01	16.4867	58.179163	0.000304	3.041248	1.030403	-0.000122
 592	5.8804e+01	16.4530	58.094383	0.000213	2.128874	0.721282	-0.000085
 593	5.8904e+01	16.4097	57.932898	0.000405	4.054998	1.373870	-0.000162
 594	5.9004e+01	16.3776	57.831969	0.000253	2.534374	0.858669	-0.000101
 595	5.9103e+01	16.3327	57.686633	0.000365	3.649498	1.236483	-0.000146
 596	5.9203e+01	16.2926	57.573593	0.000284	2.838499	0.961709	-0.000114
 597	5.9302e+01	16.2509	57.404033	0.000426	4.257748	1.442564	-0.000170
 598	5.9401e+01	16.2124	57.278882	0.000314	3.142623	1.064750	-0.000126
 599	5.9501e+01	16.1723	57.177953	0.000253	2.534374	0.858669	-0.000101
 600	5.9600e+01	16.1338	57.044728	0.000335	3.345373	1.133443	-0.000134
 601	5.9700e+01	16.1033	56.923614	0.000304	3.041248	1.030403	-0.000122
 602	5.9800e+01	16.0487	56.770203	0.000385	3.852248	1.305177	-0.000154
 603	5.9899e+01	16.0151	56.697534	0.000182	1.824749	0.618242	-0.000073
 604	5.9998e+01	15.9733	56.556235	0.000355	3.548123	1.202137	-0.000142
 605	6.0098e+01	15.9397	56.390712	0.000416	4.156373	1.408217	-0.000166
 606	6.0197e+01	15.8915	56.269598	0.000304	3.041248	1.030403	-0.000122
 607	6.0297e+01	15.8546	56.120224	0.000375	3.750873	1.270830	-0.000150
 608	6.0397e+01	15.8161	56.027370	0.000233	2.331624	0.789976	-0.000093
 609	6.0496e+01	15.7664	55.886070	0.000355	3.548123	1.202137	-0.000142
 610	6.0596e+01	15.7375	55.785142	0.000253	2.534374	0.858669	-0.000101
 611	6.0695e+01	15.6894	55.619619	0.000416	4.156373	1.408217	-0.000166
 612	6.0794e+01	15.6557	55.506579	0.000284	2.838499	0.961709	-0.000114
 613	6.0894e+01	15.6156	55.381428	0.000314	3.142623	1.064750	-0.000126
 614	6.0993e+01	15.5755	55.288574	0.000233	2.331624	0.789976	-0.000093
 615	6.1093e+01	15.5402	55.114977	0.000436	4.359123	1.476911	-0.000174
 616	6.1193e+01	15.4985	55.010012	0.000264	2.635749	0.893016	-0.000105
 617	6.1292e+01	15.4536	54.872749	0.000345	3.446748	1.167790	-0.000138
 618	6.1392e+01	15.4167	54.735486	0.000345	3.446748	1.167790	-0.000138
 619	6.1491e+01	15.3686	54.618409	0.000294	2.939874	0.996056	-0.000118
 620	6.1590e+01	15.3429	54.448850	0.000426	4.257748	1.442564	-0.000170
 621	6.1690e+01	15.3044	54.327736	0.000304	3.041248	1.030403	-0.000122
 622	6.1789e+01	15.2546	54.182399	0.000365	3.649498	1.236483	-0.000146
 623	6.1889e+01	15.2145	54.061285	0.000304	3.041248	1.030403	-0.000122
 624	6.1989e+01	15.1744	53.960356	0.000253	2.534374	0.858669	-0.000101
 625	6.2088e+01	15.1327	53.839242	0.000304	3.041248	1.030403	-0.000122
 626	6.2188e+01	15.1039	53.673720	0.000416	4.156373	1.408217	-0.000166
 627	6.2287e+01	15.0541	53.552606	0.000304	3.041248	1.030403	-0.000122
 628	6.2386e+01	15.0156	53.455714	0.000243	2.432999	0.824322	-0.000097
 629	6.2486e+01	14.9803	53.278080	0.000446	4.460498	1.511258	-0.000179
 630	6.2586e+01	14.9450	53.165041	0.000284	2.838499	0.961709	-0.000114
 631	6.2685e+01	14.8937	53.011629	0.000385	3.852248	1.305177	-0.000154
 632	6.2785e+01	14.8712	52.858218	0.000385	3.852248	1.305177	-0.000154
 633	6.2884e+01	14.8103	52.749216	0.000274	2.737124	0.927363	-0.000110
 634	6.2983e+01	14.7830	52.648287	0.000253	2.534374	0.858669	-0.000101
 635	6.3083e+01	14.7397	52.458542	0.000476	4.764623	1.614298	-0.000191
 636	6.3182e+01	14.6980	52.357613	0.000253	2.534374	0.858669	-0.000101
 637	6.3282e+01	14.6579	52.196128	0.000405	4.054998	1.373870	-0.000162
 638	6.3382e+01	14.6194	52.070977	0.000314	3.142623	1.064750	-0.000126
 639	6.3481e+01	14.5745	51.941788	0.000324	3.243998	1.099096	-0.000130
 640	6.3581e+01	14.5295	51.812600	0.000324	3.243998	1.099096	-0.000130
 641	6.3680e+01	14.5055	51.675337	0.000345	3.446748	1.167790	-0.000138
 642	6.3779e+01	14.4541	51.530001	0.000365	3.649498	1.236483	-0.000146
 643	6.3879e+01	14.4188	51.416961	0.000284	2.838499	0.961709	-0.000114
 644	6.3978e+01	14.3852	51.299884	0.000294	2.939874	0.996056	-0.000118
 645	6.4078e+01	14.3386	51.146473	0.000385	3.852248	1.305177	-0.000154
 646	6.4177e+01	14.3033	50.989024	0.000395	3.953623	1.339524	-0.000158
 647	6.4277e+01	14.2600	50.867910	0.000304	3.041248	1.030403	-0.000122
 648	6.4376e+01	14.2183	50.754870	0.000284	2.838499	0.961709	-0.000114
 649	6.4476e+01	14.1718	50.605496	0.000375	3.750873	1.270830	-0.000150
 650	6.4576e+01	14.1429	50.496494	0.000274	2.737124	0.927363	-0.000110
 651	6.4675e+01	14.0932	50.355194	0.000355	3.548123	1.202137	-0.000142
 652	6.4775e+01	14.0707	50.197746	0.000395	3.953623	1.339524	-0.000158
 653	6.4874e+01	14.0290	50.056446	0.000355	3.548123	1.202137	-0.000142
 654	6.4974e+01	13.9857	49.943406	0.000284	2.838499	0.961709	-0.000114
 655	6.5073e+01	13.9408	49.789995	0.000385	3.852248	1.305177	-0.000154
 656	6.5172e+01	13.8959	49.685030	0.000264	2.635749	0.893016	-0.000105
 657	6.5272e+01	13.8654	49.543730	0.000355	3.548123	1.202137	-0.000142
 658	6.5371e+01	13.8189	49.414541	0.000324	3.243998	1.099096	-0.000130
 659	6.5471e+01	13.7804	49.289390	0.000314	3.142623	1.064750	-0.000126
 660	6.5570e+01	13.7338	49.119831	0.000426	4.257748	1.442564	-0.000170
 661	6.5670e+01	13.6953	48.990642	0.000324	3.243998	1.099096	-0.000130
 662	6.5769e+01	13.6488	48.869528	0.000304	3.041248	1.030403	-0.000122
 663	6.5869e+01	13.6280	48.736303	0.000335	3.345373	1.133443	-0.000134
 664	6.5969e+01	13.5846	48.639411	0.000243	2.432999	0.824322	-0.000097
 665	6.6068e+01	13.5494	48.469852	0.000426	4.257748	1.442564	-0.000170
 666	6.6168e+01	13.4964	48.344700	0.000314	3.142623	1.064750	-0.000126
 667	6.6267e+01	13.4595	48.195326	0.000375	3.750873	1.270830	-0.000150
 668	6.6367e+01	13.4178	48.045952	0.000375	3.750873	1.270830	-0.000150
 669	6.6466e+01	13.3857	47.940987	0.000264	2.635749	0.893016	-0.000105
 670	6.6566e+01	13.3392	47.811799	0.000324	3.243998	1.099096	-0.000130
 671	6.6665e+01	13.2991	47.646276	0.000416	4.156373	1.408217	-0.000166
 672	6.6764e+01	13.2622	47.509013	0.000345	3.446748	1.167790	-0.000138
 673	6.6864e+01	13.2221	47.395974	0.000284	2.838499	0.961709	-0.000114
 674	6.6963e+01	13.1740	47.270822	0.000314	3.142623	1.064750	-0.000126
 675	6.7063e+01	13.1483	47.133560	0.000345	3.446748	1.167790	-0.000138
 676	6.7162e+01	13.1050	47.000334	0.000335	3.345373	1.133443	-0.000134
 677	6.7262e+01	13.0665	46.850960	0.000375	3.750873	1.270830	-0.000150
 678	6.7362e+01	13.0248	46.713698	0.000345	3.446748	1.167790	-0.000138
 679	6.7461e+01	12.9815	46.592584	0.000304	3.041248	1.030403	-0.000122
 680	6.7561e+01	12.9526	46.443210	0.000375	3.750873	1.270830	-0.000150
 681	6.7660e+01	12.9093	46.314021	0.000324	3.243998	1.099096	-0.000130
 682	6.7760e+01	12.8692	46.196944	0.000294	2.939874	0.996056	-0.000118
 683	6.7859e+01	12.8242	46.043533	0.000385	3.852248	1.305177	-0.000154
 684	6.7959e+01	12.7922	45.910308	0.000335	3.345373	1.133443	-0.000134
 685	6.8058e+01	12.7553	45.789194	0.000304	3.041248	1.030403	-0.000122
 686	6.8157e+01	12.7200	45.627708	0.000405	4.054998	1.373870	-0.000162
 687	6.8257e+01	12.6686	45.526780	0.000253	2.534374	0.858669	-0.000101
 688	6.8356e+01	12.6349	45.369331	0.000395	3.953623	1.339524	-0.000158
 689	6.8456e+01	12.5964	45.211883	0.000395	3.953623	1.339524	-0.000158
 690	6.8555e+01	12.5419	45.082695	0.000324	3.243998	1.099096	-0.000130
 691	6.8655e+01	12.5066	44.933321	0.000375	3.750873	1.270830	-0.000150
 692	6.8754e+01	12.4569	44.840467	0.000233	2.331624	0.789976	-0.000093
 693	6.8854e+01	12.4248	44.691093	0.000375	3.750873	1.270830	-0.000150
 694	6.8954e+01	12.3943	44.529607	0.000405	4.054998	1.373870	-0.000162
 695	6.9053e+01	12.3462	44.404456	0.000314	3.142623	1.064750	-0.000126
 696	6.9153e+01	12.3077	44.234896	0.000426	4.257748	1.442564	-0.000170
 697	6.9252e+01	12.2612	44.117819	0.000294	2.939874	0.996056	-0.000118
 698	6.9352e+01	12.2307	44.004780	0.000284	2.838499	0.961709	-0.000114
 699	6.9451e+01	12.1922	43.859443	0.000365	3.649498	1.236483	-0.000146
 700	6.9550e+01	12.1505	43.718143	0.000355	3.548123	1.202137	-0.000142
 701	6.9650e+01	12.1087	43.576843	0.000355	3.548123	1.202137	-0.000142
 702	6.9749e+01	12.0702	43.423432	0.000385	3.852248	1.305177	-0.000154
 703	6.9849e+01	12.0301	43.294244	0.000324	3.243998	1.099096	-0.000130
 704	6.9948e+01	11.9868	43.148907	0.000365	3.649498	1.236483	-0.000146
 705	7.0048e+01	11.9483	43.007607	0.000355	3.548123	1.202137	-0.000142
 706	7.0147e+01	11.9082	42.894567	0.000284	2.838499	0.961709	-0.000114
 707	7.0247e+01	11.8729	42.765379	0.000324	3.243998	1.099096	-0.000130
 708	7.0347e+01	11.8344	42.620042	0.000365	3.649498	1.236483	-0.000146
 709	7.0446e+01	11.7863	42.490854	0.000324	3.243998	1.099096	-0.000130
 710	7.0546e+01	11.7494	42.317257	0.000436	4.359123	1.476911	-0.000174
 711	7.0645e+01	11.7093	42.200180	0.000294	2.939874	0.996056	-0.000118
 712	7.0745e+01	11.6708	42.038694	0.000405	4.054998	1.373870	-0.000162
 713	7.0844e+01	11.6307	41.929692	0.000274	2.737124	0.927363	-0.000110
 714	7.0944e+01	11.5954	41.739946	0.000476	4.764623	1.614298	-0.000191
 715	7.1043e+01	11.5489	41.643055	0.000243	2.432999	0.824322	-0.000097
 716	7.1142e+01	11.5248	41.554238	0.000223	2.230249	0.755629	-0.000089
 717	7.1242e+01	11.4638	41.384678	0.000426	4.257748	1.442564	-0.000170
 718	7.1341e+01	11.4221	41.255490	0.000324	3.243998	1.099096	-0.000130
 719	7.1441e+01	11.3997	41.118227	0.000345	3.446748	1.167790	-0.000138
 720	7.1540e+01	11.3564	40.980965	0.000345	3.446748	1.167790	-0.000138
 721	7.1640e+01	11.3147	40.799294	0.000456	4.561873	1.545604	-0.000183
 722	7.1740e+01	11.2745	40.702403	0.000243	2.432999	0.824322	-0.000097
 723	7.1839e+01	11.2328	40.597437	0.000264	2.635749	0.893016	-0.000105
 724	7.1939e+01	11.1959	40.411729	0.000466	4.663248	1.579951	-0.000187
 725	7.2038e+01	11.1590	40.286578	0.000314	3.142623	1.064750	-0.000126
 726	7.2138e+01	11.1238	40.137204	0.000375	3.750873	1.270830	-0.000150
 727	7.2237e+01	11.0740	40.012052	0.000314	3.142623	1.064750	-0.000126
 728	7.2337e+01	11.0355	39.878827	0.000335	3.345373	1.133443	-0.000134
 729	7.2436e+01	10.9970	39.725416	0.000385	3.852248	1.305177	-0.000154
 730	7.2535e+01	10.9585	39.620450	0.000264	2.635749	0.893016	-0.000105
 731	7.2635e+01	10.9104	39.438779	0.000456	4.561873	1.545604	-0.000183
 732	7.2734e+01	10.8751	39.305554	0.000335	3.345373	1.133443	-0.000134
 733	7.2834e+01	10.8350	39.196551	0.000274	2.737124	0.927363	-0.000110
 734	7.2933e+01	10.7981	39.047177	0.000375	3.750873	1.270830	-0.000150
 735	7.3033e+01	10.7500	38.861469	0.000466	4.663248	1.579951	-0.000187
 736	7.3132e+01	10.7227	38.748429	0.000284	2.838499	0.961709	-0.000114
 737	7.3232e+01	10.6778	38.607129	0.000355	3.548123	1.202137	-0.000142
 738	7.3332e+01	10.6425	38.453718	0.000385	3.852248	1.305177	-0.000154
 739	7.3431e+01	10.5927	38.320492	0.000335	3.345373	1.133443	-0.000134
 740	7.3531e+01	10.5591	38.235713	0.000213	2.128874	0.721282	-0.000085
 741	7.3630e+01	10.5318	38.086339	0.000375	3.750873	1.270830	-0.000150
 742	7.3730e+01	10.4805	37.864296	0.000558	5.575622	1.889072	-0.000223
 743	7.3829e+01	10.4420	37.775479	0.000223	2.230249	0.755629	-0.000089
 744	7.3928e+01	10.3874	37.646291	0.000324	3.243998	1.099096	-0.000130
 745	7.4028e+01	10.3569	37.468657	0.000446	4.460498	1.511258	-0.000179
 746	7.4127e+01	10.3216	37.347543	0.000304	3.041248	1.030403	-0.000122
 747	7.4227e+01	10.2783	37.214317	0.000335	3.345373	1.133443	-0.000134
 748	7.4326e+01	10.2382	37.081092	0.000335	3.345373	1.133443	-0.000134
 749	7.4426e+01	10.1917	36.939792	0.000355	3.548123	1.202137	-0.000142
 750	7.4525e+01	10.1612	36.822715	0.000294	2.939874	0.996056	-0.000118
 751	7.4625e+01	10.1163	36.661230	0.000405	4.054998	1.373870	-0.000162
 752	7.4725e+01	10.0730	36.487633	0.000436	4.359123	1.476911	-0.000174
 753	7.4824e+01	10.0345	36.346333	0.000355	3.548123	1.202137	-0.000142
 754	7.4924e+01	10.0040	36.245405	0.000253	2.534374	0.858669	-0.000101
 755	7.5023e+01	9.9607	36.047585	0.000497	4.967372	1.682991	-0.000199
 756	7.5123e+01	9.9158	35.922434	0.000314	3.142623	1.064750	-0.000126
 757	7.5222e+01	9.8789	35.809394	0.000284	2.838499	0.961709	-0.000114
 758	7.5322e+01	9.8420	35.635797	0.000436	4.359123	1.476911	-0.000174
 759	7.5421e+01	9.8051	35.526794	0.000274	2.737124	0.927363	-0.000110
 760	7.5520e+01	9.7537	35.409718	0.000294	2.939874	0.996056	-0.000118
 761	7.5620e+01	9.7168	35.207861	0.000507	5.068747	1.717338	-0.000203
 762	7.5719e+01	9.6880	35.046375	0.000405	4.054998	1.373870	-0.000162
 763	7.5819e+01	9.6318	34.961595	0.000213	2.128874	0.721282	-0.000085
 764	7.5918e+01	9.6029	34.796073	0.000416	4.156373	1.408217	-0.000166
 765	7.6018e+01	9.5580	34.666885	0.000324	3.243998	1.099096	-0.000130
 766	7.6118e+01	9.5131	34.525585	0.000355	3.548123	1.202137	-0.000142
 767	7.6217e+01	9.4698	34.396396	0.000324	3.243998	1.099096	-0.000130
 768	7.6317e+01	9.4489	34.226837	0.000426	4.257748	1.442564	-0.000170
 769	7.6416e+01	9.4056	34.105723	0.000304	3.041248	1.030403	-0.000122
 770	7.6516e+01	9.3655	33.964423	0.000355	3.548123	1.202137	-0.000142
 771	7.6615e+01	9.3174	33.790826	0.000436	4.359123	1.476911	-0.000174
 772	7.6715e+01	9.2821	33.641452	0.000375	3.750873	1.270830	-0.000150
 773	7.6814e+01	9.2308	33.520338	0.000304	3.041248	1.030403	-0.000122
 774	7.6913e+01	9.2019	33.391150	0.000324	3.243998	1.099096	-0.000130
 775	7.7013e+01	9.1634	33.245813	0.000365	3.649498	1.236483	-0.000146
 776	7.7112e+01	9.1185	33.072216	0.000436	4.359123	1.476911	-0.000174
 777	7.7212e+01	9.0751	32.979362	0.000233	2.331624	0.789976	-0.000093
 778	7.7311e+01	9.0431	32.789616	0.000476	4.764623	1.614298	-0.000191
 779	7.7411e+01	9.0110	32.652354	0.000345	3.446748	1.167790	-0.000138
 780	7.7510e+01	8.9596	32.539314	0.000284	2.838499	0.961709	-0.000114
 781	7.7610e+01	8.9163	32.410126	0.000324	3.243998	1.099096	-0.000130
 782	7.7710e+01	8.8842	32.248640	0.000405	4.054998	1.373870	-0.000162
 783	7.7809e+01	8.8377	32.107341	0.000355	3.548123	1.202137	-0.000142
 784	7.7909e+01	8.7928	31.986226	0.000304	3.041248	1.030403	-0.000122
 785	7.8008e+01	8.7703	31.812630	0.000436	4.359123	1.476911	-0.000174
 786	7.8108e+01	8.7286	31.663256	0.000375	3.750873	1.270830	-0.000150
 787	7.8207e+01	8.6837	31.525993	0.000345	3.446748	1.167790	-0.000138
 788	7.8306e+01	8.6356	31.416990	0.000274	2.737124	0.927363	-0.000110
 789	7.8406e+01	8.5987	31.243393	0.000436	4.359123	1.476911	-0.000174
 790	7.8505e+01	8.5634	31.134391	0.000274	2.737124	0.927363	-0.000110
 791	7.8605e+01	8.5185	30.944645	0.000476	4.764623	1.614298	-0.000191
 792	7.8704e+01	8.4848	30.815457	0.000324	3.243998	1.099096	-0.000130
 793	7.8804e+01	8.4447	30.682232	0.000335	3.345373	1.133443	-0.000134
 794	7.8903e+01	8.4094	30.532858	0.000375	3.750873	1.270830	-0.000150
 795	7.9003e+01	8.3661	30.395595	0.000345	3.446748	1.167790	-0.000138
 796	7.9103e+01	8.3276	30.246221	0.000375	3.750873	1.270830	-0.000150
 797	7.9202e+01	8.2875	30.072624	0.000436	4.359123	1.476911	-0.000174
 798	7.9302e+01	8.2458	29.931324	0.000355	3.548123	1.202137	-0.000142
 799	7.9401e+01	8.1928	29.810210	0.000304	3.041248	1.030403	-0.000122
 800	7.9501e+01	8.1607	29.640651	0.000426	4.257748	1.442564	-0.000170
 801	7.9600e+01	8.1222	29.483202	0.000395	3.953623	1.339524	-0.000158
 802	7.9700e+01	8.0982	29.301531	0.000456	4.561873	1.545604	-0.000183
 803	7.9799e+01	8.0581	29.196566	0.000264	2.635749	0.893016	-0.000105
 804	7.9898e+01	8.0051	29.039117	0.000395	3.953623	1.339524	-0.000158
 805	7.9998e+01	7.9666	28.918003	0.000304	3.041248	1.030403	-0.000122
 806	8.0097e+01	7.9313	28.764592	0.000385	3.852248	1.305177	-0.000154
 807	8.0197e+01	7.8800	28.611181	0.000385	3.852248	1.305177	-0.000154
 808	8.0296e+01	7.8479	28.457770	0.000385	3.852248	1.305177	-0.000154
 809	8.0396e+01	7.7998	28.364916	0.000233	2.331624	0.789976	-0.000093
 810	8.0496e+01	7.7661	28.195356	0.000426	4.257748	1.442564	-0.000170
 811	8.0595e+01	7.7260	28.054056	0.000355	3.548123	1.202137	-0.000142
 812	8.0695e+01	7.6827	27.860274	0.000487	4.865998	1.648645	-0.000195
 813	8.0794e+01	7.6554	27.755308	0.000264	2.635749	0.893016	-0.000105
 814	8.0894e+01	7.6121	27.593823	0.000405	4.054998	1.373870	-0.000162
 815	8.0993e+01	7.5736	27.440412	0.000385	3.852248	1.305177	-0.000154
 816	8.1093e+01	7.5239	27.311223	0.000324	3.243998	1.099096	-0.000130
 817	8.1192e+01	7.4821	27.145701	0.000416	4.156373	1.408217	-0.000166
 818	8.1291e+01	7.4501	27.044772	0.000253	2.534374	0.858669	-0.000101
 819	8.1391e+01	7.4083	26.899435	0.000365	3.649498	1.236483	-0.000146
 820	8.1490e+01	7.3634	26.746024	0.000385	3.852248	1.305177	-0.000154
 821	8.1590e+01	7.3265	26.584539	0.000405	4.054998	1.373870	-0.000162
 822	8.1689e+01	7.2944	26.435165	0.000375	3.750873	1.270830	-0.000150
 823	8.1789e+01	7.2511	26.301939	0.000335	3.345373	1.133443	-0.000134
 824	8.1888e+01	7.2030	26.124305	0.000446	4.460498	1.511258	-0.000179
 825	8.1988e+01	7.1693	25.958783	0.000416	4.156373	1.408217	-0.000166
 826	8.2088e+01	7.1228	25.825557	0.000335	3.345373	1.133443	-0.000134
 827	8.2187e+01	7.0939	25.692332	0.000335	3.345373	1.133443	-0.000134
 828	8.2287e+01	7.0474	25.563143	0.000324	3.243998	1.099096	-0.000130
 829	8.2386e+01	7.0057	25.409732	0.000385	3.852248	1.305177	-0.000154
 830	8.2486e+01	6.9592	25.252284	0.000395	3.953623	1.339524	-0.000158
 831	8.2585e+01	6.9287	25.163467	0.000223	2.230249	0.755629	-0.000089
 832	8.2684e+01	6.8934	24.965647	0.000497	4.967372	1.682991	-0.000199
 833	8.2784e+01	6.8581	24.800125	0.000416	4.156373	1.408217	-0.000166
 834	8.2883e+01	6.8148	24.683048	0.000294	2.939874	0.996056	-0.000118
 835	8.2983e+01	6.7667	24.517525	0.000416	4.156373	1.408217	-0.000166
 836	8.3082e+01	6.7249	24.347966	0.000426	4.257748	1.442564	-0.000170
 837	8.3182e+01	6.6864	24.214740	0.000335	3.345373	1.133443	-0.000134
 838	8.3281e+01	6.6528	24.113812	0.000253	2.534374	0.858669	-0.000101
 839	8.3381e+01	6.6062	23.928104	0.000466	4.663248	1.579951	-0.000187
 840	8.3481e+01	6.5741	23.774692	0.000385	3.852248	1.305177	-0.000154
 841	8.3580e+01	6.5260	23.625318	0.000375	3.750873	1.270830	-0.000150
 842	8.3680e+01	6.4971	23.504204	0.000304	3.041248	1.030403	-0.000122
 843	8.3779e+01	6.4506	23.354830	0.000375	3.750873	1.270830	-0.000150
 844	8.3879e+01	6.4217	23.205456	0.000375	3.750873	1.270830	-0.000150
 845	8.3978e+01	6.3784	23.060119	0.000365	3.649498	1.236483	-0.000146
 846	8.4078e+01	6.3255	22.930931	0.000324	3.243998	1.099096	-0.000130
 847	8.4177e+01	6.2982	22.745223	0.000466	4.663248	1.579951	-0.000187
 848	8.4276e+01	6.2549	22.611997	0.000335	3.345373	1.133443	-0.000134
 849	8.4376e+01	6.2036	22.470698	0.000355	3.548123	1.202137	-0.000142
 850	8.4475e+01	6.1683	22.329398	0.000355	3.548123	1.202137	-0.000142
 851	8.4575e+01	6.1378	22.151764	0.000446	4.460498	1.511258	-0.000179
 852	8.4674e+01	6.0897	22.002390	0.000375	3.750873	1.270830	-0.000150
 853	8.4774e+01	6.0544	21.921647	0.000203	2.027499	0.686935	-0.000081
 854	8.4874e+01	6.0046	21.731902	0.000476	4.764623	1.614298	-0.000191
 855	8.4973e+01	5.9710	21.574453	0.000395	3.953623	1.339524	-0.000158
 856	8.5073e+01	5.9325	21.429116	0.000365	3.649498	1.236483	-0.000146
 857	8.5172e+01	5.8972	21.291854	0.000345	3.446748	1.167790	-0.000138
 858	8.5272e+01	5.8522	21.142480	0.000375	3.750873	1.270830	-0.000150
 859	8.5371e+01	5.8234	20.960809	0.000456	4.561873	1.545604	-0.000183
 860	8.5471e+01	5.7704	20.811435	0.000375	3.750873	1.270830	-0.000150
 861	8.5570e+01	5.7335	20.698395	0.000284	2.838499	0.961709	-0.000114
 862	8.5669e+01	5.6982	20.504612	0.000487	4.865998	1.648645	-0.000195
 863	8.5769e+01	5.6581	20.371387	0.000335	3.345373	1.133443	-0.000134
 864	8.5868e+01	5.6196	20.185679	0.000466	4.663248	1.579951	-0.000187
 865	8.5968e+01	5.5859	20.064565	0.000304	3.041248	1.030403	-0.000122
 866	8.6067e+01	5.5298	19.895005	0.000426	4.257748	1.442564	-0.000170
 867	8.6167e+01	5.4993	19.786002	0.000274	2.737124	0.927363	-0.000110
 868	8.6266e+01	5.4560	19.652777	0.000335	3.345373	1.133443	-0.000134
 869	8.6366e+01	5.4223	19.483217	0.000426	4.257748	1.442564	-0.000170
 870	8.6466e+01	5.3774	19.313657	0.000426	4.257748	1.442564	-0.000170
 871	8.6565e+01	5.3421	19.156209	0.000395	3.953623	1.339524	-0.000158
 872	8.6665e+01	5.3020	19.014909	0.000355	3.548123	1.202137	-0.000142
 873	8.6764e+01	5.2619	18.869572	0.000365	3.649498	1.236483	-0.000146
 874	8.6864e+01	5.2154	18.720198	0.000375	3.750873	1.270830	-0.000150
 875	8.6963e+01	5.1769	18.591010	0.000324	3.243998	1.099096	-0.000130
 876	8.7063e+01	5.1432	18.405302	0.000466	4.663248	1.579951	-0.000187
 877	8.7162e+01	5.0950	18.276113	0.000324	3.243998	1.099096	-0.000130
 878	8.7261e+01	5.0614	18.150962	0.000314	3.142623	1.064750	-0.000126
 879	8.7361e+01	5.0148	18.001588	0.000375	3.750873	1.270830	-0.000150
 880	8.7460e+01	4.9699	17.803769	0.000497	4.967372	1.682991	-0.000199
 881	8.7560e+01	4.9378	17.678617	0.000314	3.142623	1.064750	-0.000126
 882	8.7659e+01	4.9025	17.541355	0.000345	3.446748	1.167790	-0.000138
 883	8.7759e+01	4.8528	17.416204	0.000314	3.142623	1.064750	-0.000126
 884	8.7859e+01	4.8063	17.282978	0.000335	3.345373	1.133443	-0.000134
 885	8.7958e+01	4.7774	17.101307	0.000456	4.561873	1.545604	-0.000183
 886	8.8058e+01	4.7341	16.960007	0.000355	3.548123	1.202137	-0.000142
 887	8.8157e+01	4.7100	16.770262	0.000476	4.764623	1.614298	-0.000191
 888	8.8257e+01	4.6635	16.697593	0.000182	1.824749	0.618242	-0.000073
 889	8.8356e+01	4.6202	16.511885	0.000466	4.663248	1.579951	-0.000187
 890	8.8456e+01	4.5801	16.358474	0.000385	3.852248	1.305177	-0.000154
 891	8.8555e+01	4.5352	16.209100	0.000375	3.750873	1.270830	-0.000150
 892	8.8654e+01	4.5063	16.071837	0.000345	3.446748	1.167790	-0.000138
 893	8.8754e+01	4.4646	15.954760	0.000294	2.939874	0.996056	-0.000118
 894	8.8853e+01	4.4197	15.781164	0.000436	4.359123	1.476911	-0.000174
 895	8.8953e+01	4.3796	15.591418	0.000476	4.764623	1.614298	-0.000191
 896	8.9052e+01	4.3427	15.458193	0.000335	3.345373	1.133443	-0.000134
 897	8.9152e+01	4.3090	15.320930	0.000345	3.446748	1.167790	-0.000138
 898	8.9251e+01	4.2641	15.147333	0.000436	4.359123	1.476911	-0.000174
 899	8.9351e+01	4.2191	15.014108	0.000335	3.345373	1.133443	-0.000134
 900	8.9451e+01	4.1758	14.876845	0.000345	3.446748	1.167790	-0.000138
 901	8.9550e+01	4.1421	14.674988	0.000507	5.068747	1.717338	-0.000203
 902	8.9650e+01	4.0972	14.537726	0.000345	3.446748	1.167790	-0.000138
 903	8.9749e+01	4.0603	14.408537	0.000324	3.243998	1.099096	-0.000130
 904	8.9849e+01	4.0202	14.263201	0.000365	3.649498	1.236483	-0.000146
 905	8.9948e+01	3.9785	14.117864	0.000365	3.649498	1.236483	-0.000146
 906	9.0047e+01	3.9464	13.948304	0.000426	4.257748	1.442564	-0.000170
 907	9.0147e+01	3.8967	13.823153	0.000314	3.142623	1.064750	-0.000126
 908	9.0246e+01	3.8598	13.661667	0.000405	4.054998	1.373870	-0.000162
 909	9.0346e+01	3.8261	13.520368	0.000355	3.548123	1.202137	-0.000142
 910	9.0445e+01	3.7860	13.362919	0.000395	3.953623	1.339524	-0.000158
 911	9.0545e+01	3.7379	13.237768	0.000314	3.142623	1.064750	-0.000126
 912	9.0644e+01	3.6945	13.076283	0.000405	4.054998	1.373870	-0.000162
 913	9.0744e+01	3.6625	12.959206	0.000294	2.939874	0.996056	-0.000118
 914	9.0844e+01	3.6191	12.753312	0.000517	5.170122	1.751685	-0.000207
 915	9.0943e+01	3.5887	12.620086	0.000335	3.345373	1.133443	-0.000134
 916	9.1043e+01	3.5470	12.486861	0.000335	3.345373	1.133443	-0.000134
 917	9.1142e+01	3.4988	12.297115	0.000476	4.764623	1.614298	-0.000191
 918	9.1242e+01	3.4619	12.196187	0.000253	2.534374	0.858669	-0.000101
 919	9.1341e+01	3.4202	12.046813	0.000375	3.750873	1.270830	-0.000150
 920	9.1441e+01	3.3865	11.901476	0.000365	3.649498	1.236483	-0.000146
 921	9.1540e+01	3.3480	11.695582	0.000517	5.170122	1.751685	-0.000207
 922	9.1639e+01	3.3015	11.582542	0.000284	2.838499	0.961709	-0.000114
 923	9.1739e+01	3.2662	11.417020	0.000416	4.156373	1.408217	-0.000166
 924	9.1838e+01	3.2229	11.259572	0.000395	3.953623	1.339524	-0.000158
 925	9.1938e+01	3.1844	11.090012	0.000426	4.257748	1.442564	-0.000170
 926	9.2037e+01	3.1363	10.976972	0.000284	2.838499	0.961709	-0.000114
 927	9.2137e+01	3.1058	10.799338	0.000446	4.460498	1.511258	-0.000179
 928	9.2237e+01	3.0625	10.649964	0.000375	3.750873	1.270830	-0.000150
 929	9.2336e+01	3.0160	10.553073	0.000243	2.432999	0.824322	-0.000097
 930	9.2436e+01	2.9855	10.371402	0.000456	4.561873	1.545604	-0.000183
 931	9.2535e+01	2.9486	10.238176	0.000335	3.345373	1.133443	-0.000134
 932	9.2635e+01	2.9021	10.084765	0.000385	3.852248	1.305177	-0.000154
 933	9.2734e+01	2.8732	9.911168	0.000436	4.359123	1.476911	-0.000174
 934	9.2834e+01	2.8331	9.749683	0.000405	4.054998	1.373870	-0.000162
 935	9.2933e+01	2.7978	9.628569	0.000304	3.041248	1.030403	-0.000122
 936	9.3032e+01	2.7497	9.467083	0.000405	4.054998	1.373870	-0.000162
 937	9.3132e+01	2.7063	9.293486	0.000436	4.359123	1.476911	-0.000174
 938	9.3231e+01	2.6630	9.164298	0.000324	3.243998	1.099096	-0.000130
 939	9.3331e+01	2.6197	9.002813	0.000405	4.054998	1.373870	-0.000162
 940	9.3430e+01	2.5924	8.841327	0.000405	4.054998	1.373870	-0.000162
 941	9.3530e+01	2.5395	8.736362	0.000264	2.635749	0.893016	-0.000105
 942	9.3629e+01	2.5058	8.570839	0.000416	4.156373	1.408217	-0.000166
 943	9.3729e+01	2.4625	8.429539	0.000355	3.548123	1.202137	-0.000142
 944	9.3829e+01	2.4320	8.247868	0.000456	4.561873	1.545604	-0.000183
 945	9.3928e+01	2.3903	8.090420	0.000395	3.953623	1.339524	-0.000158
 946	9.4028e+01	2.3550	7.957195	0.000335	3.345373	1.133443	-0.000134
 947	9.4127e+01	2.3133	7.795709	0.000405	4.054998	1.373870	-0.000162
 948	9.4227e+01	2.2732	7.666521	0.000324	3.243998	1.099096	-0.000130
 949	9.4326e+01	2.2315	7.525221	0.000355	3.548123	1.202137	-0.000142
 950	9.4425e+01	2.1914	7.387958	0.000345	3.446748	1.167790	-0.000138
 951	9.4525e+01	2.1352	7.214362	0.000436	4.359123	1.476911	-0.000174
 952	9.4624e+01	2.1112	7.052876	0.000405	4.054998	1.373870	-0.000162
 953	9.4724e+01	2.0775	6.915614	0.000345	3.446748	1.167790	-0.000138
 954	9.4823e+01	2.0422	6.750091	0.000416	4.156373	1.408217	-0.000166
 955	9.4923e+01	1.9876	6.576494	0.000436	4.359123	1.476911	-0.000174
 956	9.5022e+01	1.9443	6.463454	0.000284	2.838499	0.961709	-0.000114
 957	9.5122e+01	1.9187	6.285820	0.000446	4.460498	1.511258	-0.000179
 958	9.5222e+01	1.8770	6.144521	0.000355	3.548123	1.202137	-0.000142
 959	9.5321e+01	1.8256	6.015332	0.000324	3.243998	1.099096	-0.000130
 960	9.5421e+01	1.7855	5.817513	0.000497	4.967372	1.682991	-0.000199
 961	9.5520e+01	1.7582	5.692361	0.000314	3.142623	1.064750	-0.000126
 962	9.5620e+01	1.7133	5.534913	0.000395	3.953623	1.339524	-0.000158
 963	9.5719e+01	1.6716	5.425910	0.000274	2.737124	0.927363	-0.000110
 964	9.5819e+01	1.6347	5.211942	0.000537	5.372872	1.820378	-0.000215
 965	9.5918e+01	1.5898	5.070642	0.000355	3.548123	1.202137	-0.000142
 966	9.6017e+01	1.5577	4.921268	0.000375	3.750873	1.270830	-0.000150
 967	9.6117e+01	1.5016	4.775932	0.000365	3.649498	1.236483	-0.000146
 968	9.6216e+01	1.4759	4.598298	0.000446	4.460498	1.511258	-0.000179
 969	9.6316e+01	1.4342	4.452961	0.000365	3.649498	1.236483	-0.000146
 970	9.6415e+01	1.3909	4.319735	0.000335	3.345373	1.133443	-0.000134
 971	9.6515e+01	1.3524	4.134027	0.000466	4.663248	1.579951	-0.000187
 972	9.6615e+01	1.3074	4.020987	0.000284	2.838499	0.961709	-0.000114
 973	9.6714e+01	1.2738	3.855465	0.000416	4.156373	1.408217	-0.000166
 974	9.6814e+01	1.2353	3.726276	0.000324	3.243998	1.099096	-0.000130
 975	9.6913e+01	1.1903	3.536531	0.000476	4.764623	1.614298	-0.000191
 976	9.7013e+01	1.1567	3.423491	0.000284	2.838499	0.961709	-0.000114
 977	9.7112e+01	1.1133	3.229709	0.000487	4.865998	1.648645	-0.000195
 978	9.7212e+01	1.0716	3.112632	0.000294	2.939874	0.996056	-0.000118
 979	9.7311e+01	1.0251	2.914812	0.000497	4.967372	1.682991	-0.000199
 980	9.7410e+01	0.9962	2.793698	0.000304	3.041248	1.030403	-0.000122
 981	9.7510e+01	0.9561	2.644324	0.000375	3.750873	1.270830	-0.000150
 982	9.7609e+01	0.9128	2.494950	0.000375	3.750873	1.270830	-0.000150
 983	9.7709e+01	0.8711	2.321353	0.000436	4.359123	1.476911	-0.000174
 984	9.7808e+01	0.8438	2.180053	0.000355	3.548123	1.202137	-0.000142
 985	9.7908e+01	0.7861	2.050865	0.000324	3.243998	1.099096	-0.000130
 986	9.8007e+01	0.7540	1.861120	0.000476	4.764623	1.614298	-0.000191
 987	9.8107e+01	0.7155	1.731931	0.000324	3.243998	1.099096	-0.000130
 988	9.8207e+01	0.6754	1.594669	0.000345	3.446748	1.167790	-0.000138
 989	9.8306e+01	0.6305	1.425109	0.000426	4.257748	1.442564	-0.000170
 990	9.8406e+01	0.5952	1.251512	0.000436	4.359123	1.476911	-0.000174
 991	9.8505e+01	0.5519	1.126361	0.000314	3.142623	1.064750	-0.000126
 992	9.8605e+01	0.5118	0.968913	0.000395	3.953623	1.339524	-0.000158
 993	9.8704e+01	0.4797	0.815501	0.000385	3.852248	1.305177	-0.000154
 994	9.8803e+01	0.4315	0.674202	0.000355	3.548123	1.202137	-0.000142
 995	9.8903e+01	0.3962	0.500605	0.000436	4.359123	1.476911	-0.000174
 996	9.9002e+01	0.3626	0.379491	0.000304	3.041248	1.030403	-0.000122
 997	9.9102e+01	0.3112	0.201857	0.000446	4.460498	1.511258	-0.000179
 998	9.9201e+01	0.2743	0.032297	0.000426	4.257748	1.442564	-0.000170
 999	9.9301e+01	0.2358	-0.100928	0.000335	3.345373	1.133443	-0.000134
1000	9.9400e+01	0.1989	-0.222042	0.000304	3.041248	1.030403	-0.000122
1001	9.9500e+01	0.1524	-0.436011	0.000537	5.372872	1.820378	-0.000215
1002	9.9600e+01	0.1091	-0.540976	0.000264	2.635749	0.893016	-0.000105
1003	9.9699e+01	0.0818	-0.702462	0.000405	4.054998	1.373870	-0.000162
1004	9.9799e+01	0.0321	-0.815501	0.000284	2.838499	0.961709	-0.000114
1005	9.9898e+01	0.0064	-0.985061	0.000426	4.257748	1.442564	-0.000170
1006	9.9998e+01	-0.0353	-1.150584	0.000416	4.156373	1.408217	-0.000166
1007	1.0010e+02	-0.0754	-1.291883	0.000355	3.548123	1.202137	-0.000142
1008	1.0020e+02	-0.1267	-1.412998	0.000304	3.041248	1.030403	-0.000122
1009	1.0030e+02	-0.1540	-1.586594	0.000436	4.359123	1.476911	-0.000174
1010	1.0040e+02	-0.2005	-1.760191	0.000436	4.359123	1.476911	-0.000174
1011	1.0050e+02	-0.2294	-1.881305	0.000304	3.041248	1.030403	-0.000122
1012	1.0059e+02	-0.2695	-2.002419	0.000304	3.041248	1.030403	-0.000122
1013	1.0069e+02	-0.3176	-2.200239	0.000497	4.967372	1.682991	-0.000199
1014	1.0079e+02	-0.3513	-2.321353	0.000304	3.041248	1.030403	-0.000122
1015	1.0089e+02	-0.3818	-2.503024	0.000456	4.561873	1.545604	-0.000183
1016	1.0099e+02	-0.4315	-2.652398	0.000375	3.750873	1.270830	-0.000150
1017	1.0109e+02	-0.4684	-2.761401	0.000274	2.737124	0.927363	-0.000110
1018	1.0119e+02	-0.5246	-2.926923	0.000416	4.156373	1.408217	-0.000166
1019	1.0129e+02	-0.5486	-3.088409	0.000405	4.054998	1.373870	-0.000162
1020	1.0139e+02	-0.5888	-3.249894	0.000405	4.054998	1.373870	-0.000162
1021	1.0149e+02	-0.6337	-3.383120	0.000335	3.345373	1.133443	-0.000134
1022	1.0159e+02	-0.6738	-3.528457	0.000365	3.649498	1.236483	-0.000146
1023	1.0169e+02	-0.7091	-3.693979	0.000416	4.156373	1.408217	-0.000166
1024	1.0179e+02	-0.7460	-3.835279	0.000355	3.548123	1.202137	-0.000142
1025	1.0189e+02	-0.7861	-4.012913	0.000446	4.460498	1.511258	-0.000179
1026	1.0199e+02	-0.8310	-4.121916	0.000274	2.737124	0.927363	-0.000110
1027	1.0209e+02	-0.8647	-4.243030	0.000304	3.041248	1.030403	-0.000122
1028	1.0219e+02	-0.9112	-4.436812	0.000487	4.865998	1.648645	-0.000195
1029	1.0229e+02	-0.9577	-4.618483	0.000456	4.561873	1.545604	-0.000183
1030	1.0239e+02	-0.9882	-4.759783	0.000355	3.548123	1.202137	-0.000142
1031	1.0248e+02	-1.0267	-4.888971	0.000324	3.243998	1.099096	-0.000130
1032	1.0258e+02	-1.0652	-5.034308	0.000365	3.649498	1.236483	-0.000146
1033	1.0268e+02	-1.1085	-5.252314	0.000547	5.474247	1.854725	-0.000219
1034	1.0278e+02	-1.1550	-5.381502	0.000324	3.243998	1.099096	-0.000130
1035	1.0288e+02	-1.1935	-5.502616	0.000304	3.041248	1.030403	-0.000122
1036	1.0298e+02	-1.2272	-5.631804	0.000324	3.243998	1.099096	-0.000130
1037	1.0308e+02	-1.2786	-5.837698	0.000517	5.170122	1.751685	-0.000207
1038	1.0318e+02	-1.3139	-5.958812	0.000304	3.041248	1.030403	-0.000122
1039	1.0328e+02	-1.3524	-6.144521	0.000466	4.663248	1.579951	-0.000187
1040	1.0338e+02	-1.3861	-6.253523	0.000274	2.737124	0.927363	-0.000110
1041	1.0348e+02	-1.4326	-6.386749	0.000335	3.345373	1.133443	-0.000134
1042	1.0358e+02	-1.4759	-6.556308	0.000426	4.257748	1.442564	-0.000170
1043	1.0368e+02	-1.5080	-6.697608	0.000355	3.548123	1.202137	-0.000142
1044	1.0378e+02	-1.5529	-6.907539	0.000527	5.271497	1.786032	-0.000211
1045	1.0388e+02	-1.5914	-7.004431	0.000243	2.432999	0.824322	-0.000097
1046	1.0398e+02	-1.6299	-7.182064	0.000446	4.460498	1.511258	-0.000179
1047	1.0408e+02	-1.6716	-7.311253	0.000324	3.243998	1.099096	-0.000130
1048	1.0418e+02	-1.7085	-7.480813	0.000426	4.257748	1.442564	-0.000170
1049	1.0428e+02	-1.7454	-7.565592	0.000213	2.128874	0.721282	-0.000085
1050	1.0438e+02	-1.7887	-7.727078	0.000405	4.054998	1.373870	-0.000162
1051	1.0447e+02	-1.8160	-7.892600	0.000416	4.156373	1.408217	-0.000166
1052	1.0457e+02	-1.8673	-8.062160	0.000426	4.257748	1.442564	-0.000170
1053	1.0467e+02	-1.9090	-8.150977	0.000223	2.230249	0.755629	-0.000089
1054	1.0477e+02	-1.9411	-8.336685	0.000466	4.663248	1.579951	-0.000187
1055	1.0487e+02	-1.9892	-8.482022	0.000365	3.649498	1.236483	-0.000146
1056	1.0497e+02	-2.0278	-8.595062	0.000284	2.838499	0.961709	-0.000114
1057	1.0507e+02	-2.0663	-8.772696	0.000446	4.460498	1.511258	-0.000179
1058	1.0517e+02	-2.1144	-8.897847	0.000314	3.142623	1.064750	-0.000126
1059	1.0527e+02	-2.1433	-9.014924	0.000294	2.939874	0.996056	-0.000118
1060	1.0537e+02	-2.1898	-9.249078	0.000588	5.879747	1.992112	-0.000235
1061	1.0547e+02	-2.2267	-9.358081	0.000274	2.737124	0.927363	-0.000110
1062	1.0557e+02	-2.2668	-9.515529	0.000395	3.953623	1.339524	-0.000158
1063	1.0567e+02	-2.3053	-9.636643	0.000304	3.041248	1.030403	-0.000122
1064	1.0577e+02	-2.3422	-9.826388	0.000476	4.764623	1.614298	-0.000191
1065	1.0587e+02	-2.3855	-9.963651	0.000345	3.446748	1.167790	-0.000138
1066	1.0597e+02	-2.4304	-10.100914	0.000345	3.446748	1.167790	-0.000138
1067	1.0607e+02	-2.4625	-10.250288	0.000375	3.750873	1.270830	-0.000150
1068	1.0617e+02	-2.5074	-10.399662	0.000375	3.750873	1.270830	-0.000150
1069	1.0627e+02	-2.5443	-10.532887	0.000335	3.345373	1.133443	-0.000134
1070	1.0637e+02	-2.5908	-10.674187	0.000355	3.548123	1.202137	-0.000142
1071	1.0647e+02	-2.6213	-10.823561	0.000375	3.750873	1.270830	-0.000150
1072	1.0656e+02	-2.6630	-10.968898	0.000365	3.649498	1.236483	-0.000146
1073	1.0666e+02	-2.7063	-11.130383	0.000405	4.054998	1.373870	-0.000162
1074	1.0676e+02	-2.7481	-11.287832	0.000395	3.953623	1.339524	-0.000158
1075	1.0686e+02	-2.7817	-11.400871	0.000284	2.838499	0.961709	-0.000114
1076	1.0696e+02	-2.8267	-11.538134	0.000345	3.446748	1.167790	-0.000138
1077	1.0706e+02	-2.8652	-11.715768	0.000446	4.460498	1.511258	-0.000179
1078	1.0716e+02	-2.9069	-11.861105	0.000365	3.649498	1.236483	-0.000146
1079	1.0726e+02	-2.9486	-11.994330	0.000335	3.345373	1.133443	-0.000134
1080	1.0736e+02	-2.9839	-12.159853	0.000416	4.156373	1.408217	-0.000166
1081	1.0746e+02	-3.0256	-12.337487	0.000446	4.460498	1.511258	-0.000179
1082	1.0756e+02	-3.0625	-12.490898	0.000385	3.852248	1.305177	-0.000154
1083	1.0766e+02	-3.1074	-12.587789	0.000243	2.432999	0.824322	-0.000097
1084	1.0776e+02	-3.1427	-12.745238	0.000395	3.953623	1.339524	-0.000158
1085	1.0786e+02	-3.1876	-12.902686	0.000395	3.953623	1.339524	-0.000158
1086	1.0796e+02	-3.2181	-13.019763	0.000294	2.939874	0.996056	-0.000118
1087	1.0806e+02	-3.2598	-13.157025	0.000345	3.446748	1.167790	-0.000138
1088	1.0816e+02	-3.3079	-13.298325	0.000355	3.548123	1.202137	-0.000142
1089	1.0826e+02	-3.3336	-13.475959	0.000446	4.460498	1.511258	-0.000179
1090	1.0836e+02	-3.3865	-13.625333	0.000375	3.750873	1.270830	-0.000150
1091	1.0845e+02	-3.4315	-13.798930	0.000436	4.359123	1.476911	-0.000174
1092	1.0855e+02	-3.4635	-13.940230	0.000355	3.548123	1.202137	-0.000142
1093	1.0865e+02	-3.4940	-14.089604	0.000375	3.750873	1.270830	-0.000150
1094	1.0875e+02	-3.5389	-14.243015	0.000385	3.852248	1.305177	-0.000154
1095	1.0885e+02	-3.5903	-14.368166	0.000314	3.142623	1.064750	-0.000126
1096	1.0895e+02	-3.6240	-14.501392	0.000335	3.345373	1.133443	-0.000134
1097	1.0905e+02	-3.6705	-14.606357	0.000264	2.635749	0.893016	-0.000105
1098	1.0915e+02	-3.6929	-14.796102	0.000476	4.764623	1.614298	-0.000191
1099	1.0925e+02	-3.7330	-14.973736	0.000446	4.460498	1.511258	-0.000179
1100	1.0935e+02	-3.7860	-15.090813	0.000294	2.939874	0.996056	-0.000118
1101	1.0945e+02	-3.8149	-15.220002	0.000324	3.243998	1.099096	-0.000130
1102	1.0955e+02	-3.8614	-15.401673	0.000456	4.561873	1.545604	-0.000183
1103	1.0965e+02	-3.8999	-15.526824	0.000314	3.142623	1.064750	-0.000126
1104	1.0975e+02	-3.9480	-15.692347	0.000416	4.156373	1.408217	-0.000166
1105	1.0985e+02	-3.9817	-15.793275	0.000253	2.534374	0.858669	-0.000101
1106	1.0995e+02	-4.0202	-15.983020	0.000476	4.764623	1.614298	-0.000191
1107	1.1005e+02	-4.0587	-16.092023	0.000274	2.737124	0.927363	-0.000110
1108	1.1015e+02	-4.1004	-16.273694	0.000456	4.561873	1.545604	-0.000183
1109	1.1025e+02	-4.1405	-16.366548	0.000233	2.331624	0.789976	-0.000093
1110	1.1035e+02	-4.1774	-16.528034	0.000405	4.054998	1.373870	-0.000162
1111	1.1044e+02	-4.2175	-16.681445	0.000385	3.852248	1.305177	-0.000154
1112	1.1054e+02	-4.2528	-16.798522	0.000294	2.939874	0.996056	-0.000118
1113	1.1064e+02	-4.3042	-16.919636	0.000304	3.041248	1.030403	-0.000122
1114	1.1074e+02	-4.3378	-17.105344	0.000466	4.663248	1.579951	-0.000187
1115	1.1084e+02	-4.3667	-17.242607	0.000345	3.446748	1.167790	-0.000138
1116	1.1094e+02	-4.4181	-17.391981	0.000375	3.750873	1.270830	-0.000150
1117	1.1104e+02	-4.4582	-17.533281	0.000355	3.548123	1.202137	-0.000142
1118	1.1114e+02	-4.4935	-17.718989	0.000466	4.663248	1.579951	-0.000187
1119	1.1124e+02	-4.5336	-17.836066	0.000294	2.939874	0.996056	-0.000118
1120	1.1134e+02	-4.5753	-17.973328	0.000345	3.446748	1.167790	-0.000138
1121	1.1144e+02	-4.6186	-18.098480	0.000314	3.142623	1.064750	-0.000126
1122	1.1154e+02	-4.6571	-18.227668	0.000324	3.243998	1.099096	-0.000130
1123	1.1164e+02	-4.6908	-18.368968	0.000355	3.548123	1.202137	-0.000142
1124	1.1174e+02	-4.7341	-18.494119	0.000314	3.142623	1.064750	-0.000126
1125	1.1184e+02	-4.7678	-18.663679	0.000426	4.257748	1.442564	-0.000170
1126	1.1194e+02	-4.8159	-18.809015	0.000365	3.649498	1.236483	-0.000146
1127	1.1204e+02	-4.8544	-18.942241	0.000335	3.345373	1.133443	-0.000134
1128	1.1214e+02	-4.8929	-19.095652	0.000385	3.852248	1.305177	-0.000154
1129	1.1224e+02	-4.9362	-19.277323	0.000456	4.561873	1.545604	-0.000183
1130	1.1234e+02	-4.9811	-19.398437	0.000304	3.041248	1.030403	-0.000122
1131	1.1244e+02	-5.0212	-19.539737	0.000355	3.548123	1.202137	-0.000142
1132	1.1253e+02	-5.0581	-19.693148	0.000385	3.852248	1.305177	-0.000154
1133	1.1263e+02	-5.1031	-19.858671	0.000416	4.156373	1.408217	-0.000166
1134	1.1273e+02	-5.1335	-19.995933	0.000345	3.446748	1.167790	-0.000138
1135	1.1283e+02	-5.1833	-20.113010	0.000294	2.939874	0.996056	-0.000118
1136	1.1293e+02	-5.2073	-20.258347	0.000365	3.649498	1.236483	-0.000146
1137	1.1303e+02	-5.2555	-20.399647	0.000355	3.548123	1.202137	-0.000142
1138	1.1313e+02	-5.2956	-20.553058	0.000385	3.852248	1.305177	-0.000154
1139	1.1323e+02	-5.3373	-20.710506	0.000395	3.953623	1.339524	-0.000158
1140	1.1333e+02	-5.3646	-20.831620	0.000304	3.041248	1.030403	-0.000122
1141	1.1343e+02	-5.4159	-21.013292	0.000456	4.561873	1.545604	-0.000183
1142	1.1353e+02	-5.4528	-21.162666	0.000375	3.750873	1.270830	-0.000150
1143	1.1363e+02	-5.4977	-21.279742	0.000294	2.939874	0.996056	-0.000118
1144	1.1373e+02	-5.5362	-21.400857	0.000304	3.041248	1.030403	-0.000122
1145	1.1383e+02	-5.5715	-21.538119	0.000345	3.446748	1.167790	-0.000138
1146	1.1393e+02	-5.6148	-21.679419	0.000355	3.548123	1.202137	-0.000142
1147	1.1403e+02	-5.6549	-21.824756	0.000365	3.649498	1.236483	-0.000146
1148	1.1413e+02	-5.6934	-21.974130	0.000375	3.750873	1.270830	-0.000150
1149	1.1423e+02	-5.7351	-22.127541	0.000385	3.852248	1.305177	-0.000154
1150	1.1433e+02	-5.7704	-22.252692	0.000314	3.142623	1.064750	-0.000126
1151	1.1442e+02	-5.8105	-22.365732	0.000284	2.838499	0.961709	-0.000114
1152	1.1452e+02	-5.8538	-22.543366	0.000446	4.460498	1.511258	-0.000179
1153	1.1462e+02	-5.9020	-22.716963	0.000436	4.359123	1.476911	-0.000174
1154	1.1472e+02	-5.9260	-22.821928	0.000264	2.635749	0.893016	-0.000105
1155	1.1482e+02	-5.9726	-22.934968	0.000284	2.838499	0.961709	-0.000114
1156	1.1492e+02	-6.0079	-23.084342	0.000375	3.750873	1.270830	-0.000150
1157	1.1502e+02	-6.0512	-23.237753	0.000385	3.852248	1.305177	-0.000154
1158	1.1512e+02	-6.0977	-23.411350	0.000436	4.359123	1.476911	-0.000174
1159	1.1522e+02	-6.1234	-23.536501	0.000314	3.142623	1.064750	-0.000126
1160	1.1532e+02	-6.1763	-23.641467	0.000264	2.635749	0.893016	-0.000105
1161	1.1542e+02	-6.2068	-23.811027	0.000426	4.257748	1.442564	-0.000170
1162	1.1552e+02	-6.2565	-23.960401	0.000375	3.750873	1.270830	-0.000150
1163	1.1562e+02	-6.2966	-24.085552	0.000314	3.142623	1.064750	-0.000126
1164	1.1572e+02	-6.3239	-24.226852	0.000355	3.548123	1.202137	-0.000142
1165	1.1582e+02	-6.3784	-24.360077	0.000335	3.345373	1.133443	-0.000134
1166	1.1592e+02	-6.4073	-24.533674	0.000436	4.359123	1.476911	-0.000174
1167	1.1602e+02	-6.4490	-24.646714	0.000284	2.838499	0.961709	-0.000114
1168	1.1612e+02	-6.4779	-24.767828	0.000304	3.041248	1.030403	-0.000122
1169	1.1622e+02	-6.5308	-24.913165	0.000365	3.649498	1.236483	-0.000146
1170	1.1632e+02	-6.5774	-25.078687	0.000416	4.156373	1.408217	-0.000166
1171	1.1642e+02	-6.6062	-25.228061	0.000375	3.750873	1.270830	-0.000150
1172	1.1651e+02	-6.6511	-25.324952	0.000243	2.432999	0.824322	-0.000097
1173	1.1661e+02	-6.6800	-25.450104	0.000314	3.142623	1.064750	-0.000126
1174	1.1671e+02	-6.7233	-25.595441	0.000365	3.649498	1.236483	-0.000146
1175	1.1681e+02	-6.7618	-25.752889	0.000395	3.953623	1.339524	-0.000158
1176	1.1691e+02	-6.8100	-25.865929	0.000284	2.838499	0.961709	-0.000114
1177	1.1701e+02	-6.8453	-26.039526	0.000436	4.359123	1.476911	-0.000174
1178	1.1711e+02	-6.8950	-26.144491	0.000264	2.635749	0.893016	-0.000105
1179	1.1721e+02	-6.9287	-26.342311	0.000497	4.967372	1.682991	-0.000199
1180	1.1731e+02	-6.9688	-26.455350	0.000284	2.838499	0.961709	-0.000114
1181	1.1741e+02	-7.0057	-26.576465	0.000304	3.041248	1.030403	-0.000122
1182	1.1751e+02	-7.0442	-26.701616	0.000314	3.142623	1.064750	-0.000126
1183	1.1761e+02	-7.0843	-26.850990	0.000375	3.750873	1.270830	-0.000150
1184	1.1771e+02	-7.1244	-26.972104	0.000304	3.041248	1.030403	-0.000122
1185	1.1781e+02	-7.1677	-27.137626	0.000416	4.156373	1.408217	-0.000166
1186	1.1791e+02	-7.2014	-27.238555	0.000253	2.534374	0.858669	-0.000101
1187	1.1801e+02	-7.2463	-27.424263	0.000466	4.663248	1.579951	-0.000187
1188	1.1811e+02	-7.2912	-27.577674	0.000385	3.852248	1.305177	-0.000154
1189	1.1821e+02	-7.3233	-27.670528	0.000233	2.331624	0.789976	-0.000093
1190	1.1831e+02	-7.3602	-27.803754	0.000335	3.345373	1.133443	-0.000134
1191	1.1841e+02	-7.4083	-27.936979	0.000335	3.345373	1.133443	-0.000134
1192	1.1850e+02	-7.4452	-28.098465	0.000405	4.054998	1.373870	-0.000162
1193	1.1860e+02	-7.4805	-28.231690	0.000335	3.345373	1.133443	-0.000134
1194	1.1870e+02	-7.5255	-28.401250	0.000426	4.257748	1.442564	-0.000170
1195	1.1880e+02	-7.5704	-28.490067	0.000223	2.230249	0.755629	-0.000089
1196	1.1890e+02	-7.6009	-28.639441	0.000375	3.750873	1.270830	-0.000150
1197	1.1900e+02	-7.6490	-28.764592	0.000314	3.142623	1.064750	-0.000126
1198	1.1910e+02	-7.6875	-28.938189	0.000436	4.359123	1.476911	-0.000174
1199	1.1920e+02	-7.7244	-29.079489	0.000355	3.548123	1.202137	-0.000142
1200	1.1930e+02	-7.7645	-29.216751	0.000345	3.446748	1.167790	-0.000138
1201	1.1940e+02	-7.8046	-29.354014	0.000345	3.446748	1.167790	-0.000138
1202	1.1950e+02	-7.8447	-29.454942	0.000253	2.534374	0.858669	-0.000101
1203	1.1960e+02	-7.8880	-29.612391	0.000395	3.953623	1.339524	-0.000158
1204	1.1970e+02	-7.9249	-29.737542	0.000314	3.142623	1.064750	-0.000126
1205	1.1980e+02	-7.9506	-29.886916	0.000375	3.750873	1.270830	-0.000150
1206	1.1990e+02	-8.0115	-30.012067	0.000314	3.142623	1.064750	-0.000126
1207	1.2000e+02	-8.0420	-30.173553	0.000405	4.054998	1.373870	-0.000162
1208	1.2010e+02	-8.0805	-30.322927	0.000375	3.750873	1.270830	-0.000150
1209	1.2020e+02	-8.1174	-30.399632	0.000193	1.926124	0.652588	-0.000077
1210	1.2030e+02	-8.1639	-30.573229	0.000436	4.359123	1.476911	-0.000174
1211	1.2039e+02	-8.2040	-30.690306	0.000294	2.939874	0.996056	-0.000118
1212	1.2049e+02	-8.2442	-30.827568	0.000345	3.446748	1.167790	-0.000138
1213	1.2059e+02	-8.2827	-30.948683	0.000304	3.041248	1.030403	-0.000122
1214	1.2069e+02	-8.3260	-31.061722	0.000284	2.838499	0.961709	-0.000114
1215	1.2079e+02	-8.3693	-31.219171	0.000395	3.953623	1.339524	-0.000158
1216	1.2089e+02	-8.3950	-31.364508	0.000365	3.649498	1.236483	-0.000146
1217	1.2099e+02	-8.4447	-31.473510	0.000274	2.737124	0.927363	-0.000110
1218	1.2109e+02	-8.4800	-31.594624	0.000304	3.041248	1.030403	-0.000122
1219	1.2119e+02	-8.5169	-31.695553	0.000253	2.534374	0.858669	-0.000101
1220	1.2129e+02	-8.5650	-31.853001	0.000395	3.953623	1.339524	-0.000158
1221	1.2139e+02	-8.5971	-32.014486	0.000405	4.054998	1.373870	-0.000162
1222	1.2149e+02	-8.6420	-32.119452	0.000264	2.635749	0.893016	-0.000105
1223	1.2159e+02	-8.6757	-32.260752	0.000355	3.548123	1.202137	-0.000142
1224	1.2169e+02	-8.7174	-32.426274	0.000416	4.156373	1.408217	-0.000166
1225	1.2179e+02	-8.7575	-32.511054	0.000213	2.128874	0.721282	-0.000085
1226	1.2189e+02	-8.7896	-32.680614	0.000426	4.257748	1.442564	-0.000170
1227	1.2199e+02	-8.8506	-32.785579	0.000264	2.635749	0.893016	-0.000105
1228	1.2209e+02	-8.8842	-32.918805	0.000335	3.345373	1.133443	-0.000134
1229	1.2219e+02	-8.9227	-33.076253	0.000395	3.953623	1.339524	-0.000158
1230	1.2229e+02	-8.9645	-33.229664	0.000385	3.852248	1.305177	-0.000154
1231	1.2239e+02	-8.9997	-33.318481	0.000223	2.230249	0.755629	-0.000089
1232	1.2248e+02	-9.0415	-33.496115	0.000446	4.460498	1.511258	-0.000179
1233	1.2258e+02	-9.0848	-33.625304	0.000324	3.243998	1.099096	-0.000130
1234	1.2268e+02	-9.1153	-33.726232	0.000253	2.534374	0.858669	-0.000101
1235	1.2278e+02	-9.1554	-33.871569	0.000365	3.649498	1.236483	-0.000146
1236	1.2288e+02	-9.2003	-33.964423	0.000233	2.331624	0.789976	-0.000093
1237	1.2298e+02	-9.2388	-34.125908	0.000405	4.054998	1.373870	-0.000162
1238	1.2308e+02	-9.2853	-34.263171	0.000345	3.446748	1.167790	-0.000138
1239	1.2318e+02	-9.3158	-34.339877	0.000193	1.926124	0.652588	-0.000077
1240	1.2328e+02	-9.3639	-34.509436	0.000426	4.257748	1.442564	-0.000170
1241	1.2338e+02	-9.3976	-34.646699	0.000345	3.446748	1.167790	-0.000138
1242	1.2348e+02	-9.4409	-34.804147	0.000395	3.953623	1.339524	-0.000158
1243	1.2358e+02	-9.4698	-34.941410	0.000345	3.446748	1.167790	-0.000138
1244	1.2368e+02	-9.5099	-35.074635	0.000335	3.345373	1.133443	-0.000134
1245	1.2378e+02	-9.5500	-35.175564	0.000253	2.534374	0.858669	-0.000101
1246	1.2388e+02	-9.5917	-35.353198	0.000446	4.460498	1.511258	-0.000179
1247	1.2398e+02	-9.6382	-35.401643	0.000122	1.216499	0.412161	-0.000049
1248	1.2408e+02	-9.6703	-35.542943	0.000355	3.548123	1.202137	-0.000142
1249	1.2418e+02	-9.7200	-35.668094	0.000314	3.142623	1.064750	-0.000126
1250	1.2428e+02	-9.7521	-35.793245	0.000314	3.142623	1.064750	-0.000126
1251	1.2438e+02	-9.7987	-35.942619	0.000375	3.750873	1.270830	-0.000150
1252	1.2447e+02	-9.8307	-36.051622	0.000274	2.737124	0.927363	-0.000110
1253	1.2457e+02	-9.8757	-36.200996	0.000375	3.750873	1.270830	-0.000150
1254	1.2467e+02	-9.9093	-36.318073	0.000294	2.939874	0.996056	-0.000118
1255	1.2477e+02	-9.9575	-36.467447	0.000375	3.750873	1.270830	-0.000150
1256	1.2487e+02	-9.9880	-36.556264	0.000223	2.230249	0.755629	-0.000089
1257	1.2497e+02	-10.0232	-36.725824	0.000426	4.257748	1.442564	-0.000170
1258	1.2507e+02	-10.0762	-36.891346	0.000416	4.156373	1.408217	-0.000166
1259	1.2517e+02	-10.1115	-37.024572	0.000335	3.345373	1.133443	-0.000134
1260	1.2527e+02	-10.1548	-37.113389	0.000223	2.230249	0.755629	-0.000089
1261	1.2537e+02	-10.1933	-37.274874	0.000405	4.054998	1.373870	-0.000162
1262	1.2547e+02	-10.2286	-37.335431	0.000152	1.520624	0.515201	-0.000061
1263	1.2557e+02	-10.2815	-37.513065	0.000446	4.460498	1.511258	-0.000179
1264	1.2567e+02	-10.3104	-37.638216	0.000314	3.142623	1.064750	-0.000126
1265	1.2577e+02	-10.3553	-37.787591	0.000375	3.750873	1.270830	-0.000150
1266	1.2587e+02	-10.3826	-37.900630	0.000284	2.838499	0.961709	-0.000114
1267	1.2597e+02	-10.4211	-38.025782	0.000314	3.142623	1.064750	-0.000126
1268	1.2607e+02	-10.4772	-38.159007	0.000335	3.345373	1.133443	-0.000134
1269	1.2617e+02	-10.5109	-38.304344	0.000365	3.649498	1.236483	-0.000146
1270	1.2627e+02	-10.5494	-38.413347	0.000274	2.737124	0.927363	-0.000110
1271	1.2636e+02	-10.5911	-38.502164	0.000223	2.230249	0.755629	-0.000089
1272	1.2646e+02	-10.6280	-38.675760	0.000436	4.359123	1.476911	-0.000174
1273	1.2656e+02	-10.6746	-38.796874	0.000304	3.041248	1.030403	-0.000122
1274	1.2666e+02	-10.7115	-38.913951	0.000294	2.939874	0.996056	-0.000118
1275	1.2676e+02	-10.7484	-39.022954	0.000274	2.737124	0.927363	-0.000110
1276	1.2686e+02	-10.7965	-39.176365	0.000385	3.852248	1.305177	-0.000154
1277	1.2696e+02	-10.8398	-39.309591	0.000335	3.345373	1.133443	-0.000134
1278	1.2706e+02	-10.8655	-39.434742	0.000314	3.142623	1.064750	-0.000126
1279	1.2716e+02	-10.9136	-39.519522	0.000213	2.128874	0.721282	-0.000085
1280	1.2726e+02	-10.9505	-39.668896	0.000375	3.750873	1.270830	-0.000150
1281	1.2736e+02	-10.9842	-39.773861	0.000264	2.635749	0.893016	-0.000105
1282	1.2746e+02	-11.0211	-39.935347	0.000405	4.054998	1.373870	-0.000162
1283	1.2756e+02	-11.0676	-40.068572	0.000335	3.345373	1.133443	-0.000134
1284	1.2766e+02	-11.1141	-40.169501	0.000253	2.534374	0.858669	-0.000101
1285	1.2776e+02	-11.1510	-40.294652	0.000314	3.142623	1.064750	-0.000126
1286	1.2786e+02	-11.1943	-40.431914	0.000345	3.446748	1.167790	-0.000138
1287	1.2796e+02	-11.2296	-40.597437	0.000416	4.156373	1.408217	-0.000166
1288	1.2806e+02	-11.2762	-40.714514	0.000294	2.939874	0.996056	-0.000118
1289	1.2816e+02	-11.3130	-40.839665	0.000314	3.142623	1.064750	-0.000126
1290	1.2826e+02	-11.3451	-40.936556	0.000243	2.432999	0.824322	-0.000097
1291	1.2835e+02	-11.3901	-41.049596	0.000284	2.838499	0.961709	-0.000114
1292	1.2845e+02	-11.4270	-41.182822	0.000335	3.345373	1.133443	-0.000134
1293	1.2855e+02	-11.4687	-41.332196	0.000375	3.750873	1.270830	-0.000150
1294	1.2865e+02	-11.5056	-41.437161	0.000264	2.635749	0.893016	-0.000105
1295	1.2875e+02	-11.5505	-41.586535	0.000375	3.750873	1.270830	-0.000150
1296	1.2885e+02	-11.5842	-41.699575	0.000284	2.838499	0.961709	-0.000114
1297	1.2895e+02	-11.6307	-41.861060	0.000405	4.054998	1.373870	-0.000162
1298	1.2905e+02	-11.6740	-41.990249	0.000324	3.243998	1.099096	-0.000130
1299	1.2915e+02	-11.7061	-42.107326	0.000294	2.939874	0.996056	-0.000118
1300	1.2925e+02	-11.7526	-42.179994	0.000182	1.824749	0.618242	-0.000073
1301	1.2935e+02	-11.7863	-42.309183	0.000324	3.243998	1.099096	-0.000130
1302	1.2945e+02	-11.8264	-42.446445	0.000345	3.446748	1.167790	-0.000138
1303	1.2955e+02	-11.8745	-42.595819	0.000375	3.750873	1.270830	-0.000150
1304	1.2965e+02	-11.9050	-42.753267	0.000395	3.953623	1.339524	-0.000158
1305	1.2975e+02	-11.9467	-42.858233	0.000264	2.635749	0.893016	-0.000105
1306	1.2985e+02	-11.9820	-42.947050	0.000223	2.230249	0.755629	-0.000089
1307	1.2995e+02	-12.0237	-43.104498	0.000395	3.953623	1.339524	-0.000158
1308	1.3005e+02	-12.0574	-43.229649	0.000314	3.142623	1.064750	-0.000126
1309	1.3015e+02	-12.1136	-43.366912	0.000345	3.446748	1.167790	-0.000138
1310	1.3025e+02	-12.1392	-43.496100	0.000324	3.243998	1.099096	-0.000130
1311	1.3034e+02	-12.1841	-43.621252	0.000314	3.142623	1.064750	-0.000126
1312	1.3044e+02	-12.2291	-43.754477	0.000335	3.345373	1.133443	-0.000134
1313	1.3054e+02	-12.2708	-43.843294	0.000223	2.230249	0.755629	-0.000089
1314	1.3064e+02	-12.3045	-43.988631	0.000365	3.649498	1.236483	-0.000146
1315	1.3074e+02	-12.3574	-44.073411	0.000213	2.128874	0.721282	-0.000085
1316	1.3084e+02	-12.3879	-44.251045	0.000446	4.460498	1.511258	-0.000179
1317	1.3094e+02	-12.4216	-44.356010	0.000264	2.635749	0.893016	-0.000105
1318	1.3104e+02	-12.4585	-44.501347	0.000365	3.649498	1.236483	-0.000146
1319	1.3114e+02	-12.5034	-44.614387	0.000284	2.838499	0.961709	-0.000114
1320	1.3124e+02	-12.5451	-44.763761	0.000375	3.750873	1.270830	-0.000150
1321	1.3134e+02	-12.5868	-44.832392	0.000172	1.723374	0.583895	-0.000069
1322	1.3144e+02	-12.6221	-44.993878	0.000405	4.054998	1.373870	-0.000162
1323	1.3154e+02	-12.6734	-45.070583	0.000193	1.926124	0.652588	-0.000077
1324	1.3164e+02	-12.7007	-45.211883	0.000355	3.548123	1.202137	-0.000142
1325	1.3174e+02	-12.7456	-45.320886	0.000274	2.737124	0.927363	-0.000110
1326	1.3184e+02	-12.7761	-45.486408	0.000416	4.156373	1.408217	-0.000166
1327	1.3194e+02	-12.8210	-45.615597	0.000324	3.243998	1.099096	-0.000130
1328	1.3204e+02	-12.8579	-45.680191	0.000162	1.621999	0.549548	-0.000065
1329	1.3214e+02	-12.8900	-45.865899	0.000466	4.663248	1.579951	-0.000187
1330	1.3224e+02	-12.9333	-45.950679	0.000213	2.128874	0.721282	-0.000085
1331	1.3234e+02	-12.9766	-46.100053	0.000375	3.750873	1.270830	-0.000150
1332	1.3243e+02	-13.0232	-46.200981	0.000253	2.534374	0.858669	-0.000101
1333	1.3253e+02	-13.0601	-46.314021	0.000284	2.838499	0.961709	-0.000114
1334	1.3263e+02	-13.1018	-46.459358	0.000365	3.649498	1.236483	-0.000146
1335	1.3273e+02	-13.1419	-46.612769	0.000385	3.852248	1.305177	-0.000154
1336	1.3283e+02	-13.1852	-46.697549	0.000213	2.128874	0.721282	-0.000085
1337	1.3293e+02	-13.2237	-46.826737	0.000324	3.243998	1.099096	-0.000130
1338	1.3303e+02	-13.2590	-46.951889	0.000314	3.142623	1.064750	-0.000126
1339	1.3313e+02	-13.3071	-47.089151	0.000345	3.446748	1.167790	-0.000138
1340	1.3323e+02	-13.3376	-47.161820	0.000182	1.824749	0.618242	-0.000073
1341	1.3333e+02	-13.3809	-47.323305	0.000405	4.054998	1.373870	-0.000162
1342	1.3343e+02	-13.4146	-47.420196	0.000243	2.432999	0.824322	-0.000097
1343	1.3353e+02	-13.4595	-47.549385	0.000324	3.243998	1.099096	-0.000130
1344	1.3363e+02	-13.5044	-47.694722	0.000365	3.649498	1.236483	-0.000146
1345	1.3373e+02	-13.5413	-47.831984	0.000345	3.446748	1.167790	-0.000138
1346	1.3383e+02	-13.5798	-47.928875	0.000243	2.432999	0.824322	-0.000097
1347	1.3393e+02	-13.6280	-48.066138	0.000345	3.446748	1.167790	-0.000138
1348	1.3403e+02	-13.6568	-48.179178	0.000284	2.838499	0.961709	-0.000114
1349	1.3413e+02	-13.7082	-48.312403	0.000335	3.345373	1.133443	-0.000134
1350	1.3423e+02	-13.7290	-48.425443	0.000284	2.838499	0.961709	-0.000114
1351	1.3432e+02	-13.7772	-48.542520	0.000294	2.939874	0.996056	-0.000118
1352	1.3442e+02	-13.8253	-48.659597	0.000294	2.939874	0.996056	-0.000118
1353	1.3452e+02	-13.8558	-48.800897	0.000355	3.548123	1.202137	-0.000142
1354	1.3462e+02	-13.8927	-48.913937	0.000284	2.838499	0.961709	-0.000114
1355	1.3472e+02	-13.9408	-49.055236	0.000355	3.548123	1.202137	-0.000142
1356	1.3482e+02	-13.9713	-49.148090	0.000233	2.331624	0.789976	-0.000093
1357	1.3492e+02	-14.0146	-49.265167	0.000294	2.939874	0.996056	-0.000118
1358	1.3502e+02	-14.0579	-49.345910	0.000203	2.027499	0.686935	-0.000081
1359	1.3512e+02	-14.0916	-49.547767	0.000507	5.068747	1.717338	-0.000203
1360	1.3522e+02	-14.1333	-49.648695	0.000253	2.534374	0.858669	-0.000101
1361	1.3532e+02	-14.1766	-49.777884	0.000324	3.243998	1.099096	-0.000130
1362	1.3542e+02	-14.2151	-49.858626	0.000203	2.027499	0.686935	-0.000081
1363	1.3552e+02	-14.2552	-50.024149	0.000416	4.156373	1.408217	-0.000166
1364	1.3562e+02	-14.3001	-50.157374	0.000335	3.345373	1.133443	-0.000134
1365	1.3572e+02	-14.3258	-50.230043	0.000182	1.824749	0.618242	-0.000073
1366	1.3582e+02	-14.3739	-50.375380	0.000365	3.649498	1.236483	-0.000146
1367	1.3592e+02	-14.4092	-50.468234	0.000233	2.331624	0.789976	-0.000093
1368	1.3602e+02	-14.4590	-50.629719	0.000405	4.054998	1.373870	-0.000162
1369	1.3612e+02	-14.4926	-50.758908	0.000324	3.243998	1.099096	-0.000130
1370	1.3622e+02	-14.5440	-50.839650	0.000203	2.027499	0.686935	-0.000081
1371	1.3631e+02	-14.5761	-50.956727	0.000294	2.939874	0.996056	-0.000118
1372	1.3641e+02	-14.6130	-51.114176	0.000395	3.953623	1.339524	-0.000158
1373	1.3651e+02	-14.6482	-51.146473	0.000081	0.811000	0.274774	-0.000032
1374	1.3661e+02	-14.6900	-51.336218	0.000476	4.764623	1.614298	-0.000191
1375	1.3671e+02	-14.7285	-51.465406	0.000324	3.243998	1.099096	-0.000130
1376	1.3681e+02	-14.7686	-51.594595	0.000324	3.243998	1.099096	-0.000130
1377	1.3691e+02	-14.8119	-51.707635	0.000284	2.838499	0.961709	-0.000114
1378	1.3701e+02	-14.8520	-51.808563	0.000253	2.534374	0.858669	-0.000101
1379	1.3711e+02	-14.9001	-51.937751	0.000324	3.243998	1.099096	-0.000130
1380	1.3721e+02	-14.9370	-52.062902	0.000314	3.142623	1.064750	-0.000126
1381	1.3731e+02	-14.9755	-52.192091	0.000324	3.243998	1.099096	-0.000130
1382	1.3741e+02	-15.0124	-52.260722	0.000172	1.723374	0.583895	-0.000069
1383	1.3751e+02	-15.0445	-52.434319	0.000436	4.359123	1.476911	-0.000174
1384	1.3761e+02	-15.0926	-52.539284	0.000264	2.635749	0.893016	-0.000105
1385	1.3771e+02	-15.1391	-52.660399	0.000304	3.041248	1.030403	-0.000122
1386	1.3781e+02	-15.1680	-52.753253	0.000233	2.331624	0.789976	-0.000093
1387	1.3791e+02	-15.2210	-52.874367	0.000304	3.041248	1.030403	-0.000122
1388	1.3801e+02	-15.2530	-52.991444	0.000294	2.939874	0.996056	-0.000118
1389	1.3811e+02	-15.2851	-53.120632	0.000324	3.243998	1.099096	-0.000130
1390	1.3821e+02	-15.3365	-53.245783	0.000314	3.142623	1.064750	-0.000126
1391	1.3831e+02	-15.3702	-53.370934	0.000314	3.142623	1.064750	-0.000126
1392	1.3840e+02	-15.4119	-53.483974	0.000284	2.838499	0.961709	-0.000114
1393	1.3850e+02	-15.4520	-53.568754	0.000213	2.128874	0.721282	-0.000085
1394	1.3860e+02	-15.4905	-53.722165	0.000385	3.852248	1.305177	-0.000154
1395	1.3870e+02	-15.5354	-53.835205	0.000284	2.838499	0.961709	-0.000114
1396	1.3880e+02	-15.5659	-53.972468	0.000345	3.446748	1.167790	-0.000138
1397	1.3890e+02	-15.6028	-54.065322	0.000233	2.331624	0.789976	-0.000093
1398	1.3900e+02	-15.6509	-54.194510	0.000324	3.243998	1.099096	-0.000130
1399	1.3910e+02	-15.6958	-54.319661	0.000314	3.142623	1.064750	-0.000126
1400	1.3920e+02	-15.7343	-54.444813	0.000314	3.142623	1.064750	-0.000126
1401	1.3930e+02	-15.7712	-54.586112	0.000355	3.548123	1.202137	-0.000142
1402	1.3940e+02	-15.8033	-54.666855	0.000203	2.027499	0.686935	-0.000081
1403	1.3950e+02	-15.8530	-54.800081	0.000335	3.345373	1.133443	-0.000134
1404	1.3960e+02	-15.8867	-54.901009	0.000253	2.534374	0.858669	-0.000101
1405	1.3970e+02	-15.9268	-55.066531	0.000416	4.156373	1.408217	-0.000166
1406	1.3980e+02	-15.9669	-55.127089	0.000152	1.520624	0.515201	-0.000061
1407	1.3990e+02	-16.0118	-55.264351	0.000345	3.446748	1.167790	-0.000138
1408	1.4000e+02	-16.0600	-55.405651	0.000355	3.548123	1.202137	-0.000142
1409	1.4010e+02	-16.0905	-55.550988	0.000365	3.649498	1.236483	-0.000146
1410	1.4020e+02	-16.1274	-55.639805	0.000223	2.230249	0.755629	-0.000089
1411	1.4029e+02	-16.1707	-55.756882	0.000294	2.939874	0.996056	-0.000118
1412	1.4039e+02	-16.2092	-55.886070	0.000324	3.243998	1.099096	-0.000130
1413	1.4049e+02	-16.2380	-56.011221	0.000314	3.142623	1.064750	-0.000126
1414	1.4059e+02	-16.2942	-56.124261	0.000284	2.838499	0.961709	-0.000114
1415	1.4069e+02	-16.3311	-56.257487	0.000335	3.345373	1.133443	-0.000134
1416	1.4079e+02	-16.3712	-56.370526	0.000284	2.838499	0.961709	-0.000114
1417	1.4089e+02	-16.4065	-56.479529	0.000274	2.737124	0.927363	-0.000110
1418	1.4099e+02	-16.4514	-56.620829	0.000355	3.548123	1.202137	-0.000142
1419	1.4109e+02	-16.4819	-56.750017	0.000324	3.243998	1.099096	-0.000130
1420	1.4119e+02	-16.5316	-56.850945	0.000253	2.534374	0.858669	-0.000101
1421	1.4129e+02	-16.5749	-56.931688	0.000203	2.027499	0.686935	-0.000081
1422	1.4139e+02	-16.6118	-57.044728	0.000284	2.838499	0.961709	-0.000114
1423	1.4149e+02	-16.6455	-57.206213	0.000405	4.054998	1.373870	-0.000162
1424	1.4159e+02	-16.6856	-57.307142	0.000253	2.534374	0.858669	-0.000101
1425	1.4169e+02	-16.7241	-57.456516	0.000375	3.750873	1.270830	-0.000150
1426	1.4179e+02	-16.7755	-57.585704	0.000324	3.243998	1.099096	-0.000130
1427	1.4189e+02	-16.8075	-57.690670	0.000264	2.635749	0.893016	-0.000105
1428	1.4199e+02	-16.8460	-57.783524	0.000233	2.331624	0.789976	-0.000093
1429	1.4209e+02	-16.8797	-57.932898	0.000375	3.750873	1.270830	-0.000150
1430	1.4219e+02	-16.9247	-58.058049	0.000314	3.142623	1.064750	-0.000126
1431	1.4228e+02	-16.9696	-58.195312	0.000345	3.446748	1.167790	-0.000138
1432	1.4238e+02	-17.0081	-58.296240	0.000253	2.534374	0.858669	-0.000101
1433	1.4248e+02	-17.0386	-58.433503	0.000345	3.446748	1.167790	-0.000138
1434	1.4258e+02	-17.0819	-58.514245	0.000203	2.027499	0.686935	-0.000081
1435	1.4268e+02	-17.1284	-58.679768	0.000416	4.156373	1.408217	-0.000166
1436	1.4278e+02	-17.1653	-58.784733	0.000264	2.635749	0.893016	-0.000105
1437	1.4288e+02	-17.2054	-58.917959	0.000335	3.345373	1.133443	-0.000134
1438	1.4298e+02	-17.2391	-59.043110	0.000314	3.142623	1.064750	-0.000126
1439	1.4308e+02	-17.2872	-59.184410	0.000355	3.548123	1.202137	-0.000142
1440	1.4318e+02	-17.3257	-59.309561	0.000314	3.142623	1.064750	-0.000126
1441	1.4328e+02	-17.3674	-59.442787	0.000335	3.345373	1.133443	-0.000134
1442	1.4338e+02	-17.3995	-59.551789	0.000274	2.737124	0.927363	-0.000110
1443	1.4348e+02	-17.4492	-59.701163	0.000375	3.750873	1.270830	-0.000150
1444	1.4358e+02	-17.4877	-59.777869	0.000193	1.926124	0.652588	-0.000077
1445	1.4368e+02	-17.5230	-59.919169	0.000355	3.548123	1.202137	-0.000142
1446	1.4378e+02	-17.5680	-60.040283	0.000304	3.041248	1.030403	-0.000122
1447	1.4388e+02	-17.6016	-60.177545	0.000345	3.446748	1.167790	-0.000138
1448	1.4398e+02	-17.6369	-60.294622	0.000294	2.939874	0.996056	-0.000118
1449	1.4408e+02	-17.6867	-60.452071	0.000395	3.953623	1.339524	-0.000158
1450	1.4418e+02	-17.7268	-60.561073	0.000274	2.737124	0.927363	-0.000110
1451	1.4428e+02	-17.7669	-60.682187	0.000304	3.041248	1.030403	-0.000122
1452	1.4437e+02	-17.8054	-60.863858	0.000456	4.561873	1.545604	-0.000183
1453	1.4447e+02	-17.8455	-60.960750	0.000243	2.432999	0.824322	-0.000097
1454	1.4457e+02	-17.8856	-61.045529	0.000213	2.128874	0.721282	-0.000085
1455	1.4467e+02	-17.9161	-61.186829	0.000355	3.548123	1.202137	-0.000142
1456	1.4477e+02	-17.9690	-61.332166	0.000365	3.649498	1.236483	-0.000146
1457	1.4487e+02	-17.9995	-61.477503	0.000365	3.649498	1.236483	-0.000146
1458	1.4497e+02	-18.0396	-61.594580	0.000294	2.939874	0.996056	-0.000118
1459	1.4507e+02	-18.0781	-61.764140	0.000426	4.257748	1.442564	-0.000170
1460	1.4517e+02	-18.1214	-61.861031	0.000243	2.432999	0.824322	-0.000097
1461	1.4527e+02	-18.1583	-61.998294	0.000345	3.446748	1.167790	-0.000138
1462	1.4537e+02	-18.1952	-62.123445	0.000314	3.142623	1.064750	-0.000126
1463	1.4547e+02	-18.2465	-62.288967	0.000416	4.156373	1.408217	-0.000166
1464	1.4557e+02	-18.2850	-62.418156	0.000324	3.243998	1.099096	-0.000130
1465	1.4567e+02	-18.3268	-62.563493	0.000365	3.649498	1.236483	-0.000146
1466	1.4577e+02	-18.3540	-62.680569	0.000294	2.939874	0.996056	-0.000118
1467	1.4587e+02	-18.3957	-62.817832	0.000345	3.446748	1.167790	-0.000138
1468	1.4597e+02	-18.4439	-62.959132	0.000355	3.548123	1.202137	-0.000142
1469	1.4607e+02	-18.4759	-63.039875	0.000203	2.027499	0.686935	-0.000081
1470	1.4617e+02	-18.5289	-63.257880	0.000547	5.474247	1.854725	-0.000219
1471	1.4626e+02	-18.5626	-63.366883	0.000274	2.737124	0.927363	-0.000110
1472	1.4636e+02	-18.5995	-63.528368	0.000405	4.054998	1.373870	-0.000162
1473	1.4646e+02	-18.6332	-63.706002	0.000446	4.460498	1.511258	-0.000179
1474	1.4656e+02	-18.6829	-63.831153	0.000314	3.142623	1.064750	-0.000126
1475	1.4666e+02	-18.7214	-63.948230	0.000294	2.939874	0.996056	-0.000118
1476	1.4676e+02	-18.7551	-64.105678	0.000395	3.953623	1.339524	-0.000158
1477	1.4686e+02	-18.7952	-64.222755	0.000294	2.939874	0.996056	-0.000118
1478	1.4696e+02	-18.8369	-64.343869	0.000304	3.041248	1.030403	-0.000122
1479	1.4706e+02	-18.8786	-64.521503	0.000446	4.460498	1.511258	-0.000179
1480	1.4716e+02	-18.9043	-64.658766	0.000345	3.446748	1.167790	-0.000138
1481	1.4726e+02	-18.9668	-64.812177	0.000385	3.852248	1.305177	-0.000154
1482	1.4736e+02	-19.0070	-65.005960	0.000487	4.865998	1.648645	-0.000195
1483	1.4746e+02	-19.0342	-65.082665	0.000193	1.926124	0.652588	-0.000077
1484	1.4756e+02	-19.0759	-65.256262	0.000436	4.359123	1.476911	-0.000174
1485	1.4766e+02	-19.1160	-65.421785	0.000416	4.156373	1.408217	-0.000166
1486	1.4776e+02	-19.1561	-65.555010	0.000335	3.345373	1.133443	-0.000134
1487	1.4786e+02	-19.1930	-65.684198	0.000324	3.243998	1.099096	-0.000130
1488	1.4796e+02	-19.2444	-65.825498	0.000355	3.548123	1.202137	-0.000142
1489	1.4806e+02	-19.2781	-66.019281	0.000487	4.865998	1.648645	-0.000195
1490	1.4816e+02	-19.3230	-66.168655	0.000375	3.750873	1.270830	-0.000150
1491	1.4825e+02	-19.3551	-66.289769	0.000304	3.041248	1.030403	-0.000122
1492	1.4835e+02	-19.3936	-66.507774	0.000547	5.474247	1.854725	-0.000219
1493	1.4845e+02	-19.4417	-66.649074	0.000355	3.548123	1.202137	-0.000142
1494	1.4855e+02	-19.4754	-66.790374	0.000355	3.548123	1.202137	-0.000142
1495	1.4865e+02	-19.5139	-66.919562	0.000324	3.243998	1.099096	-0.000130
1496	1.4875e+02	-19.5492	-67.097196	0.000446	4.460498	1.511258	-0.000179
1497	1.4885e+02	-19.5909	-67.258681	0.000405	4.054998	1.373870	-0.000162
1498	1.4895e+02	-19.6278	-67.399981	0.000355	3.548123	1.202137	-0.000142
1499	1.4905e+02	-19.6791	-67.605875	0.000517	5.170122	1.751685	-0.000207
1500	1.4915e+02	-19.7048	-67.735063	0.000324	3.243998	1.099096	-0.000130
1501	1.4925e+02	-19.7481	-67.888475	0.000385	3.852248	1.305177	-0.000154
1502	1.4935e+02	-19.7914	-68.070146	0.000456	4.561873	1.545604	-0.000183
1503	1.4945e+02	-19.8363	-68.239705	0.000426	4.257748	1.442564	-0.000170
1504	1.4955e+02	-19.8748	-68.405228	0.000416	4.156373	1.408217	-0.000166
1505	1.4965e+02	-19.9149	-68.570751	0.000416	4.156373	1.408217	-0.000166
1506	1.4975e+02	-19.9486	-68.712050	0.000355	3.548123	1.202137	-0.000142
1507	1.4985e+02	-19.9887	-68.865461	0.000385	3.852248	1.305177	-0.000154
1508	1.4995e+02	-19.9486	-68.881610	-0.000041	-0.405500	-0.137387	-0.000016
1509	1.5005e+02	-19.9101	-68.800867	0.000203	2.027499	0.686935	0.000081
1510	1.5015e+02	-19.8748	-68.837201	-0.000091	-0.912375	-0.309121	-0.000037
1511	1.5025e+02	-19.8395	-68.748384	0.000223	2.230249	0.755629	0.000089
1512	1.5034e+02	-19.7978	-68.724162	0.000061	0.608250	0.206081	0.000024
1513	1.5044e+02	-19.7577	-68.703976	0.000051	0.506875	0.171734	0.000020
1514	1.5054e+02	-19.7096	-68.627270	0.000193	1.926124	0.652588	0.000077
1515	1.5064e+02	-19.6791	-68.611122	0.000041	0.405500	0.137387	0.000016
1516	1.5074e+02	-19.6358	-68.506156	0.000264	2.635749	0.893016	0.000105
1517	1.5084e+02	-19.5941	-68.506156	0.000000	0.000000	0.000000	0.000000
1518	1.5094e+02	-19.5540	-68.417339	0.000223	2.230249	0.755629	0.000089
1519	1.5104e+02	-19.5203	-68.401191	0.000041	0.405500	0.137387	0.000016
1520	1.5114e+02	-19.4690	-68.352745	0.000122	1.216499	0.412161	0.000049
1521	1.5124e+02	-19.4481	-68.255854	0.000243	2.432999	0.824322	0.000097
1522	1.5134e+02	-19.3968	-68.203371	0.000132	1.317874	0.446508	0.000053
1523	1.5144e+02	-19.3583	-68.171074	0.000081	0.811000	0.274774	0.000032
1524	1.5154e+02	-19.3134	-68.126666	0.000112	1.115124	0.377814	0.000045
1525	1.5164e+02	-19.2781	-68.037849	0.000223	2.230249	0.755629	0.000089
1526	1.5174e+02	-19.2380	-67.940957	0.000243	2.432999	0.824322	0.000097
1527	1.5184e+02	-19.1914	-67.916735	0.000061	0.608250	0.206081	0.000024
1528	1.5194e+02	-19.1465	-67.815806	0.000253	2.534374	0.858669	0.000101
1529	1.5204e+02	-19.1096	-67.763323	0.000132	1.317874	0.446508	0.000053
1530	1.5214e+02	-19.0759	-67.722952	0.000101	1.013749	0.343468	0.000041
1531	1.5224e+02	-19.0438	-67.654321	0.000172	1.723374	0.583895	0.000069
1532	1.5233e+02	-18.9925	-67.549355	0.000264	2.635749	0.893016	0.000105
1533	1.5243e+02	-18.9604	-67.508984	0.000101	1.013749	0.343468	0.000041
1534	1.5253e+02	-18.9219	-67.440353	0.000172	1.723374	0.583895	0.000069
1535	1.5263e+02	-18.8738	-67.311164	0.000324	3.243998	1.099096	0.000130
1536	1.5273e+02	-18.8449	-67.266756	0.000112	1.115124	0.377814	0.000045
1537	1.5283e+02	-18.8032	-67.153716	0.000284	2.838499	0.961709	0.000114
1538	1.5293e+02	-18.7599	-67.109307	0.000112	1.115124	0.377814	0.000045
1539	1.5303e+02	-18.7134	-67.020490	0.000223	2.230249	0.755629	0.000089
1540	1.5313e+02	-18.6829	-66.992230	0.000071	0.709625	0.240427	0.000028
1541	1.5323e+02	-18.6428	-66.842856	0.000375	3.750873	1.270830	0.000150
1542	1.5333e+02	-18.6027	-66.790374	0.000132	1.317874	0.446508	0.000053
1543	1.5343e+02	-18.5642	-66.697520	0.000233	2.331624	0.789976	0.000093
1544	1.5353e+02	-18.5177	-66.612740	0.000213	2.128874	0.721282	0.000085
1545	1.5363e+02	-18.4792	-66.519886	0.000233	2.331624	0.789976	0.000093
1546	1.5373e+02	-18.4310	-66.475477	0.000112	1.115124	0.377814	0.000045
1547	1.5383e+02	-18.4022	-66.334177	0.000355	3.548123	1.202137	0.000142
1548	1.5393e+02	-18.3540	-66.285732	0.000122	1.216499	0.412161	0.000049
1549	1.5403e+02	-18.3091	-66.172692	0.000284	2.838499	0.961709	0.000114
1550	1.5413e+02	-18.2834	-66.140395	0.000081	0.811000	0.274774	0.000032
1551	1.5422e+02	-18.2433	-66.011206	0.000324	3.243998	1.099096	0.000130
1552	1.5432e+02	-18.2048	-65.898167	0.000284	2.838499	0.961709	0.000114
1553	1.5442e+02	-18.1615	-65.793201	0.000264	2.635749	0.893016	0.000105
1554	1.5452e+02	-18.1182	-65.700347	0.000233	2.331624	0.789976	0.000093
1555	1.5462e+02	-18.0909	-65.607493	0.000233	2.331624	0.789976	0.000093
1556	1.5472e+02	-18.0444	-65.595381	0.000030	0.304125	0.103040	0.000012
1557	1.5482e+02	-18.0107	-65.474267	0.000304	3.041248	1.030403	0.000122
1558	1.5492e+02	-17.9642	-65.373339	0.000253	2.534374	0.858669	0.000101
1559	1.5502e+02	-17.9257	-65.304708	0.000172	1.723374	0.583895	0.000069
1560	1.5512e+02	-17.8872	-65.191668	0.000284	2.838499	0.961709	0.000114
1561	1.5522e+02	-17.8407	-65.074591	0.000294	2.939874	0.996056	0.000118
1562	1.5532e+02	-17.8086	-65.026145	0.000122	1.216499	0.412161	0.000049
1563	1.5542e+02	-17.7621	-64.917143	0.000274	2.737124	0.927363	0.000110
1564	1.5552e+02	-17.7188	-64.856586	0.000152	1.520624	0.515201	0.000061
1565	1.5562e+02	-17.6819	-64.763732	0.000233	2.331624	0.789976	0.000093
1566	1.5572e+02	-17.6353	-64.666840	0.000243	2.432999	0.824322	0.000097
1567	1.5582e+02	-17.6032	-64.517466	0.000375	3.750873	1.270830	0.000150
1568	1.5592e+02	-17.5599	-64.448835	0.000172	1.723374	0.583895	0.000069
1569	1.5602e+02	-17.5262	-64.335795	0.000284	2.838499	0.961709	0.000114
1570	1.5612e+02	-17.4829	-64.271201	0.000162	1.621999	0.549548	0.000065
1571	1.5622e+02	-17.4412	-64.218718	0.000132	1.317874	0.446508	0.000053
1572	1.5631e+02	-17.4075	-64.089530	0.000324	3.243998	1.099096	0.000130
1573	1.5641e+02	-17.3658	-64.016861	0.000182	1.824749	0.618242	0.000073
1574	1.5651e+02	-17.3177	-63.907859	0.000274	2.737124	0.927363	0.000110
1575	1.5661e+02	-17.2904	-63.806930	0.000253	2.534374	0.858669	0.000101
1576	1.5671e+02	-17.2471	-63.710039	0.000243	2.432999	0.824322	0.000097
1577	1.5681e+02	-17.2038	-63.605074	0.000264	2.635749	0.893016	0.000105
1578	1.5691e+02	-17.1653	-63.492034	0.000284	2.838499	0.961709	0.000114
1579	1.5701e+02	-17.1316	-63.407254	0.000213	2.128874	0.721282	0.000085
1580	1.5711e+02	-17.0851	-63.350734	0.000142	1.419249	0.480855	0.000057
1581	1.5721e+02	-17.0434	-63.221546	0.000324	3.243998	1.099096	0.000130
1582	1.5731e+02	-17.0001	-63.140803	0.000203	2.027499	0.686935	0.000081
1583	1.5741e+02	-16.9728	-63.023726	0.000294	2.939874	0.996056	0.000118
1584	1.5751e+02	-16.9295	-62.902612	0.000304	3.041248	1.030403	0.000122
1585	1.5761e+02	-16.8781	-62.821869	0.000203	2.027499	0.686935	0.000081
1586	1.5771e+02	-16.8444	-62.724978	0.000243	2.432999	0.824322	0.000097
1587	1.5781e+02	-16.8027	-62.607901	0.000294	2.939874	0.996056	0.000118
1588	1.5791e+02	-16.7674	-62.482750	0.000314	3.142623	1.064750	0.000126
1589	1.5801e+02	-16.7225	-62.462564	0.000051	0.506875	0.171734	0.000020
1590	1.5811e+02	-16.6872	-62.341450	0.000304	3.041248	1.030403	0.000122
1591	1.5821e+02	-16.6503	-62.232447	0.000274	2.737124	0.927363	0.000110
1592	1.5830e+02	-16.6086	-62.147668	0.000213	2.128874	0.721282	0.000085
1593	1.5840e+02	-16.5685	-62.038665	0.000274	2.737124	0.927363	0.000110
1594	1.5850e+02	-16.5236	-61.953885	0.000213	2.128874	0.721282	0.000085
1595	1.5860e+02	-16.4787	-61.852957	0.000253	2.534374	0.858669	0.000101
1596	1.5870e+02	-16.4434	-61.731843	0.000304	3.041248	1.030403	0.000122
1597	1.5880e+02	-16.3969	-61.651100	0.000203	2.027499	0.686935	0.000081
1598	1.5890e+02	-16.3712	-61.558246	0.000233	2.331624	0.789976	0.000093
1599	1.5900e+02	-16.3327	-61.469429	0.000223	2.230249	0.755629	0.000089
1600	1.5910e+02	-16.2942	-61.356389	0.000284	2.838499	0.961709	0.000114
1601	1.5920e+02	-16.2541	-61.255461	0.000253	2.534374	0.858669	0.000101
1602	1.5930e+02	-16.2124	-61.170681	0.000213	2.128874	0.721282	0.000085
1603	1.5940e+02	-16.1787	-61.053604	0.000294	2.939874	0.996056	0.000118
1604	1.5950e+02	-16.1338	-60.976898	0.000193	1.926124	0.652588	0.000077
1605	1.5960e+02	-16.0856	-60.863858	0.000284	2.838499	0.961709	0.000114
1606	1.5970e+02	-16.0487	-60.730633	0.000335	3.345373	1.133443	0.000134
1607	1.5980e+02	-16.0006	-60.645853	0.000213	2.128874	0.721282	0.000085
1608	1.5990e+02	-15.9685	-60.552999	0.000233	2.331624	0.789976	0.000093
1609	1.6000e+02	-15.9348	-60.468219	0.000213	2.128874	0.721282	0.000085
1610	1.6010e+02	-15.8931	-60.343068	0.000314	3.142623	1.064750	0.000126
1611	1.6019e+02	-15.8562	-60.230028	0.000284	2.838499	0.961709	0.000114
1612	1.6029e+02	-15.8049	-60.121025	0.000274	2.737124	0.927363	0.000110
1613	1.6039e+02	-15.7744	-60.003948	0.000294	2.939874	0.996056	0.000118
1614	1.6049e+02	-15.7279	-59.931280	0.000182	1.824749	0.618242	0.000073
1615	1.6059e+02	-15.6910	-59.810166	0.000304	3.041248	1.030403	0.000122
1616	1.6069e+02	-15.6525	-59.713275	0.000243	2.432999	0.824322	0.000097
1617	1.6079e+02	-15.6108	-59.608309	0.000264	2.635749	0.893016	0.000105
1618	1.6089e+02	-15.5675	-59.475084	0.000335	3.345373	1.133443	0.000134
1619	1.6099e+02	-15.5402	-59.422601	0.000132	1.317874	0.446508	0.000053
1620	1.6109e+02	-15.5001	-59.281301	0.000355	3.548123	1.202137	0.000142
1621	1.6119e+02	-15.4520	-59.216707	0.000162	1.621999	0.549548	0.000065
1622	1.6129e+02	-15.4119	-59.063296	0.000385	3.852248	1.305177	0.000154
1623	1.6139e+02	-15.3766	-59.002739	0.000152	1.520624	0.515201	0.000061
1624	1.6149e+02	-15.3477	-58.881625	0.000304	3.041248	1.030403	0.000122
1625	1.6159e+02	-15.2851	-58.756474	0.000314	3.142623	1.064750	0.000126
1626	1.6169e+02	-15.2514	-58.667657	0.000223	2.230249	0.755629	0.000089
1627	1.6179e+02	-15.2033	-58.558654	0.000274	2.737124	0.927363	0.000110
1628	1.6189e+02	-15.1760	-58.494060	0.000162	1.621999	0.549548	0.000065
1629	1.6199e+02	-15.1327	-58.332574	0.000405	4.054998	1.373870	0.000162
1630	1.6209e+02	-15.0894	-58.251832	0.000203	2.027499	0.686935	0.000081
1631	1.6219e+02	-15.0493	-58.167052	0.000213	2.128874	0.721282	0.000085
1632	1.6228e+02	-15.0188	-58.066123	0.000253	2.534374	0.858669	0.000101
1633	1.6238e+02	-14.9675	-57.936935	0.000324	3.243998	1.099096	0.000130
1634	1.6248e+02	-14.9290	-57.836007	0.000253	2.534374	0.858669	0.000101
1635	1.6258e+02	-14.8873	-57.735078	0.000253	2.534374	0.858669	0.000101
1636	1.6268e+02	-14.8568	-57.622038	0.000284	2.838499	0.961709	0.000114
1637	1.6278e+02	-14.8087	-57.504961	0.000294	2.939874	0.996056	0.000118
1638	1.6288e+02	-14.7686	-57.428256	0.000193	1.926124	0.652588	0.000077
1639	1.6298e+02	-14.7301	-57.307142	0.000304	3.041248	1.030403	0.000122
1640	1.6308e+02	-14.6916	-57.218325	0.000223	2.230249	0.755629	0.000089
1641	1.6318e+02	-14.6531	-57.153731	0.000162	1.621999	0.549548	0.000065
1642	1.6328e+02	-14.6130	-57.000319	0.000385	3.852248	1.305177	0.000154
1643	1.6338e+02	-14.5745	-56.899391	0.000253	2.534374	0.858669	0.000101
1644	1.6348e+02	-14.5424	-56.826723	0.000182	1.824749	0.618242	0.000073
1645	1.6358e+02	-14.4975	-56.697534	0.000324	3.243998	1.099096	0.000130
1646	1.6368e+02	-14.4445	-56.628903	0.000172	1.723374	0.583895	0.000069
1647	1.6378e+02	-14.4124	-56.463380	0.000416	4.156373	1.408217	0.000166
1648	1.6388e+02	-14.3739	-56.418972	0.000112	1.115124	0.377814	0.000045
1649	1.6398e+02	-14.3418	-56.257487	0.000405	4.054998	1.373870	0.000162
1650	1.6408e+02	-14.3017	-56.196929	0.000152	1.520624	0.515201	0.000061
1651	1.6418e+02	-14.2600	-56.039481	0.000395	3.953623	1.339524	0.000158
1652	1.6427e+02	-14.2151	-55.958738	0.000203	2.027499	0.686935	0.000081
1653	1.6437e+02	-14.1830	-55.809364	0.000375	3.750873	1.270830	0.000150
1654	1.6447e+02	-14.1349	-55.740733	0.000172	1.723374	0.583895	0.000069
1655	1.6457e+02	-14.0932	-55.619619	0.000304	3.041248	1.030403	0.000122
1656	1.6467e+02	-14.0515	-55.538876	0.000203	2.027499	0.686935	0.000081
1657	1.6477e+02	-14.0178	-55.365280	0.000436	4.359123	1.476911	0.000174
1658	1.6487e+02	-13.9713	-55.284537	0.000203	2.027499	0.686935	0.000081
1659	1.6497e+02	-13.9312	-55.199757	0.000213	2.128874	0.721282	0.000085
1660	1.6507e+02	-13.9039	-55.038272	0.000405	4.054998	1.373870	0.000162
1661	1.6517e+02	-13.8702	-54.965603	0.000182	1.824749	0.618242	0.000073
1662	1.6527e+02	-13.8221	-54.856600	0.000274	2.737124	0.927363	0.000110
1663	1.6537e+02	-13.7788	-54.775858	0.000203	2.027499	0.686935	0.000081
1664	1.6547e+02	-13.7354	-54.699152	0.000193	1.926124	0.652588	0.000077
1665	1.6557e+02	-13.6953	-54.553815	0.000365	3.649498	1.236483	0.000146
1666	1.6567e+02	-13.6520	-54.452887	0.000253	2.534374	0.858669	0.000101
1667	1.6577e+02	-13.6183	-54.311587	0.000355	3.548123	1.202137	0.000142
1668	1.6587e+02	-13.5766	-54.226807	0.000213	2.128874	0.721282	0.000085
1669	1.6597e+02	-13.5397	-54.085507	0.000355	3.548123	1.202137	0.000142
1670	1.6607e+02	-13.4932	-54.008802	0.000193	1.926124	0.652588	0.000077
1671	1.6616e+02	-13.4643	-53.851354	0.000395	3.953623	1.339524	0.000158
1672	1.6626e+02	-13.4210	-53.754462	0.000243	2.432999	0.824322	0.000097
1673	1.6636e+02	-13.3713	-53.641423	0.000284	2.838499	0.961709	0.000114
1674	1.6646e+02	-13.3424	-53.580866	0.000152	1.520624	0.515201	0.000061
1675	1.6656e+02	-13.2959	-53.459751	0.000304	3.041248	1.030403	0.000122
1676	1.6666e+02	-13.2590	-53.346712	0.000284	2.838499	0.961709	0.000114
1677	1.6676e+02	-13.2237	-53.181189	0.000416	4.156373	1.408217	0.000166
1678	1.6686e+02	-13.1772	-53.108521	0.000182	1.824749	0.618242	0.000073
1679	1.6696e+02	-13.1499	-53.011629	0.000243	2.432999	0.824322	0.000097
1680	1.6706e+02	-13.1002	-52.886478	0.000314	3.142623	1.064750	0.000126
1681	1.6716e+02	-13.0601	-52.777476	0.000274	2.737124	0.927363	0.000110
1682	1.6726e+02	-13.0151	-52.636176	0.000355	3.548123	1.202137	0.000142
1683	1.6736e+02	-12.9847	-52.567544	0.000172	1.723374	0.583895	0.000069
1684	1.6746e+02	-12.9413	-52.446430	0.000304	3.041248	1.030403	0.000122
1685	1.6756e+02	-12.9077	-52.305131	0.000355	3.548123	1.202137	0.000142
1686	1.6766e+02	-12.8676	-52.200165	0.000264	2.635749	0.893016	0.000105
1687	1.6776e+02	-12.8194	-52.107311	0.000233	2.331624	0.789976	0.000093
1688	1.6786e+02	-12.7857	-52.014457	0.000233	2.331624	0.789976	0.000093
1689	1.6796e+02	-12.7472	-51.877194	0.000345	3.446748	1.167790	0.000138
1690	1.6806e+02	-12.7007	-51.768192	0.000274	2.737124	0.927363	0.000110
1691	1.6816e+02	-12.6654	-51.655152	0.000284	2.838499	0.961709	0.000114
1692	1.6825e+02	-12.6285	-51.550186	0.000264	2.635749	0.893016	0.000105
1693	1.6835e+02	-12.5836	-51.425035	0.000314	3.142623	1.064750	0.000126
1694	1.6845e+02	-12.5467	-51.311995	0.000284	2.838499	0.961709	0.000114
1695	1.6855e+02	-12.5018	-51.231253	0.000203	2.027499	0.686935	0.000081
1696	1.6865e+02	-12.4601	-51.102064	0.000324	3.243998	1.099096	0.000130
1697	1.6875e+02	-12.4248	-51.001136	0.000253	2.534374	0.858669	0.000101
1698	1.6885e+02	-12.3927	-50.900207	0.000253	2.534374	0.858669	0.000101
1699	1.6895e+02	-12.3366	-50.779093	0.000304	3.041248	1.030403	0.000122
1700	1.6905e+02	-12.3077	-50.625682	0.000385	3.852248	1.305177	0.000154
1701	1.6915e+02	-12.2676	-50.524754	0.000253	2.534374	0.858669	0.000101
1702	1.6925e+02	-12.2307	-50.444011	0.000203	2.027499	0.686935	0.000081
1703	1.6935e+02	-12.1809	-50.318860	0.000314	3.142623	1.064750	0.000126
1704	1.6945e+02	-12.1424	-50.177560	0.000355	3.548123	1.202137	0.000142
1705	1.6955e+02	-12.1055	-50.104892	0.000182	1.824749	0.618242	0.000073
1706	1.6965e+02	-12.0735	-49.995889	0.000274	2.737124	0.927363	0.000110
1707	1.6975e+02	-12.0221	-49.838441	0.000395	3.953623	1.339524	0.000158
1708	1.6985e+02	-11.9836	-49.741549	0.000243	2.432999	0.824322	0.000097
1709	1.6995e+02	-11.9403	-49.632547	0.000274	2.737124	0.927363	0.000110
1710	1.7005e+02	-11.9146	-49.511433	0.000304	3.041248	1.030403	0.000122
1711	1.7015e+02	-11.8697	-49.418579	0.000233	2.331624	0.789976	0.000093
1712	1.7024e+02	-11.8264	-49.297464	0.000304	3.041248	1.030403	0.000122
1713	1.7034e+02	-11.7815	-49.135979	0.000405	4.054998	1.373870	0.000162
1714	1.7044e+02	-11.7510	-49.075422	0.000152	1.520624	0.515201	0.000061
1715	1.7054e+02	-11.7093	-48.917974	0.000395	3.953623	1.339524	0.000158
1716	1.7064e+02	-11.6676	-48.808971	0.000274	2.737124	0.927363	0.000110
1717	1.7074e+02	-11.6275	-48.695931	0.000284	2.838499	0.961709	0.000114
1718	1.7084e+02	-11.5890	-48.554632	0.000355	3.548123	1.202137	0.000142
1719	1.7094e+02	-11.5473	-48.425443	0.000324	3.243998	1.099096	0.000130
1720	1.7104e+02	-11.5120	-48.316441	0.000274	2.737124	0.927363	0.000110
1721	1.7114e+02	-11.4671	-48.231661	0.000213	2.128874	0.721282	0.000085
1722	1.7124e+02	-11.4237	-48.082287	0.000375	3.750873	1.270830	0.000150
1723	1.7134e+02	-11.3852	-47.997507	0.000213	2.128874	0.721282	0.000085
1724	1.7144e+02	-11.3435	-47.836021	0.000405	4.054998	1.373870	0.000162
1725	1.7154e+02	-11.3082	-47.731056	0.000264	2.635749	0.893016	0.000105
1726	1.7164e+02	-11.2665	-47.638202	0.000233	2.331624	0.789976	0.000093
1727	1.7174e+02	-11.2296	-47.509013	0.000324	3.243998	1.099096	0.000130
1728	1.7184e+02	-11.1959	-47.375788	0.000335	3.345373	1.133443	0.000134
1729	1.7194e+02	-11.1446	-47.262748	0.000284	2.838499	0.961709	0.000114
1730	1.7204e+02	-11.1077	-47.141634	0.000304	3.041248	1.030403	0.000122
1731	1.7213e+02	-11.0692	-47.016483	0.000314	3.142623	1.064750	0.000126
1732	1.7223e+02	-11.0195	-46.907480	0.000274	2.737124	0.927363	0.000110
1733	1.7233e+02	-10.9938	-46.766180	0.000355	3.548123	1.202137	0.000142
1734	1.7243e+02	-10.9473	-46.657178	0.000274	2.737124	0.927363	0.000110
1735	1.7253e+02	-10.9136	-46.540101	0.000294	2.939874	0.996056	0.000118
1736	1.7263e+02	-10.8623	-46.427061	0.000284	2.838499	0.961709	0.000114
1737	1.7273e+02	-10.8366	-46.318058	0.000274	2.737124	0.927363	0.000110
1738	1.7283e+02	-10.7901	-46.229241	0.000223	2.230249	0.755629	0.000089
1739	1.7293e+02	-10.7548	-46.096016	0.000335	3.345373	1.133443	0.000134
1740	1.7303e+02	-10.7083	-45.987013	0.000274	2.737124	0.927363	0.000110
1741	1.7313e+02	-10.6842	-45.869936	0.000294	2.939874	0.996056	0.000118
1742	1.7323e+02	-10.6345	-45.740748	0.000324	3.243998	1.099096	0.000130
1743	1.7333e+02	-10.5976	-45.579262	0.000405	4.054998	1.373870	0.000162
1744	1.7343e+02	-10.5382	-45.478334	0.000253	2.534374	0.858669	0.000101
1745	1.7353e+02	-10.5190	-45.320886	0.000395	3.953623	1.339524	0.000158
1746	1.7363e+02	-10.4708	-45.240143	0.000203	2.027499	0.686935	0.000081
1747	1.7373e+02	-10.4291	-45.143252	0.000243	2.432999	0.824322	0.000097
1748	1.7383e+02	-10.3954	-45.010026	0.000335	3.345373	1.133443	0.000134
1749	1.7393e+02	-10.3553	-44.884875	0.000314	3.142623	1.064750	0.000126
1750	1.7403e+02	-10.3136	-44.735501	0.000375	3.750873	1.270830	0.000150
1751	1.7413e+02	-10.2751	-44.662833	0.000182	1.824749	0.618242	0.000073
1752	1.7422e+02	-10.2302	-44.509422	0.000385	3.852248	1.305177	0.000154
1753	1.7432e+02	-10.1917	-44.400419	0.000274	2.737124	0.927363	0.000110
1754	1.7442e+02	-10.1532	-44.295453	0.000264	2.635749	0.893016	0.000105
1755	1.7452e+02	-10.1195	-44.142042	0.000385	3.852248	1.305177	0.000154
1756	1.7462e+02	-10.0746	-44.061299	0.000203	2.027499	0.686935	0.000081
1757	1.7472e+02	-10.0281	-43.899814	0.000405	4.054998	1.373870	0.000162
1758	1.7482e+02	-9.9928	-43.774663	0.000314	3.142623	1.064750	0.000126
1759	1.7492e+02	-9.9559	-43.681809	0.000233	2.331624	0.789976	0.000093
1760	1.7502e+02	-9.9126	-43.552620	0.000324	3.243998	1.099096	0.000130
1761	1.7512e+02	-9.8724	-43.451692	0.000253	2.534374	0.858669	0.000101
1762	1.7522e+02	-9.8356	-43.302318	0.000375	3.750873	1.270830	0.000150
1763	1.7532e+02	-9.7922	-43.209464	0.000233	2.331624	0.789976	0.000093
1764	1.7542e+02	-9.7585	-43.084313	0.000314	3.142623	1.064750	0.000126
1765	1.7552e+02	-9.7168	-42.975310	0.000274	2.737124	0.927363	0.000110
1766	1.7562e+02	-9.6767	-42.785565	0.000476	4.764623	1.614298	0.000191
1767	1.7572e+02	-9.6430	-42.704822	0.000203	2.027499	0.686935	0.000081
1768	1.7582e+02	-9.5997	-42.567559	0.000345	3.446748	1.167790	0.000138
1769	1.7592e+02	-9.5628	-42.438371	0.000324	3.243998	1.099096	0.000130
1770	1.7602e+02	-9.5083	-42.345517	0.000233	2.331624	0.789976	0.000093
1771	1.7612e+02	-9.4714	-42.216328	0.000324	3.243998	1.099096	0.000130
1772	1.7621e+02	-9.4457	-42.103289	0.000284	2.838499	0.961709	0.000114
1773	1.7631e+02	-9.4072	-41.957952	0.000365	3.649498	1.236483	0.000146
1774	1.7641e+02	-9.3639	-41.840875	0.000294	2.939874	0.996056	0.000118
1775	1.7651e+02	-9.3222	-41.691501	0.000375	3.750873	1.270830	0.000150
1776	1.7661e+02	-9.2789	-41.614795	0.000193	1.926124	0.652588	0.000077
1777	1.7671e+02	-9.2452	-41.441198	0.000436	4.359123	1.476911	0.000174
1778	1.7681e+02	-9.1939	-41.368530	0.000182	1.824749	0.618242	0.000073
1779	1.7691e+02	-9.1666	-41.231267	0.000345	3.446748	1.167790	0.000138
1780	1.7701e+02	-9.1217	-41.102079	0.000324	3.243998	1.099096	0.000130
1781	1.7711e+02	-9.0800	-40.912334	0.000476	4.764623	1.614298	0.000191
1782	1.7721e+02	-9.0447	-40.831591	0.000203	2.027499	0.686935	0.000081
1783	1.7731e+02	-8.9965	-40.718551	0.000284	2.838499	0.961709	0.000114
1784	1.7741e+02	-8.9548	-40.553028	0.000416	4.156373	1.408217	0.000166
1785	1.7751e+02	-8.9260	-40.439989	0.000284	2.838499	0.961709	0.000114
1786	1.7761e+02	-8.8762	-40.330986	0.000274	2.737124	0.927363	0.000110
1787	1.7771e+02	-8.8377	-40.213909	0.000294	2.939874	0.996056	0.000118
1788	1.7781e+02	-8.8088	-40.100869	0.000284	2.838499	0.961709	0.000114
1789	1.7791e+02	-8.7543	-39.975718	0.000314	3.142623	1.064750	0.000126
1790	1.7801e+02	-8.7206	-39.810196	0.000416	4.156373	1.408217	0.000166
1791	1.7810e+02	-8.6821	-39.689081	0.000304	3.041248	1.030403	0.000122
1792	1.7820e+02	-8.6372	-39.567967	0.000304	3.041248	1.030403	0.000122
1793	1.7830e+02	-8.6003	-39.467039	0.000253	2.534374	0.858669	0.000101
1794	1.7840e+02	-8.5570	-39.341888	0.000314	3.142623	1.064750	0.000126
1795	1.7850e+02	-8.5217	-39.176365	0.000416	4.156373	1.408217	0.000166
1796	1.7860e+02	-8.4832	-39.026991	0.000375	3.750873	1.270830	0.000150
1797	1.7870e+02	-8.4415	-38.954323	0.000182	1.824749	0.618242	0.000073
1798	1.7880e+02	-8.4030	-38.796874	0.000395	3.953623	1.339524	0.000158
1799	1.7890e+02	-8.3645	-38.720169	0.000193	1.926124	0.652588	0.000077
1800	1.7900e+02	-8.3276	-38.607129	0.000284	2.838499	0.961709	0.000114
1801	1.7910e+02	-8.2827	-38.409309	0.000497	4.967372	1.682991	0.000199
1802	1.7920e+02	-8.2345	-38.296270	0.000284	2.838499	0.961709	0.000114
1803	1.7930e+02	-8.1992	-38.203415	0.000233	2.331624	0.789976	0.000093
1804	1.7940e+02	-8.1623	-38.086339	0.000294	2.939874	0.996056	0.000118
1805	1.7950e+02	-8.1270	-37.953113	0.000335	3.345373	1.133443	0.000134
1806	1.7960e+02	-8.0869	-37.783553	0.000426	4.257748	1.442564	0.000170
1807	1.7970e+02	-8.0388	-37.678588	0.000264	2.635749	0.893016	0.000105
1808	1.7980e+02	-7.9987	-37.597845	0.000203	2.027499	0.686935	0.000081
1809	1.7990e+02	-7.9698	-37.440397	0.000395	3.953623	1.339524	0.000158
1810	1.8000e+02	-7.9249	-37.327357	0.000284	2.838499	0.961709	0.000114
1811	1.8009e+02	-7.8816	-37.177983	0.000375	3.750873	1.270830	0.000150
1812	1.8019e+02	-7.8447	-37.052832	0.000314	3.142623	1.064750	0.000126
1813	1.8029e+02	-7.7950	-36.915569	0.000345	3.446748	1.167790	0.000138
1814	1.8039e+02	-7.7597	-36.806567	0.000274	2.737124	0.927363	0.000110
1815	1.8049e+02	-7.7228	-36.673341	0.000335	3.345373	1.133443	0.000134
1816	1.8059e+02	-7.6891	-36.568376	0.000264	2.635749	0.893016	0.000105
1817	1.8069e+02	-7.6426	-36.410927	0.000395	3.953623	1.339524	0.000158
1818	1.8079e+02	-7.6041	-36.293850	0.000294	2.939874	0.996056	0.000118
1819	1.8089e+02	-7.5624	-36.164662	0.000324	3.243998	1.099096	0.000130
1820	1.8099e+02	-7.5190	-36.031436	0.000335	3.345373	1.133443	0.000134
1821	1.8109e+02	-7.4902	-35.922434	0.000274	2.737124	0.927363	0.000110
1822	1.8119e+02	-7.4485	-35.756911	0.000416	4.156373	1.408217	0.000166
1823	1.8129e+02	-7.3987	-35.631760	0.000314	3.142623	1.064750	0.000126
1824	1.8139e+02	-7.3682	-35.498535	0.000335	3.345373	1.133443	0.000134
1825	1.8149e+02	-7.3201	-35.417792	0.000203	2.027499	0.686935	0.000081
1826	1.8159e+02	-7.2848	-35.276492	0.000355	3.548123	1.202137	0.000142
1827	1.8169e+02	-7.2399	-35.119044	0.000395	3.953623	1.339524	0.000158
1828	1.8179e+02	-7.2014	-34.989855	0.000324	3.243998	1.099096	0.000130
1829	1.8189e+02	-7.1741	-34.888927	0.000253	2.534374	0.858669	0.000101
1830	1.8199e+02	-7.1356	-34.751664	0.000345	3.446748	1.167790	0.000138
1831	1.8209e+02	-7.0875	-34.626513	0.000314	3.142623	1.064750	0.000126
1832	1.8218e+02	-7.0362	-34.489251	0.000345	3.446748	1.167790	0.000138
1833	1.8228e+02	-7.0073	-34.347951	0.000355	3.548123	1.202137	0.000142
1834	1.8238e+02	-6.9527	-34.214725	0.000335	3.345373	1.133443	0.000134
1835	1.8248e+02	-6.9207	-34.085537	0.000324	3.243998	1.099096	0.000130
1836	1.8258e+02	-6.8886	-33.948274	0.000345	3.446748	1.167790	0.000138
1837	1.8268e+02	-6.8437	-33.831197	0.000294	2.939874	0.996056	0.000118
1838	1.8278e+02	-6.8068	-33.714121	0.000294	2.939874	0.996056	0.000118
1839	1.8288e+02	-6.7650	-33.540524	0.000436	4.359123	1.476911	0.000174
1840	1.8298e+02	-6.7265	-33.447670	0.000233	2.331624	0.789976	0.000093
1841	1.8308e+02	-6.6913	-33.330593	0.000294	2.939874	0.996056	0.000118
1842	1.8318e+02	-6.6479	-33.144884	0.000466	4.663248	1.579951	0.000187
1843	1.8328e+02	-6.6143	-33.035882	0.000274	2.737124	0.927363	0.000110
1844	1.8338e+02	-6.5709	-32.878433	0.000395	3.953623	1.339524	0.000158
1845	1.8348e+02	-6.5260	-32.765394	0.000284	2.838499	0.961709	0.000114
1846	1.8358e+02	-6.4859	-32.652354	0.000284	2.838499	0.961709	0.000114
1847	1.8368e+02	-6.4522	-32.515091	0.000345	3.446748	1.167790	0.000138
1848	1.8378e+02	-6.4137	-32.381866	0.000335	3.345373	1.133443	0.000134
1849	1.8388e+02	-6.3736	-32.240566	0.000355	3.548123	1.202137	0.000142
1850	1.8398e+02	-6.3287	-32.119452	0.000304	3.041248	1.030403	0.000122
1851	1.8407e+02	-6.2854	-31.994301	0.000314	3.142623	1.064750	0.000126
1852	1.8417e+02	-6.2485	-31.861075	0.000335	3.345373	1.133443	0.000134
1853	1.8427e+02	-6.2132	-31.707664	0.000385	3.852248	1.305177	0.000154
1854	1.8437e+02	-6.1731	-31.558290	0.000375	3.750873	1.270830	0.000150
1855	1.8447e+02	-6.1282	-31.449287	0.000274	2.737124	0.927363	0.000110
1856	1.8457e+02	-6.0881	-31.320099	0.000324	3.243998	1.099096	0.000130
1857	1.8467e+02	-6.0560	-31.194948	0.000314	3.142623	1.064750	0.000126
1858	1.8477e+02	-6.0127	-31.033462	0.000405	4.054998	1.373870	0.000162
1859	1.8487e+02	-5.9694	-30.916385	0.000294	2.939874	0.996056	0.000118
1860	1.8497e+02	-5.9325	-30.795271	0.000304	3.041248	1.030403	0.000122
1861	1.8507e+02	-5.8956	-30.674157	0.000304	3.041248	1.030403	0.000122
1862	1.8517e+02	-5.8538	-30.484412	0.000476	4.764623	1.614298	0.000191
1863	1.8527e+02	-5.8153	-30.423855	0.000152	1.520624	0.515201	0.000061
1864	1.8537e+02	-5.7688	-30.221998	0.000507	5.068747	1.717338	0.000203
1865	1.8547e+02	-5.7383	-30.125107	0.000243	2.432999	0.824322	0.000097
1866	1.8557e+02	-5.6854	-29.995919	0.000324	3.243998	1.099096	0.000130
1867	1.8567e+02	-5.6533	-29.870767	0.000314	3.142623	1.064750	0.000126
1868	1.8577e+02	-5.6052	-29.733505	0.000345	3.446748	1.167790	0.000138
1869	1.8587e+02	-5.5763	-29.576056	0.000395	3.953623	1.339524	0.000158
1870	1.8597e+02	-5.5330	-29.446868	0.000324	3.243998	1.099096	0.000130
1871	1.8606e+02	-5.4865	-29.329791	0.000294	2.939874	0.996056	0.000118
1872	1.8616e+02	-5.4496	-29.172343	0.000395	3.953623	1.339524	0.000158
1873	1.8626e+02	-5.4191	-29.031043	0.000355	3.548123	1.202137	0.000142
1874	1.8636e+02	-5.3758	-28.922040	0.000274	2.737124	0.927363	0.000110
1875	1.8646e+02	-5.3389	-28.768629	0.000385	3.852248	1.305177	0.000154
1876	1.8656e+02	-5.2892	-28.631367	0.000345	3.446748	1.167790	0.000138
1877	1.8666e+02	-5.2571	-28.486030	0.000365	3.649498	1.236483	0.000146
1878	1.8676e+02	-5.2154	-28.336656	0.000375	3.750873	1.270830	0.000150
1879	1.8686e+02	-5.1704	-28.211505	0.000314	3.142623	1.064750	0.000126
1880	1.8696e+02	-5.1319	-28.082316	0.000324	3.243998	1.099096	0.000130
1881	1.8706e+02	-5.0934	-27.953128	0.000324	3.243998	1.099096	0.000130
1882	1.8716e+02	-5.0581	-27.803754	0.000375	3.750873	1.270830	0.000150
1883	1.8726e+02	-5.0180	-27.682640	0.000304	3.041248	1.030403	0.000122
1884	1.8736e+02	-4.9667	-27.521154	0.000405	4.054998	1.373870	0.000162
1885	1.8746e+02	-4.9314	-27.379855	0.000355	3.548123	1.202137	0.000142
1886	1.8756e+02	-4.8929	-27.254703	0.000314	3.142623	1.064750	0.000126
1887	1.8766e+02	-4.8576	-27.109366	0.000365	3.649498	1.236483	0.000146
1888	1.8776e+02	-4.8159	-26.959992	0.000375	3.750873	1.270830	0.000150
1889	1.8786e+02	-4.7838	-26.859064	0.000253	2.534374	0.858669	0.000101
1890	1.8796e+02	-4.7309	-26.705653	0.000385	3.852248	1.305177	0.000154
1891	1.8806e+02	-4.7020	-26.540130	0.000416	4.156373	1.408217	0.000166
1892	1.8815e+02	-4.6587	-26.394793	0.000365	3.649498	1.236483	0.000146
1893	1.8825e+02	-4.6154	-26.265605	0.000324	3.243998	1.099096	0.000130
1894	1.8835e+02	-4.5769	-26.140454	0.000314	3.142623	1.064750	0.000126
1895	1.8845e+02	-4.5368	-25.970894	0.000426	4.257748	1.442564	0.000170
1896	1.8855e+02	-4.5047	-25.886114	0.000213	2.128874	0.721282	0.000085
1897	1.8865e+02	-4.4678	-25.724629	0.000405	4.054998	1.373870	0.000162
1898	1.8875e+02	-4.4165	-25.579292	0.000365	3.649498	1.236483	0.000146
1899	1.8885e+02	-4.3715	-25.446067	0.000335	3.345373	1.133443	0.000134
1900	1.8895e+02	-4.3459	-25.328990	0.000294	2.939874	0.996056	0.000118
1901	1.8905e+02	-4.3026	-25.163467	0.000416	4.156373	1.408217	0.000166
1902	1.8915e+02	-4.2576	-25.034279	0.000324	3.243998	1.099096	0.000130
1903	1.8925e+02	-4.2143	-24.884905	0.000375	3.750873	1.270830	0.000150
1904	1.8935e+02	-4.1758	-24.767828	0.000294	2.939874	0.996056	0.000118
1905	1.8945e+02	-4.1389	-24.610379	0.000395	3.953623	1.339524	0.000158
1906	1.8955e+02	-4.1036	-24.456968	0.000385	3.852248	1.305177	0.000154
1907	1.8965e+02	-4.0651	-24.323743	0.000335	3.345373	1.133443	0.000134
1908	1.8975e+02	-4.0250	-24.214740	0.000274	2.737124	0.927363	0.000110
1909	1.8985e+02	-3.9865	-24.045180	0.000426	4.257748	1.442564	0.000170
1910	1.8995e+02	-3.9320	-23.899844	0.000365	3.649498	1.236483	0.000146
1911	1.9004e+02	-3.8951	-23.774692	0.000314	3.142623	1.064750	0.000126
1912	1.9014e+02	-3.8550	-23.580910	0.000487	4.865998	1.648645	0.000195
1913	1.9024e+02	-3.8133	-23.455759	0.000314	3.142623	1.064750	0.000126
1914	1.9034e+02	-3.7860	-23.322533	0.000335	3.345373	1.133443	0.000134
1915	1.9044e+02	-3.7379	-23.181233	0.000355	3.548123	1.202137	0.000142
1916	1.9054e+02	-3.6994	-23.031859	0.000375	3.750873	1.270830	0.000150
1917	1.9064e+02	-3.6657	-22.882485	0.000375	3.750873	1.270830	0.000150
1918	1.9074e+02	-3.6224	-22.716963	0.000416	4.156373	1.408217	0.000166
1919	1.9084e+02	-3.5887	-22.648331	0.000172	1.723374	0.583895	0.000069
1920	1.9094e+02	-3.5293	-22.490883	0.000395	3.953623	1.339524	0.000158
1921	1.9104e+02	-3.5020	-22.337472	0.000385	3.852248	1.305177	0.000154
1922	1.9114e+02	-3.4523	-22.184061	0.000385	3.852248	1.305177	0.000154
1923	1.9124e+02	-3.4250	-22.010464	0.000436	4.359123	1.476911	0.000174
1924	1.9134e+02	-3.3897	-21.901461	0.000274	2.737124	0.927363	0.000110
1925	1.9144e+02	-3.3480	-21.752087	0.000375	3.750873	1.270830	0.000150
1926	1.9154e+02	-3.3079	-21.610788	0.000355	3.548123	1.202137	0.000142
1927	1.9164e+02	-3.2614	-21.485636	0.000314	3.142623	1.064750	0.000126
1928	1.9174e+02	-3.2165	-21.352411	0.000335	3.345373	1.133443	0.000134
1929	1.9184e+02	-3.1812	-21.231297	0.000304	3.041248	1.030403	0.000122
1930	1.9194e+02	-3.1427	-21.065774	0.000416	4.156373	1.408217	0.000166
1931	1.9203e+02	-3.1138	-20.888140	0.000446	4.460498	1.511258	0.000179
1932	1.9213e+02	-3.0641	-20.767026	0.000304	3.041248	1.030403	0.000122
1933	1.9223e+02	-3.0240	-20.641875	0.000314	3.142623	1.064750	0.000126
1934	1.9233e+02	-2.9839	-20.496538	0.000365	3.649498	1.236483	0.000146
1935	1.9243e+02	-2.9390	-20.359276	0.000345	3.446748	1.167790	0.000138
1936	1.9253e+02	-2.9021	-20.213939	0.000365	3.649498	1.236483	0.000146
1937	1.9263e+02	-2.8571	-20.048416	0.000416	4.156373	1.408217	0.000166
1938	1.9273e+02	-2.8283	-19.915191	0.000335	3.345373	1.133443	0.000134
1939	1.9283e+02	-2.7849	-19.773891	0.000355	3.548123	1.202137	0.000142
1940	1.9293e+02	-2.7464	-19.620480	0.000385	3.852248	1.305177	0.000154
1941	1.9303e+02	-2.7047	-19.495328	0.000314	3.142623	1.064750	0.000126
1942	1.9313e+02	-2.6598	-19.321732	0.000436	4.359123	1.476911	0.000174
1943	1.9323e+02	-2.6261	-19.168320	0.000385	3.852248	1.305177	0.000154
1944	1.9333e+02	-2.5844	-19.035095	0.000335	3.345373	1.133443	0.000134
1945	1.9343e+02	-2.5443	-18.909944	0.000314	3.142623	1.064750	0.000126
1946	1.9353e+02	-2.5106	-18.784793	0.000314	3.142623	1.064750	0.000126
1947	1.9363e+02	-2.4609	-18.586973	0.000497	4.967372	1.682991	0.000199
1948	1.9373e+02	-2.4320	-18.453747	0.000335	3.345373	1.133443	0.000134
1949	1.9383e+02	-2.3887	-18.316485	0.000345	3.446748	1.167790	0.000138
1950	1.9393e+02	-2.3486	-18.179222	0.000345	3.446748	1.167790	0.000138
1951	1.9403e+02	-2.3037	-18.025811	0.000385	3.852248	1.305177	0.000154
1952	1.9412e+02	-2.2636	-17.836066	0.000476	4.764623	1.614298	0.000191
1953	1.9422e+02	-2.2299	-17.710914	0.000314	3.142623	1.064750	0.000126
1954	1.9432e+02	-2.1834	-17.593838	0.000294	2.939874	0.996056	0.000118
1955	1.9442e+02	-2.1481	-17.416204	0.000446	4.460498	1.511258	0.000179
1956	1.9452e+02	-2.1080	-17.266830	0.000375	3.750873	1.270830	0.000150
1957	1.9462e+02	-2.0711	-17.137641	0.000324	3.243998	1.099096	0.000130
1958	1.9472e+02	-2.0310	-16.988267	0.000375	3.750873	1.270830	0.000150
1959	1.9482e+02	-1.9892	-16.871190	0.000294	2.939874	0.996056	0.000118
1960	1.9492e+02	-1.9443	-16.665296	0.000517	5.170122	1.751685	0.000207
1961	1.9502e+02	-1.9074	-16.540145	0.000314	3.142623	1.064750	0.000126
1962	1.9512e+02	-1.8705	-16.427105	0.000284	2.838499	0.961709	0.000114
1963	1.9522e+02	-1.8352	-16.261583	0.000416	4.156373	1.408217	0.000166
1964	1.9532e+02	-1.7887	-16.120283	0.000355	3.548123	1.202137	0.000142
1965	1.9542e+02	-1.7582	-15.987058	0.000335	3.345373	1.133443	0.000134
1966	1.9552e+02	-1.7117	-15.821535	0.000416	4.156373	1.408217	0.000166
1967	1.9562e+02	-1.6684	-15.680235	0.000355	3.548123	1.202137	0.000142
1968	1.9572e+02	-1.6219	-15.518750	0.000405	4.054998	1.373870	0.000162
1969	1.9582e+02	-1.5898	-15.401673	0.000294	2.939874	0.996056	0.000118
1970	1.9592e+02	-1.5529	-15.232113	0.000426	4.257748	1.442564	0.000170
1971	1.9601e+02	-1.5128	-15.147333	0.000213	2.128874	0.721282	0.000085
1972	1.9611e+02	-1.4775	-14.965662	0.000456	4.561873	1.545604	0.000183
1973	1.9621e+02	-1.4326	-14.816288	0.000375	3.750873	1.270830	0.000150
1974	1.9631e+02	-1.3909	-14.662877	0.000385	3.852248	1.305177	0.000154
1975	1.9641e+02	-1.3524	-14.501392	0.000405	4.054998	1.373870	0.000162
1976	1.9651e+02	-1.3139	-14.388352	0.000284	2.838499	0.961709	0.000114
1977	1.9661e+02	-1.2689	-14.206681	0.000456	4.561873	1.545604	0.000183
1978	1.9671e+02	-1.2288	-14.113827	0.000233	2.331624	0.789976	0.000093
1979	1.9681e+02	-1.1871	-13.936193	0.000446	4.460498	1.511258	0.000179
1980	1.9691e+02	-1.1518	-13.798930	0.000345	3.446748	1.167790	0.000138
1981	1.9701e+02	-1.1101	-13.653593	0.000365	3.649498	1.236483	0.000146
1982	1.9711e+02	-1.0764	-13.508256	0.000365	3.649498	1.236483	0.000146
1983	1.9721e+02	-1.0235	-13.326585	0.000456	4.561873	1.545604	0.000183
1984	1.9731e+02	-0.9882	-13.209508	0.000294	2.939874	0.996056	0.000118
1985	1.9741e+02	-0.9481	-13.035911	0.000436	4.359123	1.476911	0.000174
1986	1.9751e+02	-0.9032	-12.926909	0.000274	2.737124	0.927363	0.000110
1987	1.9761e+02	-0.8695	-12.721015	0.000517	5.170122	1.751685	0.000207
1988	1.9771e+02	-0.8374	-12.620086	0.000253	2.534374	0.858669	0.000101
1989	1.9781e+02	-0.8005	-12.466675	0.000385	3.852248	1.305177	0.000154
1990	1.9791e+02	-0.7524	-12.276930	0.000476	4.764623	1.614298	0.000191
1991	1.9800e+02	-0.7155	-12.139667	0.000345	3.446748	1.167790	0.000138
1992	1.9810e+02	-0.6706	-12.014516	0.000314	3.142623	1.064750	0.000126
1993	1.9820e+02	-0.6240	-11.861105	0.000385	3.852248	1.305177	0.000154
1994	1.9830e+02	-0.5920	-11.683471	0.000446	4.460498	1.511258	0.000179
1995	1.9840e+02	-0.5503	-11.566394	0.000294	2.939874	0.996056	0.000118
1996	1.9850e+02	-0.5101	-11.396834	0.000426	4.257748	1.442564	0.000170
1997	1.9860e+02	-0.4604	-11.263609	0.000335	3.345373	1.133443	0.000134
1998	1.9870e+02	-0.4364	-11.106160	0.000395	3.953623	1.339524	0.000158
1999	1.9880e+02	-0.3914	-10.964861	0.000355	3.548123	1.202137	0.000142
2000	1.9890e+02	-0.3497	-10.799338	0.000416	4.156373	1.408217	0.000166
2001	1.9900e+02	-0.3096	-10.613630	0.000466	4.663248	1.579951	0.000187
2002	1.9910e+02	-0.2807	-10.520776	0.000233	2.331624	0.789976	0.000093
2003	1.9920e+02	-0.2342	-10.391587	0.000324	3.243998	1.099096	0.000130
2004	1.9930e+02	-0.1973	-10.205879	0.000466	4.663248	1.579951	0.000187
2005	1.9940e+02	-0.1556	-10.048431	0.000395	3.953623	1.339524	0.000158
2006	1.9950e+02	-0.1139	-9.931354	0.000294	2.939874	0.996056	0.000118
2007	1.9960e+02	-0.0658	-9.737571	0.000487	4.865998	1.648645	0.000195
2008	1.9970e+02	-0.0337	-9.608383	0.000324	3.243998	1.099096	0.000130
2009	1.9980e+02	0.0048	-9.438823	0.000324	3.243998	1.099096	0.000170

PMax (uC/cm2):	7.36e+01
Pr (uC/cm2):	3.75e+00
-Pr (uC/cm2):	-4.68e+00
PLoss (uC/cm2):	-4.69e+00
-Vc:	-9.87e-01
C (Max-Eff) (nF):	3.68e-01
K (Eff):	1.25e+03
Vert. (+/-Pr) Shift (uC/cm2):	-4.69e-01
Offset (uC/cm2):	4.76e+00

A (Loop Area - uC/cm2·Volts):	3.27e-02



Hysteresis Version: 5.48.1 - Radiant Technologies, Inc., 1999 - 9/12/24

