»»»»»»»»»»»»»»»»»»»»»»»»»»»»»»»»»»»» Hysteresis ««««««««««««««««««««««««««««««««««««
»»»  Executed Version:	5.48.1
»»»  Vision Version:	5.48.4 (R)
»»»  Vision Compiled:	9/18/24
»»»  Driver Version:	5.47.0
»»»  Windows Version:	Windows 8 or 8.1
»»»  Processor Information:	x86 (AMD or Intel) - 32 Processors
»»»  Tester Name:	PMF21124-494 (100V)
»»»  Tester S/N:	PMF21124-494
»»»  Internal Amp Type:	100V RevK 270k
»»»  Internal Amp S/N:	iAB2-596/K     
»»»  Execution Count:	1
»»»»»»»»»»»»»»»»»»»»»»»»»»»»»»»»»»»»»»»»»»««««««««««««««««««««««««««««««««««««««««««

Stored:	6/19/2025 - 19:0:34
Configured:	06/19/25 10:04:32 AM
Executed:	06/19/25 06:59:20 PM

»»»»»»»»»»»»»»»»»»»»»»»»»»»»»»»»»»» Sample Info ««««««««««««««««««««««««««««««««««««
Sample Name:	
Lot Name:	
Wafer Name:	
Die Row/Column:	0/0
Capacitor Number:	0
Sample Area (cm2):	1.00e-04
Sample Thickness (microns):	3.00e-01

Amplifier:	Internal

»»»»»»»»»»»»»»»»»»»»»»»»»»»»»»»»»»» Tester Info «««««««««««««««««««««««««««««««««««
Tester Name:	PMF21124-494 (100V)
Tester Serial Number:	PMF21124-494
Return Signal Amp. Level:	0.2 [Index: 1]

»»»»»»»»»»»»»»»»»»»»»»»»»»»»»»»» Hysteresis Info ««««««««««««««««««««««««««««««««««
Task Name:	Hyst-1168
Volts:	20.00
Field:	666.67 (kV/cm)
DCBias:	0.00
DCField:	0.00 (kV/cm)
Hysteresis Period (ms):	1.00e-02
Preset:	Enabled
Preset Delay (ms):	1.00e+03
Profile:	Standard Bipolar

»»»»»»»»»»»»»»»»»»»»»»»»»»»»»»»»»»»»»» Data «««««««««««««««««««««««««««««««««««««««
Points:	101

Valid Data

Point	Time (ms)	Drive Voltage	Measured Polarization (uC/cm2)	Capacitance (uF)	Normalized Capacitance (uF/cm2)	Dielectric Constant	Instantaneous Current (mA)
   1	0.0000e+00	0.0802	-4.940644	0.000045	0.452457	0.153296	0.356804
   2	1.0000e-04	0.6144	-4.583840	0.000045	0.452457	0.153296	0.356804
   3	2.0000e-04	1.5224	-0.527924	0.000514	5.143232	1.742574	4.055915
   4	3.0000e-04	2.1609	3.582604	0.000521	5.212486	1.766038	4.110528
   5	4.0000e-04	3.0641	5.377547	0.000228	2.276134	0.771175	1.794943
   6	5.0000e-04	3.8293	7.718618	0.000297	2.968670	1.005813	2.341071
   7	6.0000e-04	4.6041	11.126461	0.000432	4.321423	1.464138	3.407843
   8	7.0000e-04	5.3918	13.959048	0.000359	3.591952	1.216986	2.832587
   9	8.0000e-04	6.2148	16.660565	0.000343	3.425744	1.160673	2.701516
  10	9.0000e-04	7.0346	19.555047	0.000367	3.670440	1.243579	2.894482
  11	1.0000e-03	7.8030	22.835459	0.000416	4.159831	1.409389	3.280413
  12	1.1000e-03	8.6131	25.333088	0.000317	3.167197	1.073075	2.497628
  13	1.2000e-03	9.4104	28.249415	0.000370	3.698141	1.252964	2.916327
  14	1.3000e-03	10.1708	31.216714	0.000376	3.762778	1.274864	2.967299
  15	1.4000e-03	11.0082	34.005611	0.000354	3.536549	1.198215	2.788897
  16	1.5000e-03	11.8200	36.816353	0.000356	3.564251	1.207601	2.810742
  17	1.6000e-03	12.5852	39.688990	0.000364	3.642738	1.234193	2.872637
  18	1.7000e-03	13.4130	42.780078	0.000392	3.919752	1.328048	3.091088
  19	1.8000e-03	14.1910	45.488876	0.000343	3.434977	1.163802	2.708798
  20	1.9000e-03	14.9996	47.924610	0.000309	3.088709	1.046483	2.435734
  21	2.0000e-03	15.8033	50.895550	0.000377	3.767395	1.276428	2.970940
  22	2.1000e-03	16.6022	53.651679	0.000349	3.494997	1.184137	2.756129
  23	2.2000e-03	17.4252	56.211202	0.000325	3.245684	1.099668	2.559523
  24	2.3000e-03	18.2016	58.814415	0.000330	3.301087	1.118439	2.603213
  25	2.4000e-03	19.0214	61.501368	0.000341	3.407276	1.154416	2.686953
  26	2.5000e-03	19.8043	64.173758	0.000339	3.388808	1.148159	2.672390
  27	2.6000e-03	19.5684	65.793939	-0.000205	-2.054523	-0.696091	1.620182
  28	2.7000e-03	18.4583	61.144564	0.000590	5.895788	1.997547	-4.649375
  29	2.8000e-03	17.9032	55.996391	0.000653	6.528304	2.211849	-5.148173
  30	2.9000e-03	16.9391	55.719686	0.000035	0.350885	0.118883	-0.276705
  31	3.0000e-03	16.2011	53.917462	0.000229	2.285368	0.774304	-1.802225
  32	3.1000e-03	15.5033	50.647971	0.000415	4.145981	1.404696	-3.269490
  33	3.2000e-03	14.6081	47.542320	0.000394	3.938220	1.334305	-3.105652
  34	3.3000e-03	13.8702	45.576257	0.000249	2.493129	0.844695	-1.966063
  35	3.4000e-03	12.9766	42.805564	0.000351	3.513465	1.190394	-2.770693
  36	3.5000e-03	12.3317	39.692631	0.000395	3.947454	1.337434	-3.112933
  37	3.6000e-03	11.4558	37.588215	0.000267	2.668571	0.904136	-2.104416
  38	3.7000e-03	10.6200	34.693733	0.000367	3.670440	1.243579	-2.894482
  39	3.8000e-03	9.8692	31.879350	0.000357	3.568868	1.209165	-2.814383
  40	3.9000e-03	9.0415	29.134143	0.000348	3.481146	1.179444	-2.745207
  41	4.0000e-03	8.2506	26.334324	0.000355	3.550400	1.202908	-2.799820
  42	4.1000e-03	7.4436	23.523582	0.000356	3.564251	1.207601	-2.810742
  43	4.2000e-03	6.6191	20.465261	0.000388	3.878200	1.313970	-3.058320
  44	4.3000e-03	5.8972	17.446990	0.000383	3.827414	1.296763	-3.018271
  45	4.4000e-03	5.0598	15.033101	0.000306	3.061008	1.037098	-2.413889
  46	4.5000e-03	4.2416	11.887400	0.000399	3.989006	1.351512	-3.145701
  47	4.6000e-03	3.4571	9.007482	0.000365	3.651972	1.237322	-2.879918
  48	4.7000e-03	2.6486	6.123923	0.000366	3.656589	1.238886	-2.883559
  49	4.8000e-03	1.8721	3.178469	0.000374	3.735076	1.265478	-2.945454
  50	4.9000e-03	1.0508	0.313114	0.000363	3.633504	1.231065	-2.865355
  51	5.0000e-03	0.2358	-2.785256	0.000393	3.928986	1.331177	-3.098370
  52	5.1000e-03	-0.5150	-5.574153	0.000354	3.536549	1.198215	-2.788897
  53	5.2000e-03	-1.3187	-8.304796	0.000346	3.462679	1.173187	-2.730643
  54	5.3000e-03	-2.1400	-11.119179	0.000357	3.568868	1.209165	-2.814383
  55	5.4000e-03	-2.9470	-14.119246	0.000380	3.804330	1.288942	-3.000067
  56	5.5000e-03	-3.7571	-16.802558	0.000340	3.402659	1.152852	-2.683312
  57	5.6000e-03	-4.5384	-19.744371	0.000373	3.730459	1.263914	-2.941813
  58	5.7000e-03	-5.3469	-22.249281	0.000318	3.176431	1.076204	-2.504910
  59	5.8000e-03	-6.1635	-24.943516	0.000342	3.416510	1.157545	-2.694235
  60	5.9000e-03	-6.9832	-27.670518	0.000346	3.458062	1.171623	-2.727002
  61	6.0000e-03	-7.7452	-30.484901	0.000357	3.568868	1.209165	-2.814383
  62	6.1000e-03	-8.5490	-32.683980	0.000279	2.788611	0.944807	-2.199078
  63	6.2000e-03	-9.3607	-35.148840	0.000313	3.125645	1.058997	-2.464861
  64	6.3000e-03	-10.1692	-37.784821	0.000334	3.342639	1.132517	-2.635981
  65	6.4000e-03	-10.9746	-40.195069	0.000306	3.056391	1.035533	-2.410248
  66	6.5000e-03	-11.7638	-42.408710	0.000281	2.807078	0.951064	-2.213641
  67	6.6000e-03	-12.5660	-44.979156	0.000326	3.259535	1.104360	-2.570446
  68	6.7000e-03	-13.4274	-47.327509	0.000298	2.977904	1.008941	-2.348353
  69	6.8000e-03	-14.1525	-49.592123	0.000287	2.871715	0.972963	-2.264613
  70	6.9000e-03	-14.9675	-51.656489	0.000262	2.617785	0.886930	-2.064366
  71	7.0000e-03	-15.7824	-54.059455	0.000305	3.047157	1.032405	-2.402966
  72	7.1000e-03	-16.5573	-56.324069	0.000287	2.871715	0.972963	-2.264613
  73	7.2000e-03	-17.3915	-58.352026	0.000257	2.571616	0.871287	-2.027958
  74	7.3000e-03	-18.1615	-60.139687	0.000227	2.266900	0.768047	-1.787661
  75	7.4000e-03	-18.9877	-62.386097	0.000285	2.848630	0.965142	-2.246409
  76	7.5000e-03	-19.7738	-64.632506	0.000285	2.848630	0.965142	-2.246409
  77	7.6000e-03	-19.4866	-65.793939	-0.000147	-1.472793	-0.498996	-1.161434
  78	7.7000e-03	-18.4150	-60.835091	0.000629	6.288225	2.130508	4.958848
  79	7.8000e-03	-17.7476	-58.027990	0.000356	3.559634	1.206037	2.807101
  80	7.9000e-03	-16.8477	-58.435766	-0.000052	-0.517093	-0.175196	-0.407776
  81	8.0000e-03	-16.1691	-56.040082	0.000304	3.037924	1.029276	2.395684
  82	8.1000e-03	-15.3589	-53.294875	0.000348	3.481146	1.179444	2.745207
  83	8.2000e-03	-14.5119	-51.288762	0.000254	2.543915	0.861902	2.006113
  84	8.3000e-03	-13.7354	-49.657658	0.000207	2.068373	0.700784	1.631104
  85	8.4000e-03	-12.9189	-47.090853	0.000325	3.254918	1.102796	2.566805
  86	8.5000e-03	-12.1665	-44.651479	0.000309	3.093326	1.048047	2.439375
  87	8.6000e-03	-11.3516	-42.914790	0.000220	2.202264	0.746147	1.736689
  88	8.7000e-03	-10.5510	-40.373471	0.000322	3.222600	1.091846	2.541319
  89	8.8000e-03	-9.7585	-38.152548	0.000282	2.816312	0.954192	2.220923
  90	8.9000e-03	-8.9628	-35.785990	0.000300	3.000988	1.016762	2.366558
  91	9.0000e-03	-8.1399	-33.528659	0.000286	2.862481	0.969835	2.257332
  92	9.1000e-03	-7.3650	-30.965495	0.000325	3.250301	1.101232	2.563164
  93	9.2000e-03	-6.5437	-28.271260	0.000342	3.416510	1.157545	2.694235
  94	9.3000e-03	-5.7945	-25.842808	0.000308	3.079476	1.043355	2.428452
  95	9.4000e-03	-4.9651	-23.392511	0.000311	3.107177	1.052740	2.450297
  96	9.5000e-03	-4.1678	-20.774734	0.000332	3.319555	1.124696	2.617777
  97	9.6000e-03	-3.3833	-17.792872	0.000378	3.781245	1.281121	2.981862
  98	9.7000e-03	-2.5620	-15.353497	0.000309	3.093326	1.048047	2.439375
  99	9.8000e-03	-1.7823	-12.524550	0.000359	3.587335	1.215422	2.828946
 100	9.9000e-03	-0.9930	-9.819393	0.000343	3.430360	1.162238	2.705157
 101	1.0000e-02	-0.2166	-7.157926	0.000343	3.430360	1.162238	2.661467

PMax (uC/cm2):	6.91e+01
Pr (uC/cm2):	1.28e+00
-Pr (uC/cm2):	-2.22e+00
PLoss (uC/cm2):	-2.22e+00
-Vc:	-3.44e-01
C (Max-Eff) (nF):	3.49e-01
K (Eff):	1.18e+03
Vert. (+/-Pr) Shift (uC/cm2):	-4.69e-01
Offset (uC/cm2):	4.94e+00

A (Loop Area - uC/cm2·Volts):	-7.14e-01



Hysteresis Version: 5.48.1 - Radiant Technologies, Inc., 1999 - 9/12/24

