»»»»»»»»»»»»»»»»»»»»»»»»»»»»»»»»»»»» Hysteresis ««««««««««««««««««««««««««««««««««««
»»»  Executed Version:	5.48.1
»»»  Vision Version:	5.48.4 (R)
»»»  Vision Compiled:	9/18/24
»»»  Driver Version:	5.47.0
»»»  Windows Version:	Windows 8 or 8.1
»»»  Processor Information:	x86 (AMD or Intel) - 32 Processors
»»»  Tester Name:	PMF21124-494 (100V)
»»»  Tester S/N:	PMF21124-494
»»»  Internal Amp Type:	100V RevK 270k
»»»  Internal Amp S/N:	iAB2-596/K     
»»»  Execution Count:	1
»»»»»»»»»»»»»»»»»»»»»»»»»»»»»»»»»»»»»»»»»»««««««««««««««««««««««««««««««««««««««««««

Stored:	6/19/2025 - 19:2:32
Configured:	06/19/25 10:04:32 AM
Executed:	06/19/25 07:02:03 PM

»»»»»»»»»»»»»»»»»»»»»»»»»»»»»»»»»»» Sample Info ««««««««««««««««««««««««««««««««««««
Sample Name:	
Lot Name:	
Wafer Name:	
Die Row/Column:	0/0
Capacitor Number:	0
Sample Area (cm2):	1.00e-04
Sample Thickness (microns):	3.00e-01

Amplifier:	Internal

»»»»»»»»»»»»»»»»»»»»»»»»»»»»»»»»»»» Tester Info «««««««««««««««««««««««««««««««««««
Tester Name:	PMF21124-494 (100V)
Tester Serial Number:	PMF21124-494
Return Signal Amp. Level:	0.19 [Index: 3]

»»»»»»»»»»»»»»»»»»»»»»»»»»»»»»»» Hysteresis Info ««««««««««««««««««««««««««««««««««
Task Name:	Hyst-1168
Volts:	20.00
Field:	666.67 (kV/cm)
DCBias:	0.00
DCField:	0.00 (kV/cm)
Hysteresis Period (ms):	2.00e+02
Preset:	Enabled
Preset Delay (ms):	1.00e+03
Profile:	Standard Bipolar

»»»»»»»»»»»»»»»»»»»»»»»»»»»»»»»»»»»»»» Data «««««««««««««««««««««««««««««««««««««««
Points:	2009

Valid Data

Point	Time (ms)	Drive Voltage	Measured Polarization (uC/cm2)	Capacitance (uF)	Normalized Capacitance (uF/cm2)	Dielectric Constant	Instantaneous Current (mA)
   1	0.0000e+00	0.0096	-5.377465	0.000314	3.143569	1.065070	0.000126
   2	9.9500e-02	0.0321	-5.252314	0.000314	3.143569	1.065070	0.000126
   3	1.9900e-01	0.0770	-5.106977	0.000365	3.650597	1.236856	0.000146
   4	2.9850e-01	0.1203	-4.997974	0.000274	2.737948	0.927642	0.000110
   5	3.9800e-01	0.1588	-4.848600	0.000375	3.752002	1.271213	0.000150
   6	4.9750e-01	0.1957	-4.711337	0.000345	3.447786	1.168141	0.000138
   7	5.9700e-01	0.2438	-4.553889	0.000395	3.954813	1.339927	0.000158
   8	6.9650e-01	0.2775	-4.420664	0.000335	3.346380	1.133784	0.000134
   9	7.9600e-01	0.3080	-4.327810	0.000233	2.332326	0.790213	0.000093
  10	8.9550e-01	0.3561	-4.134027	0.000487	4.867462	1.649141	0.000195
  11	9.9500e-01	0.4011	-3.996764	0.000345	3.447786	1.168141	0.000138
  12	1.0945e+00	0.4364	-3.839316	0.000395	3.954813	1.339927	0.000158
  13	1.1940e+00	0.4829	-3.726276	0.000284	2.839353	0.961999	0.000114
  14	1.2935e+00	0.5166	-3.544605	0.000456	4.563246	1.546070	0.000183
  15	1.3930e+00	0.5567	-3.447714	0.000243	2.433731	0.824570	0.000097
  16	1.4925e+00	0.5904	-3.298340	0.000375	3.752002	1.271213	0.000150
  17	1.5920e+00	0.6321	-3.124743	0.000436	4.360435	1.477355	0.000174
  18	1.6915e+00	0.6674	-2.979406	0.000365	3.650597	1.236856	0.000146
  19	1.7910e+00	0.7187	-2.882515	0.000243	2.433731	0.824570	0.000097
  20	1.8905e+00	0.7636	-2.733141	0.000375	3.752002	1.271213	0.000150
  21	1.9900e+00	0.7925	-2.591841	0.000355	3.549191	1.202499	0.000142
  22	2.0895e+00	0.8262	-2.442467	0.000375	3.752002	1.271213	0.000150
  23	2.1890e+00	0.8727	-2.280982	0.000406	4.056219	1.374284	0.000162
  24	2.2885e+00	0.9208	-2.176016	0.000264	2.636542	0.893285	0.000105
  25	2.3880e+00	0.9529	-2.038754	0.000345	3.447786	1.168141	0.000138
  26	2.4875e+00	0.9978	-1.877268	0.000406	4.056219	1.374284	0.000162
  27	2.5870e+00	1.0347	-1.727894	0.000375	3.752002	1.271213	0.000150
  28	2.6865e+00	1.0652	-1.602743	0.000314	3.143569	1.065070	0.000126
  29	2.7860e+00	1.1198	-1.461443	0.000355	3.549191	1.202499	0.000142
  30	2.8855e+00	1.1567	-1.308032	0.000385	3.853408	1.305570	0.000154
  31	2.9850e+00	1.1935	-1.182881	0.000314	3.143569	1.065070	0.000126
  32	3.0845e+00	1.2337	-1.069841	0.000284	2.839353	0.961999	0.000114
  33	3.1840e+00	1.2754	-0.892207	0.000446	4.461840	1.511712	0.000179
  34	3.2835e+00	1.3155	-0.746870	0.000365	3.650597	1.236856	0.000146
  35	3.3830e+00	1.3476	-0.625756	0.000304	3.042164	1.030713	0.000122
  36	3.4825e+00	1.3941	-0.488493	0.000345	3.447786	1.168141	0.000138
  37	3.5820e+00	1.4358	-0.327008	0.000406	4.056219	1.374284	0.000162
  38	3.6815e+00	1.4775	-0.213968	0.000284	2.839353	0.961999	0.000114
  39	3.7810e+00	1.5208	-0.048446	0.000416	4.157624	1.408641	0.000166
  40	3.8805e+00	1.5545	0.084780	0.000335	3.346380	1.133784	0.000134
  41	3.9800e+00	1.5930	0.193783	0.000274	2.737948	0.927642	0.000110
  42	4.0795e+00	1.6299	0.363342	0.000426	4.259029	1.442998	0.000170
  43	4.1790e+00	1.6812	0.532902	0.000426	4.259029	1.442998	0.000170
  44	4.2785e+00	1.7053	0.617682	0.000213	2.129515	0.721499	0.000085
  45	4.3780e+00	1.7550	0.815501	0.000497	4.968868	1.683498	0.000199
  46	4.4775e+00	1.7903	0.956801	0.000355	3.549191	1.202499	0.000142
  47	4.5770e+00	1.8417	1.085990	0.000324	3.244975	1.099427	0.000130
  48	4.6765e+00	1.8641	1.267661	0.000456	4.563246	1.546070	0.000183
  49	4.7760e+00	1.9235	1.356478	0.000223	2.230920	0.755856	0.000089
  50	4.8755e+00	1.9572	1.489703	0.000335	3.346380	1.133784	0.000134
  51	4.9750e+00	1.9892	1.679448	0.000477	4.766057	1.614784	0.000191
  52	5.0745e+00	2.0342	1.849008	0.000426	4.259029	1.442998	0.000170
  53	5.1740e+00	2.0711	1.941862	0.000233	2.332326	0.790213	0.000093
  54	5.2735e+00	2.1048	2.095273	0.000385	3.853408	1.305570	0.000154
  55	5.3730e+00	2.1384	2.208313	0.000284	2.839353	0.961999	0.000114
  56	5.4725e+00	2.1930	2.430356	0.000558	5.577300	1.889641	0.000223
  57	5.5720e+00	2.2219	2.519173	0.000223	2.230920	0.755856	0.000089
  58	5.6715e+00	2.2716	2.680658	0.000406	4.056219	1.374284	0.000162
  59	5.7710e+00	2.3037	2.821958	0.000355	3.549191	1.202499	0.000142
  60	5.8705e+00	2.3550	2.967295	0.000365	3.650597	1.236856	0.000146
  61	5.9700e+00	2.3903	3.124743	0.000395	3.954813	1.339927	0.000158
  62	6.0695e+00	2.4304	3.322563	0.000497	4.968868	1.683498	0.000199
  63	6.1690e+00	2.4609	3.419454	0.000243	2.433731	0.824570	0.000097
  64	6.2685e+00	2.5090	3.576902	0.000395	3.954813	1.339927	0.000158
  65	6.3680e+00	2.5459	3.706091	0.000324	3.244975	1.099427	0.000130
  66	6.4675e+00	2.5924	3.875650	0.000426	4.259029	1.442998	0.000170
  67	6.5670e+00	2.6213	4.008876	0.000335	3.346380	1.133784	0.000134
  68	6.6665e+00	2.6662	4.150176	0.000355	3.549191	1.202499	0.000142
  69	6.7660e+00	2.7015	4.299550	0.000375	3.752002	1.271213	0.000150
  70	6.8655e+00	2.7513	4.452961	0.000385	3.853408	1.305570	0.000154
  71	6.9650e+00	2.7914	4.582149	0.000324	3.244975	1.099427	0.000130
  72	7.0645e+00	2.8251	4.743634	0.000406	4.056219	1.374284	0.000162
  73	7.1640e+00	2.8603	4.868786	0.000314	3.143569	1.065070	0.000126
  74	7.2635e+00	2.9069	5.058531	0.000477	4.766057	1.614784	0.000191
  75	7.3630e+00	2.9390	5.191757	0.000335	3.346380	1.133784	0.000134
  76	7.4625e+00	2.9855	5.341131	0.000375	3.752002	1.271213	0.000150
  77	7.5620e+00	3.0224	5.474356	0.000335	3.346380	1.133784	0.000134
  78	7.6615e+00	3.0657	5.627767	0.000385	3.853408	1.305570	0.000154
  79	7.7610e+00	3.1058	5.785216	0.000395	3.954813	1.339927	0.000158
  80	7.8605e+00	3.1411	5.914404	0.000324	3.244975	1.099427	0.000130
  81	7.9600e+00	3.1844	6.039555	0.000314	3.143569	1.065070	0.000126
  82	8.0595e+00	3.2245	6.209115	0.000426	4.259029	1.442998	0.000170
  83	8.1590e+00	3.2662	6.362526	0.000385	3.853408	1.305570	0.000154
  84	8.2585e+00	3.3063	6.532086	0.000426	4.259029	1.442998	0.000170
  85	8.3580e+00	3.3432	6.624940	0.000233	2.332326	0.790213	0.000093
  86	8.4575e+00	3.3865	6.782388	0.000395	3.954813	1.339927	0.000158
  87	8.5570e+00	3.4186	6.895428	0.000284	2.839353	0.961999	0.000114
  88	8.6565e+00	3.4603	7.056913	0.000406	4.056219	1.374284	0.000162
  89	8.7560e+00	3.4956	7.266844	0.000527	5.273084	1.786569	0.000211
  90	8.8555e+00	3.5470	7.383921	0.000294	2.940758	0.996356	0.000118
  91	8.9550e+00	3.5839	7.484850	0.000254	2.535137	0.858928	0.000101
  92	9.0545e+00	3.6256	7.646335	0.000406	4.056219	1.374284	0.000162
  93	9.1540e+00	3.6593	7.819932	0.000436	4.360435	1.477355	0.000174
  94	9.2535e+00	3.6978	7.985454	0.000416	4.157624	1.408641	0.000166
  95	9.3530e+00	3.7475	8.138866	0.000385	3.853408	1.305570	0.000154
  96	9.4525e+00	3.7844	8.255943	0.000294	2.940758	0.996356	0.000118
  97	9.5520e+00	3.8197	8.405317	0.000375	3.752002	1.271213	0.000150
  98	9.6515e+00	3.8598	8.554691	0.000375	3.752002	1.271213	0.000150
  99	9.7510e+00	3.8999	8.724250	0.000426	4.259029	1.442998	0.000170
 100	9.8505e+00	3.9464	8.857476	0.000335	3.346380	1.133784	0.000134
 101	9.9500e+00	3.9785	9.043184	0.000466	4.664651	1.580427	0.000187
 102	1.0050e+01	4.0282	9.140075	0.000243	2.433731	0.824570	0.000097
 103	1.0149e+01	4.0635	9.309635	0.000426	4.259029	1.442998	0.000170
 104	1.0248e+01	4.1052	9.471120	0.000406	4.056219	1.374284	0.000162
 105	1.0348e+01	4.1437	9.592235	0.000304	3.042164	1.030713	0.000122
 106	1.0447e+01	4.1822	9.749683	0.000395	3.954813	1.339927	0.000158
 107	1.0547e+01	4.2272	9.890983	0.000355	3.549191	1.202499	0.000142
 108	1.0646e+01	4.2624	10.060542	0.000426	4.259029	1.442998	0.000170
 109	1.0746e+01	4.3026	10.262399	0.000507	5.070273	1.717855	0.000203
 110	1.0845e+01	4.3459	10.379476	0.000294	2.940758	0.996356	0.000118
 111	1.0945e+01	4.3876	10.504627	0.000314	3.143569	1.065070	0.000126
 112	1.1044e+01	4.4213	10.678224	0.000436	4.360435	1.477355	0.000174
 113	1.1144e+01	4.4566	10.843747	0.000416	4.157624	1.408641	0.000166
 114	1.1243e+01	4.5127	11.021381	0.000446	4.461840	1.511712	0.000179
 115	1.1343e+01	4.5352	11.162680	0.000355	3.549191	1.202499	0.000142
 116	1.1443e+01	4.5785	11.324166	0.000406	4.056219	1.374284	0.000162
 117	1.1542e+01	4.6266	11.449317	0.000314	3.143569	1.065070	0.000126
 118	1.1642e+01	4.6603	11.610802	0.000406	4.056219	1.374284	0.000162
 119	1.1741e+01	4.6924	11.764214	0.000385	3.853408	1.305570	0.000154
 120	1.1841e+01	4.7309	11.917625	0.000385	3.853408	1.305570	0.000154
 121	1.1940e+01	4.7790	12.046813	0.000324	3.244975	1.099427	0.000130
 122	1.2040e+01	4.8079	12.244633	0.000497	4.968868	1.683498	0.000199
 123	1.2139e+01	4.8576	12.345561	0.000254	2.535137	0.858928	0.000101
 124	1.2239e+01	4.8977	12.519158	0.000436	4.360435	1.477355	0.000174
 125	1.2338e+01	4.9314	12.716978	0.000497	4.968868	1.683498	0.000199
 126	1.2438e+01	4.9876	12.838092	0.000304	3.042164	1.030713	0.000122
 127	1.2537e+01	5.0196	12.987466	0.000375	3.752002	1.271213	0.000150
 128	1.2636e+01	5.0646	13.116654	0.000324	3.244975	1.099427	0.000130
 129	1.2736e+01	5.0983	13.310437	0.000487	4.867462	1.649141	0.000195
 130	1.2835e+01	5.1335	13.447699	0.000345	3.447786	1.168141	0.000138
 131	1.2935e+01	5.1720	13.560739	0.000284	2.839353	0.961999	0.000114
 132	1.3034e+01	5.2186	13.742410	0.000456	4.563246	1.546070	0.000183
 133	1.3134e+01	5.2555	13.903895	0.000406	4.056219	1.374284	0.000162
 134	1.3233e+01	5.2988	14.037121	0.000335	3.346380	1.133784	0.000134
 135	1.3333e+01	5.3405	14.150161	0.000284	2.839353	0.961999	0.000114
 136	1.3432e+01	5.3838	14.380277	0.000578	5.780111	1.958355	0.000231
 137	1.3532e+01	5.4223	14.505429	0.000314	3.143569	1.065070	0.000126
 138	1.3632e+01	5.4560	14.626543	0.000304	3.042164	1.030713	0.000122
 139	1.3731e+01	5.5041	14.800140	0.000436	4.360435	1.477355	0.000174
 140	1.3831e+01	5.5394	14.961625	0.000406	4.056219	1.374284	0.000162
 141	1.3930e+01	5.5811	15.106962	0.000365	3.650597	1.236856	0.000146
 142	1.4030e+01	5.6132	15.240187	0.000335	3.346380	1.133784	0.000134
 143	1.4129e+01	5.6533	15.409747	0.000426	4.259029	1.442998	0.000170
 144	1.4229e+01	5.6854	15.563158	0.000385	3.853408	1.305570	0.000154
 145	1.4328e+01	5.7432	15.712532	0.000375	3.752002	1.271213	0.000150
 146	1.4428e+01	5.7656	15.869981	0.000395	3.954813	1.339927	0.000158
 147	1.4527e+01	5.8186	15.999169	0.000324	3.244975	1.099427	0.000130
 148	1.4627e+01	5.8442	16.156617	0.000395	3.954813	1.339927	0.000158
 149	1.4726e+01	5.8956	16.330214	0.000436	4.360435	1.477355	0.000174
 150	1.4825e+01	5.9357	16.499774	0.000426	4.259029	1.442998	0.000170
 151	1.4925e+01	5.9726	16.600702	0.000254	2.535137	0.858928	0.000101
 152	1.5024e+01	6.0175	16.750076	0.000375	3.752002	1.271213	0.000150
 153	1.5124e+01	6.0528	16.903487	0.000385	3.853408	1.305570	0.000154
 154	1.5223e+01	6.0993	17.060936	0.000395	3.954813	1.339927	0.000158
 155	1.5323e+01	6.1314	17.210310	0.000375	3.752002	1.271213	0.000150
 156	1.5422e+01	6.1715	17.355647	0.000365	3.650597	1.236856	0.000146
 157	1.5522e+01	6.2116	17.492909	0.000345	3.447786	1.168141	0.000138
 158	1.5621e+01	6.2549	17.662469	0.000426	4.259029	1.442998	0.000170
 159	1.5721e+01	6.2918	17.832029	0.000426	4.259029	1.442998	0.000170
 160	1.5820e+01	6.3335	18.001588	0.000426	4.259029	1.442998	0.000170
 161	1.5920e+01	6.3752	18.130777	0.000324	3.244975	1.099427	0.000130
 162	1.6020e+01	6.4185	18.272076	0.000355	3.549191	1.202499	0.000142
 163	1.6119e+01	6.4570	18.425488	0.000385	3.853408	1.305570	0.000154
 164	1.6218e+01	6.4987	18.599084	0.000436	4.360435	1.477355	0.000174
 165	1.6318e+01	6.5308	18.708087	0.000274	2.737948	0.927642	0.000110
 166	1.6418e+01	6.5709	18.926092	0.000548	5.475895	1.855283	0.000219
 167	1.6517e+01	6.6062	19.018946	0.000233	2.332326	0.790213	0.000093
 168	1.6616e+01	6.6560	19.200618	0.000456	4.563246	1.546070	0.000183
 169	1.6716e+01	6.6897	19.329806	0.000324	3.244975	1.099427	0.000130
 170	1.6816e+01	6.7426	19.479180	0.000375	3.752002	1.271213	0.000150
 171	1.6915e+01	6.7747	19.660851	0.000456	4.563246	1.546070	0.000183
 172	1.7015e+01	6.8084	19.794077	0.000335	3.346380	1.133784	0.000134
 173	1.7114e+01	6.8485	19.931339	0.000345	3.447786	1.168141	0.000138
 174	1.7213e+01	6.8918	20.113010	0.000456	4.563246	1.546070	0.000183
 175	1.7313e+01	6.9255	20.222013	0.000274	2.737948	0.927642	0.000110
 176	1.7413e+01	6.9768	20.391573	0.000426	4.259029	1.442998	0.000170
 177	1.7512e+01	7.0121	20.544984	0.000385	3.853408	1.305570	0.000154
 178	1.7611e+01	7.0410	20.690321	0.000365	3.650597	1.236856	0.000146
 179	1.7711e+01	7.0859	20.835658	0.000365	3.650597	1.236856	0.000146
 180	1.7811e+01	7.1308	21.001180	0.000416	4.157624	1.408641	0.000166
 181	1.7910e+01	7.1661	21.170740	0.000426	4.259029	1.442998	0.000170
 182	1.8009e+01	7.2110	21.283780	0.000284	2.839353	0.961999	0.000114
 183	1.8109e+01	7.2495	21.437191	0.000385	3.853408	1.305570	0.000154
 184	1.8209e+01	7.2928	21.602713	0.000416	4.157624	1.408641	0.000166
 185	1.8308e+01	7.3233	21.780347	0.000446	4.461840	1.511712	0.000179
 186	1.8407e+01	7.3602	21.897424	0.000294	2.940758	0.996356	0.000118
 187	1.8507e+01	7.4100	22.066984	0.000426	4.259029	1.442998	0.000170
 188	1.8607e+01	7.4485	22.184061	0.000294	2.940758	0.996356	0.000118
 189	1.8706e+01	7.4934	22.341509	0.000395	3.954813	1.339927	0.000158
 190	1.8805e+01	7.5271	22.466660	0.000314	3.143569	1.065070	0.000126
 191	1.8905e+01	7.5656	22.660443	0.000487	4.867462	1.649141	0.000195
 192	1.9005e+01	7.6025	22.797706	0.000345	3.447786	1.168141	0.000138
 193	1.9104e+01	7.6602	22.910745	0.000284	2.839353	0.961999	0.000114
 194	1.9203e+01	7.6939	23.116639	0.000517	5.171679	1.752212	0.000207
 195	1.9303e+01	7.7324	23.233716	0.000294	2.940758	0.996356	0.000118
 196	1.9402e+01	7.7677	23.370979	0.000345	3.447786	1.168141	0.000138
 197	1.9502e+01	7.8062	23.524390	0.000385	3.853408	1.305570	0.000154
 198	1.9602e+01	7.8511	23.653578	0.000324	3.244975	1.099427	0.000130
 199	1.9701e+01	7.8848	23.835249	0.000456	4.563246	1.546070	0.000183
 200	1.9800e+01	7.9281	23.920029	0.000213	2.129515	0.721499	0.000085
 201	1.9900e+01	7.9698	24.113812	0.000487	4.867462	1.649141	0.000195
 202	2.0000e+01	8.0083	24.275297	0.000406	4.056219	1.374284	0.000162
 203	2.0099e+01	8.0516	24.404486	0.000324	3.244975	1.099427	0.000130
 204	2.0198e+01	8.0773	24.557897	0.000385	3.853408	1.305570	0.000154
 205	2.0298e+01	8.1142	24.691122	0.000335	3.346380	1.133784	0.000134
 206	2.0398e+01	8.1671	24.860682	0.000426	4.259029	1.442998	0.000170
 207	2.0497e+01	8.2024	25.010056	0.000375	3.752002	1.271213	0.000150
 208	2.0596e+01	8.2490	25.094836	0.000213	2.129515	0.721499	0.000085
 209	2.0696e+01	8.2810	25.244210	0.000375	3.752002	1.271213	0.000150
 210	2.0796e+01	8.3292	25.462215	0.000548	5.475895	1.855283	0.000219
 211	2.0895e+01	8.3725	25.506624	0.000112	1.115460	0.377928	0.000045
 212	2.0994e+01	8.3998	25.708480	0.000507	5.070273	1.717855	0.000203
 213	2.1094e+01	8.4463	25.878040	0.000426	4.259029	1.442998	0.000170
 214	2.1194e+01	8.4800	26.015303	0.000345	3.447786	1.168141	0.000138
 215	2.1293e+01	8.5265	26.164677	0.000375	3.752002	1.271213	0.000150
 216	2.1392e+01	8.5666	26.297902	0.000335	3.346380	1.133784	0.000134
 217	2.1492e+01	8.5971	26.435165	0.000345	3.447786	1.168141	0.000138
 218	2.1591e+01	8.6388	26.592613	0.000395	3.954813	1.339927	0.000158
 219	2.1691e+01	8.6917	26.713727	0.000304	3.042164	1.030713	0.000122
 220	2.1791e+01	8.7254	26.838878	0.000314	3.143569	1.065070	0.000126
 221	2.1890e+01	8.7607	27.008438	0.000426	4.259029	1.442998	0.000170
 222	2.1989e+01	8.8024	27.157812	0.000375	3.752002	1.271213	0.000150
 223	2.2089e+01	8.8297	27.307186	0.000375	3.752002	1.271213	0.000150
 224	2.2189e+01	8.8858	27.472709	0.000416	4.157624	1.408641	0.000166
 225	2.2288e+01	8.9195	27.609971	0.000345	3.447786	1.168141	0.000138
 226	2.2387e+01	8.9612	27.759345	0.000375	3.752002	1.271213	0.000150
 227	2.2487e+01	9.0014	27.916794	0.000395	3.954813	1.339927	0.000158
 228	2.2587e+01	9.0399	28.054056	0.000345	3.447786	1.168141	0.000138
 229	2.2686e+01	9.0767	28.219579	0.000416	4.157624	1.408641	0.000166
 230	2.2785e+01	9.1265	28.336656	0.000294	2.940758	0.996356	0.000118
 231	2.2885e+01	9.1570	28.514290	0.000446	4.461840	1.511712	0.000179
 232	2.2985e+01	9.2099	28.631367	0.000294	2.940758	0.996356	0.000118
 233	2.3084e+01	9.2484	28.788815	0.000395	3.954813	1.339927	0.000158
 234	2.3183e+01	9.2901	28.934152	0.000365	3.650597	1.236856	0.000146
 235	2.3283e+01	9.3174	29.095637	0.000406	4.056219	1.374284	0.000162
 236	2.3383e+01	9.3639	29.240974	0.000365	3.650597	1.236856	0.000146
 237	2.3482e+01	9.4088	29.394385	0.000385	3.853408	1.305570	0.000154
 238	2.3581e+01	9.4345	29.515499	0.000304	3.042164	1.030713	0.000122
 239	2.3681e+01	9.4842	29.685059	0.000426	4.259029	1.442998	0.000170
 240	2.3780e+01	9.5179	29.838470	0.000385	3.853408	1.305570	0.000154
 241	2.3880e+01	9.5580	29.975733	0.000345	3.447786	1.168141	0.000138
 242	2.3980e+01	9.5997	30.117033	0.000355	3.549191	1.202499	0.000142
 243	2.4079e+01	9.6382	30.262369	0.000365	3.650597	1.236856	0.000146
 244	2.4178e+01	9.6783	30.407706	0.000365	3.650597	1.236856	0.000146
 245	2.4278e+01	9.7217	30.561118	0.000385	3.853408	1.305570	0.000154
 246	2.4378e+01	9.7553	30.702417	0.000355	3.549191	1.202499	0.000142
 247	2.4477e+01	9.8051	30.843717	0.000355	3.549191	1.202499	0.000142
 248	2.4576e+01	9.8356	30.968868	0.000314	3.143569	1.065070	0.000126
 249	2.4676e+01	9.8837	31.122279	0.000385	3.853408	1.305570	0.000154
 250	2.4776e+01	9.9174	31.267616	0.000365	3.650597	1.236856	0.000146
 251	2.4875e+01	9.9623	31.461399	0.000487	4.867462	1.649141	0.000195
 252	2.4974e+01	9.9880	31.558290	0.000243	2.433731	0.824570	0.000097
 253	2.5074e+01	10.0393	31.723813	0.000416	4.157624	1.408641	0.000166
 254	2.5174e+01	10.0666	31.828778	0.000264	2.636542	0.893285	0.000105
 255	2.5273e+01	10.1179	31.982189	0.000385	3.853408	1.305570	0.000154
 256	2.5372e+01	10.1596	32.127526	0.000365	3.650597	1.236856	0.000146
 257	2.5472e+01	10.1997	32.341494	0.000537	5.374490	1.820926	0.000215
 258	2.5572e+01	10.2430	32.426274	0.000213	2.129515	0.721499	0.000085
 259	2.5671e+01	10.2639	32.579685	0.000385	3.853408	1.305570	0.000154
 260	2.5770e+01	10.3152	32.753282	0.000436	4.360435	1.477355	0.000174
 261	2.5870e+01	10.3553	32.874396	0.000304	3.042164	1.030713	0.000122
 262	2.5970e+01	10.4051	32.987436	0.000284	2.839353	0.961999	0.000114
 263	2.6069e+01	10.4355	33.144884	0.000395	3.954813	1.339927	0.000158
 264	2.6169e+01	10.4724	33.342704	0.000497	4.968868	1.683498	0.000199
 265	2.6268e+01	10.5093	33.455744	0.000284	2.839353	0.961999	0.000114
 266	2.6367e+01	10.5526	33.580895	0.000314	3.143569	1.065070	0.000126
 267	2.6467e+01	10.5960	33.726232	0.000365	3.650597	1.236856	0.000146
 268	2.6567e+01	10.6393	33.911940	0.000466	4.664651	1.580427	0.000187
 269	2.6666e+01	10.6698	34.024980	0.000284	2.839353	0.961999	0.000114
 270	2.6765e+01	10.7195	34.194540	0.000426	4.259029	1.442998	0.000170
 271	2.6865e+01	10.7580	34.339877	0.000365	3.650597	1.236856	0.000146
 272	2.6965e+01	10.7981	34.505399	0.000416	4.157624	1.408641	0.000166
 273	2.7064e+01	10.8414	34.610365	0.000264	2.636542	0.893285	0.000105
 274	2.7163e+01	10.8735	34.796073	0.000466	4.664651	1.580427	0.000187
 275	2.7263e+01	10.9088	34.925261	0.000324	3.244975	1.099427	0.000130
 276	2.7363e+01	10.9585	35.066561	0.000355	3.549191	1.202499	0.000142
 277	2.7462e+01	11.0018	35.219972	0.000385	3.853408	1.305570	0.000154
 278	2.7561e+01	11.0451	35.385495	0.000416	4.157624	1.408641	0.000166
 279	2.7661e+01	11.0772	35.534869	0.000375	3.752002	1.271213	0.000150
 280	2.7761e+01	11.1141	35.655983	0.000304	3.042164	1.030713	0.000122
 281	2.7860e+01	11.1526	35.797283	0.000355	3.549191	1.202499	0.000142
 282	2.7959e+01	11.1895	35.950694	0.000385	3.853408	1.305570	0.000154
 283	2.8059e+01	11.2377	36.112179	0.000406	4.056219	1.374284	0.000162
 284	2.8159e+01	11.2810	36.245405	0.000335	3.346380	1.133784	0.000134
 285	2.8258e+01	11.3098	36.406890	0.000406	4.056219	1.374284	0.000162
 286	2.8358e+01	11.3532	36.536078	0.000324	3.244975	1.099427	0.000130
 287	2.8457e+01	11.3981	36.717750	0.000456	4.563246	1.546070	0.000183
 288	2.8556e+01	11.4382	36.834826	0.000294	2.940758	0.996356	0.000118
 289	2.8656e+01	11.4719	37.040720	0.000517	5.171679	1.752212	0.000207
 290	2.8756e+01	11.5088	37.186057	0.000365	3.650597	1.236856	0.000146
 291	2.8855e+01	11.5489	37.299097	0.000284	2.839353	0.961999	0.000114
 292	2.8954e+01	11.5826	37.400025	0.000254	2.535137	0.858928	0.000101
 293	2.9054e+01	11.6371	37.585734	0.000466	4.664651	1.580427	0.000187
 294	2.9154e+01	11.6596	37.739145	0.000385	3.853408	1.305570	0.000154
 295	2.9253e+01	11.7173	37.848148	0.000274	2.737948	0.927642	0.000110
 296	2.9352e+01	11.7494	38.017707	0.000426	4.259029	1.442998	0.000170
 297	2.9452e+01	11.7847	38.191304	0.000436	4.360435	1.477355	0.000174
 298	2.9552e+01	11.8280	38.324530	0.000335	3.346380	1.133784	0.000134
 299	2.9651e+01	11.8665	38.477941	0.000385	3.853408	1.305570	0.000154
 300	2.9750e+01	11.9050	38.623278	0.000365	3.650597	1.236856	0.000146
 301	2.9850e+01	11.9515	38.788800	0.000416	4.157624	1.408641	0.000166
 302	2.9950e+01	11.9820	38.901840	0.000284	2.839353	0.961999	0.000114
 303	3.0049e+01	12.0334	39.035065	0.000335	3.346380	1.133784	0.000134
 304	3.0148e+01	12.0622	39.188477	0.000385	3.853408	1.305570	0.000154
 305	3.0248e+01	12.1120	39.329776	0.000355	3.549191	1.202499	0.000142
 306	3.0348e+01	12.1489	39.467039	0.000345	3.447786	1.168141	0.000138
 307	3.0447e+01	12.1954	39.652747	0.000466	4.664651	1.580427	0.000187
 308	3.0547e+01	12.2259	39.781936	0.000324	3.244975	1.099427	0.000130
 309	3.0646e+01	12.2612	39.939384	0.000395	3.954813	1.339927	0.000158
 310	3.0745e+01	12.3045	40.072609	0.000335	3.346380	1.133784	0.000134
 311	3.0845e+01	12.3526	40.217946	0.000365	3.650597	1.236856	0.000146
 312	3.0945e+01	12.3863	40.330986	0.000284	2.839353	0.961999	0.000114
 313	3.1044e+01	12.4312	40.488434	0.000395	3.954813	1.339927	0.000158
 314	3.1143e+01	12.4633	40.609548	0.000304	3.042164	1.030713	0.000122
 315	3.1243e+01	12.5098	40.762960	0.000385	3.853408	1.305570	0.000154
 316	3.1343e+01	12.5531	40.932519	0.000426	4.259029	1.442998	0.000170
 317	3.1442e+01	12.5820	41.073819	0.000355	3.549191	1.202499	0.000142
 318	3.1541e+01	12.6365	41.231267	0.000395	3.954813	1.339927	0.000158
 319	3.1641e+01	12.6670	41.356419	0.000314	3.143569	1.065070	0.000126
 320	3.1741e+01	12.7151	41.521941	0.000416	4.157624	1.408641	0.000166
 321	3.1840e+01	12.7488	41.639018	0.000294	2.940758	0.996356	0.000118
 322	3.1939e+01	12.7905	41.804541	0.000416	4.157624	1.408641	0.000166
 323	3.2039e+01	12.8226	41.917580	0.000284	2.839353	0.961999	0.000114
 324	3.2139e+01	12.8676	42.062917	0.000365	3.650597	1.236856	0.000146
 325	3.2238e+01	12.9141	42.216328	0.000385	3.853408	1.305570	0.000154
 326	3.2337e+01	12.9478	42.373777	0.000395	3.954813	1.339927	0.000158
 327	3.2437e+01	12.9815	42.502965	0.000324	3.244975	1.099427	0.000130
 328	3.2536e+01	13.0296	42.632153	0.000324	3.244975	1.099427	0.000130
 329	3.2636e+01	13.0649	42.769416	0.000345	3.447786	1.168141	0.000138
 330	3.2736e+01	13.1066	42.934939	0.000416	4.157624	1.408641	0.000166
 331	3.2835e+01	13.1435	43.084313	0.000375	3.752002	1.271213	0.000150
 332	3.2934e+01	13.1788	43.217538	0.000335	3.346380	1.133784	0.000134
 333	3.3034e+01	13.2285	43.350764	0.000335	3.346380	1.133784	0.000134
 334	3.3133e+01	13.2622	43.504175	0.000385	3.853408	1.305570	0.000154
 335	3.3233e+01	13.2991	43.637400	0.000335	3.346380	1.133784	0.000134
 336	3.3333e+01	13.3472	43.782737	0.000365	3.650597	1.236856	0.000146
 337	3.3432e+01	13.3825	43.952297	0.000426	4.259029	1.442998	0.000170
 338	3.3532e+01	13.4194	44.085522	0.000335	3.346380	1.133784	0.000134
 339	3.3631e+01	13.4579	44.214711	0.000324	3.244975	1.099427	0.000130
 340	3.3730e+01	13.5076	44.356010	0.000355	3.549191	1.202499	0.000142
 341	3.3830e+01	13.5461	44.545756	0.000477	4.766057	1.614784	0.000191
 342	3.3929e+01	13.5879	44.634573	0.000223	2.230920	0.755856	0.000089
 343	3.4029e+01	13.6215	44.796058	0.000406	4.056219	1.374284	0.000162
 344	3.4129e+01	13.6681	44.957544	0.000406	4.056219	1.374284	0.000162
 345	3.4228e+01	13.7066	45.070583	0.000284	2.839353	0.961999	0.000114
 346	3.4328e+01	13.7386	45.236106	0.000416	4.157624	1.408641	0.000166
 347	3.4427e+01	13.7852	45.385480	0.000375	3.752002	1.271213	0.000150
 348	3.4526e+01	13.8253	45.486408	0.000254	2.535137	0.858928	0.000101
 349	3.4626e+01	13.8606	45.651931	0.000416	4.157624	1.408641	0.000166
 350	3.4725e+01	13.9023	45.809379	0.000395	3.954813	1.339927	0.000158
 351	3.4825e+01	13.9440	45.930493	0.000304	3.042164	1.030713	0.000122
 352	3.4925e+01	13.9793	46.091979	0.000406	4.056219	1.374284	0.000162
 353	3.5024e+01	14.0274	46.213093	0.000304	3.042164	1.030713	0.000122
 354	3.5123e+01	14.0595	46.338244	0.000314	3.143569	1.065070	0.000126
 355	3.5223e+01	14.0900	46.503767	0.000416	4.157624	1.408641	0.000166
 356	3.5322e+01	14.1397	46.624881	0.000304	3.042164	1.030713	0.000122
 357	3.5422e+01	14.1718	46.762143	0.000345	3.447786	1.168141	0.000138
 358	3.5522e+01	14.2263	46.915554	0.000385	3.853408	1.305570	0.000154
 359	3.5621e+01	14.2600	47.068966	0.000385	3.853408	1.305570	0.000154
 360	3.5721e+01	14.2937	47.173931	0.000264	2.636542	0.893285	0.000105
 361	3.5820e+01	14.3450	47.343491	0.000426	4.259029	1.442998	0.000170
 362	3.5919e+01	14.3819	47.448456	0.000264	2.636542	0.893285	0.000105
 363	3.6019e+01	14.4076	47.589756	0.000355	3.549191	1.202499	0.000142
 364	3.6118e+01	14.4590	47.759316	0.000426	4.259029	1.442998	0.000170
 365	3.6218e+01	14.4975	47.888504	0.000324	3.244975	1.099427	0.000130
 366	3.6318e+01	14.5392	48.009618	0.000304	3.042164	1.030713	0.000122
 367	3.6417e+01	14.5696	48.150918	0.000355	3.549191	1.202499	0.000142
 368	3.6517e+01	14.6194	48.292218	0.000355	3.549191	1.202499	0.000142
 369	3.6616e+01	14.6627	48.477926	0.000466	4.664651	1.580427	0.000187
 370	3.6715e+01	14.6996	48.562706	0.000213	2.129515	0.721499	0.000085
 371	3.6815e+01	14.7397	48.704006	0.000355	3.549191	1.202499	0.000142
 372	3.6914e+01	14.7782	48.833194	0.000324	3.244975	1.099427	0.000130
 373	3.7014e+01	14.8215	48.978531	0.000365	3.650597	1.236856	0.000146
 374	3.7114e+01	14.8616	49.099645	0.000304	3.042164	1.030713	0.000122
 375	3.7213e+01	14.9001	49.236907	0.000345	3.447786	1.168141	0.000138
 376	3.7313e+01	14.9370	49.366096	0.000324	3.244975	1.099427	0.000130
 377	3.7412e+01	14.9771	49.527581	0.000406	4.056219	1.374284	0.000162
 378	3.7511e+01	15.0252	49.689067	0.000406	4.056219	1.374284	0.000162
 379	3.7611e+01	15.0573	49.789995	0.000254	2.535137	0.858928	0.000101
 380	3.7711e+01	15.1055	49.915146	0.000314	3.143569	1.065070	0.000126
 381	3.7810e+01	15.1295	50.056446	0.000355	3.549191	1.202499	0.000142
 382	3.7910e+01	15.1793	50.234080	0.000446	4.461840	1.511712	0.000179
 383	3.8009e+01	15.2097	50.335008	0.000254	2.535137	0.858928	0.000101
 384	3.8108e+01	15.2563	50.492457	0.000395	3.954813	1.339927	0.000158
 385	3.8208e+01	15.2980	50.645868	0.000385	3.853408	1.305570	0.000154
 386	3.8307e+01	15.3317	50.754870	0.000274	2.737948	0.927642	0.000110
 387	3.8407e+01	15.3766	50.912319	0.000395	3.954813	1.339927	0.000158
 388	3.8507e+01	15.4135	51.057656	0.000365	3.650597	1.236856	0.000146
 389	3.8606e+01	15.4536	51.190881	0.000335	3.346380	1.133784	0.000134
 390	3.8706e+01	15.5001	51.368515	0.000446	4.461840	1.511712	0.000179
 391	3.8805e+01	15.5306	51.461369	0.000233	2.332326	0.790213	0.000093
 392	3.8904e+01	15.5819	51.618818	0.000395	3.954813	1.339927	0.000158
 393	3.9004e+01	15.6108	51.723783	0.000264	2.636542	0.893285	0.000105
 394	3.9103e+01	15.6493	51.861046	0.000345	3.447786	1.168141	0.000138
 395	3.9203e+01	15.6990	51.974085	0.000284	2.839353	0.961999	0.000114
 396	3.9303e+01	15.7327	52.155757	0.000456	4.563246	1.546070	0.000183
 397	3.9402e+01	15.7776	52.293019	0.000345	3.447786	1.168141	0.000138
 398	3.9502e+01	15.8129	52.458542	0.000416	4.157624	1.408641	0.000166
 399	3.9601e+01	15.8546	52.595804	0.000345	3.447786	1.168141	0.000138
 400	3.9700e+01	15.8931	52.696733	0.000254	2.535137	0.858928	0.000101
 401	3.9800e+01	15.9364	52.874367	0.000446	4.461840	1.511712	0.000179
 402	3.9900e+01	15.9814	52.983369	0.000274	2.737948	0.927642	0.000110
 403	3.9999e+01	16.0167	53.156966	0.000436	4.360435	1.477355	0.000174
 404	4.0099e+01	16.0536	53.286155	0.000324	3.244975	1.099427	0.000130
 405	4.0198e+01	16.0953	53.395157	0.000274	2.737948	0.927642	0.000110
 406	4.0297e+01	16.1209	53.568754	0.000436	4.360435	1.477355	0.000174
 407	4.0397e+01	16.1739	53.697942	0.000324	3.244975	1.099427	0.000130
 408	4.0496e+01	16.2028	53.815019	0.000294	2.940758	0.996356	0.000118
 409	4.0596e+01	16.2477	53.972468	0.000395	3.954813	1.339927	0.000158
 410	4.0696e+01	16.3006	54.069359	0.000243	2.433731	0.824570	0.000097
 411	4.0795e+01	16.3295	54.230844	0.000406	4.056219	1.374284	0.000162
 412	4.0895e+01	16.3728	54.384256	0.000385	3.853408	1.305570	0.000154
 413	4.0994e+01	16.4081	54.537667	0.000385	3.853408	1.305570	0.000154
 414	4.1093e+01	16.4466	54.662818	0.000314	3.143569	1.065070	0.000126
 415	4.1193e+01	16.4899	54.771821	0.000274	2.737948	0.927642	0.000110
 416	4.1292e+01	16.5316	54.933306	0.000406	4.056219	1.374284	0.000162
 417	4.1392e+01	16.5717	55.058457	0.000314	3.143569	1.065070	0.000126
 418	4.1492e+01	16.6038	55.228017	0.000426	4.259029	1.442998	0.000170
 419	4.1591e+01	16.6535	55.345094	0.000294	2.940758	0.996356	0.000118
 420	4.1691e+01	16.6904	55.474282	0.000324	3.244975	1.099427	0.000130
 421	4.1790e+01	16.7338	55.599433	0.000314	3.143569	1.065070	0.000126
 422	4.1889e+01	16.7658	55.748807	0.000375	3.752002	1.271213	0.000150
 423	4.1989e+01	16.8124	55.857810	0.000274	2.737948	0.927642	0.000110
 424	4.2089e+01	16.8380	55.986998	0.000324	3.244975	1.099427	0.000130
 425	4.2188e+01	16.8846	56.180781	0.000487	4.867462	1.649141	0.000195
 426	4.2288e+01	16.9311	56.305932	0.000314	3.143569	1.065070	0.000126
 427	4.2387e+01	16.9616	56.410898	0.000264	2.636542	0.893285	0.000105
 428	4.2486e+01	17.0113	56.580457	0.000426	4.259029	1.442998	0.000170
 429	4.2586e+01	17.0482	56.697534	0.000294	2.940758	0.996356	0.000118
 430	4.2685e+01	17.0899	56.830760	0.000335	3.346380	1.133784	0.000134
 431	4.2785e+01	17.1252	56.992245	0.000406	4.056219	1.374284	0.000162
 432	4.2885e+01	17.1669	57.105285	0.000284	2.839353	0.961999	0.000114
 433	4.2984e+01	17.2070	57.262733	0.000395	3.954813	1.339927	0.000158
 434	4.3084e+01	17.2455	57.404033	0.000355	3.549191	1.202499	0.000142
 435	4.3183e+01	17.2792	57.525147	0.000304	3.042164	1.030713	0.000122
 436	4.3282e+01	17.3225	57.670484	0.000365	3.650597	1.236856	0.000146
 437	4.3382e+01	17.3690	57.815821	0.000365	3.650597	1.236856	0.000146
 438	4.3481e+01	17.3979	57.920786	0.000264	2.636542	0.893285	0.000105
 439	4.3581e+01	17.4508	58.078235	0.000395	3.954813	1.339927	0.000158
 440	4.3681e+01	17.4942	58.203386	0.000314	3.143569	1.065070	0.000126
 441	4.3780e+01	17.5359	58.364871	0.000406	4.056219	1.374284	0.000162
 442	4.3880e+01	17.5728	58.490023	0.000314	3.143569	1.065070	0.000126
 443	4.3979e+01	17.6113	58.663619	0.000436	4.360435	1.477355	0.000174
 444	4.4078e+01	17.6578	58.788771	0.000314	3.143569	1.065070	0.000126
 445	4.4178e+01	17.6899	58.950256	0.000406	4.056219	1.374284	0.000162
 446	4.4278e+01	17.7268	59.091556	0.000355	3.549191	1.202499	0.000142
 447	4.4377e+01	17.7701	59.232856	0.000355	3.549191	1.202499	0.000142
 448	4.4477e+01	17.8070	59.358007	0.000314	3.143569	1.065070	0.000126
 449	4.4576e+01	17.8455	59.523529	0.000416	4.157624	1.408641	0.000166
 450	4.4675e+01	17.8872	59.632532	0.000274	2.737948	0.927642	0.000110
 451	4.4775e+01	17.9257	59.753646	0.000304	3.042164	1.030713	0.000122
 452	4.4874e+01	17.9610	59.903020	0.000375	3.752002	1.271213	0.000150
 453	4.4974e+01	18.0075	60.048357	0.000365	3.650597	1.236856	0.000146
 454	4.5074e+01	18.0476	60.205805	0.000395	3.954813	1.339927	0.000158
 455	4.5173e+01	18.0845	60.310771	0.000264	2.636542	0.893285	0.000105
 456	4.5273e+01	18.1230	60.443996	0.000335	3.346380	1.133784	0.000134
 457	4.5372e+01	18.1663	60.629705	0.000466	4.664651	1.580427	0.000187
 458	4.5471e+01	18.2000	60.742744	0.000284	2.839353	0.961999	0.000114
 459	4.5571e+01	18.2353	60.928453	0.000466	4.664651	1.580427	0.000187
 460	4.5670e+01	18.2850	61.037455	0.000274	2.737948	0.927642	0.000110
 461	4.5770e+01	18.3219	61.178755	0.000355	3.549191	1.202499	0.000142
 462	4.5870e+01	18.3620	61.316018	0.000345	3.447786	1.168141	0.000138
 463	4.5969e+01	18.3989	61.481540	0.000416	4.157624	1.408641	0.000166
 464	4.6069e+01	18.4423	61.614766	0.000335	3.346380	1.133784	0.000134
 465	4.6168e+01	18.4792	61.768177	0.000385	3.853408	1.305570	0.000154
 466	4.6267e+01	18.5257	61.865068	0.000243	2.433731	0.824570	0.000097
 467	4.6367e+01	18.5610	62.014442	0.000375	3.752002	1.271213	0.000150
 468	4.6467e+01	18.6059	62.147668	0.000335	3.346380	1.133784	0.000134
 469	4.6566e+01	18.6380	62.301079	0.000385	3.853408	1.305570	0.000154
 470	4.6666e+01	18.6877	62.430267	0.000324	3.244975	1.099427	0.000130
 471	4.6765e+01	18.7166	62.571567	0.000355	3.549191	1.202499	0.000142
 472	4.6864e+01	18.7503	62.716904	0.000365	3.650597	1.236856	0.000146
 473	4.6964e+01	18.8080	62.858203	0.000355	3.549191	1.202499	0.000142
 474	4.7063e+01	18.8337	62.979318	0.000304	3.042164	1.030713	0.000122
 475	4.7163e+01	18.8690	63.108506	0.000324	3.244975	1.099427	0.000130
 476	4.7263e+01	18.9235	63.278066	0.000426	4.259029	1.442998	0.000170
 477	4.7362e+01	18.9604	63.362845	0.000213	2.129515	0.721499	0.000085
 478	4.7462e+01	18.9989	63.576814	0.000537	5.374490	1.820926	0.000215
 479	4.7561e+01	19.0455	63.661593	0.000213	2.129515	0.721499	0.000085
 480	4.7660e+01	19.0807	63.827116	0.000416	4.157624	1.408641	0.000166
 481	4.7760e+01	19.1225	63.924007	0.000243	2.433731	0.824570	0.000097
 482	4.7859e+01	19.1594	64.101641	0.000446	4.461840	1.511712	0.000179
 483	4.7959e+01	19.1995	64.226792	0.000314	3.143569	1.065070	0.000126
 484	4.8059e+01	19.2364	64.364055	0.000345	3.447786	1.168141	0.000138
 485	4.8158e+01	19.2845	64.477095	0.000284	2.839353	0.961999	0.000114
 486	4.8258e+01	19.3214	64.622432	0.000365	3.650597	1.236856	0.000146
 487	4.8357e+01	19.3631	64.791991	0.000426	4.259029	1.442998	0.000170
 488	4.8456e+01	19.3920	64.925217	0.000335	3.346380	1.133784	0.000134
 489	4.8556e+01	19.4417	65.066517	0.000355	3.549191	1.202499	0.000142
 490	4.8656e+01	19.4754	65.187631	0.000304	3.042164	1.030713	0.000122
 491	4.8755e+01	19.5171	65.284522	0.000243	2.433731	0.824570	0.000097
 492	4.8855e+01	19.5620	65.425822	0.000355	3.549191	1.202499	0.000142
 493	4.8954e+01	19.5973	65.611530	0.000466	4.664651	1.580427	0.000187
 494	4.9053e+01	19.6342	65.684198	0.000183	1.825298	0.618428	0.000073
 495	4.9153e+01	19.6759	65.849721	0.000416	4.157624	1.408641	0.000166
 496	4.9252e+01	19.7192	65.962761	0.000284	2.839353	0.961999	0.000114
 497	4.9352e+01	19.7609	66.112135	0.000375	3.752002	1.271213	0.000150
 498	4.9452e+01	19.7946	66.289769	0.000446	4.461840	1.511712	0.000179
 499	4.9551e+01	19.8412	66.394734	0.000264	2.636542	0.893285	0.000105
 500	4.9651e+01	19.8700	66.531997	0.000345	3.447786	1.168141	0.000138
 501	4.9750e+01	19.9246	66.689445	0.000395	3.954813	1.339927	0.000158
 502	4.9849e+01	19.9518	66.810559	0.000304	3.042164	1.030713	0.000122
 503	4.9949e+01	19.9871	66.980119	0.000426	4.259029	1.442998	0.000170
 504	5.0048e+01	19.9502	66.867079	0.000284	2.839353	0.961999	-0.000114
 505	5.0148e+01	19.9085	66.770188	0.000243	2.433731	0.824570	-0.000097
 506	5.0248e+01	19.8700	66.653111	0.000294	2.940758	0.996356	-0.000118
 507	5.0347e+01	19.8412	66.531997	0.000304	3.042164	1.030713	-0.000122
 508	5.0447e+01	19.8026	66.422994	0.000274	2.737948	0.927642	-0.000110
 509	5.0546e+01	19.7529	66.326103	0.000243	2.433731	0.824570	-0.000097
 510	5.0645e+01	19.7144	66.237286	0.000223	2.230920	0.755856	-0.000089
 511	5.0745e+01	19.6743	66.124246	0.000284	2.839353	0.961999	-0.000114
 512	5.0844e+01	19.6374	66.019281	0.000264	2.636542	0.893285	-0.000105
 513	5.0944e+01	19.5957	65.877981	0.000355	3.549191	1.202499	-0.000142
 514	5.1044e+01	19.5572	65.768978	0.000274	2.737948	0.927642	-0.000110
 515	5.1143e+01	19.5139	65.676124	0.000233	2.332326	0.790213	-0.000093
 516	5.1242e+01	19.4754	65.575196	0.000254	2.535137	0.858928	-0.000101
 517	5.1342e+01	19.4433	65.401599	0.000436	4.360435	1.477355	-0.000174
 518	5.1441e+01	19.3984	65.328931	0.000183	1.825298	0.618428	-0.000073
 519	5.1541e+01	19.3631	65.219928	0.000274	2.737948	0.927642	-0.000110
 520	5.1641e+01	19.3150	65.094777	0.000314	3.143569	1.065070	-0.000126
 521	5.1740e+01	19.2813	64.981737	0.000284	2.839353	0.961999	-0.000114
 522	5.1840e+01	19.2476	64.864660	0.000294	2.940758	0.996356	-0.000118
 523	5.1939e+01	19.1995	64.779880	0.000213	2.129515	0.721499	-0.000085
 524	5.2038e+01	19.1610	64.618395	0.000406	4.056219	1.374284	-0.000162
 525	5.2138e+01	19.1209	64.509392	0.000274	2.737948	0.927642	-0.000110
 526	5.2237e+01	19.0920	64.372129	0.000345	3.447786	1.168141	-0.000138
 527	5.2337e+01	19.0438	64.275238	0.000243	2.433731	0.824570	-0.000097
 528	5.2437e+01	18.9989	64.154124	0.000304	3.042164	1.030713	-0.000122
 529	5.2536e+01	18.9620	64.020899	0.000335	3.346380	1.133784	-0.000134
 530	5.2636e+01	18.9235	63.919970	0.000254	2.535137	0.858928	-0.000101
 531	5.2735e+01	18.8834	63.766559	0.000385	3.853408	1.305570	-0.000154
 532	5.2834e+01	18.8417	63.661593	0.000264	2.636542	0.893285	-0.000105
 533	5.2934e+01	18.8048	63.504145	0.000395	3.954813	1.339927	-0.000158
 534	5.3033e+01	18.7599	63.415328	0.000223	2.230920	0.755856	-0.000089
 535	5.3133e+01	18.7246	63.274028	0.000355	3.549191	1.202499	-0.000142
 536	5.3233e+01	18.6765	63.152914	0.000304	3.042164	1.030713	-0.000122
 537	5.3332e+01	18.6476	63.035837	0.000294	2.940758	0.996356	-0.000118
 538	5.3431e+01	18.5963	62.942983	0.000233	2.332326	0.790213	-0.000093
 539	5.3531e+01	18.5626	62.797646	0.000365	3.650597	1.236856	-0.000146
 540	5.3630e+01	18.5128	62.664421	0.000335	3.346380	1.133784	-0.000134
 541	5.3730e+01	18.4759	62.523121	0.000355	3.549191	1.202499	-0.000142
 542	5.3830e+01	18.4407	62.410081	0.000284	2.839353	0.961999	-0.000114
 543	5.3929e+01	18.4022	62.288967	0.000304	3.042164	1.030713	-0.000122
 544	5.4029e+01	18.3653	62.155742	0.000335	3.346380	1.133784	-0.000134
 545	5.4128e+01	18.3171	62.030591	0.000314	3.143569	1.065070	-0.000126
 546	5.4227e+01	18.2834	61.925625	0.000264	2.636542	0.893285	-0.000105
 547	5.4327e+01	18.2337	61.788362	0.000345	3.447786	1.168141	-0.000138
 548	5.4426e+01	18.2129	61.723768	0.000162	1.622487	0.549714	-0.000065
 549	5.4526e+01	18.1663	61.550171	0.000436	4.360435	1.477355	-0.000174
 550	5.4626e+01	18.1278	61.412909	0.000345	3.447786	1.168141	-0.000138
 551	5.4725e+01	18.0845	61.311980	0.000254	2.535137	0.858928	-0.000101
 552	5.4825e+01	18.0460	61.198941	0.000284	2.839353	0.961999	-0.000114
 553	5.4924e+01	18.0059	61.053604	0.000365	3.650597	1.236856	-0.000146
 554	5.5023e+01	17.9626	60.944601	0.000274	2.737948	0.927642	-0.000110
 555	5.5123e+01	17.9193	60.775041	0.000426	4.259029	1.442998	-0.000170
 556	5.5222e+01	17.8840	60.682187	0.000233	2.332326	0.790213	-0.000093
 557	5.5322e+01	17.8487	60.565110	0.000294	2.940758	0.996356	-0.000118
 558	5.5422e+01	17.8070	60.423811	0.000355	3.549191	1.202499	-0.000142
 559	5.5521e+01	17.7653	60.351142	0.000183	1.825298	0.618428	-0.000073
 560	5.5620e+01	17.7300	60.173508	0.000446	4.461840	1.511712	-0.000179
 561	5.5720e+01	17.6867	60.056431	0.000294	2.940758	0.996356	-0.000118
 562	5.5819e+01	17.6466	59.935317	0.000304	3.042164	1.030713	-0.000122
 563	5.5919e+01	17.6113	59.818240	0.000294	2.940758	0.996356	-0.000118
 564	5.6019e+01	17.5696	59.701163	0.000294	2.940758	0.996356	-0.000118
 565	5.6118e+01	17.5278	59.555826	0.000365	3.650597	1.236856	-0.000146
 566	5.6218e+01	17.4861	59.426638	0.000324	3.244975	1.099427	-0.000130
 567	5.6317e+01	17.4541	59.329747	0.000243	2.433731	0.824570	-0.000097
 568	5.6416e+01	17.4027	59.208633	0.000304	3.042164	1.030713	-0.000122
 569	5.6516e+01	17.3610	59.039073	0.000426	4.259029	1.442998	-0.000170
 570	5.6615e+01	17.3257	58.982553	0.000142	1.419676	0.480999	-0.000057
 571	5.6715e+01	17.2792	58.817031	0.000416	4.157624	1.408641	-0.000166
 572	5.6815e+01	17.2503	58.695916	0.000304	3.042164	1.030713	-0.000122
 573	5.6914e+01	17.2022	58.599025	0.000243	2.433731	0.824570	-0.000097
 574	5.7014e+01	17.1605	58.433503	0.000416	4.157624	1.408641	-0.000166
 575	5.7113e+01	17.1220	58.308351	0.000314	3.143569	1.065070	-0.000126
 576	5.7212e+01	17.0931	58.219534	0.000223	2.230920	0.755856	-0.000089
 577	5.7312e+01	17.0514	58.025752	0.000487	4.867462	1.649141	-0.000195
 578	5.7411e+01	17.0065	57.945009	0.000203	2.028109	0.687142	-0.000081
 579	5.7511e+01	16.9760	57.815821	0.000324	3.244975	1.099427	-0.000130
 580	5.7611e+01	16.9295	57.658373	0.000395	3.954813	1.339927	-0.000158
 581	5.7710e+01	16.8878	57.549370	0.000274	2.737948	0.927642	-0.000110
 582	5.7809e+01	16.8509	57.408070	0.000355	3.549191	1.202499	-0.000142
 583	5.7909e+01	16.8059	57.319253	0.000223	2.230920	0.755856	-0.000089
 584	5.8008e+01	16.7658	57.149694	0.000426	4.259029	1.442998	-0.000170
 585	5.8108e+01	16.7273	57.044728	0.000264	2.636542	0.893285	-0.000105
 586	5.8208e+01	16.6888	56.887280	0.000395	3.954813	1.339927	-0.000158
 587	5.8307e+01	16.6551	56.806537	0.000203	2.028109	0.687142	-0.000081
 588	5.8407e+01	16.6134	56.628903	0.000446	4.461840	1.511712	-0.000179
 589	5.8506e+01	16.5717	56.507789	0.000304	3.042164	1.030713	-0.000122
 590	5.8605e+01	16.5268	56.378601	0.000324	3.244975	1.099427	-0.000130
 591	5.8705e+01	16.4835	56.253449	0.000314	3.143569	1.065070	-0.000126
 592	5.8804e+01	16.4530	56.136372	0.000294	2.940758	0.996356	-0.000118
 593	5.8904e+01	16.4145	56.011221	0.000314	3.143569	1.065070	-0.000126
 594	5.9004e+01	16.3696	55.894144	0.000294	2.940758	0.996356	-0.000118
 595	5.9103e+01	16.3295	55.748807	0.000365	3.650597	1.236856	-0.000146
 596	5.9203e+01	16.2862	55.651916	0.000243	2.433731	0.824570	-0.000097
 597	5.9302e+01	16.2493	55.502542	0.000375	3.752002	1.271213	-0.000150
 598	5.9401e+01	16.2156	55.332982	0.000426	4.259029	1.442998	-0.000170
 599	5.9501e+01	16.1659	55.256277	0.000193	1.926704	0.652785	-0.000077
 600	5.9600e+01	16.1306	55.094791	0.000406	4.056219	1.374284	-0.000162
 601	5.9700e+01	16.0889	54.981752	0.000284	2.839353	0.961999	-0.000114
 602	5.9800e+01	16.0487	54.852563	0.000324	3.244975	1.099427	-0.000130
 603	5.9899e+01	16.0070	54.739523	0.000284	2.839353	0.961999	-0.000114
 604	5.9998e+01	15.9701	54.606298	0.000335	3.346380	1.133784	-0.000134
 605	6.0098e+01	15.9332	54.452887	0.000385	3.853408	1.305570	-0.000154
 606	6.0197e+01	15.8835	54.343884	0.000274	2.737948	0.927642	-0.000110
 607	6.0297e+01	15.8562	54.222770	0.000304	3.042164	1.030713	-0.000122
 608	6.0397e+01	15.8129	54.105693	0.000294	2.940758	0.996356	-0.000118
 609	6.0496e+01	15.7808	53.960356	0.000365	3.650597	1.236856	-0.000146
 610	6.0596e+01	15.7375	53.843279	0.000294	2.940758	0.996356	-0.000118
 611	6.0695e+01	15.6974	53.734277	0.000274	2.737948	0.927642	-0.000110
 612	6.0794e+01	15.6541	53.568754	0.000416	4.157624	1.408641	-0.000166
 613	6.0894e+01	15.6124	53.447640	0.000304	3.042164	1.030713	-0.000122
 614	6.0993e+01	15.5707	53.383046	0.000162	1.622487	0.549714	-0.000065
 615	6.1093e+01	15.5322	53.201375	0.000456	4.563246	1.546070	-0.000183
 616	6.1193e+01	15.4921	53.088335	0.000284	2.839353	0.961999	-0.000114
 617	6.1292e+01	15.4552	52.967221	0.000304	3.042164	1.030713	-0.000122
 618	6.1392e+01	15.4119	52.858218	0.000274	2.737948	0.927642	-0.000110
 619	6.1491e+01	15.3734	52.745178	0.000284	2.839353	0.961999	-0.000114
 620	6.1590e+01	15.3349	52.611953	0.000335	3.346380	1.133784	-0.000134
 621	6.1690e+01	15.2899	52.462579	0.000375	3.752002	1.271213	-0.000150
 622	6.1789e+01	15.2434	52.369725	0.000233	2.332326	0.790213	-0.000093
 623	6.1889e+01	15.2113	52.224388	0.000365	3.650597	1.236856	-0.000146
 624	6.1989e+01	15.1793	52.103274	0.000304	3.042164	1.030713	-0.000122
 625	6.2088e+01	15.1375	51.953900	0.000375	3.752002	1.271213	-0.000150
 626	6.2188e+01	15.0958	51.792414	0.000406	4.056219	1.374284	-0.000162
 627	6.2287e+01	15.0525	51.743969	0.000122	1.216866	0.412285	-0.000049
 628	6.2386e+01	15.0220	51.558261	0.000466	4.664651	1.580427	-0.000187
 629	6.2486e+01	14.9723	51.473481	0.000213	2.129515	0.721499	-0.000085
 630	6.2586e+01	14.9354	51.332181	0.000355	3.549191	1.202499	-0.000142
 631	6.2685e+01	14.9001	51.202993	0.000324	3.244975	1.099427	-0.000130
 632	6.2785e+01	14.8536	51.073804	0.000324	3.244975	1.099427	-0.000130
 633	6.2884e+01	14.8183	50.960764	0.000284	2.839353	0.961999	-0.000114
 634	6.2983e+01	14.7830	50.831576	0.000324	3.244975	1.099427	-0.000130
 635	6.3083e+01	14.7301	50.686239	0.000365	3.650597	1.236856	-0.000146
 636	6.3182e+01	14.7012	50.577237	0.000274	2.737948	0.927642	-0.000110
 637	6.3282e+01	14.6659	50.419788	0.000395	3.954813	1.339927	-0.000158
 638	6.3382e+01	14.6194	50.262340	0.000395	3.954813	1.339927	-0.000158
 639	6.3481e+01	14.5777	50.169486	0.000233	2.332326	0.790213	-0.000093
 640	6.3581e+01	14.5392	50.060483	0.000274	2.737948	0.927642	-0.000110
 641	6.3680e+01	14.4991	49.894961	0.000416	4.157624	1.408641	-0.000166
 642	6.3779e+01	14.4557	49.798069	0.000243	2.433731	0.824570	-0.000097
 643	6.3879e+01	14.4204	49.668881	0.000324	3.244975	1.099427	-0.000130
 644	6.3978e+01	14.3771	49.519507	0.000375	3.752002	1.271213	-0.000150
 645	6.4078e+01	14.3386	49.374170	0.000365	3.650597	1.236856	-0.000146
 646	6.4177e+01	14.3033	49.240945	0.000335	3.346380	1.133784	-0.000134
 647	6.4277e+01	14.2552	49.115793	0.000314	3.143569	1.065070	-0.000126
 648	6.4376e+01	14.2135	49.010828	0.000264	2.636542	0.893285	-0.000105
 649	6.4476e+01	14.1846	48.841268	0.000426	4.259029	1.442998	-0.000170
 650	6.4576e+01	14.1365	48.736303	0.000264	2.636542	0.893285	-0.000105
 651	6.4675e+01	14.0980	48.586929	0.000375	3.752002	1.271213	-0.000150
 652	6.4775e+01	14.0579	48.449666	0.000345	3.447786	1.168141	-0.000138
 653	6.4874e+01	14.0178	48.336626	0.000284	2.839353	0.961999	-0.000114
 654	6.4974e+01	13.9809	48.227624	0.000274	2.737948	0.927642	-0.000110
 655	6.5073e+01	13.9328	48.078250	0.000375	3.752002	1.271213	-0.000150
 656	6.5172e+01	13.9055	47.920801	0.000395	3.954813	1.339927	-0.000158
 657	6.5272e+01	13.8606	47.823910	0.000243	2.433731	0.824570	-0.000097
 658	6.5371e+01	13.8157	47.654350	0.000426	4.259029	1.442998	-0.000170
 659	6.5471e+01	13.7836	47.545348	0.000274	2.737948	0.927642	-0.000110
 660	6.5570e+01	13.7274	47.436345	0.000274	2.737948	0.927642	-0.000110
 661	6.5670e+01	13.7001	47.311194	0.000314	3.143569	1.065070	-0.000126
 662	6.5769e+01	13.6681	47.165857	0.000365	3.650597	1.236856	-0.000146
 663	6.5869e+01	13.6280	47.012446	0.000385	3.853408	1.305570	-0.000154
 664	6.5969e+01	13.5862	46.887294	0.000314	3.143569	1.065070	-0.000126
 665	6.6068e+01	13.5429	46.758106	0.000324	3.244975	1.099427	-0.000130
 666	6.6168e+01	13.5012	46.604695	0.000385	3.853408	1.305570	-0.000154
 667	6.6267e+01	13.4627	46.519915	0.000213	2.129515	0.721499	-0.000085
 668	6.6367e+01	13.4242	46.354393	0.000416	4.157624	1.408641	-0.000166
 669	6.6466e+01	13.3793	46.257501	0.000243	2.433731	0.824570	-0.000097
 670	6.6566e+01	13.3488	46.091979	0.000416	4.157624	1.408641	-0.000166
 671	6.6665e+01	13.3151	46.007199	0.000213	2.129515	0.721499	-0.000085
 672	6.6764e+01	13.2574	45.869936	0.000345	3.447786	1.168141	-0.000138
 673	6.6864e+01	13.2237	45.692302	0.000446	4.461840	1.511712	-0.000179
 674	6.6963e+01	13.1868	45.571188	0.000304	3.042164	1.030713	-0.000122
 675	6.7063e+01	13.1451	45.474297	0.000243	2.433731	0.824570	-0.000097
 676	6.7162e+01	13.1050	45.304737	0.000426	4.259029	1.442998	-0.000170
 677	6.7262e+01	13.0633	45.163438	0.000355	3.549191	1.202499	-0.000142
 678	6.7362e+01	13.0232	45.058472	0.000264	2.636542	0.893285	-0.000105
 679	6.7461e+01	12.9750	44.921209	0.000345	3.447786	1.168141	-0.000138
 680	6.7561e+01	12.9462	44.787984	0.000335	3.346380	1.133784	-0.000134
 681	6.7660e+01	12.9109	44.670907	0.000294	2.940758	0.996356	-0.000118
 682	6.7760e+01	12.8611	44.549793	0.000304	3.042164	1.030713	-0.000122
 683	6.7859e+01	12.8290	44.372159	0.000446	4.461840	1.511712	-0.000179
 684	6.7959e+01	12.7938	44.251045	0.000304	3.042164	1.030713	-0.000122
 685	6.8058e+01	12.7520	44.077448	0.000436	4.360435	1.477355	-0.000174
 686	6.8157e+01	12.7103	43.968445	0.000274	2.737948	0.927642	-0.000110
 687	6.8257e+01	12.6734	43.859443	0.000274	2.737948	0.927642	-0.000110
 688	6.8356e+01	12.6221	43.726217	0.000335	3.346380	1.133784	-0.000134
 689	6.8456e+01	12.5788	43.580880	0.000365	3.650597	1.236856	-0.000146
 690	6.8555e+01	12.5563	43.479952	0.000254	2.535137	0.858928	-0.000101
 691	6.8655e+01	12.5114	43.342689	0.000345	3.447786	1.168141	-0.000138
 692	6.8754e+01	12.4649	43.229649	0.000284	2.839353	0.961999	-0.000114
 693	6.8854e+01	12.4280	43.056053	0.000436	4.360435	1.477355	-0.000174
 694	6.8954e+01	12.3943	42.878419	0.000446	4.461840	1.511712	-0.000179
 695	6.9053e+01	12.3462	42.765379	0.000284	2.839353	0.961999	-0.000114
 696	6.9153e+01	12.3045	42.632153	0.000335	3.346380	1.133784	-0.000134
 697	6.9252e+01	12.2724	42.450482	0.000456	4.563246	1.546070	-0.000183
 698	6.9352e+01	12.2307	42.337442	0.000284	2.839353	0.961999	-0.000114
 699	6.9451e+01	12.1906	42.212291	0.000314	3.143569	1.065070	-0.000126
 700	6.9550e+01	12.1456	42.087140	0.000314	3.143569	1.065070	-0.000126
 701	6.9650e+01	12.1023	41.917580	0.000426	4.259029	1.442998	-0.000170
 702	6.9749e+01	12.0767	41.796466	0.000304	3.042164	1.030713	-0.000122
 703	6.9849e+01	12.0317	41.663241	0.000335	3.346380	1.133784	-0.000134
 704	6.9948e+01	11.9836	41.501755	0.000406	4.056219	1.374284	-0.000162
 705	7.0048e+01	11.9499	41.388716	0.000284	2.839353	0.961999	-0.000114
 706	7.0147e+01	11.9050	41.247416	0.000355	3.549191	1.202499	-0.000142
 707	7.0247e+01	11.8665	41.085930	0.000406	4.056219	1.374284	-0.000162
 708	7.0347e+01	11.8312	40.980965	0.000264	2.636542	0.893285	-0.000105
 709	7.0446e+01	11.7879	40.843702	0.000345	3.447786	1.168141	-0.000138
 710	7.0546e+01	11.7510	40.686254	0.000395	3.954813	1.339927	-0.000158
 711	7.0645e+01	11.7141	40.553028	0.000335	3.346380	1.133784	-0.000134
 712	7.0745e+01	11.6692	40.411729	0.000355	3.549191	1.202499	-0.000142
 713	7.0844e+01	11.6243	40.294652	0.000294	2.940758	0.996356	-0.000118
 714	7.0944e+01	11.5890	40.125092	0.000426	4.259029	1.442998	-0.000170
 715	7.1043e+01	11.5505	39.991867	0.000335	3.346380	1.133784	-0.000134
 716	7.1142e+01	11.5136	39.850567	0.000355	3.549191	1.202499	-0.000142
 717	7.1242e+01	11.4735	39.713304	0.000345	3.447786	1.168141	-0.000138
 718	7.1341e+01	11.4382	39.576042	0.000345	3.447786	1.168141	-0.000138
 719	7.1441e+01	11.4029	39.463002	0.000284	2.839353	0.961999	-0.000114
 720	7.1540e+01	11.3580	39.317665	0.000365	3.650597	1.236856	-0.000146
 721	7.1640e+01	11.3098	39.160217	0.000395	3.954813	1.339927	-0.000158
 722	7.1740e+01	11.2713	39.010843	0.000375	3.752002	1.271213	-0.000150
 723	7.1839e+01	11.2296	38.885691	0.000314	3.143569	1.065070	-0.000126
 724	7.1939e+01	11.1879	38.724206	0.000406	4.056219	1.374284	-0.000162
 725	7.2038e+01	11.1446	38.635389	0.000223	2.230920	0.755856	-0.000089
 726	7.2138e+01	11.1077	38.453718	0.000456	4.563246	1.546070	-0.000183
 727	7.2237e+01	11.0740	38.356827	0.000243	2.433731	0.824570	-0.000097
 728	7.2337e+01	11.0403	38.171118	0.000466	4.664651	1.580427	-0.000187
 729	7.2436e+01	10.9922	38.062116	0.000274	2.737948	0.927642	-0.000110
 730	7.2535e+01	10.9601	37.936965	0.000314	3.143569	1.065070	-0.000126
 731	7.2635e+01	10.9120	37.763368	0.000436	4.360435	1.477355	-0.000174
 732	7.2734e+01	10.8751	37.642254	0.000304	3.042164	1.030713	-0.000122
 733	7.2834e+01	10.8366	37.492880	0.000375	3.752002	1.271213	-0.000150
 734	7.2933e+01	10.7933	37.359654	0.000335	3.346380	1.133784	-0.000134
 735	7.3033e+01	10.7532	37.218354	0.000355	3.549191	1.202499	-0.000142
 736	7.3132e+01	10.7131	37.073017	0.000365	3.650597	1.236856	-0.000146
 737	7.3232e+01	10.6730	36.927681	0.000365	3.650597	1.236856	-0.000146
 738	7.3332e+01	10.6280	36.834826	0.000233	2.332326	0.790213	-0.000093
 739	7.3431e+01	10.5976	36.685452	0.000375	3.752002	1.271213	-0.000150
 740	7.3531e+01	10.5639	36.540116	0.000365	3.650597	1.236856	-0.000146
 741	7.3630e+01	10.5174	36.374593	0.000416	4.157624	1.408641	-0.000166
 742	7.3730e+01	10.4756	36.269627	0.000264	2.636542	0.893285	-0.000105
 743	7.3829e+01	10.4339	36.091993	0.000446	4.461840	1.511712	-0.000179
 744	7.3928e+01	10.3922	35.966842	0.000314	3.143569	1.065070	-0.000126
 745	7.4028e+01	10.3633	35.853802	0.000284	2.839353	0.961999	-0.000114
 746	7.4127e+01	10.3104	35.704428	0.000375	3.752002	1.271213	-0.000150
 747	7.4227e+01	10.2751	35.559092	0.000365	3.650597	1.236856	-0.000146
 748	7.4326e+01	10.2398	35.401643	0.000395	3.954813	1.339927	-0.000158
 749	7.4426e+01	10.1949	35.240158	0.000406	4.056219	1.374284	-0.000162
 750	7.4525e+01	10.1516	35.115007	0.000314	3.143569	1.065070	-0.000126
 751	7.4625e+01	10.1179	34.937373	0.000446	4.461840	1.511712	-0.000179
 752	7.4725e+01	10.0794	34.864704	0.000183	1.825298	0.618428	-0.000073
 753	7.4824e+01	10.0313	34.711293	0.000385	3.853408	1.305570	-0.000154
 754	7.4924e+01	9.9928	34.574030	0.000345	3.447786	1.168141	-0.000138
 755	7.5023e+01	9.9527	34.396396	0.000446	4.461840	1.511712	-0.000179
 756	7.5123e+01	9.9174	34.291431	0.000264	2.636542	0.893285	-0.000105
 757	7.5222e+01	9.8676	34.142057	0.000375	3.752002	1.271213	-0.000150
 758	7.5322e+01	9.8323	33.972497	0.000426	4.259029	1.442998	-0.000170
 759	7.5421e+01	9.8051	33.827160	0.000365	3.650597	1.236856	-0.000146
 760	7.5520e+01	9.7569	33.722195	0.000264	2.636542	0.893285	-0.000105
 761	7.5620e+01	9.7233	33.552635	0.000426	4.259029	1.442998	-0.000170
 762	7.5719e+01	9.6767	33.415373	0.000345	3.447786	1.168141	-0.000138
 763	7.5819e+01	9.6382	33.257924	0.000395	3.954813	1.339927	-0.000158
 764	7.5918e+01	9.5981	33.136810	0.000304	3.042164	1.030713	-0.000122
 765	7.6018e+01	9.5692	32.975325	0.000406	4.056219	1.374284	-0.000162
 766	7.6118e+01	9.5275	32.902656	0.000183	1.825298	0.618428	-0.000073
 767	7.6217e+01	9.4762	32.737134	0.000416	4.157624	1.408641	-0.000166
 768	7.6317e+01	9.4457	32.632168	0.000264	2.636542	0.893285	-0.000105
 769	7.6416e+01	9.4040	32.446460	0.000466	4.664651	1.580427	-0.000187
 770	7.6516e+01	9.3639	32.276900	0.000426	4.259029	1.442998	-0.000170
 771	7.6615e+01	9.3190	32.159823	0.000294	2.940758	0.996356	-0.000118
 772	7.6715e+01	9.2805	32.050821	0.000274	2.737948	0.927642	-0.000110
 773	7.6814e+01	9.2404	31.869150	0.000456	4.563246	1.546070	-0.000183
 774	7.6913e+01	9.2019	31.735924	0.000335	3.346380	1.133784	-0.000134
 775	7.7013e+01	9.1666	31.618847	0.000294	2.940758	0.996356	-0.000118
 776	7.7112e+01	9.1169	31.449287	0.000426	4.259029	1.442998	-0.000170
 777	7.7212e+01	9.0864	31.295876	0.000385	3.853408	1.305570	-0.000154
 778	7.7311e+01	9.0415	31.170725	0.000314	3.143569	1.065070	-0.000126
 779	7.7411e+01	9.0014	31.053648	0.000294	2.940758	0.996356	-0.000118
 780	7.7510e+01	8.9677	30.916385	0.000345	3.447786	1.168141	-0.000138
 781	7.7610e+01	8.9227	30.734714	0.000456	4.563246	1.546070	-0.000183
 782	7.7710e+01	8.8923	30.609563	0.000314	3.143569	1.065070	-0.000126
 783	7.7809e+01	8.8377	30.492486	0.000294	2.940758	0.996356	-0.000118
 784	7.7909e+01	8.8088	30.371372	0.000304	3.042164	1.030713	-0.000122
 785	7.8008e+01	8.7752	30.201812	0.000426	4.259029	1.442998	-0.000170
 786	7.8108e+01	8.7270	30.044364	0.000395	3.954813	1.339927	-0.000158
 787	7.8207e+01	8.6725	29.907102	0.000345	3.447786	1.168141	-0.000138
 788	7.8306e+01	8.6532	29.826359	0.000203	2.028109	0.687142	-0.000081
 789	7.8406e+01	8.6003	29.652762	0.000436	4.360435	1.477355	-0.000174
 790	7.8505e+01	8.5730	29.539722	0.000284	2.839353	0.961999	-0.000114
 791	7.8605e+01	8.5281	29.394385	0.000365	3.650597	1.236856	-0.000146
 792	7.8704e+01	8.4832	29.249048	0.000365	3.650597	1.236856	-0.000146
 793	7.8804e+01	8.4383	29.107749	0.000355	3.549191	1.202499	-0.000142
 794	7.8903e+01	8.4110	28.974523	0.000335	3.346380	1.133784	-0.000134
 795	7.9003e+01	8.3613	28.825149	0.000375	3.752002	1.271213	-0.000150
 796	7.9103e+01	8.3244	28.716147	0.000274	2.737948	0.927642	-0.000110
 797	7.9202e+01	8.2714	28.514290	0.000507	5.070273	1.717855	-0.000203
 798	7.9302e+01	8.2474	28.397213	0.000294	2.940758	0.996356	-0.000118
 799	7.9401e+01	8.1960	28.243802	0.000385	3.853408	1.305570	-0.000154
 800	7.9501e+01	8.1607	28.078279	0.000416	4.157624	1.408641	-0.000166
 801	7.9600e+01	8.1286	27.977351	0.000254	2.535137	0.858928	-0.000101
 802	7.9700e+01	8.0837	27.836051	0.000355	3.549191	1.202499	-0.000142
 803	7.9799e+01	8.0468	27.650343	0.000466	4.664651	1.580427	-0.000187
 804	7.9898e+01	8.0067	27.569600	0.000203	2.028109	0.687142	-0.000081
 805	7.9998e+01	7.9698	27.440412	0.000324	3.244975	1.099427	-0.000130
 806	8.0097e+01	7.9265	27.254703	0.000466	4.664651	1.580427	-0.000187
 807	8.0197e+01	7.8832	27.129552	0.000314	3.143569	1.065070	-0.000126
 808	8.0296e+01	7.8367	26.951918	0.000446	4.461840	1.511712	-0.000179
 809	8.0396e+01	7.8062	26.850990	0.000254	2.535137	0.858928	-0.000101
 810	8.0496e+01	7.7629	26.701616	0.000375	3.752002	1.271213	-0.000150
 811	8.0595e+01	7.7260	26.548205	0.000385	3.853408	1.305570	-0.000154
 812	8.0695e+01	7.6827	26.423053	0.000314	3.143569	1.065070	-0.000126
 813	8.0794e+01	7.6490	26.310014	0.000284	2.839353	0.961999	-0.000114
 814	8.0894e+01	7.6057	26.100083	0.000527	5.273084	1.786569	-0.000211
 815	8.0993e+01	7.5720	26.011266	0.000223	2.230920	0.755856	-0.000089
 816	8.1093e+01	7.5206	25.869966	0.000355	3.549191	1.202499	-0.000142
 817	8.1192e+01	7.4886	25.696369	0.000436	4.360435	1.477355	-0.000174
 818	8.1291e+01	7.4452	25.538921	0.000395	3.954813	1.339927	-0.000158
 819	8.1391e+01	7.4019	25.409732	0.000324	3.244975	1.099427	-0.000130
 820	8.1490e+01	7.3634	25.260358	0.000375	3.752002	1.271213	-0.000150
 821	8.1590e+01	7.3394	25.119059	0.000355	3.549191	1.202499	-0.000142
 822	8.1689e+01	7.2944	24.977759	0.000355	3.549191	1.202499	-0.000142
 823	8.1789e+01	7.2431	24.800125	0.000446	4.461840	1.511712	-0.000179
 824	8.1888e+01	7.2190	24.703234	0.000243	2.433731	0.824570	-0.000097
 825	8.1988e+01	7.1645	24.525600	0.000446	4.461840	1.511712	-0.000179
 826	8.2088e+01	7.1292	24.376226	0.000375	3.752002	1.271213	-0.000150
 827	8.2187e+01	7.0827	24.271260	0.000264	2.636542	0.893285	-0.000105
 828	8.2287e+01	7.0538	24.158220	0.000284	2.839353	0.961999	-0.000114
 829	8.2386e+01	7.0041	23.956363	0.000507	5.070273	1.717855	-0.000203
 830	8.2486e+01	6.9608	23.847361	0.000274	2.737948	0.927642	-0.000110
 831	8.2585e+01	6.9335	23.693950	0.000385	3.853408	1.305570	-0.000154
 832	8.2684e+01	6.8966	23.540538	0.000385	3.853408	1.305570	-0.000154
 833	8.2784e+01	6.8517	23.407313	0.000335	3.346380	1.133784	-0.000134
 834	8.2883e+01	6.8132	23.290236	0.000294	2.940758	0.996356	-0.000118
 835	8.2983e+01	6.7715	23.136825	0.000385	3.853408	1.305570	-0.000154
 836	8.3082e+01	6.7346	22.983414	0.000385	3.853408	1.305570	-0.000154
 837	8.3182e+01	6.6913	22.801743	0.000456	4.563246	1.546070	-0.000183
 838	8.3281e+01	6.6544	22.696777	0.000264	2.636542	0.893285	-0.000105
 839	8.3381e+01	6.6046	22.563552	0.000335	3.346380	1.133784	-0.000134
 840	8.3481e+01	6.5677	22.418215	0.000365	3.650597	1.236856	-0.000146
 841	8.3580e+01	6.5260	22.248655	0.000426	4.259029	1.442998	-0.000170
 842	8.3680e+01	6.4939	22.127541	0.000304	3.042164	1.030713	-0.000122
 843	8.3779e+01	6.4458	22.018538	0.000274	2.737948	0.927642	-0.000110
 844	8.3879e+01	6.4153	21.881276	0.000345	3.447786	1.168141	-0.000138
 845	8.3978e+01	6.3752	21.699605	0.000456	4.563246	1.546070	-0.000183
 846	8.4078e+01	6.3399	21.546193	0.000385	3.853408	1.305570	-0.000154
 847	8.4177e+01	6.2886	21.437191	0.000274	2.737948	0.927642	-0.000110
 848	8.4276e+01	6.2645	21.287817	0.000375	3.752002	1.271213	-0.000150
 849	8.4376e+01	6.2164	21.130368	0.000395	3.954813	1.339927	-0.000158
 850	8.4475e+01	6.1779	20.972920	0.000395	3.954813	1.339927	-0.000158
 851	8.4575e+01	6.1426	20.827583	0.000365	3.650597	1.236856	-0.000146
 852	8.4674e+01	6.0929	20.662061	0.000416	4.157624	1.408641	-0.000166
 853	8.4774e+01	6.0576	20.565169	0.000243	2.433731	0.824570	-0.000097
 854	8.4874e+01	6.0111	20.375424	0.000477	4.766057	1.614784	-0.000191
 855	8.4973e+01	5.9790	20.242199	0.000335	3.346380	1.133784	-0.000134
 856	8.5073e+01	5.9405	20.092825	0.000375	3.752002	1.271213	-0.000150
 857	8.5172e+01	5.8956	19.947488	0.000365	3.650597	1.236856	-0.000146
 858	8.5272e+01	5.8651	19.814262	0.000335	3.346380	1.133784	-0.000134
 859	8.5371e+01	5.8137	19.640665	0.000436	4.360435	1.477355	-0.000174
 860	8.5471e+01	5.7801	19.519551	0.000304	3.042164	1.030713	-0.000122
 861	8.5570e+01	5.7351	19.349992	0.000426	4.259029	1.442998	-0.000170
 862	8.5669e+01	5.6950	19.204655	0.000365	3.650597	1.236856	-0.000146
 863	8.5769e+01	5.6501	19.055281	0.000375	3.752002	1.271213	-0.000150
 864	8.5868e+01	5.6084	18.938204	0.000294	2.940758	0.996356	-0.000118
 865	8.5968e+01	5.5731	18.768644	0.000426	4.259029	1.442998	-0.000170
 866	8.6067e+01	5.5506	18.647530	0.000304	3.042164	1.030713	-0.000122
 867	8.6167e+01	5.4993	18.437599	0.000527	5.273084	1.786569	-0.000211
 868	8.6266e+01	5.4560	18.304373	0.000335	3.346380	1.133784	-0.000134
 869	8.6366e+01	5.4127	18.167111	0.000345	3.447786	1.168141	-0.000138
 870	8.6466e+01	5.3790	18.025811	0.000355	3.549191	1.202499	-0.000142
 871	8.6565e+01	5.3453	17.852214	0.000436	4.360435	1.477355	-0.000174
 872	8.6665e+01	5.3004	17.723026	0.000324	3.244975	1.099427	-0.000130
 873	8.6764e+01	5.2539	17.569615	0.000385	3.853408	1.305570	-0.000154
 874	8.6864e+01	5.2186	17.400055	0.000426	4.259029	1.442998	-0.000170
 875	8.6963e+01	5.1801	17.266830	0.000335	3.346380	1.133784	-0.000134
 876	8.7063e+01	5.1384	17.089196	0.000446	4.461840	1.511712	-0.000179
 877	8.7162e+01	5.0983	16.964044	0.000314	3.143569	1.065070	-0.000126
 878	8.7261e+01	5.0549	16.818707	0.000365	3.650597	1.236856	-0.000146
 879	8.7361e+01	5.0164	16.653185	0.000416	4.157624	1.408641	-0.000166
 880	8.7460e+01	4.9860	16.511885	0.000355	3.549191	1.202499	-0.000142
 881	8.7560e+01	4.9378	16.358474	0.000385	3.853408	1.305570	-0.000154
 882	8.7659e+01	4.8961	16.188914	0.000426	4.259029	1.442998	-0.000170
 883	8.7759e+01	4.8656	16.015317	0.000436	4.360435	1.477355	-0.000174
 884	8.7859e+01	4.8191	15.902278	0.000284	2.839353	0.961999	-0.000114
 885	8.7958e+01	4.7902	15.744829	0.000395	3.954813	1.339927	-0.000158
 886	8.8058e+01	4.7341	15.623715	0.000304	3.042164	1.030713	-0.000122
 887	8.8157e+01	4.6988	15.518750	0.000264	2.636542	0.893285	-0.000105
 888	8.8257e+01	4.6651	15.365339	0.000385	3.853408	1.305570	-0.000154
 889	8.8356e+01	4.6202	15.175593	0.000477	4.766057	1.614784	-0.000191
 890	8.8456e+01	4.5785	15.014108	0.000406	4.056219	1.374284	-0.000162
 891	8.8555e+01	4.5352	14.880882	0.000335	3.346380	1.133784	-0.000134
 892	8.8654e+01	4.4983	14.723434	0.000395	3.954813	1.339927	-0.000158
 893	8.8754e+01	4.4598	14.582134	0.000355	3.549191	1.202499	-0.000142
 894	8.8853e+01	4.4181	14.436797	0.000365	3.650597	1.236856	-0.000146
 895	8.8953e+01	4.3876	14.283386	0.000385	3.853408	1.305570	-0.000154
 896	8.9052e+01	4.3411	14.174384	0.000274	2.737948	0.927642	-0.000110
 897	8.9152e+01	4.3009	13.988675	0.000466	4.664651	1.580427	-0.000187
 898	8.9251e+01	4.2544	13.843338	0.000365	3.650597	1.236856	-0.000146
 899	8.9351e+01	4.2159	13.698002	0.000365	3.650597	1.236856	-0.000146
 900	8.9451e+01	4.1854	13.532479	0.000416	4.157624	1.408641	-0.000166
 901	8.9550e+01	4.1485	13.403291	0.000324	3.244975	1.099427	-0.000130
 902	8.9650e+01	4.0940	13.274102	0.000324	3.244975	1.099427	-0.000130
 903	8.9749e+01	4.0619	13.080320	0.000487	4.867462	1.649141	-0.000195
 904	8.9849e+01	4.0170	12.971317	0.000274	2.737948	0.927642	-0.000110
 905	8.9948e+01	3.9833	12.781572	0.000477	4.766057	1.614784	-0.000191
 906	9.0047e+01	3.9448	12.632198	0.000375	3.752002	1.271213	-0.000150
 907	9.0147e+01	3.9047	12.515121	0.000294	2.940758	0.996356	-0.000118
 908	9.0246e+01	3.8550	12.385932	0.000324	3.244975	1.099427	-0.000130
 909	9.0346e+01	3.8229	12.180039	0.000517	5.171679	1.752212	-0.000207
 910	9.0445e+01	3.7748	12.046813	0.000335	3.346380	1.133784	-0.000134
 911	9.0545e+01	3.7330	11.893402	0.000385	3.853408	1.305570	-0.000154
 912	9.0644e+01	3.7058	11.768251	0.000314	3.143569	1.065070	-0.000126
 913	9.0744e+01	3.6625	11.606765	0.000406	4.056219	1.374284	-0.000162
 914	9.0844e+01	3.6224	11.421057	0.000466	4.664651	1.580427	-0.000187
 915	9.0943e+01	3.5935	11.324166	0.000243	2.433731	0.824570	-0.000097
 916	9.1043e+01	3.5438	11.142495	0.000456	4.563246	1.546070	-0.000183
 917	9.1142e+01	3.5069	10.985046	0.000395	3.954813	1.339927	-0.000158
 918	9.1242e+01	3.4635	10.876044	0.000274	2.737948	0.927642	-0.000110
 919	9.1341e+01	3.4347	10.738781	0.000345	3.447786	1.168141	-0.000138
 920	9.1441e+01	3.3897	10.553073	0.000466	4.664651	1.580427	-0.000187
 921	9.1540e+01	3.3384	10.371402	0.000456	4.563246	1.546070	-0.000183
 922	9.1639e+01	3.3047	10.246251	0.000314	3.143569	1.065070	-0.000126
 923	9.1739e+01	3.2614	10.108988	0.000345	3.447786	1.168141	-0.000138
 924	9.1838e+01	3.2341	9.979800	0.000324	3.244975	1.099427	-0.000130
 925	9.1938e+01	3.1892	9.810240	0.000426	4.259029	1.442998	-0.000170
 926	9.2037e+01	3.1475	9.632606	0.000446	4.461840	1.511712	-0.000179
 927	9.2137e+01	3.1106	9.519566	0.000284	2.839353	0.961999	-0.000114
 928	9.2237e+01	3.0657	9.345969	0.000436	4.360435	1.477355	-0.000174
 929	9.2336e+01	3.0144	9.192558	0.000385	3.853408	1.305570	-0.000154
 930	9.2436e+01	2.9823	9.010887	0.000456	4.563246	1.546070	-0.000183
 931	9.2535e+01	2.9390	8.905921	0.000264	2.636542	0.893285	-0.000105
 932	9.2635e+01	2.9005	8.704065	0.000507	5.070273	1.717855	-0.000203
 933	9.2734e+01	2.8571	8.607173	0.000243	2.433731	0.824570	-0.000097
 934	9.2834e+01	2.8299	8.441651	0.000416	4.157624	1.408641	-0.000166
 935	9.2933e+01	2.7785	8.316500	0.000314	3.143569	1.065070	-0.000126
 936	9.3032e+01	2.7448	8.175200	0.000355	3.549191	1.202499	-0.000142
 937	9.3132e+01	2.7031	8.005640	0.000426	4.259029	1.442998	-0.000170
 938	9.3231e+01	2.6678	7.872415	0.000335	3.346380	1.133784	-0.000134
 939	9.3331e+01	2.6197	7.727078	0.000365	3.650597	1.236856	-0.000146
 940	9.3430e+01	2.6005	7.541370	0.000466	4.664651	1.580427	-0.000187
 941	9.3530e+01	2.5475	7.363736	0.000446	4.461840	1.511712	-0.000179
 942	9.3629e+01	2.5090	7.270881	0.000233	2.332326	0.790213	-0.000093
 943	9.3729e+01	2.4705	7.161879	0.000274	2.737948	0.927642	-0.000110
 944	9.3829e+01	2.4256	6.955985	0.000517	5.171679	1.752212	-0.000207
 945	9.3928e+01	2.3903	6.834871	0.000304	3.042164	1.030713	-0.000122
 946	9.4028e+01	2.3518	6.681460	0.000385	3.853408	1.305570	-0.000154
 947	9.4127e+01	2.3133	6.552271	0.000324	3.244975	1.099427	-0.000130
 948	9.4227e+01	2.2748	6.386749	0.000416	4.157624	1.408641	-0.000166
 949	9.4326e+01	2.2283	6.261598	0.000314	3.143569	1.065070	-0.000126
 950	9.4425e+01	2.1946	6.128372	0.000335	3.346380	1.133784	-0.000134
 951	9.4525e+01	2.1481	5.987072	0.000355	3.549191	1.202499	-0.000142
 952	9.4624e+01	2.1112	5.841735	0.000365	3.650597	1.236856	-0.000146
 953	9.4724e+01	2.0630	5.680250	0.000406	4.056219	1.374284	-0.000162
 954	9.4823e+01	2.0390	5.510690	0.000426	4.259029	1.442998	-0.000170
 955	9.4923e+01	1.9876	5.357279	0.000385	3.853408	1.305570	-0.000154
 956	9.5022e+01	1.9572	5.203868	0.000385	3.853408	1.305570	-0.000154
 957	9.5122e+01	1.9171	5.050457	0.000385	3.853408	1.305570	-0.000154
 958	9.5222e+01	1.8770	4.925306	0.000314	3.143569	1.065070	-0.000126
 959	9.5321e+01	1.8240	4.792080	0.000335	3.346380	1.133784	-0.000134
 960	9.5421e+01	1.7823	4.658855	0.000335	3.346380	1.133784	-0.000134
 961	9.5520e+01	1.7502	4.509481	0.000375	3.752002	1.271213	-0.000150
 962	9.5620e+01	1.7085	4.380292	0.000324	3.244975	1.099427	-0.000130
 963	9.5719e+01	1.6780	4.226881	0.000385	3.853408	1.305570	-0.000154
 964	9.5819e+01	1.6235	4.061359	0.000416	4.157624	1.408641	-0.000166
 965	9.5918e+01	1.5850	3.911985	0.000375	3.752002	1.271213	-0.000150
 966	9.6017e+01	1.5545	3.742425	0.000426	4.259029	1.442998	-0.000170
 967	9.6117e+01	1.5112	3.645534	0.000243	2.433731	0.824570	-0.000097
 968	9.6216e+01	1.4807	3.463862	0.000456	4.563246	1.546070	-0.000183
 969	9.6316e+01	1.4358	3.342748	0.000304	3.042164	1.030713	-0.000122
 970	9.6415e+01	1.3877	3.185300	0.000395	3.954813	1.339927	-0.000158
 971	9.6515e+01	1.3524	3.011703	0.000436	4.360435	1.477355	-0.000174
 972	9.6615e+01	1.3042	2.894626	0.000294	2.940758	0.996356	-0.000118
 973	9.6714e+01	1.2770	2.733141	0.000406	4.056219	1.374284	-0.000162
 974	9.6814e+01	1.2353	2.616064	0.000294	2.940758	0.996356	-0.000118
 975	9.6913e+01	1.1968	2.442467	0.000436	4.360435	1.477355	-0.000174
 976	9.7013e+01	1.1518	2.329427	0.000284	2.839353	0.961999	-0.000114
 977	9.7112e+01	1.1037	2.115459	0.000537	5.374490	1.820926	-0.000215
 978	9.7212e+01	1.0748	1.974159	0.000355	3.549191	1.202499	-0.000142
 979	9.7311e+01	1.0283	1.840934	0.000335	3.346380	1.133784	-0.000134
 980	9.7410e+01	0.9946	1.707708	0.000335	3.346380	1.133784	-0.000134
 981	9.7510e+01	0.9545	1.546223	0.000406	4.056219	1.374284	-0.000162
 982	9.7609e+01	0.9096	1.441257	0.000264	2.636542	0.893285	-0.000105
 983	9.7709e+01	0.8759	1.263623	0.000446	4.461840	1.511712	-0.000179
 984	9.7808e+01	0.8374	1.146547	0.000294	2.940758	0.996356	-0.000118
 985	9.7908e+01	0.7861	0.920467	0.000568	5.678706	1.923998	-0.000227
 986	9.8007e+01	0.7524	0.779167	0.000355	3.549191	1.202499	-0.000142
 987	9.8107e+01	0.7139	0.686313	0.000233	2.332326	0.790213	-0.000093
 988	9.8207e+01	0.6706	0.528865	0.000395	3.954813	1.339927	-0.000158
 989	9.8306e+01	0.6385	0.339119	0.000477	4.766057	1.614784	-0.000191
 990	9.8406e+01	0.5968	0.230117	0.000274	2.737948	0.927642	-0.000110
 991	9.8505e+01	0.5438	0.068631	0.000406	4.056219	1.374284	-0.000162
 992	9.8605e+01	0.5118	-0.064594	0.000335	3.346380	1.133784	-0.000134
 993	9.8704e+01	0.4700	-0.189745	0.000314	3.143569	1.065070	-0.000126
 994	9.8803e+01	0.4347	-0.367379	0.000446	4.461840	1.511712	-0.000179
 995	9.8903e+01	0.3995	-0.524828	0.000395	3.954813	1.339927	-0.000158
 996	9.9002e+01	0.3610	-0.662090	0.000345	3.447786	1.168141	-0.000138
 997	9.9102e+01	0.3241	-0.811464	0.000375	3.752002	1.271213	-0.000150
 998	9.9201e+01	0.2695	-0.948727	0.000345	3.447786	1.168141	-0.000138
 999	9.9301e+01	0.2342	-1.102138	0.000385	3.853408	1.305570	-0.000154
1000	9.9400e+01	0.1941	-1.275735	0.000436	4.360435	1.477355	-0.000174
1001	9.9500e+01	0.1540	-1.408960	0.000335	3.346380	1.133784	-0.000134
1002	9.9600e+01	0.1123	-1.538149	0.000324	3.244975	1.099427	-0.000130
1003	9.9699e+01	0.0722	-1.715783	0.000446	4.461840	1.511712	-0.000179
1004	9.9799e+01	0.0337	-1.836897	0.000304	3.042164	1.030713	-0.000122
1005	9.9898e+01	0.0032	-1.970122	0.000335	3.346380	1.133784	-0.000134
1006	9.9998e+01	-0.0305	-2.091236	0.000304	3.042164	1.030713	-0.000122
1007	1.0010e+02	-0.0786	-2.236573	0.000365	3.650597	1.236856	-0.000146
1008	1.0020e+02	-0.1235	-2.369799	0.000335	3.346380	1.133784	-0.000134
1009	1.0030e+02	-0.1540	-2.523210	0.000385	3.853408	1.305570	-0.000154
1010	1.0040e+02	-0.1893	-2.676621	0.000385	3.853408	1.305570	-0.000154
1011	1.0050e+02	-0.2326	-2.825995	0.000375	3.752002	1.271213	-0.000150
1012	1.0059e+02	-0.2759	-2.971332	0.000365	3.650597	1.236856	-0.000146
1013	1.0069e+02	-0.3112	-3.108595	0.000345	3.447786	1.168141	-0.000138
1014	1.0079e+02	-0.3610	-3.270080	0.000406	4.056219	1.374284	-0.000162
1015	1.0089e+02	-0.3914	-3.443677	0.000436	4.360435	1.477355	-0.000174
1016	1.0099e+02	-0.4283	-3.589014	0.000365	3.650597	1.236856	-0.000146
1017	1.0109e+02	-0.4668	-3.722239	0.000335	3.346380	1.133784	-0.000134
1018	1.0119e+02	-0.5166	-3.871613	0.000375	3.752002	1.271213	-0.000150
1019	1.0129e+02	-0.5519	-4.016950	0.000365	3.650597	1.236856	-0.000146
1020	1.0139e+02	-0.5888	-4.142101	0.000314	3.143569	1.065070	-0.000126
1021	1.0149e+02	-0.6353	-4.319735	0.000446	4.461840	1.511712	-0.000179
1022	1.0159e+02	-0.6834	-4.461035	0.000355	3.549191	1.202499	-0.000142
1023	1.0169e+02	-0.7107	-4.598298	0.000345	3.447786	1.168141	-0.000138
1024	1.0179e+02	-0.7540	-4.751709	0.000385	3.853408	1.305570	-0.000154
1025	1.0189e+02	-0.7941	-4.880897	0.000324	3.244975	1.099427	-0.000130
1026	1.0199e+02	-0.8374	-5.042383	0.000406	4.056219	1.374284	-0.000162
1027	1.0209e+02	-0.8791	-5.171571	0.000324	3.244975	1.099427	-0.000130
1028	1.0219e+02	-0.9096	-5.329019	0.000395	3.954813	1.339927	-0.000158
1029	1.0229e+02	-0.9561	-5.522802	0.000487	4.867462	1.649141	-0.000195
1030	1.0239e+02	-0.9850	-5.647953	0.000314	3.143569	1.065070	-0.000126
1031	1.0248e+02	-1.0267	-5.777141	0.000324	3.244975	1.099427	-0.000130
1032	1.0258e+02	-1.0636	-5.942664	0.000416	4.157624	1.408641	-0.000166
1033	1.0268e+02	-1.1133	-6.120298	0.000446	4.461840	1.511712	-0.000179
1034	1.0278e+02	-1.1518	-6.261598	0.000355	3.549191	1.202499	-0.000142
1035	1.0288e+02	-1.1871	-6.370600	0.000274	2.737948	0.927642	-0.000110
1036	1.0298e+02	-1.2321	-6.503826	0.000335	3.346380	1.133784	-0.000134
1037	1.0308e+02	-1.2673	-6.693571	0.000477	4.766057	1.614784	-0.000191
1038	1.0318e+02	-1.3107	-6.867168	0.000436	4.360435	1.477355	-0.000174
1039	1.0328e+02	-1.3572	-7.000393	0.000335	3.346380	1.133784	-0.000134
1040	1.0338e+02	-1.3828	-7.169953	0.000426	4.259029	1.442998	-0.000170
1041	1.0348e+02	-1.4342	-7.295104	0.000314	3.143569	1.065070	-0.000126
1042	1.0358e+02	-1.4631	-7.448515	0.000385	3.853408	1.305570	-0.000154
1043	1.0368e+02	-1.5000	-7.593852	0.000365	3.650597	1.236856	-0.000146
1044	1.0378e+02	-1.5481	-7.775523	0.000456	4.563246	1.546070	-0.000183
1045	1.0388e+02	-1.5946	-7.884526	0.000274	2.737948	0.927642	-0.000110
1046	1.0398e+02	-1.6331	-8.005640	0.000304	3.042164	1.030713	-0.000122
1047	1.0408e+02	-1.6748	-8.183274	0.000446	4.461840	1.511712	-0.000179
1048	1.0418e+02	-1.7101	-8.332648	0.000375	3.752002	1.271213	-0.000150
1049	1.0428e+02	-1.7454	-8.482022	0.000375	3.752002	1.271213	-0.000150
1050	1.0438e+02	-1.7903	-8.623322	0.000355	3.549191	1.202499	-0.000142
1051	1.0447e+02	-1.8272	-8.796919	0.000436	4.360435	1.477355	-0.000174
1052	1.0457e+02	-1.8593	-8.926107	0.000324	3.244975	1.099427	-0.000130
1053	1.0467e+02	-1.9106	-9.075481	0.000375	3.752002	1.271213	-0.000150
1054	1.0477e+02	-1.9427	-9.224855	0.000375	3.752002	1.271213	-0.000150
1055	1.0487e+02	-1.9796	-9.358081	0.000335	3.346380	1.133784	-0.000134
1056	1.0497e+02	-2.0229	-9.551863	0.000487	4.867462	1.649141	-0.000195
1057	1.0507e+02	-2.0727	-9.636643	0.000213	2.129515	0.721499	-0.000085
1058	1.0517e+02	-2.1080	-9.786017	0.000375	3.752002	1.271213	-0.000150
1059	1.0527e+02	-2.1417	-9.911168	0.000314	3.143569	1.065070	-0.000126
1060	1.0537e+02	-2.1818	-10.100914	0.000477	4.766057	1.614784	-0.000191
1061	1.0547e+02	-2.2267	-10.262399	0.000406	4.056219	1.374284	-0.000162
1062	1.0557e+02	-2.2604	-10.387550	0.000314	3.143569	1.065070	-0.000126
1063	1.0567e+02	-2.3053	-10.536924	0.000375	3.752002	1.271213	-0.000150
1064	1.0577e+02	-2.3438	-10.674187	0.000345	3.447786	1.168141	-0.000138
1065	1.0587e+02	-2.3855	-10.815487	0.000355	3.549191	1.202499	-0.000142
1066	1.0597e+02	-2.4240	-10.993121	0.000446	4.461840	1.511712	-0.000179
1067	1.0607e+02	-2.4593	-11.146532	0.000385	3.853408	1.305570	-0.000154
1068	1.0617e+02	-2.5074	-11.267646	0.000304	3.042164	1.030713	-0.000122
1069	1.0627e+02	-2.5331	-11.429131	0.000406	4.056219	1.374284	-0.000162
1070	1.0637e+02	-2.5892	-11.546208	0.000294	2.940758	0.996356	-0.000118
1071	1.0647e+02	-2.6277	-11.667322	0.000304	3.042164	1.030713	-0.000122
1072	1.0656e+02	-2.6582	-11.869179	0.000507	5.070273	1.717855	-0.000203
1073	1.0666e+02	-2.7176	-11.982219	0.000284	2.839353	0.961999	-0.000114
1074	1.0676e+02	-2.7432	-12.188113	0.000517	5.171679	1.752212	-0.000207
1075	1.0686e+02	-2.7817	-12.285004	0.000243	2.433731	0.824570	-0.000097
1076	1.0696e+02	-2.8267	-12.454564	0.000426	4.259029	1.442998	-0.000170
1077	1.0706e+02	-2.8636	-12.599901	0.000365	3.650597	1.236856	-0.000146
1078	1.0716e+02	-2.9069	-12.696792	0.000243	2.433731	0.824570	-0.000097
1079	1.0726e+02	-2.9406	-12.862314	0.000416	4.157624	1.408641	-0.000166
1080	1.0736e+02	-2.9839	-12.991503	0.000324	3.244975	1.099427	-0.000130
1081	1.0746e+02	-3.0176	-13.177211	0.000466	4.664651	1.580427	-0.000187
1082	1.0756e+02	-3.0609	-13.310437	0.000335	3.346380	1.133784	-0.000134
1083	1.0766e+02	-3.1074	-13.459811	0.000375	3.752002	1.271213	-0.000150
1084	1.0776e+02	-3.1411	-13.588999	0.000324	3.244975	1.099427	-0.000130
1085	1.0786e+02	-3.1844	-13.738373	0.000375	3.752002	1.271213	-0.000150
1086	1.0796e+02	-3.2213	-13.863524	0.000314	3.143569	1.065070	-0.000126
1087	1.0806e+02	-3.2614	-14.069418	0.000517	5.171679	1.752212	-0.000207
1088	1.0816e+02	-3.3063	-14.150161	0.000203	2.028109	0.687142	-0.000081
1089	1.0826e+02	-3.3400	-14.295498	0.000365	3.650597	1.236856	-0.000146
1090	1.0836e+02	-3.3801	-14.444872	0.000375	3.752002	1.271213	-0.000150
1091	1.0845e+02	-3.4218	-14.618469	0.000436	4.360435	1.477355	-0.000174
1092	1.0855e+02	-3.4603	-14.715360	0.000243	2.433731	0.824570	-0.000097
1093	1.0865e+02	-3.5020	-14.892994	0.000446	4.461840	1.511712	-0.000179
1094	1.0875e+02	-3.5405	-15.046405	0.000385	3.853408	1.305570	-0.000154
1095	1.0885e+02	-3.5855	-15.179630	0.000335	3.346380	1.133784	-0.000134
1096	1.0895e+02	-3.6208	-15.316893	0.000345	3.447786	1.168141	-0.000138
1097	1.0905e+02	-3.6593	-15.502601	0.000466	4.664651	1.580427	-0.000187
1098	1.0915e+02	-3.6994	-15.603530	0.000254	2.535137	0.858928	-0.000101
1099	1.0925e+02	-3.7395	-15.760978	0.000395	3.954813	1.339927	-0.000158
1100	1.0935e+02	-3.7844	-15.882092	0.000304	3.042164	1.030713	-0.000122
1101	1.0945e+02	-3.8261	-16.071837	0.000477	4.766057	1.614784	-0.000191
1102	1.0955e+02	-3.8694	-16.168729	0.000243	2.433731	0.824570	-0.000097
1103	1.0965e+02	-3.8935	-16.358474	0.000477	4.766057	1.614784	-0.000191
1104	1.0975e+02	-3.9400	-16.483625	0.000314	3.143569	1.065070	-0.000126
1105	1.0985e+02	-3.9769	-16.661259	0.000446	4.461840	1.511712	-0.000179
1106	1.0995e+02	-4.0202	-16.737965	0.000193	1.926704	0.652785	-0.000077
1107	1.1005e+02	-4.0587	-16.899450	0.000406	4.056219	1.374284	-0.000162
1108	1.1015e+02	-4.1004	-17.028639	0.000324	3.244975	1.099427	-0.000130
1109	1.1025e+02	-4.1325	-17.153790	0.000314	3.143569	1.065070	-0.000126
1110	1.1035e+02	-4.1806	-17.331424	0.000446	4.461840	1.511712	-0.000179
1111	1.1044e+02	-4.2239	-17.472723	0.000355	3.549191	1.202499	-0.000142
1112	1.1054e+02	-4.2624	-17.622097	0.000375	3.752002	1.271213	-0.000150
1113	1.1064e+02	-4.2961	-17.678617	0.000142	1.419676	0.480999	-0.000057
1114	1.1074e+02	-4.3394	-17.900660	0.000558	5.577300	1.889641	-0.000223
1115	1.1084e+02	-4.3747	-18.033885	0.000335	3.346380	1.133784	-0.000134
1116	1.1094e+02	-4.4197	-18.154999	0.000304	3.042164	1.030713	-0.000122
1117	1.1104e+02	-4.4598	-18.255928	0.000254	2.535137	0.858928	-0.000101
1118	1.1114e+02	-4.5063	-18.433562	0.000446	4.461840	1.511712	-0.000179
1119	1.1124e+02	-4.5336	-18.566787	0.000335	3.346380	1.133784	-0.000134
1120	1.1134e+02	-4.5801	-18.683864	0.000294	2.940758	0.996356	-0.000118
1121	1.1144e+02	-4.6170	-18.800941	0.000294	2.940758	0.996356	-0.000118
1122	1.1154e+02	-4.6635	-18.986649	0.000466	4.664651	1.580427	-0.000187
1123	1.1164e+02	-4.6892	-19.140061	0.000385	3.853408	1.305570	-0.000154
1124	1.1174e+02	-4.7373	-19.245026	0.000264	2.636542	0.893285	-0.000105
1125	1.1184e+02	-4.7742	-19.382289	0.000345	3.447786	1.168141	-0.000138
1126	1.1194e+02	-4.8207	-19.531663	0.000375	3.752002	1.271213	-0.000150
1127	1.1204e+02	-4.8656	-19.664888	0.000335	3.346380	1.133784	-0.000134
1128	1.1214e+02	-4.8977	-19.790039	0.000314	3.143569	1.065070	-0.000126
1129	1.1224e+02	-4.9330	-19.915191	0.000314	3.143569	1.065070	-0.000126
1130	1.1234e+02	-4.9763	-20.060527	0.000365	3.650597	1.236856	-0.000146
1131	1.1244e+02	-5.0212	-20.205864	0.000365	3.650597	1.236856	-0.000146
1132	1.1253e+02	-5.0598	-20.335053	0.000324	3.244975	1.099427	-0.000130
1133	1.1263e+02	-5.0886	-20.444055	0.000274	2.737948	0.927642	-0.000110
1134	1.1273e+02	-5.1368	-20.649949	0.000517	5.171679	1.752212	-0.000207
1135	1.1283e+02	-5.1785	-20.726655	0.000193	1.926704	0.652785	-0.000077
1136	1.1293e+02	-5.2073	-20.880066	0.000385	3.853408	1.305570	-0.000154
1137	1.1303e+02	-5.2458	-21.025403	0.000365	3.650597	1.236856	-0.000146
1138	1.1313e+02	-5.2956	-21.146517	0.000304	3.042164	1.030713	-0.000122
1139	1.1323e+02	-5.3357	-21.299928	0.000385	3.853408	1.305570	-0.000154
1140	1.1333e+02	-5.3774	-21.441228	0.000355	3.549191	1.202499	-0.000142
1141	1.1343e+02	-5.4207	-21.566379	0.000314	3.143569	1.065070	-0.000126
1142	1.1353e+02	-5.4464	-21.715753	0.000375	3.752002	1.271213	-0.000150
1143	1.1363e+02	-5.4897	-21.865127	0.000375	3.752002	1.271213	-0.000150
1144	1.1373e+02	-5.5346	-21.962018	0.000243	2.433731	0.824570	-0.000097
1145	1.1383e+02	-5.5699	-22.163875	0.000507	5.070273	1.717855	-0.000203
1146	1.1393e+02	-5.6132	-22.276915	0.000284	2.839353	0.961999	-0.000114
1147	1.1403e+02	-5.6453	-22.434363	0.000395	3.954813	1.339927	-0.000158
1148	1.1413e+02	-5.6902	-22.523180	0.000223	2.230920	0.755856	-0.000089
1149	1.1423e+02	-5.7287	-22.684666	0.000406	4.056219	1.374284	-0.000162
1150	1.1433e+02	-5.7720	-22.817891	0.000335	3.346380	1.133784	-0.000134
1151	1.1442e+02	-5.8153	-22.890560	0.000183	1.825298	0.618428	-0.000073
1152	1.1452e+02	-5.8603	-23.060119	0.000426	4.259029	1.442998	-0.000170
1153	1.1462e+02	-5.8940	-23.209493	0.000375	3.752002	1.271213	-0.000150
1154	1.1472e+02	-5.9260	-23.358867	0.000375	3.752002	1.271213	-0.000150
1155	1.1482e+02	-5.9710	-23.471907	0.000284	2.839353	0.961999	-0.000114
1156	1.1492e+02	-6.0159	-23.665690	0.000487	4.867462	1.649141	-0.000195
1157	1.1502e+02	-6.0656	-23.762581	0.000243	2.433731	0.824570	-0.000097
1158	1.1512e+02	-6.0929	-23.899844	0.000345	3.447786	1.168141	-0.000138
1159	1.1522e+02	-6.1346	-24.033069	0.000335	3.346380	1.133784	-0.000134
1160	1.1532e+02	-6.1651	-24.186480	0.000385	3.853408	1.305570	-0.000154
1161	1.1542e+02	-6.2084	-24.303557	0.000294	2.940758	0.996356	-0.000118
1162	1.1552e+02	-6.2517	-24.444857	0.000355	3.549191	1.202499	-0.000142
1163	1.1562e+02	-6.2918	-24.586157	0.000355	3.549191	1.202499	-0.000142
1164	1.1572e+02	-6.3319	-24.719382	0.000335	3.346380	1.133784	-0.000134
1165	1.1582e+02	-6.3800	-24.856645	0.000345	3.447786	1.168141	-0.000138
1166	1.1592e+02	-6.4105	-24.977759	0.000304	3.042164	1.030713	-0.000122
1167	1.1602e+02	-6.4442	-25.115021	0.000345	3.447786	1.168141	-0.000138
1168	1.1612e+02	-6.5052	-25.224024	0.000274	2.737948	0.927642	-0.000110
1169	1.1622e+02	-6.5244	-25.345138	0.000304	3.042164	1.030713	-0.000122
1170	1.1632e+02	-6.5693	-25.534884	0.000477	4.766057	1.614784	-0.000191
1171	1.1642e+02	-6.6062	-25.611589	0.000193	1.926704	0.652785	-0.000077
1172	1.1651e+02	-6.6511	-25.765000	0.000385	3.853408	1.305570	-0.000154
1173	1.1661e+02	-6.6864	-25.922449	0.000395	3.954813	1.339927	-0.000158
1174	1.1671e+02	-6.7249	-26.047600	0.000314	3.143569	1.065070	-0.000126
1175	1.1681e+02	-6.7650	-26.172751	0.000314	3.143569	1.065070	-0.000126
1176	1.1691e+02	-6.8003	-26.314051	0.000355	3.549191	1.202499	-0.000142
1177	1.1701e+02	-6.8388	-26.431128	0.000294	2.940758	0.996356	-0.000118
1178	1.1711e+02	-6.8918	-26.564353	0.000335	3.346380	1.133784	-0.000134
1179	1.1721e+02	-6.9223	-26.673356	0.000274	2.737948	0.927642	-0.000110
1180	1.1731e+02	-6.9704	-26.863101	0.000477	4.766057	1.614784	-0.000191
1181	1.1741e+02	-7.0073	-26.959992	0.000243	2.433731	0.824570	-0.000097
1182	1.1751e+02	-7.0474	-27.117441	0.000395	3.954813	1.339927	-0.000158
1183	1.1761e+02	-7.0779	-27.198183	0.000203	2.028109	0.687142	-0.000081
1184	1.1771e+02	-7.1276	-27.396003	0.000497	4.968868	1.683498	-0.000199
1185	1.1781e+02	-7.1645	-27.553451	0.000395	3.954813	1.339927	-0.000158
1186	1.1791e+02	-7.2030	-27.646306	0.000233	2.332326	0.790213	-0.000093
1187	1.1801e+02	-7.2447	-27.755308	0.000274	2.737948	0.927642	-0.000110
1188	1.1811e+02	-7.2848	-27.892571	0.000345	3.447786	1.168141	-0.000138
1189	1.1821e+02	-7.3297	-28.029833	0.000345	3.447786	1.168141	-0.000138
1190	1.1831e+02	-7.3682	-28.154985	0.000314	3.143569	1.065070	-0.000126
1191	1.1841e+02	-7.4035	-28.328581	0.000436	4.360435	1.477355	-0.000174
1192	1.1850e+02	-7.4452	-28.433547	0.000264	2.636542	0.893285	-0.000105
1193	1.1860e+02	-7.4741	-28.607144	0.000436	4.360435	1.477355	-0.000174
1194	1.1870e+02	-7.5351	-28.687887	0.000203	2.028109	0.687142	-0.000081
1195	1.1880e+02	-7.5640	-28.809001	0.000304	3.042164	1.030713	-0.000122
1196	1.1890e+02	-7.6025	-28.962412	0.000385	3.853408	1.305570	-0.000154
1197	1.1900e+02	-7.6458	-29.136009	0.000436	4.360435	1.477355	-0.000174
1198	1.1910e+02	-7.6891	-29.257123	0.000304	3.042164	1.030713	-0.000122
1199	1.1920e+02	-7.7164	-29.362088	0.000264	2.636542	0.893285	-0.000105
1200	1.1930e+02	-7.7645	-29.527611	0.000416	4.157624	1.408641	-0.000166
1201	1.1940e+02	-7.8046	-29.672948	0.000365	3.650597	1.236856	-0.000146
1202	1.1950e+02	-7.8351	-29.830396	0.000395	3.954813	1.339927	-0.000158
1203	1.1960e+02	-7.8880	-29.911139	0.000203	2.028109	0.687142	-0.000081
1204	1.1970e+02	-7.9153	-30.052438	0.000355	3.549191	1.202499	-0.000142
1205	1.1980e+02	-7.9554	-30.209887	0.000395	3.954813	1.339927	-0.000158
1206	1.1990e+02	-7.9955	-30.331001	0.000304	3.042164	1.030713	-0.000122
1207	1.2000e+02	-8.0324	-30.472301	0.000355	3.549191	1.202499	-0.000142
1208	1.2010e+02	-8.0741	-30.581303	0.000274	2.737948	0.927642	-0.000110
1209	1.2020e+02	-8.1254	-30.762974	0.000456	4.563246	1.546070	-0.000183
1210	1.2030e+02	-8.1591	-30.908311	0.000365	3.650597	1.236856	-0.000146
1211	1.2039e+02	-8.1992	-31.005202	0.000243	2.433731	0.824570	-0.000097
1212	1.2049e+02	-8.2442	-31.130354	0.000314	3.143569	1.065070	-0.000126
1213	1.2059e+02	-8.2875	-31.259542	0.000324	3.244975	1.099427	-0.000130
1214	1.2069e+02	-8.3228	-31.396805	0.000345	3.447786	1.168141	-0.000138
1215	1.2079e+02	-8.3629	-31.542142	0.000365	3.650597	1.236856	-0.000146
1216	1.2089e+02	-8.4014	-31.663256	0.000304	3.042164	1.030713	-0.000122
1217	1.2099e+02	-8.4543	-31.768221	0.000264	2.636542	0.893285	-0.000105
1218	1.2109e+02	-8.4848	-31.957967	0.000477	4.766057	1.614784	-0.000191
1219	1.2119e+02	-8.5201	-32.030635	0.000183	1.825298	0.618428	-0.000073
1220	1.2129e+02	-8.5570	-32.216343	0.000466	4.664651	1.580427	-0.000187
1221	1.2139e+02	-8.5987	-32.341494	0.000314	3.143569	1.065070	-0.000126
1222	1.2149e+02	-8.6388	-32.450497	0.000274	2.737948	0.927642	-0.000110
1223	1.2159e+02	-8.6821	-32.595834	0.000365	3.650597	1.236856	-0.000146
1224	1.2169e+02	-8.7190	-32.741171	0.000365	3.650597	1.236856	-0.000146
1225	1.2179e+02	-8.7623	-32.878433	0.000345	3.447786	1.168141	-0.000138
1226	1.2189e+02	-8.7976	-32.959176	0.000203	2.028109	0.687142	-0.000081
1227	1.2199e+02	-8.8489	-33.088365	0.000324	3.244975	1.099427	-0.000130
1228	1.2209e+02	-8.8746	-33.265998	0.000446	4.461840	1.511712	-0.000179
1229	1.2219e+02	-8.9163	-33.362890	0.000243	2.433731	0.824570	-0.000097
1230	1.2229e+02	-8.9580	-33.500152	0.000345	3.447786	1.168141	-0.000138
1231	1.2239e+02	-8.9997	-33.649526	0.000375	3.752002	1.271213	-0.000150
1232	1.2248e+02	-9.0431	-33.770640	0.000304	3.042164	1.030713	-0.000122
1233	1.2258e+02	-9.0751	-33.903866	0.000335	3.346380	1.133784	-0.000134
1234	1.2268e+02	-9.1201	-34.057277	0.000385	3.853408	1.305570	-0.000154
1235	1.2278e+02	-9.1554	-34.178391	0.000304	3.042164	1.030713	-0.000122
1236	1.2288e+02	-9.1971	-34.271245	0.000233	2.332326	0.790213	-0.000093
1237	1.2298e+02	-9.2484	-34.420619	0.000375	3.752002	1.271213	-0.000150
1238	1.2308e+02	-9.2837	-34.569993	0.000375	3.752002	1.271213	-0.000150
1239	1.2318e+02	-9.3206	-34.683033	0.000284	2.839353	0.961999	-0.000114
1240	1.2328e+02	-9.3511	-34.783962	0.000254	2.535137	0.858928	-0.000101
1241	1.2338e+02	-9.3960	-34.917187	0.000335	3.346380	1.133784	-0.000134
1242	1.2348e+02	-9.4393	-35.050412	0.000335	3.346380	1.133784	-0.000134
1243	1.2358e+02	-9.4826	-35.211898	0.000406	4.056219	1.374284	-0.000162
1244	1.2368e+02	-9.5179	-35.296678	0.000213	2.129515	0.721499	-0.000085
1245	1.2378e+02	-9.5548	-35.429903	0.000335	3.346380	1.133784	-0.000134
1246	1.2388e+02	-9.5965	-35.563129	0.000335	3.346380	1.133784	-0.000134
1247	1.2398e+02	-9.6479	-35.688280	0.000314	3.143569	1.065070	-0.000126
1248	1.2408e+02	-9.6655	-35.845728	0.000395	3.954813	1.339927	-0.000158
1249	1.2418e+02	-9.7168	-35.942619	0.000243	2.433731	0.824570	-0.000097
1250	1.2428e+02	-9.7553	-36.100068	0.000395	3.954813	1.339927	-0.000158
1251	1.2438e+02	-9.7938	-36.229256	0.000324	3.244975	1.099427	-0.000130
1252	1.2447e+02	-9.8323	-36.350370	0.000304	3.042164	1.030713	-0.000122
1253	1.2457e+02	-9.8741	-36.467447	0.000294	2.940758	0.996356	-0.000118
1254	1.2467e+02	-9.9158	-36.580487	0.000284	2.839353	0.961999	-0.000114
1255	1.2477e+02	-9.9559	-36.709675	0.000324	3.244975	1.099427	-0.000130
1256	1.2487e+02	-9.9928	-36.863086	0.000385	3.853408	1.305570	-0.000154
1257	1.2497e+02	-10.0297	-37.012460	0.000375	3.752002	1.271213	-0.000150
1258	1.2507e+02	-10.0762	-37.129537	0.000294	2.940758	0.996356	-0.000118
1259	1.2517e+02	-10.1227	-37.246614	0.000294	2.940758	0.996356	-0.000118
1260	1.2527e+02	-10.1468	-37.375803	0.000324	3.244975	1.099427	-0.000130
1261	1.2537e+02	-10.1901	-37.504991	0.000324	3.244975	1.099427	-0.000130
1262	1.2547e+02	-10.2334	-37.609957	0.000264	2.636542	0.893285	-0.000105
1263	1.2557e+02	-10.2607	-37.775479	0.000416	4.157624	1.408641	-0.000166
1264	1.2567e+02	-10.3168	-37.856222	0.000203	2.028109	0.687142	-0.000081
1265	1.2577e+02	-10.3457	-38.021744	0.000416	4.157624	1.408641	-0.000166
1266	1.2587e+02	-10.3970	-38.146896	0.000314	3.143569	1.065070	-0.000126
1267	1.2597e+02	-10.4307	-38.268010	0.000304	3.042164	1.030713	-0.000122
1268	1.2607e+02	-10.4740	-38.372975	0.000264	2.636542	0.893285	-0.000105
1269	1.2617e+02	-10.5190	-38.514275	0.000355	3.549191	1.202499	-0.000142
1270	1.2627e+02	-10.5575	-38.643463	0.000324	3.244975	1.099427	-0.000130
1271	1.2636e+02	-10.5911	-38.764577	0.000304	3.042164	1.030713	-0.000122
1272	1.2646e+02	-10.6248	-38.942211	0.000446	4.461840	1.511712	-0.000179
1273	1.2656e+02	-10.6746	-38.994694	0.000132	1.318271	0.446642	-0.000053
1274	1.2666e+02	-10.7115	-39.172328	0.000446	4.461840	1.511712	-0.000179
1275	1.2676e+02	-10.7468	-39.289405	0.000294	2.940758	0.996356	-0.000118
1276	1.2686e+02	-10.7869	-39.366111	0.000193	1.926704	0.652785	-0.000077
1277	1.2696e+02	-10.8270	-39.527596	0.000406	4.056219	1.374284	-0.000162
1278	1.2706e+02	-10.8671	-39.652747	0.000314	3.143569	1.065070	-0.000126
1279	1.2716e+02	-10.9056	-39.729453	0.000193	1.926704	0.652785	-0.000077
1280	1.2726e+02	-10.9457	-39.874790	0.000365	3.650597	1.236856	-0.000146
1281	1.2736e+02	-10.9906	-39.991867	0.000294	2.940758	0.996356	-0.000118
1282	1.2746e+02	-11.0259	-40.092795	0.000254	2.535137	0.858928	-0.000101
1283	1.2756e+02	-11.0692	-40.262355	0.000426	4.259029	1.442998	-0.000170
1284	1.2766e+02	-11.1141	-40.375395	0.000284	2.839353	0.961999	-0.000114
1285	1.2776e+02	-11.1446	-40.476323	0.000254	2.535137	0.858928	-0.000101
1286	1.2786e+02	-11.1895	-40.617623	0.000355	3.549191	1.202499	-0.000142
1287	1.2796e+02	-11.2312	-40.718551	0.000254	2.535137	0.858928	-0.000101
1288	1.2806e+02	-11.2665	-40.867925	0.000375	3.752002	1.271213	-0.000150
1289	1.2816e+02	-11.3050	-40.964816	0.000243	2.433731	0.824570	-0.000097
1290	1.2826e+02	-11.3532	-41.106116	0.000355	3.549191	1.202499	-0.000142
1291	1.2835e+02	-11.3949	-41.207044	0.000254	2.535137	0.858928	-0.000101
1292	1.2845e+02	-11.4221	-41.303936	0.000243	2.433731	0.824570	-0.000097
1293	1.2855e+02	-11.4735	-41.437161	0.000335	3.346380	1.133784	-0.000134
1294	1.2865e+02	-11.5056	-41.546164	0.000274	2.737948	0.927642	-0.000110
1295	1.2875e+02	-11.5441	-41.687464	0.000355	3.549191	1.202499	-0.000142
1296	1.2885e+02	-11.5826	-41.796466	0.000274	2.737948	0.927642	-0.000110
1297	1.2895e+02	-11.6211	-41.945840	0.000375	3.752002	1.271213	-0.000150
1298	1.2905e+02	-11.6628	-42.050806	0.000264	2.636542	0.893285	-0.000105
1299	1.2915e+02	-11.7077	-42.188068	0.000345	3.447786	1.168141	-0.000138
1300	1.2925e+02	-11.7510	-42.248625	0.000152	1.521082	0.515357	-0.000061
1301	1.2935e+02	-11.7815	-42.406074	0.000395	3.954813	1.339927	-0.000158
1302	1.2945e+02	-11.8312	-42.511039	0.000264	2.636542	0.893285	-0.000105
1303	1.2955e+02	-11.8697	-42.644265	0.000335	3.346380	1.133784	-0.000134
1304	1.2965e+02	-11.9066	-42.745193	0.000254	2.535137	0.858928	-0.000101
1305	1.2975e+02	-11.9467	-42.886493	0.000355	3.549191	1.202499	-0.000142
1306	1.2985e+02	-11.9836	-43.015681	0.000324	3.244975	1.099427	-0.000130
1307	1.2995e+02	-12.0285	-43.161018	0.000365	3.650597	1.236856	-0.000146
1308	1.3005e+02	-12.0590	-43.265984	0.000264	2.636542	0.893285	-0.000105
1309	1.3015e+02	-12.1120	-43.362875	0.000243	2.433731	0.824570	-0.000097
1310	1.3025e+02	-12.1456	-43.496100	0.000335	3.346380	1.133784	-0.000134
1311	1.3034e+02	-12.1745	-43.629326	0.000335	3.346380	1.133784	-0.000134
1312	1.3044e+02	-12.2275	-43.726217	0.000243	2.433731	0.824570	-0.000097
1313	1.3054e+02	-12.2756	-43.883665	0.000395	3.954813	1.339927	-0.000158
1314	1.3064e+02	-12.2932	-43.996705	0.000284	2.839353	0.961999	-0.000114
1315	1.3074e+02	-12.3430	-44.097634	0.000254	2.535137	0.858928	-0.000101
1316	1.3084e+02	-12.3863	-44.178376	0.000203	2.028109	0.687142	-0.000081
1317	1.3094e+02	-12.4216	-44.347936	0.000426	4.259029	1.442998	-0.000170
1318	1.3104e+02	-12.4617	-44.477124	0.000324	3.244975	1.099427	-0.000130
1319	1.3114e+02	-12.5146	-44.545756	0.000172	1.723893	0.584071	-0.000069
1320	1.3124e+02	-12.5339	-44.715315	0.000426	4.259029	1.442998	-0.000170
1321	1.3134e+02	-12.5884	-44.804132	0.000223	2.230920	0.755856	-0.000089
1322	1.3144e+02	-12.6221	-44.921209	0.000294	2.940758	0.996356	-0.000118
1323	1.3154e+02	-12.6590	-45.098843	0.000446	4.461840	1.511712	-0.000179
1324	1.3164e+02	-12.7023	-45.203809	0.000264	2.636542	0.893285	-0.000105
1325	1.3174e+02	-12.7408	-45.296663	0.000233	2.332326	0.790213	-0.000093
1326	1.3184e+02	-12.7793	-45.442000	0.000365	3.650597	1.236856	-0.000146
1327	1.3194e+02	-12.8226	-45.555040	0.000284	2.839353	0.961999	-0.000114
1328	1.3204e+02	-12.8611	-45.660005	0.000264	2.636542	0.893285	-0.000105
1329	1.3214e+02	-12.8996	-45.773045	0.000284	2.839353	0.961999	-0.000114
1330	1.3224e+02	-12.9430	-45.914345	0.000355	3.549191	1.202499	-0.000142
1331	1.3234e+02	-12.9831	-45.987013	0.000183	1.825298	0.618428	-0.000073
1332	1.3243e+02	-13.0232	-46.104090	0.000294	2.940758	0.996356	-0.000118
1333	1.3253e+02	-13.0585	-46.269613	0.000416	4.157624	1.408641	-0.000166
1334	1.3263e+02	-13.1002	-46.378615	0.000274	2.737948	0.927642	-0.000110
1335	1.3273e+02	-13.1322	-46.455321	0.000193	1.926704	0.652785	-0.000077
1336	1.3283e+02	-13.1788	-46.608732	0.000385	3.853408	1.305570	-0.000154
1337	1.3293e+02	-13.2157	-46.729846	0.000304	3.042164	1.030713	-0.000122
1338	1.3303e+02	-13.2606	-46.830775	0.000254	2.535137	0.858928	-0.000101
1339	1.3313e+02	-13.3007	-47.032631	0.000507	5.070273	1.717855	-0.000203
1340	1.3323e+02	-13.3344	-47.085114	0.000132	1.318271	0.446642	-0.000053
1341	1.3333e+02	-13.3905	-47.165857	0.000203	2.028109	0.687142	-0.000081
1342	1.3343e+02	-13.4242	-47.295045	0.000324	3.244975	1.099427	-0.000130
1343	1.3353e+02	-13.4563	-47.432308	0.000345	3.447786	1.168141	-0.000138
1344	1.3363e+02	-13.4964	-47.541310	0.000274	2.737948	0.927642	-0.000110
1345	1.3373e+02	-13.5445	-47.670499	0.000324	3.244975	1.099427	-0.000130
1346	1.3383e+02	-13.5750	-47.767390	0.000243	2.433731	0.824570	-0.000097
1347	1.3393e+02	-13.6167	-47.848133	0.000203	2.028109	0.687142	-0.000081
1348	1.3403e+02	-13.6552	-48.017692	0.000426	4.259029	1.442998	-0.000170
1349	1.3413e+02	-13.6985	-48.090361	0.000183	1.825298	0.618428	-0.000073
1350	1.3423e+02	-13.7274	-48.247809	0.000395	3.954813	1.339927	-0.000158
1351	1.3432e+02	-13.7707	-48.352775	0.000264	2.636542	0.893285	-0.000105
1352	1.3442e+02	-13.8237	-48.473889	0.000304	3.042164	1.030713	-0.000122
1353	1.3452e+02	-13.8558	-48.615189	0.000355	3.549191	1.202499	-0.000142
1354	1.3462e+02	-13.8991	-48.728228	0.000284	2.839353	0.961999	-0.000114
1355	1.3472e+02	-13.9392	-48.837231	0.000274	2.737948	0.927642	-0.000110
1356	1.3482e+02	-13.9777	-48.946234	0.000274	2.737948	0.927642	-0.000110
1357	1.3492e+02	-14.0226	-49.083496	0.000345	3.447786	1.168141	-0.000138
1358	1.3502e+02	-14.0483	-49.204610	0.000304	3.042164	1.030713	-0.000122
1359	1.3512e+02	-14.0884	-49.313613	0.000274	2.737948	0.927642	-0.000110
1360	1.3522e+02	-14.1349	-49.406467	0.000233	2.332326	0.790213	-0.000093
1361	1.3532e+02	-14.1846	-49.559878	0.000385	3.853408	1.305570	-0.000154
1362	1.3542e+02	-14.2231	-49.660807	0.000254	2.535137	0.858928	-0.000101
1363	1.3552e+02	-14.2568	-49.773847	0.000284	2.839353	0.961999	-0.000114
1364	1.3562e+02	-14.2921	-49.923221	0.000375	3.752002	1.271213	-0.000150
1365	1.3572e+02	-14.3306	-50.024149	0.000254	2.535137	0.858928	-0.000101
1366	1.3582e+02	-14.3755	-50.121040	0.000243	2.433731	0.824570	-0.000097
1367	1.3592e+02	-14.4092	-50.238117	0.000294	2.940758	0.996356	-0.000118
1368	1.3602e+02	-14.4606	-50.391528	0.000385	3.853408	1.305570	-0.000154
1369	1.3612e+02	-14.4926	-50.492457	0.000254	2.535137	0.858928	-0.000101
1370	1.3622e+02	-14.5327	-50.645868	0.000385	3.853408	1.305570	-0.000154
1371	1.3631e+02	-14.5777	-50.726611	0.000203	2.028109	0.687142	-0.000081
1372	1.3641e+02	-14.6178	-50.888096	0.000406	4.056219	1.374284	-0.000162
1373	1.3651e+02	-14.6579	-50.956727	0.000172	1.723893	0.584071	-0.000069
1374	1.3661e+02	-14.7012	-51.122250	0.000416	4.157624	1.408641	-0.000166
1375	1.3671e+02	-14.7317	-51.202993	0.000203	2.028109	0.687142	-0.000081
1376	1.3681e+02	-14.7718	-51.380627	0.000446	4.461840	1.511712	-0.000179
1377	1.3691e+02	-14.8055	-51.465406	0.000213	2.129515	0.721499	-0.000085
1378	1.3701e+02	-14.8536	-51.554223	0.000223	2.230920	0.755856	-0.000089
1379	1.3711e+02	-14.8937	-51.711672	0.000395	3.954813	1.339927	-0.000158
1380	1.3721e+02	-14.9306	-51.828749	0.000294	2.940758	0.996356	-0.000118
1381	1.3731e+02	-14.9739	-51.921603	0.000233	2.332326	0.790213	-0.000093
1382	1.3741e+02	-15.0188	-52.079051	0.000395	3.954813	1.339927	-0.000158
1383	1.3751e+02	-15.0557	-52.196128	0.000294	2.940758	0.996356	-0.000118
1384	1.3761e+02	-15.0910	-52.280908	0.000213	2.129515	0.721499	-0.000085
1385	1.3771e+02	-15.1343	-52.418170	0.000345	3.447786	1.168141	-0.000138
1386	1.3781e+02	-15.1744	-52.551396	0.000335	3.346380	1.133784	-0.000134
1387	1.3791e+02	-15.2145	-52.644250	0.000233	2.332326	0.790213	-0.000093
1388	1.3801e+02	-15.2450	-52.789587	0.000365	3.650597	1.236856	-0.000146
1389	1.3811e+02	-15.2996	-52.918775	0.000324	3.244975	1.099427	-0.000130
1390	1.3821e+02	-15.3365	-53.007592	0.000223	2.230920	0.755856	-0.000089
1391	1.3831e+02	-15.3798	-53.128706	0.000304	3.042164	1.030713	-0.000122
1392	1.3840e+02	-15.4103	-53.249820	0.000304	3.042164	1.030713	-0.000122
1393	1.3850e+02	-15.4520	-53.391120	0.000355	3.549191	1.202499	-0.000142
1394	1.3860e+02	-15.4905	-53.467826	0.000193	1.926704	0.652785	-0.000077
1395	1.3870e+02	-15.5322	-53.588940	0.000304	3.042164	1.030713	-0.000122
1396	1.3880e+02	-15.5723	-53.726202	0.000345	3.447786	1.168141	-0.000138
1397	1.3890e+02	-15.6140	-53.835205	0.000274	2.737948	0.927642	-0.000110
1398	1.3900e+02	-15.6573	-53.940171	0.000264	2.636542	0.893285	-0.000105
1399	1.3910e+02	-15.6958	-54.085507	0.000365	3.650597	1.236856	-0.000146
1400	1.3920e+02	-15.7295	-54.186436	0.000254	2.535137	0.858928	-0.000101
1401	1.3930e+02	-15.7696	-54.299476	0.000284	2.839353	0.961999	-0.000114
1402	1.3940e+02	-15.8129	-54.396367	0.000243	2.433731	0.824570	-0.000097
1403	1.3950e+02	-15.8498	-54.533630	0.000345	3.447786	1.168141	-0.000138
1404	1.3960e+02	-15.8947	-54.662818	0.000324	3.244975	1.099427	-0.000130
1405	1.3970e+02	-15.9332	-54.767783	0.000264	2.636542	0.893285	-0.000105
1406	1.3980e+02	-15.9701	-54.856600	0.000223	2.230920	0.755856	-0.000089
1407	1.3990e+02	-16.0054	-54.981752	0.000314	3.143569	1.065070	-0.000126
1408	1.4000e+02	-16.0391	-55.098829	0.000294	2.940758	0.996356	-0.000118
1409	1.4010e+02	-16.0953	-55.236091	0.000345	3.447786	1.168141	-0.000138
1410	1.4020e+02	-16.1290	-55.320871	0.000213	2.129515	0.721499	-0.000085
1411	1.4029e+02	-16.1755	-55.466208	0.000365	3.650597	1.236856	-0.000146
1412	1.4039e+02	-16.2108	-55.563099	0.000243	2.433731	0.824570	-0.000097
1413	1.4049e+02	-16.2557	-55.692288	0.000324	3.244975	1.099427	-0.000130
1414	1.4059e+02	-16.2926	-55.825513	0.000335	3.346380	1.133784	-0.000134
1415	1.4069e+02	-16.3359	-55.942590	0.000294	2.940758	0.996356	-0.000118
1416	1.4079e+02	-16.3744	-56.023333	0.000203	2.028109	0.687142	-0.000081
1417	1.4089e+02	-16.4065	-56.120224	0.000243	2.433731	0.824570	-0.000097
1418	1.4099e+02	-16.4498	-56.285746	0.000416	4.157624	1.408641	-0.000166
1419	1.4109e+02	-16.4963	-56.346303	0.000152	1.521082	0.515357	-0.000061
1420	1.4119e+02	-16.5268	-56.511826	0.000416	4.157624	1.408641	-0.000166
1421	1.4129e+02	-16.5637	-56.632940	0.000304	3.042164	1.030713	-0.000122
1422	1.4139e+02	-16.6022	-56.750017	0.000294	2.940758	0.996356	-0.000118
1423	1.4149e+02	-16.6471	-56.863057	0.000284	2.839353	0.961999	-0.000114
1424	1.4159e+02	-16.6808	-56.988208	0.000314	3.143569	1.065070	-0.000126
1425	1.4169e+02	-16.7354	-57.093174	0.000264	2.636542	0.893285	-0.000105
1426	1.4179e+02	-16.7690	-57.242548	0.000375	3.752002	1.271213	-0.000150
1427	1.4189e+02	-16.8108	-57.311179	0.000172	1.723893	0.584071	-0.000069
1428	1.4199e+02	-16.8541	-57.452479	0.000355	3.549191	1.202499	-0.000142
1429	1.4209e+02	-16.8813	-57.565518	0.000284	2.839353	0.961999	-0.000114
1430	1.4219e+02	-16.9231	-57.674521	0.000274	2.737948	0.927642	-0.000110
1431	1.4228e+02	-16.9680	-57.811784	0.000345	3.447786	1.168141	-0.000138
1432	1.4238e+02	-17.0081	-57.936935	0.000314	3.143569	1.065070	-0.000126
1433	1.4248e+02	-17.0450	-58.033826	0.000243	2.433731	0.824570	-0.000097
1434	1.4258e+02	-17.0867	-58.175126	0.000355	3.549191	1.202499	-0.000142
1435	1.4268e+02	-17.1300	-58.288166	0.000284	2.839353	0.961999	-0.000114
1436	1.4278e+02	-17.1701	-58.417354	0.000324	3.244975	1.099427	-0.000130
1437	1.4288e+02	-17.2086	-58.510208	0.000233	2.332326	0.790213	-0.000093
1438	1.4298e+02	-17.2455	-58.599025	0.000223	2.230920	0.755856	-0.000089
1439	1.4308e+02	-17.2920	-58.752436	0.000385	3.853408	1.305570	-0.000154
1440	1.4318e+02	-17.3273	-58.849328	0.000243	2.433731	0.824570	-0.000097
1441	1.4328e+02	-17.3626	-58.954293	0.000264	2.636542	0.893285	-0.000105
1442	1.4338e+02	-17.4011	-59.095593	0.000355	3.549191	1.202499	-0.000142
1443	1.4348e+02	-17.4428	-59.160187	0.000162	1.622487	0.549714	-0.000065
1444	1.4358e+02	-17.4813	-59.321673	0.000406	4.056219	1.374284	-0.000162
1445	1.4368e+02	-17.5198	-59.406452	0.000213	2.129515	0.721499	-0.000085
1446	1.4378e+02	-17.5583	-59.507381	0.000254	2.535137	0.858928	-0.000101
1447	1.4388e+02	-17.5968	-59.676940	0.000426	4.259029	1.442998	-0.000170
1448	1.4398e+02	-17.6369	-59.733460	0.000142	1.419676	0.480999	-0.000057
1449	1.4408e+02	-17.6931	-59.878797	0.000365	3.650597	1.236856	-0.000146
1450	1.4418e+02	-17.7155	-59.991837	0.000284	2.839353	0.961999	-0.000114
1451	1.4428e+02	-17.7733	-60.133137	0.000355	3.549191	1.202499	-0.000142
1452	1.4437e+02	-17.8070	-60.230028	0.000243	2.433731	0.824570	-0.000097
1453	1.4447e+02	-17.8391	-60.339031	0.000274	2.737948	0.927642	-0.000110
1454	1.4457e+02	-17.8776	-60.411699	0.000183	1.825298	0.618428	-0.000073
1455	1.4467e+02	-17.9177	-60.585296	0.000436	4.360435	1.477355	-0.000174
1456	1.4477e+02	-17.9546	-60.698336	0.000284	2.839353	0.961999	-0.000114
1457	1.4487e+02	-17.9915	-60.803301	0.000264	2.636542	0.893285	-0.000105
1458	1.4497e+02	-18.0524	-60.896155	0.000233	2.332326	0.790213	-0.000093
1459	1.4507e+02	-18.0845	-61.041492	0.000365	3.650597	1.236856	-0.000146
1460	1.4517e+02	-18.1166	-61.134346	0.000233	2.332326	0.790213	-0.000093
1461	1.4527e+02	-18.1727	-61.255461	0.000304	3.042164	1.030713	-0.000122
1462	1.4537e+02	-18.2000	-61.372537	0.000294	2.940758	0.996356	-0.000118
1463	1.4547e+02	-18.2449	-61.481540	0.000274	2.737948	0.927642	-0.000110
1464	1.4557e+02	-18.2802	-61.618803	0.000345	3.447786	1.168141	-0.000138
1465	1.4567e+02	-18.3203	-61.715694	0.000243	2.433731	0.824570	-0.000097
1466	1.4577e+02	-18.3669	-61.836808	0.000304	3.042164	1.030713	-0.000122
1467	1.4587e+02	-18.3989	-61.961959	0.000314	3.143569	1.065070	-0.000126
1468	1.4597e+02	-18.4374	-62.083073	0.000304	3.042164	1.030713	-0.000122
1469	1.4607e+02	-18.4808	-62.216299	0.000335	3.346380	1.133784	-0.000134
1470	1.4617e+02	-18.5145	-62.293004	0.000193	1.926704	0.652785	-0.000077
1471	1.4626e+02	-18.5594	-62.446416	0.000385	3.853408	1.305570	-0.000154
1472	1.4636e+02	-18.5915	-62.515047	0.000172	1.723893	0.584071	-0.000069
1473	1.4646e+02	-18.6380	-62.648272	0.000335	3.346380	1.133784	-0.000134
1474	1.4656e+02	-18.6765	-62.769386	0.000304	3.042164	1.030713	-0.000122
1475	1.4666e+02	-18.7134	-62.894538	0.000314	3.143569	1.065070	-0.000126
1476	1.4676e+02	-18.7599	-63.056023	0.000406	4.056219	1.374284	-0.000162
1477	1.4686e+02	-18.7936	-63.160989	0.000264	2.636542	0.893285	-0.000105
1478	1.4696e+02	-18.8353	-63.269991	0.000274	2.737948	0.927642	-0.000110
1479	1.4706e+02	-18.8786	-63.407254	0.000345	3.447786	1.168141	-0.000138
1480	1.4716e+02	-18.9235	-63.512219	0.000264	2.636542	0.893285	-0.000105
1481	1.4726e+02	-18.9620	-63.661593	0.000375	3.752002	1.271213	-0.000150
1482	1.4736e+02	-18.9861	-63.790782	0.000324	3.244975	1.099427	-0.000130
1483	1.4746e+02	-19.0390	-63.891710	0.000254	2.535137	0.858928	-0.000101
1484	1.4756e+02	-19.0888	-64.004750	0.000284	2.839353	0.961999	-0.000114
1485	1.4766e+02	-19.1209	-64.133938	0.000324	3.244975	1.099427	-0.000130
1486	1.4776e+02	-19.1561	-64.287349	0.000385	3.853408	1.305570	-0.000154
1487	1.4786e+02	-19.1979	-64.432686	0.000365	3.650597	1.236856	-0.000146
1488	1.4796e+02	-19.2283	-64.513429	0.000203	2.028109	0.687142	-0.000081
1489	1.4806e+02	-19.2733	-64.634543	0.000304	3.042164	1.030713	-0.000122
1490	1.4816e+02	-19.3134	-64.755657	0.000304	3.042164	1.030713	-0.000122
1491	1.4825e+02	-19.3583	-64.913106	0.000395	3.954813	1.339927	-0.000158
1492	1.4835e+02	-19.4000	-65.034220	0.000304	3.042164	1.030713	-0.000122
1493	1.4845e+02	-19.4305	-65.151297	0.000294	2.940758	0.996356	-0.000118
1494	1.4855e+02	-19.4690	-65.296633	0.000365	3.650597	1.236856	-0.000146
1495	1.4865e+02	-19.5235	-65.405636	0.000274	2.737948	0.927642	-0.000110
1496	1.4875e+02	-19.5652	-65.526750	0.000304	3.042164	1.030713	-0.000122
1497	1.4885e+02	-19.5941	-65.688236	0.000406	4.056219	1.374284	-0.000162
1498	1.4895e+02	-19.6310	-65.789164	0.000254	2.535137	0.858928	-0.000101
1499	1.4905e+02	-19.6823	-65.922389	0.000335	3.346380	1.133784	-0.000134
1500	1.4915e+02	-19.7096	-66.059652	0.000345	3.447786	1.168141	-0.000138
1501	1.4925e+02	-19.7545	-66.192878	0.000335	3.346380	1.133784	-0.000134
1502	1.4935e+02	-19.7802	-66.338214	0.000365	3.650597	1.236856	-0.000146
1503	1.4945e+02	-19.8363	-66.443180	0.000264	2.636542	0.893285	-0.000105
1504	1.4955e+02	-19.8780	-66.592554	0.000375	3.752002	1.271213	-0.000150
1505	1.4965e+02	-19.9085	-66.766151	0.000436	4.360435	1.477355	-0.000174
1506	1.4975e+02	-19.9599	-66.879191	0.000284	2.839353	0.961999	-0.000114
1507	1.4985e+02	-19.9823	-66.980119	0.000254	2.535137	0.858928	-0.000101
1508	1.4995e+02	-19.9438	-66.959933	0.000051	0.507027	0.171786	0.000020
1509	1.5005e+02	-19.9133	-66.879191	0.000203	2.028109	0.687142	0.000081
1510	1.5015e+02	-19.8748	-66.826708	0.000132	1.318271	0.446642	0.000053
1511	1.5025e+02	-19.8203	-66.745965	0.000203	2.028109	0.687142	0.000081
1512	1.5034e+02	-19.7962	-66.697520	0.000122	1.216866	0.412285	0.000049
1513	1.5044e+02	-19.7577	-66.689445	0.000020	0.202811	0.068714	0.000008
1514	1.5054e+02	-19.7112	-66.632925	0.000142	1.419676	0.480999	0.000057
1515	1.5064e+02	-19.6695	-66.536034	0.000243	2.433731	0.824570	0.000097
1516	1.5074e+02	-19.6358	-66.459329	0.000193	1.926704	0.652785	0.000077
1517	1.5084e+02	-19.5989	-66.394734	0.000162	1.622487	0.549714	0.000065
1518	1.5094e+02	-19.5508	-66.318029	0.000193	1.926704	0.652785	0.000077
1519	1.5104e+02	-19.5219	-66.297843	0.000051	0.507027	0.171786	0.000020
1520	1.5114e+02	-19.4722	-66.160580	0.000345	3.447786	1.168141	0.000138
1521	1.5124e+02	-19.4353	-66.108098	0.000132	1.318271	0.446642	0.000053
1522	1.5134e+02	-19.3839	-66.055615	0.000132	1.318271	0.446642	0.000053
1523	1.5144e+02	-19.3487	-65.966798	0.000223	2.230920	0.755856	0.000089
1524	1.5154e+02	-19.3230	-65.869907	0.000243	2.433731	0.824570	0.000097
1525	1.5164e+02	-19.2781	-65.801275	0.000172	1.723893	0.584071	0.000069
1526	1.5174e+02	-19.2412	-65.720533	0.000203	2.028109	0.687142	0.000081
1527	1.5184e+02	-19.1962	-65.692273	0.000071	0.709838	0.240500	0.000028
1528	1.5194e+02	-19.1529	-65.615567	0.000193	1.926704	0.652785	0.000077
1529	1.5204e+02	-19.1112	-65.482342	0.000335	3.346380	1.133784	0.000134
1530	1.5214e+02	-19.0759	-65.450045	0.000081	0.811244	0.274857	0.000032
1531	1.5224e+02	-19.0342	-65.349116	0.000254	2.535137	0.858928	0.000101
1532	1.5233e+02	-19.0053	-65.292596	0.000142	1.419676	0.480999	0.000057
1533	1.5243e+02	-18.9636	-65.207816	0.000213	2.129515	0.721499	0.000085
1534	1.5253e+02	-18.9267	-65.110925	0.000243	2.433731	0.824570	0.000097
1535	1.5263e+02	-18.8786	-65.046331	0.000162	1.622487	0.549714	0.000065
1536	1.5273e+02	-18.8305	-64.937328	0.000274	2.737948	0.927642	0.000110
1537	1.5283e+02	-18.7984	-64.876771	0.000152	1.521082	0.515357	0.000061
1538	1.5293e+02	-18.7551	-64.808140	0.000172	1.723893	0.584071	0.000069
1539	1.5303e+02	-18.7166	-64.723360	0.000213	2.129515	0.721499	0.000085
1540	1.5313e+02	-18.6941	-64.634543	0.000223	2.230920	0.755856	0.000089
1541	1.5323e+02	-18.6364	-64.573986	0.000152	1.521082	0.515357	0.000061
1542	1.5333e+02	-18.6027	-64.448835	0.000314	3.143569	1.065070	0.000126
1543	1.5343e+02	-18.5594	-64.392315	0.000142	1.419676	0.480999	0.000057
1544	1.5353e+02	-18.5193	-64.323684	0.000172	1.723893	0.584071	0.000069
1545	1.5363e+02	-18.4792	-64.206607	0.000294	2.940758	0.996356	0.000118
1546	1.5373e+02	-18.4342	-64.137975	0.000172	1.723893	0.584071	0.000069
1547	1.5383e+02	-18.3941	-64.045121	0.000233	2.332326	0.790213	0.000093
1548	1.5393e+02	-18.3701	-63.996676	0.000122	1.216866	0.412285	0.000049
1549	1.5403e+02	-18.3235	-63.907859	0.000223	2.230920	0.755856	0.000089
1550	1.5413e+02	-18.2834	-63.806930	0.000254	2.535137	0.858928	0.000101
1551	1.5422e+02	-18.2385	-63.742336	0.000162	1.622487	0.549714	0.000065
1552	1.5432e+02	-18.2048	-63.621222	0.000304	3.042164	1.030713	0.000122
1553	1.5442e+02	-18.1663	-63.552591	0.000172	1.723893	0.584071	0.000069
1554	1.5452e+02	-18.1214	-63.435514	0.000294	2.940758	0.996356	0.000118
1555	1.5462e+02	-18.0765	-63.350734	0.000213	2.129515	0.721499	0.000085
1556	1.5472e+02	-18.0396	-63.314400	0.000091	0.912649	0.309214	0.000037
1557	1.5482e+02	-18.0075	-63.189249	0.000314	3.143569	1.065070	0.000126
1558	1.5492e+02	-17.9626	-63.140803	0.000122	1.216866	0.412285	0.000049
1559	1.5502e+02	-17.9193	-63.056023	0.000213	2.129515	0.721499	0.000085
1560	1.5512e+02	-17.8776	-62.938946	0.000294	2.940758	0.996356	0.000118
1561	1.5522e+02	-17.8407	-62.813795	0.000314	3.143569	1.065070	0.000126
1562	1.5532e+02	-17.8006	-62.708829	0.000264	2.636542	0.893285	0.000105
1563	1.5542e+02	-17.7701	-62.692681	0.000041	0.405622	0.137428	0.000016
1564	1.5552e+02	-17.7268	-62.535233	0.000395	3.954813	1.339927	0.000158
1565	1.5562e+02	-17.6835	-62.490824	0.000112	1.115460	0.377928	0.000045
1566	1.5572e+02	-17.6337	-62.361636	0.000324	3.244975	1.099427	0.000130
1567	1.5582e+02	-17.6032	-62.260707	0.000254	2.535137	0.858928	0.000101
1568	1.5592e+02	-17.5599	-62.179965	0.000203	2.028109	0.687142	0.000081
1569	1.5602e+02	-17.5278	-62.083073	0.000243	2.433731	0.824570	0.000097
1570	1.5612e+02	-17.4781	-61.974071	0.000274	2.737948	0.927642	0.000110
1571	1.5622e+02	-17.4428	-61.921588	0.000132	1.318271	0.446642	0.000053
1572	1.5631e+02	-17.4059	-61.772214	0.000375	3.752002	1.271213	0.000150
1573	1.5641e+02	-17.3690	-61.715694	0.000142	1.419676	0.480999	0.000057
1574	1.5651e+02	-17.3289	-61.610728	0.000264	2.636542	0.893285	0.000105
1575	1.5661e+02	-17.2856	-61.509800	0.000254	2.535137	0.858928	0.000101
1576	1.5671e+02	-17.2471	-61.429057	0.000203	2.028109	0.687142	0.000081
1577	1.5681e+02	-17.2006	-61.356389	0.000183	1.825298	0.618428	0.000073
1578	1.5691e+02	-17.1669	-61.223163	0.000335	3.346380	1.133784	0.000134
1579	1.5701e+02	-17.1220	-61.150495	0.000183	1.825298	0.618428	0.000073
1580	1.5711e+02	-17.0867	-61.057641	0.000233	2.332326	0.790213	0.000093
1581	1.5721e+02	-17.0466	-60.972861	0.000213	2.129515	0.721499	0.000085
1582	1.5731e+02	-17.0097	-60.843673	0.000324	3.244975	1.099427	0.000130
1583	1.5741e+02	-16.9616	-60.779079	0.000162	1.622487	0.549714	0.000065
1584	1.5751e+02	-16.9295	-60.686224	0.000233	2.332326	0.790213	0.000093
1585	1.5761e+02	-16.8894	-60.601445	0.000213	2.129515	0.721499	0.000085
1586	1.5771e+02	-16.8460	-60.524739	0.000193	1.926704	0.652785	0.000077
1587	1.5781e+02	-16.8108	-60.379402	0.000365	3.650597	1.236856	0.000146
1588	1.5791e+02	-16.7723	-60.294622	0.000213	2.129515	0.721499	0.000085
1589	1.5801e+02	-16.7209	-60.205805	0.000223	2.230920	0.755856	0.000089
1590	1.5811e+02	-16.6840	-60.112951	0.000233	2.332326	0.790213	0.000093
1591	1.5821e+02	-16.6407	-60.003948	0.000274	2.737948	0.927642	0.000110
1592	1.5830e+02	-16.6054	-59.923206	0.000203	2.028109	0.687142	0.000081
1593	1.5840e+02	-16.5701	-59.785943	0.000345	3.447786	1.168141	0.000138
1594	1.5850e+02	-16.5316	-59.749609	0.000091	0.912649	0.309214	0.000037
1595	1.5860e+02	-16.4835	-59.632532	0.000294	2.940758	0.996356	0.000118
1596	1.5870e+02	-16.4466	-59.535641	0.000243	2.433731	0.824570	0.000097
1597	1.5880e+02	-16.4065	-59.442787	0.000233	2.332326	0.790213	0.000093
1598	1.5890e+02	-16.3744	-59.329747	0.000284	2.839353	0.961999	0.000114
1599	1.5900e+02	-16.3327	-59.265153	0.000162	1.622487	0.549714	0.000065
1600	1.5910e+02	-16.2894	-59.160187	0.000264	2.636542	0.893285	0.000105
1601	1.5920e+02	-16.2509	-59.071370	0.000223	2.230920	0.755856	0.000089
1602	1.5930e+02	-16.2092	-58.930070	0.000355	3.549191	1.202499	0.000142
1603	1.5940e+02	-16.1642	-58.821068	0.000274	2.737948	0.927642	0.000110
1604	1.5950e+02	-16.1386	-58.736288	0.000213	2.129515	0.721499	0.000085
1605	1.5960e+02	-16.0921	-58.659582	0.000193	1.926704	0.652785	0.000077
1606	1.5970e+02	-16.0503	-58.550580	0.000274	2.737948	0.927642	0.000110
1607	1.5980e+02	-16.0183	-58.461763	0.000223	2.230920	0.755856	0.000089
1608	1.5990e+02	-15.9750	-58.308351	0.000385	3.853408	1.305570	0.000154
1609	1.6000e+02	-15.9300	-58.247794	0.000152	1.521082	0.515357	0.000061
1610	1.6010e+02	-15.8899	-58.163015	0.000213	2.129515	0.721499	0.000085
1611	1.6019e+02	-15.8546	-58.062086	0.000254	2.535137	0.858928	0.000101
1612	1.6029e+02	-15.8209	-57.928861	0.000335	3.346380	1.133784	0.000134
1613	1.6039e+02	-15.7728	-57.848118	0.000203	2.028109	0.687142	0.000081
1614	1.6049e+02	-15.7247	-57.690670	0.000395	3.954813	1.339927	0.000158
1615	1.6059e+02	-15.6894	-57.650298	0.000101	1.014055	0.343571	0.000041
1616	1.6069e+02	-15.6445	-57.529184	0.000304	3.042164	1.030713	0.000122
1617	1.6079e+02	-15.6092	-57.432293	0.000243	2.433731	0.824570	0.000097
1618	1.6089e+02	-15.5691	-57.331365	0.000254	2.535137	0.858928	0.000101
1619	1.6099e+02	-15.5290	-57.222362	0.000274	2.737948	0.927642	0.000110
1620	1.6109e+02	-15.4889	-57.081062	0.000355	3.549191	1.202499	0.000142
1621	1.6119e+02	-15.4456	-57.020505	0.000152	1.521082	0.515357	0.000061
1622	1.6129e+02	-15.4151	-56.939762	0.000203	2.028109	0.687142	0.000081
1623	1.6139e+02	-15.3750	-56.802500	0.000345	3.447786	1.168141	0.000138
1624	1.6149e+02	-15.3365	-56.713683	0.000223	2.230920	0.755856	0.000089
1625	1.6159e+02	-15.2948	-56.580457	0.000335	3.346380	1.133784	0.000134
1626	1.6169e+02	-15.2546	-56.475492	0.000264	2.636542	0.893285	0.000105
1627	1.6179e+02	-15.2145	-56.382638	0.000233	2.332326	0.790213	0.000093
1628	1.6189e+02	-15.1728	-56.265561	0.000294	2.940758	0.996356	0.000118
1629	1.6199e+02	-15.1279	-56.156558	0.000274	2.737948	0.927642	0.000110
1630	1.6209e+02	-15.0926	-56.063704	0.000233	2.332326	0.790213	0.000093
1631	1.6219e+02	-15.0557	-55.958738	0.000264	2.636542	0.893285	0.000105
1632	1.6228e+02	-15.0140	-55.857810	0.000254	2.535137	0.858928	0.000101
1633	1.6238e+02	-14.9707	-55.764956	0.000233	2.332326	0.790213	0.000093
1634	1.6248e+02	-14.9338	-55.603471	0.000406	4.056219	1.374284	0.000162
1635	1.6258e+02	-14.8905	-55.530802	0.000183	1.825298	0.618428	0.000073
1636	1.6268e+02	-14.8568	-55.429874	0.000254	2.535137	0.858928	0.000101
1637	1.6278e+02	-14.8215	-55.316834	0.000284	2.839353	0.961999	0.000114
1638	1.6288e+02	-14.7702	-55.191683	0.000314	3.143569	1.065070	0.000126
1639	1.6298e+02	-14.7253	-55.054420	0.000345	3.447786	1.168141	0.000138
1640	1.6308e+02	-14.6964	-55.014049	0.000101	1.014055	0.343571	0.000041
1641	1.6318e+02	-14.6611	-54.909083	0.000264	2.636542	0.893285	0.000105
1642	1.6328e+02	-14.6097	-54.771821	0.000345	3.447786	1.168141	0.000138
1643	1.6338e+02	-14.5664	-54.699152	0.000183	1.825298	0.618428	0.000073
1644	1.6348e+02	-14.5376	-54.602261	0.000243	2.433731	0.824570	0.000097
1645	1.6358e+02	-14.4958	-54.517481	0.000213	2.129515	0.721499	0.000085
1646	1.6368e+02	-14.4557	-54.392330	0.000314	3.143569	1.065070	0.000126
1647	1.6378e+02	-14.4172	-54.267179	0.000314	3.143569	1.065070	0.000126
1648	1.6388e+02	-14.3755	-54.150102	0.000294	2.940758	0.996356	0.000118
1649	1.6398e+02	-14.3402	-54.069359	0.000203	2.028109	0.687142	0.000081
1650	1.6408e+02	-14.2985	-53.952282	0.000294	2.940758	0.996356	0.000118
1651	1.6418e+02	-14.2584	-53.815019	0.000345	3.447786	1.168141	0.000138
1652	1.6427e+02	-14.2215	-53.710054	0.000264	2.636542	0.893285	0.000105
1653	1.6437e+02	-14.1846	-53.592977	0.000294	2.940758	0.996356	0.000118
1654	1.6447e+02	-14.1381	-53.540494	0.000132	1.318271	0.446642	0.000053
1655	1.6457e+02	-14.0916	-53.387083	0.000385	3.853408	1.305570	0.000154
1656	1.6467e+02	-14.0563	-53.314415	0.000183	1.825298	0.618428	0.000073
1657	1.6477e+02	-14.0242	-53.181189	0.000335	3.346380	1.133784	0.000134
1658	1.6487e+02	-13.9777	-53.108521	0.000183	1.825298	0.618428	0.000073
1659	1.6497e+02	-13.9472	-53.019704	0.000223	2.230920	0.755856	0.000089
1660	1.6507e+02	-13.8991	-52.898590	0.000304	3.042164	1.030713	0.000122
1661	1.6517e+02	-13.8638	-52.761327	0.000345	3.447786	1.168141	0.000138
1662	1.6527e+02	-13.8140	-52.640213	0.000304	3.042164	1.030713	0.000122
1663	1.6537e+02	-13.7772	-52.543322	0.000243	2.433731	0.824570	0.000097
1664	1.6547e+02	-13.7290	-52.422208	0.000304	3.042164	1.030713	0.000122
1665	1.6557e+02	-13.7050	-52.329353	0.000233	2.332326	0.790213	0.000093
1666	1.6567e+02	-13.6520	-52.208239	0.000304	3.042164	1.030713	0.000122
1667	1.6577e+02	-13.6183	-52.123460	0.000213	2.129515	0.721499	0.000085
1668	1.6587e+02	-13.5750	-51.998308	0.000314	3.143569	1.065070	0.000126
1669	1.6597e+02	-13.5397	-51.877194	0.000304	3.042164	1.030713	0.000122
1670	1.6607e+02	-13.5060	-51.776266	0.000254	2.535137	0.858928	0.000101
1671	1.6616e+02	-13.4643	-51.691486	0.000213	2.129515	0.721499	0.000085
1672	1.6626e+02	-13.4178	-51.521926	0.000426	4.259029	1.442998	0.000170
1673	1.6636e+02	-13.3905	-51.412924	0.000274	2.737948	0.927642	0.000110
1674	1.6646e+02	-13.3456	-51.332181	0.000203	2.028109	0.687142	0.000081
1675	1.6656e+02	-13.2943	-51.166658	0.000416	4.157624	1.408641	0.000166
1676	1.6666e+02	-13.2558	-51.085916	0.000203	2.028109	0.687142	0.000081
1677	1.6676e+02	-13.2189	-51.017284	0.000172	1.723893	0.584071	0.000069
1678	1.6686e+02	-13.1788	-50.875985	0.000355	3.549191	1.202499	0.000142
1679	1.6696e+02	-13.1306	-50.795242	0.000203	2.028109	0.687142	0.000081
1680	1.6706e+02	-13.1002	-50.657979	0.000345	3.447786	1.168141	0.000138
1681	1.6716e+02	-13.0569	-50.536865	0.000304	3.042164	1.030713	0.000122
1682	1.6726e+02	-13.0151	-50.411714	0.000314	3.143569	1.065070	0.000126
1683	1.6736e+02	-12.9766	-50.286563	0.000314	3.143569	1.065070	0.000126
1684	1.6746e+02	-12.9381	-50.217931	0.000172	1.723893	0.584071	0.000069
1685	1.6756e+02	-12.8964	-50.088743	0.000324	3.244975	1.099427	0.000130
1686	1.6766e+02	-12.8611	-49.979740	0.000274	2.737948	0.927642	0.000110
1687	1.6776e+02	-12.8258	-49.870738	0.000274	2.737948	0.927642	0.000110
1688	1.6786e+02	-12.7761	-49.794032	0.000193	1.926704	0.652785	0.000077
1689	1.6796e+02	-12.7456	-49.680992	0.000284	2.839353	0.961999	0.000114
1690	1.6806e+02	-12.7039	-49.539693	0.000355	3.549191	1.202499	0.000142
1691	1.6816e+02	-12.6670	-49.438764	0.000254	2.535137	0.858928	0.000101
1692	1.6825e+02	-12.6141	-49.370133	0.000172	1.723893	0.584071	0.000069
1693	1.6835e+02	-12.5804	-49.204610	0.000416	4.157624	1.408641	0.000166
1694	1.6845e+02	-12.5435	-49.111756	0.000233	2.332326	0.790213	0.000093
1695	1.6855e+02	-12.5050	-49.031014	0.000203	2.028109	0.687142	0.000081
1696	1.6865e+02	-12.4729	-48.853380	0.000446	4.461840	1.511712	0.000179
1697	1.6875e+02	-12.4232	-48.764563	0.000223	2.230920	0.755856	0.000089
1698	1.6885e+02	-12.3879	-48.643449	0.000304	3.042164	1.030713	0.000122
1699	1.6895e+02	-12.3510	-48.546557	0.000243	2.433731	0.824570	0.000097
1700	1.6905e+02	-12.3093	-48.449666	0.000243	2.433731	0.824570	0.000097
1701	1.6915e+02	-12.2628	-48.372960	0.000193	1.926704	0.652785	0.000077
1702	1.6925e+02	-12.2226	-48.207438	0.000416	4.157624	1.408641	0.000166
1703	1.6935e+02	-12.1777	-48.146881	0.000152	1.521082	0.515357	0.000061
1704	1.6945e+02	-12.1521	-48.001544	0.000365	3.650597	1.236856	0.000146
1705	1.6955e+02	-12.1039	-47.908690	0.000233	2.332326	0.790213	0.000093
1706	1.6965e+02	-12.0606	-47.827947	0.000203	2.028109	0.687142	0.000081
1707	1.6975e+02	-12.0285	-47.646276	0.000456	4.563246	1.546070	0.000183
1708	1.6985e+02	-11.9820	-47.601867	0.000112	1.115460	0.377928	0.000045
1709	1.6995e+02	-11.9451	-47.448456	0.000385	3.853408	1.305570	0.000154
1710	1.7005e+02	-11.9130	-47.367714	0.000203	2.028109	0.687142	0.000081
1711	1.7015e+02	-11.8617	-47.226414	0.000355	3.549191	1.202499	0.000142
1712	1.7024e+02	-11.8264	-47.145671	0.000203	2.028109	0.687142	0.000081
1713	1.7034e+02	-11.7831	-47.040706	0.000264	2.636542	0.893285	0.000105
1714	1.7044e+02	-11.7494	-46.935740	0.000264	2.636542	0.893285	0.000105
1715	1.7054e+02	-11.7061	-46.810589	0.000314	3.143569	1.065070	0.000126
1716	1.7064e+02	-11.6628	-46.673326	0.000345	3.447786	1.168141	0.000138
1717	1.7074e+02	-11.6307	-46.588546	0.000213	2.129515	0.721499	0.000085
1718	1.7084e+02	-11.5938	-46.519915	0.000172	1.723893	0.584071	0.000069
1719	1.7094e+02	-11.5585	-46.386690	0.000335	3.346380	1.133784	0.000134
1720	1.7104e+02	-11.5023	-46.209056	0.000446	4.461840	1.511712	0.000179
1721	1.7114e+02	-11.4655	-46.120239	0.000223	2.230920	0.755856	0.000089
1722	1.7124e+02	-11.4286	-46.015273	0.000264	2.636542	0.893285	0.000105
1723	1.7134e+02	-11.3836	-45.918382	0.000243	2.433731	0.824570	0.000097
1724	1.7144e+02	-11.3499	-45.801305	0.000294	2.940758	0.996356	0.000118
1725	1.7154e+02	-11.3114	-45.704414	0.000243	2.433731	0.824570	0.000097
1726	1.7164e+02	-11.2649	-45.551003	0.000385	3.853408	1.305570	0.000154
1727	1.7174e+02	-11.2296	-45.458148	0.000233	2.332326	0.790213	0.000093
1728	1.7184e+02	-11.1959	-45.316849	0.000355	3.549191	1.202499	0.000142
1729	1.7194e+02	-11.1446	-45.199772	0.000294	2.940758	0.996356	0.000118
1730	1.7204e+02	-11.1061	-45.123066	0.000193	1.926704	0.652785	0.000077
1731	1.7213e+02	-11.0676	-44.957544	0.000416	4.157624	1.408641	0.000166
1732	1.7223e+02	-11.0339	-44.892949	0.000162	1.622487	0.549714	0.000065
1733	1.7233e+02	-10.9890	-44.755687	0.000345	3.447786	1.168141	0.000138
1734	1.7243e+02	-10.9521	-44.646684	0.000274	2.737948	0.927642	0.000110
1735	1.7253e+02	-10.9040	-44.557867	0.000223	2.230920	0.755856	0.000089
1736	1.7263e+02	-10.8751	-44.444827	0.000284	2.839353	0.961999	0.000114
1737	1.7273e+02	-10.8350	-44.323713	0.000304	3.042164	1.030713	0.000122
1738	1.7283e+02	-10.7981	-44.190488	0.000335	3.346380	1.133784	0.000134
1739	1.7293e+02	-10.7516	-44.077448	0.000284	2.839353	0.961999	0.000114
1740	1.7303e+02	-10.7131	-43.924037	0.000385	3.853408	1.305570	0.000154
1741	1.7313e+02	-10.6698	-43.843294	0.000203	2.028109	0.687142	0.000081
1742	1.7323e+02	-10.6296	-43.750440	0.000233	2.332326	0.790213	0.000093
1743	1.7333e+02	-10.5879	-43.609140	0.000355	3.549191	1.202499	0.000142
1744	1.7343e+02	-10.5575	-43.479952	0.000324	3.244975	1.099427	0.000130
1745	1.7353e+02	-10.5045	-43.370949	0.000274	2.737948	0.927642	0.000110
1746	1.7363e+02	-10.4676	-43.278095	0.000233	2.332326	0.790213	0.000093
1747	1.7373e+02	-10.4420	-43.148907	0.000324	3.244975	1.099427	0.000130
1748	1.7383e+02	-10.3938	-43.031830	0.000294	2.940758	0.996356	0.000118
1749	1.7393e+02	-10.3441	-42.902641	0.000324	3.244975	1.099427	0.000130
1750	1.7403e+02	-10.3088	-42.825936	0.000193	1.926704	0.652785	0.000077
1751	1.7413e+02	-10.2735	-42.680599	0.000365	3.650597	1.236856	0.000146
1752	1.7422e+02	-10.2382	-42.571596	0.000274	2.737948	0.927642	0.000110
1753	1.7432e+02	-10.1981	-42.418185	0.000385	3.853408	1.305570	0.000154
1754	1.7442e+02	-10.1564	-42.325331	0.000233	2.332326	0.790213	0.000093
1755	1.7452e+02	-10.1083	-42.236514	0.000223	2.230920	0.755856	0.000089
1756	1.7462e+02	-10.0682	-42.099251	0.000345	3.447786	1.168141	0.000138
1757	1.7472e+02	-10.0329	-41.966026	0.000335	3.346380	1.133784	0.000134
1758	1.7482e+02	-9.9928	-41.848949	0.000294	2.940758	0.996356	0.000118
1759	1.7492e+02	-9.9607	-41.748021	0.000254	2.535137	0.858928	0.000101
1760	1.7502e+02	-9.9190	-41.639018	0.000274	2.737948	0.927642	0.000110
1761	1.7512e+02	-9.8821	-41.493681	0.000365	3.650597	1.236856	0.000146
1762	1.7522e+02	-9.8468	-41.392753	0.000254	2.535137	0.858928	0.000101
1763	1.7532e+02	-9.7938	-41.255490	0.000345	3.447786	1.168141	0.000138
1764	1.7542e+02	-9.7585	-41.142450	0.000284	2.839353	0.961999	0.000114
1765	1.7552e+02	-9.7104	-41.069782	0.000183	1.825298	0.618428	0.000073
1766	1.7562e+02	-9.6607	-40.928482	0.000355	3.549191	1.202499	0.000142
1767	1.7572e+02	-9.6350	-40.803331	0.000314	3.143569	1.065070	0.000126
1768	1.7582e+02	-9.5965	-40.653957	0.000375	3.752002	1.271213	0.000150
1769	1.7592e+02	-9.5564	-40.557066	0.000243	2.433731	0.824570	0.000097
1770	1.7602e+02	-9.5147	-40.448063	0.000274	2.737948	0.927642	0.000110
1771	1.7612e+02	-9.4746	-40.343097	0.000264	2.636542	0.893285	0.000105
1772	1.7621e+02	-9.4377	-40.197761	0.000365	3.650597	1.236856	0.000146
1773	1.7631e+02	-9.4008	-40.076646	0.000304	3.042164	1.030713	0.000122
1774	1.7641e+02	-9.3591	-39.919198	0.000395	3.954813	1.339927	0.000158
1775	1.7651e+02	-9.3142	-39.822307	0.000243	2.433731	0.824570	0.000097
1776	1.7661e+02	-9.2805	-39.709267	0.000284	2.839353	0.961999	0.000114
1777	1.7671e+02	-9.2388	-39.604302	0.000264	2.636542	0.893285	0.000105
1778	1.7681e+02	-9.1890	-39.442816	0.000406	4.056219	1.374284	0.000162
1779	1.7691e+02	-9.1521	-39.329776	0.000284	2.839353	0.961999	0.000114
1780	1.7701e+02	-9.1088	-39.220774	0.000274	2.737948	0.927642	0.000110
1781	1.7711e+02	-9.0671	-39.103697	0.000294	2.940758	0.996356	0.000118
1782	1.7721e+02	-9.0334	-38.970471	0.000335	3.346380	1.133784	0.000134
1783	1.7731e+02	-8.9933	-38.893766	0.000193	1.926704	0.652785	0.000077
1784	1.7741e+02	-8.9596	-38.691909	0.000507	5.070273	1.717855	0.000203
1785	1.7751e+02	-8.9163	-38.570795	0.000304	3.042164	1.030713	0.000122
1786	1.7761e+02	-8.8778	-38.481978	0.000223	2.230920	0.755856	0.000089
1787	1.7771e+02	-8.8297	-38.377012	0.000264	2.636542	0.893285	0.000105
1788	1.7781e+02	-8.8056	-38.227638	0.000375	3.752002	1.271213	0.000150
1789	1.7791e+02	-8.7543	-38.082301	0.000365	3.650597	1.236856	0.000146
1790	1.7801e+02	-8.7174	-37.953113	0.000324	3.244975	1.099427	0.000130
1791	1.7810e+02	-8.6789	-37.836036	0.000294	2.940758	0.996356	0.000118
1792	1.7820e+02	-8.6372	-37.682625	0.000385	3.853408	1.305570	0.000154
1793	1.7830e+02	-8.5875	-37.569585	0.000284	2.839353	0.961999	0.000114
1794	1.7840e+02	-8.5634	-37.460583	0.000274	2.737948	0.927642	0.000110
1795	1.7850e+02	-8.5169	-37.359654	0.000254	2.535137	0.858928	0.000101
1796	1.7860e+02	-8.4784	-37.202206	0.000395	3.954813	1.339927	0.000158
1797	1.7870e+02	-8.4302	-37.093203	0.000274	2.737948	0.927642	0.000110
1798	1.7880e+02	-8.4030	-36.980163	0.000284	2.839353	0.961999	0.000114
1799	1.7890e+02	-8.3597	-36.810604	0.000426	4.259029	1.442998	0.000170
1800	1.7900e+02	-8.3260	-36.693527	0.000294	2.940758	0.996356	0.000118
1801	1.7910e+02	-8.2778	-36.572413	0.000304	3.042164	1.030713	0.000122
1802	1.7920e+02	-8.2361	-36.471484	0.000254	2.535137	0.858928	0.000101
1803	1.7930e+02	-8.1944	-36.342296	0.000324	3.244975	1.099427	0.000130
1804	1.7940e+02	-8.1688	-36.176773	0.000416	4.157624	1.408641	0.000166
1805	1.7950e+02	-8.1190	-36.063734	0.000284	2.839353	0.961999	0.000114
1806	1.7960e+02	-8.0789	-35.906285	0.000395	3.954813	1.339927	0.000158
1807	1.7970e+02	-8.0484	-35.801320	0.000264	2.636542	0.893285	0.000105
1808	1.7980e+02	-8.0051	-35.684243	0.000294	2.940758	0.996356	0.000118
1809	1.7990e+02	-7.9698	-35.559092	0.000314	3.143569	1.065070	0.000126
1810	1.8000e+02	-7.9217	-35.429903	0.000324	3.244975	1.099427	0.000130
1811	1.8009e+02	-7.8832	-35.320901	0.000274	2.737948	0.927642	0.000110
1812	1.8019e+02	-7.8447	-35.147304	0.000436	4.360435	1.477355	0.000174
1813	1.8029e+02	-7.8014	-35.042338	0.000264	2.636542	0.893285	0.000105
1814	1.8039e+02	-7.7645	-34.965633	0.000193	1.926704	0.652785	0.000077
1815	1.8049e+02	-7.7292	-34.824333	0.000355	3.549191	1.202499	0.000142
1816	1.8059e+02	-7.6859	-34.683033	0.000355	3.549191	1.202499	0.000142
1817	1.8069e+02	-7.6297	-34.525585	0.000395	3.954813	1.339927	0.000158
1818	1.8079e+02	-7.6089	-34.392359	0.000335	3.346380	1.133784	0.000134
1819	1.8089e+02	-7.5640	-34.303542	0.000223	2.230920	0.755856	0.000089
1820	1.8099e+02	-7.5222	-34.109760	0.000487	4.867462	1.649141	0.000195
1821	1.8109e+02	-7.4837	-34.024980	0.000213	2.129515	0.721499	0.000085
1822	1.8119e+02	-7.4404	-33.924052	0.000254	2.535137	0.858928	0.000101
1823	1.8129e+02	-7.4019	-33.782752	0.000355	3.549191	1.202499	0.000142
1824	1.8139e+02	-7.3666	-33.673749	0.000274	2.737948	0.927642	0.000110
1825	1.8149e+02	-7.3265	-33.556672	0.000294	2.940758	0.996356	0.000118
1826	1.8159e+02	-7.2784	-33.415373	0.000355	3.549191	1.202499	0.000142
1827	1.8169e+02	-7.2399	-33.253887	0.000406	4.056219	1.374284	0.000162
1828	1.8179e+02	-7.2030	-33.100476	0.000385	3.853408	1.305570	0.000154
1829	1.8189e+02	-7.1677	-33.027807	0.000183	1.825298	0.618428	0.000073
1830	1.8199e+02	-7.1244	-32.898619	0.000324	3.244975	1.099427	0.000130
1831	1.8209e+02	-7.0891	-32.720985	0.000446	4.461840	1.511712	0.000179
1832	1.8218e+02	-7.0458	-32.636205	0.000213	2.129515	0.721499	0.000085
1833	1.8228e+02	-7.0057	-32.523166	0.000284	2.839353	0.961999	0.000114
1834	1.8238e+02	-6.9736	-32.381866	0.000355	3.549191	1.202499	0.000142
1835	1.8248e+02	-6.9255	-32.236529	0.000365	3.650597	1.236856	0.000146
1836	1.8258e+02	-6.8822	-32.087155	0.000375	3.752002	1.271213	0.000150
1837	1.8268e+02	-6.8372	-31.962004	0.000314	3.143569	1.065070	0.000126
1838	1.8278e+02	-6.8019	-31.832815	0.000324	3.244975	1.099427	0.000130
1839	1.8288e+02	-6.7715	-31.691516	0.000355	3.549191	1.202499	0.000142
1840	1.8298e+02	-6.7314	-31.574439	0.000294	2.940758	0.996356	0.000118
1841	1.8308e+02	-6.6897	-31.441213	0.000335	3.346380	1.133784	0.000134
1842	1.8318e+02	-6.6463	-31.324136	0.000294	2.940758	0.996356	0.000118
1843	1.8328e+02	-6.6110	-31.190911	0.000335	3.346380	1.133784	0.000134
1844	1.8338e+02	-6.5758	-31.045574	0.000365	3.650597	1.236856	0.000146
1845	1.8348e+02	-6.5260	-30.904274	0.000355	3.549191	1.202499	0.000142
1846	1.8358e+02	-6.4859	-30.795271	0.000274	2.737948	0.927642	0.000110
1847	1.8368e+02	-6.4602	-30.670120	0.000314	3.143569	1.065070	0.000126
1848	1.8378e+02	-6.4089	-30.528820	0.000355	3.549191	1.202499	0.000142
1849	1.8388e+02	-6.3640	-30.383484	0.000365	3.650597	1.236856	0.000146
1850	1.8398e+02	-6.3207	-30.250258	0.000335	3.346380	1.133784	0.000134
1851	1.8407e+02	-6.2950	-30.145293	0.000264	2.636542	0.893285	0.000105
1852	1.8417e+02	-6.2453	-29.963621	0.000456	4.563246	1.546070	0.000183
1853	1.8427e+02	-6.2116	-29.866730	0.000243	2.433731	0.824570	0.000097
1854	1.8437e+02	-6.1779	-29.729468	0.000345	3.447786	1.168141	0.000138
1855	1.8447e+02	-6.1282	-29.608354	0.000304	3.042164	1.030713	0.000122
1856	1.8457e+02	-6.0865	-29.467054	0.000355	3.549191	1.202499	0.000142
1857	1.8467e+02	-6.0528	-29.382274	0.000213	2.129515	0.721499	0.000085
1858	1.8477e+02	-6.0143	-29.212714	0.000426	4.259029	1.442998	0.000170
1859	1.8487e+02	-5.9758	-29.087563	0.000314	3.143569	1.065070	0.000126
1860	1.8497e+02	-5.9308	-28.938189	0.000375	3.752002	1.271213	0.000150
1861	1.8507e+02	-5.8956	-28.837261	0.000254	2.535137	0.858928	0.000101
1862	1.8517e+02	-5.8490	-28.695961	0.000355	3.549191	1.202499	0.000142
1863	1.8527e+02	-5.8089	-28.558698	0.000345	3.447786	1.168141	0.000138
1864	1.8537e+02	-5.7592	-28.413361	0.000365	3.650597	1.236856	0.000146
1865	1.8547e+02	-5.7335	-28.308396	0.000264	2.636542	0.893285	0.000105
1866	1.8557e+02	-5.6870	-28.163059	0.000365	3.650597	1.236856	0.000146
1867	1.8567e+02	-5.6645	-28.037908	0.000314	3.143569	1.065070	0.000126
1868	1.8577e+02	-5.6116	-27.932942	0.000264	2.636542	0.893285	0.000105
1869	1.8587e+02	-5.5811	-27.803754	0.000324	3.244975	1.099427	0.000130
1870	1.8597e+02	-5.5330	-27.662454	0.000355	3.549191	1.202499	0.000142
1871	1.8606e+02	-5.4913	-27.541340	0.000304	3.042164	1.030713	0.000122
1872	1.8616e+02	-5.4496	-27.363706	0.000446	4.461840	1.511712	0.000179
1873	1.8626e+02	-5.4239	-27.242592	0.000304	3.042164	1.030713	0.000122
1874	1.8636e+02	-5.3742	-27.165886	0.000193	1.926704	0.652785	0.000077
1875	1.8646e+02	-5.3357	-27.012475	0.000385	3.853408	1.305570	0.000154
1876	1.8656e+02	-5.2956	-26.883287	0.000324	3.244975	1.099427	0.000130
1877	1.8666e+02	-5.2507	-26.746024	0.000345	3.447786	1.168141	0.000138
1878	1.8676e+02	-5.2138	-26.624910	0.000304	3.042164	1.030713	0.000122
1879	1.8686e+02	-5.1817	-26.479573	0.000365	3.650597	1.236856	0.000146
1880	1.8696e+02	-5.1384	-26.346348	0.000335	3.346380	1.133784	0.000134
1881	1.8706e+02	-5.0966	-26.184862	0.000406	4.056219	1.374284	0.000162
1882	1.8716e+02	-5.0549	-26.092008	0.000233	2.332326	0.790213	0.000093
1883	1.8726e+02	-5.0164	-25.962820	0.000324	3.244975	1.099427	0.000130
1884	1.8736e+02	-4.9795	-25.793260	0.000426	4.259029	1.442998	0.000170
1885	1.8746e+02	-4.9362	-25.660035	0.000335	3.346380	1.133784	0.000134
1886	1.8756e+02	-4.8977	-25.534884	0.000314	3.143569	1.065070	0.000126
1887	1.8766e+02	-4.8464	-25.450104	0.000213	2.129515	0.721499	0.000085
1888	1.8776e+02	-4.8175	-25.288618	0.000406	4.056219	1.374284	0.000162
1889	1.8786e+02	-4.7806	-25.183653	0.000264	2.636542	0.893285	0.000105
1890	1.8796e+02	-4.7341	-25.030242	0.000385	3.853408	1.305570	0.000154
1891	1.8806e+02	-4.7116	-24.868756	0.000406	4.056219	1.374284	0.000162
1892	1.8815e+02	-4.6635	-24.755716	0.000284	2.839353	0.961999	0.000114
1893	1.8825e+02	-4.6186	-24.582120	0.000436	4.360435	1.477355	0.000174
1894	1.8835e+02	-4.5801	-24.477154	0.000264	2.636542	0.893285	0.000105
1895	1.8845e+02	-4.5400	-24.347966	0.000324	3.244975	1.099427	0.000130
1896	1.8855e+02	-4.4967	-24.214740	0.000335	3.346380	1.133784	0.000134
1897	1.8865e+02	-4.4501	-24.053255	0.000406	4.056219	1.374284	0.000162
1898	1.8875e+02	-4.4181	-23.915992	0.000345	3.447786	1.168141	0.000138
1899	1.8885e+02	-4.3796	-23.798915	0.000294	2.940758	0.996356	0.000118
1900	1.8895e+02	-4.3362	-23.697987	0.000254	2.535137	0.858928	0.000101
1901	1.8905e+02	-4.2993	-23.516316	0.000456	4.563246	1.546070	0.000183
1902	1.8915e+02	-4.2448	-23.395202	0.000304	3.042164	1.030713	0.000122
1903	1.8925e+02	-4.2175	-23.237753	0.000395	3.954813	1.339927	0.000158
1904	1.8935e+02	-4.1774	-23.124714	0.000284	2.839353	0.961999	0.000114
1905	1.8945e+02	-4.1421	-22.979377	0.000365	3.650597	1.236856	0.000146
1906	1.8955e+02	-4.1036	-22.870374	0.000274	2.737948	0.927642	0.000110
1907	1.8965e+02	-4.0523	-22.721000	0.000375	3.752002	1.271213	0.000150
1908	1.8975e+02	-4.0266	-22.575663	0.000365	3.650597	1.236856	0.000146
1909	1.8985e+02	-3.9897	-22.381881	0.000487	4.867462	1.649141	0.000195
1910	1.8995e+02	-3.9352	-22.293064	0.000223	2.230920	0.755856	0.000089
1911	1.9004e+02	-3.9015	-22.151764	0.000355	3.549191	1.202499	0.000142
1912	1.9014e+02	-3.8598	-22.022575	0.000324	3.244975	1.099427	0.000130
1913	1.9024e+02	-3.8165	-21.865127	0.000395	3.954813	1.339927	0.000158
1914	1.9034e+02	-3.7748	-21.715753	0.000375	3.752002	1.271213	0.000150
1915	1.9044e+02	-3.7395	-21.614825	0.000254	2.535137	0.858928	0.000101
1916	1.9054e+02	-3.7090	-21.449302	0.000416	4.157624	1.408641	0.000166
1917	1.9064e+02	-3.6673	-21.376634	0.000183	1.825298	0.618428	0.000073
1918	1.9074e+02	-3.6272	-21.190925	0.000466	4.664651	1.580427	0.000187
1919	1.9084e+02	-3.5839	-21.110183	0.000203	2.028109	0.687142	0.000081
1920	1.9094e+02	-3.5421	-20.916400	0.000487	4.867462	1.649141	0.000195
1921	1.9104e+02	-3.5020	-20.787212	0.000324	3.244975	1.099427	0.000130
1922	1.9114e+02	-3.4523	-20.609578	0.000446	4.461840	1.511712	0.000179
1923	1.9124e+02	-3.4138	-20.500575	0.000274	2.737948	0.927642	0.000110
1924	1.9134e+02	-3.3769	-20.387535	0.000284	2.839353	0.961999	0.000114
1925	1.9144e+02	-3.3400	-20.234124	0.000385	3.853408	1.305570	0.000154
1926	1.9154e+02	-3.3047	-20.088787	0.000365	3.650597	1.236856	0.000146
1927	1.9164e+02	-3.2566	-19.999970	0.000223	2.230920	0.755856	0.000089
1928	1.9174e+02	-3.2181	-19.810225	0.000477	4.766057	1.614784	0.000191
1929	1.9184e+02	-3.1892	-19.693148	0.000294	2.940758	0.996356	0.000118
1930	1.9194e+02	-3.1427	-19.531663	0.000406	4.056219	1.374284	0.000162
1931	1.9203e+02	-3.1074	-19.390363	0.000355	3.549191	1.202499	0.000142
1932	1.9213e+02	-3.0641	-19.269249	0.000304	3.042164	1.030713	0.000122
1933	1.9223e+02	-3.0336	-19.148135	0.000304	3.042164	1.030713	0.000122
1934	1.9233e+02	-2.9823	-18.982612	0.000416	4.157624	1.408641	0.000166
1935	1.9243e+02	-2.9470	-18.857461	0.000314	3.143569	1.065070	0.000126
1936	1.9253e+02	-2.9053	-18.691938	0.000416	4.157624	1.408641	0.000166
1937	1.9263e+02	-2.8620	-18.562750	0.000324	3.244975	1.099427	0.000130
1938	1.9273e+02	-2.8251	-18.429525	0.000335	3.346380	1.133784	0.000134
1939	1.9283e+02	-2.7930	-18.312448	0.000294	2.940758	0.996356	0.000118
1940	1.9293e+02	-2.7368	-18.167111	0.000365	3.650597	1.236856	0.000146
1941	1.9303e+02	-2.7095	-17.997551	0.000426	4.259029	1.442998	0.000170
1942	1.9313e+02	-2.6694	-17.864326	0.000335	3.346380	1.133784	0.000134
1943	1.9323e+02	-2.6245	-17.690729	0.000436	4.360435	1.477355	0.000174
1944	1.9333e+02	-2.5780	-17.601912	0.000223	2.230920	0.755856	0.000089
1945	1.9343e+02	-2.5491	-17.440426	0.000406	4.056219	1.374284	0.000162
1946	1.9353e+02	-2.5058	-17.266830	0.000436	4.360435	1.477355	0.000174
1947	1.9363e+02	-2.4609	-17.129567	0.000345	3.447786	1.168141	0.000138
1948	1.9373e+02	-2.4272	-17.012490	0.000294	2.940758	0.996356	0.000118
1949	1.9383e+02	-2.3807	-16.851005	0.000406	4.056219	1.374284	0.000162
1950	1.9393e+02	-2.3566	-16.709705	0.000355	3.549191	1.202499	0.000142
1951	1.9403e+02	-2.3069	-16.528034	0.000456	4.563246	1.546070	0.000183
1952	1.9412e+02	-2.2700	-16.398845	0.000324	3.244975	1.099427	0.000130
1953	1.9422e+02	-2.2203	-16.281768	0.000294	2.940758	0.996356	0.000118
1954	1.9432e+02	-2.1898	-16.124320	0.000395	3.954813	1.339927	0.000158
1955	1.9442e+02	-2.1417	-15.995132	0.000324	3.244975	1.099427	0.000130
1956	1.9452e+02	-2.1112	-15.825572	0.000426	4.259029	1.442998	0.000170
1957	1.9462e+02	-2.0695	-15.656012	0.000426	4.259029	1.442998	0.000170
1958	1.9472e+02	-2.0261	-15.551047	0.000264	2.636542	0.893285	0.000105
1959	1.9482e+02	-1.9876	-15.385524	0.000416	4.157624	1.408641	0.000166
1960	1.9492e+02	-1.9427	-15.244225	0.000355	3.549191	1.202499	0.000142
1961	1.9502e+02	-1.9155	-15.110999	0.000335	3.346380	1.133784	0.000134
1962	1.9512e+02	-1.8721	-14.957588	0.000385	3.853408	1.305570	0.000154
1963	1.9522e+02	-1.8208	-14.792065	0.000416	4.157624	1.408641	0.000166
1964	1.9532e+02	-1.7919	-14.662877	0.000324	3.244975	1.099427	0.000130
1965	1.9542e+02	-1.7470	-14.533689	0.000324	3.244975	1.099427	0.000130
1966	1.9552e+02	-1.7181	-14.364129	0.000426	4.259029	1.442998	0.000170
1967	1.9562e+02	-1.6700	-14.251089	0.000284	2.839353	0.961999	0.000114
1968	1.9572e+02	-1.6267	-14.025010	0.000568	5.678706	1.923998	0.000227
1969	1.9582e+02	-1.6026	-13.928118	0.000243	2.433731	0.824570	0.000097
1970	1.9592e+02	-1.5465	-13.790856	0.000345	3.447786	1.168141	0.000138
1971	1.9601e+02	-1.5112	-13.621296	0.000426	4.259029	1.442998	0.000170
1972	1.9611e+02	-1.4711	-13.467885	0.000385	3.853408	1.305570	0.000154
1973	1.9621e+02	-1.4294	-13.334659	0.000335	3.346380	1.133784	0.000134
1974	1.9631e+02	-1.3796	-13.233731	0.000254	2.535137	0.858928	0.000101
1975	1.9641e+02	-1.3556	-13.052060	0.000456	4.563246	1.546070	0.000183
1976	1.9651e+02	-1.3091	-12.886537	0.000416	4.157624	1.408641	0.000166
1977	1.9661e+02	-1.2754	-12.745238	0.000355	3.549191	1.202499	0.000142
1978	1.9671e+02	-1.2304	-12.579715	0.000416	4.157624	1.408641	0.000166
1979	1.9681e+02	-1.2032	-12.462638	0.000294	2.940758	0.996356	0.000118
1980	1.9691e+02	-1.1502	-12.289041	0.000436	4.360435	1.477355	0.000174
1981	1.9701e+02	-1.1182	-12.139667	0.000375	3.752002	1.271213	0.000150
1982	1.9711e+02	-1.0684	-12.014516	0.000314	3.143569	1.065070	0.000126
1983	1.9721e+02	-1.0331	-11.893402	0.000304	3.042164	1.030713	0.000122
1984	1.9731e+02	-0.9994	-11.731916	0.000406	4.056219	1.374284	0.000162
1985	1.9741e+02	-0.9497	-11.558320	0.000436	4.360435	1.477355	0.000174
1986	1.9751e+02	-0.9144	-11.429131	0.000324	3.244975	1.099427	0.000130
1987	1.9761e+02	-0.8695	-11.231312	0.000497	4.968868	1.683498	0.000199
1988	1.9771e+02	-0.8326	-11.130383	0.000254	2.535137	0.858928	0.000101
1989	1.9781e+02	-0.7909	-10.976972	0.000385	3.853408	1.305570	0.000154
1990	1.9791e+02	-0.7492	-10.847784	0.000324	3.244975	1.099427	0.000130
1991	1.9800e+02	-0.7107	-10.710521	0.000345	3.447786	1.168141	0.000138
1992	1.9810e+02	-0.6754	-10.540961	0.000426	4.259029	1.442998	0.000170
1993	1.9820e+02	-0.6353	-10.423884	0.000294	2.940758	0.996356	0.000118
1994	1.9830e+02	-0.6000	-10.278548	0.000365	3.650597	1.236856	0.000146
1995	1.9840e+02	-0.5567	-10.113025	0.000416	4.157624	1.408641	0.000166
1996	1.9850e+02	-0.5134	-9.931354	0.000456	4.563246	1.546070	0.000183
1997	1.9860e+02	-0.4797	-9.814277	0.000294	2.940758	0.996356	0.000118
1998	1.9870e+02	-0.4283	-9.677014	0.000345	3.447786	1.168141	0.000138
1999	1.9880e+02	-0.3962	-9.527640	0.000375	3.752002	1.271213	0.000150
2000	1.9890e+02	-0.3577	-9.366155	0.000406	4.056219	1.374284	0.000162
2001	1.9900e+02	-0.3160	-9.228892	0.000345	3.447786	1.168141	0.000138
2002	1.9910e+02	-0.2663	-9.095667	0.000335	3.346380	1.133784	0.000134
2003	1.9920e+02	-0.2390	-8.889773	0.000517	5.171679	1.752212	0.000207
2004	1.9930e+02	-0.2021	-8.780770	0.000274	2.737948	0.927642	0.000110
2005	1.9940e+02	-0.1540	-8.639470	0.000355	3.549191	1.202499	0.000142
2006	1.9950e+02	-0.1139	-8.469911	0.000426	4.259029	1.442998	0.000170
2007	1.9960e+02	-0.0722	-8.304388	0.000416	4.157624	1.408641	0.000166
2008	1.9970e+02	-0.0353	-8.150977	0.000385	3.853408	1.305570	0.000154
2009	1.9980e+02	0.0128	-8.009677	0.000385	3.853408	1.305570	0.000142

PMax (uC/cm2):	7.24e+01
Pr (uC/cm2):	3.41e+00
-Pr (uC/cm2):	-2.62e+00
PLoss (uC/cm2):	-2.63e+00
-Vc:	-9.24e-01
C (Max-Eff) (nF):	3.62e-01
K (Eff):	1.23e+03
Vert. (+/-Pr) Shift (uC/cm2):	3.94e-01
Offset (uC/cm2):	5.39e+00

A (Loop Area - uC/cm2·Volts):	4.14e-02



Hysteresis Version: 5.48.1 - Radiant Technologies, Inc., 1999 - 9/12/24

