»»»»»»»»»»»»»»»»»»»»»»»»»»»»»»»»»»»» Hysteresis ««««««««««««««««««««««««««««««««««««
»»»  Executed Version:	5.48.1
»»»  Vision Version:	5.48.4 (R)
»»»  Vision Compiled:	9/18/24
»»»  Driver Version:	5.47.0
»»»  Windows Version:	Windows 8 or 8.1
»»»  Processor Information:	x86 (AMD or Intel) - 32 Processors
»»»  Tester Name:	PMF21124-494 (100V)
»»»  Tester S/N:	PMF21124-494
»»»  Internal Amp Type:	100V RevK 270k
»»»  Internal Amp S/N:	iAB2-596/K     
»»»  Execution Count:	1
»»»»»»»»»»»»»»»»»»»»»»»»»»»»»»»»»»»»»»»»»»««««««««««««««««««««««««««««««««««««««««««

Stored:	6/19/2025 - 19:22:55
Configured:	06/19/25 10:04:32 AM
Executed:	06/19/25 07:22:02 PM

»»»»»»»»»»»»»»»»»»»»»»»»»»»»»»»»»»» Sample Info ««««««««««««««««««««««««««««««««««««
Sample Name:	
Lot Name:	
Wafer Name:	
Die Row/Column:	0/0
Capacitor Number:	0
Sample Area (cm2):	1.00e-04
Sample Thickness (microns):	3.00e-01

Amplifier:	Internal

»»»»»»»»»»»»»»»»»»»»»»»»»»»»»»»»»»» Tester Info «««««««««««««««««««««««««««««««««««
Tester Name:	PMF21124-494 (100V)
Tester Serial Number:	PMF21124-494
Return Signal Amp. Level:	0.19 [Index: 3]

»»»»»»»»»»»»»»»»»»»»»»»»»»»»»»»» Hysteresis Info ««««««««««««««««««««««««««««««««««
Task Name:	Hyst-1168
Volts:	20.00
Field:	666.67 (kV/cm)
DCBias:	0.00
DCField:	0.00 (kV/cm)
Hysteresis Period (ms):	2.00e+02
Preset:	Enabled
Preset Delay (ms):	1.00e+03
Profile:	Standard Bipolar

»»»»»»»»»»»»»»»»»»»»»»»»»»»»»»»»»»»»»» Data «««««««««««««««««««««««««««««««««««««««
Points:	2009

Valid Data

Point	Time (ms)	Drive Voltage	Measured Polarization (uC/cm2)	Capacitance (uF)	Normalized Capacitance (uF/cm2)	Dielectric Constant	Instantaneous Current (mA)
   1	0.0000e+00	0.0096	-6.126353	0.000223	2.230786	0.755811	0.000089
   2	9.9500e-02	0.0369	-6.037536	0.000223	2.230786	0.755811	0.000089
   3	1.9900e-01	0.0754	-5.867977	0.000426	4.258773	1.442911	0.000170
   4	2.9850e-01	0.1123	-5.763011	0.000264	2.636383	0.893231	0.000105
   5	3.9800e-01	0.1588	-5.658046	0.000264	2.636383	0.893231	0.000105
   6	4.9750e-01	0.1893	-5.496560	0.000406	4.055974	1.374201	0.000162
   7	5.9700e-01	0.2342	-5.335075	0.000406	4.055974	1.374201	0.000162
   8	6.9650e-01	0.2759	-5.226072	0.000274	2.737783	0.927586	0.000110
   9	7.9600e-01	0.3160	-5.068624	0.000395	3.954575	1.339846	0.000158
  10	8.9550e-01	0.3577	-4.959621	0.000274	2.737783	0.927586	0.000110
  11	9.9500e-01	0.3914	-4.818322	0.000355	3.548978	1.202426	0.000142
  12	1.0945e+00	0.4396	-4.652799	0.000416	4.157374	1.408556	0.000166
  13	1.1940e+00	0.4732	-4.495351	0.000395	3.954575	1.339846	0.000158
  14	1.2935e+00	0.5085	-4.430756	0.000162	1.622390	0.549681	0.000065
  15	1.3930e+00	0.5679	-4.309642	0.000304	3.041981	1.030651	0.000122
  16	1.4925e+00	0.5936	-4.099711	0.000527	5.272767	1.786462	0.000211
  17	1.5920e+00	0.6321	-3.974560	0.000314	3.143380	1.065006	0.000126
  18	1.6915e+00	0.6786	-3.829223	0.000365	3.650377	1.236781	0.000146
  19	1.7910e+00	0.7123	-3.716183	0.000284	2.839182	0.961941	0.000114
  20	1.8905e+00	0.7572	-3.562772	0.000385	3.853176	1.305491	0.000154
  21	1.9900e+00	0.8005	-3.405324	0.000395	3.954575	1.339846	0.000158
  22	2.0895e+00	0.8326	-3.272099	0.000335	3.346179	1.133716	0.000134
  23	2.1890e+00	0.8663	-3.126762	0.000365	3.650377	1.236781	0.000146
  24	2.2885e+00	0.9192	-2.981425	0.000365	3.650377	1.236781	0.000146
  25	2.3880e+00	0.9465	-2.868385	0.000284	2.839182	0.961941	0.000114
  26	2.4875e+00	0.9962	-2.723048	0.000365	3.650377	1.236781	0.000146
  27	2.5870e+00	1.0251	-2.561563	0.000406	4.055974	1.374201	0.000162
  28	2.6865e+00	1.0732	-2.416226	0.000365	3.650377	1.236781	0.000146
  29	2.7860e+00	1.1133	-2.319334	0.000243	2.433585	0.824521	0.000097
  30	2.8855e+00	1.1567	-2.129589	0.000477	4.765770	1.614687	0.000191
  31	2.9850e+00	1.1952	-2.020586	0.000274	2.737783	0.927586	0.000110
  32	3.0845e+00	1.2417	-1.851027	0.000426	4.258773	1.442911	0.000170
  33	3.1840e+00	1.2722	-1.733950	0.000294	2.940581	0.996296	0.000118
  34	3.2835e+00	1.3042	-1.633021	0.000253	2.534984	0.858876	0.000101
  35	3.3830e+00	1.3540	-1.451350	0.000456	4.562971	1.545976	0.000183
  36	3.4825e+00	1.3957	-1.342348	0.000274	2.737783	0.927586	0.000110
  37	3.5820e+00	1.4294	-1.192974	0.000375	3.751776	1.271136	0.000150
  38	3.6815e+00	1.4679	-1.035525	0.000395	3.954575	1.339846	0.000158
  39	3.7810e+00	1.5160	-0.918448	0.000294	2.940581	0.996296	0.000118
  40	3.8805e+00	1.5449	-0.700443	0.000548	5.475565	1.855172	0.000219
  41	3.9800e+00	1.5866	-0.551069	0.000375	3.751776	1.271136	0.000150
  42	4.0795e+00	1.6251	-0.466289	0.000213	2.129387	0.721456	0.000085
  43	4.1790e+00	1.6764	-0.280581	0.000466	4.664371	1.580332	0.000187
  44	4.2785e+00	1.7149	-0.094873	0.000466	4.664371	1.580332	0.000187
  45	4.3780e+00	1.7534	0.010093	0.000264	2.636383	0.893231	0.000105
  46	4.4775e+00	1.7935	0.106984	0.000243	2.433585	0.824521	0.000097
  47	4.5770e+00	1.8320	0.296729	0.000477	4.765770	1.614687	0.000191
  48	4.6765e+00	1.8609	0.446103	0.000375	3.751776	1.271136	0.000150
  49	4.7760e+00	1.9122	0.631812	0.000466	4.664371	1.580332	0.000187
  50	4.8755e+00	1.9524	0.744852	0.000284	2.839182	0.961941	0.000114
  51	4.9750e+00	1.9909	0.894226	0.000375	3.751776	1.271136	0.000150
  52	5.0745e+00	2.0229	1.039562	0.000365	3.650377	1.236781	0.000146
  53	5.1740e+00	2.0759	1.184899	0.000365	3.650377	1.236781	0.000146
  54	5.2735e+00	2.1096	1.354459	0.000426	4.258773	1.442911	0.000170
  55	5.3730e+00	2.1497	1.507870	0.000385	3.853176	1.305491	0.000154
  56	5.4725e+00	2.1882	1.628984	0.000304	3.041981	1.030651	0.000122
  57	5.5720e+00	2.2267	1.766247	0.000345	3.447578	1.168071	0.000138
  58	5.6715e+00	2.2700	1.943881	0.000446	4.461572	1.511621	0.000179
  59	5.7710e+00	2.3069	2.069032	0.000314	3.143380	1.065006	0.000126
  60	5.8705e+00	2.3534	2.198220	0.000324	3.244779	1.099361	0.000130
  61	5.9700e+00	2.3919	2.359706	0.000406	4.055974	1.374201	0.000162
  62	6.0695e+00	2.4416	2.513117	0.000385	3.853176	1.305491	0.000154
  63	6.1690e+00	2.4721	2.662491	0.000375	3.751776	1.271136	0.000150
  64	6.2685e+00	2.5074	2.811865	0.000375	3.751776	1.271136	0.000150
  65	6.3680e+00	2.5475	2.932979	0.000304	3.041981	1.030651	0.000122
  66	6.4675e+00	2.5876	3.086390	0.000385	3.853176	1.305491	0.000154
  67	6.5670e+00	2.6213	3.231727	0.000365	3.650377	1.236781	0.000146
  68	6.6665e+00	2.6710	3.368990	0.000345	3.447578	1.168071	0.000138
  69	6.7660e+00	2.7144	3.510290	0.000355	3.548978	1.202426	0.000142
  70	6.8655e+00	2.7481	3.659664	0.000375	3.751776	1.271136	0.000150
  71	6.9650e+00	2.7914	3.837298	0.000446	4.461572	1.511621	0.000179
  72	7.0645e+00	2.8202	3.922077	0.000213	2.129387	0.721456	0.000085
  73	7.1640e+00	2.8684	4.055303	0.000335	3.346179	1.133716	0.000134
  74	7.2635e+00	2.9117	4.253123	0.000497	4.968569	1.683397	0.000199
  75	7.3630e+00	2.9374	4.402497	0.000375	3.751776	1.271136	0.000150
  76	7.4625e+00	2.9855	4.535722	0.000335	3.346179	1.133716	0.000134
  77	7.5620e+00	3.0224	4.693170	0.000395	3.954575	1.339846	0.000158
  78	7.6615e+00	3.0593	4.830433	0.000345	3.447578	1.168071	0.000138
  79	7.7610e+00	3.1058	4.987881	0.000395	3.954575	1.339846	0.000158
  80	7.8605e+00	3.1491	5.096884	0.000274	2.737783	0.927586	0.000110
  81	7.9600e+00	3.1844	5.270481	0.000436	4.360172	1.477266	0.000174
  82	8.0595e+00	3.2341	5.444078	0.000436	4.360172	1.477266	0.000174
  83	8.1590e+00	3.2614	5.585377	0.000355	3.548978	1.202426	0.000142
  84	8.2585e+00	3.3031	5.742826	0.000395	3.954575	1.339846	0.000158
  85	8.3580e+00	3.3528	5.888162	0.000365	3.650377	1.236781	0.000146
  86	8.4575e+00	3.3817	6.017351	0.000324	3.244779	1.099361	0.000130
  87	8.5570e+00	3.4234	6.178836	0.000406	4.055974	1.374201	0.000162
  88	8.6565e+00	3.4587	6.344359	0.000416	4.157374	1.408556	0.000166
  89	8.7560e+00	3.5117	6.517956	0.000436	4.360172	1.477266	0.000174
  90	8.8555e+00	3.5518	6.614847	0.000243	2.433585	0.824521	0.000097
  91	8.9550e+00	3.5871	6.796518	0.000456	4.562971	1.545976	0.000183
  92	9.0545e+00	3.6191	6.974152	0.000446	4.461572	1.511621	0.000179
  93	9.1540e+00	3.6577	7.067006	0.000233	2.332185	0.790166	0.000093
  94	9.2535e+00	3.7090	7.200232	0.000335	3.346179	1.133716	0.000134
  95	9.3530e+00	3.7427	7.325383	0.000314	3.143380	1.065006	0.000126
  96	9.4525e+00	3.7892	7.478794	0.000385	3.853176	1.305491	0.000154
  97	9.5520e+00	3.8133	7.676614	0.000497	4.968569	1.683397	0.000199
  98	9.6515e+00	3.8582	7.753319	0.000193	1.926588	0.652746	0.000077
  99	9.7510e+00	3.9015	7.930953	0.000446	4.461572	1.511621	0.000179
 100	9.8505e+00	3.9464	8.104550	0.000436	4.360172	1.477266	0.000174
 101	9.9500e+00	3.9737	8.229701	0.000314	3.143380	1.065006	0.000126
 102	1.0050e+01	4.0202	8.411372	0.000456	4.562971	1.545976	0.000183
 103	1.0149e+01	4.0635	8.524412	0.000284	2.839182	0.961941	0.000114
 104	1.0248e+01	4.1068	8.669749	0.000365	3.650377	1.236781	0.000146
 105	1.0348e+01	4.1389	8.843346	0.000436	4.360172	1.477266	0.000174
 106	1.0447e+01	4.1854	8.972534	0.000324	3.244779	1.099361	0.000130
 107	1.0547e+01	4.2207	9.125945	0.000385	3.853176	1.305491	0.000154
 108	1.0646e+01	4.2560	9.279356	0.000385	3.853176	1.305491	0.000154
 109	1.0746e+01	4.3009	9.412582	0.000335	3.346179	1.133716	0.000134
 110	1.0845e+01	4.3491	9.582142	0.000426	4.258773	1.442911	0.000170
 111	1.0945e+01	4.3812	9.715367	0.000335	3.346179	1.133716	0.000134
 112	1.1044e+01	4.4197	9.844555	0.000324	3.244779	1.099361	0.000130
 113	1.1144e+01	4.4598	10.002004	0.000395	3.954575	1.339846	0.000158
 114	1.1243e+01	4.4886	10.163489	0.000406	4.055974	1.374201	0.000162
 115	1.1343e+01	4.5448	10.280566	0.000294	2.940581	0.996296	0.000118
 116	1.1443e+01	4.5833	10.458200	0.000446	4.461572	1.511621	0.000179
 117	1.1542e+01	4.6202	10.583351	0.000314	3.143380	1.065006	0.000126
 118	1.1642e+01	4.6683	10.756948	0.000436	4.360172	1.477266	0.000174
 119	1.1741e+01	4.7020	10.922471	0.000416	4.157374	1.408556	0.000166
 120	1.1841e+01	4.7373	11.011288	0.000223	2.230786	0.755811	0.000089
 121	1.1940e+01	4.7774	11.180847	0.000426	4.258773	1.442911	0.000170
 122	1.2040e+01	4.8255	11.318110	0.000345	3.447578	1.168071	0.000138
 123	1.2139e+01	4.8576	11.487670	0.000426	4.258773	1.442911	0.000170
 124	1.2239e+01	4.8913	11.624932	0.000345	3.447578	1.168071	0.000138
 125	1.2338e+01	4.9410	11.721824	0.000243	2.433585	0.824521	0.000097
 126	1.2438e+01	4.9747	11.875235	0.000385	3.853176	1.305491	0.000154
 127	1.2537e+01	5.0180	12.052869	0.000446	4.461572	1.511621	0.000179
 128	1.2636e+01	5.0614	12.190131	0.000345	3.447578	1.168071	0.000138
 129	1.2736e+01	5.0886	12.282985	0.000233	2.332185	0.790166	0.000093
 130	1.2835e+01	5.1416	12.484842	0.000507	5.069968	1.717752	0.000203
 131	1.2935e+01	5.1817	12.597882	0.000284	2.839182	0.961941	0.000114
 132	1.3034e+01	5.2266	12.759368	0.000406	4.055974	1.374201	0.000162
 133	1.3134e+01	5.2619	12.912779	0.000385	3.853176	1.305491	0.000154
 134	1.3233e+01	5.3020	13.013707	0.000253	2.534984	0.858876	0.000101
 135	1.3333e+01	5.3341	13.183267	0.000426	4.258773	1.442911	0.000170
 136	1.3432e+01	5.3806	13.324567	0.000355	3.548978	1.202426	0.000142
 137	1.3532e+01	5.4127	13.469903	0.000365	3.650377	1.236781	0.000146
 138	1.3632e+01	5.4528	13.603129	0.000335	3.346179	1.133716	0.000134
 139	1.3731e+01	5.4977	13.728280	0.000314	3.143380	1.065006	0.000126
 140	1.3831e+01	5.5394	13.913988	0.000466	4.664371	1.580332	0.000187
 141	1.3930e+01	5.5763	14.095659	0.000456	4.562971	1.545976	0.000183
 142	1.4030e+01	5.6196	14.184476	0.000223	2.230786	0.755811	0.000089
 143	1.4129e+01	5.6565	14.370185	0.000466	4.664371	1.580332	0.000187
 144	1.4229e+01	5.6982	14.527633	0.000395	3.954575	1.339846	0.000158
 145	1.4328e+01	5.7367	14.628561	0.000253	2.534984	0.858876	0.000101
 146	1.4428e+01	5.7849	14.769861	0.000355	3.548978	1.202426	0.000142
 147	1.4527e+01	5.8250	14.919235	0.000375	3.751776	1.271136	0.000150
 148	1.4627e+01	5.8571	15.096869	0.000446	4.461572	1.511621	0.000179
 149	1.4726e+01	5.8940	15.201835	0.000264	2.636383	0.893231	0.000105
 150	1.4825e+01	5.9357	15.371394	0.000426	4.258773	1.442911	0.000170
 151	1.4925e+01	5.9774	15.532880	0.000406	4.055974	1.374201	0.000162
 152	1.5024e+01	6.0095	15.666105	0.000335	3.346179	1.133716	0.000134
 153	1.5124e+01	6.0480	15.819516	0.000385	3.853176	1.305491	0.000154
 154	1.5223e+01	6.0993	15.981002	0.000406	4.055974	1.374201	0.000162
 155	1.5323e+01	6.1426	16.085967	0.000264	2.636383	0.893231	0.000105
 156	1.5422e+01	6.1747	16.259564	0.000436	4.360172	1.477266	0.000174
 157	1.5522e+01	6.2148	16.421050	0.000406	4.055974	1.374201	0.000162
 158	1.5621e+01	6.2501	16.546201	0.000314	3.143380	1.065006	0.000126
 159	1.5721e+01	6.2918	16.699612	0.000385	3.853176	1.305491	0.000154
 160	1.5820e+01	6.3383	16.848986	0.000375	3.751776	1.271136	0.000150
 161	1.5920e+01	6.3704	16.974137	0.000314	3.143380	1.065006	0.000126
 162	1.6020e+01	6.4137	17.139660	0.000416	4.157374	1.408556	0.000166
 163	1.6119e+01	6.4474	17.280960	0.000355	3.548978	1.202426	0.000142
 164	1.6218e+01	6.4971	17.381888	0.000253	2.534984	0.858876	0.000101
 165	1.6318e+01	6.5308	17.555485	0.000436	4.360172	1.477266	0.000174
 166	1.6418e+01	6.5677	17.749267	0.000487	4.867169	1.649042	0.000195
 167	1.6517e+01	6.6062	17.878456	0.000324	3.244779	1.099361	0.000130
 168	1.6616e+01	6.6592	18.007644	0.000324	3.244779	1.099361	0.000130
 169	1.6716e+01	6.6880	18.136832	0.000324	3.244779	1.099361	0.000130
 170	1.6816e+01	6.7282	18.253909	0.000294	2.940581	0.996296	0.000118
 171	1.6915e+01	6.7731	18.411358	0.000395	3.954575	1.339846	0.000158
 172	1.7015e+01	6.8148	18.584954	0.000436	4.360172	1.477266	0.000174
 173	1.7114e+01	6.8485	18.738366	0.000385	3.853176	1.305491	0.000154
 174	1.7213e+01	6.9030	18.887740	0.000375	3.751776	1.271136	0.000150
 175	1.7313e+01	6.9239	19.008854	0.000304	3.041981	1.030651	0.000122
 176	1.7413e+01	6.9832	19.162265	0.000385	3.853176	1.305491	0.000154
 177	1.7512e+01	7.0105	19.319713	0.000395	3.954575	1.339846	0.000158
 178	1.7611e+01	7.0506	19.477161	0.000395	3.954575	1.339846	0.000158
 179	1.7711e+01	7.0907	19.594238	0.000294	2.940581	0.996296	0.000118
 180	1.7811e+01	7.1212	19.747649	0.000385	3.853176	1.305491	0.000154
 181	1.7910e+01	7.1741	19.884912	0.000345	3.447578	1.168071	0.000138
 182	1.8009e+01	7.2126	20.054472	0.000426	4.258773	1.442911	0.000170
 183	1.8109e+01	7.2527	20.171549	0.000294	2.940581	0.996296	0.000118
 184	1.8209e+01	7.2912	20.345146	0.000436	4.360172	1.477266	0.000174
 185	1.8308e+01	7.3394	20.502594	0.000395	3.954575	1.339846	0.000158
 186	1.8407e+01	7.3763	20.656005	0.000385	3.853176	1.305491	0.000154
 187	1.8507e+01	7.4083	20.777119	0.000304	3.041981	1.030651	0.000122
 188	1.8607e+01	7.4372	20.922456	0.000365	3.650377	1.236781	0.000146
 189	1.8706e+01	7.4950	21.108164	0.000466	4.664371	1.580332	0.000187
 190	1.8805e+01	7.5399	21.205055	0.000243	2.433585	0.824521	0.000097
 191	1.8905e+01	7.5720	21.406912	0.000507	5.069968	1.717752	0.000203
 192	1.9005e+01	7.6041	21.511878	0.000264	2.636383	0.893231	0.000105
 193	1.9104e+01	7.6506	21.697586	0.000466	4.664371	1.580332	0.000187
 194	1.9203e+01	7.6891	21.810626	0.000284	2.839182	0.961941	0.000114
 195	1.9303e+01	7.7356	21.980186	0.000426	4.258773	1.442911	0.000170
 196	1.9402e+01	7.7693	22.105337	0.000314	3.143380	1.065006	0.000126
 197	1.9502e+01	7.8126	22.258748	0.000385	3.853176	1.305491	0.000154
 198	1.9602e+01	7.8431	22.432345	0.000436	4.360172	1.477266	0.000174
 199	1.9701e+01	7.8832	22.549422	0.000294	2.940581	0.996296	0.000118
 200	1.9800e+01	7.9297	22.706870	0.000395	3.954575	1.339846	0.000158
 201	1.9900e+01	7.9602	22.876430	0.000426	4.258773	1.442911	0.000170
 202	2.0000e+01	8.0035	22.993507	0.000294	2.940581	0.996296	0.000118
 203	2.0099e+01	8.0468	23.163066	0.000426	4.258773	1.442911	0.000170
 204	2.0198e+01	8.0821	23.300329	0.000345	3.447578	1.168071	0.000138
 205	2.0298e+01	8.1174	23.457777	0.000395	3.954575	1.339846	0.000158
 206	2.0398e+01	8.1607	23.611188	0.000385	3.853176	1.305491	0.000154
 207	2.0497e+01	8.2008	23.752488	0.000355	3.548978	1.202426	0.000142
 208	2.0596e+01	8.2490	23.909936	0.000395	3.954575	1.339846	0.000158
 209	2.0696e+01	8.2859	24.099682	0.000477	4.765770	1.614687	0.000191
 210	2.0796e+01	8.3228	24.224833	0.000314	3.143380	1.065006	0.000126
 211	2.0895e+01	8.3869	24.345947	0.000304	3.041981	1.030651	0.000122
 212	2.0994e+01	8.4030	24.539730	0.000487	4.867169	1.649042	0.000195
 213	2.1094e+01	8.4463	24.676992	0.000345	3.447578	1.168071	0.000138
 214	2.1194e+01	8.4832	24.765809	0.000223	2.230786	0.755811	0.000089
 215	2.1293e+01	8.5217	24.987852	0.000558	5.576965	1.889527	0.000223
 216	2.1392e+01	8.5682	25.161448	0.000436	4.360172	1.477266	0.000174
 217	2.1492e+01	8.6083	25.270451	0.000274	2.737783	0.927586	0.000110
 218	2.1591e+01	8.6356	25.423862	0.000385	3.853176	1.305491	0.000154
 219	2.1691e+01	8.6853	25.544976	0.000304	3.041981	1.030651	0.000122
 220	2.1791e+01	8.7190	25.750870	0.000517	5.171367	1.752107	0.000207
 221	2.1890e+01	8.7639	25.867947	0.000294	2.940581	0.996296	0.000118
 222	2.1989e+01	8.8056	26.025396	0.000395	3.954575	1.339846	0.000158
 223	2.2089e+01	8.8489	26.162658	0.000345	3.447578	1.168071	0.000138
 224	2.2189e+01	8.8842	26.352404	0.000477	4.765770	1.614687	0.000191
 225	2.2288e+01	8.9227	26.445258	0.000233	2.332185	0.790166	0.000093
 226	2.2387e+01	8.9661	26.647114	0.000507	5.069968	1.717752	0.000203
 227	2.2487e+01	8.9869	26.776303	0.000324	3.244779	1.099361	0.000130
 228	2.2587e+01	9.0447	26.937788	0.000406	4.055974	1.374201	0.000162
 229	2.2686e+01	9.0800	27.022568	0.000213	2.129387	0.721456	0.000085
 230	2.2785e+01	9.1201	27.204239	0.000456	4.562971	1.545976	0.000183
 231	2.2885e+01	9.1650	27.361687	0.000395	3.954575	1.339846	0.000158
 232	2.2985e+01	9.2003	27.539321	0.000446	4.461572	1.511621	0.000179
 233	2.3084e+01	9.2420	27.652361	0.000284	2.839182	0.961941	0.000114
 234	2.3183e+01	9.2773	27.797698	0.000365	3.650377	1.236781	0.000146
 235	2.3283e+01	9.3142	27.959184	0.000406	4.055974	1.374201	0.000162
 236	2.3383e+01	9.3543	28.100483	0.000355	3.548978	1.202426	0.000142
 237	2.3482e+01	9.4024	28.266006	0.000416	4.157374	1.408556	0.000166
 238	2.3581e+01	9.4361	28.415380	0.000375	3.751776	1.271136	0.000150
 239	2.3681e+01	9.4778	28.524383	0.000274	2.737783	0.927586	0.000110
 240	2.3780e+01	9.5211	28.685868	0.000406	4.055974	1.374201	0.000162
 241	2.3880e+01	9.5580	28.827168	0.000355	3.548978	1.202426	0.000142
 242	2.3980e+01	9.5965	28.976542	0.000375	3.751776	1.271136	0.000150
 243	2.4079e+01	9.6479	29.150139	0.000436	4.360172	1.477266	0.000174
 244	2.4178e+01	9.6815	29.267216	0.000294	2.940581	0.996296	0.000118
 245	2.4278e+01	9.7265	29.384292	0.000294	2.940581	0.996296	0.000118
 246	2.4378e+01	9.7634	29.582112	0.000497	4.968569	1.683397	0.000199
 247	2.4477e+01	9.8051	29.699189	0.000294	2.940581	0.996296	0.000118
 248	2.4576e+01	9.8420	29.860674	0.000406	4.055974	1.374201	0.000162
 249	2.4676e+01	9.8789	30.014086	0.000385	3.853176	1.305491	0.000154
 250	2.4776e+01	9.9142	30.123088	0.000274	2.737783	0.927586	0.000110
 251	2.4875e+01	9.9591	30.312834	0.000477	4.765770	1.614687	0.000191
 252	2.4974e+01	10.0008	30.442022	0.000324	3.244779	1.099361	0.000130
 253	2.5074e+01	10.0425	30.619656	0.000446	4.461572	1.511621	0.000179
 254	2.5174e+01	10.0842	30.732696	0.000284	2.839182	0.961941	0.000114
 255	2.5273e+01	10.1131	30.890144	0.000395	3.954575	1.339846	0.000158
 256	2.5372e+01	10.1564	31.035481	0.000365	3.650377	1.236781	0.000146
 257	2.5472e+01	10.2013	31.188892	0.000385	3.853176	1.305491	0.000154
 258	2.5572e+01	10.2366	31.358452	0.000426	4.258773	1.442911	0.000170
 259	2.5671e+01	10.2799	31.503789	0.000365	3.650377	1.236781	0.000146
 260	2.5770e+01	10.3200	31.641051	0.000345	3.447578	1.168071	0.000138
 261	2.5870e+01	10.3521	31.802537	0.000406	4.055974	1.374201	0.000162
 262	2.5970e+01	10.4051	31.919614	0.000294	2.940581	0.996296	0.000118
 263	2.6069e+01	10.4307	32.093211	0.000436	4.360172	1.477266	0.000174
 264	2.6169e+01	10.4772	32.202213	0.000274	2.737783	0.927586	0.000110
 265	2.6268e+01	10.5174	32.387921	0.000466	4.664371	1.580332	0.000187
 266	2.6367e+01	10.5575	32.504998	0.000294	2.940581	0.996296	0.000118
 267	2.6467e+01	10.6008	32.654372	0.000375	3.751776	1.271136	0.000150
 268	2.6567e+01	10.6377	32.787598	0.000335	3.346179	1.133716	0.000134
 269	2.6666e+01	10.6714	32.908712	0.000304	3.041981	1.030651	0.000122
 270	2.6765e+01	10.7131	33.102494	0.000487	4.867169	1.649042	0.000195
 271	2.6865e+01	10.7532	33.195349	0.000233	2.332185	0.790166	0.000093
 272	2.6965e+01	10.7965	33.381057	0.000466	4.664371	1.580332	0.000187
 273	2.7064e+01	10.8270	33.518319	0.000345	3.447578	1.168071	0.000138
 274	2.7163e+01	10.8767	33.627322	0.000274	2.737783	0.927586	0.000110
 275	2.7263e+01	10.9104	33.772659	0.000365	3.650377	1.236781	0.000146
 276	2.7363e+01	10.9489	33.946256	0.000436	4.360172	1.477266	0.000174
 277	2.7462e+01	10.9986	34.079481	0.000335	3.346179	1.133716	0.000134
 278	2.7561e+01	11.0387	34.220781	0.000355	3.548978	1.202426	0.000142
 279	2.7661e+01	11.0692	34.366118	0.000365	3.650377	1.236781	0.000146
 280	2.7761e+01	11.1189	34.507418	0.000355	3.548978	1.202426	0.000142
 281	2.7860e+01	11.1542	34.648717	0.000355	3.548978	1.202426	0.000142
 282	2.7959e+01	11.1879	34.785980	0.000345	3.447578	1.168071	0.000138
 283	2.8059e+01	11.2328	34.911131	0.000314	3.143380	1.065006	0.000126
 284	2.8159e+01	11.2826	35.060505	0.000375	3.751776	1.271136	0.000150
 285	2.8258e+01	11.3243	35.246214	0.000466	4.664371	1.580332	0.000187
 286	2.8358e+01	11.3483	35.355216	0.000274	2.737783	0.927586	0.000110
 287	2.8457e+01	11.3852	35.524776	0.000426	4.258773	1.442911	0.000170
 288	2.8556e+01	11.4398	35.662039	0.000345	3.447578	1.168071	0.000138
 289	2.8656e+01	11.4719	35.799301	0.000345	3.447578	1.168071	0.000138
 290	2.8756e+01	11.5152	35.944638	0.000365	3.650377	1.236781	0.000146
 291	2.8855e+01	11.5569	36.085938	0.000355	3.548978	1.202426	0.000142
 292	2.8954e+01	11.5874	36.239349	0.000385	3.853176	1.305491	0.000154
 293	2.9054e+01	11.6307	36.336240	0.000243	2.433585	0.824521	0.000097
 294	2.9154e+01	11.6692	36.521948	0.000466	4.664371	1.580332	0.000187
 295	2.9253e+01	11.7077	36.622877	0.000253	2.534984	0.858876	0.000101
 296	2.9352e+01	11.7478	36.756102	0.000335	3.346179	1.133716	0.000134
 297	2.9452e+01	11.7895	36.909513	0.000385	3.853176	1.305491	0.000154
 298	2.9552e+01	11.8296	37.050813	0.000355	3.548978	1.202426	0.000142
 299	2.9651e+01	11.8649	37.155779	0.000264	2.636383	0.893231	0.000105
 300	2.9750e+01	11.9146	37.333413	0.000446	4.461572	1.511621	0.000179
 301	2.9850e+01	11.9451	37.458564	0.000314	3.143380	1.065006	0.000126
 302	2.9950e+01	11.9965	37.583715	0.000314	3.143380	1.065006	0.000126
 303	3.0049e+01	12.0334	37.729052	0.000365	3.650377	1.236781	0.000146
 304	3.0148e+01	12.0751	37.874389	0.000365	3.650377	1.236781	0.000146
 305	3.0248e+01	12.1055	38.003577	0.000324	3.244779	1.099361	0.000130
 306	3.0348e+01	12.1473	38.156988	0.000385	3.853176	1.305491	0.000154
 307	3.0447e+01	12.1874	38.290214	0.000335	3.346179	1.133716	0.000134
 308	3.0547e+01	12.2162	38.427477	0.000345	3.447578	1.168071	0.000138
 309	3.0646e+01	12.2692	38.584925	0.000395	3.954575	1.339846	0.000158
 310	3.0745e+01	12.3173	38.669705	0.000213	2.129387	0.721456	0.000085
 311	3.0845e+01	12.3414	38.843302	0.000436	4.360172	1.477266	0.000174
 312	3.0945e+01	12.3959	38.996713	0.000385	3.853176	1.305491	0.000154
 313	3.1044e+01	12.4280	39.146087	0.000375	3.751776	1.271136	0.000150
 314	3.1143e+01	12.4713	39.251052	0.000264	2.636383	0.893231	0.000105
 315	3.1243e+01	12.5018	39.412538	0.000406	4.055974	1.374201	0.000162
 316	3.1343e+01	12.5435	39.569986	0.000395	3.954575	1.339846	0.000158
 317	3.1442e+01	12.5900	39.670914	0.000253	2.534984	0.858876	0.000101
 318	3.1541e+01	12.6285	39.824325	0.000385	3.853176	1.305491	0.000154
 319	3.1641e+01	12.6622	39.953514	0.000324	3.244779	1.099361	0.000130
 320	3.1741e+01	12.7151	40.143259	0.000477	4.765770	1.614687	0.000191
 321	3.1840e+01	12.7488	40.236113	0.000233	2.332185	0.790166	0.000093
 322	3.1939e+01	12.7905	40.405673	0.000426	4.258773	1.442911	0.000170
 323	3.2039e+01	12.8258	40.530824	0.000314	3.143380	1.065006	0.000126
 324	3.2139e+01	12.8627	40.668087	0.000345	3.447578	1.168071	0.000138
 325	3.2238e+01	12.9141	40.789201	0.000304	3.041981	1.030651	0.000122
 326	3.2337e+01	12.9462	40.962798	0.000436	4.360172	1.477266	0.000174
 327	3.2437e+01	12.9863	41.071800	0.000274	2.737783	0.927586	0.000110
 328	3.2536e+01	13.0216	41.192915	0.000304	3.041981	1.030651	0.000122
 329	3.2636e+01	13.0617	41.354400	0.000406	4.055974	1.374201	0.000162
 330	3.2736e+01	13.1098	41.491663	0.000345	3.447578	1.168071	0.000138
 331	3.2835e+01	13.1467	41.636999	0.000365	3.650377	1.236781	0.000146
 332	3.2934e+01	13.1852	41.770225	0.000335	3.346179	1.133716	0.000134
 333	3.3034e+01	13.2237	41.875190	0.000264	2.636383	0.893231	0.000105
 334	3.3133e+01	13.2590	42.048787	0.000436	4.360172	1.477266	0.000174
 335	3.3233e+01	13.3103	42.182013	0.000335	3.346179	1.133716	0.000134
 336	3.3333e+01	13.3456	42.311201	0.000324	3.244779	1.099361	0.000130
 337	3.3432e+01	13.3857	42.444427	0.000335	3.346179	1.133716	0.000134
 338	3.3532e+01	13.4290	42.622061	0.000446	4.461572	1.511621	0.000179
 339	3.3631e+01	13.4691	42.747212	0.000314	3.143380	1.065006	0.000126
 340	3.3730e+01	13.5044	42.827954	0.000203	2.027987	0.687101	0.000081
 341	3.3830e+01	13.5397	43.033848	0.000517	5.171367	1.752107	0.000207
 342	3.3929e+01	13.5830	43.118628	0.000213	2.129387	0.721456	0.000085
 343	3.4029e+01	13.6151	43.312411	0.000487	4.867169	1.649042	0.000195
 344	3.4129e+01	13.6568	43.429488	0.000294	2.940581	0.996296	0.000118
 345	3.4228e+01	13.6921	43.550602	0.000304	3.041981	1.030651	0.000122
 346	3.4328e+01	13.7354	43.687864	0.000345	3.447578	1.168071	0.000138
 347	3.4427e+01	13.7948	43.857424	0.000426	4.258773	1.442911	0.000170
 348	3.4526e+01	13.8173	43.958352	0.000253	2.534984	0.858876	0.000101
 349	3.4626e+01	13.8606	44.099652	0.000355	3.548978	1.202426	0.000142
 350	3.4725e+01	13.8975	44.240952	0.000355	3.548978	1.202426	0.000142
 351	3.4825e+01	13.9328	44.382252	0.000355	3.548978	1.202426	0.000142
 352	3.4925e+01	13.9761	44.539700	0.000395	3.954575	1.339846	0.000158
 353	3.5024e+01	14.0162	44.664851	0.000314	3.143380	1.065006	0.000126
 354	3.5123e+01	14.0627	44.842485	0.000446	4.461572	1.511621	0.000179
 355	3.5223e+01	14.0916	44.987822	0.000365	3.650377	1.236781	0.000146
 356	3.5322e+01	14.1397	45.104899	0.000294	2.940581	0.996296	0.000118
 357	3.5422e+01	14.1702	45.242162	0.000345	3.447578	1.168071	0.000138
 358	3.5522e+01	14.2135	45.387499	0.000365	3.650377	1.236781	0.000146
 359	3.5621e+01	14.2632	45.524761	0.000345	3.447578	1.168071	0.000138
 360	3.5721e+01	14.2889	45.662024	0.000345	3.447578	1.168071	0.000138
 361	3.5820e+01	14.3274	45.819472	0.000395	3.954575	1.339846	0.000158
 362	3.5919e+01	14.3787	45.948660	0.000324	3.244779	1.099361	0.000130
 363	3.6019e+01	14.4156	46.106109	0.000395	3.954575	1.339846	0.000158
 364	3.6118e+01	14.4573	46.251446	0.000365	3.650377	1.236781	0.000146
 365	3.6218e+01	14.4910	46.380634	0.000324	3.244779	1.099361	0.000130
 366	3.6318e+01	14.5392	46.509822	0.000324	3.244779	1.099361	0.000130
 367	3.6417e+01	14.5777	46.667271	0.000395	3.954575	1.339846	0.000158
 368	3.6517e+01	14.6210	46.780310	0.000284	2.839182	0.961941	0.000114
 369	3.6616e+01	14.6515	46.957944	0.000446	4.461572	1.511621	0.000179
 370	3.6715e+01	14.7012	47.054836	0.000243	2.433585	0.824521	0.000097
 371	3.6815e+01	14.7365	47.204210	0.000375	3.751776	1.271136	0.000150
 372	3.6914e+01	14.7798	47.337435	0.000335	3.346179	1.133716	0.000134
 373	3.7014e+01	14.8183	47.511032	0.000436	4.360172	1.477266	0.000174
 374	3.7114e+01	14.8632	47.672517	0.000406	4.055974	1.374201	0.000162
 375	3.7213e+01	14.8985	47.809780	0.000345	3.447578	1.168071	0.000138
 376	3.7313e+01	14.9306	47.918783	0.000274	2.737783	0.927586	0.000110
 377	3.7412e+01	14.9787	48.072194	0.000385	3.853176	1.305491	0.000154
 378	3.7511e+01	15.0204	48.229642	0.000395	3.954575	1.339846	0.000158
 379	3.7611e+01	15.0477	48.362868	0.000335	3.346179	1.133716	0.000134
 380	3.7711e+01	15.0926	48.496093	0.000335	3.346179	1.133716	0.000134
 381	3.7810e+01	15.1391	48.641430	0.000365	3.650377	1.236781	0.000146
 382	3.7910e+01	15.1728	48.798878	0.000395	3.954575	1.339846	0.000158
 383	3.8009e+01	15.2129	48.944215	0.000365	3.650377	1.236781	0.000146
 384	3.8108e+01	15.2563	49.028995	0.000213	2.129387	0.721456	0.000085
 385	3.8208e+01	15.2915	49.198555	0.000426	4.258773	1.442911	0.000170
 386	3.8307e+01	15.3349	49.351966	0.000385	3.853176	1.305491	0.000154
 387	3.8407e+01	15.3734	49.521526	0.000426	4.258773	1.442911	0.000170
 388	3.8507e+01	15.4183	49.674937	0.000385	3.853176	1.305491	0.000154
 389	3.8606e+01	15.4504	49.783939	0.000274	2.737783	0.927586	0.000110
 390	3.8706e+01	15.4873	49.925239	0.000355	3.548978	1.202426	0.000142
 391	3.8805e+01	15.5274	50.090762	0.000416	4.157374	1.408556	0.000166
 392	3.8904e+01	15.5739	50.195727	0.000264	2.636383	0.893231	0.000105
 393	3.9004e+01	15.6108	50.369324	0.000436	4.360172	1.477266	0.000174
 394	3.9103e+01	15.6557	50.506587	0.000345	3.447578	1.168071	0.000138
 395	3.9203e+01	15.6894	50.647886	0.000355	3.548978	1.202426	0.000142
 396	3.9303e+01	15.7423	50.764963	0.000294	2.940581	0.996296	0.000118
 397	3.9402e+01	15.7744	50.886077	0.000304	3.041981	1.030651	0.000122
 398	3.9502e+01	15.8113	51.063711	0.000446	4.461572	1.511621	0.000179
 399	3.9601e+01	15.8594	51.200974	0.000345	3.447578	1.168071	0.000138
 400	3.9700e+01	15.8996	51.350348	0.000375	3.751776	1.271136	0.000150
 401	3.9800e+01	15.9413	51.475499	0.000314	3.143380	1.065006	0.000126
 402	3.9900e+01	15.9717	51.608725	0.000335	3.346179	1.133716	0.000134
 403	3.9999e+01	16.0102	51.737913	0.000324	3.244779	1.099361	0.000130
 404	4.0099e+01	16.0552	51.867101	0.000324	3.244779	1.099361	0.000130
 405	4.0198e+01	16.0905	51.988215	0.000304	3.041981	1.030651	0.000122
 406	4.0297e+01	16.1322	52.181998	0.000487	4.867169	1.649042	0.000195
 407	4.0397e+01	16.1755	52.315223	0.000335	3.346179	1.133716	0.000134
 408	4.0496e+01	16.2108	52.444412	0.000324	3.244779	1.099361	0.000130
 409	4.0596e+01	16.2669	52.581674	0.000345	3.447578	1.168071	0.000138
 410	4.0696e+01	16.2878	52.698751	0.000294	2.940581	0.996296	0.000118
 411	4.0795e+01	16.3343	52.856200	0.000395	3.954575	1.339846	0.000158
 412	4.0895e+01	16.3664	53.001537	0.000365	3.650377	1.236781	0.000146
 413	4.0994e+01	16.4145	53.150911	0.000375	3.751776	1.271136	0.000150
 414	4.1093e+01	16.4514	53.251839	0.000253	2.534984	0.858876	0.000101
 415	4.1193e+01	16.4883	53.401213	0.000375	3.751776	1.271136	0.000150
 416	4.1292e+01	16.5364	53.558661	0.000395	3.954575	1.339846	0.000158
 417	4.1392e+01	16.5701	53.708035	0.000375	3.751776	1.271136	0.000150
 418	4.1492e+01	16.6134	53.861446	0.000385	3.853176	1.305491	0.000154
 419	4.1591e+01	16.6519	53.958338	0.000243	2.433585	0.824521	0.000097
 420	4.1691e+01	16.6872	54.131935	0.000436	4.360172	1.477266	0.000174
 421	4.1790e+01	16.7273	54.249011	0.000294	2.940581	0.996296	0.000118
 422	4.1889e+01	16.7658	54.406460	0.000395	3.954575	1.339846	0.000158
 423	4.1989e+01	16.8092	54.543722	0.000345	3.447578	1.168071	0.000138
 424	4.2089e+01	16.8525	54.701171	0.000395	3.954575	1.339846	0.000158
 425	4.2188e+01	16.8797	54.822285	0.000304	3.041981	1.030651	0.000122
 426	4.2288e+01	16.9311	54.995882	0.000436	4.360172	1.477266	0.000174
 427	4.2387e+01	16.9664	55.100847	0.000264	2.636383	0.893231	0.000105
 428	4.2486e+01	17.0113	55.234073	0.000335	3.346179	1.133716	0.000134
 429	4.2586e+01	17.0562	55.395558	0.000406	4.055974	1.374201	0.000162
 430	4.2685e+01	17.0899	55.544932	0.000375	3.751776	1.271136	0.000150
 431	4.2785e+01	17.1268	55.641823	0.000243	2.433585	0.824521	0.000097
 432	4.2885e+01	17.1669	55.795234	0.000385	3.853176	1.305491	0.000154
 433	4.2984e+01	17.2070	55.956720	0.000406	4.055974	1.374201	0.000162
 434	4.3084e+01	17.2471	56.053611	0.000243	2.433585	0.824521	0.000097
 435	4.3183e+01	17.2904	56.215097	0.000406	4.055974	1.374201	0.000162
 436	4.3282e+01	17.3225	56.328136	0.000284	2.839182	0.961941	0.000114
 437	4.3382e+01	17.3642	56.449250	0.000304	3.041981	1.030651	0.000122
 438	4.3481e+01	17.4027	56.638996	0.000477	4.765770	1.614687	0.000191
 439	4.3581e+01	17.4541	56.756073	0.000294	2.940581	0.996296	0.000118
 440	4.3681e+01	17.4926	56.881224	0.000314	3.143380	1.065006	0.000126
 441	4.3780e+01	17.5262	57.038672	0.000395	3.954575	1.339846	0.000158
 442	4.3880e+01	17.5680	57.147675	0.000274	2.737783	0.927586	0.000110
 443	4.3979e+01	17.6145	57.272826	0.000314	3.143380	1.065006	0.000126
 444	4.4078e+01	17.6466	57.406052	0.000335	3.346179	1.133716	0.000134
 445	4.4178e+01	17.6915	57.587723	0.000456	4.562971	1.545976	0.000183
 446	4.4278e+01	17.7268	57.696725	0.000274	2.737783	0.927586	0.000110
 447	4.4377e+01	17.7685	57.838025	0.000355	3.548978	1.202426	0.000142
 448	4.4477e+01	17.8070	57.967213	0.000324	3.244779	1.099361	0.000130
 449	4.4576e+01	17.8471	58.124662	0.000395	3.954575	1.339846	0.000158
 450	4.4675e+01	17.8760	58.274036	0.000375	3.751776	1.271136	0.000150
 451	4.4775e+01	17.9321	58.415336	0.000355	3.548978	1.202426	0.000142
 452	4.4874e+01	17.9722	58.508190	0.000233	2.332185	0.790166	0.000093
 453	4.4974e+01	18.0059	58.625267	0.000294	2.940581	0.996296	0.000118
 454	4.5074e+01	18.0444	58.778678	0.000385	3.853176	1.305491	0.000154
 455	4.5173e+01	18.0845	58.932089	0.000385	3.853176	1.305491	0.000154
 456	4.5273e+01	18.1182	59.081463	0.000375	3.751776	1.271136	0.000150
 457	4.5372e+01	18.1711	59.206614	0.000314	3.143380	1.065006	0.000126
 458	4.5471e+01	18.1984	59.319654	0.000284	2.839182	0.961941	0.000114
 459	4.5571e+01	18.2401	59.448842	0.000324	3.244779	1.099361	0.000130
 460	4.5670e+01	18.2850	59.586105	0.000345	3.447578	1.168071	0.000138
 461	4.5770e+01	18.3219	59.703182	0.000294	2.940581	0.996296	0.000118
 462	4.5870e+01	18.3556	59.856593	0.000385	3.853176	1.305491	0.000154
 463	4.5969e+01	18.4038	59.997893	0.000355	3.548978	1.202426	0.000142
 464	4.6069e+01	18.4439	60.102858	0.000264	2.636383	0.893231	0.000105
 465	4.6168e+01	18.4759	60.256269	0.000385	3.853176	1.305491	0.000154
 466	4.6267e+01	18.5128	60.365272	0.000274	2.737783	0.927586	0.000110
 467	4.6367e+01	18.5626	60.506572	0.000355	3.548978	1.202426	0.000142
 468	4.6467e+01	18.6075	60.607500	0.000253	2.534984	0.858876	0.000101
 469	4.6566e+01	18.6396	60.809357	0.000507	5.069968	1.717752	0.000203
 470	4.6666e+01	18.6765	60.910285	0.000253	2.534984	0.858876	0.000101
 471	4.6765e+01	18.7230	61.039474	0.000324	3.244779	1.099361	0.000130
 472	4.6864e+01	18.7631	61.164625	0.000314	3.143380	1.065006	0.000126
 473	4.6964e+01	18.8016	61.293813	0.000324	3.244779	1.099361	0.000130
 474	4.7063e+01	18.8465	61.471447	0.000446	4.461572	1.511621	0.000179
 475	4.7163e+01	18.8850	61.532004	0.000152	1.520990	0.515325	0.000061
 476	4.7263e+01	18.9219	61.741935	0.000527	5.272767	1.786462	0.000211
 477	4.7362e+01	18.9588	61.826715	0.000213	2.129387	0.721456	0.000085
 478	4.7462e+01	19.0021	61.943792	0.000294	2.940581	0.996296	0.000118
 479	4.7561e+01	19.0471	62.089129	0.000365	3.650377	1.236781	0.000146
 480	4.7660e+01	19.0807	62.270800	0.000456	4.562971	1.545976	0.000183
 481	4.7760e+01	19.1096	62.424211	0.000385	3.853176	1.305491	0.000154
 482	4.7859e+01	19.1610	62.504954	0.000203	2.027987	0.687101	0.000081
 483	4.7959e+01	19.2043	62.622031	0.000294	2.940581	0.996296	0.000118
 484	4.8059e+01	19.2348	62.775442	0.000385	3.853176	1.305491	0.000154
 485	4.8158e+01	19.2877	62.904631	0.000324	3.244779	1.099361	0.000130
 486	4.8258e+01	19.3166	63.045930	0.000355	3.548978	1.202426	0.000142
 487	4.8357e+01	19.3599	63.191267	0.000365	3.650377	1.236781	0.000146
 488	4.8456e+01	19.4048	63.296233	0.000264	2.636383	0.893231	0.000105
 489	4.8556e+01	19.4449	63.490015	0.000487	4.867169	1.649042	0.000195
 490	4.8656e+01	19.4722	63.582869	0.000233	2.332185	0.790166	0.000093
 491	4.8755e+01	19.5203	63.683798	0.000253	2.534984	0.858876	0.000101
 492	4.8855e+01	19.5540	63.821060	0.000345	3.447578	1.168071	0.000138
 493	4.8954e+01	19.5973	63.962360	0.000355	3.548978	1.202426	0.000142
 494	4.9053e+01	19.6326	64.139994	0.000446	4.461572	1.511621	0.000179
 495	4.9153e+01	19.6679	64.212662	0.000183	1.825188	0.618391	0.000073
 496	4.9252e+01	19.7240	64.374148	0.000406	4.055974	1.374201	0.000162
 497	4.9352e+01	19.7609	64.519485	0.000365	3.650377	1.236781	0.000146
 498	4.9452e+01	19.7962	64.652710	0.000335	3.346179	1.133716	0.000134
 499	4.9551e+01	19.8363	64.765750	0.000284	2.839182	0.961941	0.000114
 500	4.9651e+01	19.8764	64.903013	0.000345	3.447578	1.168071	0.000138
 501	4.9750e+01	19.9214	65.056424	0.000385	3.853176	1.305491	0.000154
 502	4.9849e+01	19.9567	65.169464	0.000284	2.839182	0.961941	0.000114
 503	4.9949e+01	19.9936	65.306726	0.000345	3.447578	1.168071	0.000138
 504	5.0048e+01	19.9534	65.205798	0.000253	2.534984	0.858876	-0.000101
 505	5.0148e+01	19.9149	65.108907	0.000243	2.433585	0.824521	-0.000097
 506	5.0248e+01	19.8764	64.995867	0.000284	2.839182	0.961941	-0.000114
 507	5.0347e+01	19.8267	64.854567	0.000355	3.548978	1.202426	-0.000142
 508	5.0447e+01	19.7866	64.806121	0.000122	1.216792	0.412260	-0.000049
 509	5.0546e+01	19.7513	64.668859	0.000345	3.447578	1.168071	-0.000138
 510	5.0645e+01	19.7128	64.571968	0.000243	2.433585	0.824521	-0.000097
 511	5.0745e+01	19.6759	64.462965	0.000274	2.737783	0.927586	-0.000110
 512	5.0844e+01	19.6342	64.321665	0.000355	3.548978	1.202426	-0.000142
 513	5.0944e+01	19.6005	64.232848	0.000223	2.230786	0.755811	-0.000089
 514	5.1044e+01	19.5556	64.135957	0.000243	2.433585	0.824521	-0.000097
 515	5.1143e+01	19.5251	63.982546	0.000385	3.853176	1.305491	-0.000154
 516	5.1242e+01	19.4770	63.905840	0.000193	1.926588	0.652746	-0.000077
 517	5.1342e+01	19.4369	63.825097	0.000203	2.027987	0.687101	-0.000081
 518	5.1441e+01	19.4048	63.655538	0.000426	4.258773	1.442911	-0.000170
 519	5.1541e+01	19.3551	63.574795	0.000203	2.027987	0.687101	-0.000081
 520	5.1641e+01	19.3246	63.425421	0.000375	3.751776	1.271136	-0.000150
 521	5.1740e+01	19.2781	63.344678	0.000203	2.027987	0.687101	-0.000081
 522	5.1840e+01	19.2364	63.239713	0.000264	2.636383	0.893231	-0.000105
 523	5.1939e+01	19.1979	63.130710	0.000274	2.737783	0.927586	-0.000110
 524	5.2038e+01	19.1594	62.993447	0.000345	3.447578	1.168071	-0.000138
 525	5.2138e+01	19.1225	62.892519	0.000253	2.534984	0.858876	-0.000101
 526	5.2237e+01	19.0920	62.763331	0.000324	3.244779	1.099361	-0.000130
 527	5.2337e+01	19.0422	62.646254	0.000294	2.940581	0.996296	-0.000118
 528	5.2437e+01	19.0086	62.545325	0.000253	2.534984	0.858876	-0.000101
 529	5.2536e+01	18.9652	62.440360	0.000264	2.636383	0.893231	-0.000105
 530	5.2636e+01	18.9171	62.331357	0.000274	2.737783	0.927586	-0.000110
 531	5.2735e+01	18.8802	62.177946	0.000385	3.853176	1.305491	-0.000154
 532	5.2834e+01	18.8449	62.097203	0.000203	2.027987	0.687101	-0.000081
 533	5.2934e+01	18.7984	61.963978	0.000335	3.346179	1.133716	-0.000134
 534	5.3033e+01	18.7567	61.867087	0.000243	2.433585	0.824521	-0.000097
 535	5.3133e+01	18.7214	61.737898	0.000324	3.244779	1.099361	-0.000130
 536	5.3233e+01	18.6813	61.588524	0.000375	3.751776	1.271136	-0.000150
 537	5.3332e+01	18.6460	61.523930	0.000162	1.622390	0.549681	-0.000065
 538	5.3431e+01	18.6027	61.406853	0.000294	2.940581	0.996296	-0.000118
 539	5.3531e+01	18.5594	61.269591	0.000345	3.447578	1.168071	-0.000138
 540	5.3630e+01	18.5177	61.152514	0.000294	2.940581	0.996296	-0.000118
 541	5.3730e+01	18.4808	61.051585	0.000253	2.534984	0.858876	-0.000101
 542	5.3830e+01	18.4455	60.926434	0.000314	3.143380	1.065006	-0.000126
 543	5.3929e+01	18.4086	60.813394	0.000284	2.839182	0.961941	-0.000114
 544	5.4029e+01	18.3604	60.712466	0.000253	2.534984	0.858876	-0.000101
 545	5.4128e+01	18.3219	60.571166	0.000355	3.548978	1.202426	-0.000142
 546	5.4227e+01	18.2818	60.482349	0.000223	2.230786	0.755811	-0.000089
 547	5.4327e+01	18.2353	60.349124	0.000335	3.346179	1.133716	-0.000134
 548	5.4426e+01	18.2016	60.228010	0.000304	3.041981	1.030651	-0.000122
 549	5.4526e+01	18.1567	60.131118	0.000243	2.433585	0.824521	-0.000097
 550	5.4626e+01	18.1246	59.993856	0.000345	3.447578	1.168071	-0.000138
 551	5.4725e+01	18.0861	59.880816	0.000284	2.839182	0.961941	-0.000114
 552	5.4825e+01	18.0460	59.751627	0.000324	3.244779	1.099361	-0.000130
 553	5.4924e+01	18.0075	59.674922	0.000193	1.926588	0.652746	-0.000077
 554	5.5023e+01	17.9578	59.537659	0.000345	3.447578	1.168071	-0.000138
 555	5.5123e+01	17.9273	59.428657	0.000274	2.737783	0.927586	-0.000110
 556	5.5222e+01	17.8792	59.271208	0.000395	3.954575	1.339846	-0.000158
 557	5.5322e+01	17.8471	59.206614	0.000162	1.622390	0.549681	-0.000065
 558	5.5422e+01	17.8070	59.093574	0.000284	2.839182	0.961941	-0.000114
 559	5.5521e+01	17.7653	58.948237	0.000365	3.650377	1.236781	-0.000146
 560	5.5620e+01	17.7252	58.839235	0.000274	2.737783	0.927586	-0.000110
 561	5.5720e+01	17.6899	58.730232	0.000274	2.737783	0.927586	-0.000110
 562	5.5819e+01	17.6417	58.592970	0.000345	3.447578	1.168071	-0.000138
 563	5.5919e+01	17.6049	58.496078	0.000243	2.433585	0.824521	-0.000097
 564	5.6019e+01	17.5663	58.338630	0.000395	3.954575	1.339846	-0.000158
 565	5.6118e+01	17.5375	58.269999	0.000172	1.723789	0.584036	-0.000069
 566	5.6218e+01	17.4910	58.136773	0.000335	3.346179	1.133716	-0.000134
 567	5.6317e+01	17.4492	57.995473	0.000355	3.548978	1.202426	-0.000142
 568	5.6416e+01	17.4059	57.910694	0.000213	2.129387	0.721456	-0.000085
 569	5.6516e+01	17.3626	57.761320	0.000375	3.751776	1.271136	-0.000150
 570	5.6615e+01	17.3273	57.624057	0.000345	3.447578	1.168071	-0.000138
 571	5.6715e+01	17.2824	57.482757	0.000355	3.548978	1.202426	-0.000142
 572	5.6815e+01	17.2503	57.406052	0.000193	1.926588	0.652746	-0.000077
 573	5.6914e+01	17.2134	57.268789	0.000345	3.447578	1.168071	-0.000138
 574	5.7014e+01	17.1781	57.163823	0.000264	2.636383	0.893231	-0.000105
 575	5.7113e+01	17.1284	56.970041	0.000487	4.867169	1.649042	-0.000195
 576	5.7212e+01	17.0835	56.921595	0.000122	1.216792	0.412260	-0.000049
 577	5.7312e+01	17.0546	56.768184	0.000385	3.853176	1.305491	-0.000154
 578	5.7411e+01	17.0129	56.655144	0.000284	2.839182	0.961941	-0.000114
 579	5.7511e+01	16.9728	56.546142	0.000274	2.737783	0.927586	-0.000110
 580	5.7611e+01	16.9166	56.437139	0.000274	2.737783	0.927586	-0.000110
 581	5.7710e+01	16.8894	56.316025	0.000304	3.041981	1.030651	-0.000122
 582	5.7809e+01	16.8460	56.219134	0.000243	2.433585	0.824521	-0.000097
 583	5.7909e+01	16.8059	56.081871	0.000345	3.447578	1.168071	-0.000138
 584	5.8008e+01	16.7723	55.940571	0.000355	3.548978	1.202426	-0.000142
 585	5.8108e+01	16.7289	55.831569	0.000274	2.737783	0.927586	-0.000110
 586	5.8208e+01	16.6920	55.686232	0.000365	3.650377	1.236781	-0.000146
 587	5.8307e+01	16.6551	55.573192	0.000284	2.839182	0.961941	-0.000114
 588	5.8407e+01	16.6150	55.472264	0.000253	2.534984	0.858876	-0.000101
 589	5.8506e+01	16.5669	55.367298	0.000264	2.636383	0.893231	-0.000105
 590	5.8605e+01	16.5284	55.213887	0.000385	3.853176	1.305491	-0.000154
 591	5.8705e+01	16.4899	55.092773	0.000304	3.041981	1.030651	-0.000122
 592	5.8804e+01	16.4354	55.007993	0.000213	2.129387	0.721456	-0.000085
 593	5.8904e+01	16.4177	54.870730	0.000345	3.447578	1.168071	-0.000138
 594	5.9004e+01	16.3728	54.705208	0.000416	4.157374	1.408556	-0.000166
 595	5.9103e+01	16.3231	54.596205	0.000274	2.737783	0.927586	-0.000110
 596	5.9203e+01	16.2894	54.471054	0.000314	3.143380	1.065006	-0.000126
 597	5.9302e+01	16.2429	54.366088	0.000264	2.636383	0.893231	-0.000105
 598	5.9401e+01	16.2092	54.200566	0.000416	4.157374	1.408556	-0.000166
 599	5.9501e+01	16.1675	54.119823	0.000203	2.027987	0.687101	-0.000081
 600	5.9600e+01	16.1322	53.990635	0.000324	3.244779	1.099361	-0.000130
 601	5.9700e+01	16.0856	53.857409	0.000335	3.346179	1.133716	-0.000134
 602	5.9800e+01	16.0536	53.703998	0.000385	3.853176	1.305491	-0.000154
 603	5.9899e+01	16.0118	53.611144	0.000233	2.332185	0.790166	-0.000093
 604	5.9998e+01	15.9766	53.506179	0.000264	2.636383	0.893231	-0.000105
 605	6.0098e+01	15.9381	53.356804	0.000375	3.751776	1.271136	-0.000150
 606	6.0197e+01	15.8947	53.247802	0.000274	2.737783	0.927586	-0.000110
 607	6.0297e+01	15.8594	53.110539	0.000345	3.447578	1.168071	-0.000138
 608	6.0397e+01	15.8161	52.985388	0.000314	3.143380	1.065006	-0.000126
 609	6.0496e+01	15.7728	52.840051	0.000365	3.650377	1.236781	-0.000146
 610	6.0596e+01	15.7343	52.694714	0.000365	3.650377	1.236781	-0.000146
 611	6.0695e+01	15.6958	52.605897	0.000223	2.230786	0.755811	-0.000089
 612	6.0794e+01	15.6541	52.496895	0.000274	2.737783	0.927586	-0.000110
 613	6.0894e+01	15.6220	52.363669	0.000335	3.346179	1.133716	-0.000134
 614	6.0993e+01	15.5707	52.226406	0.000345	3.447578	1.168071	-0.000138
 615	6.1093e+01	15.5354	52.113367	0.000284	2.839182	0.961941	-0.000114
 616	6.1193e+01	15.4921	51.976104	0.000345	3.447578	1.168071	-0.000138
 617	6.1292e+01	15.4520	51.863064	0.000284	2.839182	0.961941	-0.000114
 618	6.1392e+01	15.4119	51.709653	0.000385	3.853176	1.305491	-0.000154
 619	6.1491e+01	15.3878	51.552205	0.000395	3.954575	1.339846	-0.000158
 620	6.1590e+01	15.3252	51.439165	0.000284	2.839182	0.961941	-0.000114
 621	6.1690e+01	15.2948	51.334199	0.000264	2.636383	0.893231	-0.000105
 622	6.1789e+01	15.2546	51.156566	0.000446	4.461572	1.511621	-0.000179
 623	6.1889e+01	15.2178	51.055637	0.000253	2.534984	0.858876	-0.000101
 624	6.1989e+01	15.1712	50.934523	0.000304	3.041981	1.030651	-0.000122
 625	6.2088e+01	15.1407	50.821483	0.000284	2.839182	0.961941	-0.000114
 626	6.2188e+01	15.1022	50.700369	0.000304	3.041981	1.030651	-0.000122
 627	6.2287e+01	15.0557	50.502550	0.000497	4.968569	1.683397	-0.000199
 628	6.2386e+01	15.0188	50.381435	0.000304	3.041981	1.030651	-0.000122
 629	6.2486e+01	14.9707	50.256284	0.000314	3.143380	1.065006	-0.000126
 630	6.2586e+01	14.9370	50.110947	0.000365	3.650377	1.236781	-0.000146
 631	6.2685e+01	14.8985	50.030205	0.000203	2.027987	0.687101	-0.000081
 632	6.2785e+01	14.8600	49.901016	0.000324	3.244779	1.099361	-0.000130
 633	6.2884e+01	14.8183	49.751642	0.000375	3.751776	1.271136	-0.000150
 634	6.2983e+01	14.7750	49.590157	0.000406	4.055974	1.374201	-0.000162
 635	6.3083e+01	14.7445	49.493266	0.000243	2.433585	0.824521	-0.000097
 636	6.3182e+01	14.6996	49.372152	0.000304	3.041981	1.030651	-0.000122
 637	6.3282e+01	14.6579	49.238926	0.000335	3.346179	1.133716	-0.000134
 638	6.3382e+01	14.6114	49.093589	0.000365	3.650377	1.236781	-0.000146
 639	6.3481e+01	14.5696	48.968438	0.000314	3.143380	1.065006	-0.000126
 640	6.3581e+01	14.5343	48.851361	0.000294	2.940581	0.996296	-0.000118
 641	6.3680e+01	14.5007	48.669690	0.000456	4.562971	1.545976	-0.000183
 642	6.3779e+01	14.4557	48.560687	0.000274	2.737783	0.927586	-0.000110
 643	6.3879e+01	14.4188	48.443610	0.000294	2.940581	0.996296	-0.000118
 644	6.3978e+01	14.3868	48.310385	0.000335	3.346179	1.133716	-0.000134
 645	6.4078e+01	14.3386	48.161011	0.000375	3.751776	1.271136	-0.000150
 646	6.4177e+01	14.3033	48.035860	0.000314	3.143380	1.065006	-0.000126
 647	6.4277e+01	14.2488	47.955117	0.000203	2.027987	0.687101	-0.000081
 648	6.4376e+01	14.2167	47.773446	0.000456	4.562971	1.545976	-0.000183
 649	6.4476e+01	14.1782	47.640220	0.000335	3.346179	1.133716	-0.000134
 650	6.4576e+01	14.1413	47.502958	0.000345	3.447578	1.168071	-0.000138
 651	6.4675e+01	14.1012	47.373769	0.000324	3.244779	1.099361	-0.000130
 652	6.4775e+01	14.0515	47.236507	0.000345	3.447578	1.168071	-0.000138
 653	6.4874e+01	14.0146	47.119430	0.000294	2.940581	0.996296	-0.000118
 654	6.4974e+01	13.9825	47.006390	0.000284	2.839182	0.961941	-0.000114
 655	6.5073e+01	13.9424	46.840867	0.000416	4.157374	1.408556	-0.000166
 656	6.5172e+01	13.8975	46.715716	0.000314	3.143380	1.065006	-0.000126
 657	6.5272e+01	13.8606	46.614788	0.000253	2.534984	0.858876	-0.000101
 658	6.5371e+01	13.8253	46.457340	0.000395	3.954575	1.339846	-0.000158
 659	6.5471e+01	13.7820	46.384671	0.000183	1.825188	0.618391	-0.000073
 660	6.5570e+01	13.7435	46.203000	0.000456	4.562971	1.545976	-0.000183
 661	6.5670e+01	13.6905	46.069774	0.000335	3.346179	1.133716	-0.000134
 662	6.5769e+01	13.6616	45.940586	0.000324	3.244779	1.099361	-0.000130
 663	6.5869e+01	13.6247	45.803324	0.000345	3.447578	1.168071	-0.000138
 664	6.5969e+01	13.5782	45.662024	0.000355	3.548978	1.202426	-0.000142
 665	6.6068e+01	13.5429	45.540910	0.000304	3.041981	1.030651	-0.000122
 666	6.6168e+01	13.4964	45.371350	0.000426	4.258773	1.442911	-0.000170
 667	6.6267e+01	13.4627	45.274459	0.000243	2.433585	0.824521	-0.000097
 668	6.6367e+01	13.4162	45.133159	0.000355	3.548978	1.202426	-0.000142
 669	6.6466e+01	13.3873	44.995896	0.000345	3.447578	1.168071	-0.000138
 670	6.6566e+01	13.3344	44.862671	0.000335	3.346179	1.133716	-0.000134
 671	6.6665e+01	13.3055	44.717334	0.000365	3.650377	1.236781	-0.000146
 672	6.6764e+01	13.2638	44.604294	0.000284	2.839182	0.961941	-0.000114
 673	6.6864e+01	13.2237	44.487217	0.000294	2.940581	0.996296	-0.000118
 674	6.6963e+01	13.1788	44.305546	0.000456	4.562971	1.545976	-0.000183
 675	6.7063e+01	13.1483	44.208655	0.000243	2.433585	0.824521	-0.000097
 676	6.7162e+01	13.0986	44.067355	0.000355	3.548978	1.202426	-0.000142
 677	6.7262e+01	13.0633	43.926055	0.000355	3.548978	1.202426	-0.000142
 678	6.7362e+01	13.0392	43.780719	0.000365	3.650377	1.236781	-0.000146
 679	6.7461e+01	12.9798	43.663642	0.000294	2.940581	0.996296	-0.000118
 680	6.7561e+01	12.9413	43.558676	0.000264	2.636383	0.893231	-0.000105
 681	6.7660e+01	12.8980	43.429488	0.000324	3.244779	1.099361	-0.000130
 682	6.7760e+01	12.8708	43.280114	0.000375	3.751776	1.271136	-0.000150
 683	6.7859e+01	12.8242	43.150925	0.000324	3.244779	1.099361	-0.000130
 684	6.7959e+01	12.7905	43.021737	0.000324	3.244779	1.099361	-0.000130
 685	6.8058e+01	12.7537	42.876400	0.000365	3.650377	1.236781	-0.000146
 686	6.8157e+01	12.7103	42.755286	0.000304	3.041981	1.030651	-0.000122
 687	6.8257e+01	12.6831	42.634172	0.000304	3.041981	1.030651	-0.000122
 688	6.8356e+01	12.6253	42.513058	0.000304	3.041981	1.030651	-0.000122
 689	6.8456e+01	12.5852	42.371758	0.000355	3.548978	1.202426	-0.000142
 690	6.8555e+01	12.5483	42.246607	0.000314	3.143380	1.065006	-0.000126
 691	6.8655e+01	12.5194	42.101270	0.000365	3.650377	1.236781	-0.000146
 692	6.8754e+01	12.4713	41.943822	0.000395	3.954575	1.339846	-0.000158
 693	6.8854e+01	12.4328	41.822708	0.000304	3.041981	1.030651	-0.000122
 694	6.8954e+01	12.3799	41.705631	0.000294	2.940581	0.996296	-0.000118
 695	6.9053e+01	12.3510	41.556257	0.000375	3.751776	1.271136	-0.000150
 696	6.9153e+01	12.3061	41.499737	0.000142	1.419591	0.480970	-0.000057
 697	6.9252e+01	12.2708	41.322103	0.000446	4.461572	1.511621	-0.000179
 698	6.9352e+01	12.2307	41.180803	0.000355	3.548978	1.202426	-0.000142
 699	6.9451e+01	12.1954	41.051615	0.000324	3.244779	1.099361	-0.000130
 700	6.9550e+01	12.1505	40.902241	0.000375	3.751776	1.271136	-0.000150
 701	6.9650e+01	12.1120	40.797275	0.000264	2.636383	0.893231	-0.000105
 702	6.9749e+01	12.0702	40.651938	0.000365	3.650377	1.236781	-0.000146
 703	6.9849e+01	12.0317	40.526787	0.000314	3.143380	1.065006	-0.000126
 704	6.9948e+01	11.9900	40.373376	0.000385	3.853176	1.305491	-0.000154
 705	7.0048e+01	11.9547	40.244188	0.000324	3.244779	1.099361	-0.000130
 706	7.0147e+01	11.9082	40.102888	0.000355	3.548978	1.202426	-0.000142
 707	7.0247e+01	11.8777	39.993885	0.000274	2.737783	0.927586	-0.000110
 708	7.0347e+01	11.8280	39.832400	0.000406	4.055974	1.374201	-0.000162
 709	7.0446e+01	11.7959	39.711286	0.000304	3.041981	1.030651	-0.000122
 710	7.0546e+01	11.7526	39.565949	0.000365	3.650377	1.236781	-0.000146
 711	7.0645e+01	11.7109	39.460983	0.000264	2.636383	0.893231	-0.000105
 712	7.0745e+01	11.6740	39.295461	0.000416	4.157374	1.408556	-0.000166
 713	7.0844e+01	11.6371	39.222792	0.000183	1.825188	0.618391	-0.000073
 714	7.0944e+01	11.5938	39.057270	0.000416	4.157374	1.408556	-0.000166
 715	7.1043e+01	11.5553	38.976527	0.000203	2.027987	0.687101	-0.000081
 716	7.1142e+01	11.5136	38.798893	0.000446	4.461572	1.511621	-0.000179
 717	7.1242e+01	11.4719	38.681816	0.000294	2.940581	0.996296	-0.000118
 718	7.1341e+01	11.4270	38.552628	0.000324	3.244779	1.099361	-0.000130
 719	7.1441e+01	11.3981	38.427477	0.000314	3.143380	1.065006	-0.000126
 720	7.1540e+01	11.3580	38.278103	0.000375	3.751776	1.271136	-0.000150
 721	7.1640e+01	11.3211	38.181211	0.000243	2.433585	0.824521	-0.000097
 722	7.1740e+01	11.2762	38.007614	0.000436	4.360172	1.477266	-0.000174
 723	7.1839e+01	11.2328	37.926872	0.000203	2.027987	0.687101	-0.000081
 724	7.1939e+01	11.1975	37.813832	0.000284	2.839182	0.961941	-0.000114
 725	7.2038e+01	11.1606	37.607938	0.000517	5.171367	1.752107	-0.000207
 726	7.2138e+01	11.1189	37.478750	0.000324	3.244779	1.099361	-0.000130
 727	7.2237e+01	11.0708	37.373784	0.000264	2.636383	0.893231	-0.000105
 728	7.2337e+01	11.0323	37.232484	0.000355	3.548978	1.202426	-0.000142
 729	7.2436e+01	10.9938	37.087147	0.000365	3.650377	1.236781	-0.000146
 730	7.2535e+01	10.9473	36.986219	0.000253	2.534984	0.858876	-0.000101
 731	7.2635e+01	10.9120	36.808585	0.000446	4.461572	1.511621	-0.000179
 732	7.2734e+01	10.8815	36.691508	0.000294	2.940581	0.996296	-0.000118
 733	7.2834e+01	10.8382	36.582505	0.000274	2.737783	0.927586	-0.000110
 734	7.2933e+01	10.7949	36.429094	0.000385	3.853176	1.305491	-0.000154
 735	7.3033e+01	10.7612	36.283757	0.000365	3.650377	1.236781	-0.000146
 736	7.3132e+01	10.7115	36.142458	0.000355	3.548978	1.202426	-0.000142
 737	7.3232e+01	10.6778	36.005195	0.000345	3.447578	1.168071	-0.000138
 738	7.3332e+01	10.6313	35.900230	0.000264	2.636383	0.893231	-0.000105
 739	7.3431e+01	10.5944	35.742781	0.000395	3.954575	1.339846	-0.000158
 740	7.3531e+01	10.5559	35.625704	0.000294	2.940581	0.996296	-0.000118
 741	7.3630e+01	10.5141	35.456145	0.000426	4.258773	1.442911	-0.000170
 742	7.3730e+01	10.4756	35.355216	0.000253	2.534984	0.858876	-0.000101
 743	7.3829e+01	10.4323	35.193731	0.000406	4.055974	1.374201	-0.000162
 744	7.3928e+01	10.4002	35.040320	0.000385	3.853176	1.305491	-0.000154
 745	7.4028e+01	10.3521	34.939391	0.000253	2.534984	0.858876	-0.000101
 746	7.4127e+01	10.3168	34.818277	0.000304	3.041981	1.030651	-0.000122
 747	7.4227e+01	10.2751	34.668903	0.000375	3.751776	1.271136	-0.000150
 748	7.4326e+01	10.2398	34.535678	0.000335	3.346179	1.133716	-0.000134
 749	7.4426e+01	10.1917	34.406489	0.000324	3.244779	1.099361	-0.000130
 750	7.4525e+01	10.1564	34.265190	0.000355	3.548978	1.202426	-0.000142
 751	7.4625e+01	10.1211	34.115816	0.000375	3.751776	1.271136	-0.000150
 752	7.4725e+01	10.0778	34.002776	0.000284	2.839182	0.961941	-0.000114
 753	7.4824e+01	10.0425	33.897810	0.000264	2.636383	0.893231	-0.000105
 754	7.4924e+01	9.9912	33.736325	0.000406	4.055974	1.374201	-0.000162
 755	7.5023e+01	9.9607	33.566765	0.000426	4.258773	1.442911	-0.000170
 756	7.5123e+01	9.9110	33.437577	0.000324	3.244779	1.099361	-0.000130
 757	7.5222e+01	9.8869	33.328574	0.000274	2.737783	0.927586	-0.000110
 758	7.5322e+01	9.8339	33.167089	0.000406	4.055974	1.374201	-0.000162
 759	7.5421e+01	9.8035	33.078272	0.000223	2.230786	0.755811	-0.000089
 760	7.5520e+01	9.7537	32.932935	0.000365	3.650377	1.236781	-0.000146
 761	7.5620e+01	9.7233	32.787598	0.000365	3.650377	1.236781	-0.000146
 762	7.5719e+01	9.6831	32.638224	0.000375	3.751776	1.271136	-0.000150
 763	7.5819e+01	9.6414	32.533258	0.000264	2.636383	0.893231	-0.000105
 764	7.5918e+01	9.5965	32.347550	0.000466	4.664371	1.580332	-0.000187
 765	7.6018e+01	9.5660	32.230473	0.000294	2.940581	0.996296	-0.000118
 766	7.6118e+01	9.5227	32.093211	0.000345	3.447578	1.168071	-0.000138
 767	7.6217e+01	9.4810	31.964022	0.000324	3.244779	1.099361	-0.000130
 768	7.6317e+01	9.4489	31.814648	0.000375	3.751776	1.271136	-0.000150
 769	7.6416e+01	9.4072	31.693534	0.000304	3.041981	1.030651	-0.000122
 770	7.6516e+01	9.3655	31.519937	0.000436	4.360172	1.477266	-0.000174
 771	7.6615e+01	9.3126	31.427083	0.000233	2.332185	0.790166	-0.000093
 772	7.6715e+01	9.2885	31.281746	0.000365	3.650377	1.236781	-0.000146
 773	7.6814e+01	9.2468	31.136409	0.000365	3.650377	1.236781	-0.000146
 774	7.6913e+01	9.2051	31.003184	0.000335	3.346179	1.133716	-0.000134
 775	7.7013e+01	9.1586	30.845736	0.000395	3.954575	1.339846	-0.000158
 776	7.7112e+01	9.1185	30.712510	0.000335	3.346179	1.133716	-0.000134
 777	7.7212e+01	9.0735	30.563136	0.000375	3.751776	1.271136	-0.000150
 778	7.7311e+01	9.0415	30.442022	0.000304	3.041981	1.030651	-0.000122
 779	7.7411e+01	9.0030	30.320908	0.000304	3.041981	1.030651	-0.000122
 780	7.7510e+01	8.9596	30.175571	0.000365	3.650377	1.236781	-0.000146
 781	7.7610e+01	8.9179	30.026197	0.000375	3.751776	1.271136	-0.000150
 782	7.7710e+01	8.8842	29.897009	0.000324	3.244779	1.099361	-0.000130
 783	7.7809e+01	8.8281	29.723412	0.000436	4.360172	1.477266	-0.000174
 784	7.7909e+01	8.8024	29.610372	0.000284	2.839182	0.961941	-0.000114
 785	7.8008e+01	8.7607	29.465035	0.000365	3.650377	1.236781	-0.000146
 786	7.8108e+01	8.7238	29.327773	0.000345	3.447578	1.168071	-0.000138
 787	7.8207e+01	8.6821	29.166287	0.000406	4.055974	1.374201	-0.000162
 788	7.8306e+01	8.6500	29.029025	0.000345	3.447578	1.168071	-0.000138
 789	7.8406e+01	8.6019	28.907910	0.000304	3.041981	1.030651	-0.000122
 790	7.8505e+01	8.5730	28.786796	0.000304	3.041981	1.030651	-0.000122
 791	7.8605e+01	8.5249	28.621274	0.000416	4.157374	1.408556	-0.000166
 792	7.8704e+01	8.4912	28.451714	0.000426	4.258773	1.442911	-0.000170
 793	7.8804e+01	8.4383	28.318489	0.000335	3.346179	1.133716	-0.000134
 794	7.8903e+01	8.4094	28.181226	0.000345	3.447578	1.168071	-0.000138
 795	7.9003e+01	8.3613	28.039926	0.000355	3.548978	1.202426	-0.000142
 796	7.9103e+01	8.3276	27.918812	0.000304	3.041981	1.030651	-0.000122
 797	7.9202e+01	8.2939	27.753290	0.000416	4.157374	1.408556	-0.000166
 798	7.9302e+01	8.2409	27.595841	0.000395	3.954575	1.339846	-0.000158
 799	7.9401e+01	8.2008	27.490876	0.000264	2.636383	0.893231	-0.000105
 800	7.9501e+01	8.1543	27.309205	0.000456	4.562971	1.545976	-0.000183
 801	7.9600e+01	8.1270	27.188091	0.000304	3.041981	1.030651	-0.000122
 802	7.9700e+01	8.0934	27.042754	0.000365	3.650377	1.236781	-0.000146
 803	7.9799e+01	8.0484	26.865120	0.000446	4.461572	1.511621	-0.000179
 804	7.9898e+01	8.0051	26.752080	0.000284	2.839182	0.961941	-0.000114
 805	7.9998e+01	7.9698	26.586557	0.000416	4.157374	1.408556	-0.000166
 806	8.0097e+01	7.9233	26.441221	0.000365	3.650377	1.236781	-0.000146
 807	8.0197e+01	7.8880	26.303958	0.000345	3.447578	1.168071	-0.000138
 808	8.0296e+01	7.8415	26.166695	0.000345	3.447578	1.168071	-0.000138
 809	8.0396e+01	7.7998	26.013284	0.000385	3.853176	1.305491	-0.000154
 810	8.0496e+01	7.7693	25.900244	0.000284	2.839182	0.961941	-0.000114
 811	8.0595e+01	7.7244	25.750870	0.000375	3.751776	1.271136	-0.000150
 812	8.0695e+01	7.6779	25.569199	0.000456	4.562971	1.545976	-0.000183
 813	8.0794e+01	7.6378	25.440011	0.000324	3.244779	1.099361	-0.000130
 814	8.0894e+01	7.6073	25.314860	0.000314	3.143380	1.065006	-0.000126
 815	8.0993e+01	7.5543	25.137226	0.000446	4.461572	1.511621	-0.000179
 816	8.1093e+01	7.5303	25.020149	0.000294	2.940581	0.996296	-0.000118
 817	8.1192e+01	7.4902	24.886923	0.000335	3.346179	1.133716	-0.000134
 818	8.1291e+01	7.4565	24.745624	0.000355	3.548978	1.202426	-0.000142
 819	8.1391e+01	7.4116	24.588175	0.000395	3.954575	1.339846	-0.000158
 820	8.1490e+01	7.3650	24.418616	0.000426	4.258773	1.442911	-0.000170
 821	8.1590e+01	7.3249	24.325761	0.000233	2.332185	0.790166	-0.000093
 822	8.1689e+01	7.2848	24.156202	0.000426	4.258773	1.442911	-0.000170
 823	8.1789e+01	7.2495	24.022976	0.000335	3.346179	1.133716	-0.000134
 824	8.1888e+01	7.2110	23.841305	0.000456	4.562971	1.545976	-0.000183
 825	8.1988e+01	7.1677	23.712117	0.000324	3.244779	1.099361	-0.000130
 826	8.2088e+01	7.1228	23.635411	0.000193	1.926588	0.652746	-0.000077
 827	8.2187e+01	7.0811	23.469889	0.000416	4.157374	1.408556	-0.000166
 828	8.2287e+01	7.0522	23.328589	0.000355	3.548978	1.202426	-0.000142
 829	8.2386e+01	7.0041	23.171141	0.000395	3.954575	1.339846	-0.000158
 830	8.2486e+01	6.9704	23.029841	0.000355	3.548978	1.202426	-0.000142
 831	8.2585e+01	6.9351	22.872393	0.000395	3.954575	1.339846	-0.000158
 832	8.2684e+01	6.8934	22.706870	0.000416	4.157374	1.408556	-0.000166
 833	8.2784e+01	6.8485	22.581719	0.000314	3.143380	1.065006	-0.000126
 834	8.2883e+01	6.8100	22.432345	0.000375	3.751776	1.271136	-0.000150
 835	8.2983e+01	6.7650	22.282971	0.000375	3.751776	1.271136	-0.000150
 836	8.3082e+01	6.7330	22.141671	0.000355	3.548978	1.202426	-0.000142
 837	8.3182e+01	6.6945	21.980186	0.000406	4.055974	1.374201	-0.000162
 838	8.3281e+01	6.6495	21.846960	0.000335	3.346179	1.133716	-0.000134
 839	8.3381e+01	6.6062	21.733920	0.000284	2.839182	0.961941	-0.000114
 840	8.3481e+01	6.5806	21.564361	0.000426	4.258773	1.442911	-0.000170
 841	8.3580e+01	6.5244	21.410949	0.000385	3.853176	1.305491	-0.000154
 842	8.3680e+01	6.5036	21.281761	0.000324	3.244779	1.099361	-0.000130
 843	8.3779e+01	6.4538	21.124313	0.000395	3.954575	1.339846	-0.000158
 844	8.3879e+01	6.4217	20.983013	0.000355	3.548978	1.202426	-0.000142
 845	8.3978e+01	6.3720	20.837676	0.000365	3.650377	1.236781	-0.000146
 846	8.4078e+01	6.3319	20.708488	0.000324	3.244779	1.099361	-0.000130
 847	8.4177e+01	6.2950	20.571225	0.000345	3.447578	1.168071	-0.000138
 848	8.4276e+01	6.2565	20.413777	0.000395	3.954575	1.339846	-0.000158
 849	8.4376e+01	6.2164	20.312848	0.000253	2.534984	0.858876	-0.000101
 850	8.4475e+01	6.1731	20.106955	0.000517	5.171367	1.752107	-0.000207
 851	8.4575e+01	6.1378	20.030249	0.000193	1.926588	0.652746	-0.000077
 852	8.4674e+01	6.0945	19.844541	0.000466	4.664371	1.580332	-0.000187
 853	8.4774e+01	6.0608	19.666907	0.000446	4.461572	1.511621	-0.000179
 854	8.4874e+01	6.0191	19.537718	0.000324	3.244779	1.099361	-0.000130
 855	8.4973e+01	5.9774	19.428716	0.000274	2.737783	0.927586	-0.000110
 856	8.5073e+01	5.9341	19.271267	0.000395	3.954575	1.339846	-0.000158
 857	8.5172e+01	5.8972	19.162265	0.000274	2.737783	0.927586	-0.000110
 858	8.5272e+01	5.8458	18.980594	0.000456	4.562971	1.545976	-0.000183
 859	8.5371e+01	5.8250	18.867554	0.000284	2.839182	0.961941	-0.000114
 860	8.5471e+01	5.7672	18.726254	0.000355	3.548978	1.202426	-0.000142
 861	8.5570e+01	5.7399	18.564769	0.000406	4.055974	1.374201	-0.000162
 862	8.5669e+01	5.7047	18.403283	0.000406	4.055974	1.374201	-0.000162
 863	8.5769e+01	5.6597	18.253909	0.000375	3.751776	1.271136	-0.000150
 864	8.5868e+01	5.6132	18.120684	0.000335	3.346179	1.133716	-0.000134
 865	8.5968e+01	5.5859	18.015718	0.000264	2.636383	0.893231	-0.000105
 866	8.6067e+01	5.5298	17.866344	0.000375	3.751776	1.271136	-0.000150
 867	8.6167e+01	5.4945	17.696785	0.000426	4.258773	1.442911	-0.000170
 868	8.6266e+01	5.4544	17.559522	0.000345	3.447578	1.168071	-0.000138
 869	8.6366e+01	5.4191	17.406111	0.000385	3.853176	1.305491	-0.000154
 870	8.6466e+01	5.3742	17.293071	0.000284	2.839182	0.961941	-0.000114
 871	8.6565e+01	5.3421	17.159845	0.000335	3.346179	1.133716	-0.000134
 872	8.6665e+01	5.3004	16.990286	0.000426	4.258773	1.442911	-0.000170
 873	8.6764e+01	5.2619	16.844949	0.000365	3.650377	1.236781	-0.000146
 874	8.6864e+01	5.2202	16.679426	0.000416	4.157374	1.408556	-0.000166
 875	8.6963e+01	5.1753	16.542164	0.000345	3.447578	1.168071	-0.000138
 876	8.7063e+01	5.1368	16.441235	0.000253	2.534984	0.858876	-0.000101
 877	8.7162e+01	5.0870	16.303973	0.000345	3.447578	1.168071	-0.000138
 878	8.7261e+01	5.0614	16.130376	0.000436	4.360172	1.477266	-0.000174
 879	8.7361e+01	5.0132	16.021373	0.000274	2.737783	0.927586	-0.000110
 880	8.7460e+01	4.9763	15.920445	0.000253	2.534984	0.858876	-0.000101
 881	8.7560e+01	4.9346	15.718588	0.000507	5.069968	1.717752	-0.000203
 882	8.7659e+01	4.8993	15.577288	0.000355	3.548978	1.202426	-0.000142
 883	8.7759e+01	4.8688	15.444063	0.000335	3.346179	1.133716	-0.000134
 884	8.7859e+01	4.8303	15.322949	0.000304	3.041981	1.030651	-0.000122
 885	8.7958e+01	4.7710	15.157426	0.000416	4.157374	1.408556	-0.000166
 886	8.8058e+01	4.7501	14.999978	0.000395	3.954575	1.339846	-0.000158
 887	8.8157e+01	4.7004	14.866752	0.000335	3.346179	1.133716	-0.000134
 888	8.8257e+01	4.6587	14.773898	0.000233	2.332185	0.790166	-0.000093
 889	8.8356e+01	4.6202	14.592227	0.000456	4.562971	1.545976	-0.000183
 890	8.8456e+01	4.5865	14.454965	0.000345	3.447578	1.168071	-0.000138
 891	8.8555e+01	4.5368	14.313665	0.000355	3.548978	1.202426	-0.000142
 892	8.8654e+01	4.5015	14.200625	0.000284	2.839182	0.961941	-0.000114
 893	8.8754e+01	4.4598	14.043177	0.000395	3.954575	1.339846	-0.000158
 894	8.8853e+01	4.4245	13.873617	0.000426	4.258773	1.442911	-0.000170
 895	8.8953e+01	4.3924	13.744429	0.000324	3.244779	1.099361	-0.000130
 896	8.9052e+01	4.3475	13.595055	0.000375	3.751776	1.271136	-0.000150
 897	8.9152e+01	4.2977	13.490089	0.000264	2.636383	0.893231	-0.000105
 898	8.9251e+01	4.2576	13.340715	0.000375	3.751776	1.271136	-0.000150
 899	8.9351e+01	4.2239	13.199415	0.000355	3.548978	1.202426	-0.000142
 900	8.9451e+01	4.1806	13.037930	0.000406	4.055974	1.374201	-0.000162
 901	8.9550e+01	4.1389	12.920853	0.000294	2.940581	0.996296	-0.000118
 902	8.9650e+01	4.1068	12.747256	0.000436	4.360172	1.477266	-0.000174
 903	8.9749e+01	4.0587	12.585771	0.000406	4.055974	1.374201	-0.000162
 904	8.9849e+01	4.0218	12.456582	0.000324	3.244779	1.099361	-0.000130
 905	8.9948e+01	3.9769	12.351617	0.000264	2.636383	0.893231	-0.000105
 906	9.0047e+01	3.9400	12.173983	0.000446	4.461572	1.511621	-0.000179
 907	9.0147e+01	3.9079	12.048832	0.000314	3.143380	1.065006	-0.000126
 908	9.0246e+01	3.8662	11.871198	0.000446	4.461572	1.511621	-0.000179
 909	9.0346e+01	3.8197	11.709712	0.000406	4.055974	1.374201	-0.000162
 910	9.0445e+01	3.7860	11.633007	0.000193	1.926588	0.652746	-0.000077
 911	9.0545e+01	3.7379	11.431150	0.000507	5.069968	1.717752	-0.000203
 912	9.0644e+01	3.7058	11.277739	0.000385	3.853176	1.305491	-0.000154
 913	9.0744e+01	3.6673	11.176810	0.000253	2.534984	0.858876	-0.000101
 914	9.0844e+01	3.6224	11.047622	0.000324	3.244779	1.099361	-0.000130
 915	9.0943e+01	3.5951	10.906322	0.000355	3.548978	1.202426	-0.000142
 916	9.1043e+01	3.5486	10.765022	0.000355	3.548978	1.202426	-0.000142
 917	9.1142e+01	3.5036	10.587388	0.000446	4.461572	1.511621	-0.000179
 918	9.1242e+01	3.4635	10.470312	0.000294	2.940581	0.996296	-0.000118
 919	9.1341e+01	3.4266	10.357272	0.000284	2.839182	0.961941	-0.000114
 920	9.1441e+01	3.3881	10.175601	0.000456	4.562971	1.545976	-0.000183
 921	9.1540e+01	3.3464	10.046412	0.000324	3.244779	1.099361	-0.000130
 922	9.1639e+01	3.2951	9.884927	0.000406	4.055974	1.374201	-0.000162
 923	9.1739e+01	3.2662	9.755739	0.000324	3.244779	1.099361	-0.000130
 924	9.1838e+01	3.2325	9.610402	0.000365	3.650377	1.236781	-0.000146
 925	9.1938e+01	3.1876	9.489288	0.000304	3.041981	1.030651	-0.000122
 926	9.2037e+01	3.1539	9.347988	0.000355	3.548978	1.202426	-0.000142
 927	9.2137e+01	3.0994	9.186502	0.000406	4.055974	1.374201	-0.000162
 928	9.2237e+01	3.0657	9.016943	0.000426	4.258773	1.442911	-0.000170
 929	9.2336e+01	3.0272	8.879680	0.000345	3.447578	1.168071	-0.000138
 930	9.2436e+01	2.9823	8.734343	0.000365	3.650377	1.236781	-0.000146
 931	9.2535e+01	2.9486	8.589006	0.000365	3.650377	1.236781	-0.000146
 932	9.2635e+01	2.9101	8.467892	0.000304	3.041981	1.030651	-0.000122
 933	9.2734e+01	2.8620	8.326592	0.000355	3.548978	1.202426	-0.000142
 934	9.2834e+01	2.8218	8.161070	0.000416	4.157374	1.408556	-0.000166
 935	9.2933e+01	2.7882	8.019770	0.000355	3.548978	1.202426	-0.000142
 936	9.3032e+01	2.7481	7.874433	0.000365	3.650377	1.236781	-0.000146
 937	9.3132e+01	2.7095	7.696799	0.000446	4.461572	1.511621	-0.000179
 938	9.3231e+01	2.6710	7.591834	0.000264	2.636383	0.893231	-0.000105
 939	9.3331e+01	2.6229	7.426311	0.000416	4.157374	1.408556	-0.000166
 940	9.3430e+01	2.5892	7.285011	0.000355	3.548978	1.202426	-0.000142
 941	9.3530e+01	2.5459	7.147749	0.000345	3.447578	1.168071	-0.000138
 942	9.3629e+01	2.5138	6.970115	0.000446	4.461572	1.511621	-0.000179
 943	9.3729e+01	2.4673	6.824778	0.000365	3.650377	1.236781	-0.000146
 944	9.3829e+01	2.4320	6.675404	0.000375	3.751776	1.271136	-0.000150
 945	9.3928e+01	2.3935	6.517956	0.000395	3.954575	1.339846	-0.000158
 946	9.4028e+01	2.3502	6.400879	0.000294	2.940581	0.996296	-0.000118
 947	9.4127e+01	2.3021	6.259579	0.000355	3.548978	1.202426	-0.000142
 948	9.4227e+01	2.2668	6.098094	0.000406	4.055974	1.374201	-0.000162
 949	9.4326e+01	2.2299	5.997165	0.000253	2.534984	0.858876	-0.000101
 950	9.4425e+01	2.1930	5.815494	0.000456	4.562971	1.545976	-0.000183
 951	9.4525e+01	2.1545	5.645934	0.000426	4.258773	1.442911	-0.000170
 952	9.4624e+01	2.1015	5.536932	0.000274	2.737783	0.927586	-0.000110
 953	9.4724e+01	2.0679	5.391595	0.000365	3.650377	1.236781	-0.000146
 954	9.4823e+01	2.0245	5.226072	0.000416	4.157374	1.408556	-0.000166
 955	9.4923e+01	1.9892	5.076698	0.000375	3.751776	1.271136	-0.000150
 956	9.5022e+01	1.9475	4.935398	0.000355	3.548978	1.202426	-0.000142
 957	9.5122e+01	1.9042	4.802173	0.000335	3.346179	1.133716	-0.000134
 958	9.5222e+01	1.8689	4.656836	0.000365	3.650377	1.236781	-0.000146
 959	9.5321e+01	1.8288	4.495351	0.000406	4.055974	1.374201	-0.000162
 960	9.5421e+01	1.7903	4.366162	0.000324	3.244779	1.099361	-0.000130
 961	9.5520e+01	1.7598	4.253123	0.000284	2.839182	0.961941	-0.000114
 962	9.5620e+01	1.7053	4.018969	0.000588	5.881163	1.992592	-0.000235
 963	9.5719e+01	1.6700	3.909966	0.000274	2.737783	0.927586	-0.000110
 964	9.5819e+01	1.6363	3.744443	0.000416	4.157374	1.408556	-0.000166
 965	9.5918e+01	1.5898	3.619292	0.000314	3.143380	1.065006	-0.000126
 966	9.6017e+01	1.5545	3.449732	0.000426	4.258773	1.442911	-0.000170
 967	9.6117e+01	1.5096	3.316507	0.000335	3.346179	1.133716	-0.000134
 968	9.6216e+01	1.4711	3.195393	0.000304	3.041981	1.030651	-0.000122
 969	9.6316e+01	1.4326	3.029870	0.000416	4.157374	1.408556	-0.000166
 970	9.6415e+01	1.3989	2.888571	0.000355	3.548978	1.202426	-0.000142
 971	9.6515e+01	1.3427	2.731122	0.000395	3.954575	1.339846	-0.000158
 972	9.6615e+01	1.3107	2.565600	0.000416	4.157374	1.408556	-0.000166
 973	9.6714e+01	1.2770	2.416226	0.000375	3.751776	1.271136	-0.000150
 974	9.6814e+01	1.2321	2.250703	0.000416	4.157374	1.408556	-0.000166
 975	9.6913e+01	1.1903	2.145738	0.000264	2.636383	0.893231	-0.000105
 976	9.7013e+01	1.1583	1.951955	0.000487	4.867169	1.649042	-0.000195
 977	9.7112e+01	1.1133	1.802581	0.000375	3.751776	1.271136	-0.000150
 978	9.7212e+01	1.0716	1.693578	0.000274	2.737783	0.927586	-0.000110
 979	9.7311e+01	1.0363	1.511907	0.000456	4.562971	1.545976	-0.000183
 980	9.7410e+01	0.9882	1.374645	0.000345	3.447578	1.168071	-0.000138
 981	9.7510e+01	0.9593	1.233345	0.000355	3.548978	1.202426	-0.000142
 982	9.7609e+01	0.9176	1.088008	0.000365	3.650377	1.236781	-0.000146
 983	9.7709e+01	0.8791	0.950745	0.000345	3.447578	1.168071	-0.000138
 984	9.7808e+01	0.8342	0.825594	0.000314	3.143380	1.065006	-0.000126
 985	9.7908e+01	0.7845	0.615663	0.000527	5.272767	1.786462	-0.000211
 986	9.8007e+01	0.7492	0.506661	0.000274	2.737783	0.927586	-0.000110
 987	9.8107e+01	0.7123	0.333064	0.000436	4.360172	1.477266	-0.000174
 988	9.8207e+01	0.6722	0.191764	0.000355	3.548978	1.202426	-0.000142
 989	9.8306e+01	0.6369	0.054501	0.000345	3.447578	1.168071	-0.000138
 990	9.8406e+01	0.5936	-0.094873	0.000375	3.751776	1.271136	-0.000150
 991	9.8505e+01	0.5486	-0.240210	0.000365	3.650377	1.236781	-0.000146
 992	9.8605e+01	0.5134	-0.361324	0.000304	3.041981	1.030651	-0.000122
 993	9.8704e+01	0.4700	-0.502623	0.000355	3.548978	1.202426	-0.000142
 994	9.8803e+01	0.4331	-0.656035	0.000385	3.853176	1.305491	-0.000154
 995	9.8903e+01	0.3898	-0.817520	0.000406	4.055974	1.374201	-0.000162
 996	9.9002e+01	0.3513	-0.974968	0.000395	3.954575	1.339846	-0.000158
 997	9.9102e+01	0.3273	-1.100119	0.000314	3.143380	1.065006	-0.000126
 998	9.9201e+01	0.2775	-1.269679	0.000426	4.258773	1.442911	-0.000170
 999	9.9301e+01	0.2326	-1.386756	0.000294	2.940581	0.996296	-0.000118
1000	9.9400e+01	0.1989	-1.552279	0.000416	4.157374	1.408556	-0.000166
1001	9.9500e+01	0.1588	-1.721838	0.000426	4.258773	1.442911	-0.000170
1002	9.9600e+01	0.1139	-1.822767	0.000253	2.534984	0.858876	-0.000101
1003	9.9699e+01	0.0754	-2.012512	0.000477	4.765770	1.614687	-0.000191
1004	9.9799e+01	0.0417	-2.161886	0.000375	3.751776	1.271136	-0.000150
1005	9.9898e+01	0.0128	-2.278963	0.000294	2.940581	0.996296	-0.000118
1006	9.9998e+01	-0.0433	-2.416226	0.000345	3.447578	1.168071	-0.000138
1007	1.0010e+02	-0.0754	-2.549451	0.000335	3.346179	1.133716	-0.000134
1008	1.0020e+02	-0.1107	-2.706900	0.000395	3.954575	1.339846	-0.000158
1009	1.0030e+02	-0.1556	-2.868385	0.000406	4.055974	1.374201	-0.000162
1010	1.0040e+02	-0.1941	-3.001610	0.000335	3.346179	1.133716	-0.000134
1011	1.0050e+02	-0.2342	-3.155022	0.000385	3.853176	1.305491	-0.000154
1012	1.0059e+02	-0.2727	-3.300358	0.000365	3.650377	1.236781	-0.000146
1013	1.0069e+02	-0.3289	-3.441658	0.000355	3.548978	1.202426	-0.000142
1014	1.0079e+02	-0.3529	-3.599107	0.000395	3.954575	1.339846	-0.000158
1015	1.0089e+02	-0.3898	-3.740406	0.000355	3.548978	1.202426	-0.000142
1016	1.0099e+02	-0.4299	-3.873632	0.000335	3.346179	1.133716	-0.000134
1017	1.0109e+02	-0.4732	-4.010894	0.000345	3.447578	1.168071	-0.000138
1018	1.0119e+02	-0.5134	-4.164306	0.000385	3.853176	1.305491	-0.000154
1019	1.0129e+02	-0.5519	-4.325791	0.000406	4.055974	1.374201	-0.000162
1020	1.0139e+02	-0.6032	-4.438831	0.000284	2.839182	0.961941	-0.000114
1021	1.0149e+02	-0.6273	-4.580130	0.000355	3.548978	1.202426	-0.000142
1022	1.0159e+02	-0.6786	-4.757764	0.000446	4.461572	1.511621	-0.000179
1023	1.0169e+02	-0.7059	-4.878879	0.000304	3.041981	1.030651	-0.000122
1024	1.0179e+02	-0.7524	-5.024215	0.000365	3.650377	1.236781	-0.000146
1025	1.0189e+02	-0.7861	-5.153404	0.000324	3.244779	1.099361	-0.000130
1026	1.0199e+02	-0.8326	-5.335075	0.000456	4.562971	1.545976	-0.000183
1027	1.0209e+02	-0.8647	-5.460226	0.000314	3.143380	1.065006	-0.000126
1028	1.0219e+02	-0.9144	-5.633823	0.000436	4.360172	1.477266	-0.000174
1029	1.0229e+02	-0.9561	-5.758974	0.000314	3.143380	1.065006	-0.000126
1030	1.0239e+02	-0.9866	-5.863940	0.000264	2.636383	0.893231	-0.000105
1031	1.0248e+02	-1.0235	-6.025425	0.000406	4.055974	1.374201	-0.000162
1032	1.0258e+02	-1.0748	-6.182873	0.000395	3.954575	1.339846	-0.000158
1033	1.0268e+02	-1.1085	-6.320136	0.000345	3.447578	1.168071	-0.000138
1034	1.0278e+02	-1.1502	-6.441250	0.000304	3.041981	1.030651	-0.000122
1035	1.0288e+02	-1.1935	-6.578513	0.000345	3.447578	1.168071	-0.000138
1036	1.0298e+02	-1.2160	-6.727887	0.000375	3.751776	1.271136	-0.000150
1037	1.0308e+02	-1.2738	-6.877261	0.000375	3.751776	1.271136	-0.000150
1038	1.0318e+02	-1.3091	-7.046820	0.000426	4.258773	1.442911	-0.000170
1039	1.0328e+02	-1.3508	-7.188120	0.000355	3.548978	1.202426	-0.000142
1040	1.0338e+02	-1.3925	-7.317309	0.000324	3.244779	1.099361	-0.000130
1041	1.0348e+02	-1.4294	-7.470720	0.000385	3.853176	1.305491	-0.000154
1042	1.0358e+02	-1.4663	-7.595871	0.000314	3.143380	1.065006	-0.000126
1043	1.0368e+02	-1.5096	-7.729096	0.000335	3.346179	1.133716	-0.000134
1044	1.0378e+02	-1.5481	-7.825988	0.000243	2.433585	0.824521	-0.000097
1045	1.0388e+02	-1.5898	-7.995547	0.000426	4.258773	1.442911	-0.000170
1046	1.0398e+02	-1.6299	-8.116661	0.000304	3.041981	1.030651	-0.000122
1047	1.0408e+02	-1.6732	-8.290258	0.000436	4.360172	1.477266	-0.000174
1048	1.0418e+02	-1.7101	-8.423484	0.000335	3.346179	1.133716	-0.000134
1049	1.0428e+02	-1.7422	-8.528449	0.000264	2.636383	0.893231	-0.000105
1050	1.0438e+02	-1.7871	-8.677823	0.000375	3.751776	1.271136	-0.000150
1051	1.0447e+02	-1.8352	-8.851420	0.000436	4.360172	1.477266	-0.000174
1052	1.0457e+02	-1.8689	-8.980608	0.000324	3.244779	1.099361	-0.000130
1053	1.0467e+02	-1.9042	-9.093648	0.000284	2.839182	0.961941	-0.000114
1054	1.0477e+02	-1.9475	-9.263208	0.000426	4.258773	1.442911	-0.000170
1055	1.0487e+02	-1.9941	-9.420656	0.000395	3.954575	1.339846	-0.000158
1056	1.0497e+02	-2.0229	-9.525622	0.000264	2.636383	0.893231	-0.000105
1057	1.0507e+02	-2.0695	-9.691144	0.000416	4.157374	1.408556	-0.000166
1058	1.0517e+02	-2.1160	-9.767850	0.000193	1.926588	0.652746	-0.000077
1059	1.0527e+02	-2.1593	-9.925298	0.000395	3.954575	1.339846	-0.000158
1060	1.0537e+02	-2.1882	-10.078709	0.000385	3.853176	1.305491	-0.000154
1061	1.0547e+02	-2.2283	-10.207898	0.000324	3.244779	1.099361	-0.000130
1062	1.0557e+02	-2.2620	-10.349197	0.000355	3.548978	1.202426	-0.000142
1063	1.0567e+02	-2.2989	-10.502609	0.000385	3.853176	1.305491	-0.000154
1064	1.0577e+02	-2.3470	-10.643908	0.000355	3.548978	1.202426	-0.000142
1065	1.0587e+02	-2.3887	-10.777134	0.000335	3.346179	1.133716	-0.000134
1066	1.0597e+02	-2.4240	-10.894211	0.000294	2.940581	0.996296	-0.000118
1067	1.0607e+02	-2.4625	-11.063770	0.000426	4.258773	1.442911	-0.000170
1068	1.0617e+02	-2.5042	-11.180847	0.000294	2.940581	0.996296	-0.000118
1069	1.0627e+02	-2.5395	-11.322147	0.000355	3.548978	1.202426	-0.000142
1070	1.0637e+02	-2.5796	-11.427113	0.000264	2.636383	0.893231	-0.000105
1071	1.0647e+02	-2.6229	-11.628969	0.000507	5.069968	1.717752	-0.000203
1072	1.0656e+02	-2.6694	-11.737972	0.000274	2.737783	0.927586	-0.000110
1073	1.0666e+02	-2.7144	-11.923680	0.000466	4.664371	1.580332	-0.000187
1074	1.0676e+02	-2.7448	-12.040757	0.000294	2.940581	0.996296	-0.000118
1075	1.0686e+02	-2.7753	-12.194168	0.000385	3.853176	1.305491	-0.000154
1076	1.0696e+02	-2.8218	-12.295097	0.000253	2.534984	0.858876	-0.000101
1077	1.0706e+02	-2.8636	-12.424285	0.000324	3.244779	1.099361	-0.000130
1078	1.0716e+02	-2.9117	-12.589808	0.000416	4.157374	1.408556	-0.000166
1079	1.0726e+02	-2.9325	-12.710922	0.000304	3.041981	1.030651	-0.000122
1080	1.0736e+02	-2.9807	-12.880482	0.000426	4.258773	1.442911	-0.000170
1081	1.0746e+02	-3.0208	-13.021781	0.000355	3.548978	1.202426	-0.000142
1082	1.0756e+02	-3.0689	-13.134821	0.000284	2.839182	0.961941	-0.000114
1083	1.0766e+02	-3.0978	-13.231712	0.000243	2.433585	0.824521	-0.000097
1084	1.0776e+02	-3.1523	-13.401272	0.000426	4.258773	1.442911	-0.000170
1085	1.0786e+02	-3.1828	-13.542572	0.000355	3.548978	1.202426	-0.000142
1086	1.0796e+02	-3.2213	-13.663686	0.000304	3.041981	1.030651	-0.000122
1087	1.0806e+02	-3.2630	-13.813060	0.000375	3.751776	1.271136	-0.000150
1088	1.0816e+02	-3.2999	-13.974545	0.000406	4.055974	1.374201	-0.000162
1089	1.0826e+02	-3.3432	-14.083548	0.000274	2.737783	0.927586	-0.000110
1090	1.0836e+02	-3.3865	-14.224848	0.000355	3.548978	1.202426	-0.000142
1091	1.0845e+02	-3.4266	-14.370185	0.000365	3.650377	1.236781	-0.000146
1092	1.0855e+02	-3.4619	-14.495336	0.000314	3.143380	1.065006	-0.000126
1093	1.0865e+02	-3.5052	-14.620487	0.000314	3.143380	1.065006	-0.000126
1094	1.0875e+02	-3.5373	-14.753713	0.000335	3.346179	1.133716	-0.000134
1095	1.0885e+02	-3.5774	-14.931347	0.000446	4.461572	1.511621	-0.000179
1096	1.0895e+02	-3.6191	-15.012089	0.000203	2.027987	0.687101	-0.000081
1097	1.0905e+02	-3.6657	-15.189723	0.000446	4.461572	1.511621	-0.000179
1098	1.0915e+02	-3.6978	-15.290652	0.000253	2.534984	0.858876	-0.000101
1099	1.0925e+02	-3.7379	-15.484434	0.000487	4.867169	1.649042	-0.000195
1100	1.0935e+02	-3.7860	-15.577288	0.000233	2.332185	0.790166	-0.000093
1101	1.0945e+02	-3.8245	-15.750885	0.000436	4.360172	1.477266	-0.000174
1102	1.0955e+02	-3.8630	-15.896222	0.000365	3.650377	1.236781	-0.000146
1103	1.0965e+02	-3.8967	-15.985039	0.000223	2.230786	0.755811	-0.000089
1104	1.0975e+02	-3.9368	-16.146524	0.000406	4.055974	1.374201	-0.000162
1105	1.0985e+02	-3.9897	-16.312047	0.000416	4.157374	1.408556	-0.000166
1106	1.0995e+02	-4.0170	-16.441235	0.000324	3.244779	1.099361	-0.000130
1107	1.1005e+02	-4.0539	-16.562349	0.000304	3.041981	1.030651	-0.000122
1108	1.1015e+02	-4.0972	-16.679426	0.000294	2.940581	0.996296	-0.000118
1109	1.1025e+02	-4.1389	-16.828800	0.000375	3.751776	1.271136	-0.000150
1110	1.1035e+02	-4.1726	-17.022583	0.000487	4.867169	1.649042	-0.000195
1111	1.1044e+02	-4.2191	-17.111400	0.000223	2.230786	0.755811	-0.000089
1112	1.1054e+02	-4.2544	-17.264811	0.000385	3.853176	1.305491	-0.000154
1113	1.1064e+02	-4.3009	-17.406111	0.000355	3.548978	1.202426	-0.000142
1114	1.1074e+02	-4.3394	-17.515113	0.000274	2.737783	0.927586	-0.000110
1115	1.1084e+02	-4.3780	-17.668525	0.000385	3.853176	1.305491	-0.000154
1116	1.1094e+02	-4.4148	-17.769453	0.000253	2.534984	0.858876	-0.000101
1117	1.1104e+02	-4.4485	-17.934976	0.000416	4.157374	1.408556	-0.000166
1118	1.1114e+02	-4.4983	-18.084350	0.000375	3.751776	1.271136	-0.000150
1119	1.1124e+02	-4.5400	-18.233724	0.000375	3.751776	1.271136	-0.000150
1120	1.1134e+02	-4.5769	-18.346763	0.000284	2.839182	0.961941	-0.000114
1121	1.1144e+02	-4.6170	-18.516323	0.000426	4.258773	1.442911	-0.000170
1122	1.1154e+02	-4.6651	-18.588992	0.000183	1.825188	0.618391	-0.000073
1123	1.1164e+02	-4.6988	-18.770663	0.000456	4.562971	1.545976	-0.000183
1124	1.1174e+02	-4.7293	-18.899851	0.000324	3.244779	1.099361	-0.000130
1125	1.1184e+02	-4.7774	-19.049225	0.000375	3.751776	1.271136	-0.000150
1126	1.1194e+02	-4.8079	-19.202636	0.000385	3.853176	1.305491	-0.000154
1127	1.1204e+02	-4.8576	-19.335862	0.000335	3.346179	1.133716	-0.000134
1128	1.1214e+02	-4.8929	-19.485236	0.000375	3.751776	1.271136	-0.000150
1129	1.1224e+02	-4.9330	-19.582127	0.000243	2.433585	0.824521	-0.000097
1130	1.1234e+02	-4.9699	-19.779947	0.000497	4.968569	1.683397	-0.000199
1131	1.1244e+02	-5.0164	-19.905098	0.000314	3.143380	1.065006	-0.000126
1132	1.1253e+02	-5.0598	-20.010063	0.000264	2.636383	0.893231	-0.000105
1133	1.1263e+02	-5.0983	-20.127140	0.000294	2.940581	0.996296	-0.000118
1134	1.1273e+02	-5.1384	-20.288626	0.000406	4.055974	1.374201	-0.000162
1135	1.1283e+02	-5.1737	-20.409740	0.000304	3.041981	1.030651	-0.000122
1136	1.1293e+02	-5.2218	-20.571225	0.000406	4.055974	1.374201	-0.000162
1137	1.1303e+02	-5.2571	-20.704451	0.000335	3.346179	1.133716	-0.000134
1138	1.1313e+02	-5.2892	-20.857862	0.000385	3.853176	1.305491	-0.000154
1139	1.1323e+02	-5.3325	-20.991087	0.000335	3.346179	1.133716	-0.000134
1140	1.1333e+02	-5.3758	-21.152573	0.000406	4.055974	1.374201	-0.000162
1141	1.1343e+02	-5.4111	-21.297910	0.000365	3.650377	1.236781	-0.000146
1142	1.1353e+02	-5.4480	-21.427098	0.000324	3.244779	1.099361	-0.000130
1143	1.1363e+02	-5.5009	-21.523989	0.000243	2.433585	0.824521	-0.000097
1144	1.1373e+02	-5.5346	-21.669326	0.000365	3.650377	1.236781	-0.000146
1145	1.1383e+02	-5.5699	-21.802552	0.000335	3.346179	1.133716	-0.000134
1146	1.1393e+02	-5.6084	-21.935777	0.000335	3.346179	1.133716	-0.000134
1147	1.1403e+02	-5.6613	-22.064965	0.000324	3.244779	1.099361	-0.000130
1148	1.1413e+02	-5.6934	-22.242599	0.000446	4.461572	1.511621	-0.000179
1149	1.1423e+02	-5.7367	-22.396011	0.000385	3.853176	1.305491	-0.000154
1150	1.1433e+02	-5.7784	-22.513087	0.000294	2.940581	0.996296	-0.000118
1151	1.1442e+02	-5.8169	-22.646313	0.000335	3.346179	1.133716	-0.000134
1152	1.1452e+02	-5.8506	-22.735130	0.000223	2.230786	0.755811	-0.000089
1153	1.1462e+02	-5.8891	-22.908727	0.000436	4.360172	1.477266	-0.000174
1154	1.1472e+02	-5.9389	-23.033878	0.000314	3.143380	1.065006	-0.000126
1155	1.1482e+02	-5.9774	-23.187289	0.000385	3.853176	1.305491	-0.000154
1156	1.1492e+02	-6.0175	-23.324552	0.000345	3.447578	1.168071	-0.000138
1157	1.1502e+02	-6.0512	-23.437592	0.000284	2.839182	0.961941	-0.000114
1158	1.1512e+02	-6.0977	-23.562743	0.000314	3.143380	1.065006	-0.000126
1159	1.1522e+02	-6.1250	-23.708080	0.000365	3.650377	1.236781	-0.000146
1160	1.1532e+02	-6.1683	-23.829194	0.000304	3.041981	1.030651	-0.000122
1161	1.1542e+02	-6.2196	-23.950308	0.000304	3.041981	1.030651	-0.000122
1162	1.1552e+02	-6.2581	-24.063348	0.000284	2.839182	0.961941	-0.000114
1163	1.1562e+02	-6.2966	-24.249056	0.000466	4.664371	1.580332	-0.000187
1164	1.1572e+02	-6.3287	-24.341910	0.000233	2.332185	0.790166	-0.000093
1165	1.1582e+02	-6.3672	-24.503395	0.000406	4.055974	1.374201	-0.000162
1166	1.1592e+02	-6.4185	-24.664881	0.000406	4.055974	1.374201	-0.000162
1167	1.1602e+02	-6.4554	-24.769846	0.000264	2.636383	0.893231	-0.000105
1168	1.1612e+02	-6.4859	-24.911146	0.000355	3.548978	1.202426	-0.000142
1169	1.1622e+02	-6.5244	-25.040334	0.000324	3.244779	1.099361	-0.000130
1170	1.1632e+02	-6.5645	-25.173560	0.000335	3.346179	1.133716	-0.000134
1171	1.1642e+02	-6.6094	-25.306785	0.000335	3.346179	1.133716	-0.000134
1172	1.1651e+02	-6.6479	-25.460197	0.000385	3.853176	1.305491	-0.000154
1173	1.1661e+02	-6.6800	-25.605533	0.000365	3.650377	1.236781	-0.000146
1174	1.1671e+02	-6.7330	-25.666090	0.000152	1.520990	0.515325	-0.000061
1175	1.1681e+02	-6.7667	-25.843724	0.000446	4.461572	1.511621	-0.000179
1176	1.1691e+02	-6.8084	-25.997136	0.000385	3.853176	1.305491	-0.000154
1177	1.1701e+02	-6.8485	-26.098064	0.000253	2.534984	0.858876	-0.000101
1178	1.1711e+02	-6.8902	-26.247438	0.000375	3.751776	1.271136	-0.000150
1179	1.1721e+02	-6.9287	-26.340292	0.000233	2.332185	0.790166	-0.000093
1180	1.1731e+02	-6.9624	-26.534075	0.000487	4.867169	1.649042	-0.000195
1181	1.1741e+02	-7.0089	-26.618854	0.000213	2.129387	0.721456	-0.000085
1182	1.1751e+02	-7.0458	-26.768229	0.000375	3.751776	1.271136	-0.000150
1183	1.1761e+02	-7.0811	-26.905491	0.000345	3.447578	1.168071	-0.000138
1184	1.1771e+02	-7.1308	-27.014494	0.000274	2.737783	0.927586	-0.000110
1185	1.1781e+02	-7.1725	-27.159831	0.000365	3.650377	1.236781	-0.000146
1186	1.1791e+02	-7.2046	-27.248648	0.000223	2.230786	0.755811	-0.000089
1187	1.1801e+02	-7.2447	-27.410133	0.000406	4.055974	1.374201	-0.000162
1188	1.1811e+02	-7.2816	-27.567581	0.000395	3.954575	1.339846	-0.000158
1189	1.1821e+02	-7.3249	-27.684658	0.000294	2.940581	0.996296	-0.000118
1190	1.1831e+02	-7.3554	-27.813847	0.000324	3.244779	1.099361	-0.000130
1191	1.1841e+02	-7.4035	-27.947072	0.000335	3.346179	1.133716	-0.000134
1192	1.1850e+02	-7.4420	-28.064149	0.000294	2.940581	0.996296	-0.000118
1193	1.1860e+02	-7.4837	-28.161040	0.000243	2.433585	0.824521	-0.000097
1194	1.1870e+02	-7.5222	-28.322526	0.000406	4.055974	1.374201	-0.000162
1195	1.1880e+02	-7.5559	-28.431528	0.000274	2.737783	0.927586	-0.000110
1196	1.1890e+02	-7.6057	-28.601088	0.000426	4.258773	1.442911	-0.000170
1197	1.1900e+02	-7.6442	-28.730276	0.000324	3.244779	1.099361	-0.000130
1198	1.1910e+02	-7.6827	-28.831205	0.000253	2.534984	0.858876	-0.000101
1199	1.1920e+02	-7.7212	-28.940208	0.000274	2.737783	0.927586	-0.000110
1200	1.1930e+02	-7.7581	-29.069396	0.000324	3.244779	1.099361	-0.000130
1201	1.1940e+02	-7.8046	-29.222807	0.000385	3.853176	1.305491	-0.000154
1202	1.1950e+02	-7.8431	-29.360070	0.000345	3.447578	1.168071	-0.000138
1203	1.1960e+02	-7.8752	-29.420627	0.000152	1.520990	0.515325	-0.000061
1204	1.1970e+02	-7.9281	-29.618446	0.000497	4.968569	1.683397	-0.000199
1205	1.1980e+02	-7.9682	-29.727449	0.000274	2.737783	0.927586	-0.000110
1206	1.1990e+02	-8.0035	-29.864712	0.000345	3.447578	1.168071	-0.000138
1207	1.2000e+02	-8.0452	-29.989863	0.000314	3.143380	1.065006	-0.000126
1208	1.2010e+02	-8.0821	-30.106940	0.000294	2.940581	0.996296	-0.000118
1209	1.2020e+02	-8.1174	-30.207868	0.000253	2.534984	0.858876	-0.000101
1210	1.2030e+02	-8.1607	-30.353205	0.000365	3.650377	1.236781	-0.000146
1211	1.2039e+02	-8.1992	-30.458171	0.000264	2.636383	0.893231	-0.000105
1212	1.2049e+02	-8.2297	-30.559099	0.000253	2.534984	0.858876	-0.000101
1213	1.2059e+02	-8.2794	-30.696362	0.000345	3.447578	1.168071	-0.000138
1214	1.2069e+02	-8.3131	-30.821513	0.000314	3.143380	1.065006	-0.000126
1215	1.2079e+02	-8.3597	-30.938590	0.000294	2.940581	0.996296	-0.000118
1216	1.2089e+02	-8.3966	-31.079889	0.000355	3.548978	1.202426	-0.000142
1217	1.2099e+02	-8.4335	-31.184855	0.000264	2.636383	0.893231	-0.000105
1218	1.2109e+02	-8.4928	-31.318080	0.000335	3.346179	1.133716	-0.000134
1219	1.2119e+02	-8.5201	-31.495714	0.000446	4.461572	1.511621	-0.000179
1220	1.2129e+02	-8.5554	-31.584531	0.000223	2.230786	0.755811	-0.000089
1221	1.2139e+02	-8.5955	-31.697571	0.000284	2.839182	0.961941	-0.000114
1222	1.2149e+02	-8.6324	-31.830797	0.000335	3.346179	1.133716	-0.000134
1223	1.2159e+02	-8.6789	-31.964022	0.000335	3.346179	1.133716	-0.000134
1224	1.2169e+02	-8.7222	-32.064951	0.000253	2.534984	0.858876	-0.000101
1225	1.2179e+02	-8.7575	-32.186065	0.000304	3.041981	1.030651	-0.000122
1226	1.2189e+02	-8.8056	-32.307179	0.000304	3.041981	1.030651	-0.000122
1227	1.2199e+02	-8.8506	-32.448478	0.000355	3.548978	1.202426	-0.000142
1228	1.2209e+02	-8.8794	-32.533258	0.000213	2.129387	0.721456	-0.000085
1229	1.2219e+02	-8.9243	-32.694744	0.000406	4.055974	1.374201	-0.000162
1230	1.2229e+02	-8.9484	-32.779524	0.000213	2.129387	0.721456	-0.000085
1231	1.2239e+02	-8.9981	-32.924861	0.000365	3.650377	1.236781	-0.000146
1232	1.2248e+02	-9.0415	-33.021752	0.000243	2.433585	0.824521	-0.000097
1233	1.2258e+02	-9.0800	-33.150940	0.000324	3.244779	1.099361	-0.000130
1234	1.2268e+02	-9.1217	-33.300314	0.000375	3.751776	1.271136	-0.000150
1235	1.2278e+02	-9.1618	-33.437577	0.000345	3.447578	1.168071	-0.000138
1236	1.2288e+02	-9.1906	-33.546579	0.000274	2.737783	0.927586	-0.000110
1237	1.2298e+02	-9.2372	-33.659619	0.000284	2.839182	0.961941	-0.000114
1238	1.2308e+02	-9.2773	-33.792845	0.000335	3.346179	1.133716	-0.000134
1239	1.2318e+02	-9.3158	-33.897810	0.000264	2.636383	0.893231	-0.000105
1240	1.2328e+02	-9.3447	-34.035073	0.000345	3.447578	1.168071	-0.000138
1241	1.2338e+02	-9.4056	-34.164261	0.000324	3.244779	1.099361	-0.000130
1242	1.2348e+02	-9.4377	-34.285375	0.000304	3.041981	1.030651	-0.000122
1243	1.2358e+02	-9.4682	-34.422638	0.000345	3.447578	1.168071	-0.000138
1244	1.2368e+02	-9.5163	-34.499343	0.000193	1.926588	0.652746	-0.000077
1245	1.2378e+02	-9.5532	-34.681015	0.000456	4.562971	1.545976	-0.000183
1246	1.2388e+02	-9.5949	-34.769832	0.000223	2.230786	0.755811	-0.000089
1247	1.2398e+02	-9.6366	-34.894983	0.000314	3.143380	1.065006	-0.000126
1248	1.2408e+02	-9.6719	-35.056468	0.000406	4.055974	1.374201	-0.000162
1249	1.2418e+02	-9.7120	-35.104914	0.000122	1.216792	0.412260	-0.000049
1250	1.2428e+02	-9.7537	-35.246214	0.000355	3.548978	1.202426	-0.000142
1251	1.2438e+02	-9.7922	-35.359253	0.000284	2.839182	0.961941	-0.000114
1252	1.2447e+02	-9.8243	-35.484405	0.000314	3.143380	1.065006	-0.000126
1253	1.2457e+02	-9.8741	-35.605519	0.000304	3.041981	1.030651	-0.000122
1254	1.2467e+02	-9.9045	-35.734707	0.000324	3.244779	1.099361	-0.000130
1255	1.2477e+02	-9.9495	-35.884081	0.000375	3.751776	1.271136	-0.000150
1256	1.2487e+02	-9.9960	-35.968861	0.000213	2.129387	0.721456	-0.000085
1257	1.2497e+02	-10.0329	-36.106123	0.000345	3.447578	1.168071	-0.000138
1258	1.2507e+02	-10.0714	-36.227238	0.000304	3.041981	1.030651	-0.000122
1259	1.2517e+02	-10.1147	-36.344314	0.000294	2.940581	0.996296	-0.000118
1260	1.2527e+02	-10.1500	-36.473503	0.000324	3.244779	1.099361	-0.000130
1261	1.2537e+02	-10.1917	-36.598654	0.000314	3.143380	1.065006	-0.000126
1262	1.2547e+02	-10.2350	-36.671322	0.000183	1.825188	0.618391	-0.000073
1263	1.2557e+02	-10.2703	-36.832808	0.000406	4.055974	1.374201	-0.000162
1264	1.2567e+02	-10.3104	-36.929699	0.000243	2.433585	0.824521	-0.000097
1265	1.2577e+02	-10.3505	-37.083110	0.000385	3.853176	1.305491	-0.000154
1266	1.2587e+02	-10.3970	-37.196150	0.000284	2.839182	0.961941	-0.000114
1267	1.2597e+02	-10.4371	-37.280930	0.000213	2.129387	0.721456	-0.000085
1268	1.2607e+02	-10.4805	-37.426267	0.000365	3.650377	1.236781	-0.000146
1269	1.2617e+02	-10.5013	-37.563529	0.000345	3.447578	1.168071	-0.000138
1270	1.2627e+02	-10.5494	-37.676569	0.000284	2.839182	0.961941	-0.000114
1271	1.2636e+02	-10.5944	-37.821906	0.000365	3.650377	1.236781	-0.000146
1272	1.2646e+02	-10.6216	-37.930909	0.000274	2.737783	0.927586	-0.000110
1273	1.2656e+02	-10.6714	-38.096431	0.000416	4.157374	1.408556	-0.000166
1274	1.2666e+02	-10.7066	-38.185248	0.000223	2.230786	0.755811	-0.000089
1275	1.2676e+02	-10.7484	-38.270028	0.000213	2.129387	0.721456	-0.000085
1276	1.2686e+02	-10.8013	-38.383068	0.000284	2.839182	0.961941	-0.000114
1277	1.2696e+02	-10.8318	-38.496108	0.000284	2.839182	0.961941	-0.000114
1278	1.2706e+02	-10.8671	-38.665668	0.000426	4.258773	1.442911	-0.000170
1279	1.2716e+02	-10.9056	-38.798893	0.000335	3.346179	1.133716	-0.000134
1280	1.2726e+02	-10.9505	-38.871561	0.000183	1.825188	0.618391	-0.000073
1281	1.2736e+02	-10.9906	-38.996713	0.000314	3.143380	1.065006	-0.000126
1282	1.2746e+02	-11.0275	-39.142050	0.000365	3.650377	1.236781	-0.000146
1283	1.2756e+02	-11.0644	-39.315646	0.000436	4.360172	1.477266	-0.000174
1284	1.2766e+02	-11.0981	-39.384278	0.000172	1.723789	0.584036	-0.000069
1285	1.2776e+02	-11.1510	-39.537689	0.000385	3.853176	1.305491	-0.000154
1286	1.2786e+02	-11.1911	-39.634580	0.000243	2.433585	0.824521	-0.000097
1287	1.2796e+02	-11.2312	-39.771843	0.000345	3.447578	1.168071	-0.000138
1288	1.2806e+02	-11.2794	-39.848548	0.000193	1.926588	0.652746	-0.000077
1289	1.2816e+02	-11.3114	-39.997922	0.000375	3.751776	1.271136	-0.000150
1290	1.2826e+02	-11.3467	-40.114999	0.000294	2.940581	0.996296	-0.000118
1291	1.2835e+02	-11.3933	-40.244188	0.000324	3.244779	1.099361	-0.000130
1292	1.2845e+02	-11.4189	-40.361265	0.000294	2.940581	0.996296	-0.000118
1293	1.2855e+02	-11.4735	-40.474304	0.000284	2.839182	0.961941	-0.000114
1294	1.2865e+02	-11.5072	-40.599456	0.000314	3.143380	1.065006	-0.000126
1295	1.2875e+02	-11.5457	-40.720570	0.000304	3.041981	1.030651	-0.000122
1296	1.2885e+02	-11.5890	-40.817461	0.000243	2.433585	0.824521	-0.000097
1297	1.2895e+02	-11.6243	-40.966835	0.000375	3.751776	1.271136	-0.000150
1298	1.2905e+02	-11.6676	-41.104098	0.000345	3.447578	1.168071	-0.000138
1299	1.2915e+02	-11.7093	-41.176766	0.000183	1.825188	0.618391	-0.000073
1300	1.2925e+02	-11.7462	-41.305954	0.000324	3.244779	1.099361	-0.000130
1301	1.2935e+02	-11.7895	-41.443217	0.000345	3.447578	1.168071	-0.000138
1302	1.2945e+02	-11.8264	-41.600665	0.000395	3.954575	1.339846	-0.000158
1303	1.2955e+02	-11.8729	-41.705631	0.000264	2.636383	0.893231	-0.000105
1304	1.2965e+02	-11.9082	-41.846930	0.000355	3.548978	1.202426	-0.000142
1305	1.2975e+02	-11.9467	-41.959970	0.000284	2.839182	0.961941	-0.000114
1306	1.2985e+02	-11.9884	-42.073010	0.000284	2.839182	0.961941	-0.000114
1307	1.2995e+02	-12.0253	-42.149716	0.000193	1.926588	0.652746	-0.000077
1308	1.3005e+02	-12.0654	-42.323313	0.000436	4.360172	1.477266	-0.000174
1309	1.3015e+02	-12.1087	-42.480761	0.000395	3.954575	1.339846	-0.000158
1310	1.3025e+02	-12.1456	-42.569578	0.000223	2.230786	0.755811	-0.000089
1311	1.3034e+02	-12.1825	-42.666469	0.000243	2.433585	0.824521	-0.000097
1312	1.3044e+02	-12.2339	-42.799695	0.000335	3.346179	1.133716	-0.000134
1313	1.3054e+02	-12.2676	-42.912734	0.000284	2.839182	0.961941	-0.000114
1314	1.3064e+02	-12.3029	-43.041923	0.000324	3.244779	1.099361	-0.000130
1315	1.3074e+02	-12.3366	-43.203408	0.000406	4.055974	1.374201	-0.000162
1316	1.3084e+02	-12.3767	-43.312411	0.000274	2.737783	0.927586	-0.000110
1317	1.3094e+02	-12.4168	-43.441599	0.000324	3.244779	1.099361	-0.000130
1318	1.3104e+02	-12.4665	-43.534453	0.000233	2.332185	0.790166	-0.000093
1319	1.3114e+02	-12.5066	-43.635382	0.000253	2.534984	0.858876	-0.000101
1320	1.3124e+02	-12.5515	-43.780719	0.000365	3.650377	1.236781	-0.000146
1321	1.3134e+02	-12.5900	-43.849350	0.000172	1.723789	0.584036	-0.000069
1322	1.3144e+02	-12.6269	-43.962390	0.000284	2.839182	0.961941	-0.000114
1323	1.3154e+02	-12.6638	-44.103689	0.000355	3.548978	1.202426	-0.000142
1324	1.3164e+02	-12.7039	-44.244989	0.000355	3.548978	1.202426	-0.000142
1325	1.3174e+02	-12.7456	-44.345918	0.000253	2.534984	0.858876	-0.000101
1326	1.3184e+02	-12.7825	-44.458957	0.000284	2.839182	0.961941	-0.000114
1327	1.3194e+02	-12.8194	-44.612368	0.000385	3.853176	1.305491	-0.000154
1328	1.3204e+02	-12.8547	-44.672926	0.000152	1.520990	0.515325	-0.000061
1329	1.3214e+02	-12.8948	-44.858634	0.000466	4.664371	1.580332	-0.000187
1330	1.3224e+02	-12.9413	-44.951488	0.000233	2.332185	0.790166	-0.000093
1331	1.3234e+02	-12.9863	-45.072602	0.000304	3.041981	1.030651	-0.000122
1332	1.3243e+02	-13.0183	-45.165456	0.000233	2.332185	0.790166	-0.000093
1333	1.3253e+02	-13.0697	-45.302719	0.000345	3.447578	1.168071	-0.000138
1334	1.3263e+02	-13.1082	-45.452093	0.000375	3.751776	1.271136	-0.000150
1335	1.3273e+02	-13.1435	-45.548984	0.000243	2.433585	0.824521	-0.000097
1336	1.3283e+02	-13.1788	-45.657987	0.000274	2.737783	0.927586	-0.000110
1337	1.3293e+02	-13.2221	-45.775064	0.000294	2.940581	0.996296	-0.000118
1338	1.3303e+02	-13.2510	-45.900215	0.000314	3.143380	1.065006	-0.000126
1339	1.3313e+02	-13.2927	-46.001143	0.000253	2.534984	0.858876	-0.000101
1340	1.3323e+02	-13.3440	-46.122257	0.000304	3.041981	1.030651	-0.000122
1341	1.3333e+02	-13.3793	-46.263557	0.000355	3.548978	1.202426	-0.000142
1342	1.3343e+02	-13.4210	-46.384671	0.000304	3.041981	1.030651	-0.000122
1343	1.3353e+02	-13.4595	-46.481562	0.000243	2.433585	0.824521	-0.000097
1344	1.3363e+02	-13.4932	-46.651122	0.000426	4.258773	1.442911	-0.000170
1345	1.3373e+02	-13.5429	-46.719753	0.000172	1.723789	0.584036	-0.000069
1346	1.3383e+02	-13.5734	-46.869127	0.000375	3.751776	1.271136	-0.000150
1347	1.3393e+02	-13.6183	-46.957944	0.000223	2.230786	0.755811	-0.000089
1348	1.3403e+02	-13.6552	-47.070984	0.000284	2.839182	0.961941	-0.000114
1349	1.3413e+02	-13.6985	-47.200172	0.000324	3.244779	1.099361	-0.000130
1350	1.3423e+02	-13.7338	-47.337435	0.000345	3.447578	1.168071	-0.000138
1351	1.3432e+02	-13.7836	-47.434326	0.000243	2.433585	0.824521	-0.000097
1352	1.3442e+02	-13.8301	-47.563515	0.000324	3.244779	1.099361	-0.000130
1353	1.3452e+02	-13.8622	-47.664443	0.000253	2.534984	0.858876	-0.000101
1354	1.3462e+02	-13.8975	-47.793631	0.000324	3.244779	1.099361	-0.000130
1355	1.3472e+02	-13.9424	-47.910708	0.000294	2.940581	0.996296	-0.000118
1356	1.3482e+02	-13.9697	-48.019711	0.000274	2.737783	0.927586	-0.000110
1357	1.3492e+02	-14.0194	-48.124677	0.000264	2.636383	0.893231	-0.000105
1358	1.3502e+02	-14.0563	-48.237716	0.000284	2.839182	0.961941	-0.000114
1359	1.3512e+02	-14.0996	-48.374979	0.000345	3.447578	1.168071	-0.000138
1360	1.3522e+02	-14.1365	-48.488019	0.000284	2.839182	0.961941	-0.000114
1361	1.3532e+02	-14.1766	-48.592984	0.000264	2.636383	0.893231	-0.000105
1362	1.3542e+02	-14.2183	-48.649504	0.000142	1.419591	0.480970	-0.000057
1363	1.3552e+02	-14.2600	-48.823101	0.000436	4.360172	1.477266	-0.000174
1364	1.3562e+02	-14.2969	-48.919992	0.000243	2.433585	0.824521	-0.000097
1365	1.3572e+02	-14.3306	-49.004772	0.000213	2.129387	0.721456	-0.000085
1366	1.3582e+02	-14.3755	-49.162220	0.000395	3.954575	1.339846	-0.000158
1367	1.3592e+02	-14.4140	-49.275260	0.000284	2.839182	0.961941	-0.000114
1368	1.3602e+02	-14.4493	-49.384263	0.000274	2.737783	0.927586	-0.000110
1369	1.3612e+02	-14.4910	-49.521526	0.000345	3.447578	1.168071	-0.000138
1370	1.3622e+02	-14.5376	-49.618417	0.000243	2.433585	0.824521	-0.000097
1371	1.3631e+02	-14.5664	-49.727419	0.000274	2.737783	0.927586	-0.000110
1372	1.3641e+02	-14.6065	-49.844496	0.000294	2.940581	0.996296	-0.000118
1373	1.3651e+02	-14.6547	-49.933313	0.000223	2.230786	0.755811	-0.000089
1374	1.3661e+02	-14.6964	-50.038279	0.000264	2.636383	0.893231	-0.000105
1375	1.3671e+02	-14.7365	-50.179579	0.000355	3.548978	1.202426	-0.000142
1376	1.3681e+02	-14.7798	-50.260321	0.000203	2.027987	0.687101	-0.000081
1377	1.3691e+02	-14.8167	-50.397584	0.000345	3.447578	1.168071	-0.000138
1378	1.3701e+02	-14.8424	-50.474290	0.000193	1.926588	0.652746	-0.000077
1379	1.3711e+02	-14.8793	-50.623664	0.000375	3.751776	1.271136	-0.000150
1380	1.3721e+02	-14.9402	-50.728629	0.000264	2.636383	0.893231	-0.000105
1381	1.3731e+02	-14.9627	-50.793223	0.000162	1.622390	0.549681	-0.000065
1382	1.3741e+02	-15.0220	-50.958746	0.000416	4.157374	1.408556	-0.000166
1383	1.3751e+02	-15.0557	-51.039489	0.000203	2.027987	0.687101	-0.000081
1384	1.3761e+02	-15.0926	-51.160603	0.000304	3.041981	1.030651	-0.000122
1385	1.3771e+02	-15.1343	-51.261531	0.000253	2.534984	0.858876	-0.000101
1386	1.3781e+02	-15.1744	-51.374571	0.000284	2.839182	0.961941	-0.000114
1387	1.3791e+02	-15.2178	-51.511833	0.000345	3.447578	1.168071	-0.000138
1388	1.3801e+02	-15.2402	-51.624873	0.000284	2.839182	0.961941	-0.000114
1389	1.3811e+02	-15.2948	-51.745987	0.000304	3.041981	1.030651	-0.000122
1390	1.3821e+02	-15.3284	-51.846916	0.000253	2.534984	0.858876	-0.000101
1391	1.3831e+02	-15.3734	-51.947844	0.000253	2.534984	0.858876	-0.000101
1392	1.3840e+02	-15.4135	-52.032624	0.000213	2.129387	0.721456	-0.000085
1393	1.3850e+02	-15.4488	-52.177961	0.000365	3.650377	1.236781	-0.000146
1394	1.3860e+02	-15.4841	-52.278889	0.000253	2.534984	0.858876	-0.000101
1395	1.3870e+02	-15.5274	-52.420189	0.000355	3.548978	1.202426	-0.000142
1396	1.3880e+02	-15.5675	-52.488820	0.000172	1.723789	0.584036	-0.000069
1397	1.3890e+02	-15.6092	-52.593786	0.000264	2.636383	0.893231	-0.000105
1398	1.3900e+02	-15.6589	-52.706826	0.000284	2.839182	0.961941	-0.000114
1399	1.3910e+02	-15.6910	-52.860237	0.000385	3.853176	1.305491	-0.000154
1400	1.3920e+02	-15.7359	-52.949054	0.000223	2.230786	0.755811	-0.000089
1401	1.3930e+02	-15.7680	-53.037871	0.000223	2.230786	0.755811	-0.000089
1402	1.3940e+02	-15.8049	-53.175133	0.000345	3.447578	1.168071	-0.000138
1403	1.3950e+02	-15.8594	-53.259913	0.000213	2.129387	0.721456	-0.000085
1404	1.3960e+02	-15.8915	-53.453696	0.000487	4.867169	1.649042	-0.000195
1405	1.3970e+02	-15.9284	-53.506179	0.000132	1.318192	0.446615	-0.000053
1406	1.3980e+02	-15.9701	-53.651515	0.000365	3.650377	1.236781	-0.000146
1407	1.3990e+02	-16.0070	-53.728221	0.000193	1.926588	0.652746	-0.000077
1408	1.4000e+02	-16.0536	-53.837224	0.000274	2.737783	0.927586	-0.000110
1409	1.4010e+02	-16.0856	-53.913929	0.000193	1.926588	0.652746	-0.000077
1410	1.4020e+02	-16.1306	-54.039080	0.000314	3.143380	1.065006	-0.000126
1411	1.4029e+02	-16.1578	-54.196529	0.000395	3.954575	1.339846	-0.000158
1412	1.4039e+02	-16.2108	-54.249011	0.000132	1.318192	0.446615	-0.000053
1413	1.4049e+02	-16.2429	-54.410497	0.000406	4.055974	1.374201	-0.000162
1414	1.4059e+02	-16.2894	-54.483165	0.000183	1.825188	0.618391	-0.000073
1415	1.4069e+02	-16.3327	-54.608317	0.000314	3.143380	1.065006	-0.000126
1416	1.4079e+02	-16.3648	-54.705208	0.000243	2.433585	0.824521	-0.000097
1417	1.4089e+02	-16.4017	-54.794025	0.000223	2.230786	0.755811	-0.000089
1418	1.4099e+02	-16.4434	-54.943399	0.000375	3.751776	1.271136	-0.000150
1419	1.4109e+02	-16.4803	-55.036253	0.000233	2.332185	0.790166	-0.000093
1420	1.4119e+02	-16.5332	-55.141218	0.000264	2.636383	0.893231	-0.000105
1421	1.4129e+02	-16.5669	-55.298667	0.000395	3.954575	1.339846	-0.000158
1422	1.4139e+02	-16.6054	-55.399595	0.000253	2.534984	0.858876	-0.000101
1423	1.4149e+02	-16.6455	-55.480338	0.000203	2.027987	0.687101	-0.000081
1424	1.4159e+02	-16.6808	-55.645860	0.000416	4.157374	1.408556	-0.000166
1425	1.4169e+02	-16.7257	-55.686232	0.000101	1.013994	0.343550	-0.000041
1426	1.4179e+02	-16.7706	-55.803309	0.000294	2.940581	0.996296	-0.000118
1427	1.4189e+02	-16.8075	-55.904237	0.000253	2.534984	0.858876	-0.000101
1428	1.4199e+02	-16.8348	-56.029388	0.000314	3.143380	1.065006	-0.000126
1429	1.4209e+02	-16.8846	-56.142428	0.000284	2.839182	0.961941	-0.000114
1430	1.4219e+02	-16.9247	-56.239319	0.000243	2.433585	0.824521	-0.000097
1431	1.4228e+02	-16.9632	-56.404842	0.000416	4.157374	1.408556	-0.000166
1432	1.4238e+02	-16.9968	-56.465399	0.000152	1.520990	0.515325	-0.000061
1433	1.4248e+02	-17.0386	-56.586513	0.000304	3.041981	1.030651	-0.000122
1434	1.4258e+02	-17.0819	-56.691479	0.000264	2.636383	0.893231	-0.000105
1435	1.4268e+02	-17.1204	-56.816630	0.000314	3.143380	1.065006	-0.000126
1436	1.4278e+02	-17.1525	-56.937744	0.000304	3.041981	1.030651	-0.000122
1437	1.4288e+02	-17.2022	-57.058858	0.000304	3.041981	1.030651	-0.000122
1438	1.4298e+02	-17.2487	-57.131526	0.000183	1.825188	0.618391	-0.000073
1439	1.4308e+02	-17.2744	-57.260715	0.000324	3.244779	1.099361	-0.000130
1440	1.4318e+02	-17.3289	-57.373755	0.000284	2.839182	0.961941	-0.000114
1441	1.4328e+02	-17.3626	-57.506980	0.000335	3.346179	1.133716	-0.000134
1442	1.4338e+02	-17.4027	-57.587723	0.000203	2.027987	0.687101	-0.000081
1443	1.4348e+02	-17.4412	-57.724985	0.000345	3.447578	1.168071	-0.000138
1444	1.4358e+02	-17.4829	-57.854174	0.000324	3.244779	1.099361	-0.000130
1445	1.4368e+02	-17.5278	-57.926842	0.000183	1.825188	0.618391	-0.000073
1446	1.4378e+02	-17.5567	-58.035845	0.000274	2.737783	0.927586	-0.000110
1447	1.4388e+02	-17.6000	-58.160996	0.000314	3.143380	1.065006	-0.000126
1448	1.4398e+02	-17.6385	-58.282110	0.000304	3.041981	1.030651	-0.000122
1449	1.4408e+02	-17.6819	-58.403224	0.000304	3.041981	1.030651	-0.000122
1450	1.4418e+02	-17.7171	-58.467818	0.000162	1.622390	0.549681	-0.000065
1451	1.4428e+02	-17.7621	-58.633341	0.000416	4.157374	1.408556	-0.000166
1452	1.4437e+02	-17.8070	-58.746381	0.000284	2.839182	0.961941	-0.000114
1453	1.4447e+02	-17.8391	-58.871532	0.000314	3.143380	1.065006	-0.000126
1454	1.4457e+02	-17.8792	-58.976497	0.000264	2.636383	0.893231	-0.000105
1455	1.4467e+02	-17.9145	-59.069352	0.000233	2.332185	0.790166	-0.000093
1456	1.4477e+02	-17.9690	-59.182391	0.000284	2.839182	0.961941	-0.000114
1457	1.4487e+02	-17.9995	-59.319654	0.000345	3.447578	1.168071	-0.000138
1458	1.4497e+02	-18.0428	-59.428657	0.000274	2.737783	0.927586	-0.000110
1459	1.4507e+02	-18.0861	-59.525548	0.000243	2.433585	0.824521	-0.000097
1460	1.4517e+02	-18.1118	-59.638588	0.000284	2.839182	0.961941	-0.000114
1461	1.4527e+02	-18.1631	-59.775850	0.000345	3.447578	1.168071	-0.000138
1462	1.4537e+02	-18.1920	-59.901002	0.000314	3.143380	1.065006	-0.000126
1463	1.4547e+02	-18.2401	-60.010004	0.000274	2.737783	0.927586	-0.000110
1464	1.4557e+02	-18.2802	-60.139193	0.000324	3.244779	1.099361	-0.000130
1465	1.4567e+02	-18.3235	-60.248195	0.000274	2.737783	0.927586	-0.000110
1466	1.4577e+02	-18.3588	-60.328938	0.000203	2.027987	0.687101	-0.000081
1467	1.4587e+02	-18.4006	-60.454089	0.000314	3.143380	1.065006	-0.000126
1468	1.4597e+02	-18.4439	-60.550980	0.000243	2.433585	0.824521	-0.000097
1469	1.4607e+02	-18.4792	-60.672094	0.000304	3.041981	1.030651	-0.000122
1470	1.4617e+02	-18.5209	-60.845691	0.000436	4.360172	1.477266	-0.000174
1471	1.4626e+02	-18.5626	-60.942583	0.000243	2.433585	0.824521	-0.000097
1472	1.4636e+02	-18.6011	-61.079845	0.000345	3.447578	1.168071	-0.000138
1473	1.4646e+02	-18.6348	-61.184811	0.000264	2.636383	0.893231	-0.000105
1474	1.4656e+02	-18.6765	-61.285739	0.000253	2.534984	0.858876	-0.000101
1475	1.4666e+02	-18.7230	-61.479522	0.000487	4.867169	1.649042	-0.000195
1476	1.4676e+02	-18.7647	-61.519893	0.000101	1.013994	0.343550	-0.000041
1477	1.4686e+02	-18.7952	-61.657156	0.000345	3.447578	1.168071	-0.000138
1478	1.4696e+02	-18.8401	-61.798455	0.000355	3.548978	1.202426	-0.000142
1479	1.4706e+02	-18.8754	-61.867087	0.000172	1.723789	0.584036	-0.000069
1480	1.4716e+02	-18.9267	-62.008386	0.000355	3.548978	1.202426	-0.000142
1481	1.4726e+02	-18.9636	-62.153723	0.000365	3.650377	1.236781	-0.000146
1482	1.4736e+02	-19.0037	-62.230429	0.000193	1.926588	0.652746	-0.000077
1483	1.4746e+02	-19.0422	-62.359617	0.000324	3.244779	1.099361	-0.000130
1484	1.4756e+02	-19.0807	-62.508991	0.000375	3.751776	1.271136	-0.000150
1485	1.4766e+02	-19.1112	-62.634142	0.000314	3.143380	1.065006	-0.000126
1486	1.4776e+02	-19.1642	-62.743145	0.000274	2.737783	0.927586	-0.000110
1487	1.4786e+02	-19.1962	-62.835999	0.000233	2.332185	0.790166	-0.000093
1488	1.4796e+02	-19.2380	-62.953076	0.000294	2.940581	0.996296	-0.000118
1489	1.4806e+02	-19.2829	-63.094376	0.000355	3.548978	1.202426	-0.000142
1490	1.4816e+02	-19.3150	-63.243750	0.000375	3.751776	1.271136	-0.000150
1491	1.4825e+02	-19.3551	-63.340641	0.000243	2.433585	0.824521	-0.000097
1492	1.4835e+02	-19.3936	-63.441570	0.000253	2.534984	0.858876	-0.000101
1493	1.4845e+02	-19.4273	-63.631315	0.000477	4.765770	1.614687	-0.000191
1494	1.4855e+02	-19.4754	-63.703983	0.000183	1.825188	0.618391	-0.000073
1495	1.4865e+02	-19.5155	-63.837209	0.000335	3.346179	1.133716	-0.000134
1496	1.4875e+02	-19.5508	-63.930063	0.000233	2.332185	0.790166	-0.000093
1497	1.4885e+02	-19.5941	-64.055214	0.000314	3.143380	1.065006	-0.000126
1498	1.4895e+02	-19.6214	-64.212662	0.000395	3.954575	1.339846	-0.000158
1499	1.4905e+02	-19.6775	-64.333777	0.000304	3.041981	1.030651	-0.000122
1500	1.4915e+02	-19.7128	-64.430668	0.000243	2.433585	0.824521	-0.000097
1501	1.4925e+02	-19.7513	-64.531596	0.000253	2.534984	0.858876	-0.000101
1502	1.4935e+02	-19.7930	-64.713267	0.000456	4.562971	1.545976	-0.000183
1503	1.4945e+02	-19.8283	-64.814196	0.000253	2.534984	0.858876	-0.000101
1504	1.4955e+02	-19.8716	-64.951458	0.000345	3.447578	1.168071	-0.000138
1505	1.4965e+02	-19.9053	-65.048350	0.000243	2.433585	0.824521	-0.000097
1506	1.4975e+02	-19.9518	-65.189649	0.000355	3.548978	1.202426	-0.000142
1507	1.4985e+02	-19.9807	-65.306726	0.000294	2.940581	0.996296	-0.000118
1508	1.4995e+02	-19.9454	-65.250206	0.000142	1.419591	0.480970	0.000057
1509	1.5005e+02	-19.9085	-65.217909	0.000081	0.811195	0.274840	0.000032
1510	1.5015e+02	-19.8700	-65.165427	0.000132	1.318192	0.446615	0.000053
1511	1.5025e+02	-19.8379	-65.153315	0.000030	0.304198	0.103065	0.000012
1512	1.5034e+02	-19.7946	-65.056424	0.000243	2.433585	0.824521	0.000097
1513	1.5044e+02	-19.7593	-64.979718	0.000193	1.926588	0.652746	0.000077
1514	1.5054e+02	-19.7144	-64.935310	0.000112	1.115393	0.377905	0.000045
1515	1.5064e+02	-19.6647	-64.802084	0.000335	3.346179	1.133716	0.000134
1516	1.5074e+02	-19.6374	-64.802084	0.000000	0.000000	0.000000	0.000000
1517	1.5084e+02	-19.6005	-64.749602	0.000132	1.318192	0.446615	0.000053
1518	1.5094e+02	-19.5492	-64.624450	0.000314	3.143380	1.065006	0.000126
1519	1.5104e+02	-19.5091	-64.571968	0.000132	1.318192	0.446615	0.000053
1520	1.5114e+02	-19.4802	-64.527559	0.000112	1.115393	0.377905	0.000045
1521	1.5124e+02	-19.4369	-64.426631	0.000253	2.534984	0.858876	0.000101
1522	1.5134e+02	-19.4032	-64.370111	0.000142	1.419591	0.480970	0.000057
1523	1.5144e+02	-19.3519	-64.309554	0.000152	1.520990	0.515325	0.000061
1524	1.5154e+02	-19.3198	-64.220737	0.000223	2.230786	0.755811	0.000089
1525	1.5164e+02	-19.2749	-64.107697	0.000284	2.839182	0.961941	0.000114
1526	1.5174e+02	-19.2428	-64.047140	0.000152	1.520990	0.515325	0.000061
1527	1.5184e+02	-19.2059	-64.014843	0.000081	0.811195	0.274840	0.000032
1528	1.5194e+02	-19.1594	-63.921989	0.000233	2.332185	0.790166	0.000093
1529	1.5204e+02	-19.1160	-63.841246	0.000203	2.027987	0.687101	0.000081
1530	1.5214e+02	-19.0775	-63.732243	0.000274	2.737783	0.927586	0.000110
1531	1.5224e+02	-19.0358	-63.687835	0.000112	1.115393	0.377905	0.000045
1532	1.5233e+02	-18.9957	-63.562684	0.000314	3.143380	1.065006	0.000126
1533	1.5243e+02	-18.9636	-63.485978	0.000193	1.926588	0.652746	0.000077
1534	1.5253e+02	-18.9219	-63.453681	0.000081	0.811195	0.274840	0.000032
1535	1.5263e+02	-18.8738	-63.296233	0.000395	3.954575	1.339846	0.000158
1536	1.5273e+02	-18.8337	-63.304307	-0.000020	-0.202799	-0.068710	-0.000008
1537	1.5283e+02	-18.7984	-63.203379	0.000253	2.534984	0.858876	0.000101
1538	1.5293e+02	-18.7599	-63.130710	0.000183	1.825188	0.618391	0.000073
1539	1.5303e+02	-18.7166	-63.017670	0.000284	2.839182	0.961941	0.000114
1540	1.5313e+02	-18.6701	-62.949039	0.000172	1.723789	0.584036	0.000069
1541	1.5323e+02	-18.6396	-62.840036	0.000274	2.737783	0.927586	0.000110
1542	1.5333e+02	-18.6043	-62.763331	0.000193	1.926588	0.652746	0.000077
1543	1.5343e+02	-18.5626	-62.650291	0.000284	2.839182	0.961941	0.000114
1544	1.5353e+02	-18.5177	-62.597808	0.000132	1.318192	0.446615	0.000053
1545	1.5363e+02	-18.4792	-62.484768	0.000284	2.839182	0.961941	0.000114
1546	1.5373e+02	-18.4407	-62.375766	0.000274	2.737783	0.927586	0.000110
1547	1.5383e+02	-18.4086	-62.331357	0.000112	1.115393	0.377905	0.000045
1548	1.5393e+02	-18.3540	-62.262726	0.000172	1.723789	0.584036	0.000069
1549	1.5403e+02	-18.3203	-62.145649	0.000294	2.940581	0.996296	0.000118
1550	1.5413e+02	-18.2738	-62.056832	0.000223	2.230786	0.755811	0.000089
1551	1.5422e+02	-18.2401	-61.951866	0.000264	2.636383	0.893231	0.000105
1552	1.5432e+02	-18.1984	-61.867087	0.000213	2.129387	0.721456	0.000085
1553	1.5442e+02	-18.1519	-61.778270	0.000223	2.230786	0.755811	0.000089
1554	1.5452e+02	-18.1150	-61.653118	0.000314	3.143380	1.065006	0.000126
1555	1.5462e+02	-18.0781	-61.568339	0.000213	2.129387	0.721456	0.000085
1556	1.5472e+02	-18.0332	-61.499707	0.000172	1.723789	0.584036	0.000069
1557	1.5482e+02	-18.0027	-61.447225	0.000132	1.318192	0.446615	0.000053
1558	1.5492e+02	-17.9594	-61.297850	0.000375	3.751776	1.271136	0.000150
1559	1.5502e+02	-17.9273	-61.265553	0.000081	0.811195	0.274840	0.000032
1560	1.5512e+02	-17.8888	-61.112142	0.000385	3.853176	1.305491	0.000154
1561	1.5522e+02	-17.8551	-61.067734	0.000112	1.115393	0.377905	0.000045
1562	1.5532e+02	-17.7990	-60.934508	0.000335	3.346179	1.133716	0.000134
1563	1.5542e+02	-17.7556	-60.845691	0.000223	2.230786	0.755811	0.000089
1564	1.5552e+02	-17.7188	-60.736689	0.000274	2.737783	0.927586	0.000110
1565	1.5562e+02	-17.6819	-60.684206	0.000132	1.318192	0.446615	0.000053
1566	1.5572e+02	-17.6369	-60.583277	0.000253	2.534984	0.858876	0.000101
1567	1.5582e+02	-17.5984	-60.486386	0.000243	2.433585	0.824521	0.000097
1568	1.5592e+02	-17.5680	-60.401606	0.000213	2.129387	0.721456	0.000085
1569	1.5602e+02	-17.5198	-60.292604	0.000274	2.737783	0.927586	0.000110
1570	1.5612e+02	-17.4829	-60.236084	0.000142	1.419591	0.480970	0.000057
1571	1.5622e+02	-17.4492	-60.127081	0.000274	2.737783	0.927586	0.000110
1572	1.5631e+02	-17.4107	-60.022116	0.000264	2.636383	0.893231	0.000105
1573	1.5641e+02	-17.3722	-59.937336	0.000213	2.129387	0.721456	0.000085
1574	1.5651e+02	-17.3241	-59.868704	0.000172	1.723789	0.584036	0.000069
1575	1.5661e+02	-17.2856	-59.751627	0.000294	2.940581	0.996296	0.000118
1576	1.5671e+02	-17.2439	-59.678959	0.000183	1.825188	0.618391	0.000073
1577	1.5681e+02	-17.2038	-59.541696	0.000345	3.447578	1.168071	0.000138
1578	1.5691e+02	-17.1653	-59.485177	0.000142	1.419591	0.480970	0.000057
1579	1.5701e+02	-17.1236	-59.404434	0.000203	2.027987	0.687101	0.000081
1580	1.5711e+02	-17.0899	-59.291394	0.000284	2.839182	0.961941	0.000114
1581	1.5721e+02	-17.0514	-59.186428	0.000264	2.636383	0.893231	0.000105
1582	1.5731e+02	-17.0017	-59.125871	0.000152	1.520990	0.515325	0.000061
1583	1.5741e+02	-16.9616	-59.004757	0.000304	3.041981	1.030651	0.000122
1584	1.5751e+02	-16.9327	-58.895755	0.000274	2.737783	0.927586	0.000110
1585	1.5761e+02	-16.8894	-58.810975	0.000213	2.129387	0.721456	0.000085
1586	1.5771e+02	-16.8477	-58.734269	0.000193	1.926588	0.652746	0.000077
1587	1.5781e+02	-16.8043	-58.629304	0.000264	2.636383	0.893231	0.000105
1588	1.5791e+02	-16.7690	-58.564710	0.000162	1.622390	0.549681	0.000065
1589	1.5801e+02	-16.7273	-58.427447	0.000345	3.447578	1.168071	0.000138
1590	1.5811e+02	-16.6856	-58.346704	0.000203	2.027987	0.687101	0.000081
1591	1.5821e+02	-16.6439	-58.237702	0.000274	2.737783	0.927586	0.000110
1592	1.5830e+02	-16.6054	-58.116588	0.000304	3.041981	1.030651	0.000122
1593	1.5840e+02	-16.5685	-58.007585	0.000274	2.737783	0.927586	0.000110
1594	1.5850e+02	-16.5268	-57.938954	0.000172	1.723789	0.584036	0.000069
1595	1.5860e+02	-16.4851	-57.825914	0.000284	2.839182	0.961941	0.000114
1596	1.5870e+02	-16.4498	-57.769394	0.000142	1.419591	0.480970	0.000057
1597	1.5880e+02	-16.4065	-57.595797	0.000436	4.360172	1.477266	0.000174
1598	1.5890e+02	-16.3664	-57.555426	0.000101	1.013994	0.343550	0.000041
1599	1.5900e+02	-16.3247	-57.458534	0.000243	2.433585	0.824521	0.000097
1600	1.5910e+02	-16.2894	-57.402014	0.000142	1.419591	0.480970	0.000057
1601	1.5920e+02	-16.2493	-57.272826	0.000324	3.244779	1.099361	0.000130
1602	1.5930e+02	-16.2044	-57.163823	0.000274	2.737783	0.927586	0.000110
1603	1.5940e+02	-16.1626	-57.095192	0.000172	1.723789	0.584036	0.000069
1604	1.5950e+02	-16.1241	-56.970041	0.000314	3.143380	1.065006	0.000126
1605	1.5960e+02	-16.0921	-56.893335	0.000193	1.926588	0.652746	0.000077
1606	1.5970e+02	-16.0471	-56.764147	0.000324	3.244779	1.099361	0.000130
1607	1.5980e+02	-16.0086	-56.699553	0.000162	1.622390	0.549681	0.000065
1608	1.5990e+02	-15.9669	-56.622847	0.000193	1.926588	0.652746	0.000077
1609	1.6000e+02	-15.9268	-56.485585	0.000345	3.447578	1.168071	0.000138
1610	1.6010e+02	-15.8899	-56.437139	0.000122	1.216792	0.412260	0.000049
1611	1.6019e+02	-15.8466	-56.299876	0.000345	3.447578	1.168071	0.000138
1612	1.6029e+02	-15.8097	-56.215097	0.000213	2.129387	0.721456	0.000085
1613	1.6039e+02	-15.7680	-56.093983	0.000304	3.041981	1.030651	0.000122
1614	1.6049e+02	-15.7279	-56.013240	0.000203	2.027987	0.687101	0.000081
1615	1.6059e+02	-15.6910	-55.892126	0.000304	3.041981	1.030651	0.000122
1616	1.6069e+02	-15.6525	-55.815420	0.000193	1.926588	0.652746	0.000077
1617	1.6079e+02	-15.6108	-55.718529	0.000243	2.433585	0.824521	0.000097
1618	1.6089e+02	-15.5739	-55.605489	0.000284	2.839182	0.961941	0.000114
1619	1.6099e+02	-15.5306	-55.512635	0.000233	2.332185	0.790166	0.000093
1620	1.6109e+02	-15.4953	-55.444004	0.000172	1.723789	0.584036	0.000069
1621	1.6119e+02	-15.4456	-55.322890	0.000304	3.041981	1.030651	0.000122
1622	1.6129e+02	-15.4247	-55.189664	0.000335	3.346179	1.133716	0.000134
1623	1.6139e+02	-15.3686	-55.125070	0.000162	1.622390	0.549681	0.000065
1624	1.6149e+02	-15.3284	-55.056439	0.000172	1.723789	0.584036	0.000069
1625	1.6159e+02	-15.2851	-54.947436	0.000274	2.737783	0.927586	0.000110
1626	1.6169e+02	-15.2434	-54.781913	0.000416	4.157374	1.408556	0.000166
1627	1.6179e+02	-15.2129	-54.729431	0.000132	1.318192	0.446615	0.000053
1628	1.6189e+02	-15.1760	-54.636577	0.000233	2.332185	0.790166	0.000093
1629	1.6199e+02	-15.1295	-54.543722	0.000233	2.332185	0.790166	0.000093
1630	1.6209e+02	-15.0942	-54.430683	0.000284	2.839182	0.961941	0.000114
1631	1.6219e+02	-15.0509	-54.337828	0.000233	2.332185	0.790166	0.000093
1632	1.6228e+02	-15.0124	-54.249011	0.000223	2.230786	0.755811	0.000089
1633	1.6238e+02	-14.9819	-54.160194	0.000223	2.230786	0.755811	0.000089
1634	1.6248e+02	-14.9322	-54.067340	0.000233	2.332185	0.790166	0.000093
1635	1.6258e+02	-14.8905	-53.998709	0.000172	1.723789	0.584036	0.000069
1636	1.6268e+02	-14.8536	-53.865484	0.000335	3.346179	1.133716	0.000134
1637	1.6278e+02	-14.8151	-53.776667	0.000223	2.230786	0.755811	0.000089
1638	1.6288e+02	-14.7734	-53.659590	0.000294	2.940581	0.996296	0.000118
1639	1.6298e+02	-14.7285	-53.562698	0.000243	2.433585	0.824521	0.000097
1640	1.6308e+02	-14.6948	-53.461770	0.000253	2.534984	0.858876	0.000101
1641	1.6318e+02	-14.6579	-53.413324	0.000122	1.216792	0.412260	0.000049
1642	1.6328e+02	-14.6017	-53.276062	0.000345	3.447578	1.168071	0.000138
1643	1.6338e+02	-14.5809	-53.175133	0.000253	2.534984	0.858876	0.000101
1644	1.6348e+02	-14.5327	-53.086316	0.000223	2.230786	0.755811	0.000089
1645	1.6358e+02	-14.4910	-53.013648	0.000183	1.825188	0.618391	0.000073
1646	1.6368e+02	-14.4509	-52.860237	0.000385	3.853176	1.305491	0.000154
1647	1.6378e+02	-14.4108	-52.807754	0.000132	1.318192	0.446615	0.000053
1648	1.6388e+02	-14.3755	-52.646269	0.000406	4.055974	1.374201	0.000162
1649	1.6398e+02	-14.3370	-52.573600	0.000183	1.825188	0.618391	0.000073
1650	1.6408e+02	-14.3017	-52.525155	0.000122	1.216792	0.412260	0.000049
1651	1.6418e+02	-14.2472	-52.379818	0.000365	3.650377	1.236781	0.000146
1652	1.6427e+02	-14.2167	-52.291001	0.000223	2.230786	0.755811	0.000089
1653	1.6437e+02	-14.1734	-52.254666	0.000091	0.912594	0.309195	0.000037
1654	1.6447e+02	-14.1381	-52.093181	0.000406	4.055974	1.374201	0.000162
1655	1.6457e+02	-14.0916	-51.984178	0.000274	2.737783	0.927586	0.000110
1656	1.6467e+02	-14.0579	-51.895361	0.000223	2.230786	0.755811	0.000089
1657	1.6477e+02	-14.0162	-51.794433	0.000253	2.534984	0.858876	0.000101
1658	1.6487e+02	-13.9761	-51.653133	0.000355	3.548978	1.202426	0.000142
1659	1.6497e+02	-13.9360	-51.596613	0.000142	1.419591	0.480970	0.000057
1660	1.6507e+02	-13.9007	-51.479536	0.000294	2.940581	0.996296	0.000118
1661	1.6517e+02	-13.8590	-51.366497	0.000284	2.839182	0.961941	0.000114
1662	1.6527e+02	-13.8237	-51.261531	0.000264	2.636383	0.893231	0.000105
1663	1.6537e+02	-13.7900	-51.168677	0.000233	2.332185	0.790166	0.000093
1664	1.6547e+02	-13.7370	-51.063711	0.000264	2.636383	0.893231	0.000105
1665	1.6557e+02	-13.6969	-50.991043	0.000183	1.825188	0.618391	0.000073
1666	1.6567e+02	-13.6568	-50.865892	0.000314	3.143380	1.065006	0.000126
1667	1.6577e+02	-13.6183	-50.769000	0.000243	2.433585	0.824521	0.000097
1668	1.6587e+02	-13.5750	-50.664035	0.000264	2.636383	0.893231	0.000105
1669	1.6597e+02	-13.5269	-50.571181	0.000233	2.332185	0.790166	0.000093
1670	1.6607e+02	-13.5012	-50.466215	0.000264	2.636383	0.893231	0.000105
1671	1.6616e+02	-13.4579	-50.361250	0.000264	2.636383	0.893231	0.000105
1672	1.6626e+02	-13.4210	-50.284544	0.000193	1.926588	0.652746	0.000077
1673	1.6636e+02	-13.3809	-50.187653	0.000243	2.433585	0.824521	0.000097
1674	1.6646e+02	-13.3488	-50.062502	0.000314	3.143380	1.065006	0.000126
1675	1.6656e+02	-13.3055	-49.933313	0.000324	3.244779	1.099361	0.000130
1676	1.6666e+02	-13.2590	-49.820274	0.000284	2.839182	0.961941	0.000114
1677	1.6676e+02	-13.2141	-49.787976	0.000081	0.811195	0.274840	0.000032
1678	1.6686e+02	-13.1756	-49.626491	0.000406	4.055974	1.374201	0.000162
1679	1.6696e+02	-13.1322	-49.537674	0.000223	2.230786	0.755811	0.000089
1680	1.6706e+02	-13.0921	-49.444820	0.000233	2.332185	0.790166	0.000093
1681	1.6716e+02	-13.0601	-49.356003	0.000223	2.230786	0.755811	0.000089
1682	1.6726e+02	-13.0167	-49.255075	0.000253	2.534984	0.858876	0.000101
1683	1.6736e+02	-12.9766	-49.113775	0.000355	3.548978	1.202426	0.000142
1684	1.6746e+02	-12.9317	-49.033032	0.000203	2.027987	0.687101	0.000081
1685	1.6756e+02	-12.8948	-48.907881	0.000314	3.143380	1.065006	0.000126
1686	1.6766e+02	-12.8563	-48.794841	0.000284	2.839182	0.961941	0.000114
1687	1.6776e+02	-12.8258	-48.693913	0.000253	2.534984	0.858876	0.000101
1688	1.6786e+02	-12.7825	-48.625281	0.000172	1.723789	0.584036	0.000069
1689	1.6796e+02	-12.7360	-48.483982	0.000355	3.548978	1.202426	0.000142
1690	1.6806e+02	-12.7119	-48.383053	0.000253	2.534984	0.858876	0.000101
1691	1.6816e+02	-12.6638	-48.249828	0.000335	3.346179	1.133716	0.000134
1692	1.6825e+02	-12.6237	-48.169085	0.000203	2.027987	0.687101	0.000081
1693	1.6835e+02	-12.5788	-48.056045	0.000284	2.839182	0.961941	0.000114
1694	1.6845e+02	-12.5483	-47.914746	0.000355	3.548978	1.202426	0.000142
1695	1.6855e+02	-12.5018	-47.834003	0.000203	2.027987	0.687101	0.000081
1696	1.6865e+02	-12.4617	-47.712889	0.000304	3.041981	1.030651	0.000122
1697	1.6875e+02	-12.4248	-47.575626	0.000345	3.447578	1.168071	0.000138
1698	1.6885e+02	-12.3847	-47.523143	0.000132	1.318192	0.446615	0.000053
1699	1.6895e+02	-12.3494	-47.414141	0.000274	2.737783	0.927586	0.000110
1700	1.6905e+02	-12.3029	-47.309175	0.000264	2.636383	0.893231	0.000105
1701	1.6915e+02	-12.2595	-47.184024	0.000314	3.143380	1.065006	0.000126
1702	1.6925e+02	-12.2210	-47.079058	0.000264	2.636383	0.893231	0.000105
1703	1.6935e+02	-12.1841	-46.966019	0.000284	2.839182	0.961941	0.000114
1704	1.6945e+02	-12.1505	-46.840867	0.000314	3.143380	1.065006	0.000126
1705	1.6955e+02	-12.1039	-46.748013	0.000233	2.332185	0.790166	0.000093
1706	1.6965e+02	-12.0622	-46.651122	0.000243	2.433585	0.824521	0.000097
1707	1.6975e+02	-12.0334	-46.521934	0.000324	3.244779	1.099361	0.000130
1708	1.6985e+02	-11.9965	-46.421005	0.000253	2.534984	0.858876	0.000101
1709	1.6995e+02	-11.9403	-46.307965	0.000284	2.839182	0.961941	0.000114
1710	1.7005e+02	-11.9034	-46.194926	0.000284	2.839182	0.961941	0.000114
1711	1.7015e+02	-11.8649	-46.098034	0.000243	2.433585	0.824521	0.000097
1712	1.7024e+02	-11.8280	-45.960772	0.000345	3.447578	1.168071	0.000138
1713	1.7034e+02	-11.7735	-45.839658	0.000304	3.041981	1.030651	0.000122
1714	1.7044e+02	-11.7382	-45.710469	0.000324	3.244779	1.099361	0.000130
1715	1.7054e+02	-11.7045	-45.629727	0.000203	2.027987	0.687101	0.000081
1716	1.7064e+02	-11.6660	-45.492464	0.000345	3.447578	1.168071	0.000138
1717	1.7074e+02	-11.6387	-45.415758	0.000193	1.926588	0.652746	0.000077
1718	1.7084e+02	-11.5858	-45.302719	0.000284	2.839182	0.961941	0.000114
1719	1.7094e+02	-11.5537	-45.169493	0.000335	3.346179	1.133716	0.000134
1720	1.7104e+02	-11.5056	-45.044342	0.000314	3.143380	1.065006	0.000126
1721	1.7114e+02	-11.4751	-44.951488	0.000233	2.332185	0.790166	0.000093
1722	1.7124e+02	-11.4237	-44.810188	0.000355	3.548978	1.202426	0.000142
1723	1.7134e+02	-11.3852	-44.729445	0.000203	2.027987	0.687101	0.000081
1724	1.7144e+02	-11.3451	-44.620443	0.000274	2.737783	0.927586	0.000110
1725	1.7154e+02	-11.3050	-44.483180	0.000345	3.447578	1.168071	0.000138
1726	1.7164e+02	-11.2778	-44.394363	0.000223	2.230786	0.755811	0.000089
1727	1.7174e+02	-11.2264	-44.244989	0.000375	3.751776	1.271136	0.000150
1728	1.7184e+02	-11.1927	-44.123875	0.000304	3.041981	1.030651	0.000122
1729	1.7194e+02	-11.1462	-43.998724	0.000314	3.143380	1.065006	0.000126
1730	1.7204e+02	-11.1157	-43.909907	0.000223	2.230786	0.755811	0.000089
1731	1.7213e+02	-11.0660	-43.788793	0.000304	3.041981	1.030651	0.000122
1732	1.7223e+02	-11.0259	-43.695939	0.000233	2.332185	0.790166	0.000093
1733	1.7233e+02	-10.9858	-43.574825	0.000304	3.041981	1.030651	0.000122
1734	1.7243e+02	-10.9537	-43.441599	0.000335	3.346179	1.133716	0.000134
1735	1.7253e+02	-10.9056	-43.332596	0.000274	2.737783	0.927586	0.000110
1736	1.7263e+02	-10.8591	-43.219557	0.000284	2.839182	0.961941	0.000114
1737	1.7273e+02	-10.8366	-43.102480	0.000294	2.940581	0.996296	0.000118
1738	1.7283e+02	-10.7981	-42.985403	0.000294	2.940581	0.996296	0.000118
1739	1.7293e+02	-10.7435	-42.888512	0.000243	2.433585	0.824521	0.000097
1740	1.7303e+02	-10.7147	-42.767397	0.000304	3.041981	1.030651	0.000122
1741	1.7313e+02	-10.6714	-42.658395	0.000274	2.737783	0.927586	0.000110
1742	1.7323e+02	-10.6393	-42.569578	0.000223	2.230786	0.755811	0.000089
1743	1.7333e+02	-10.5911	-42.452501	0.000294	2.940581	0.996296	0.000118
1744	1.7343e+02	-10.5494	-42.311201	0.000355	3.548978	1.202426	0.000142
1745	1.7353e+02	-10.5061	-42.194124	0.000294	2.940581	0.996296	0.000118
1746	1.7363e+02	-10.4676	-42.044750	0.000375	3.751776	1.271136	0.000150
1747	1.7373e+02	-10.4355	-41.976119	0.000172	1.723789	0.584036	0.000069
1748	1.7383e+02	-10.3842	-41.850968	0.000314	3.143380	1.065006	0.000126
1749	1.7393e+02	-10.3489	-41.717742	0.000335	3.346179	1.133716	0.000134
1750	1.7403e+02	-10.3200	-41.608739	0.000274	2.737783	0.927586	0.000110
1751	1.7413e+02	-10.2735	-41.503774	0.000264	2.636383	0.893231	0.000105
1752	1.7422e+02	-10.2382	-41.386697	0.000294	2.940581	0.996296	0.000118
1753	1.7432e+02	-10.1949	-41.241360	0.000365	3.650377	1.236781	0.000146
1754	1.7442e+02	-10.1516	-41.156580	0.000213	2.129387	0.721456	0.000085
1755	1.7452e+02	-10.1211	-41.039503	0.000294	2.940581	0.996296	0.000118
1756	1.7462e+02	-10.0826	-40.902241	0.000345	3.447578	1.168071	0.000138
1757	1.7472e+02	-10.0329	-40.777090	0.000314	3.143380	1.065006	0.000126
1758	1.7482e+02	-9.9847	-40.672124	0.000264	2.636383	0.893231	0.000105
1759	1.7492e+02	-9.9446	-40.567158	0.000264	2.636383	0.893231	0.000105
1760	1.7502e+02	-9.9222	-40.470267	0.000243	2.433585	0.824521	0.000097
1761	1.7512e+02	-9.8628	-40.316856	0.000385	3.853176	1.305491	0.000154
1762	1.7522e+02	-9.8307	-40.187668	0.000324	3.244779	1.099361	0.000130
1763	1.7532e+02	-9.7938	-40.114999	0.000183	1.825188	0.618391	0.000073
1764	1.7542e+02	-9.7521	-39.961588	0.000385	3.853176	1.305491	0.000154
1765	1.7552e+02	-9.7200	-39.840474	0.000304	3.041981	1.030651	0.000122
1766	1.7562e+02	-9.6655	-39.751657	0.000223	2.230786	0.755811	0.000089
1767	1.7572e+02	-9.6206	-39.598246	0.000385	3.853176	1.305491	0.000154
1768	1.7582e+02	-9.6078	-39.485206	0.000284	2.839182	0.961941	0.000114
1769	1.7592e+02	-9.5484	-39.392352	0.000233	2.332185	0.790166	0.000093
1770	1.7602e+02	-9.5147	-39.230867	0.000406	4.055974	1.374201	0.000162
1771	1.7612e+02	-9.4810	-39.158198	0.000183	1.825188	0.618391	0.000073
1772	1.7621e+02	-9.4313	-39.057270	0.000253	2.534984	0.858876	0.000101
1773	1.7631e+02	-9.3992	-38.899821	0.000395	3.954575	1.339846	0.000158
1774	1.7641e+02	-9.3479	-38.794856	0.000264	2.636383	0.893231	0.000105
1775	1.7651e+02	-9.3094	-38.653556	0.000355	3.548978	1.202426	0.000142
1776	1.7661e+02	-9.2805	-38.572813	0.000203	2.027987	0.687101	0.000081
1777	1.7671e+02	-9.2372	-38.471885	0.000253	2.534984	0.858876	0.000101
1778	1.7681e+02	-9.2003	-38.342697	0.000324	3.244779	1.099361	0.000130
1779	1.7691e+02	-9.1602	-38.201397	0.000355	3.548978	1.202426	0.000142
1780	1.7701e+02	-9.1265	-38.108543	0.000233	2.332185	0.790166	0.000093
1781	1.7711e+02	-9.0848	-37.991466	0.000294	2.940581	0.996296	0.000118
1782	1.7721e+02	-9.0238	-37.842092	0.000375	3.751776	1.271136	0.000150
1783	1.7731e+02	-8.9965	-37.720978	0.000304	3.041981	1.030651	0.000122
1784	1.7741e+02	-8.9564	-37.611975	0.000274	2.737783	0.927586	0.000110
1785	1.7751e+02	-8.9260	-37.486824	0.000314	3.143380	1.065006	0.000126
1786	1.7761e+02	-8.8762	-37.365710	0.000304	3.041981	1.030651	0.000122
1787	1.7771e+02	-8.8409	-37.293041	0.000183	1.825188	0.618391	0.000073
1788	1.7781e+02	-8.7928	-37.167890	0.000314	3.143380	1.065006	0.000126
1789	1.7791e+02	-8.7559	-37.014479	0.000385	3.853176	1.305491	0.000154
1790	1.7801e+02	-8.7254	-36.905476	0.000274	2.737783	0.927586	0.000110
1791	1.7810e+02	-8.6853	-36.800511	0.000264	2.636383	0.893231	0.000105
1792	1.7820e+02	-8.6356	-36.719768	0.000203	2.027987	0.687101	0.000081
1793	1.7830e+02	-8.5971	-36.542134	0.000446	4.461572	1.511621	0.000179
1794	1.7840e+02	-8.5634	-36.445243	0.000243	2.433585	0.824521	0.000097
1795	1.7850e+02	-8.5249	-36.324129	0.000304	3.041981	1.030651	0.000122
1796	1.7860e+02	-8.4736	-36.198978	0.000314	3.143380	1.065006	0.000126
1797	1.7870e+02	-8.4447	-36.106123	0.000233	2.332185	0.790166	0.000093
1798	1.7880e+02	-8.4046	-35.985009	0.000304	3.041981	1.030651	0.000122
1799	1.7890e+02	-8.3629	-35.831598	0.000385	3.853176	1.305491	0.000154
1800	1.7900e+02	-8.3163	-35.678187	0.000385	3.853176	1.305491	0.000154
1801	1.7910e+02	-8.2859	-35.645890	0.000081	0.811195	0.274840	0.000032
1802	1.7920e+02	-8.2425	-35.488442	0.000395	3.954575	1.339846	0.000158
1803	1.7930e+02	-8.1976	-35.399625	0.000223	2.230786	0.755811	0.000089
1804	1.7940e+02	-8.1575	-35.266399	0.000335	3.346179	1.133716	0.000134
1805	1.7950e+02	-8.1206	-35.157397	0.000274	2.737783	0.927586	0.000110
1806	1.7960e+02	-8.0869	-34.975725	0.000456	4.562971	1.545976	0.000183
1807	1.7970e+02	-8.0436	-34.894983	0.000203	2.027987	0.687101	0.000081
1808	1.7980e+02	-8.0019	-34.794054	0.000253	2.534984	0.858876	0.000101
1809	1.7990e+02	-7.9586	-34.681015	0.000284	2.839182	0.961941	0.000114
1810	1.8000e+02	-7.9121	-34.547789	0.000335	3.346179	1.133716	0.000134
1811	1.8009e+02	-7.8752	-34.394378	0.000385	3.853176	1.305491	0.000154
1812	1.8019e+02	-7.8383	-34.293450	0.000253	2.534984	0.858876	0.000101
1813	1.8029e+02	-7.7998	-34.216744	0.000193	1.926588	0.652746	0.000077
1814	1.8039e+02	-7.7629	-34.119853	0.000243	2.433585	0.824521	0.000097
1815	1.8049e+02	-7.7180	-33.974516	0.000365	3.650377	1.236781	0.000146
1816	1.8059e+02	-7.6843	-33.881662	0.000233	2.332185	0.790166	0.000093
1817	1.8069e+02	-7.6442	-33.728251	0.000385	3.853176	1.305491	0.000154
1818	1.8079e+02	-7.6137	-33.595025	0.000335	3.346179	1.133716	0.000134
1819	1.8089e+02	-7.5607	-33.490060	0.000264	2.636383	0.893231	0.000105
1820	1.8099e+02	-7.5222	-33.389131	0.000253	2.534984	0.858876	0.000101
1821	1.8109e+02	-7.4837	-33.251869	0.000345	3.447578	1.168071	0.000138
1822	1.8119e+02	-7.4340	-33.138829	0.000284	2.839182	0.961941	0.000114
1823	1.8129e+02	-7.4051	-33.001566	0.000345	3.447578	1.168071	0.000138
1824	1.8139e+02	-7.3634	-32.888526	0.000284	2.839182	0.961941	0.000114
1825	1.8149e+02	-7.3346	-32.743189	0.000365	3.650377	1.236781	0.000146
1826	1.8159e+02	-7.2832	-32.642261	0.000253	2.534984	0.858876	0.000101
1827	1.8169e+02	-7.2447	-32.529221	0.000284	2.839182	0.961941	0.000114
1828	1.8179e+02	-7.2046	-32.387921	0.000355	3.548978	1.202426	0.000142
1829	1.8189e+02	-7.1709	-32.242585	0.000365	3.650377	1.236781	0.000146
1830	1.8199e+02	-7.1196	-32.153768	0.000223	2.230786	0.755811	0.000089
1831	1.8209e+02	-7.0891	-31.996319	0.000395	3.954575	1.339846	0.000158
1832	1.8218e+02	-7.0394	-31.891354	0.000264	2.636383	0.893231	0.000105
1833	1.8228e+02	-7.0009	-31.790425	0.000253	2.534984	0.858876	0.000101
1834	1.8238e+02	-6.9720	-31.665274	0.000314	3.143380	1.065006	0.000126
1835	1.8248e+02	-6.9223	-31.515900	0.000375	3.751776	1.271136	0.000150
1836	1.8258e+02	-6.8838	-31.435157	0.000203	2.027987	0.687101	0.000081
1837	1.8268e+02	-6.8453	-31.249449	0.000466	4.664371	1.580332	0.000187
1838	1.8278e+02	-6.8116	-31.148521	0.000253	2.534984	0.858876	0.000101
1839	1.8288e+02	-6.7699	-31.043555	0.000264	2.636383	0.893231	0.000105
1840	1.8298e+02	-6.7201	-30.930515	0.000284	2.839182	0.961941	0.000114
1841	1.8308e+02	-6.6913	-30.789216	0.000355	3.548978	1.202426	0.000142
1842	1.8318e+02	-6.6399	-30.696362	0.000233	2.332185	0.790166	0.000093
1843	1.8328e+02	-6.6078	-30.555062	0.000355	3.548978	1.202426	0.000142
1844	1.8338e+02	-6.5597	-30.446059	0.000274	2.737783	0.927586	0.000110
1845	1.8348e+02	-6.5276	-30.296685	0.000375	3.751776	1.271136	0.000150
1846	1.8358e+02	-6.4843	-30.207868	0.000223	2.230786	0.755811	0.000089
1847	1.8368e+02	-6.4522	-30.090791	0.000294	2.940581	0.996296	0.000118
1848	1.8378e+02	-6.4153	-29.933343	0.000395	3.954575	1.339846	0.000158
1849	1.8388e+02	-6.3688	-29.812229	0.000304	3.041981	1.030651	0.000122
1850	1.8398e+02	-6.3223	-29.715338	0.000243	2.433585	0.824521	0.000097
1851	1.8407e+02	-6.2790	-29.598261	0.000294	2.940581	0.996296	0.000118
1852	1.8417e+02	-6.2485	-29.420627	0.000446	4.461572	1.511621	0.000179
1853	1.8427e+02	-6.2068	-29.299513	0.000304	3.041981	1.030651	0.000122
1854	1.8437e+02	-6.1731	-29.150139	0.000375	3.751776	1.271136	0.000150
1855	1.8447e+02	-6.1346	-29.061322	0.000223	2.230786	0.755811	0.000089
1856	1.8457e+02	-6.0897	-28.936170	0.000314	3.143380	1.065006	0.000126
1857	1.8467e+02	-6.0512	-28.798908	0.000345	3.447578	1.168071	0.000138
1858	1.8477e+02	-6.0191	-28.677794	0.000304	3.041981	1.030651	0.000122
1859	1.8487e+02	-5.9758	-28.492085	0.000466	4.664371	1.580332	0.000187
1860	1.8497e+02	-5.9325	-28.379046	0.000284	2.839182	0.961941	0.000114
1861	1.8507e+02	-5.8843	-28.290229	0.000223	2.230786	0.755811	0.000089
1862	1.8517e+02	-5.8490	-28.165077	0.000314	3.143380	1.065006	0.000126
1863	1.8527e+02	-5.8105	-28.039926	0.000314	3.143380	1.065006	0.000126
1864	1.8537e+02	-5.7656	-27.858255	0.000456	4.562971	1.545976	0.000183
1865	1.8547e+02	-5.7239	-27.761364	0.000243	2.433585	0.824521	0.000097
1866	1.8557e+02	-5.6854	-27.660436	0.000253	2.534984	0.858876	0.000101
1867	1.8567e+02	-5.6485	-27.515099	0.000365	3.650377	1.236781	0.000146
1868	1.8577e+02	-5.6052	-27.377836	0.000345	3.447578	1.168071	0.000138
1869	1.8587e+02	-5.5699	-27.284982	0.000233	2.332185	0.790166	0.000093
1870	1.8597e+02	-5.5282	-27.119459	0.000416	4.157374	1.408556	0.000166
1871	1.8606e+02	-5.5025	-26.962011	0.000395	3.954575	1.339846	0.000158
1872	1.8616e+02	-5.4528	-26.869157	0.000233	2.332185	0.790166	0.000093
1873	1.8626e+02	-5.4191	-26.679412	0.000477	4.765770	1.614687	0.000191
1874	1.8636e+02	-5.3742	-26.505815	0.000436	4.360172	1.477266	0.000174
1875	1.8646e+02	-5.3373	-26.457369	0.000122	1.216792	0.412260	0.000049
1876	1.8656e+02	-5.3004	-26.320106	0.000345	3.447578	1.168071	0.000138
1877	1.8666e+02	-5.2555	-26.211104	0.000274	2.737783	0.927586	0.000110
1878	1.8676e+02	-5.2122	-26.057693	0.000385	3.853176	1.305491	0.000154
1879	1.8686e+02	-5.1688	-25.924467	0.000335	3.346179	1.133716	0.000134
1880	1.8696e+02	-5.1335	-25.783167	0.000355	3.548978	1.202426	0.000142
1881	1.8706e+02	-5.0886	-25.678202	0.000264	2.636383	0.893231	0.000105
1882	1.8716e+02	-5.0565	-25.520754	0.000395	3.954575	1.339846	0.000158
1883	1.8726e+02	-5.0164	-25.383491	0.000345	3.447578	1.168071	0.000138
1884	1.8736e+02	-4.9763	-25.230080	0.000385	3.853176	1.305491	0.000154
1885	1.8746e+02	-4.9330	-25.157411	0.000183	1.825188	0.618391	0.000073
1886	1.8756e+02	-4.8961	-25.008037	0.000375	3.751776	1.271136	0.000150
1887	1.8766e+02	-4.8672	-24.862700	0.000365	3.650377	1.236781	0.000146
1888	1.8776e+02	-4.8175	-24.701215	0.000406	4.055974	1.374201	0.000162
1889	1.8786e+02	-4.7694	-24.608361	0.000233	2.332185	0.790166	0.000093
1890	1.8796e+02	-4.7389	-24.434764	0.000436	4.360172	1.477266	0.000174
1891	1.8806e+02	-4.6924	-24.281353	0.000385	3.853176	1.305491	0.000154
1892	1.8815e+02	-4.6523	-24.216759	0.000162	1.622390	0.549681	0.000065
1893	1.8825e+02	-4.6154	-24.031050	0.000466	4.664371	1.580332	0.000187
1894	1.8835e+02	-4.5721	-23.909936	0.000304	3.041981	1.030651	0.000122
1895	1.8845e+02	-4.5448	-23.736340	0.000436	4.360172	1.477266	0.000174
1896	1.8855e+02	-4.5063	-23.599077	0.000345	3.447578	1.168071	0.000138
1897	1.8865e+02	-4.4534	-23.498149	0.000253	2.534984	0.858876	0.000101
1898	1.8875e+02	-4.4165	-23.344737	0.000385	3.853176	1.305491	0.000154
1899	1.8885e+02	-4.3699	-23.231698	0.000284	2.839182	0.961941	0.000114
1900	1.8895e+02	-4.3394	-23.058101	0.000436	4.360172	1.477266	0.000174
1901	1.8905e+02	-4.2913	-22.928912	0.000324	3.244779	1.099361	0.000130
1902	1.8915e+02	-4.2560	-22.803761	0.000314	3.143380	1.065006	0.000126
1903	1.8925e+02	-4.2159	-22.666499	0.000345	3.447578	1.168071	0.000138
1904	1.8935e+02	-4.1726	-22.513087	0.000385	3.853176	1.305491	0.000154
1905	1.8945e+02	-4.1357	-22.432345	0.000203	2.027987	0.687101	0.000081
1906	1.8955e+02	-4.0972	-22.303156	0.000324	3.244779	1.099361	0.000130
1907	1.8965e+02	-4.0587	-22.121485	0.000456	4.562971	1.545976	0.000183
1908	1.8975e+02	-4.0250	-21.976148	0.000365	3.650377	1.236781	0.000146
1909	1.8985e+02	-3.9801	-21.883294	0.000233	2.332185	0.790166	0.000093
1910	1.8995e+02	-3.9416	-21.741995	0.000355	3.548978	1.202426	0.000142
1911	1.9004e+02	-3.9031	-21.612806	0.000324	3.244779	1.099361	0.000130
1912	1.9014e+02	-3.8518	-21.439209	0.000436	4.360172	1.477266	0.000174
1913	1.9024e+02	-3.8197	-21.354429	0.000213	2.129387	0.721456	0.000085
1914	1.9034e+02	-3.7828	-21.176796	0.000446	4.461572	1.511621	0.000179
1915	1.9044e+02	-3.7443	-21.043570	0.000335	3.346179	1.133716	0.000134
1916	1.9054e+02	-3.6945	-20.898233	0.000365	3.650377	1.236781	0.000146
1917	1.9064e+02	-3.6512	-20.769045	0.000324	3.244779	1.099361	0.000130
1918	1.9074e+02	-3.6143	-20.639856	0.000324	3.244779	1.099361	0.000130
1919	1.9084e+02	-3.5839	-20.482408	0.000395	3.954575	1.339846	0.000158
1920	1.9094e+02	-3.5421	-20.361294	0.000304	3.041981	1.030651	0.000122
1921	1.9104e+02	-3.5036	-20.199809	0.000406	4.055974	1.374201	0.000162
1922	1.9114e+02	-3.4571	-20.098880	0.000253	2.534984	0.858876	0.000101
1923	1.9124e+02	-3.4282	-19.937395	0.000406	4.055974	1.374201	0.000162
1924	1.9134e+02	-3.3833	-19.788021	0.000375	3.751776	1.271136	0.000150
1925	1.9144e+02	-3.3352	-19.646721	0.000355	3.548978	1.202426	0.000142
1926	1.9154e+02	-3.3015	-19.497347	0.000375	3.751776	1.271136	0.000150
1927	1.9164e+02	-3.2678	-19.392382	0.000264	2.636383	0.893231	0.000105
1928	1.9174e+02	-3.2181	-19.275305	0.000294	2.940581	0.996296	0.000118
1929	1.9184e+02	-3.1764	-19.089596	0.000466	4.664371	1.580332	0.000187
1930	1.9194e+02	-3.1443	-18.964445	0.000314	3.143380	1.065006	0.000126
1931	1.9203e+02	-3.1106	-18.811034	0.000385	3.853176	1.305491	0.000154
1932	1.9213e+02	-3.0593	-18.677808	0.000335	3.346179	1.133716	0.000134
1933	1.9223e+02	-3.0208	-18.564769	0.000284	2.839182	0.961941	0.000114
1934	1.9233e+02	-2.9855	-18.399246	0.000416	4.157374	1.408556	0.000166
1935	1.9243e+02	-2.9470	-18.270058	0.000324	3.244779	1.099361	0.000130
1936	1.9253e+02	-2.8972	-18.120684	0.000375	3.751776	1.271136	0.000150
1937	1.9263e+02	-2.8700	-17.955161	0.000416	4.157374	1.408556	0.000166
1938	1.9273e+02	-2.8234	-17.874418	0.000203	2.027987	0.687101	0.000081
1939	1.9283e+02	-2.7817	-17.716970	0.000395	3.954575	1.339846	0.000158
1940	1.9293e+02	-2.7432	-17.591819	0.000314	3.143380	1.065006	0.000126
1941	1.9303e+02	-2.7047	-17.450519	0.000355	3.548978	1.202426	0.000142
1942	1.9313e+02	-2.6598	-17.293071	0.000395	3.954575	1.339846	0.000158
1943	1.9323e+02	-2.6245	-17.163883	0.000324	3.244779	1.099361	0.000130
1944	1.9333e+02	-2.5812	-17.026620	0.000345	3.447578	1.168071	0.000138
1945	1.9343e+02	-2.5443	-16.853023	0.000436	4.360172	1.477266	0.000174
1946	1.9353e+02	-2.5106	-16.739983	0.000284	2.839182	0.961941	0.000114
1947	1.9363e+02	-2.4609	-16.630981	0.000274	2.737783	0.927586	0.000110
1948	1.9373e+02	-2.4208	-16.526015	0.000264	2.636383	0.893231	0.000105
1949	1.9383e+02	-2.3759	-16.316084	0.000527	5.272767	1.786462	0.000211
1950	1.9393e+02	-2.3454	-16.186896	0.000324	3.244779	1.099361	0.000130
1951	1.9403e+02	-2.2973	-16.041559	0.000365	3.650377	1.236781	0.000146
1952	1.9412e+02	-2.2700	-15.928519	0.000284	2.839182	0.961941	0.000114
1953	1.9422e+02	-2.2235	-15.754922	0.000436	4.360172	1.477266	0.000174
1954	1.9432e+02	-2.1962	-15.633808	0.000304	3.041981	1.030651	0.000122
1955	1.9442e+02	-2.1400	-15.500583	0.000335	3.346179	1.133716	0.000134
1956	1.9452e+02	-2.1048	-15.363320	0.000345	3.447578	1.168071	0.000138
1957	1.9462e+02	-2.0663	-15.217983	0.000365	3.650377	1.236781	0.000146
1958	1.9472e+02	-2.0294	-15.064572	0.000385	3.853176	1.305491	0.000154
1959	1.9482e+02	-1.9860	-14.983829	0.000203	2.027987	0.687101	0.000081
1960	1.9492e+02	-1.9475	-14.790047	0.000487	4.867169	1.649042	0.000195
1961	1.9502e+02	-1.9090	-14.664896	0.000314	3.143380	1.065006	0.000126
1962	1.9512e+02	-1.8609	-14.515522	0.000375	3.751776	1.271136	0.000150
1963	1.9522e+02	-1.8160	-14.362110	0.000385	3.853176	1.305491	0.000154
1964	1.9532e+02	-1.7919	-14.204662	0.000395	3.954575	1.339846	0.000158
1965	1.9542e+02	-1.7550	-14.079511	0.000314	3.143380	1.065006	0.000126
1966	1.9552e+02	-1.7085	-13.970508	0.000274	2.737783	0.927586	0.000110
1967	1.9562e+02	-1.6668	-13.849394	0.000304	3.041981	1.030651	0.000122
1968	1.9572e+02	-1.6315	-13.691946	0.000395	3.954575	1.339846	0.000158
1969	1.9582e+02	-1.5898	-13.542572	0.000375	3.751776	1.271136	0.000150
1970	1.9592e+02	-1.5497	-13.409346	0.000335	3.346179	1.133716	0.000134
1971	1.9601e+02	-1.5112	-13.259972	0.000375	3.751776	1.271136	0.000150
1972	1.9611e+02	-1.4695	-13.163081	0.000243	2.433585	0.824521	0.000097
1973	1.9621e+02	-1.4326	-12.989484	0.000436	4.360172	1.477266	0.000174
1974	1.9631e+02	-1.3861	-12.876444	0.000284	2.839182	0.961941	0.000114
1975	1.9641e+02	-1.3476	-12.710922	0.000416	4.157374	1.408556	0.000166
1976	1.9651e+02	-1.3107	-12.609993	0.000253	2.534984	0.858876	0.000101
1977	1.9661e+02	-1.2625	-12.464657	0.000365	3.650377	1.236781	0.000146
1978	1.9671e+02	-1.2272	-12.303171	0.000406	4.055974	1.374201	0.000162
1979	1.9681e+02	-1.1855	-12.230503	0.000183	1.825188	0.618391	0.000073
1980	1.9691e+02	-1.1470	-12.073054	0.000395	3.954575	1.339846	0.000158
1981	1.9701e+02	-1.1101	-11.911569	0.000406	4.055974	1.374201	0.000162
1982	1.9711e+02	-1.0813	-11.754121	0.000395	3.954575	1.339846	0.000158
1983	1.9721e+02	-1.0267	-11.620895	0.000335	3.346179	1.133716	0.000134
1984	1.9731e+02	-0.9962	-11.471521	0.000375	3.751776	1.271136	0.000150
1985	1.9741e+02	-0.9497	-11.301961	0.000426	4.258773	1.442911	0.000170
1986	1.9751e+02	-0.9160	-11.176810	0.000314	3.143380	1.065006	0.000126
1987	1.9761e+02	-0.8679	-11.035511	0.000355	3.548978	1.202426	0.000142
1988	1.9771e+02	-0.8326	-10.906322	0.000324	3.244779	1.099361	0.000130
1989	1.9781e+02	-0.7764	-10.785208	0.000304	3.041981	1.030651	0.000122
1990	1.9791e+02	-0.7508	-10.603537	0.000456	4.562971	1.545976	0.000183
1991	1.9800e+02	-0.7091	-10.458200	0.000365	3.650377	1.236781	0.000146
1992	1.9810e+02	-0.6658	-10.333049	0.000314	3.143380	1.065006	0.000126
1993	1.9820e+02	-0.6353	-10.203861	0.000324	3.244779	1.099361	0.000130
1994	1.9830e+02	-0.6000	-10.062561	0.000355	3.548978	1.202426	0.000142
1995	1.9840e+02	-0.5519	-9.893001	0.000426	4.258773	1.442911	0.000170
1996	1.9850e+02	-0.5214	-9.775924	0.000294	2.940581	0.996296	0.000118
1997	1.9860e+02	-0.4765	-9.606364	0.000426	4.258773	1.442911	0.000170
1998	1.9870e+02	-0.4299	-9.473139	0.000335	3.346179	1.133716	0.000134
1999	1.9880e+02	-0.3978	-9.315691	0.000395	3.954575	1.339846	0.000158
2000	1.9890e+02	-0.3529	-9.198614	0.000294	2.940581	0.996296	0.000118
2001	1.9900e+02	-0.3112	-9.057314	0.000355	3.548978	1.202426	0.000142
2002	1.9910e+02	-0.2679	-8.907940	0.000375	3.751776	1.271136	0.000150
2003	1.9920e+02	-0.2310	-8.766640	0.000355	3.548978	1.202426	0.000142
2004	1.9930e+02	-0.1925	-8.685898	0.000203	2.027987	0.687101	0.000081
2005	1.9940e+02	-0.1508	-8.484041	0.000507	5.069968	1.717752	0.000203
2006	1.9950e+02	-0.1075	-8.350815	0.000335	3.346179	1.133716	0.000134
2007	1.9960e+02	-0.0770	-8.181256	0.000426	4.258773	1.442911	0.000170
2008	1.9970e+02	-0.0401	-8.064179	0.000294	2.940581	0.996296	0.000118
2009	1.9980e+02	0.0080	-7.902693	0.000294	2.940581	0.996296	0.000162

PMax (uC/cm2):	7.14e+01
Pr (uC/cm2):	3.78e+00
-Pr (uC/cm2):	-1.81e+00
PLoss (uC/cm2):	-1.78e+00
-Vc:	-1.05e+00
C (Max-Eff) (nF):	3.57e-01
K (Eff):	1.21e+03
Vert. (+/-Pr) Shift (uC/cm2):	9.88e-01
Offset (uC/cm2):	6.09e+00

A (Loop Area - uC/cm2·Volts):	2.29e-02



Hysteresis Version: 5.48.1 - Radiant Technologies, Inc., 1999 - 9/12/24

