»»»»»»»»»»»»»»»»»»»»»»»»»»»»»»»»»»»» Hysteresis ««««««««««««««««««««««««««««««««««««
»»»  Executed Version:	5.48.1
»»»  Vision Version:	5.48.4 (R)
»»»  Vision Compiled:	9/18/24
»»»  Driver Version:	5.47.0
»»»  Windows Version:	Windows 8 or 8.1
»»»  Processor Information:	x86 (AMD or Intel) - 32 Processors
»»»  Tester Name:	PMF21124-494 (100V)
»»»  Tester S/N:	PMF21124-494
»»»  Internal Amp Type:	100V RevK 270k
»»»  Internal Amp S/N:	iAB2-596/K     
»»»  Execution Count:	1
»»»»»»»»»»»»»»»»»»»»»»»»»»»»»»»»»»»»»»»»»»««««««««««««««««««««««««««««««««««««««««««

Stored:	6/19/2025 - 19:17:25
Configured:	06/19/25 10:04:32 AM
Executed:	06/19/25 07:17:02 PM

»»»»»»»»»»»»»»»»»»»»»»»»»»»»»»»»»»» Sample Info ««««««««««««««««««««««««««««««««««««
Sample Name:	
Lot Name:	
Wafer Name:	
Die Row/Column:	0/0
Capacitor Number:	0
Sample Area (cm2):	1.00e-04
Sample Thickness (microns):	3.00e-01

Amplifier:	Internal

»»»»»»»»»»»»»»»»»»»»»»»»»»»»»»»»»»» Tester Info «««««««««««««««««««««««««««««««««««
Tester Name:	PMF21124-494 (100V)
Tester Serial Number:	PMF21124-494
Return Signal Amp. Level:	0.19 [Index: 3]

»»»»»»»»»»»»»»»»»»»»»»»»»»»»»»»» Hysteresis Info ««««««««««««««««««««««««««««««««««
Task Name:	Hyst-1168
Volts:	20.00
Field:	666.67 (kV/cm)
DCBias:	0.00
DCField:	0.00 (kV/cm)
Hysteresis Period (ms):	2.00e+02
Preset:	Enabled
Preset Delay (ms):	1.00e+03
Profile:	Standard Bipolar

»»»»»»»»»»»»»»»»»»»»»»»»»»»»»»»»»»»»»» Data «««««««««««««««««««««««««««««««««««««««
Points:	2009

Valid Data

Point	Time (ms)	Drive Voltage	Measured Polarization (uC/cm2)	Capacitance (uF)	Normalized Capacitance (uF/cm2)	Dielectric Constant	Instantaneous Current (mA)
   1	0.0000e+00	0.0000	-6.124335	0.000253	2.534272	0.858635	0.000101
   2	9.9500e-02	0.0289	-6.023407	0.000253	2.534272	0.858635	0.000101
   3	1.9900e-01	0.0770	-5.894218	0.000324	3.243868	1.099052	0.000130
   4	2.9850e-01	0.1107	-5.732733	0.000405	4.054835	1.373815	0.000162
   5	3.9800e-01	0.1604	-5.567210	0.000416	4.156206	1.408161	0.000166
   6	4.9750e-01	0.1829	-5.438022	0.000324	3.243868	1.099052	0.000130
   7	5.9700e-01	0.2294	-5.284611	0.000385	3.852093	1.305125	0.000154
   8	6.9650e-01	0.2872	-5.143311	0.000355	3.547981	1.202088	0.000142
   9	7.9600e-01	0.3176	-4.985863	0.000395	3.953464	1.339470	0.000158
  10	8.9550e-01	0.3593	-4.840526	0.000365	3.649352	1.236434	0.000146
  11	9.9500e-01	0.3898	-4.731523	0.000274	2.737014	0.927325	0.000110
  12	1.0945e+00	0.4299	-4.578112	0.000385	3.852093	1.305125	0.000154
  13	1.1940e+00	0.4732	-4.436812	0.000355	3.547981	1.202088	0.000142
  14	1.2935e+00	0.5134	-4.234955	0.000507	5.068544	1.717269	0.000203
  15	1.3930e+00	0.5583	-4.142101	0.000233	2.331530	0.789944	0.000093
  16	1.4925e+00	0.5968	-3.976579	0.000416	4.156206	1.408161	0.000166
  17	1.5920e+00	0.6385	-3.839316	0.000345	3.446610	1.167743	0.000138
  18	1.6915e+00	0.6850	-3.669756	0.000426	4.257577	1.442506	0.000170
  19	1.7910e+00	0.7139	-3.548642	0.000304	3.041126	1.030362	0.000122
  20	1.8905e+00	0.7620	-3.383120	0.000416	4.156206	1.408161	0.000166
  21	1.9900e+00	0.7941	-3.209523	0.000436	4.358948	1.476852	0.000174
  22	2.0895e+00	0.8390	-3.068223	0.000355	3.547981	1.202088	0.000142
  23	2.1890e+00	0.8775	-2.930961	0.000345	3.446610	1.167743	0.000138
  24	2.2885e+00	0.9128	-2.781587	0.000375	3.750723	1.270779	0.000150
  25	2.3880e+00	0.9497	-2.620101	0.000405	4.054835	1.373815	0.000162
  26	2.4875e+00	0.9914	-2.478801	0.000355	3.547981	1.202088	0.000142
  27	2.5870e+00	1.0331	-2.373836	0.000264	2.635643	0.892980	0.000105
  28	2.6865e+00	1.0764	-2.176016	0.000497	4.967173	1.682924	0.000199
  29	2.7860e+00	1.1085	-2.058939	0.000294	2.939756	0.996016	0.000118
  30	2.8855e+00	1.1550	-1.873231	0.000466	4.663061	1.579888	0.000187
  31	2.9850e+00	1.1984	-1.723857	0.000375	3.750723	1.270779	0.000150
  32	3.0845e+00	1.2240	-1.598706	0.000314	3.142497	1.064707	0.000126
  33	3.1840e+00	1.2770	-1.457406	0.000355	3.547981	1.202088	0.000142
  34	3.2835e+00	1.3074	-1.267661	0.000476	4.764431	1.614233	0.000191
  35	3.3830e+00	1.3556	-1.126361	0.000355	3.547981	1.202088	0.000142
  36	3.4825e+00	1.4005	-1.009284	0.000294	2.939756	0.996016	0.000118
  37	3.5820e+00	1.4294	-0.851836	0.000395	3.953464	1.339470	0.000158
  38	3.6815e+00	1.4711	-0.674202	0.000446	4.460319	1.511197	0.000179
  39	3.7810e+00	1.5160	-0.528865	0.000365	3.649352	1.236434	0.000146
  40	3.8805e+00	1.5465	-0.427936	0.000253	2.534272	0.858635	0.000101
  41	3.9800e+00	1.5962	-0.246265	0.000456	4.561690	1.545542	0.000183
  42	4.0795e+00	1.6267	-0.096891	0.000375	3.750723	1.270779	0.000150
  43	4.1790e+00	1.6620	0.032297	0.000324	3.243868	1.099052	0.000130
  44	4.2785e+00	1.7053	0.197820	0.000416	4.156206	1.408161	0.000166
  45	4.3780e+00	1.7406	0.343157	0.000365	3.649352	1.236434	0.000146
  46	4.4775e+00	1.7919	0.488493	0.000365	3.649352	1.236434	0.000146
  47	4.5770e+00	1.8320	0.613645	0.000314	3.142497	1.064707	0.000126
  48	4.6765e+00	1.8737	0.811464	0.000497	4.967173	1.682924	0.000199
  49	4.7760e+00	1.9155	0.936615	0.000314	3.142497	1.064707	0.000126
  50	4.8755e+00	1.9459	1.085990	0.000375	3.750723	1.270779	0.000150
  51	4.9750e+00	1.9909	1.251512	0.000416	4.156206	1.408161	0.000166
  52	5.0745e+00	2.0342	1.400886	0.000375	3.750723	1.270779	0.000150
  53	5.1740e+00	2.0823	1.598706	0.000497	4.967173	1.682924	0.000199
  54	5.2735e+00	2.1112	1.703671	0.000264	2.635643	0.892980	0.000105
  55	5.3730e+00	2.1561	1.885342	0.000456	4.561690	1.545542	0.000183
  56	5.4725e+00	2.1898	2.030679	0.000365	3.649352	1.236434	0.000146
  57	5.5720e+00	2.2331	2.171979	0.000355	3.547981	1.202088	0.000142
  58	5.6715e+00	2.2764	2.321353	0.000375	3.750723	1.270779	0.000150
  59	5.7710e+00	2.3037	2.494950	0.000436	4.358948	1.476852	0.000174
  60	5.8705e+00	2.3566	2.616064	0.000304	3.041126	1.030362	0.000122
  61	5.9700e+00	2.3871	2.797735	0.000456	4.561690	1.545542	0.000183
  62	6.0695e+00	2.4304	2.939035	0.000355	3.547981	1.202088	0.000142
  63	6.1690e+00	2.4673	3.096483	0.000395	3.953464	1.339470	0.000158
  64	6.2685e+00	2.5138	3.282191	0.000466	4.663061	1.579888	0.000187
  65	6.3680e+00	2.5475	3.399268	0.000294	2.939756	0.996016	0.000118
  66	6.4675e+00	2.5940	3.572865	0.000436	4.358948	1.476852	0.000174
  67	6.5670e+00	2.6165	3.677831	0.000264	2.635643	0.892980	0.000105
  68	6.6665e+00	2.6678	3.871613	0.000487	4.865802	1.648578	0.000195
  69	6.7660e+00	2.7079	3.980616	0.000274	2.737014	0.927325	0.000110
  70	6.8655e+00	2.7464	4.158250	0.000446	4.460319	1.511197	0.000179
  71	6.9650e+00	2.7978	4.311661	0.000385	3.852093	1.305125	0.000154
  72	7.0645e+00	2.8218	4.448924	0.000345	3.446610	1.167743	0.000138
  73	7.1640e+00	2.8764	4.574075	0.000314	3.142497	1.064707	0.000126
  74	7.2635e+00	2.9117	4.755746	0.000456	4.561690	1.545542	0.000183
  75	7.3630e+00	2.9470	4.913194	0.000395	3.953464	1.339470	0.000158
  76	7.4625e+00	2.9871	5.046420	0.000335	3.345239	1.133398	0.000134
  77	7.5620e+00	3.0272	5.155422	0.000274	2.737014	0.927325	0.000110
  78	7.6615e+00	3.0737	5.361316	0.000517	5.169915	1.751615	0.000207
  79	7.7610e+00	3.1106	5.510690	0.000375	3.750723	1.270779	0.000150
  80	7.8605e+00	3.1507	5.676213	0.000416	4.156206	1.408161	0.000166
  81	7.9600e+00	3.1844	5.833661	0.000395	3.953464	1.339470	0.000158
  82	8.0595e+00	3.2389	5.938627	0.000264	2.635643	0.892980	0.000105
  83	8.1590e+00	3.2614	6.128372	0.000476	4.764431	1.614233	0.000191
  84	8.2585e+00	3.3143	6.269672	0.000355	3.547981	1.202088	0.000142
  85	8.3580e+00	3.3528	6.431157	0.000405	4.054835	1.373815	0.000162
  86	8.4575e+00	3.3833	6.524011	0.000233	2.331530	0.789944	0.000093
  87	8.5570e+00	3.4250	6.685497	0.000405	4.054835	1.373815	0.000162
  88	8.6565e+00	3.4667	6.855056	0.000426	4.257577	1.442506	0.000170
  89	8.7560e+00	3.5036	7.004431	0.000375	3.750723	1.270779	0.000150
  90	8.8555e+00	3.5470	7.157842	0.000385	3.852093	1.305125	0.000154
  91	8.9550e+00	3.5742	7.278956	0.000304	3.041126	1.030362	0.000122
  92	9.0545e+00	3.6224	7.424293	0.000365	3.649352	1.236434	0.000146
  93	9.1540e+00	3.6593	7.626149	0.000507	5.068544	1.717269	0.000203
  94	9.2535e+00	3.7074	7.723041	0.000243	2.432901	0.824289	0.000097
  95	9.3530e+00	3.7507	7.872415	0.000375	3.750723	1.270779	0.000150
  96	9.4525e+00	3.7924	8.017752	0.000365	3.649352	1.236434	0.000146
  97	9.5520e+00	3.8293	8.211534	0.000487	4.865802	1.648578	0.000195
  98	9.6515e+00	3.8598	8.328611	0.000294	2.939756	0.996016	0.000118
  99	9.7510e+00	3.9047	8.506245	0.000446	4.460319	1.511197	0.000179
 100	9.8505e+00	3.9368	8.643508	0.000345	3.446610	1.167743	0.000138
 101	9.9500e+00	3.9817	8.800956	0.000395	3.953464	1.339470	0.000158
 102	1.0050e+01	4.0250	8.909959	0.000274	2.737014	0.927325	0.000110
 103	1.0149e+01	4.0539	9.111815	0.000507	5.068544	1.717269	0.000203
 104	1.0248e+01	4.1084	9.236967	0.000314	3.142497	1.064707	0.000126
 105	1.0348e+01	4.1373	9.398452	0.000405	4.054835	1.373815	0.000162
 106	1.0447e+01	4.1919	9.519566	0.000304	3.041126	1.030362	0.000122
 107	1.0547e+01	4.2272	9.660866	0.000355	3.547981	1.202088	0.000142
 108	1.0646e+01	4.2657	9.858685	0.000497	4.967173	1.682924	0.000199
 109	1.0746e+01	4.3009	10.024208	0.000416	4.156206	1.408161	0.000166
 110	1.0845e+01	4.3427	10.165508	0.000355	3.547981	1.202088	0.000142
 111	1.0945e+01	4.3828	10.274510	0.000274	2.737014	0.927325	0.000110
 112	1.1044e+01	4.4148	10.452144	0.000446	4.460319	1.511197	0.000179
 113	1.1144e+01	4.4630	10.605556	0.000385	3.852093	1.305125	0.000154
 114	1.1243e+01	4.5031	10.730707	0.000314	3.142497	1.064707	0.000126
 115	1.1343e+01	4.5384	10.904304	0.000436	4.358948	1.476852	0.000174
 116	1.1443e+01	4.5881	11.061752	0.000395	3.953464	1.339470	0.000158
 117	1.1542e+01	4.6266	11.186903	0.000314	3.142497	1.064707	0.000126
 118	1.1642e+01	4.6651	11.384723	0.000497	4.967173	1.682924	0.000199
 119	1.1741e+01	4.7036	11.489688	0.000264	2.635643	0.892980	0.000105
 120	1.1841e+01	4.7325	11.659248	0.000426	4.257577	1.442506	0.000170
 121	1.1940e+01	4.7774	11.848993	0.000476	4.764431	1.614233	0.000191
 122	1.2040e+01	4.8191	11.994330	0.000365	3.649352	1.236434	0.000146
 123	1.2139e+01	4.8560	12.099296	0.000264	2.635643	0.892980	0.000105
 124	1.2239e+01	4.8961	12.313264	0.000537	5.372657	1.820305	0.000215
 125	1.2338e+01	4.9330	12.426304	0.000284	2.838385	0.961671	0.000114
 126	1.2438e+01	4.9795	12.567604	0.000355	3.547981	1.202088	0.000142
 127	1.2537e+01	5.0068	12.733126	0.000416	4.156206	1.408161	0.000166
 128	1.2636e+01	5.0630	12.910760	0.000446	4.460319	1.511197	0.000179
 129	1.2736e+01	5.0902	13.043986	0.000335	3.345239	1.133398	0.000134
 130	1.2835e+01	5.1464	13.189322	0.000365	3.649352	1.236434	0.000146
 131	1.2935e+01	5.1833	13.306399	0.000294	2.939756	0.996016	0.000118
 132	1.3034e+01	5.2234	13.528442	0.000558	5.575398	1.888996	0.000223
 133	1.3134e+01	5.2603	13.653593	0.000314	3.142497	1.064707	0.000126
 134	1.3233e+01	5.2924	13.790856	0.000345	3.446610	1.167743	0.000138
 135	1.3333e+01	5.3341	13.952341	0.000405	4.054835	1.373815	0.000162
 136	1.3432e+01	5.3822	14.097678	0.000365	3.649352	1.236434	0.000146
 137	1.3532e+01	5.4239	14.251089	0.000385	3.852093	1.305125	0.000154
 138	1.3632e+01	5.4608	14.400463	0.000375	3.750723	1.270779	0.000150
 139	1.3731e+01	5.4897	14.545800	0.000365	3.649352	1.236434	0.000146
 140	1.3831e+01	5.5362	14.687100	0.000355	3.547981	1.202088	0.000142
 141	1.3930e+01	5.5827	14.840511	0.000385	3.852093	1.305125	0.000154
 142	1.4030e+01	5.6244	15.006034	0.000416	4.156206	1.408161	0.000166
 143	1.4129e+01	5.6565	15.163482	0.000395	3.953464	1.339470	0.000158
 144	1.4229e+01	5.7030	15.288633	0.000314	3.142497	1.064707	0.000126
 145	1.4328e+01	5.7287	15.438007	0.000375	3.750723	1.270779	0.000150
 146	1.4428e+01	5.7801	15.579307	0.000355	3.547981	1.202088	0.000142
 147	1.4527e+01	5.8153	15.692347	0.000284	2.838385	0.961671	0.000114
 148	1.4627e+01	5.8603	15.890166	0.000497	4.967173	1.682924	0.000199
 149	1.4726e+01	5.8972	16.100097	0.000527	5.271286	1.785960	0.000211
 150	1.4825e+01	5.9389	16.209100	0.000274	2.737014	0.927325	0.000110
 151	1.4925e+01	5.9822	16.358474	0.000375	3.750723	1.270779	0.000150
 152	1.5024e+01	6.0143	16.515922	0.000395	3.953464	1.339470	0.000158
 153	1.5124e+01	6.0608	16.661259	0.000365	3.649352	1.236434	0.000146
 154	1.5223e+01	6.0897	16.770262	0.000274	2.737014	0.927325	0.000110
 155	1.5323e+01	6.1378	16.968082	0.000497	4.967173	1.682924	0.000199
 156	1.5422e+01	6.1731	17.121493	0.000385	3.852093	1.305125	0.000154
 157	1.5522e+01	6.2164	17.274904	0.000385	3.852093	1.305125	0.000154
 158	1.5621e+01	6.2533	17.436389	0.000405	4.054835	1.373815	0.000162
 159	1.5721e+01	6.2998	17.577689	0.000355	3.547981	1.202088	0.000142
 160	1.5820e+01	6.3319	17.735137	0.000395	3.953464	1.339470	0.000158
 161	1.5920e+01	6.3752	17.848177	0.000284	2.838385	0.961671	0.000114
 162	1.6020e+01	6.4233	18.021774	0.000436	4.358948	1.476852	0.000174
 163	1.6119e+01	6.4570	18.163074	0.000355	3.547981	1.202088	0.000142
 164	1.6218e+01	6.4891	18.312448	0.000375	3.750723	1.270779	0.000150
 165	1.6318e+01	6.5292	18.494119	0.000456	4.561690	1.545542	0.000183
 166	1.6418e+01	6.5725	18.623307	0.000324	3.243868	1.099052	0.000130
 167	1.6517e+01	6.6159	18.784793	0.000405	4.054835	1.373815	0.000162
 168	1.6616e+01	6.6544	18.982612	0.000497	4.967173	1.682924	0.000199
 169	1.6716e+01	6.6913	19.091615	0.000274	2.737014	0.927325	0.000110
 170	1.6816e+01	6.7346	19.265212	0.000436	4.358948	1.476852	0.000174
 171	1.6915e+01	6.7650	19.422660	0.000395	3.953464	1.339470	0.000158
 172	1.7015e+01	6.8116	19.576071	0.000385	3.852093	1.305125	0.000154
 173	1.7114e+01	6.8565	19.721408	0.000365	3.649352	1.236434	0.000146
 174	1.7213e+01	6.8982	19.919228	0.000497	4.967173	1.682924	0.000199
 175	1.7313e+01	6.9239	20.004008	0.000213	2.128789	0.721253	0.000085
 176	1.7413e+01	6.9656	20.177604	0.000436	4.358948	1.476852	0.000174
 177	1.7512e+01	7.0089	20.335053	0.000395	3.953464	1.339470	0.000158
 178	1.7611e+01	7.0506	20.544984	0.000527	5.271286	1.785960	0.000211
 179	1.7711e+01	7.0859	20.645912	0.000253	2.534272	0.858635	0.000101
 180	1.7811e+01	7.1276	20.831620	0.000466	4.663061	1.579888	0.000187
 181	1.7910e+01	7.1645	20.952734	0.000304	3.041126	1.030362	0.000122
 182	1.8009e+01	7.2030	21.126331	0.000436	4.358948	1.476852	0.000174
 183	1.8109e+01	7.2479	21.263594	0.000345	3.446610	1.167743	0.000138
 184	1.8209e+01	7.2848	21.437191	0.000436	4.358948	1.476852	0.000174
 185	1.8308e+01	7.3201	21.578491	0.000355	3.547981	1.202088	0.000142
 186	1.8407e+01	7.3731	21.752087	0.000436	4.358948	1.476852	0.000174
 187	1.8507e+01	7.4116	21.893387	0.000355	3.547981	1.202088	0.000142
 188	1.8607e+01	7.4485	22.042761	0.000375	3.750723	1.270779	0.000150
 189	1.8706e+01	7.4982	22.208284	0.000416	4.156206	1.408161	0.000166
 190	1.8805e+01	7.5335	22.357658	0.000375	3.750723	1.270779	0.000150
 191	1.8905e+01	7.5656	22.494920	0.000345	3.446610	1.167743	0.000138
 192	1.9005e+01	7.6073	22.632183	0.000345	3.446610	1.167743	0.000138
 193	1.9104e+01	7.6378	22.813854	0.000456	4.561690	1.545542	0.000183
 194	1.9203e+01	7.6875	22.947080	0.000335	3.345239	1.133398	0.000134
 195	1.9303e+01	7.7356	23.124714	0.000446	4.460319	1.511197	0.000179
 196	1.9402e+01	7.7741	23.249865	0.000314	3.142497	1.064707	0.000126
 197	1.9502e+01	7.8046	23.391164	0.000355	3.547981	1.202088	0.000142
 198	1.9602e+01	7.8559	23.548613	0.000395	3.953464	1.339470	0.000158
 199	1.9701e+01	7.8944	23.746432	0.000497	4.967173	1.682924	0.000199
 200	1.9800e+01	7.9297	23.847361	0.000253	2.534272	0.858635	0.000101
 201	1.9900e+01	7.9666	24.024995	0.000446	4.460319	1.511197	0.000179
 202	2.0000e+01	8.0035	24.150146	0.000314	3.142497	1.064707	0.000126
 203	2.0099e+01	8.0404	24.356040	0.000517	5.169915	1.751615	0.000207
 204	2.0198e+01	8.0837	24.477154	0.000304	3.041126	1.030362	0.000122
 205	2.0298e+01	8.1238	24.614417	0.000345	3.446610	1.167743	0.000138
 206	2.0398e+01	8.1704	24.767828	0.000385	3.852093	1.305125	0.000154
 207	2.0497e+01	8.2089	24.949499	0.000456	4.561690	1.545542	0.000183
 208	2.0596e+01	8.2442	25.074650	0.000314	3.142497	1.064707	0.000126
 209	2.0696e+01	8.2875	25.199801	0.000314	3.142497	1.064707	0.000126
 210	2.0796e+01	8.3276	25.373398	0.000436	4.358948	1.476852	0.000174
 211	2.0895e+01	8.3709	25.534884	0.000405	4.054835	1.373815	0.000162
 212	2.0994e+01	8.4046	25.704443	0.000426	4.257577	1.442506	0.000170
 213	2.1094e+01	8.4415	25.857854	0.000385	3.852093	1.305125	0.000154
 214	2.1194e+01	8.4832	26.023377	0.000416	4.156206	1.408161	0.000166
 215	2.1293e+01	8.5345	26.140454	0.000294	2.939756	0.996016	0.000118
 216	2.1392e+01	8.5586	26.318088	0.000446	4.460319	1.511197	0.000179
 217	2.1492e+01	8.6019	26.419016	0.000253	2.534272	0.858635	0.000101
 218	2.1591e+01	8.6372	26.637022	0.000547	5.474028	1.854651	0.000219
 219	2.1691e+01	8.6853	26.790433	0.000385	3.852093	1.305125	0.000154
 220	2.1791e+01	8.7270	26.923658	0.000335	3.345239	1.133398	0.000134
 221	2.1890e+01	8.7671	27.040735	0.000294	2.939756	0.996016	0.000118
 222	2.1989e+01	8.8137	27.202221	0.000405	4.054835	1.373815	0.000162
 223	2.2089e+01	8.8473	27.371780	0.000426	4.257577	1.442506	0.000170
 224	2.2189e+01	8.8810	27.509043	0.000345	3.446610	1.167743	0.000138
 225	2.2288e+01	8.9179	27.662454	0.000385	3.852093	1.305125	0.000154
 226	2.2387e+01	8.9693	27.819902	0.000395	3.953464	1.339470	0.000158
 227	2.2487e+01	9.0046	27.973314	0.000385	3.852093	1.305125	0.000154
 228	2.2587e+01	9.0479	28.134799	0.000405	4.054835	1.373815	0.000162
 229	2.2686e+01	9.0800	28.340693	0.000517	5.169915	1.751615	0.000207
 230	2.2785e+01	9.1217	28.441621	0.000253	2.534272	0.858635	0.000101
 231	2.2885e+01	9.1586	28.550624	0.000274	2.737014	0.927325	0.000110
 232	2.2985e+01	9.2099	28.708072	0.000395	3.953464	1.339470	0.000158
 233	2.3084e+01	9.2388	28.905892	0.000497	4.967173	1.682924	0.000199
 234	2.3183e+01	9.2821	28.978560	0.000182	1.824676	0.618217	0.000073
 235	2.3283e+01	9.3238	29.180417	0.000507	5.068544	1.717269	0.000203
 236	2.3383e+01	9.3639	29.309605	0.000324	3.243868	1.099052	0.000130
 237	2.3482e+01	9.4072	29.519537	0.000527	5.271286	1.785960	0.000211
 238	2.3581e+01	9.4393	29.612391	0.000233	2.331530	0.789944	0.000093
 239	2.3681e+01	9.4874	29.790025	0.000446	4.460319	1.511197	0.000179
 240	2.3780e+01	9.5195	29.907102	0.000294	2.939756	0.996016	0.000118
 241	2.3880e+01	9.5660	30.068587	0.000405	4.054835	1.373815	0.000162
 242	2.3980e+01	9.5997	30.197775	0.000324	3.243868	1.099052	0.000130
 243	2.4079e+01	9.6511	30.351186	0.000385	3.852093	1.305125	0.000154
 244	2.4178e+01	9.6751	30.549006	0.000497	4.967173	1.682924	0.000199
 245	2.4278e+01	9.7120	30.690306	0.000355	3.547981	1.202088	0.000142
 246	2.4378e+01	9.7602	30.819494	0.000324	3.243868	1.099052	0.000130
 247	2.4477e+01	9.8019	30.940608	0.000304	3.041126	1.030362	0.000122
 248	2.4576e+01	9.8323	31.094019	0.000385	3.852093	1.305125	0.000154
 249	2.4676e+01	9.8724	31.283765	0.000476	4.764431	1.614233	0.000191
 250	2.4776e+01	9.9174	31.396805	0.000284	2.838385	0.961671	0.000114
 251	2.4875e+01	9.9575	31.550216	0.000385	3.852093	1.305125	0.000154
 252	2.4974e+01	10.0024	31.703627	0.000385	3.852093	1.305125	0.000154
 253	2.5074e+01	10.0409	31.828778	0.000314	3.142497	1.064707	0.000126
 254	2.5174e+01	10.0746	31.998338	0.000426	4.257577	1.442506	0.000170
 255	2.5273e+01	10.1115	32.123489	0.000314	3.142497	1.064707	0.000126
 256	2.5372e+01	10.1596	32.232492	0.000274	2.737014	0.927325	0.000110
 257	2.5472e+01	10.1965	32.414163	0.000456	4.561690	1.545542	0.000183
 258	2.5572e+01	10.2350	32.539314	0.000314	3.142497	1.064707	0.000126
 259	2.5671e+01	10.2799	32.700799	0.000405	4.054835	1.373815	0.000162
 260	2.5770e+01	10.3168	32.834025	0.000335	3.345239	1.133398	0.000134
 261	2.5870e+01	10.3569	33.019733	0.000466	4.663061	1.579888	0.000187
 262	2.5970e+01	10.3954	33.124699	0.000264	2.635643	0.892980	0.000105
 263	2.6069e+01	10.4323	33.278110	0.000385	3.852093	1.305125	0.000154
 264	2.6169e+01	10.4821	33.427484	0.000375	3.750723	1.270779	0.000150
 265	2.6268e+01	10.5206	33.597044	0.000426	4.257577	1.442506	0.000170
 266	2.6367e+01	10.5575	33.697972	0.000253	2.534272	0.858635	0.000101
 267	2.6467e+01	10.6008	33.867532	0.000426	4.257577	1.442506	0.000170
 268	2.6567e+01	10.6425	34.024980	0.000395	3.953464	1.339470	0.000158
 269	2.6666e+01	10.6698	34.146094	0.000304	3.041126	1.030362	0.000122
 270	2.6765e+01	10.7115	34.275282	0.000324	3.243868	1.099052	0.000130
 271	2.6865e+01	10.7580	34.452916	0.000446	4.460319	1.511197	0.000179
 272	2.6965e+01	10.7981	34.574030	0.000304	3.041126	1.030362	0.000122
 273	2.7064e+01	10.8398	34.735516	0.000405	4.054835	1.373815	0.000162
 274	2.7163e+01	10.8703	34.880853	0.000365	3.649352	1.236434	0.000146
 275	2.7263e+01	10.9104	35.030227	0.000375	3.750723	1.270779	0.000150
 276	2.7363e+01	10.9521	35.151341	0.000304	3.041126	1.030362	0.000122
 277	2.7462e+01	10.9986	35.316863	0.000416	4.156206	1.408161	0.000166
 278	2.7561e+01	11.0323	35.421829	0.000264	2.635643	0.892980	0.000105
 279	2.7661e+01	11.0676	35.583314	0.000405	4.054835	1.373815	0.000162
 280	2.7761e+01	11.1173	35.724614	0.000355	3.547981	1.202088	0.000142
 281	2.7860e+01	11.1558	35.886100	0.000405	4.054835	1.373815	0.000162
 282	2.7959e+01	11.1959	36.043548	0.000395	3.953464	1.339470	0.000158
 283	2.8059e+01	11.2393	36.192922	0.000375	3.750723	1.270779	0.000150
 284	2.8159e+01	11.2778	36.338259	0.000365	3.649352	1.236434	0.000146
 285	2.8258e+01	11.3082	36.487633	0.000375	3.750723	1.270779	0.000150
 286	2.8358e+01	11.3548	36.600673	0.000284	2.838385	0.961671	0.000114
 287	2.8457e+01	11.3949	36.754084	0.000385	3.852093	1.305125	0.000154
 288	2.8556e+01	11.4270	36.907495	0.000385	3.852093	1.305125	0.000154
 289	2.8656e+01	11.4719	37.077055	0.000426	4.257577	1.442506	0.000170
 290	2.8756e+01	11.5184	37.202206	0.000314	3.142497	1.064707	0.000126
 291	2.8855e+01	11.5553	37.315246	0.000284	2.838385	0.961671	0.000114
 292	2.8954e+01	11.5938	37.504991	0.000476	4.764431	1.614233	0.000191
 293	2.9054e+01	11.6259	37.638216	0.000335	3.345239	1.133398	0.000134
 294	2.9154e+01	11.6676	37.779516	0.000355	3.547981	1.202088	0.000142
 295	2.9253e+01	11.7157	37.908705	0.000324	3.243868	1.099052	0.000130
 296	2.9352e+01	11.7478	38.078264	0.000426	4.257577	1.442506	0.000170
 297	2.9452e+01	11.7943	38.191304	0.000284	2.838385	0.961671	0.000114
 298	2.9552e+01	11.8328	38.340678	0.000375	3.750723	1.270779	0.000150
 299	2.9651e+01	11.8665	38.486015	0.000365	3.649352	1.236434	0.000146
 300	2.9750e+01	11.9082	38.635389	0.000375	3.750723	1.270779	0.000150
 301	2.9850e+01	11.9515	38.764577	0.000324	3.243868	1.099052	0.000130
 302	2.9950e+01	11.9916	38.946248	0.000456	4.561690	1.545542	0.000183
 303	3.0049e+01	12.0269	39.047177	0.000253	2.534272	0.858635	0.000101
 304	3.0148e+01	12.0767	39.192514	0.000365	3.649352	1.236434	0.000146
 305	3.0248e+01	12.1104	39.317665	0.000314	3.142497	1.064707	0.000126
 306	3.0348e+01	12.1505	39.483188	0.000416	4.156206	1.408161	0.000166
 307	3.0447e+01	12.1922	39.640636	0.000395	3.953464	1.339470	0.000158
 308	3.0547e+01	12.2291	39.765787	0.000314	3.142497	1.064707	0.000126
 309	3.0646e+01	12.2724	39.927272	0.000405	4.054835	1.373815	0.000162
 310	3.0745e+01	12.2997	40.056461	0.000324	3.243868	1.099052	0.000130
 311	3.0845e+01	12.3478	40.246206	0.000476	4.764431	1.614233	0.000191
 312	3.0945e+01	12.3895	40.375395	0.000324	3.243868	1.099052	0.000130
 313	3.1044e+01	12.4280	40.492471	0.000294	2.939756	0.996016	0.000118
 314	3.1143e+01	12.4617	40.629734	0.000345	3.446610	1.167743	0.000138
 315	3.1243e+01	12.5066	40.754885	0.000314	3.142497	1.064707	0.000126
 316	3.1343e+01	12.5483	40.924445	0.000426	4.257577	1.442506	0.000170
 317	3.1442e+01	12.5948	41.073819	0.000375	3.750723	1.270779	0.000150
 318	3.1541e+01	12.6349	41.223193	0.000375	3.750723	1.270779	0.000150
 319	3.1641e+01	12.6638	41.360456	0.000345	3.446610	1.167743	0.000138
 320	3.1741e+01	12.7119	41.513867	0.000385	3.852093	1.305125	0.000154
 321	3.1840e+01	12.7424	41.659204	0.000365	3.649352	1.236434	0.000146
 322	3.1939e+01	12.7938	41.780318	0.000304	3.041126	1.030362	0.000122
 323	3.2039e+01	12.8274	41.933729	0.000385	3.852093	1.305125	0.000154
 324	3.2139e+01	12.8692	42.066954	0.000335	3.345239	1.133398	0.000134
 325	3.2238e+01	12.9012	42.236514	0.000426	4.257577	1.442506	0.000170
 326	3.2337e+01	12.9542	42.377814	0.000355	3.547981	1.202088	0.000142
 327	3.2437e+01	12.9798	42.490854	0.000284	2.838385	0.961671	0.000114
 328	3.2536e+01	13.0264	42.632153	0.000355	3.547981	1.202088	0.000142
 329	3.2636e+01	13.0649	42.773453	0.000355	3.547981	1.202088	0.000142
 330	3.2736e+01	13.0970	42.934939	0.000405	4.054835	1.373815	0.000162
 331	3.2835e+01	13.1306	43.108535	0.000436	4.358948	1.476852	0.000174
 332	3.2934e+01	13.1948	43.233687	0.000314	3.142497	1.064707	0.000126
 333	3.3034e+01	13.2221	43.370949	0.000345	3.446610	1.167743	0.000138
 334	3.3133e+01	13.2686	43.488026	0.000294	2.939756	0.996016	0.000118
 335	3.3233e+01	13.3055	43.645474	0.000395	3.953464	1.339470	0.000158
 336	3.3333e+01	13.3408	43.815034	0.000426	4.257577	1.442506	0.000170
 337	3.3432e+01	13.3873	43.952297	0.000345	3.446610	1.167743	0.000138
 338	3.3532e+01	13.4306	44.085522	0.000335	3.345239	1.133398	0.000134
 339	3.3631e+01	13.4675	44.214711	0.000324	3.243868	1.099052	0.000130
 340	3.3730e+01	13.5028	44.416567	0.000507	5.068544	1.717269	0.000203
 341	3.3830e+01	13.5477	44.549793	0.000335	3.345239	1.133398	0.000134
 342	3.3929e+01	13.5798	44.691093	0.000355	3.547981	1.202088	0.000142
 343	3.4029e+01	13.6183	44.832392	0.000355	3.547981	1.202088	0.000142
 344	3.4129e+01	13.6520	44.945432	0.000284	2.838385	0.961671	0.000114
 345	3.4228e+01	13.6969	45.114992	0.000426	4.257577	1.442506	0.000170
 346	3.4328e+01	13.7483	45.252254	0.000345	3.446610	1.167743	0.000138
 347	3.4427e+01	13.7804	45.437963	0.000466	4.663061	1.579888	0.000187
 348	3.4526e+01	13.8108	45.575225	0.000345	3.446610	1.167743	0.000138
 349	3.4626e+01	13.8493	45.700377	0.000314	3.142497	1.064707	0.000126
 350	3.4725e+01	13.9087	45.857825	0.000395	3.953464	1.339470	0.000158
 351	3.4825e+01	13.9424	45.995087	0.000345	3.446610	1.167743	0.000138
 352	3.4925e+01	13.9761	46.168684	0.000436	4.358948	1.476852	0.000174
 353	3.5024e+01	14.0210	46.301910	0.000335	3.345239	1.133398	0.000134
 354	3.5123e+01	14.0579	46.439172	0.000345	3.446610	1.167743	0.000138
 355	3.5223e+01	14.1124	46.592584	0.000385	3.852093	1.305125	0.000154
 356	3.5322e+01	14.1461	46.725809	0.000335	3.345239	1.133398	0.000134
 357	3.5422e+01	14.1798	46.895369	0.000426	4.257577	1.442506	0.000170
 358	3.5522e+01	14.2247	47.036668	0.000355	3.547981	1.202088	0.000142
 359	3.5621e+01	14.2536	47.157783	0.000304	3.041126	1.030362	0.000122
 360	3.5721e+01	14.2953	47.319268	0.000405	4.054835	1.373815	0.000162
 361	3.5820e+01	14.3338	47.452493	0.000335	3.345239	1.133398	0.000134
 362	3.5919e+01	14.3803	47.626090	0.000436	4.358948	1.476852	0.000174
 363	3.6019e+01	14.4221	47.722982	0.000243	2.432901	0.824289	0.000097
 364	3.6118e+01	14.4718	47.856207	0.000335	3.345239	1.133398	0.000134
 365	3.6218e+01	14.4975	47.997507	0.000355	3.547981	1.202088	0.000142
 366	3.6318e+01	14.5408	48.179178	0.000456	4.561690	1.545542	0.000183
 367	3.6417e+01	14.5809	48.304329	0.000314	3.142497	1.064707	0.000126
 368	3.6517e+01	14.6258	48.437555	0.000335	3.345239	1.133398	0.000134
 369	3.6616e+01	14.6499	48.570780	0.000335	3.345239	1.133398	0.000134
 370	3.6715e+01	14.6996	48.756488	0.000466	4.663061	1.579888	0.000187
 371	3.6815e+01	14.7365	48.861454	0.000264	2.635643	0.892980	0.000105
 372	3.6914e+01	14.7766	49.010828	0.000375	3.750723	1.270779	0.000150
 373	3.7014e+01	14.8119	49.160202	0.000375	3.750723	1.270779	0.000150
 374	3.7114e+01	14.8600	49.333799	0.000436	4.358948	1.476852	0.000174
 375	3.7213e+01	14.9065	49.471061	0.000345	3.446610	1.167743	0.000138
 376	3.7313e+01	14.9338	49.596213	0.000314	3.142497	1.064707	0.000126
 377	3.7412e+01	14.9851	49.737512	0.000355	3.547981	1.202088	0.000142
 378	3.7511e+01	15.0140	49.862664	0.000314	3.142497	1.064707	0.000126
 379	3.7611e+01	15.0573	50.036260	0.000436	4.358948	1.476852	0.000174
 380	3.7711e+01	15.0958	50.197746	0.000405	4.054835	1.373815	0.000162
 381	3.7810e+01	15.1295	50.314823	0.000294	2.939756	0.996016	0.000118
 382	3.7910e+01	15.1809	50.419788	0.000264	2.635643	0.892980	0.000105
 383	3.8009e+01	15.2178	50.597422	0.000446	4.460319	1.511197	0.000179
 384	3.8108e+01	15.2482	50.779093	0.000456	4.561690	1.545542	0.000183
 385	3.8208e+01	15.3028	50.892133	0.000284	2.838385	0.961671	0.000114
 386	3.8307e+01	15.3317	51.061693	0.000426	4.257577	1.442506	0.000170
 387	3.8407e+01	15.3718	51.178770	0.000294	2.939756	0.996016	0.000118
 388	3.8507e+01	15.4199	51.307958	0.000324	3.243868	1.099052	0.000130
 389	3.8606e+01	15.4584	51.477518	0.000426	4.257577	1.442506	0.000170
 390	3.8706e+01	15.5033	51.634966	0.000395	3.953464	1.339470	0.000158
 391	3.8805e+01	15.5482	51.776266	0.000355	3.547981	1.202088	0.000142
 392	3.8904e+01	15.5707	51.897380	0.000304	3.041126	1.030362	0.000122
 393	3.9004e+01	15.6188	52.018494	0.000304	3.041126	1.030362	0.000122
 394	3.9103e+01	15.6573	52.192091	0.000436	4.358948	1.476852	0.000174
 395	3.9203e+01	15.6958	52.329353	0.000345	3.446610	1.167743	0.000138
 396	3.9303e+01	15.7343	52.478727	0.000375	3.750723	1.270779	0.000150
 397	3.9402e+01	15.7680	52.632139	0.000385	3.852093	1.305125	0.000154
 398	3.9502e+01	15.8113	52.720956	0.000223	2.230159	0.755598	0.000089
 399	3.9601e+01	15.8466	52.902627	0.000456	4.561690	1.545542	0.000183
 400	3.9700e+01	15.8867	53.076224	0.000436	4.358948	1.476852	0.000174
 401	3.9800e+01	15.9381	53.177152	0.000253	2.534272	0.858635	0.000101
 402	3.9900e+01	15.9782	53.314415	0.000345	3.446610	1.167743	0.000138
 403	3.9999e+01	16.0135	53.455714	0.000355	3.547981	1.202088	0.000142
 404	4.0099e+01	16.0584	53.625274	0.000426	4.257577	1.442506	0.000170
 405	4.0198e+01	16.0921	53.734277	0.000274	2.737014	0.927325	0.000110
 406	4.0297e+01	16.1241	53.915948	0.000456	4.561690	1.545542	0.000183
 407	4.0397e+01	16.1691	54.004765	0.000223	2.230159	0.755598	0.000089
 408	4.0496e+01	16.2092	54.166250	0.000405	4.054835	1.373815	0.000162
 409	4.0596e+01	16.2573	54.307550	0.000355	3.547981	1.202088	0.000142
 410	4.0696e+01	16.2862	54.448850	0.000355	3.547981	1.202088	0.000142
 411	4.0795e+01	16.3407	54.578038	0.000324	3.243868	1.099052	0.000130
 412	4.0895e+01	16.3664	54.747598	0.000426	4.257577	1.442506	0.000170
 413	4.0994e+01	16.4113	54.896972	0.000375	3.750723	1.270779	0.000150
 414	4.1093e+01	16.4546	55.038272	0.000355	3.547981	1.202088	0.000142
 415	4.1193e+01	16.4883	55.151311	0.000284	2.838385	0.961671	0.000114
 416	4.1292e+01	16.5348	55.284537	0.000335	3.345239	1.133398	0.000134
 417	4.1392e+01	16.5733	55.437948	0.000385	3.852093	1.305125	0.000154
 418	4.1492e+01	16.6086	55.550988	0.000284	2.838385	0.961671	0.000114
 419	4.1591e+01	16.6551	55.696325	0.000365	3.649352	1.236434	0.000146
 420	4.1691e+01	16.6936	55.873959	0.000446	4.460319	1.511197	0.000179
 421	4.1790e+01	16.7289	56.003147	0.000324	3.243868	1.099052	0.000130
 422	4.1889e+01	16.7674	56.132335	0.000324	3.243868	1.099052	0.000130
 423	4.1989e+01	16.8156	56.285746	0.000385	3.852093	1.305125	0.000154
 424	4.2089e+01	16.8621	56.406861	0.000304	3.041126	1.030362	0.000122
 425	4.2188e+01	16.8894	56.532012	0.000314	3.142497	1.064707	0.000126
 426	4.2288e+01	16.9247	56.685423	0.000385	3.852093	1.305125	0.000154
 427	4.2387e+01	16.9728	56.822686	0.000345	3.446610	1.167743	0.000138
 428	4.2486e+01	17.0065	56.963985	0.000355	3.547981	1.202088	0.000142
 429	4.2586e+01	17.0482	57.068951	0.000264	2.635643	0.892980	0.000105
 430	4.2685e+01	17.0915	57.226399	0.000395	3.953464	1.339470	0.000158
 431	4.2785e+01	17.1316	57.363662	0.000345	3.446610	1.167743	0.000138
 432	4.2885e+01	17.1765	57.508999	0.000365	3.649352	1.236434	0.000146
 433	4.2984e+01	17.2070	57.605890	0.000243	2.432901	0.824289	0.000097
 434	4.3084e+01	17.2455	57.767375	0.000405	4.054835	1.373815	0.000162
 435	4.3183e+01	17.2904	57.916749	0.000375	3.750723	1.270779	0.000150
 436	4.3282e+01	17.3305	58.066123	0.000375	3.750723	1.270779	0.000150
 437	4.3382e+01	17.3754	58.163015	0.000243	2.432901	0.824289	0.000097
 438	4.3481e+01	17.4091	58.288166	0.000314	3.142497	1.064707	0.000126
 439	4.3581e+01	17.4524	58.445614	0.000395	3.953464	1.339470	0.000158
 440	4.3681e+01	17.4893	58.566728	0.000304	3.041126	1.030362	0.000122
 441	4.3780e+01	17.5246	58.724176	0.000395	3.953464	1.339470	0.000158
 442	4.3880e+01	17.5663	58.877588	0.000385	3.852093	1.305125	0.000154
 443	4.3979e+01	17.6097	58.974479	0.000243	2.432901	0.824289	0.000097
 444	4.4078e+01	17.6514	59.111741	0.000345	3.446610	1.167743	0.000138
 445	4.4178e+01	17.6819	59.240930	0.000324	3.243868	1.099052	0.000130
 446	4.4278e+01	17.7300	59.410490	0.000426	4.257577	1.442506	0.000170
 447	4.4377e+01	17.7701	59.555826	0.000365	3.649352	1.236434	0.000146
 448	4.4477e+01	17.8070	59.701163	0.000365	3.649352	1.236434	0.000146
 449	4.4576e+01	17.8487	59.814203	0.000284	2.838385	0.961671	0.000114
 450	4.4675e+01	17.8888	59.975689	0.000405	4.054835	1.373815	0.000162
 451	4.4775e+01	17.9321	60.072580	0.000243	2.432901	0.824289	0.000097
 452	4.4874e+01	17.9642	60.221954	0.000375	3.750723	1.270779	0.000150
 453	4.4974e+01	18.0123	60.379402	0.000395	3.953464	1.339470	0.000158
 454	4.5074e+01	18.0428	60.508590	0.000324	3.243868	1.099052	0.000130
 455	4.5173e+01	18.0813	60.670076	0.000405	4.054835	1.373815	0.000162
 456	4.5273e+01	18.1230	60.787153	0.000294	2.939756	0.996016	0.000118
 457	4.5372e+01	18.1695	60.956713	0.000426	4.257577	1.442506	0.000170
 458	4.5471e+01	18.2080	61.098012	0.000355	3.547981	1.202088	0.000142
 459	4.5571e+01	18.2481	61.219126	0.000304	3.041126	1.030362	0.000122
 460	4.5670e+01	18.2834	61.340240	0.000304	3.041126	1.030362	0.000122
 461	4.5770e+01	18.3284	61.433095	0.000233	2.331530	0.789944	0.000093
 462	4.5870e+01	18.3701	61.622840	0.000476	4.764431	1.614233	0.000191
 463	4.5969e+01	18.3989	61.788362	0.000416	4.156206	1.408161	0.000166
 464	4.6069e+01	18.4374	61.897365	0.000274	2.737014	0.927325	0.000110
 465	4.6168e+01	18.4872	62.014442	0.000294	2.939756	0.996016	0.000118
 466	4.6267e+01	18.5273	62.171890	0.000395	3.953464	1.339470	0.000158
 467	4.6367e+01	18.5674	62.321264	0.000375	3.750723	1.270779	0.000150
 468	4.6467e+01	18.5963	62.434304	0.000284	2.838385	0.961671	0.000114
 469	4.6566e+01	18.6348	62.551381	0.000294	2.939756	0.996016	0.000118
 470	4.6666e+01	18.6925	62.684607	0.000335	3.345239	1.133398	0.000134
 471	4.6765e+01	18.7182	62.829943	0.000365	3.649352	1.236434	0.000146
 472	4.6864e+01	18.7679	62.971243	0.000355	3.547981	1.202088	0.000142
 473	4.6964e+01	18.8016	63.104469	0.000335	3.345239	1.133398	0.000134
 474	4.7063e+01	18.8465	63.245768	0.000355	3.547981	1.202088	0.000142
 475	4.7163e+01	18.8834	63.395142	0.000375	3.750723	1.270779	0.000150
 476	4.7263e+01	18.9332	63.548554	0.000385	3.852093	1.305125	0.000154
 477	4.7362e+01	18.9620	63.637371	0.000223	2.230159	0.755598	0.000089
 478	4.7462e+01	19.0037	63.794819	0.000395	3.953464	1.339470	0.000158
 479	4.7561e+01	19.0519	63.895747	0.000253	2.534272	0.858635	0.000101
 480	4.7660e+01	19.0743	64.061270	0.000416	4.156206	1.408161	0.000166
 481	4.7760e+01	19.1192	64.206607	0.000365	3.649352	1.236434	0.000146
 482	4.7859e+01	19.1642	64.323684	0.000294	2.939756	0.996016	0.000118
 483	4.7959e+01	19.1962	64.428649	0.000264	2.635643	0.892980	0.000105
 484	4.8059e+01	19.2380	64.586098	0.000395	3.953464	1.339470	0.000158
 485	4.8158e+01	19.2797	64.723360	0.000345	3.446610	1.167743	0.000138
 486	4.8258e+01	19.3278	64.896957	0.000436	4.358948	1.476852	0.000174
 487	4.8357e+01	19.3535	64.969625	0.000182	1.824676	0.618217	0.000073
 488	4.8456e+01	19.4000	65.127074	0.000395	3.953464	1.339470	0.000158
 489	4.8556e+01	19.4385	65.264336	0.000345	3.446610	1.167743	0.000138
 490	4.8656e+01	19.4770	65.405636	0.000355	3.547981	1.202088	0.000142
 491	4.8755e+01	19.5203	65.563084	0.000395	3.953464	1.339470	0.000158
 492	4.8855e+01	19.5604	65.668050	0.000264	2.635643	0.892980	0.000105
 493	4.8954e+01	19.5973	65.801275	0.000335	3.345239	1.133398	0.000134
 494	4.9053e+01	19.6326	65.958724	0.000395	3.953464	1.339470	0.000158
 495	4.9153e+01	19.6743	66.108098	0.000375	3.750723	1.270779	0.000150
 496	4.9252e+01	19.7128	66.229212	0.000304	3.041126	1.030362	0.000122
 497	4.9352e+01	19.7593	66.374549	0.000365	3.649352	1.236434	0.000146
 498	4.9452e+01	19.8026	66.515848	0.000355	3.547981	1.202088	0.000142
 499	4.9551e+01	19.8347	66.649074	0.000335	3.345239	1.133398	0.000134
 500	4.9651e+01	19.8829	66.794411	0.000365	3.649352	1.236434	0.000146
 501	4.9750e+01	19.9182	66.935711	0.000355	3.547981	1.202088	0.000142
 502	4.9849e+01	19.9599	67.064899	0.000324	3.243868	1.099052	0.000130
 503	4.9949e+01	19.9936	67.202161	0.000345	3.446610	1.167743	0.000138
 504	5.0048e+01	19.9551	67.072973	0.000324	3.243868	1.099052	-0.000130
 505	5.0148e+01	19.9278	66.972045	0.000253	2.534272	0.858635	-0.000101
 506	5.0248e+01	19.8780	66.903413	0.000172	1.723305	0.583872	-0.000069
 507	5.0347e+01	19.8460	66.798448	0.000264	2.635643	0.892980	-0.000105
 508	5.0447e+01	19.7930	66.649074	0.000375	3.750723	1.270779	-0.000150
 509	5.0546e+01	19.7529	66.548146	0.000253	2.534272	0.858635	-0.000101
 510	5.0645e+01	19.7160	66.471440	0.000193	1.926047	0.652562	-0.000077
 511	5.0745e+01	19.6839	66.378586	0.000233	2.331530	0.789944	-0.000093
 512	5.0844e+01	19.6390	66.241323	0.000345	3.446610	1.167743	-0.000138
 513	5.0944e+01	19.5973	66.128283	0.000284	2.838385	0.961671	-0.000114
 514	5.1044e+01	19.5556	66.027355	0.000253	2.534272	0.858635	-0.000101
 515	5.1143e+01	19.5171	65.946612	0.000203	2.027418	0.686908	-0.000081
 516	5.1242e+01	19.4802	65.793201	0.000385	3.852093	1.305125	-0.000154
 517	5.1342e+01	19.4417	65.696310	0.000243	2.432901	0.824289	-0.000097
 518	5.1441e+01	19.4064	65.583270	0.000284	2.838385	0.961671	-0.000114
 519	5.1541e+01	19.3679	65.498490	0.000213	2.128789	0.721253	-0.000085
 520	5.1641e+01	19.3134	65.361228	0.000345	3.446610	1.167743	-0.000138
 521	5.1740e+01	19.2781	65.256262	0.000264	2.635643	0.892980	-0.000105
 522	5.1840e+01	19.2412	65.183594	0.000182	1.824676	0.618217	-0.000073
 523	5.1939e+01	19.1962	65.066517	0.000294	2.939756	0.996016	-0.000118
 524	5.2038e+01	19.1545	64.941365	0.000314	3.142497	1.064707	-0.000126
 525	5.2138e+01	19.1080	64.779880	0.000405	4.054835	1.373815	-0.000162
 526	5.2237e+01	19.0840	64.695100	0.000213	2.128789	0.721253	-0.000085
 527	5.2337e+01	19.0342	64.557838	0.000345	3.446610	1.167743	-0.000138
 528	5.2437e+01	18.9989	64.481132	0.000193	1.926047	0.652562	-0.000077
 529	5.2536e+01	18.9492	64.323684	0.000395	3.953464	1.339470	-0.000158
 530	5.2636e+01	18.9203	64.275238	0.000122	1.216451	0.412145	-0.000049
 531	5.2735e+01	18.8850	64.089530	0.000466	4.663061	1.579888	-0.000187
 532	5.2834e+01	18.8465	64.020899	0.000172	1.723305	0.583872	-0.000069
 533	5.2934e+01	18.8048	63.887673	0.000335	3.345239	1.133398	-0.000134
 534	5.3033e+01	18.7663	63.738299	0.000375	3.750723	1.270779	-0.000150
 535	5.3133e+01	18.7198	63.625259	0.000284	2.838385	0.961671	-0.000114
 536	5.3233e+01	18.6909	63.512219	0.000284	2.838385	0.961671	-0.000114
 537	5.3332e+01	18.6380	63.399180	0.000284	2.838385	0.961671	-0.000114
 538	5.3431e+01	18.5963	63.302288	0.000243	2.432901	0.824289	-0.000097
 539	5.3531e+01	18.5594	63.140803	0.000405	4.054835	1.373815	-0.000162
 540	5.3630e+01	18.5241	63.027763	0.000284	2.838385	0.961671	-0.000114
 541	5.3730e+01	18.4792	62.890501	0.000345	3.446610	1.167743	-0.000138
 542	5.3830e+01	18.4407	62.817832	0.000182	1.824676	0.618217	-0.000073
 543	5.3929e+01	18.4086	62.712867	0.000264	2.635643	0.892980	-0.000105
 544	5.4029e+01	18.3749	62.567530	0.000365	3.649352	1.236434	-0.000146
 545	5.4128e+01	18.3252	62.446416	0.000304	3.041126	1.030362	-0.000122
 546	5.4227e+01	18.2931	62.365673	0.000203	2.027418	0.686908	-0.000081
 547	5.4327e+01	18.2498	62.204187	0.000405	4.054835	1.373815	-0.000162
 548	5.4426e+01	18.2016	62.103259	0.000253	2.534272	0.858635	-0.000101
 549	5.4526e+01	18.1647	61.953885	0.000375	3.750723	1.270779	-0.000150
 550	5.4626e+01	18.1262	61.856994	0.000243	2.432901	0.824289	-0.000097
 551	5.4725e+01	18.0861	61.752028	0.000264	2.635643	0.892980	-0.000105
 552	5.4825e+01	18.0428	61.574394	0.000446	4.460319	1.511197	-0.000179
 553	5.4924e+01	18.0027	61.493652	0.000203	2.027418	0.686908	-0.000081
 554	5.5023e+01	17.9642	61.368500	0.000314	3.142497	1.064707	-0.000126
 555	5.5123e+01	17.9369	61.227201	0.000355	3.547981	1.202088	-0.000142
 556	5.5222e+01	17.8904	61.118198	0.000274	2.737014	0.927325	-0.000110
 557	5.5322e+01	17.8423	61.029381	0.000223	2.230159	0.755598	-0.000089
 558	5.5422e+01	17.7990	60.871933	0.000395	3.953464	1.339470	-0.000158
 559	5.5521e+01	17.7749	60.766967	0.000264	2.635643	0.892980	-0.000105
 560	5.5620e+01	17.7268	60.613556	0.000385	3.852093	1.305125	-0.000154
 561	5.5720e+01	17.6851	60.548962	0.000162	1.621934	0.549526	-0.000065
 562	5.5819e+01	17.6482	60.411699	0.000345	3.446610	1.167743	-0.000138
 563	5.5919e+01	17.6097	60.302697	0.000274	2.737014	0.927325	-0.000110
 564	5.6019e+01	17.5615	60.185620	0.000294	2.939756	0.996016	-0.000118
 565	5.6118e+01	17.5278	60.096803	0.000223	2.230159	0.755598	-0.000089
 566	5.6218e+01	17.4877	59.919169	0.000446	4.460319	1.511197	-0.000179
 567	5.6317e+01	17.4476	59.789980	0.000324	3.243868	1.099052	-0.000130
 568	5.6416e+01	17.4107	59.689052	0.000253	2.534272	0.858635	-0.000101
 569	5.6516e+01	17.3642	59.563901	0.000314	3.142497	1.064707	-0.000126
 570	5.6615e+01	17.3273	59.458935	0.000264	2.635643	0.892980	-0.000105
 571	5.6715e+01	17.3017	59.305524	0.000385	3.852093	1.305125	-0.000154
 572	5.6815e+01	17.2471	59.172299	0.000335	3.345239	1.133398	-0.000134
 573	5.6914e+01	17.1974	59.063296	0.000274	2.737014	0.927325	-0.000110
 574	5.7014e+01	17.1749	58.942182	0.000304	3.041126	1.030362	-0.000122
 575	5.7113e+01	17.1316	58.833179	0.000274	2.737014	0.927325	-0.000110
 576	5.7212e+01	17.0803	58.671694	0.000405	4.054835	1.373815	-0.000162
 577	5.7312e+01	17.0482	58.582877	0.000223	2.230159	0.755598	-0.000089
 578	5.7411e+01	17.0065	58.461763	0.000304	3.041126	1.030362	-0.000122
 579	5.7511e+01	16.9744	58.324500	0.000345	3.446610	1.167743	-0.000138
 580	5.7611e+01	16.9327	58.179163	0.000365	3.649352	1.236434	-0.000146
 581	5.7710e+01	16.8813	58.033826	0.000365	3.649352	1.236434	-0.000146
 582	5.7809e+01	16.8493	57.957121	0.000193	1.926047	0.652562	-0.000077
 583	5.7909e+01	16.7963	57.803709	0.000385	3.852093	1.305125	-0.000154
 584	5.8008e+01	16.7723	57.714893	0.000223	2.230159	0.755598	-0.000089
 585	5.8108e+01	16.7321	57.549370	0.000416	4.156206	1.408161	-0.000166
 586	5.8208e+01	16.6904	57.436330	0.000284	2.838385	0.961671	-0.000114
 587	5.8307e+01	16.6551	57.278882	0.000395	3.953464	1.339470	-0.000158
 588	5.8407e+01	16.6166	57.181991	0.000243	2.432901	0.824289	-0.000097
 589	5.8506e+01	16.5765	57.048765	0.000335	3.345239	1.133398	-0.000134
 590	5.8605e+01	16.5252	56.911502	0.000345	3.446610	1.167743	-0.000138
 591	5.8705e+01	16.5011	56.806537	0.000264	2.635643	0.892980	-0.000105
 592	5.8804e+01	16.4578	56.697534	0.000274	2.737014	0.927325	-0.000110
 593	5.8904e+01	16.4145	56.519900	0.000446	4.460319	1.511197	-0.000179
 594	5.9004e+01	16.3712	56.366489	0.000385	3.852093	1.305125	-0.000154
 595	5.9103e+01	16.3199	56.285746	0.000203	2.027418	0.686908	-0.000081
 596	5.9203e+01	16.2926	56.148484	0.000345	3.446610	1.167743	-0.000138
 597	5.9302e+01	16.2493	56.019296	0.000324	3.243868	1.099052	-0.000130
 598	5.9401e+01	16.2108	55.898181	0.000304	3.041126	1.030362	-0.000122
 599	5.9501e+01	16.1755	55.756882	0.000355	3.547981	1.202088	-0.000142
 600	5.9600e+01	16.1322	55.619619	0.000345	3.446610	1.167743	-0.000138
 601	5.9700e+01	16.0905	55.506579	0.000284	2.838385	0.961671	-0.000114
 602	5.9800e+01	16.0552	55.393539	0.000284	2.838385	0.961671	-0.000114
 603	5.9899e+01	16.0070	55.256277	0.000345	3.446610	1.167743	-0.000138
 604	5.9998e+01	15.9717	55.102866	0.000385	3.852093	1.305125	-0.000154
 605	6.0098e+01	15.9364	54.969640	0.000335	3.345239	1.133398	-0.000134
 606	6.0197e+01	15.8915	54.876786	0.000233	2.331530	0.789944	-0.000093
 607	6.0297e+01	15.8578	54.739523	0.000345	3.446610	1.167743	-0.000138
 608	6.0397e+01	15.8049	54.553815	0.000466	4.663061	1.579888	-0.000187
 609	6.0496e+01	15.7776	54.485184	0.000172	1.723305	0.583872	-0.000069
 610	6.0596e+01	15.7407	54.311587	0.000436	4.358948	1.476852	-0.000174
 611	6.0695e+01	15.6974	54.202584	0.000274	2.737014	0.927325	-0.000110
 612	6.0794e+01	15.6573	54.101656	0.000253	2.534272	0.858635	-0.000101
 613	6.0894e+01	15.6028	53.960356	0.000355	3.547981	1.202088	-0.000142
 614	6.0993e+01	15.5723	53.819057	0.000355	3.547981	1.202088	-0.000142
 615	6.1093e+01	15.5386	53.710054	0.000274	2.737014	0.927325	-0.000110
 616	6.1193e+01	15.4969	53.592977	0.000294	2.939756	0.996016	-0.000118
 617	6.1292e+01	15.4664	53.443603	0.000375	3.750723	1.270779	-0.000150
 618	6.1392e+01	15.4183	53.310377	0.000335	3.345239	1.133398	-0.000134
 619	6.1491e+01	15.3669	53.181189	0.000324	3.243868	1.099052	-0.000130
 620	6.1590e+01	15.3365	53.043926	0.000345	3.446610	1.167743	-0.000138
 621	6.1690e+01	15.2899	52.882441	0.000405	4.054835	1.373815	-0.000162
 622	6.1789e+01	15.2579	52.769401	0.000284	2.838385	0.961671	-0.000114
 623	6.1889e+01	15.2178	52.660399	0.000274	2.737014	0.927325	-0.000110
 624	6.1989e+01	15.1728	52.527173	0.000335	3.345239	1.133398	-0.000134
 625	6.2088e+01	15.1407	52.385873	0.000355	3.547981	1.202088	-0.000142
 626	6.2188e+01	15.0990	52.276871	0.000274	2.737014	0.927325	-0.000110
 627	6.2287e+01	15.0557	52.115385	0.000405	4.054835	1.373815	-0.000162
 628	6.2386e+01	15.0220	51.966011	0.000375	3.750723	1.270779	-0.000150
 629	6.2486e+01	14.9739	51.881231	0.000213	2.128789	0.721253	-0.000085
 630	6.2586e+01	14.9338	51.764154	0.000294	2.939756	0.996016	-0.000118
 631	6.2685e+01	14.9001	51.606706	0.000395	3.953464	1.339470	-0.000158
 632	6.2785e+01	14.8664	51.505778	0.000253	2.534272	0.858635	-0.000101
 633	6.2884e+01	14.8167	51.364478	0.000355	3.547981	1.202088	-0.000142
 634	6.2983e+01	14.7782	51.223178	0.000355	3.547981	1.202088	-0.000142
 635	6.3083e+01	14.7381	51.106101	0.000294	2.939756	0.996016	-0.000118
 636	6.3182e+01	14.6980	50.984987	0.000304	3.041126	1.030362	-0.000122
 637	6.3282e+01	14.6675	50.827539	0.000395	3.953464	1.339470	-0.000158
 638	6.3382e+01	14.6178	50.706425	0.000304	3.041126	1.030362	-0.000122
 639	6.3481e+01	14.5825	50.569162	0.000345	3.446610	1.167743	-0.000138
 640	6.3581e+01	14.5408	50.448048	0.000304	3.041126	1.030362	-0.000122
 641	6.3680e+01	14.5055	50.310786	0.000345	3.446610	1.167743	-0.000138
 642	6.3779e+01	14.4573	50.173523	0.000345	3.446610	1.167743	-0.000138
 643	6.3879e+01	14.4172	50.036260	0.000345	3.446610	1.167743	-0.000138
 644	6.3978e+01	14.3787	49.903035	0.000335	3.345239	1.133398	-0.000134
 645	6.4078e+01	14.3515	49.749624	0.000385	3.852093	1.305125	-0.000154
 646	6.4177e+01	14.3017	49.680992	0.000172	1.723305	0.583872	-0.000069
 647	6.4277e+01	14.2552	49.499321	0.000456	4.561690	1.545542	-0.000183
 648	6.4376e+01	14.2167	49.378207	0.000304	3.041126	1.030362	-0.000122
 649	6.4476e+01	14.1830	49.228833	0.000375	3.750723	1.270779	-0.000150
 650	6.4576e+01	14.1365	49.079459	0.000375	3.750723	1.270779	-0.000150
 651	6.4675e+01	14.0996	48.998716	0.000203	2.027418	0.686908	-0.000081
 652	6.4775e+01	14.0563	48.885677	0.000284	2.838385	0.961671	-0.000114
 653	6.4874e+01	14.0226	48.708043	0.000446	4.460319	1.511197	-0.000179
 654	6.4974e+01	13.9873	48.619226	0.000223	2.230159	0.755598	-0.000089
 655	6.5073e+01	13.9456	48.437555	0.000456	4.561690	1.545542	-0.000183
 656	6.5172e+01	13.9055	48.336626	0.000253	2.534272	0.858635	-0.000101
 657	6.5272e+01	13.8606	48.199364	0.000345	3.446610	1.167743	-0.000138
 658	6.5371e+01	13.8253	48.066138	0.000335	3.345239	1.133398	-0.000134
 659	6.5471e+01	13.7868	47.928875	0.000345	3.446610	1.167743	-0.000138
 660	6.5570e+01	13.7451	47.815836	0.000284	2.838385	0.961671	-0.000114
 661	6.5670e+01	13.7066	47.666462	0.000375	3.750723	1.270779	-0.000150
 662	6.5769e+01	13.6681	47.557459	0.000274	2.737014	0.927325	-0.000110
 663	6.5869e+01	13.6280	47.400011	0.000395	3.953464	1.339470	-0.000158
 664	6.5969e+01	13.5862	47.226414	0.000436	4.358948	1.476852	-0.000174
 665	6.6068e+01	13.5429	47.121448	0.000264	2.635643	0.892980	-0.000105
 666	6.6168e+01	13.5012	47.016483	0.000264	2.635643	0.892980	-0.000105
 667	6.6267e+01	13.4756	46.907480	0.000274	2.737014	0.927325	-0.000110
 668	6.6367e+01	13.4322	46.737920	0.000426	4.257577	1.442506	-0.000170
 669	6.6466e+01	13.3857	46.604695	0.000335	3.345239	1.133398	-0.000134
 670	6.6566e+01	13.3376	46.475507	0.000324	3.243868	1.099052	-0.000130
 671	6.6665e+01	13.3119	46.330170	0.000365	3.649352	1.236434	-0.000146
 672	6.6764e+01	13.2622	46.217130	0.000284	2.838385	0.961671	-0.000114
 673	6.6864e+01	13.2301	46.083904	0.000335	3.345239	1.133398	-0.000134
 674	6.6963e+01	13.1900	45.954716	0.000324	3.243868	1.099052	-0.000130
 675	6.7063e+01	13.1499	45.841676	0.000284	2.838385	0.961671	-0.000114
 676	6.7162e+01	13.1034	45.672117	0.000426	4.257577	1.442506	-0.000170
 677	6.7262e+01	13.0649	45.567151	0.000264	2.635643	0.892980	-0.000105
 678	6.7362e+01	13.0200	45.421814	0.000365	3.649352	1.236434	-0.000146
 679	6.7461e+01	12.9943	45.304737	0.000294	2.939756	0.996016	-0.000118
 680	6.7561e+01	12.9381	45.175549	0.000324	3.243868	1.099052	-0.000130
 681	6.7660e+01	12.9044	45.066546	0.000274	2.737014	0.927325	-0.000110
 682	6.7760e+01	12.8676	44.917172	0.000375	3.750723	1.270779	-0.000150
 683	6.7859e+01	12.8290	44.787984	0.000324	3.243868	1.099052	-0.000130
 684	6.7959e+01	12.7889	44.654758	0.000335	3.345239	1.133398	-0.000134
 685	6.8058e+01	12.7537	44.561904	0.000233	2.331530	0.789944	-0.000093
 686	6.8157e+01	12.7055	44.412530	0.000375	3.750723	1.270779	-0.000150
 687	6.8257e+01	12.6718	44.275268	0.000345	3.446610	1.167743	-0.000138
 688	6.8356e+01	12.6317	44.142042	0.000335	3.345239	1.133398	-0.000134
 689	6.8456e+01	12.5868	44.016891	0.000314	3.142497	1.064707	-0.000126
 690	6.8555e+01	12.5499	43.887703	0.000324	3.243868	1.099052	-0.000130
 691	6.8655e+01	12.5098	43.762551	0.000314	3.142497	1.064707	-0.000126
 692	6.8754e+01	12.4729	43.629326	0.000335	3.345239	1.133398	-0.000134
 693	6.8854e+01	12.4328	43.479952	0.000375	3.750723	1.270779	-0.000150
 694	6.8954e+01	12.3831	43.354801	0.000314	3.142497	1.064707	-0.000126
 695	6.9053e+01	12.3414	43.237724	0.000294	2.939756	0.996016	-0.000118
 696	6.9153e+01	12.3061	43.096424	0.000355	3.547981	1.202088	-0.000142
 697	6.9252e+01	12.2692	42.971273	0.000314	3.142497	1.064707	-0.000126
 698	6.9352e+01	12.2291	42.838047	0.000335	3.345239	1.133398	-0.000134
 699	6.9451e+01	12.1825	42.684636	0.000385	3.852093	1.305125	-0.000154
 700	6.9550e+01	12.1537	42.599856	0.000213	2.128789	0.721253	-0.000085
 701	6.9650e+01	12.1039	42.402037	0.000497	4.967173	1.682924	-0.000199
 702	6.9749e+01	12.0735	42.297071	0.000264	2.635643	0.892980	-0.000105
 703	6.9849e+01	12.0366	42.123474	0.000436	4.358948	1.476852	-0.000174
 704	6.9948e+01	11.9884	42.022546	0.000253	2.534272	0.858635	-0.000101
 705	7.0048e+01	11.9580	41.881246	0.000355	3.547981	1.202088	-0.000142
 706	7.0147e+01	11.9162	41.772243	0.000274	2.737014	0.927325	-0.000110
 707	7.0247e+01	11.8633	41.630944	0.000355	3.547981	1.202088	-0.000142
 708	7.0347e+01	11.8264	41.485607	0.000365	3.649352	1.236434	-0.000146
 709	7.0446e+01	11.7879	41.348344	0.000345	3.446610	1.167743	-0.000138
 710	7.0546e+01	11.7558	41.190896	0.000395	3.953464	1.339470	-0.000158
 711	7.0645e+01	11.7141	41.069782	0.000304	3.041126	1.030362	-0.000122
 712	7.0745e+01	11.6740	40.928482	0.000355	3.547981	1.202088	-0.000142
 713	7.0844e+01	11.6259	40.803331	0.000314	3.142497	1.064707	-0.000126
 714	7.0944e+01	11.5922	40.670105	0.000335	3.345239	1.133398	-0.000134
 715	7.1043e+01	11.5601	40.500546	0.000426	4.257577	1.442506	-0.000170
 716	7.1142e+01	11.5248	40.375395	0.000314	3.142497	1.064707	-0.000126
 717	7.1242e+01	11.4671	40.234095	0.000355	3.547981	1.202088	-0.000142
 718	7.1341e+01	11.4366	40.169501	0.000162	1.621934	0.549526	-0.000065
 719	7.1441e+01	11.3852	39.971681	0.000497	4.967173	1.682924	-0.000199
 720	7.1540e+01	11.3499	39.866715	0.000264	2.635643	0.892980	-0.000105
 721	7.1640e+01	11.3243	39.729453	0.000345	3.446610	1.167743	-0.000138
 722	7.1740e+01	11.2745	39.592190	0.000345	3.446610	1.167743	-0.000138
 723	7.1839e+01	11.2296	39.467039	0.000314	3.142497	1.064707	-0.000126
 724	7.1939e+01	11.1927	39.333813	0.000335	3.345239	1.133398	-0.000134
 725	7.2038e+01	11.1590	39.168291	0.000416	4.156206	1.408161	-0.000166
 726	7.2138e+01	11.1254	39.051214	0.000294	2.939756	0.996016	-0.000118
 727	7.2237e+01	11.0660	38.922026	0.000324	3.243868	1.099052	-0.000130
 728	7.2337e+01	11.0307	38.788800	0.000335	3.345239	1.133398	-0.000134
 729	7.2436e+01	10.9890	38.704020	0.000213	2.128789	0.721253	-0.000085
 730	7.2535e+01	10.9537	38.481978	0.000558	5.575398	1.888996	-0.000223
 731	7.2635e+01	10.9104	38.389124	0.000233	2.331530	0.789944	-0.000093
 732	7.2734e+01	10.8735	38.251861	0.000345	3.446610	1.167743	-0.000138
 733	7.2834e+01	10.8430	38.134784	0.000294	2.939756	0.996016	-0.000118
 734	7.2933e+01	10.7917	37.969262	0.000416	4.156206	1.408161	-0.000166
 735	7.3033e+01	10.7596	37.827962	0.000355	3.547981	1.202088	-0.000142
 736	7.3132e+01	10.7147	37.706848	0.000304	3.041126	1.030362	-0.000122
 737	7.3232e+01	10.6714	37.577659	0.000324	3.243868	1.099052	-0.000130
 738	7.3332e+01	10.6361	37.412137	0.000416	4.156206	1.408161	-0.000166
 739	7.3431e+01	10.5944	37.278911	0.000335	3.345239	1.133398	-0.000134
 740	7.3531e+01	10.5542	37.161834	0.000294	2.939756	0.996016	-0.000118
 741	7.3630e+01	10.5254	37.024572	0.000345	3.446610	1.167743	-0.000138
 742	7.3730e+01	10.4756	36.879235	0.000365	3.649352	1.236434	-0.000146
 743	7.3829e+01	10.4339	36.770232	0.000274	2.737014	0.927325	-0.000110
 744	7.3928e+01	10.3986	36.624895	0.000365	3.649352	1.236434	-0.000146
 745	7.4028e+01	10.3553	36.467447	0.000395	3.953464	1.339470	-0.000158
 746	7.4127e+01	10.3168	36.322110	0.000365	3.649352	1.236434	-0.000146
 747	7.4227e+01	10.2799	36.164662	0.000395	3.953464	1.339470	-0.000158
 748	7.4326e+01	10.2286	36.031436	0.000335	3.345239	1.133398	-0.000134
 749	7.4426e+01	10.1981	35.886100	0.000365	3.649352	1.236434	-0.000146
 750	7.4525e+01	10.1532	35.752874	0.000335	3.345239	1.133398	-0.000134
 751	7.4625e+01	10.1227	35.591389	0.000405	4.054835	1.373815	-0.000162
 752	7.4725e+01	10.0762	35.486423	0.000264	2.635643	0.892980	-0.000105
 753	7.4824e+01	10.0329	35.333012	0.000385	3.852093	1.305125	-0.000154
 754	7.4924e+01	9.9976	35.211898	0.000304	3.041126	1.030362	-0.000122
 755	7.5023e+01	9.9527	35.054450	0.000395	3.953464	1.339470	-0.000158
 756	7.5123e+01	9.9158	34.901038	0.000385	3.852093	1.305125	-0.000154
 757	7.5222e+01	9.8757	34.775887	0.000314	3.142497	1.064707	-0.000126
 758	7.5322e+01	9.8356	34.646699	0.000324	3.243868	1.099052	-0.000130
 759	7.5421e+01	9.8035	34.509436	0.000345	3.446610	1.167743	-0.000138
 760	7.5520e+01	9.7650	34.331802	0.000446	4.460319	1.511197	-0.000179
 761	7.5620e+01	9.7249	34.198577	0.000335	3.345239	1.133398	-0.000134
 762	7.5719e+01	9.6815	34.077463	0.000304	3.041126	1.030362	-0.000122
 763	7.5819e+01	9.6366	33.940200	0.000345	3.446610	1.167743	-0.000138
 764	7.5918e+01	9.6045	33.786789	0.000385	3.852093	1.305125	-0.000154
 765	7.6018e+01	9.5644	33.633378	0.000385	3.852093	1.305125	-0.000154
 766	7.6118e+01	9.5211	33.475930	0.000395	3.953464	1.339470	-0.000158
 767	7.6217e+01	9.4778	33.362890	0.000284	2.838385	0.961671	-0.000114
 768	7.6317e+01	9.4457	33.209479	0.000385	3.852093	1.305125	-0.000154
 769	7.6416e+01	9.4104	33.056067	0.000385	3.852093	1.305125	-0.000154
 770	7.6516e+01	9.3687	32.922842	0.000335	3.345239	1.133398	-0.000134
 771	7.6615e+01	9.3222	32.757319	0.000416	4.156206	1.408161	-0.000166
 772	7.6715e+01	9.2885	32.624094	0.000335	3.345239	1.133398	-0.000134
 773	7.6814e+01	9.2500	32.490868	0.000335	3.345239	1.133398	-0.000134
 774	7.6913e+01	9.2083	32.373791	0.000294	2.939756	0.996016	-0.000118
 775	7.7013e+01	9.1554	32.228455	0.000365	3.649352	1.236434	-0.000146
 776	7.7112e+01	9.1169	32.062932	0.000416	4.156206	1.408161	-0.000166
 777	7.7212e+01	9.0816	31.905484	0.000395	3.953464	1.339470	-0.000158
 778	7.7311e+01	9.0318	31.796481	0.000274	2.737014	0.927325	-0.000110
 779	7.7411e+01	9.0062	31.663256	0.000335	3.345239	1.133398	-0.000134
 780	7.7510e+01	8.9564	31.481584	0.000456	4.561690	1.545542	-0.000183
 781	7.7610e+01	8.9292	31.348359	0.000335	3.345239	1.133398	-0.000134
 782	7.7710e+01	8.8842	31.227245	0.000304	3.041126	1.030362	-0.000122
 783	7.7809e+01	8.8441	31.065760	0.000405	4.054835	1.373815	-0.000162
 784	7.7909e+01	8.8104	30.944645	0.000304	3.041126	1.030362	-0.000122
 785	7.8008e+01	8.7559	30.746826	0.000497	4.967173	1.682924	-0.000199
 786	7.8108e+01	8.7254	30.670120	0.000193	1.926047	0.652562	-0.000077
 787	7.8207e+01	8.6821	30.484412	0.000466	4.663061	1.579888	-0.000187
 788	7.8306e+01	8.6436	30.339075	0.000365	3.649352	1.236434	-0.000146
 789	7.8406e+01	8.6019	30.205850	0.000335	3.345239	1.133398	-0.000134
 790	7.8505e+01	8.5714	30.076661	0.000324	3.243868	1.099052	-0.000130
 791	7.8605e+01	8.5249	29.955547	0.000304	3.041126	1.030362	-0.000122
 792	7.8704e+01	8.4816	29.781950	0.000436	4.358948	1.476852	-0.000174
 793	7.8804e+01	8.4415	29.612391	0.000426	4.257577	1.442506	-0.000170
 794	7.8903e+01	8.4078	29.487239	0.000314	3.142497	1.064707	-0.000126
 795	7.9003e+01	8.3693	29.354014	0.000335	3.345239	1.133398	-0.000134
 796	7.9103e+01	8.3292	29.228863	0.000314	3.142497	1.064707	-0.000126
 797	7.9202e+01	8.2810	29.035080	0.000487	4.865802	1.648578	-0.000195
 798	7.9302e+01	8.2409	28.930115	0.000264	2.635643	0.892980	-0.000105
 799	7.9401e+01	8.2073	28.788815	0.000355	3.547981	1.202088	-0.000142
 800	7.9501e+01	8.1575	28.603107	0.000466	4.663061	1.579888	-0.000187
 801	7.9600e+01	8.1206	28.502178	0.000253	2.534272	0.858635	-0.000101
 802	7.9700e+01	8.0853	28.364916	0.000345	3.446610	1.167743	-0.000138
 803	7.9799e+01	8.0532	28.199393	0.000416	4.156206	1.408161	-0.000166
 804	7.9898e+01	8.0083	28.062131	0.000345	3.446610	1.167743	-0.000138
 805	7.9998e+01	7.9682	27.928905	0.000335	3.345239	1.133398	-0.000134
 806	8.0097e+01	7.9217	27.751271	0.000446	4.460319	1.511197	-0.000179
 807	8.0197e+01	7.8880	27.646306	0.000264	2.635643	0.892980	-0.000105
 808	8.0296e+01	7.8415	27.468672	0.000446	4.460319	1.511197	-0.000179
 809	8.0396e+01	7.8126	27.339483	0.000324	3.243868	1.099052	-0.000130
 810	8.0496e+01	7.7709	27.177998	0.000405	4.054835	1.373815	-0.000162
 811	8.0595e+01	7.7276	27.068995	0.000274	2.737014	0.927325	-0.000110
 812	8.0695e+01	7.6843	26.903473	0.000416	4.156206	1.408161	-0.000166
 813	8.0794e+01	7.6490	26.750061	0.000385	3.852093	1.305125	-0.000154
 814	8.0894e+01	7.6057	26.588576	0.000405	4.054835	1.373815	-0.000162
 815	8.0993e+01	7.5720	26.475536	0.000284	2.838385	0.961671	-0.000114
 816	8.1093e+01	7.5255	26.310014	0.000416	4.156206	1.408161	-0.000166
 817	8.1192e+01	7.4854	26.180825	0.000324	3.243868	1.099052	-0.000130
 818	8.1291e+01	7.4420	26.027414	0.000385	3.852093	1.305125	-0.000154
 819	8.1391e+01	7.4035	25.882077	0.000365	3.649352	1.236434	-0.000146
 820	8.1490e+01	7.3650	25.740777	0.000355	3.547981	1.202088	-0.000142
 821	8.1590e+01	7.3233	25.611589	0.000324	3.243868	1.099052	-0.000130
 822	8.1689e+01	7.2880	25.458178	0.000385	3.852093	1.305125	-0.000154
 823	8.1789e+01	7.2527	25.312841	0.000365	3.649352	1.236434	-0.000146
 824	8.1888e+01	7.2046	25.191727	0.000304	3.041126	1.030362	-0.000122
 825	8.1988e+01	7.1741	25.026204	0.000416	4.156206	1.408161	-0.000166
 826	8.2088e+01	7.1292	24.852608	0.000436	4.358948	1.476852	-0.000174
 827	8.2187e+01	7.0923	24.743605	0.000274	2.737014	0.927325	-0.000110
 828	8.2287e+01	7.0410	24.634602	0.000274	2.737014	0.927325	-0.000110
 829	8.2386e+01	7.0105	24.461005	0.000436	4.358948	1.476852	-0.000174
 830	8.2486e+01	6.9688	24.315669	0.000365	3.649352	1.236434	-0.000146
 831	8.2585e+01	6.9303	24.154183	0.000405	4.054835	1.373815	-0.000162
 832	8.2684e+01	6.8950	23.992698	0.000405	4.054835	1.373815	-0.000162
 833	8.2784e+01	6.8549	23.867546	0.000314	3.142497	1.064707	-0.000126
 834	8.2883e+01	6.8052	23.746432	0.000304	3.041126	1.030362	-0.000122
 835	8.2983e+01	6.7683	23.572836	0.000436	4.358948	1.476852	-0.000174
 836	8.3082e+01	6.7233	23.427499	0.000365	3.649352	1.236434	-0.000146
 837	8.3182e+01	6.6929	23.290236	0.000345	3.446610	1.167743	-0.000138
 838	8.3281e+01	6.6544	23.120676	0.000426	4.257577	1.442506	-0.000170
 839	8.3381e+01	6.6110	23.039934	0.000203	2.027418	0.686908	-0.000081
 840	8.3481e+01	6.5806	22.882485	0.000395	3.953464	1.339470	-0.000158
 841	8.3580e+01	6.5244	22.721000	0.000405	4.054835	1.373815	-0.000162
 842	8.3680e+01	6.4923	22.575663	0.000365	3.649352	1.236434	-0.000146
 843	8.3779e+01	6.4490	22.450512	0.000314	3.142497	1.064707	-0.000126
 844	8.3879e+01	6.4169	22.325361	0.000314	3.142497	1.064707	-0.000126
 845	8.3978e+01	6.3784	22.175987	0.000375	3.750723	1.270779	-0.000150
 846	8.4078e+01	6.3399	22.030650	0.000365	3.649352	1.236434	-0.000146
 847	8.4177e+01	6.2950	21.877239	0.000385	3.852093	1.305125	-0.000154
 848	8.4276e+01	6.2485	21.723827	0.000385	3.852093	1.305125	-0.000154
 849	8.4376e+01	6.2132	21.574453	0.000375	3.750723	1.270779	-0.000150
 850	8.4475e+01	6.1715	21.429116	0.000365	3.649352	1.236434	-0.000146
 851	8.4575e+01	6.1298	21.324151	0.000264	2.635643	0.892980	-0.000105
 852	8.4674e+01	6.0961	21.166703	0.000395	3.953464	1.339470	-0.000158
 853	8.4774e+01	6.0560	21.033477	0.000335	3.345239	1.133398	-0.000134
 854	8.4874e+01	6.0095	20.847769	0.000466	4.663061	1.579888	-0.000187
 855	8.4973e+01	5.9710	20.750878	0.000243	2.432901	0.824289	-0.000097
 856	8.5073e+01	5.9308	20.577281	0.000436	4.358948	1.476852	-0.000174
 857	8.5172e+01	5.8956	20.448093	0.000324	3.243868	1.099052	-0.000130
 858	8.5272e+01	5.8506	20.290644	0.000395	3.953464	1.339470	-0.000158
 859	8.5371e+01	5.8137	20.181642	0.000274	2.737014	0.927325	-0.000110
 860	8.5471e+01	5.7865	20.024193	0.000395	3.953464	1.339470	-0.000158
 861	8.5570e+01	5.7415	19.886931	0.000345	3.446610	1.167743	-0.000138
 862	8.5669e+01	5.6998	19.757742	0.000324	3.243868	1.099052	-0.000130
 863	8.5769e+01	5.6613	19.600294	0.000395	3.953464	1.339470	-0.000158
 864	8.5868e+01	5.6164	19.414586	0.000466	4.663061	1.579888	-0.000187
 865	8.5968e+01	5.5827	19.285397	0.000324	3.243868	1.099052	-0.000130
 866	8.6067e+01	5.5330	19.172358	0.000284	2.838385	0.961671	-0.000114
 867	8.6167e+01	5.4993	19.002798	0.000426	4.257577	1.442506	-0.000170
 868	8.6266e+01	5.4560	18.857461	0.000365	3.649352	1.236434	-0.000146
 869	8.6366e+01	5.4159	18.736347	0.000304	3.041126	1.030362	-0.000122
 870	8.6466e+01	5.3710	18.566787	0.000426	4.257577	1.442506	-0.000170
 871	8.6565e+01	5.3469	18.445673	0.000304	3.041126	1.030362	-0.000122
 872	8.6665e+01	5.3004	18.284188	0.000405	4.054835	1.373815	-0.000162
 873	8.6764e+01	5.2603	18.106554	0.000446	4.460319	1.511197	-0.000179
 874	8.6864e+01	5.2073	17.961217	0.000365	3.649352	1.236434	-0.000146
 875	8.6963e+01	5.1785	17.868363	0.000233	2.331530	0.789944	-0.000093
 876	8.7063e+01	5.1351	17.678617	0.000476	4.764431	1.614233	-0.000191
 877	8.7162e+01	5.0902	17.541355	0.000345	3.446610	1.167743	-0.000138
 878	8.7261e+01	5.0581	17.428315	0.000284	2.838385	0.961671	-0.000114
 879	8.7361e+01	5.0132	17.254718	0.000436	4.358948	1.476852	-0.000174
 880	8.7460e+01	4.9763	17.077084	0.000446	4.460319	1.511197	-0.000179
 881	8.7560e+01	4.9394	16.943859	0.000335	3.345239	1.133398	-0.000134
 882	8.7659e+01	4.9025	16.863116	0.000203	2.027418	0.686908	-0.000081
 883	8.7759e+01	4.8496	16.641074	0.000558	5.575398	1.888996	-0.000223
 884	8.7859e+01	4.8175	16.552257	0.000223	2.230159	0.755598	-0.000089
 885	8.7958e+01	4.7886	16.398845	0.000385	3.852093	1.305125	-0.000154
 886	8.8058e+01	4.7421	16.249471	0.000375	3.750723	1.270779	-0.000150
 887	8.8157e+01	4.6956	16.071837	0.000446	4.460319	1.511197	-0.000179
 888	8.8257e+01	4.6731	15.954760	0.000294	2.939756	0.996016	-0.000118
 889	8.8356e+01	4.6154	15.805386	0.000375	3.750723	1.270779	-0.000150
 890	8.8456e+01	4.5801	15.660050	0.000365	3.649352	1.236434	-0.000146
 891	8.8555e+01	4.5368	15.454156	0.000517	5.169915	1.751615	-0.000207
 892	8.8654e+01	4.5079	15.353227	0.000253	2.534272	0.858635	-0.000101
 893	8.8754e+01	4.4662	15.207890	0.000365	3.649352	1.236434	-0.000146
 894	8.8853e+01	4.4293	15.070628	0.000345	3.446610	1.167743	-0.000138
 895	8.8953e+01	4.3812	14.909142	0.000405	4.054835	1.373815	-0.000162
 896	8.9052e+01	4.3491	14.763805	0.000365	3.649352	1.236434	-0.000146
 897	8.9152e+01	4.2977	14.630580	0.000335	3.345239	1.133398	-0.000134
 898	8.9251e+01	4.2721	14.444872	0.000466	4.663061	1.579888	-0.000187
 899	8.9351e+01	4.2223	14.347980	0.000243	2.432901	0.824289	-0.000097
 900	8.9451e+01	4.1774	14.174384	0.000436	4.358948	1.476852	-0.000174
 901	8.9550e+01	4.1421	14.049232	0.000314	3.142497	1.064707	-0.000126
 902	8.9650e+01	4.0988	13.895821	0.000385	3.852093	1.305125	-0.000154
 903	8.9749e+01	4.0699	13.762596	0.000335	3.345239	1.133398	-0.000134
 904	8.9849e+01	4.0266	13.601110	0.000405	4.054835	1.373815	-0.000162
 905	8.9948e+01	3.9801	13.484033	0.000294	2.939756	0.996016	-0.000118
 906	9.0047e+01	3.9400	13.314474	0.000426	4.257577	1.442506	-0.000170
 907	9.0147e+01	3.9143	13.181248	0.000335	3.345239	1.133398	-0.000134
 908	9.0246e+01	3.8646	12.979391	0.000507	5.068544	1.717269	-0.000203
 909	9.0346e+01	3.8197	12.862314	0.000294	2.939756	0.996016	-0.000118
 910	9.0445e+01	3.7892	12.692755	0.000426	4.257577	1.442506	-0.000170
 911	9.0545e+01	3.7411	12.555492	0.000345	3.446610	1.167743	-0.000138
 912	9.0644e+01	3.7074	12.402081	0.000385	3.852093	1.305125	-0.000154
 913	9.0744e+01	3.6641	12.297115	0.000264	2.635643	0.892980	-0.000105
 914	9.0844e+01	3.6288	12.107370	0.000476	4.764431	1.614233	-0.000191
 915	9.0943e+01	3.5871	11.994330	0.000284	2.838385	0.961671	-0.000114
 916	9.1043e+01	3.5405	11.832845	0.000405	4.054835	1.373815	-0.000162
 917	9.1142e+01	3.5052	11.675397	0.000395	3.953464	1.339470	-0.000158
 918	9.1242e+01	3.4684	11.562357	0.000284	2.838385	0.961671	-0.000114
 919	9.1341e+01	3.4250	11.396834	0.000416	4.156206	1.408161	-0.000166
 920	9.1441e+01	3.3801	11.243423	0.000385	3.852093	1.305125	-0.000154
 921	9.1540e+01	3.3464	11.041566	0.000507	5.068544	1.717269	-0.000203
 922	9.1639e+01	3.3031	10.920452	0.000304	3.041126	1.030362	-0.000122
 923	9.1739e+01	3.2678	10.738781	0.000456	4.561690	1.545542	-0.000183
 924	9.1838e+01	3.2229	10.629778	0.000274	2.737014	0.927325	-0.000110
 925	9.1938e+01	3.1828	10.456182	0.000436	4.358948	1.476852	-0.000174
 926	9.2037e+01	3.1443	10.306808	0.000375	3.750723	1.270779	-0.000150
 927	9.2137e+01	3.1090	10.161471	0.000365	3.649352	1.236434	-0.000146
 928	9.2237e+01	3.0593	10.004022	0.000395	3.953464	1.339470	-0.000158
 929	9.2336e+01	3.0224	9.882908	0.000304	3.041126	1.030362	-0.000122
 930	9.2436e+01	2.9919	9.709311	0.000436	4.358948	1.476852	-0.000174
 931	9.2535e+01	2.9422	9.547826	0.000405	4.054835	1.373815	-0.000162
 932	9.2635e+01	2.9085	9.374229	0.000436	4.358948	1.476852	-0.000174
 933	9.2734e+01	2.8700	9.245041	0.000324	3.243868	1.099052	-0.000130
 934	9.2834e+01	2.8186	9.087593	0.000395	3.953464	1.339470	-0.000158
 935	9.2933e+01	2.7914	8.922070	0.000416	4.156206	1.408161	-0.000166
 936	9.3032e+01	2.7561	8.772696	0.000375	3.750723	1.270779	-0.000150
 937	9.3132e+01	2.6999	8.623322	0.000375	3.750723	1.270779	-0.000150
 938	9.3231e+01	2.6727	8.502208	0.000304	3.041126	1.030362	-0.000122
 939	9.3331e+01	2.6374	8.316500	0.000466	4.663061	1.579888	-0.000187
 940	9.3430e+01	2.5940	8.199423	0.000294	2.939756	0.996016	-0.000118
 941	9.3530e+01	2.5475	8.037937	0.000405	4.054835	1.373815	-0.000162
 942	9.3629e+01	2.5106	7.872415	0.000416	4.156206	1.408161	-0.000166
 943	9.3729e+01	2.4721	7.747263	0.000314	3.142497	1.064707	-0.000126
 944	9.3829e+01	2.4240	7.561555	0.000466	4.663061	1.579888	-0.000187
 945	9.3928e+01	2.3775	7.416218	0.000365	3.649352	1.236434	-0.000146
 946	9.4028e+01	2.3470	7.282993	0.000335	3.345239	1.133398	-0.000134
 947	9.4127e+01	2.3069	7.089210	0.000487	4.865802	1.648578	-0.000195
 948	9.4227e+01	2.2732	6.964059	0.000314	3.142497	1.064707	-0.000126
 949	9.4326e+01	2.2283	6.834871	0.000324	3.243868	1.099052	-0.000130
 950	9.4425e+01	2.1914	6.689534	0.000365	3.649352	1.236434	-0.000146
 951	9.4525e+01	2.1513	6.503826	0.000466	4.663061	1.579888	-0.000187
 952	9.4624e+01	2.1031	6.346377	0.000395	3.953464	1.339470	-0.000158
 953	9.4724e+01	2.0727	6.205078	0.000355	3.547981	1.202088	-0.000142
 954	9.4823e+01	2.0342	6.096075	0.000274	2.737014	0.927325	-0.000110
 955	9.4923e+01	1.9892	5.930552	0.000416	4.156206	1.408161	-0.000166
 956	9.5022e+01	1.9475	5.769067	0.000405	4.054835	1.373815	-0.000162
 957	9.5122e+01	1.9074	5.607582	0.000405	4.054835	1.373815	-0.000162
 958	9.5222e+01	1.8705	5.454170	0.000385	3.852093	1.305125	-0.000154
 959	9.5321e+01	1.8288	5.304796	0.000375	3.750723	1.270779	-0.000150
 960	9.5421e+01	1.7871	5.139274	0.000416	4.156206	1.408161	-0.000166
 961	9.5520e+01	1.7486	5.046420	0.000233	2.331530	0.789944	-0.000093
 962	9.5620e+01	1.7181	4.868786	0.000446	4.460319	1.511197	-0.000179
 963	9.5719e+01	1.6732	4.707300	0.000405	4.054835	1.373815	-0.000162
 964	9.5819e+01	1.6315	4.570038	0.000345	3.446610	1.167743	-0.000138
 965	9.5918e+01	1.5898	4.404515	0.000416	4.156206	1.408161	-0.000166
 966	9.6017e+01	1.5529	4.267252	0.000345	3.446610	1.167743	-0.000138
 967	9.6117e+01	1.5128	4.125953	0.000355	3.547981	1.202088	-0.000142
 968	9.6216e+01	1.4695	3.976579	0.000375	3.750723	1.270779	-0.000150
 969	9.6316e+01	1.4230	3.831242	0.000365	3.649352	1.236434	-0.000146
 970	9.6415e+01	1.3925	3.649571	0.000456	4.561690	1.545542	-0.000183
 971	9.6515e+01	1.3508	3.536531	0.000284	2.838385	0.961671	-0.000114
 972	9.6615e+01	1.3123	3.334674	0.000507	5.068544	1.717269	-0.000203
 973	9.6714e+01	1.2706	3.205486	0.000324	3.243868	1.099052	-0.000130
 974	9.6814e+01	1.2337	3.011703	0.000487	4.865802	1.648578	-0.000195
 975	9.6913e+01	1.1984	2.870404	0.000355	3.547981	1.202088	-0.000142
 976	9.7013e+01	1.1470	2.716992	0.000385	3.852093	1.305125	-0.000154
 977	9.7112e+01	1.1085	2.571655	0.000365	3.649352	1.236434	-0.000146
 978	9.7212e+01	1.0716	2.478801	0.000233	2.331530	0.789944	-0.000093
 979	9.7311e+01	1.0315	2.272907	0.000517	5.169915	1.751615	-0.000207
 980	9.7410e+01	0.9914	2.115459	0.000395	3.953464	1.339470	-0.000158
 981	9.7510e+01	0.9433	1.958011	0.000395	3.953464	1.339470	-0.000158
 982	9.7609e+01	0.9160	1.808637	0.000375	3.750723	1.270779	-0.000150
 983	9.7709e+01	0.8759	1.719820	0.000223	2.230159	0.755598	-0.000089
 984	9.7808e+01	0.8326	1.509889	0.000527	5.271286	1.785960	-0.000211
 985	9.7908e+01	0.7973	1.372626	0.000345	3.446610	1.167743	-0.000138
 986	9.8007e+01	0.7524	1.211141	0.000405	4.054835	1.373815	-0.000162
 987	9.8107e+01	0.7075	1.069841	0.000355	3.547981	1.202088	-0.000142
 988	9.8207e+01	0.6882	0.972950	0.000243	2.432901	0.824289	-0.000097
 989	9.8306e+01	0.6321	0.779167	0.000487	4.865802	1.648578	-0.000195
 990	9.8406e+01	0.6096	0.625756	0.000385	3.852093	1.305125	-0.000154
 991	9.8505e+01	0.5567	0.444085	0.000456	4.561690	1.545542	-0.000183
 992	9.8605e+01	0.5246	0.310859	0.000335	3.345239	1.133398	-0.000134
 993	9.8704e+01	0.4781	0.165523	0.000365	3.649352	1.236434	-0.000146
 994	9.8803e+01	0.4380	-0.008074	0.000436	4.358948	1.476852	-0.000174
 995	9.8903e+01	0.4011	-0.117077	0.000274	2.737014	0.927325	-0.000110
 996	9.9002e+01	0.3577	-0.282600	0.000416	4.156206	1.408161	-0.000166
 997	9.9102e+01	0.3112	-0.407751	0.000314	3.142497	1.064707	-0.000126
 998	9.9201e+01	0.2743	-0.557125	0.000375	3.750723	1.270779	-0.000150
 999	9.9301e+01	0.2374	-0.694387	0.000345	3.446610	1.167743	-0.000138
1000	9.9400e+01	0.2005	-0.880096	0.000466	4.663061	1.579888	-0.000187
1001	9.9500e+01	0.1604	-1.005247	0.000314	3.142497	1.064707	-0.000126
1002	9.9600e+01	0.1219	-1.174806	0.000426	4.257577	1.442506	-0.000170
1003	9.9699e+01	0.0866	-1.299958	0.000314	3.142497	1.064707	-0.000126
1004	9.9799e+01	0.0433	-1.465480	0.000416	4.156206	1.408161	-0.000166
1005	9.9898e+01	0.0064	-1.574483	0.000274	2.737014	0.927325	-0.000110
1006	9.9998e+01	-0.0321	-1.723857	0.000375	3.750723	1.270779	-0.000150
1007	1.0010e+02	-0.0690	-1.877268	0.000385	3.852093	1.305125	-0.000154
1008	1.0020e+02	-0.1139	-2.026642	0.000375	3.750723	1.270779	-0.000150
1009	1.0030e+02	-0.1588	-2.176016	0.000375	3.750723	1.270779	-0.000150
1010	1.0040e+02	-0.1973	-2.309242	0.000335	3.345239	1.133398	-0.000134
1011	1.0050e+02	-0.2326	-2.486876	0.000446	4.460319	1.511197	-0.000179
1012	1.0059e+02	-0.2743	-2.579730	0.000233	2.331530	0.789944	-0.000093
1013	1.0069e+02	-0.3128	-2.765438	0.000466	4.663061	1.579888	-0.000187
1014	1.0079e+02	-0.3449	-2.898663	0.000335	3.345239	1.133398	-0.000134
1015	1.0089e+02	-0.3995	-3.044000	0.000365	3.649352	1.236434	-0.000146
1016	1.0099e+02	-0.4347	-3.197412	0.000385	3.852093	1.305125	-0.000154
1017	1.0109e+02	-0.4732	-3.338711	0.000355	3.547981	1.202088	-0.000142
1018	1.0119e+02	-0.5150	-3.480011	0.000355	3.547981	1.202088	-0.000142
1019	1.0129e+02	-0.5519	-3.629385	0.000375	3.750723	1.270779	-0.000150
1020	1.0139e+02	-0.5984	-3.758573	0.000324	3.243868	1.099052	-0.000130
1021	1.0149e+02	-0.6305	-3.924096	0.000416	4.156206	1.408161	-0.000166
1022	1.0159e+02	-0.6722	-4.073470	0.000375	3.750723	1.270779	-0.000150
1023	1.0169e+02	-0.7059	-4.182473	0.000274	2.737014	0.927325	-0.000110
1024	1.0179e+02	-0.7444	-4.339921	0.000395	3.953464	1.339470	-0.000158
1025	1.0189e+02	-0.7909	-4.485258	0.000365	3.649352	1.236434	-0.000146
1026	1.0199e+02	-0.8358	-4.687115	0.000507	5.068544	1.717269	-0.000203
1027	1.0209e+02	-0.8727	-4.763820	0.000193	1.926047	0.652562	-0.000077
1028	1.0219e+02	-0.9032	-4.929343	0.000416	4.156206	1.408161	-0.000166
1029	1.0229e+02	-0.9561	-5.082754	0.000385	3.852093	1.305125	-0.000154
1030	1.0239e+02	-0.9866	-5.252314	0.000426	4.257577	1.442506	-0.000170
1031	1.0248e+02	-1.0251	-5.401688	0.000375	3.750723	1.270779	-0.000150
1032	1.0258e+02	-1.0684	-5.555099	0.000385	3.852093	1.305125	-0.000154
1033	1.0268e+02	-1.1037	-5.696399	0.000355	3.547981	1.202088	-0.000142
1034	1.0278e+02	-1.1518	-5.825587	0.000324	3.243868	1.099052	-0.000130
1035	1.0288e+02	-1.1952	-5.991109	0.000416	4.156206	1.408161	-0.000166
1036	1.0298e+02	-1.2385	-6.112224	0.000304	3.041126	1.030362	-0.000122
1037	1.0308e+02	-1.2706	-6.289857	0.000446	4.460319	1.511197	-0.000179
1038	1.0318e+02	-1.3074	-6.402897	0.000284	2.838385	0.961671	-0.000114
1039	1.0328e+02	-1.3492	-6.572457	0.000426	4.257577	1.442506	-0.000170
1040	1.0338e+02	-1.3925	-6.725868	0.000385	3.852093	1.305125	-0.000154
1041	1.0348e+02	-1.4214	-6.863131	0.000345	3.446610	1.167743	-0.000138
1042	1.0358e+02	-1.4647	-7.016542	0.000385	3.852093	1.305125	-0.000154
1043	1.0368e+02	-1.5144	-7.173990	0.000395	3.953464	1.339470	-0.000158
1044	1.0378e+02	-1.5497	-7.311253	0.000345	3.446610	1.167743	-0.000138
1045	1.0388e+02	-1.5802	-7.444478	0.000335	3.345239	1.133398	-0.000134
1046	1.0398e+02	-1.6347	-7.610001	0.000416	4.156206	1.408161	-0.000166
1047	1.0408e+02	-1.6684	-7.751301	0.000355	3.547981	1.202088	-0.000142
1048	1.0418e+02	-1.7117	-7.945083	0.000487	4.865802	1.648578	-0.000195
1049	1.0428e+02	-1.7470	-8.050049	0.000264	2.635643	0.892980	-0.000105
1050	1.0438e+02	-1.7807	-8.142903	0.000233	2.331530	0.789944	-0.000093
1051	1.0447e+02	-1.8304	-8.352834	0.000527	5.271286	1.785960	-0.000211
1052	1.0457e+02	-1.8657	-8.482022	0.000324	3.243868	1.099052	-0.000130
1053	1.0467e+02	-1.9138	-8.607173	0.000314	3.142497	1.064707	-0.000126
1054	1.0477e+02	-1.9379	-8.800956	0.000487	4.865802	1.648578	-0.000195
1055	1.0487e+02	-1.9844	-8.893810	0.000233	2.331530	0.789944	-0.000093
1056	1.0497e+02	-2.0294	-9.075481	0.000456	4.561690	1.545542	-0.000183
1057	1.0507e+02	-2.0679	-9.184484	0.000274	2.737014	0.927325	-0.000110
1058	1.0517e+02	-2.1048	-9.337895	0.000385	3.852093	1.305125	-0.000154
1059	1.0527e+02	-2.1497	-9.487269	0.000375	3.750723	1.270779	-0.000150
1060	1.0537e+02	-2.1850	-9.648754	0.000405	4.054835	1.373815	-0.000162
1061	1.0547e+02	-2.2283	-9.806203	0.000395	3.953464	1.339470	-0.000158
1062	1.0557e+02	-2.2652	-9.915205	0.000274	2.737014	0.927325	-0.000110
1063	1.0567e+02	-2.2989	-10.113025	0.000497	4.967173	1.682924	-0.000199
1064	1.0577e+02	-2.3534	-10.238176	0.000314	3.142497	1.064707	-0.000126
1065	1.0587e+02	-2.3791	-10.351216	0.000284	2.838385	0.961671	-0.000114
1066	1.0597e+02	-2.4272	-10.532887	0.000456	4.561690	1.545542	-0.000183
1067	1.0607e+02	-2.4577	-10.645927	0.000284	2.838385	0.961671	-0.000114
1068	1.0617e+02	-2.5042	-10.823561	0.000446	4.460319	1.511197	-0.000179
1069	1.0627e+02	-2.5507	-10.976972	0.000385	3.852093	1.305125	-0.000154
1070	1.0637e+02	-2.5876	-11.126346	0.000375	3.750723	1.270779	-0.000150
1071	1.0647e+02	-2.6261	-11.255534	0.000324	3.243868	1.099052	-0.000130
1072	1.0656e+02	-2.6710	-11.384723	0.000324	3.243868	1.099052	-0.000130
1073	1.0666e+02	-2.7015	-11.526023	0.000355	3.547981	1.202088	-0.000142
1074	1.0676e+02	-2.7432	-11.659248	0.000335	3.345239	1.133398	-0.000134
1075	1.0686e+02	-2.7833	-11.820733	0.000405	4.054835	1.373815	-0.000162
1076	1.0696e+02	-2.8218	-11.970107	0.000375	3.750723	1.270779	-0.000150
1077	1.0706e+02	-2.8523	-12.119481	0.000375	3.750723	1.270779	-0.000150
1078	1.0716e+02	-2.8988	-12.268856	0.000375	3.750723	1.270779	-0.000150
1079	1.0726e+02	-2.9374	-12.373821	0.000264	2.635643	0.892980	-0.000105
1080	1.0736e+02	-2.9871	-12.559529	0.000466	4.663061	1.579888	-0.000187
1081	1.0746e+02	-3.0224	-12.729089	0.000426	4.257577	1.442506	-0.000170
1082	1.0756e+02	-3.0529	-12.817906	0.000223	2.230159	0.755598	-0.000089
1083	1.0766e+02	-3.1042	-13.003614	0.000466	4.663061	1.579888	-0.000187
1084	1.0776e+02	-3.1427	-13.148951	0.000365	3.649352	1.236434	-0.000146
1085	1.0786e+02	-3.1892	-13.274102	0.000314	3.142497	1.064707	-0.000126
1086	1.0796e+02	-3.2213	-13.431551	0.000395	3.953464	1.339470	-0.000158
1087	1.0806e+02	-3.2598	-13.564776	0.000335	3.345239	1.133398	-0.000134
1088	1.0816e+02	-3.3031	-13.730299	0.000416	4.156206	1.408161	-0.000166
1089	1.0826e+02	-3.3416	-13.891784	0.000405	4.054835	1.373815	-0.000162
1090	1.0836e+02	-3.3865	-14.065381	0.000436	4.358948	1.476852	-0.000174
1091	1.0845e+02	-3.4138	-14.142086	0.000193	1.926047	0.652562	-0.000077
1092	1.0855e+02	-3.4555	-14.303572	0.000405	4.054835	1.373815	-0.000162
1093	1.0865e+02	-3.4940	-14.461020	0.000395	3.953464	1.339470	-0.000158
1094	1.0875e+02	-3.5357	-14.561949	0.000253	2.534272	0.858635	-0.000101
1095	1.0885e+02	-3.5758	-14.755731	0.000487	4.865802	1.648578	-0.000195
1096	1.0895e+02	-3.6111	-14.905105	0.000375	3.750723	1.270779	-0.000150
1097	1.0905e+02	-3.6657	-15.050442	0.000365	3.649352	1.236434	-0.000146
1098	1.0915e+02	-3.7042	-15.179630	0.000324	3.243868	1.099052	-0.000130
1099	1.0925e+02	-3.7427	-15.349190	0.000426	4.257577	1.442506	-0.000170
1100	1.0935e+02	-3.7732	-15.450118	0.000253	2.534272	0.858635	-0.000101
1101	1.0945e+02	-3.8165	-15.664087	0.000537	5.372657	1.820305	-0.000215
1102	1.0955e+02	-3.8470	-15.765015	0.000253	2.534272	0.858635	-0.000101
1103	1.0965e+02	-3.9031	-15.906315	0.000355	3.547981	1.202088	-0.000142
1104	1.0975e+02	-3.9416	-16.047615	0.000355	3.547981	1.202088	-0.000142
1105	1.0985e+02	-3.9753	-16.225249	0.000446	4.460319	1.511197	-0.000179
1106	1.0995e+02	-4.0218	-16.362511	0.000345	3.446610	1.167743	-0.000138
1107	1.1005e+02	-4.0635	-16.483625	0.000304	3.041126	1.030362	-0.000122
1108	1.1015e+02	-4.0972	-16.637036	0.000385	3.852093	1.305125	-0.000154
1109	1.1025e+02	-4.1405	-16.774299	0.000345	3.446610	1.167743	-0.000138
1110	1.1035e+02	-4.1790	-16.951933	0.000446	4.460319	1.511197	-0.000179
1111	1.1044e+02	-4.2143	-17.113418	0.000405	4.054835	1.373815	-0.000162
1112	1.1054e+02	-4.2608	-17.222421	0.000274	2.737014	0.927325	-0.000110
1113	1.1064e+02	-4.2929	-17.375832	0.000385	3.852093	1.305125	-0.000154
1114	1.1074e+02	-4.3346	-17.545392	0.000426	4.257577	1.442506	-0.000170
1115	1.1084e+02	-4.3780	-17.666506	0.000304	3.041126	1.030362	-0.000122
1116	1.1094e+02	-4.4277	-17.807806	0.000355	3.547981	1.202088	-0.000142
1117	1.1104e+02	-4.4517	-17.949105	0.000355	3.547981	1.202088	-0.000142
1118	1.1114e+02	-4.4967	-18.086368	0.000345	3.446610	1.167743	-0.000138
1119	1.1124e+02	-4.5304	-18.239779	0.000385	3.852093	1.305125	-0.000154
1120	1.1134e+02	-4.5769	-18.360893	0.000304	3.041126	1.030362	-0.000122
1121	1.1144e+02	-4.6170	-18.506230	0.000365	3.649352	1.236434	-0.000146
1122	1.1154e+02	-4.6587	-18.679827	0.000436	4.358948	1.476852	-0.000174
1123	1.1164e+02	-4.7004	-18.804978	0.000314	3.142497	1.064707	-0.000126
1124	1.1174e+02	-4.7357	-18.918018	0.000284	2.838385	0.961671	-0.000114
1125	1.1184e+02	-4.7774	-19.099689	0.000456	4.561690	1.545542	-0.000183
1126	1.1194e+02	-4.8143	-19.253100	0.000385	3.852093	1.305125	-0.000154
1127	1.1204e+02	-4.8544	-19.382289	0.000324	3.243868	1.099052	-0.000130
1128	1.1214e+02	-4.8945	-19.511477	0.000324	3.243868	1.099052	-0.000130
1129	1.1224e+02	-4.9475	-19.640665	0.000324	3.243868	1.099052	-0.000130
1130	1.1234e+02	-4.9731	-19.818299	0.000446	4.460319	1.511197	-0.000179
1131	1.1244e+02	-5.0164	-19.963636	0.000365	3.649352	1.236434	-0.000146
1132	1.1253e+02	-5.0565	-20.108973	0.000365	3.649352	1.236434	-0.000146
1133	1.1263e+02	-5.0934	-20.246236	0.000345	3.446610	1.167743	-0.000138
1134	1.1273e+02	-5.1335	-20.331016	0.000213	2.128789	0.721253	-0.000085
1135	1.1283e+02	-5.1720	-20.512687	0.000456	4.561690	1.545542	-0.000183
1136	1.1293e+02	-5.2122	-20.662061	0.000375	3.750723	1.270779	-0.000150
1137	1.1303e+02	-5.2507	-20.799323	0.000345	3.446610	1.167743	-0.000138
1138	1.1313e+02	-5.2876	-20.985032	0.000466	4.663061	1.579888	-0.000187
1139	1.1323e+02	-5.3244	-21.098071	0.000284	2.838385	0.961671	-0.000114
1140	1.1333e+02	-5.3822	-21.190925	0.000233	2.331530	0.789944	-0.000093
1141	1.1343e+02	-5.4047	-21.368559	0.000446	4.460319	1.511197	-0.000179
1142	1.1353e+02	-5.4496	-21.513896	0.000365	3.649352	1.236434	-0.000146
1143	1.1363e+02	-5.4913	-21.647122	0.000335	3.345239	1.133398	-0.000134
1144	1.1373e+02	-5.5314	-21.784384	0.000345	3.446610	1.167743	-0.000138
1145	1.1383e+02	-5.5683	-21.962018	0.000446	4.460319	1.511197	-0.000179
1146	1.1393e+02	-5.6180	-22.054873	0.000233	2.331530	0.789944	-0.000093
1147	1.1403e+02	-5.6485	-22.228469	0.000436	4.358948	1.476852	-0.000174
1148	1.1413e+02	-5.6870	-22.345546	0.000294	2.939756	0.996016	-0.000118
1149	1.1423e+02	-5.7335	-22.478772	0.000335	3.345239	1.133398	-0.000134
1150	1.1433e+02	-5.7784	-22.632183	0.000385	3.852093	1.305125	-0.000154
1151	1.1442e+02	-5.8073	-22.817891	0.000466	4.663061	1.579888	-0.000187
1152	1.1452e+02	-5.8474	-22.906708	0.000223	2.230159	0.755598	-0.000089
1153	1.1462e+02	-5.8907	-23.084342	0.000446	4.460319	1.511197	-0.000179
1154	1.1472e+02	-5.9341	-23.209493	0.000314	3.142497	1.064707	-0.000126
1155	1.1482e+02	-5.9758	-23.342719	0.000335	3.345239	1.133398	-0.000134
1156	1.1492e+02	-6.0095	-23.443647	0.000253	2.534272	0.858635	-0.000101
1157	1.1502e+02	-6.0496	-23.641467	0.000497	4.967173	1.682924	-0.000199
1158	1.1512e+02	-6.0881	-23.762581	0.000304	3.041126	1.030362	-0.000122
1159	1.1522e+02	-6.1250	-23.883695	0.000304	3.041126	1.030362	-0.000122
1160	1.1532e+02	-6.1667	-24.033069	0.000375	3.750723	1.270779	-0.000150
1161	1.1542e+02	-6.2052	-24.186480	0.000385	3.852093	1.305125	-0.000154
1162	1.1552e+02	-6.2517	-24.299520	0.000284	2.838385	0.961671	-0.000114
1163	1.1562e+02	-6.2966	-24.436783	0.000345	3.446610	1.167743	-0.000138
1164	1.1572e+02	-6.3319	-24.513488	0.000193	1.926047	0.652562	-0.000077
1165	1.1582e+02	-6.3768	-24.674974	0.000405	4.054835	1.373815	-0.000162
1166	1.1592e+02	-6.4089	-24.828385	0.000385	3.852093	1.305125	-0.000154
1167	1.1602e+02	-6.4442	-24.961610	0.000335	3.345239	1.133398	-0.000134
1168	1.1612e+02	-6.4891	-25.102910	0.000355	3.547981	1.202088	-0.000142
1169	1.1622e+02	-6.5276	-25.232098	0.000324	3.243868	1.099052	-0.000130
1170	1.1632e+02	-6.5677	-25.353212	0.000304	3.041126	1.030362	-0.000122
1171	1.1642e+02	-6.6046	-25.522772	0.000426	4.257577	1.442506	-0.000170
1172	1.1651e+02	-6.6431	-25.647923	0.000314	3.142497	1.064707	-0.000126
1173	1.1661e+02	-6.6768	-25.769037	0.000304	3.041126	1.030362	-0.000122
1174	1.1671e+02	-6.7233	-25.890151	0.000304	3.041126	1.030362	-0.000122
1175	1.1681e+02	-6.7731	-26.035488	0.000365	3.649352	1.236434	-0.000146
1176	1.1691e+02	-6.8019	-26.184862	0.000375	3.750723	1.270779	-0.000150
1177	1.1701e+02	-6.8421	-26.297902	0.000284	2.838385	0.961671	-0.000114
1178	1.1711e+02	-6.8838	-26.443239	0.000365	3.649352	1.236434	-0.000146
1179	1.1721e+02	-6.9223	-26.519945	0.000193	1.926047	0.652562	-0.000077
1180	1.1731e+02	-6.9624	-26.713727	0.000487	4.865802	1.648578	-0.000195
1181	1.1741e+02	-7.0105	-26.871175	0.000395	3.953464	1.339470	-0.000158
1182	1.1751e+02	-7.0538	-26.980178	0.000274	2.737014	0.927325	-0.000110
1183	1.1761e+02	-7.0843	-27.113404	0.000335	3.345239	1.133398	-0.000134
1184	1.1771e+02	-7.1212	-27.218369	0.000264	2.635643	0.892980	-0.000105
1185	1.1781e+02	-7.1597	-27.371780	0.000385	3.852093	1.305125	-0.000154
1186	1.1791e+02	-7.1998	-27.521154	0.000375	3.750723	1.270779	-0.000150
1187	1.1801e+02	-7.2367	-27.614008	0.000233	2.331530	0.789944	-0.000093
1188	1.1811e+02	-7.2848	-27.791642	0.000446	4.460319	1.511197	-0.000179
1189	1.1821e+02	-7.3233	-27.884497	0.000233	2.331530	0.789944	-0.000093
1190	1.1831e+02	-7.3570	-28.001573	0.000294	2.939756	0.996016	-0.000118
1191	1.1841e+02	-7.4116	-28.130762	0.000324	3.243868	1.099052	-0.000130
1192	1.1850e+02	-7.4340	-28.280136	0.000375	3.750723	1.270779	-0.000150
1193	1.1860e+02	-7.4870	-28.409324	0.000324	3.243868	1.099052	-0.000130
1194	1.1870e+02	-7.5255	-28.538513	0.000324	3.243868	1.099052	-0.000130
1195	1.1880e+02	-7.5656	-28.671738	0.000335	3.345239	1.133398	-0.000134
1196	1.1890e+02	-7.6009	-28.829186	0.000395	3.953464	1.339470	-0.000158
1197	1.1900e+02	-7.6361	-28.954338	0.000314	3.142497	1.064707	-0.000126
1198	1.1910e+02	-7.6827	-29.083526	0.000324	3.243868	1.099052	-0.000130
1199	1.1920e+02	-7.7148	-29.208677	0.000314	3.142497	1.064707	-0.000126
1200	1.1930e+02	-7.7677	-29.313643	0.000264	2.635643	0.892980	-0.000105
1201	1.1940e+02	-7.7934	-29.483202	0.000426	4.257577	1.442506	-0.000170
1202	1.1950e+02	-7.8367	-29.596242	0.000284	2.838385	0.961671	-0.000114
1203	1.1960e+02	-7.8848	-29.693133	0.000243	2.432901	0.824289	-0.000097
1204	1.1970e+02	-7.9249	-29.878842	0.000466	4.663061	1.579888	-0.000187
1205	1.1980e+02	-7.9618	-30.012067	0.000335	3.345239	1.133398	-0.000134
1206	1.1990e+02	-8.0003	-30.165478	0.000385	3.852093	1.305125	-0.000154
1207	1.2000e+02	-8.0404	-30.290629	0.000314	3.142497	1.064707	-0.000126
1208	1.2010e+02	-8.0837	-30.419818	0.000324	3.243868	1.099052	-0.000130
1209	1.2020e+02	-8.1190	-30.536895	0.000294	2.939756	0.996016	-0.000118
1210	1.2030e+02	-8.1655	-30.666083	0.000324	3.243868	1.099052	-0.000130
1211	1.2039e+02	-8.1992	-30.795271	0.000324	3.243868	1.099052	-0.000130
1212	1.2049e+02	-8.2442	-30.920423	0.000314	3.142497	1.064707	-0.000126
1213	1.2059e+02	-8.2778	-31.049611	0.000324	3.243868	1.099052	-0.000130
1214	1.2069e+02	-8.3244	-31.170725	0.000304	3.041126	1.030362	-0.000122
1215	1.2079e+02	-8.3548	-31.356433	0.000466	4.663061	1.579888	-0.000187
1216	1.2089e+02	-8.4078	-31.473510	0.000294	2.939756	0.996016	-0.000118
1217	1.2099e+02	-8.4431	-31.562327	0.000223	2.230159	0.755598	-0.000089
1218	1.2109e+02	-8.4720	-31.707664	0.000365	3.649352	1.236434	-0.000146
1219	1.2119e+02	-8.5233	-31.844927	0.000345	3.446610	1.167743	-0.000138
1220	1.2129e+02	-8.5554	-32.002375	0.000395	3.953464	1.339470	-0.000158
1221	1.2139e+02	-8.5875	-32.095229	0.000233	2.331530	0.789944	-0.000093
1222	1.2149e+02	-8.6388	-32.232492	0.000345	3.446610	1.167743	-0.000138
1223	1.2159e+02	-8.6837	-32.357643	0.000314	3.142497	1.064707	-0.000126
1224	1.2169e+02	-8.7190	-32.454534	0.000243	2.432901	0.824289	-0.000097
1225	1.2179e+02	-8.7543	-32.583723	0.000324	3.243868	1.099052	-0.000130
1226	1.2189e+02	-8.7944	-32.733097	0.000375	3.750723	1.270779	-0.000150
1227	1.2199e+02	-8.8345	-32.878433	0.000365	3.649352	1.236434	-0.000146
1228	1.2209e+02	-8.8794	-33.023770	0.000365	3.649352	1.236434	-0.000146
1229	1.2219e+02	-8.9243	-33.128736	0.000264	2.635643	0.892980	-0.000105
1230	1.2229e+02	-8.9532	-33.286184	0.000395	3.953464	1.339470	-0.000158
1231	1.2239e+02	-8.9981	-33.383075	0.000243	2.432901	0.824289	-0.000097
1232	1.2248e+02	-9.0318	-33.479967	0.000243	2.432901	0.824289	-0.000097
1233	1.2258e+02	-9.0735	-33.633378	0.000385	3.852093	1.305125	-0.000154
1234	1.2268e+02	-9.1169	-33.754492	0.000304	3.041126	1.030362	-0.000122
1235	1.2278e+02	-9.1570	-33.899829	0.000365	3.649352	1.236434	-0.000146
1236	1.2288e+02	-9.1858	-34.033054	0.000335	3.345239	1.133398	-0.000134
1237	1.2298e+02	-9.2292	-34.150131	0.000294	2.939756	0.996016	-0.000118
1238	1.2308e+02	-9.2837	-34.291431	0.000355	3.547981	1.202088	-0.000142
1239	1.2318e+02	-9.3158	-34.436768	0.000365	3.649352	1.236434	-0.000146
1240	1.2328e+02	-9.3575	-34.549808	0.000284	2.838385	0.961671	-0.000114
1241	1.2338e+02	-9.3848	-34.638625	0.000223	2.230159	0.755598	-0.000089
1242	1.2348e+02	-9.4329	-34.816259	0.000446	4.460319	1.511197	-0.000179
1243	1.2358e+02	-9.4794	-34.925261	0.000274	2.737014	0.927325	-0.000110
1244	1.2368e+02	-9.5131	-35.082710	0.000395	3.953464	1.339470	-0.000158
1245	1.2378e+02	-9.5468	-35.191712	0.000274	2.737014	0.927325	-0.000110
1246	1.2388e+02	-9.5917	-35.328975	0.000345	3.446610	1.167743	-0.000138
1247	1.2398e+02	-9.6286	-35.405680	0.000193	1.926047	0.652562	-0.000077
1248	1.2408e+02	-9.6735	-35.583314	0.000446	4.460319	1.511197	-0.000179
1249	1.2418e+02	-9.7217	-35.724614	0.000355	3.547981	1.202088	-0.000142
1250	1.2428e+02	-9.7441	-35.845728	0.000304	3.041126	1.030362	-0.000122
1251	1.2438e+02	-9.7938	-35.982991	0.000345	3.446610	1.167743	-0.000138
1252	1.2447e+02	-9.8307	-36.063734	0.000203	2.027418	0.686908	-0.000081
1253	1.2457e+02	-9.8676	-36.229256	0.000416	4.156206	1.408161	-0.000166
1254	1.2467e+02	-9.9158	-36.350370	0.000304	3.041126	1.030362	-0.000122
1255	1.2477e+02	-9.9543	-36.467447	0.000294	2.939756	0.996016	-0.000118
1256	1.2487e+02	-9.9912	-36.580487	0.000284	2.838385	0.961671	-0.000114
1257	1.2497e+02	-10.0297	-36.725824	0.000365	3.649352	1.236434	-0.000146
1258	1.2507e+02	-10.0682	-36.846938	0.000304	3.041126	1.030362	-0.000122
1259	1.2517e+02	-10.1179	-36.976126	0.000324	3.243868	1.099052	-0.000130
1260	1.2527e+02	-10.1596	-37.117426	0.000355	3.547981	1.202088	-0.000142
1261	1.2537e+02	-10.1949	-37.230466	0.000284	2.838385	0.961671	-0.000114
1262	1.2547e+02	-10.2382	-37.387914	0.000395	3.953464	1.339470	-0.000158
1263	1.2557e+02	-10.2687	-37.513065	0.000314	3.142497	1.064707	-0.000126
1264	1.2567e+02	-10.3200	-37.609957	0.000243	2.432901	0.824289	-0.000097
1265	1.2577e+02	-10.3585	-37.755293	0.000365	3.649352	1.236434	-0.000146
1266	1.2587e+02	-10.3922	-37.868333	0.000284	2.838385	0.961671	-0.000114
1267	1.2597e+02	-10.4323	-38.029819	0.000405	4.054835	1.373815	-0.000162
1268	1.2607e+02	-10.4740	-38.150933	0.000304	3.041126	1.030362	-0.000122
1269	1.2617e+02	-10.5093	-38.300307	0.000375	3.750723	1.270779	-0.000150
1270	1.2627e+02	-10.5526	-38.405272	0.000264	2.635643	0.892980	-0.000105
1271	1.2636e+02	-10.5799	-38.554646	0.000375	3.750723	1.270779	-0.000150
1272	1.2646e+02	-10.6296	-38.687872	0.000335	3.345239	1.133398	-0.000134
1273	1.2656e+02	-10.6698	-38.821097	0.000335	3.345239	1.133398	-0.000134
1274	1.2666e+02	-10.7018	-38.954323	0.000335	3.345239	1.133398	-0.000134
1275	1.2676e+02	-10.7516	-39.111771	0.000395	3.953464	1.339470	-0.000158
1276	1.2686e+02	-10.7853	-39.188477	0.000193	1.926047	0.652562	-0.000077
1277	1.2696e+02	-10.8286	-39.313628	0.000314	3.142497	1.064707	-0.000126
1278	1.2706e+02	-10.8655	-39.495299	0.000456	4.561690	1.545542	-0.000183
1279	1.2716e+02	-10.9072	-39.567967	0.000182	1.824676	0.618217	-0.000073
1280	1.2726e+02	-10.9521	-39.713304	0.000365	3.649352	1.236434	-0.000146
1281	1.2736e+02	-10.9954	-39.818270	0.000264	2.635643	0.892980	-0.000105
1282	1.2746e+02	-11.0243	-39.923235	0.000264	2.635643	0.892980	-0.000105
1283	1.2756e+02	-11.0628	-40.108944	0.000466	4.663061	1.579888	-0.000187
1284	1.2766e+02	-11.1029	-40.181612	0.000182	1.824676	0.618217	-0.000073
1285	1.2776e+02	-11.1526	-40.367320	0.000466	4.663061	1.579888	-0.000187
1286	1.2786e+02	-11.1847	-40.500546	0.000335	3.345239	1.133398	-0.000134
1287	1.2796e+02	-11.2152	-40.625697	0.000314	3.142497	1.064707	-0.000126
1288	1.2806e+02	-11.2649	-40.742774	0.000294	2.939756	0.996016	-0.000118
1289	1.2816e+02	-11.3114	-40.823517	0.000203	2.027418	0.686908	-0.000081
1290	1.2826e+02	-11.3467	-41.017299	0.000487	4.865802	1.648578	-0.000195
1291	1.2835e+02	-11.3820	-41.122265	0.000264	2.635643	0.892980	-0.000105
1292	1.2845e+02	-11.4221	-41.207044	0.000213	2.128789	0.721253	-0.000085
1293	1.2855e+02	-11.4638	-41.344307	0.000345	3.446610	1.167743	-0.000138
1294	1.2865e+02	-11.5023	-41.437161	0.000233	2.331530	0.789944	-0.000093
1295	1.2875e+02	-11.5425	-41.590572	0.000385	3.852093	1.305125	-0.000154
1296	1.2885e+02	-11.5858	-41.752058	0.000405	4.054835	1.373815	-0.000162
1297	1.2895e+02	-11.6275	-41.857023	0.000264	2.635643	0.892980	-0.000105
1298	1.2905e+02	-11.6724	-41.974100	0.000294	2.939756	0.996016	-0.000118
1299	1.2915e+02	-11.7061	-42.099251	0.000314	3.142497	1.064707	-0.000126
1300	1.2925e+02	-11.7414	-42.248625	0.000375	3.750723	1.270779	-0.000150
1301	1.2935e+02	-11.7895	-42.329368	0.000203	2.027418	0.686908	-0.000081
1302	1.2945e+02	-11.8104	-42.482779	0.000385	3.852093	1.305125	-0.000154
1303	1.2955e+02	-11.8505	-42.591782	0.000274	2.737014	0.927325	-0.000110
1304	1.2965e+02	-11.9050	-42.716933	0.000314	3.142497	1.064707	-0.000126
1305	1.2975e+02	-11.9435	-42.829973	0.000284	2.838385	0.961671	-0.000114
1306	1.2985e+02	-11.9724	-42.943013	0.000284	2.838385	0.961671	-0.000114
1307	1.2995e+02	-12.0285	-43.116610	0.000436	4.358948	1.476852	-0.000174
1308	1.3005e+02	-12.0638	-43.201390	0.000213	2.128789	0.721253	-0.000085
1309	1.3015e+02	-12.1007	-43.358838	0.000395	3.953464	1.339470	-0.000158
1310	1.3025e+02	-12.1473	-43.492063	0.000335	3.345239	1.133398	-0.000134
1311	1.3034e+02	-12.1906	-43.629326	0.000345	3.446610	1.167743	-0.000138
1312	1.3044e+02	-12.2275	-43.685846	0.000142	1.419192	0.480835	-0.000057
1313	1.3054e+02	-12.2595	-43.847331	0.000405	4.054835	1.373815	-0.000162
1314	1.3064e+02	-12.3077	-43.972482	0.000314	3.142497	1.064707	-0.000126
1315	1.3074e+02	-12.3462	-44.093597	0.000304	3.041126	1.030362	-0.000122
1316	1.3084e+02	-12.3751	-44.218748	0.000314	3.142497	1.064707	-0.000126
1317	1.3094e+02	-12.4184	-44.343899	0.000314	3.142497	1.064707	-0.000126
1318	1.3104e+02	-12.4585	-44.469050	0.000314	3.142497	1.064707	-0.000126
1319	1.3114e+02	-12.5018	-44.553830	0.000213	2.128789	0.721253	-0.000085
1320	1.3124e+02	-12.5451	-44.739538	0.000466	4.663061	1.579888	-0.000187
1321	1.3134e+02	-12.5884	-44.872764	0.000335	3.345239	1.133398	-0.000134
1322	1.3144e+02	-12.6205	-44.965618	0.000233	2.331530	0.789944	-0.000093
1323	1.3154e+02	-12.6622	-45.078658	0.000284	2.838385	0.961671	-0.000114
1324	1.3164e+02	-12.7039	-45.175549	0.000243	2.432901	0.824289	-0.000097
1325	1.3174e+02	-12.7424	-45.332997	0.000395	3.953464	1.339470	-0.000158
1326	1.3184e+02	-12.7857	-45.462186	0.000324	3.243868	1.099052	-0.000130
1327	1.3194e+02	-12.8194	-45.583300	0.000304	3.041126	1.030362	-0.000122
1328	1.3204e+02	-12.8531	-45.692302	0.000274	2.737014	0.927325	-0.000110
1329	1.3214e+02	-12.9028	-45.841676	0.000375	3.750723	1.270779	-0.000150
1330	1.3224e+02	-12.9413	-45.946642	0.000264	2.635643	0.892980	-0.000105
1331	1.3234e+02	-12.9782	-46.051607	0.000264	2.635643	0.892980	-0.000105
1332	1.3243e+02	-13.0151	-46.176759	0.000314	3.142497	1.064707	-0.000126
1333	1.3253e+02	-13.0552	-46.265576	0.000223	2.230159	0.755598	-0.000089
1334	1.3263e+02	-13.1034	-46.378615	0.000284	2.838385	0.961671	-0.000114
1335	1.3273e+02	-13.1339	-46.568361	0.000476	4.764431	1.614233	-0.000191
1336	1.3283e+02	-13.1740	-46.665252	0.000243	2.432901	0.824289	-0.000097
1337	1.3293e+02	-13.2125	-46.766180	0.000253	2.534272	0.858635	-0.000101
1338	1.3303e+02	-13.2718	-46.907480	0.000355	3.547981	1.202088	-0.000142
1339	1.3313e+02	-13.2975	-47.016483	0.000274	2.737014	0.927325	-0.000110
1340	1.3323e+02	-13.3312	-47.173931	0.000395	3.953464	1.339470	-0.000158
1341	1.3333e+02	-13.3825	-47.262748	0.000223	2.230159	0.755598	-0.000089
1342	1.3343e+02	-13.4194	-47.379825	0.000294	2.939756	0.996016	-0.000118
1343	1.3353e+02	-13.4595	-47.537273	0.000395	3.953464	1.339470	-0.000158
1344	1.3363e+02	-13.4900	-47.593793	0.000142	1.419192	0.480835	-0.000057
1345	1.3373e+02	-13.5429	-47.714907	0.000304	3.041126	1.030362	-0.000122
1346	1.3383e+02	-13.5862	-47.856207	0.000355	3.547981	1.202088	-0.000142
1347	1.3393e+02	-13.6199	-47.969247	0.000284	2.838385	0.961671	-0.000114
1348	1.3403e+02	-13.6568	-48.082287	0.000284	2.838385	0.961671	-0.000114
1349	1.3413e+02	-13.6985	-48.191289	0.000274	2.737014	0.927325	-0.000110
1350	1.3423e+02	-13.7274	-48.336626	0.000365	3.649352	1.236434	-0.000146
1351	1.3432e+02	-13.7852	-48.449666	0.000284	2.838385	0.961671	-0.000114
1352	1.3442e+02	-13.8205	-48.546557	0.000243	2.432901	0.824289	-0.000097
1353	1.3452e+02	-13.8542	-48.691894	0.000365	3.649352	1.236434	-0.000146
1354	1.3462e+02	-13.9007	-48.776674	0.000213	2.128789	0.721253	-0.000085
1355	1.3472e+02	-13.9328	-48.881640	0.000264	2.635643	0.892980	-0.000105
1356	1.3482e+02	-13.9729	-48.990642	0.000274	2.737014	0.927325	-0.000110
1357	1.3492e+02	-14.0066	-49.115793	0.000314	3.142497	1.064707	-0.000126
1358	1.3502e+02	-14.0579	-49.257093	0.000355	3.547981	1.202088	-0.000142
1359	1.3512e+02	-14.0964	-49.390319	0.000335	3.345239	1.133398	-0.000134
1360	1.3522e+02	-14.1365	-49.491247	0.000253	2.534272	0.858635	-0.000101
1361	1.3532e+02	-14.1766	-49.580064	0.000223	2.230159	0.755598	-0.000089
1362	1.3542e+02	-14.2119	-49.689067	0.000274	2.737014	0.927325	-0.000110
1363	1.3552e+02	-14.2584	-49.826329	0.000345	3.446610	1.167743	-0.000138
1364	1.3562e+02	-14.2953	-49.963592	0.000345	3.446610	1.167743	-0.000138
1365	1.3572e+02	-14.3402	-50.064520	0.000253	2.534272	0.858635	-0.000101
1366	1.3582e+02	-14.3691	-50.209857	0.000365	3.649352	1.236434	-0.000146
1367	1.3592e+02	-14.4172	-50.298674	0.000223	2.230159	0.755598	-0.000089
1368	1.3602e+02	-14.4573	-50.415751	0.000294	2.939756	0.996016	-0.000118
1369	1.3612e+02	-14.4926	-50.553014	0.000345	3.446610	1.167743	-0.000138
1370	1.3622e+02	-14.5295	-50.641831	0.000223	2.230159	0.755598	-0.000089
1371	1.3631e+02	-14.5825	-50.791205	0.000375	3.750723	1.270779	-0.000150
1372	1.3641e+02	-14.6162	-50.916356	0.000314	3.142497	1.064707	-0.000126
1373	1.3651e+02	-14.6579	-50.989024	0.000182	1.824676	0.618217	-0.000073
1374	1.3661e+02	-14.6932	-51.102064	0.000284	2.838385	0.961671	-0.000114
1375	1.3671e+02	-14.7285	-51.259512	0.000395	3.953464	1.339470	-0.000158
1376	1.3681e+02	-14.7766	-51.372552	0.000284	2.838385	0.961671	-0.000114
1377	1.3691e+02	-14.8087	-51.457332	0.000213	2.128789	0.721253	-0.000085
1378	1.3701e+02	-14.8552	-51.614780	0.000395	3.953464	1.339470	-0.000158
1379	1.3711e+02	-14.8969	-51.707635	0.000233	2.331530	0.789944	-0.000093
1380	1.3721e+02	-14.9306	-51.816637	0.000274	2.737014	0.927325	-0.000110
1381	1.3731e+02	-14.9771	-51.925640	0.000274	2.737014	0.927325	-0.000110
1382	1.3741e+02	-15.0012	-52.042717	0.000294	2.939756	0.996016	-0.000118
1383	1.3751e+02	-15.0557	-52.163831	0.000304	3.041126	1.030362	-0.000122
1384	1.3761e+02	-15.0974	-52.288982	0.000314	3.142497	1.064707	-0.000126
1385	1.3771e+02	-15.1247	-52.442393	0.000385	3.852093	1.305125	-0.000154
1386	1.3781e+02	-15.1696	-52.555433	0.000284	2.838385	0.961671	-0.000114
1387	1.3791e+02	-15.2161	-52.648287	0.000233	2.331530	0.789944	-0.000093
1388	1.3801e+02	-15.2514	-52.749216	0.000253	2.534272	0.858635	-0.000101
1389	1.3811e+02	-15.2915	-52.894552	0.000365	3.649352	1.236434	-0.000146
1390	1.3821e+02	-15.3204	-53.003555	0.000274	2.737014	0.927325	-0.000110
1391	1.3831e+02	-15.3702	-53.120632	0.000294	2.939756	0.996016	-0.000118
1392	1.3840e+02	-15.4247	-53.237709	0.000294	2.939756	0.996016	-0.000118
1393	1.3850e+02	-15.4439	-53.302303	0.000162	1.621934	0.549526	-0.000065
1394	1.3860e+02	-15.4905	-53.443603	0.000355	3.547981	1.202088	-0.000142
1395	1.3870e+02	-15.5226	-53.584903	0.000355	3.547981	1.202088	-0.000142
1396	1.3880e+02	-15.5691	-53.710054	0.000314	3.142497	1.064707	-0.000126
1397	1.3890e+02	-15.6108	-53.794834	0.000213	2.128789	0.721253	-0.000085
1398	1.3900e+02	-15.6445	-53.899799	0.000264	2.635643	0.892980	-0.000105
1399	1.3910e+02	-15.6958	-54.045136	0.000365	3.649352	1.236434	-0.000146
1400	1.3920e+02	-15.7295	-54.150102	0.000264	2.635643	0.892980	-0.000105
1401	1.3930e+02	-15.7664	-54.287364	0.000345	3.446610	1.167743	-0.000138
1402	1.3940e+02	-15.8033	-54.360033	0.000182	1.824676	0.618217	-0.000073
1403	1.3950e+02	-15.8466	-54.505370	0.000365	3.649352	1.236434	-0.000146
1404	1.3960e+02	-15.8915	-54.553815	0.000122	1.216451	0.412145	-0.000049
1405	1.3970e+02	-15.9348	-54.739523	0.000466	4.663061	1.579888	-0.000187
1406	1.3980e+02	-15.9685	-54.844489	0.000264	2.635643	0.892980	-0.000105
1407	1.3990e+02	-16.0118	-54.941380	0.000243	2.432901	0.824289	-0.000097
1408	1.4000e+02	-16.0568	-55.082680	0.000355	3.547981	1.202088	-0.000142
1409	1.4010e+02	-16.0872	-55.207831	0.000314	3.142497	1.064707	-0.000126
1410	1.4020e+02	-16.1257	-55.288574	0.000203	2.027418	0.686908	-0.000081
1411	1.4029e+02	-16.1659	-55.405651	0.000294	2.939756	0.996016	-0.000118
1412	1.4039e+02	-16.2028	-55.518691	0.000284	2.838385	0.961671	-0.000114
1413	1.4049e+02	-16.2477	-55.651916	0.000335	3.345239	1.133398	-0.000134
1414	1.4059e+02	-16.2878	-55.768993	0.000294	2.939756	0.996016	-0.000118
1415	1.4069e+02	-16.3327	-55.910293	0.000355	3.547981	1.202088	-0.000142
1416	1.4079e+02	-16.3760	-55.995073	0.000213	2.128789	0.721253	-0.000085
1417	1.4089e+02	-16.4145	-56.124261	0.000324	3.243868	1.099052	-0.000130
1418	1.4099e+02	-16.4546	-56.265561	0.000355	3.547981	1.202088	-0.000142
1419	1.4109e+02	-16.4883	-56.346303	0.000203	2.027418	0.686908	-0.000081
1420	1.4119e+02	-16.5268	-56.487603	0.000355	3.547981	1.202088	-0.000142
1421	1.4129e+02	-16.5669	-56.560272	0.000182	1.824676	0.618217	-0.000073
1422	1.4139e+02	-16.6038	-56.729831	0.000426	4.257577	1.442506	-0.000170
1423	1.4149e+02	-16.6407	-56.814611	0.000213	2.128789	0.721253	-0.000085
1424	1.4159e+02	-16.6824	-56.939762	0.000314	3.142497	1.064707	-0.000126
1425	1.4169e+02	-16.7241	-57.085099	0.000365	3.649352	1.236434	-0.000146
1426	1.4179e+02	-16.7658	-57.173916	0.000223	2.230159	0.755598	-0.000089
1427	1.4189e+02	-16.7963	-57.311179	0.000345	3.446610	1.167743	-0.000138
1428	1.4199e+02	-16.8460	-57.391922	0.000203	2.027418	0.686908	-0.000081
1429	1.4209e+02	-16.8781	-57.573593	0.000456	4.561690	1.545542	-0.000183
1430	1.4219e+02	-16.9359	-57.743152	0.000426	4.257577	1.442506	-0.000170
1431	1.4228e+02	-16.9664	-57.767375	0.000061	0.608225	0.206072	-0.000024
1432	1.4238e+02	-17.0129	-57.892526	0.000314	3.142497	1.064707	-0.000126
1433	1.4248e+02	-17.0402	-58.009603	0.000294	2.939756	0.996016	-0.000118
1434	1.4258e+02	-17.0819	-58.154940	0.000365	3.649352	1.236434	-0.000146
1435	1.4268e+02	-17.1220	-58.235683	0.000203	2.027418	0.686908	-0.000081
1436	1.4278e+02	-17.1605	-58.413317	0.000446	4.460319	1.511197	-0.000179
1437	1.4288e+02	-17.2086	-58.506171	0.000233	2.331530	0.789944	-0.000093
1438	1.4298e+02	-17.2455	-58.615174	0.000274	2.737014	0.927325	-0.000110
1439	1.4308e+02	-17.2792	-58.736288	0.000304	3.041126	1.030362	-0.000122
1440	1.4318e+02	-17.3161	-58.889699	0.000385	3.852093	1.305125	-0.000154
1441	1.4328e+02	-17.3562	-58.994665	0.000264	2.635643	0.892980	-0.000105
1442	1.4338e+02	-17.3979	-59.099630	0.000264	2.635643	0.892980	-0.000105
1443	1.4348e+02	-17.4428	-59.220744	0.000304	3.041126	1.030362	-0.000122
1444	1.4358e+02	-17.4765	-59.353970	0.000335	3.345239	1.133398	-0.000134
1445	1.4368e+02	-17.5150	-59.511418	0.000395	3.953464	1.339470	-0.000158
1446	1.4378e+02	-17.5647	-59.588123	0.000193	1.926047	0.652562	-0.000077
1447	1.4388e+02	-17.6000	-59.689052	0.000253	2.534272	0.858635	-0.000101
1448	1.4398e+02	-17.6385	-59.834389	0.000365	3.649352	1.236434	-0.000146
1449	1.4408e+02	-17.6770	-59.963577	0.000324	3.243868	1.099052	-0.000130
1450	1.4418e+02	-17.7204	-60.044320	0.000203	2.027418	0.686908	-0.000081
1451	1.4428e+02	-17.7637	-60.177545	0.000335	3.345239	1.133398	-0.000134
1452	1.4437e+02	-17.7813	-60.302697	0.000314	3.142497	1.064707	-0.000126
1453	1.4447e+02	-17.8407	-60.407662	0.000264	2.635643	0.892980	-0.000105
1454	1.4457e+02	-17.8695	-60.552999	0.000365	3.649352	1.236434	-0.000146
1455	1.4467e+02	-17.9064	-60.657964	0.000264	2.635643	0.892980	-0.000105
1456	1.4477e+02	-17.9626	-60.807338	0.000375	3.750723	1.270779	-0.000150
1457	1.4487e+02	-18.0091	-60.904230	0.000243	2.432901	0.824289	-0.000097
1458	1.4497e+02	-18.0348	-61.001121	0.000243	2.432901	0.824289	-0.000097
1459	1.4507e+02	-18.0829	-61.126272	0.000314	3.142497	1.064707	-0.000126
1460	1.4517e+02	-18.1166	-61.263535	0.000345	3.446610	1.167743	-0.000138
1461	1.4527e+02	-18.1519	-61.372537	0.000274	2.737014	0.927325	-0.000110
1462	1.4537e+02	-18.2032	-61.501726	0.000324	3.243868	1.099052	-0.000130
1463	1.4547e+02	-18.2353	-61.626877	0.000314	3.142497	1.064707	-0.000126
1464	1.4557e+02	-18.2786	-61.743954	0.000294	2.939756	0.996016	-0.000118
1465	1.4567e+02	-18.3123	-61.873142	0.000324	3.243868	1.099052	-0.000130
1466	1.4577e+02	-18.3620	-61.970034	0.000243	2.432901	0.824289	-0.000097
1467	1.4587e+02	-18.3973	-62.123445	0.000385	3.852093	1.305125	-0.000154
1468	1.4597e+02	-18.4407	-62.236485	0.000284	2.838385	0.961671	-0.000114
1469	1.4607e+02	-18.4727	-62.345487	0.000274	2.737014	0.927325	-0.000110
1470	1.4617e+02	-18.5112	-62.434304	0.000223	2.230159	0.755598	-0.000089
1471	1.4626e+02	-18.5642	-62.599827	0.000416	4.156206	1.408161	-0.000166
1472	1.4636e+02	-18.5979	-62.688644	0.000223	2.230159	0.755598	-0.000089
1473	1.4646e+02	-18.6428	-62.838018	0.000375	3.750723	1.270779	-0.000150
1474	1.4656e+02	-18.6797	-63.003540	0.000416	4.156206	1.408161	-0.000166
1475	1.4666e+02	-18.7166	-63.128692	0.000314	3.142497	1.064707	-0.000126
1476	1.4676e+02	-18.7471	-63.221546	0.000233	2.331530	0.789944	-0.000093
1477	1.4686e+02	-18.7952	-63.314400	0.000233	2.331530	0.789944	-0.000093
1478	1.4696e+02	-18.8369	-63.496071	0.000456	4.561690	1.545542	-0.000183
1479	1.4706e+02	-18.8770	-63.613148	0.000294	2.939756	0.996016	-0.000118
1480	1.4716e+02	-18.9251	-63.718113	0.000264	2.635643	0.892980	-0.000105
1481	1.4726e+02	-18.9556	-63.847302	0.000324	3.243868	1.099052	-0.000130
1482	1.4736e+02	-18.9973	-63.980527	0.000335	3.345239	1.133398	-0.000134
1483	1.4746e+02	-19.0294	-64.121827	0.000355	3.547981	1.202088	-0.000142
1484	1.4756e+02	-19.0791	-64.242941	0.000304	3.041126	1.030362	-0.000122
1485	1.4766e+02	-19.1144	-64.351944	0.000274	2.737014	0.927325	-0.000110
1486	1.4776e+02	-19.1577	-64.452872	0.000253	2.534272	0.858635	-0.000101
1487	1.4786e+02	-19.1930	-64.598209	0.000365	3.649352	1.236434	-0.000146
1488	1.4796e+02	-19.2396	-64.747583	0.000375	3.750723	1.270779	-0.000150
1489	1.4806e+02	-19.2813	-64.864660	0.000294	2.939756	0.996016	-0.000118
1490	1.4816e+02	-19.3230	-65.009997	0.000365	3.649352	1.236434	-0.000146
1491	1.4825e+02	-19.3535	-65.155334	0.000365	3.649352	1.236434	-0.000146
1492	1.4835e+02	-19.3888	-65.260299	0.000264	2.635643	0.892980	-0.000105
1493	1.4845e+02	-19.4401	-65.429859	0.000426	4.257577	1.442506	-0.000170
1494	1.4855e+02	-19.4738	-65.502527	0.000182	1.824676	0.618217	-0.000073
1495	1.4865e+02	-19.5139	-65.611530	0.000274	2.737014	0.927325	-0.000110
1496	1.4875e+02	-19.5428	-65.756867	0.000365	3.649352	1.236434	-0.000146
1497	1.4885e+02	-19.5861	-65.906241	0.000375	3.750723	1.270779	-0.000150
1498	1.4895e+02	-19.6342	-66.047541	0.000355	3.547981	1.202088	-0.000142
1499	1.4905e+02	-19.6775	-66.128283	0.000203	2.027418	0.686908	-0.000081
1500	1.4915e+02	-19.7112	-66.281695	0.000385	3.852093	1.305125	-0.000154
1501	1.4925e+02	-19.7513	-66.390697	0.000274	2.737014	0.927325	-0.000110
1502	1.4935e+02	-19.7946	-66.548146	0.000395	3.953464	1.339470	-0.000158
1503	1.4945e+02	-19.8315	-66.689445	0.000355	3.547981	1.202088	-0.000142
1504	1.4955e+02	-19.8797	-66.794411	0.000264	2.635643	0.892980	-0.000105
1505	1.4965e+02	-19.9166	-66.939748	0.000365	3.649352	1.236434	-0.000146
1506	1.4975e+02	-19.9502	-67.048750	0.000274	2.737014	0.927325	-0.000110
1507	1.4985e+02	-19.9903	-67.202161	0.000385	3.852093	1.305125	-0.000154
1508	1.4995e+02	-19.9518	-67.173902	0.000071	0.709596	0.240418	0.000028
1509	1.5005e+02	-19.9166	-67.072973	0.000253	2.534272	0.858635	0.000101
1510	1.5015e+02	-19.8732	-67.048750	0.000061	0.608225	0.206072	0.000024
1511	1.5025e+02	-19.8315	-66.992230	0.000142	1.419192	0.480835	0.000057
1512	1.5034e+02	-19.7946	-66.919562	0.000182	1.824676	0.618217	0.000073
1513	1.5044e+02	-19.7497	-66.863042	0.000142	1.419192	0.480835	0.000057
1514	1.5054e+02	-19.7192	-66.782299	0.000203	2.027418	0.686908	0.000081
1515	1.5064e+02	-19.6775	-66.713668	0.000172	1.723305	0.583872	0.000069
1516	1.5074e+02	-19.6278	-66.641000	0.000182	1.824676	0.618217	0.000073
1517	1.5084e+02	-19.5829	-66.568331	0.000182	1.824676	0.618217	0.000073
1518	1.5094e+02	-19.5604	-66.515848	0.000132	1.317821	0.446490	0.000053
1519	1.5104e+02	-19.5171	-66.471440	0.000112	1.115080	0.377799	0.000045
1520	1.5114e+02	-19.4754	-66.374549	0.000243	2.432901	0.824289	0.000097
1521	1.5124e+02	-19.4273	-66.241323	0.000335	3.345239	1.133398	0.000134
1522	1.5134e+02	-19.3855	-66.188840	0.000132	1.317821	0.446490	0.000053
1523	1.5144e+02	-19.3535	-66.132321	0.000142	1.419192	0.480835	0.000057
1524	1.5154e+02	-19.3118	-66.067726	0.000162	1.621934	0.549526	0.000065
1525	1.5164e+02	-19.2716	-65.946612	0.000304	3.041126	1.030362	0.000122
1526	1.5174e+02	-19.2251	-65.882018	0.000162	1.621934	0.549526	0.000065
1527	1.5184e+02	-19.1995	-65.825498	0.000142	1.419192	0.480835	0.000057
1528	1.5194e+02	-19.1690	-65.744755	0.000203	2.027418	0.686908	0.000081
1529	1.5204e+02	-19.1176	-65.664013	0.000203	2.027418	0.686908	0.000081
1530	1.5214e+02	-19.0743	-65.546936	0.000294	2.939756	0.996016	0.000118
1531	1.5224e+02	-19.0342	-65.502527	0.000112	1.115080	0.377799	0.000045
1532	1.5233e+02	-19.0021	-65.401599	0.000253	2.534272	0.858635	0.000101
1533	1.5243e+02	-18.9588	-65.369302	0.000081	0.810967	0.274763	0.000032
1534	1.5253e+02	-18.9219	-65.260299	0.000274	2.737014	0.927325	0.000110
1535	1.5263e+02	-18.8866	-65.167445	0.000233	2.331530	0.789944	0.000093
1536	1.5273e+02	-18.8305	-65.090740	0.000193	1.926047	0.652562	0.000077
1537	1.5283e+02	-18.7968	-64.965588	0.000314	3.142497	1.064707	0.000126
1538	1.5293e+02	-18.7519	-64.892920	0.000182	1.824676	0.618217	0.000073
1539	1.5303e+02	-18.7262	-64.840437	0.000132	1.317821	0.446490	0.000053
1540	1.5313e+02	-18.6861	-64.731434	0.000274	2.737014	0.927325	0.000110
1541	1.5323e+02	-18.6460	-64.666840	0.000162	1.621934	0.549526	0.000065
1542	1.5333e+02	-18.5963	-64.541689	0.000314	3.142497	1.064707	0.000126
1543	1.5343e+02	-18.5578	-64.489206	0.000132	1.317821	0.446490	0.000053
1544	1.5353e+02	-18.5225	-64.420575	0.000172	1.723305	0.583872	0.000069
1545	1.5363e+02	-18.4776	-64.295424	0.000314	3.142497	1.064707	0.000126
1546	1.5373e+02	-18.4310	-64.259090	0.000091	0.912338	0.309108	0.000037
1547	1.5383e+02	-18.3989	-64.133938	0.000314	3.142497	1.064707	0.000126
1548	1.5393e+02	-18.3524	-64.037047	0.000243	2.432901	0.824289	0.000097
1549	1.5403e+02	-18.3155	-63.988601	0.000122	1.216451	0.412145	0.000049
1550	1.5413e+02	-18.2802	-63.867487	0.000304	3.041126	1.030362	0.000122
1551	1.5422e+02	-18.2385	-63.774633	0.000233	2.331530	0.789944	0.000093
1552	1.5432e+02	-18.2032	-63.681779	0.000233	2.331530	0.789944	0.000093
1553	1.5442e+02	-18.1599	-63.601036	0.000203	2.027418	0.686908	0.000081
1554	1.5452e+02	-18.1294	-63.500108	0.000253	2.534272	0.858635	0.000101
1555	1.5462e+02	-18.0893	-63.423402	0.000193	1.926047	0.652562	0.000077
1556	1.5472e+02	-18.0444	-63.334585	0.000223	2.230159	0.755598	0.000089
1557	1.5482e+02	-18.0075	-63.241731	0.000233	2.331530	0.789944	0.000093
1558	1.5492e+02	-17.9642	-63.148877	0.000233	2.331530	0.789944	0.000093
1559	1.5502e+02	-17.9209	-63.035837	0.000284	2.838385	0.961671	0.000114
1560	1.5512e+02	-17.8856	-62.955095	0.000203	2.027418	0.686908	0.000081
1561	1.5522e+02	-17.8487	-62.886463	0.000172	1.723305	0.583872	0.000069
1562	1.5532e+02	-17.8022	-62.789572	0.000243	2.432901	0.824289	0.000097
1563	1.5542e+02	-17.7637	-62.692681	0.000243	2.432901	0.824289	0.000097
1564	1.5552e+02	-17.7139	-62.579641	0.000284	2.838385	0.961671	0.000114
1565	1.5562e+02	-17.6851	-62.531195	0.000122	1.216451	0.412145	0.000049
1566	1.5572e+02	-17.6385	-62.414119	0.000294	2.939756	0.996016	0.000118
1567	1.5582e+02	-17.6097	-62.329339	0.000213	2.128789	0.721253	0.000085
1568	1.5592e+02	-17.5680	-62.179965	0.000375	3.750723	1.270779	0.000150
1569	1.5602e+02	-17.5278	-62.095185	0.000213	2.128789	0.721253	0.000085
1570	1.5612e+02	-17.4813	-62.030591	0.000162	1.621934	0.549526	0.000065
1571	1.5622e+02	-17.4412	-61.974071	0.000142	1.419192	0.480835	0.000057
1572	1.5631e+02	-17.3963	-61.873142	0.000253	2.534272	0.858635	0.000101
1573	1.5641e+02	-17.3610	-61.735880	0.000345	3.446610	1.167743	0.000138
1574	1.5651e+02	-17.3161	-61.655137	0.000203	2.027418	0.686908	0.000081
1575	1.5661e+02	-17.2840	-61.550171	0.000264	2.635643	0.892980	0.000105
1576	1.5671e+02	-17.2471	-61.469429	0.000203	2.027418	0.686908	0.000081
1577	1.5681e+02	-17.2006	-61.388686	0.000203	2.027418	0.686908	0.000081
1578	1.5691e+02	-17.1653	-61.340240	0.000122	1.216451	0.412145	0.000049
1579	1.5701e+02	-17.1172	-61.186829	0.000385	3.852093	1.305125	0.000154
1580	1.5711e+02	-17.0931	-61.106087	0.000203	2.027418	0.686908	0.000081
1581	1.5721e+02	-17.0450	-61.005158	0.000253	2.534272	0.858635	0.000101
1582	1.5731e+02	-17.0001	-60.888081	0.000294	2.939756	0.996016	0.000118
1583	1.5741e+02	-16.9680	-60.807338	0.000203	2.027418	0.686908	0.000081
1584	1.5751e+02	-16.9214	-60.678150	0.000324	3.243868	1.099052	0.000130
1585	1.5761e+02	-16.8813	-60.637779	0.000101	1.013709	0.343454	0.000041
1586	1.5771e+02	-16.8460	-60.540888	0.000243	2.432901	0.824289	0.000097
1587	1.5781e+02	-16.8043	-60.431885	0.000274	2.737014	0.927325	0.000110
1588	1.5791e+02	-16.7706	-60.363254	0.000172	1.723305	0.583872	0.000069
1589	1.5801e+02	-16.7225	-60.270399	0.000233	2.331530	0.789944	0.000093
1590	1.5811e+02	-16.6856	-60.145248	0.000314	3.142497	1.064707	0.000126
1591	1.5821e+02	-16.6471	-60.036246	0.000274	2.737014	0.927325	0.000110
1592	1.5830e+02	-16.6086	-59.947429	0.000223	2.230159	0.755598	0.000089
1593	1.5840e+02	-16.5621	-59.850537	0.000243	2.432901	0.824289	0.000097
1594	1.5850e+02	-16.5236	-59.794017	0.000142	1.419192	0.480835	0.000057
1595	1.5860e+02	-16.4931	-59.689052	0.000264	2.635643	0.892980	0.000105
1596	1.5870e+02	-16.4482	-59.620421	0.000172	1.723305	0.583872	0.000069
1597	1.5880e+02	-16.4129	-59.527566	0.000233	2.331530	0.789944	0.000093
1598	1.5890e+02	-16.3712	-59.390304	0.000345	3.446610	1.167743	0.000138
1599	1.5900e+02	-16.3263	-59.257078	0.000335	3.345239	1.133398	0.000134
1600	1.5910e+02	-16.2862	-59.204596	0.000132	1.317821	0.446490	0.000053
1601	1.5920e+02	-16.2477	-59.123853	0.000203	2.027418	0.686908	0.000081
1602	1.5930e+02	-16.2092	-59.018887	0.000264	2.635643	0.892980	0.000105
1603	1.5940e+02	-16.1626	-58.954293	0.000162	1.621934	0.549526	0.000065
1604	1.5950e+02	-16.1209	-58.817031	0.000345	3.446610	1.167743	0.000138
1605	1.5960e+02	-16.0921	-58.748399	0.000172	1.723305	0.583872	0.000069
1606	1.5970e+02	-16.0520	-58.639397	0.000274	2.737014	0.927325	0.000110
1607	1.5980e+02	-16.0118	-58.574802	0.000162	1.621934	0.549526	0.000065
1608	1.5990e+02	-15.9621	-58.449651	0.000314	3.142497	1.064707	0.000126
1609	1.6000e+02	-15.9284	-58.344686	0.000264	2.635643	0.892980	0.000105
1610	1.6010e+02	-15.8931	-58.300277	0.000112	1.115080	0.377799	0.000045
1611	1.6019e+02	-15.8530	-58.154940	0.000365	3.649352	1.236434	0.000146
1612	1.6029e+02	-15.8113	-58.090346	0.000162	1.621934	0.549526	0.000065
1613	1.6039e+02	-15.7744	-57.989418	0.000253	2.534272	0.858635	0.000101
1614	1.6049e+02	-15.7279	-57.884452	0.000264	2.635643	0.892980	0.000105
1615	1.6059e+02	-15.6894	-57.771412	0.000284	2.838385	0.961671	0.000114
1616	1.6069e+02	-15.6525	-57.666447	0.000264	2.635643	0.892980	0.000105
1617	1.6079e+02	-15.6092	-57.589741	0.000193	1.926047	0.652562	0.000077
1618	1.6089e+02	-15.5771	-57.444404	0.000365	3.649352	1.236434	0.000146
1619	1.6099e+02	-15.5306	-57.359625	0.000213	2.128789	0.721253	0.000085
1620	1.6109e+02	-15.4905	-57.278882	0.000203	2.027418	0.686908	0.000081
1621	1.6119e+02	-15.4488	-57.129508	0.000375	3.750723	1.270779	0.000150
1622	1.6129e+02	-15.4167	-57.097211	0.000081	0.810967	0.274763	0.000032
1623	1.6139e+02	-15.3702	-56.984171	0.000284	2.838385	0.961671	0.000114
1624	1.6149e+02	-15.3300	-56.859020	0.000314	3.142497	1.064707	0.000126
1625	1.6159e+02	-15.2787	-56.802500	0.000142	1.419192	0.480835	0.000057
1626	1.6169e+02	-15.2579	-56.681386	0.000304	3.041126	1.030362	0.000122
1627	1.6179e+02	-15.2097	-56.568346	0.000284	2.838385	0.961671	0.000114
1628	1.6189e+02	-15.1648	-56.483566	0.000213	2.128789	0.721253	0.000085
1629	1.6199e+02	-15.1391	-56.370526	0.000284	2.838385	0.961671	0.000114
1630	1.6209e+02	-15.0926	-56.314006	0.000142	1.419192	0.480835	0.000057
1631	1.6219e+02	-15.0589	-56.180781	0.000335	3.345239	1.133398	0.000134
1632	1.6228e+02	-15.0108	-56.083890	0.000243	2.432901	0.824289	0.000097
1633	1.6238e+02	-14.9707	-55.991036	0.000233	2.331530	0.789944	0.000093
1634	1.6248e+02	-14.9306	-55.853773	0.000345	3.446610	1.167743	0.000138
1635	1.6258e+02	-14.8873	-55.748807	0.000264	2.635643	0.892980	0.000105
1636	1.6268e+02	-14.8568	-55.655953	0.000233	2.331530	0.789944	0.000093
1637	1.6278e+02	-14.8183	-55.571173	0.000213	2.128789	0.721253	0.000085
1638	1.6288e+02	-14.7766	-55.474282	0.000243	2.432901	0.824289	0.000097
1639	1.6298e+02	-14.7317	-55.365280	0.000274	2.737014	0.927325	0.000110
1640	1.6308e+02	-14.6996	-55.276463	0.000223	2.230159	0.755598	0.000089
1641	1.6318e+02	-14.6531	-55.163423	0.000284	2.838385	0.961671	0.000114
1642	1.6328e+02	-14.6065	-55.050383	0.000284	2.838385	0.961671	0.000114
1643	1.6338e+02	-14.5729	-54.913120	0.000345	3.446610	1.167743	0.000138
1644	1.6348e+02	-14.5263	-54.892935	0.000051	0.506854	0.171727	0.000020
1645	1.6358e+02	-14.4926	-54.763746	0.000324	3.243868	1.099052	0.000130
1646	1.6368e+02	-14.4573	-54.630521	0.000335	3.345239	1.133398	0.000134
1647	1.6378e+02	-14.4172	-54.565927	0.000162	1.621934	0.549526	0.000065
1648	1.6388e+02	-14.3755	-54.436738	0.000324	3.243868	1.099052	0.000130
1649	1.6398e+02	-14.3402	-54.347921	0.000223	2.230159	0.755598	0.000089
1650	1.6408e+02	-14.3017	-54.263141	0.000213	2.128789	0.721253	0.000085
1651	1.6418e+02	-14.2600	-54.142027	0.000304	3.041126	1.030362	0.000122
1652	1.6427e+02	-14.2151	-54.081470	0.000152	1.520563	0.515181	0.000061
1653	1.6437e+02	-14.1734	-53.944208	0.000345	3.446610	1.167743	0.000138
1654	1.6447e+02	-14.1381	-53.819057	0.000314	3.142497	1.064707	0.000126
1655	1.6457e+02	-14.0964	-53.734277	0.000213	2.128789	0.721253	0.000085
1656	1.6467e+02	-14.0531	-53.633348	0.000253	2.534272	0.858635	0.000101
1657	1.6477e+02	-14.0194	-53.512234	0.000304	3.041126	1.030362	0.000122
1658	1.6487e+02	-13.9697	-53.403232	0.000274	2.737014	0.927325	0.000110
1659	1.6497e+02	-13.9408	-53.318452	0.000213	2.128789	0.721253	0.000085
1660	1.6507e+02	-13.8975	-53.169078	0.000375	3.750723	1.270779	0.000150
1661	1.6517e+02	-13.8622	-53.104483	0.000162	1.621934	0.549526	0.000065
1662	1.6527e+02	-13.8140	-52.991444	0.000284	2.838385	0.961671	0.000114
1663	1.6537e+02	-13.7788	-52.882441	0.000274	2.737014	0.927325	0.000110
1664	1.6547e+02	-13.7354	-52.781513	0.000253	2.534272	0.858635	0.000101
1665	1.6557e+02	-13.7050	-52.664436	0.000294	2.939756	0.996016	0.000118
1666	1.6567e+02	-13.6600	-52.571582	0.000233	2.331530	0.789944	0.000093
1667	1.6577e+02	-13.6199	-52.478727	0.000233	2.331530	0.789944	0.000093
1668	1.6587e+02	-13.5798	-52.361651	0.000294	2.939756	0.996016	0.000118
1669	1.6597e+02	-13.5285	-52.236499	0.000314	3.142497	1.064707	0.000126
1670	1.6607e+02	-13.4900	-52.147682	0.000223	2.230159	0.755598	0.000089
1671	1.6616e+02	-13.4595	-52.034643	0.000284	2.838385	0.961671	0.000114
1672	1.6626e+02	-13.4178	-51.949863	0.000213	2.128789	0.721253	0.000085
1673	1.6636e+02	-13.3777	-51.808563	0.000355	3.547981	1.202088	0.000142
1674	1.6646e+02	-13.3344	-51.695523	0.000284	2.838385	0.961671	0.000114
1675	1.6656e+02	-13.2975	-51.639003	0.000142	1.419192	0.480835	0.000057
1676	1.6666e+02	-13.2590	-51.493666	0.000365	3.649352	1.236434	0.000146
1677	1.6676e+02	-13.2141	-51.420998	0.000182	1.824676	0.618217	0.000073
1678	1.6686e+02	-13.1788	-51.239327	0.000456	4.561690	1.545542	0.000183
1679	1.6696e+02	-13.1371	-51.174733	0.000162	1.621934	0.549526	0.000065
1680	1.6706e+02	-13.0954	-51.053619	0.000304	3.041126	1.030362	0.000122
1681	1.6716e+02	-13.0617	-50.944616	0.000274	2.737014	0.927325	0.000110
1682	1.6726e+02	-13.0232	-50.807353	0.000345	3.446610	1.167743	0.000138
1683	1.6736e+02	-12.9831	-50.718536	0.000223	2.230159	0.755598	0.000089
1684	1.6746e+02	-12.9446	-50.597422	0.000304	3.041126	1.030362	0.000122
1685	1.6756e+02	-12.8996	-50.500531	0.000243	2.432901	0.824289	0.000097
1686	1.6766e+02	-12.8531	-50.379417	0.000304	3.041126	1.030362	0.000122
1687	1.6776e+02	-12.8162	-50.278488	0.000253	2.534272	0.858635	0.000101
1688	1.6786e+02	-12.7905	-50.173523	0.000264	2.635643	0.892980	0.000105
1689	1.6796e+02	-12.7392	-50.036260	0.000345	3.446610	1.167743	0.000138
1690	1.6806e+02	-12.6959	-49.886886	0.000375	3.750723	1.270779	0.000150
1691	1.6816e+02	-12.6654	-49.798069	0.000223	2.230159	0.755598	0.000089
1692	1.6825e+02	-12.6333	-49.689067	0.000274	2.737014	0.927325	0.000110
1693	1.6835e+02	-12.5820	-49.608324	0.000203	2.027418	0.686908	0.000081
1694	1.6845e+02	-12.5419	-49.487210	0.000304	3.041126	1.030362	0.000122
1695	1.6855e+02	-12.5050	-49.370133	0.000294	2.939756	0.996016	0.000118
1696	1.6865e+02	-12.4697	-49.269205	0.000253	2.534272	0.858635	0.000101
1697	1.6875e+02	-12.4280	-49.107719	0.000405	4.054835	1.373815	0.000162
1698	1.6885e+02	-12.3799	-49.031014	0.000193	1.926047	0.652562	0.000077
1699	1.6895e+02	-12.3430	-48.942197	0.000223	2.230159	0.755598	0.000089
1700	1.6905e+02	-12.2997	-48.784748	0.000395	3.953464	1.339470	0.000158
1701	1.6915e+02	-12.2595	-48.671708	0.000284	2.838385	0.961671	0.000114
1702	1.6925e+02	-12.2226	-48.619226	0.000132	1.317821	0.446490	0.000053
1703	1.6935e+02	-12.1825	-48.449666	0.000426	4.257577	1.442506	0.000170
1704	1.6945e+02	-12.1456	-48.344700	0.000264	2.635643	0.892980	0.000105
1705	1.6955e+02	-12.1055	-48.272032	0.000182	1.824676	0.618217	0.000073
1706	1.6965e+02	-12.0606	-48.130732	0.000355	3.547981	1.202088	0.000142
1707	1.6975e+02	-12.0269	-48.033841	0.000243	2.432901	0.824289	0.000097
1708	1.6985e+02	-11.9852	-47.920801	0.000284	2.838385	0.961671	0.000114
1709	1.6995e+02	-11.9499	-47.803724	0.000294	2.939756	0.996016	0.000118
1710	1.7005e+02	-11.9050	-47.694722	0.000274	2.737014	0.927325	0.000110
1711	1.7015e+02	-11.8585	-47.553422	0.000355	3.547981	1.202088	0.000142
1712	1.7024e+02	-11.8296	-47.428271	0.000314	3.142497	1.064707	0.000126
1713	1.7034e+02	-11.7879	-47.355602	0.000182	1.824676	0.618217	0.000073
1714	1.7044e+02	-11.7446	-47.218340	0.000345	3.446610	1.167743	0.000138
1715	1.7054e+02	-11.7077	-47.133560	0.000213	2.128789	0.721253	0.000085
1716	1.7064e+02	-11.6644	-47.000334	0.000335	3.345239	1.133398	0.000134
1717	1.7074e+02	-11.6291	-46.879220	0.000304	3.041126	1.030362	0.000122
1718	1.7084e+02	-11.5842	-46.786366	0.000233	2.331530	0.789944	0.000093
1719	1.7094e+02	-11.5441	-46.661215	0.000314	3.142497	1.064707	0.000126
1720	1.7104e+02	-11.5072	-46.572398	0.000223	2.230159	0.755598	0.000089
1721	1.7114e+02	-11.4703	-46.459358	0.000284	2.838385	0.961671	0.000114
1722	1.7124e+02	-11.4237	-46.322095	0.000345	3.446610	1.167743	0.000138
1723	1.7134e+02	-11.3820	-46.213093	0.000274	2.737014	0.927325	0.000110
1724	1.7144e+02	-11.3355	-46.071793	0.000355	3.547981	1.202088	0.000142
1725	1.7154e+02	-11.3114	-45.999125	0.000182	1.824676	0.618217	0.000073
1726	1.7164e+02	-11.2649	-45.878011	0.000304	3.041126	1.030362	0.000122
1727	1.7174e+02	-11.2328	-45.752859	0.000314	3.142497	1.064707	0.000126
1728	1.7184e+02	-11.1863	-45.623671	0.000324	3.243868	1.099052	0.000130
1729	1.7194e+02	-11.1558	-45.498520	0.000314	3.142497	1.064707	0.000126
1730	1.7204e+02	-11.1045	-45.413740	0.000213	2.128789	0.721253	0.000085
1731	1.7213e+02	-11.0676	-45.284552	0.000324	3.243868	1.099052	0.000130
1732	1.7223e+02	-11.0307	-45.175549	0.000274	2.737014	0.927325	0.000110
1733	1.7233e+02	-10.9906	-45.046361	0.000324	3.243868	1.099052	0.000130
1734	1.7243e+02	-10.9425	-44.921209	0.000314	3.142497	1.064707	0.000126
1735	1.7253e+02	-10.9040	-44.800095	0.000304	3.041126	1.030362	0.000122
1736	1.7263e+02	-10.8767	-44.695130	0.000264	2.635643	0.892980	0.000105
1737	1.7273e+02	-10.8302	-44.586127	0.000274	2.737014	0.927325	0.000110
1738	1.7283e+02	-10.7837	-44.477124	0.000274	2.737014	0.927325	0.000110
1739	1.7293e+02	-10.7548	-44.364085	0.000284	2.838385	0.961671	0.000114
1740	1.7303e+02	-10.7115	-44.218748	0.000365	3.649352	1.236434	0.000146
1741	1.7313e+02	-10.6746	-44.109745	0.000274	2.737014	0.927325	0.000110
1742	1.7323e+02	-10.6248	-44.029002	0.000203	2.027418	0.686908	0.000081
1743	1.7333e+02	-10.5879	-43.855406	0.000436	4.358948	1.476852	0.000174
1744	1.7343e+02	-10.5559	-43.766589	0.000223	2.230159	0.755598	0.000089
1745	1.7353e+02	-10.5206	-43.657586	0.000274	2.737014	0.927325	0.000110
1746	1.7363e+02	-10.4724	-43.528398	0.000324	3.243868	1.099052	0.000130
1747	1.7373e+02	-10.4307	-43.407283	0.000304	3.041126	1.030362	0.000122
1748	1.7383e+02	-10.3970	-43.298281	0.000274	2.737014	0.927325	0.000110
1749	1.7393e+02	-10.3537	-43.181204	0.000294	2.939756	0.996016	0.000118
1750	1.7403e+02	-10.3120	-43.076238	0.000264	2.635643	0.892980	0.000105
1751	1.7413e+02	-10.2687	-42.971273	0.000264	2.635643	0.892980	0.000105
1752	1.7422e+02	-10.2366	-42.870344	0.000253	2.534272	0.858635	0.000101
1753	1.7432e+02	-10.1837	-42.733082	0.000345	3.446610	1.167743	0.000138
1754	1.7442e+02	-10.1596	-42.607931	0.000314	3.142497	1.064707	0.000126
1755	1.7452e+02	-10.1035	-42.478742	0.000324	3.243868	1.099052	0.000130
1756	1.7462e+02	-10.0762	-42.389925	0.000223	2.230159	0.755598	0.000089
1757	1.7472e+02	-10.0377	-42.272848	0.000294	2.939756	0.996016	0.000118
1758	1.7482e+02	-9.9815	-42.143660	0.000324	3.243868	1.099052	0.000130
1759	1.7492e+02	-9.9478	-42.010434	0.000335	3.345239	1.133398	0.000134
1760	1.7502e+02	-9.9158	-41.933729	0.000193	1.926047	0.652562	0.000077
1761	1.7512e+02	-9.8757	-41.808578	0.000314	3.142497	1.064707	0.000126
1762	1.7522e+02	-9.8323	-41.659204	0.000375	3.750723	1.270779	0.000150
1763	1.7532e+02	-9.7938	-41.566350	0.000233	2.331530	0.789944	0.000093
1764	1.7542e+02	-9.7473	-41.429087	0.000345	3.446610	1.167743	0.000138
1765	1.7552e+02	-9.7168	-41.320084	0.000274	2.737014	0.927325	0.000110
1766	1.7562e+02	-9.6703	-41.203007	0.000294	2.939756	0.996016	0.000118
1767	1.7572e+02	-9.6350	-41.085930	0.000294	2.939756	0.996016	0.000118
1768	1.7582e+02	-9.5965	-40.976928	0.000274	2.737014	0.927325	0.000110
1769	1.7592e+02	-9.5580	-40.855814	0.000304	3.041126	1.030362	0.000122
1770	1.7602e+02	-9.5179	-40.730662	0.000314	3.142497	1.064707	0.000126
1771	1.7612e+02	-9.4858	-40.633771	0.000243	2.432901	0.824289	0.000097
1772	1.7621e+02	-9.4297	-40.492471	0.000355	3.547981	1.202088	0.000142
1773	1.7631e+02	-9.3992	-40.395580	0.000243	2.432901	0.824289	0.000097
1774	1.7641e+02	-9.3623	-40.258318	0.000345	3.446610	1.167743	0.000138
1775	1.7651e+02	-9.3206	-40.205835	0.000132	1.317821	0.446490	0.000053
1776	1.7661e+02	-9.2741	-40.024164	0.000456	4.561690	1.545542	0.000183
1777	1.7671e+02	-9.2484	-39.939384	0.000213	2.128789	0.721253	0.000085
1778	1.7681e+02	-9.2003	-39.826344	0.000284	2.838385	0.961671	0.000114
1779	1.7691e+02	-9.1586	-39.725416	0.000253	2.534272	0.858635	0.000101
1780	1.7701e+02	-9.1169	-39.551819	0.000436	4.358948	1.476852	0.000174
1781	1.7711e+02	-9.0751	-39.426668	0.000314	3.142497	1.064707	0.000126
1782	1.7721e+02	-9.0366	-39.317665	0.000274	2.737014	0.927325	0.000110
1783	1.7731e+02	-8.9965	-39.228848	0.000223	2.230159	0.755598	0.000089
1784	1.7741e+02	-8.9516	-39.111771	0.000294	2.939756	0.996016	0.000118
1785	1.7751e+02	-8.9179	-38.958360	0.000385	3.852093	1.305125	0.000154
1786	1.7761e+02	-8.8746	-38.833209	0.000314	3.142497	1.064707	0.000126
1787	1.7771e+02	-8.8313	-38.732280	0.000253	2.534272	0.858635	0.000101
1788	1.7781e+02	-8.7976	-38.586943	0.000365	3.649352	1.236434	0.000146
1789	1.7791e+02	-8.7607	-38.457755	0.000324	3.243868	1.099052	0.000130
1790	1.7801e+02	-8.7158	-38.352790	0.000264	2.635643	0.892980	0.000105
1791	1.7810e+02	-8.6789	-38.211490	0.000355	3.547981	1.202088	0.000142
1792	1.7820e+02	-8.6452	-38.110561	0.000253	2.534272	0.858635	0.000101
1793	1.7830e+02	-8.6003	-37.977336	0.000335	3.345239	1.133398	0.000134
1794	1.7840e+02	-8.5554	-37.884482	0.000233	2.331530	0.789944	0.000093
1795	1.7850e+02	-8.5153	-37.739145	0.000365	3.649352	1.236434	0.000146
1796	1.7860e+02	-8.4864	-37.618031	0.000304	3.041126	1.030362	0.000122
1797	1.7870e+02	-8.4399	-37.517102	0.000253	2.534272	0.858635	0.000101
1798	1.7880e+02	-8.4014	-37.408100	0.000274	2.737014	0.927325	0.000110
1799	1.7890e+02	-8.3564	-37.242577	0.000416	4.156206	1.408161	0.000166
1800	1.7900e+02	-8.3244	-37.125500	0.000294	2.939756	0.996016	0.000118
1801	1.7910e+02	-8.2875	-37.004386	0.000304	3.041126	1.030362	0.000122
1802	1.7920e+02	-8.2458	-36.895384	0.000274	2.737014	0.927325	0.000110
1803	1.7930e+02	-8.2024	-36.798492	0.000243	2.432901	0.824289	0.000097
1804	1.7940e+02	-8.1623	-36.637007	0.000405	4.054835	1.373815	0.000162
1805	1.7950e+02	-8.1062	-36.495707	0.000355	3.547981	1.202088	0.000142
1806	1.7960e+02	-8.0821	-36.406890	0.000223	2.230159	0.755598	0.000089
1807	1.7970e+02	-8.0388	-36.285776	0.000304	3.041126	1.030362	0.000122
1808	1.7980e+02	-8.0035	-36.140439	0.000365	3.649352	1.236434	0.000146
1809	1.7990e+02	-7.9682	-36.023362	0.000294	2.939756	0.996016	0.000118
1810	1.8000e+02	-7.9233	-35.882062	0.000355	3.547981	1.202088	0.000142
1811	1.8009e+02	-7.8848	-35.805357	0.000193	1.926047	0.652562	0.000077
1812	1.8019e+02	-7.8431	-35.664057	0.000355	3.547981	1.202088	0.000142
1813	1.8029e+02	-7.8078	-35.563129	0.000253	2.534272	0.858635	0.000101
1814	1.8039e+02	-7.7677	-35.409718	0.000385	3.852093	1.305125	0.000154
1815	1.8049e+02	-7.7260	-35.276492	0.000335	3.345239	1.133398	0.000134
1816	1.8059e+02	-7.6827	-35.135192	0.000355	3.547981	1.202088	0.000142
1817	1.8069e+02	-7.6426	-35.038301	0.000243	2.432901	0.824289	0.000097
1818	1.8079e+02	-7.5976	-34.888927	0.000375	3.750723	1.270779	0.000150
1819	1.8089e+02	-7.5640	-34.800110	0.000223	2.230159	0.755598	0.000089
1820	1.8099e+02	-7.5271	-34.674959	0.000314	3.142497	1.064707	0.000126
1821	1.8109e+02	-7.4870	-34.501362	0.000436	4.358948	1.476852	0.000174
1822	1.8119e+02	-7.4340	-34.408508	0.000233	2.331530	0.789944	0.000093
1823	1.8129e+02	-7.4132	-34.307580	0.000253	2.534272	0.858635	0.000101
1824	1.8139e+02	-7.3650	-34.174354	0.000335	3.345239	1.133398	0.000134
1825	1.8149e+02	-7.3185	-34.033054	0.000355	3.547981	1.202088	0.000142
1826	1.8159e+02	-7.2816	-33.863495	0.000426	4.257577	1.442506	0.000170
1827	1.8169e+02	-7.2447	-33.782752	0.000203	2.027418	0.686908	0.000081
1828	1.8179e+02	-7.2014	-33.661638	0.000304	3.041126	1.030362	0.000122
1829	1.8189e+02	-7.1693	-33.556672	0.000264	2.635643	0.892980	0.000105
1830	1.8199e+02	-7.1196	-33.415373	0.000355	3.547981	1.202088	0.000142
1831	1.8209e+02	-7.0875	-33.278110	0.000345	3.446610	1.167743	0.000138
1832	1.8218e+02	-7.0458	-33.144884	0.000335	3.345239	1.133398	0.000134
1833	1.8228e+02	-6.9993	-33.011659	0.000335	3.345239	1.133398	0.000134
1834	1.8238e+02	-6.9592	-32.870359	0.000355	3.547981	1.202088	0.000142
1835	1.8248e+02	-6.9175	-32.733097	0.000345	3.446610	1.167743	0.000138
1836	1.8258e+02	-6.8838	-32.644280	0.000223	2.230159	0.755598	0.000089
1837	1.8268e+02	-6.8469	-32.454534	0.000476	4.764431	1.614233	0.000191
1838	1.8278e+02	-6.8052	-32.337457	0.000294	2.939756	0.996016	0.000118
1839	1.8288e+02	-6.7586	-32.228455	0.000274	2.737014	0.927325	0.000110
1840	1.8298e+02	-6.7330	-32.127526	0.000253	2.534272	0.858635	0.000101
1841	1.8308e+02	-6.6784	-31.966041	0.000405	4.054835	1.373815	0.000162
1842	1.8318e+02	-6.6511	-31.824741	0.000355	3.547981	1.202088	0.000142
1843	1.8328e+02	-6.6094	-31.699590	0.000314	3.142497	1.064707	0.000126
1844	1.8338e+02	-6.5693	-31.558290	0.000355	3.547981	1.202088	0.000142
1845	1.8348e+02	-6.5276	-31.429102	0.000324	3.243868	1.099052	0.000130
1846	1.8358e+02	-6.4939	-31.316062	0.000284	2.838385	0.961671	0.000114
1847	1.8368e+02	-6.4506	-31.231282	0.000213	2.128789	0.721253	0.000085
1848	1.8378e+02	-6.4105	-31.073834	0.000395	3.953464	1.339470	0.000158
1849	1.8388e+02	-6.3736	-30.932534	0.000355	3.547981	1.202088	0.000142
1850	1.8398e+02	-6.3303	-30.799309	0.000335	3.345239	1.133398	0.000134
1851	1.8407e+02	-6.2934	-30.682232	0.000294	2.939756	0.996016	0.000118
1852	1.8417e+02	-6.2533	-30.508635	0.000436	4.358948	1.476852	0.000174
1853	1.8427e+02	-6.2084	-30.375409	0.000335	3.345239	1.133398	0.000134
1854	1.8437e+02	-6.1683	-30.258332	0.000294	2.939756	0.996016	0.000118
1855	1.8447e+02	-6.1410	-30.125107	0.000335	3.345239	1.133398	0.000134
1856	1.8457e+02	-6.0913	-29.987844	0.000345	3.446610	1.167743	0.000138
1857	1.8467e+02	-6.0496	-29.834433	0.000385	3.852093	1.305125	0.000154
1858	1.8477e+02	-6.0159	-29.693133	0.000355	3.547981	1.202088	0.000142
1859	1.8487e+02	-5.9710	-29.551834	0.000355	3.547981	1.202088	0.000142
1860	1.8497e+02	-5.9244	-29.426682	0.000314	3.142497	1.064707	0.000126
1861	1.8507e+02	-5.8907	-29.325754	0.000253	2.534272	0.858635	0.000101
1862	1.8517e+02	-5.8506	-29.184454	0.000355	3.547981	1.202088	0.000142
1863	1.8527e+02	-5.8073	-29.043154	0.000355	3.547981	1.202088	0.000142
1864	1.8537e+02	-5.7704	-28.893780	0.000375	3.750723	1.270779	0.000150
1865	1.8547e+02	-5.7335	-28.756518	0.000345	3.446610	1.167743	0.000138
1866	1.8557e+02	-5.6950	-28.611181	0.000365	3.649352	1.236434	0.000146
1867	1.8567e+02	-5.6469	-28.502178	0.000274	2.737014	0.927325	0.000110
1868	1.8577e+02	-5.6020	-28.356841	0.000365	3.649352	1.236434	0.000146
1869	1.8587e+02	-5.5731	-28.239764	0.000294	2.939756	0.996016	0.000118
1870	1.8597e+02	-5.5346	-28.070205	0.000426	4.257577	1.442506	0.000170
1871	1.8606e+02	-5.4865	-27.924868	0.000365	3.649352	1.236434	0.000146
1872	1.8616e+02	-5.4608	-27.819902	0.000264	2.635643	0.892980	0.000105
1873	1.8626e+02	-5.4095	-27.686677	0.000335	3.345239	1.133398	0.000134
1874	1.8636e+02	-5.3742	-27.549414	0.000345	3.446610	1.167743	0.000138
1875	1.8646e+02	-5.3373	-27.420226	0.000324	3.243868	1.099052	0.000130
1876	1.8656e+02	-5.2940	-27.295075	0.000314	3.142497	1.064707	0.000126
1877	1.8666e+02	-5.2555	-27.141664	0.000385	3.852093	1.305125	0.000154
1878	1.8676e+02	-5.2057	-26.992290	0.000375	3.750723	1.270779	0.000150
1879	1.8686e+02	-5.1785	-26.903473	0.000223	2.230159	0.755598	0.000089
1880	1.8696e+02	-5.1351	-26.713727	0.000476	4.764431	1.614233	0.000191
1881	1.8706e+02	-5.0983	-26.588576	0.000314	3.142497	1.064707	0.000126
1882	1.8716e+02	-5.0549	-26.455350	0.000335	3.345239	1.133398	0.000134
1883	1.8726e+02	-5.0084	-26.322125	0.000335	3.345239	1.133398	0.000134
1884	1.8736e+02	-4.9844	-26.188900	0.000335	3.345239	1.133398	0.000134
1885	1.8746e+02	-4.9298	-26.035488	0.000385	3.852093	1.305125	0.000154
1886	1.8756e+02	-4.8929	-25.910337	0.000314	3.142497	1.064707	0.000126
1887	1.8766e+02	-4.8528	-25.765000	0.000365	3.649352	1.236434	0.000146
1888	1.8776e+02	-4.8255	-25.655998	0.000274	2.737014	0.927325	0.000110
1889	1.8786e+02	-4.7694	-25.506624	0.000375	3.750723	1.270779	0.000150
1890	1.8796e+02	-4.7389	-25.361287	0.000365	3.649352	1.236434	0.000146
1891	1.8806e+02	-4.6956	-25.199801	0.000405	4.054835	1.373815	0.000162
1892	1.8815e+02	-4.6571	-25.098873	0.000253	2.534272	0.858635	0.000101
1893	1.8825e+02	-4.6186	-24.941425	0.000395	3.953464	1.339470	0.000158
1894	1.8835e+02	-4.5673	-24.792051	0.000375	3.750723	1.270779	0.000150
1895	1.8845e+02	-4.5352	-24.642677	0.000375	3.750723	1.270779	0.000150
1896	1.8855e+02	-4.4951	-24.561934	0.000203	2.027418	0.686908	0.000081
1897	1.8865e+02	-4.4646	-24.392374	0.000426	4.257577	1.442506	0.000170
1898	1.8875e+02	-4.4132	-24.259149	0.000335	3.345239	1.133398	0.000134
1899	1.8885e+02	-4.3844	-24.085552	0.000436	4.358948	1.476852	0.000174
1900	1.8895e+02	-4.3282	-23.988661	0.000243	2.432901	0.824289	0.000097
1901	1.8905e+02	-4.3026	-23.827175	0.000405	4.054835	1.373815	0.000162
1902	1.8915e+02	-4.2592	-23.685875	0.000355	3.547981	1.202088	0.000142
1903	1.8925e+02	-4.2159	-23.532464	0.000385	3.852093	1.305125	0.000154
1904	1.8935e+02	-4.1822	-23.395202	0.000345	3.446610	1.167743	0.000138
1905	1.8945e+02	-4.1405	-23.237753	0.000395	3.953464	1.339470	0.000158
1906	1.8955e+02	-4.0972	-23.136825	0.000253	2.534272	0.858635	0.000101
1907	1.8965e+02	-4.0539	-22.983414	0.000385	3.852093	1.305125	0.000154
1908	1.8975e+02	-4.0138	-22.850188	0.000335	3.345239	1.133398	0.000134
1909	1.8985e+02	-3.9753	-22.672554	0.000446	4.460319	1.511197	0.000179
1910	1.8995e+02	-3.9368	-22.559515	0.000284	2.838385	0.961671	0.000114
1911	1.9004e+02	-3.8951	-22.438400	0.000304	3.041126	1.030362	0.000122
1912	1.9014e+02	-3.8662	-22.293064	0.000365	3.649352	1.236434	0.000146
1913	1.9024e+02	-3.8245	-22.135615	0.000395	3.953464	1.339470	0.000158
1914	1.9034e+02	-3.7796	-21.990278	0.000365	3.649352	1.236434	0.000146
1915	1.9044e+02	-3.7459	-21.853016	0.000345	3.446610	1.167743	0.000138
1916	1.9054e+02	-3.6929	-21.699605	0.000385	3.852093	1.305125	0.000154
1917	1.9064e+02	-3.6593	-21.566379	0.000335	3.345239	1.133398	0.000134
1918	1.9074e+02	-3.6224	-21.404894	0.000405	4.054835	1.373815	0.000162
1919	1.9084e+02	-3.5839	-21.299928	0.000264	2.635643	0.892980	0.000105
1920	1.9094e+02	-3.5405	-21.158628	0.000355	3.547981	1.202088	0.000142
1921	1.9104e+02	-3.5052	-21.009254	0.000375	3.750723	1.270779	0.000150
1922	1.9114e+02	-3.4667	-20.888140	0.000304	3.041126	1.030362	0.000122
1923	1.9124e+02	-3.4315	-20.754915	0.000335	3.345239	1.133398	0.000134
1924	1.9134e+02	-3.3721	-20.605541	0.000375	3.750723	1.270779	0.000150
1925	1.9144e+02	-3.3432	-20.460204	0.000365	3.649352	1.236434	0.000146
1926	1.9154e+02	-3.2999	-20.318904	0.000355	3.547981	1.202088	0.000142
1927	1.9164e+02	-3.2614	-20.161456	0.000395	3.953464	1.339470	0.000158
1928	1.9174e+02	-3.2261	-20.024193	0.000345	3.446610	1.167743	0.000138
1929	1.9184e+02	-3.1764	-19.866745	0.000395	3.953464	1.339470	0.000158
1930	1.9194e+02	-3.1411	-19.769854	0.000243	2.432901	0.824289	0.000097
1931	1.9203e+02	-3.1010	-19.640665	0.000324	3.243868	1.099052	0.000130
1932	1.9213e+02	-3.0641	-19.450920	0.000476	4.764431	1.614233	0.000191
1933	1.9223e+02	-3.0224	-19.325769	0.000314	3.142497	1.064707	0.000126
1934	1.9233e+02	-2.9742	-19.168320	0.000395	3.953464	1.339470	0.000158
1935	1.9243e+02	-2.9502	-19.063355	0.000264	2.635643	0.892980	0.000105
1936	1.9253e+02	-2.8940	-18.922055	0.000355	3.547981	1.202088	0.000142
1937	1.9263e+02	-2.8668	-18.736347	0.000466	4.663061	1.579888	0.000187
1938	1.9273e+02	-2.8202	-18.623307	0.000284	2.838385	0.961671	0.000114
1939	1.9283e+02	-2.7801	-18.449710	0.000436	4.358948	1.476852	0.000174
1940	1.9293e+02	-2.7448	-18.352819	0.000243	2.432901	0.824289	0.000097
1941	1.9303e+02	-2.6983	-18.191334	0.000405	4.054835	1.373815	0.000162
1942	1.9313e+02	-2.6534	-18.021774	0.000426	4.257577	1.442506	0.000170
1943	1.9323e+02	-2.6261	-17.945068	0.000193	1.926047	0.652562	0.000077
1944	1.9333e+02	-2.5828	-17.803769	0.000355	3.547981	1.202088	0.000142
1945	1.9343e+02	-2.5507	-17.658432	0.000365	3.649352	1.236434	0.000146
1946	1.9353e+02	-2.5090	-17.492909	0.000416	4.156206	1.408161	0.000166
1947	1.9363e+02	-2.4689	-17.367758	0.000314	3.142497	1.064707	0.000126
1948	1.9373e+02	-2.4288	-17.218384	0.000375	3.750723	1.270779	0.000150
1949	1.9383e+02	-2.3807	-17.077084	0.000355	3.547981	1.202088	0.000142
1950	1.9393e+02	-2.3438	-16.923673	0.000385	3.852093	1.305125	0.000154
1951	1.9403e+02	-2.3069	-16.782373	0.000355	3.547981	1.202088	0.000142
1952	1.9412e+02	-2.2684	-16.645111	0.000345	3.446610	1.167743	0.000138
1953	1.9422e+02	-2.2299	-16.511885	0.000335	3.345239	1.133398	0.000134
1954	1.9432e+02	-2.1914	-16.342325	0.000426	4.257577	1.442506	0.000170
1955	1.9442e+02	-2.1400	-16.225249	0.000294	2.939756	0.996016	0.000118
1956	1.9452e+02	-2.1080	-16.063763	0.000405	4.054835	1.373815	0.000162
1957	1.9462e+02	-2.0695	-15.910352	0.000385	3.852093	1.305125	0.000154
1958	1.9472e+02	-2.0181	-15.777126	0.000335	3.345239	1.133398	0.000134
1959	1.9482e+02	-1.9909	-15.639864	0.000345	3.446610	1.167743	0.000138
1960	1.9492e+02	-1.9363	-15.470304	0.000426	4.257577	1.442506	0.000170
1961	1.9502e+02	-1.9138	-15.357264	0.000284	2.838385	0.961671	0.000114
1962	1.9512e+02	-1.8545	-15.232113	0.000314	3.142497	1.064707	0.000126
1963	1.9522e+02	-1.8304	-15.078702	0.000385	3.852093	1.305125	0.000154
1964	1.9532e+02	-1.7823	-14.945477	0.000335	3.345239	1.133398	0.000134
1965	1.9542e+02	-1.7470	-14.788028	0.000395	3.953464	1.339470	0.000158
1966	1.9552e+02	-1.7101	-14.586171	0.000507	5.068544	1.717269	0.000203
1967	1.9562e+02	-1.6652	-14.469094	0.000294	2.939756	0.996016	0.000118
1968	1.9572e+02	-1.6299	-14.323758	0.000365	3.649352	1.236434	0.000146
1969	1.9582e+02	-1.5882	-14.190532	0.000335	3.345239	1.133398	0.000134
1970	1.9592e+02	-1.5449	-13.992712	0.000497	4.967173	1.682924	0.000199
1971	1.9601e+02	-1.5112	-13.895821	0.000243	2.432901	0.824289	0.000097
1972	1.9611e+02	-1.4663	-13.714150	0.000456	4.561690	1.545542	0.000183
1973	1.9621e+02	-1.4326	-13.580925	0.000335	3.345239	1.133398	0.000134
1974	1.9631e+02	-1.3861	-13.435588	0.000365	3.649352	1.236434	0.000146
1975	1.9641e+02	-1.3460	-13.278139	0.000395	3.953464	1.339470	0.000158
1976	1.9651e+02	-1.3058	-13.161063	0.000294	2.939756	0.996016	0.000118
1977	1.9661e+02	-1.2754	-12.959206	0.000507	5.068544	1.717269	0.000203
1978	1.9671e+02	-1.2240	-12.854240	0.000264	2.635643	0.892980	0.000105
1979	1.9681e+02	-1.1903	-12.692755	0.000405	4.054835	1.373815	0.000162
1980	1.9691e+02	-1.1534	-12.555492	0.000345	3.446610	1.167743	0.000138
1981	1.9701e+02	-1.1133	-12.434378	0.000304	3.041126	1.030362	0.000122
1982	1.9711e+02	-1.0732	-12.276930	0.000395	3.953464	1.339470	0.000158
1983	1.9721e+02	-1.0363	-12.135630	0.000355	3.547981	1.202088	0.000142
1984	1.9731e+02	-0.9866	-11.949922	0.000466	4.663061	1.579888	0.000187
1985	1.9741e+02	-0.9433	-11.796511	0.000385	3.852093	1.305125	0.000154
1986	1.9751e+02	-0.9144	-11.675397	0.000304	3.041126	1.030362	0.000122
1987	1.9761e+02	-0.8663	-11.509874	0.000416	4.156206	1.408161	0.000166
1988	1.9771e+02	-0.8230	-11.368574	0.000355	3.547981	1.202088	0.000142
1989	1.9781e+02	-0.7877	-11.235349	0.000335	3.345239	1.133398	0.000134
1990	1.9791e+02	-0.7524	-11.057715	0.000446	4.460319	1.511197	0.000179
1991	1.9800e+02	-0.7139	-10.924489	0.000335	3.345239	1.133398	0.000134
1992	1.9810e+02	-0.6642	-10.787227	0.000345	3.446610	1.167743	0.000138
1993	1.9820e+02	-0.6305	-10.658038	0.000324	3.243868	1.099052	0.000130
1994	1.9830e+02	-0.5904	-10.512701	0.000365	3.649352	1.236434	0.000146
1995	1.9840e+02	-0.5470	-10.314882	0.000497	4.967173	1.682924	0.000199
1996	1.9850e+02	-0.5118	-10.213953	0.000253	2.534272	0.858635	0.000101
1997	1.9860e+02	-0.4781	-10.048431	0.000416	4.156206	1.408161	0.000166
1998	1.9870e+02	-0.4347	-9.890983	0.000395	3.953464	1.339470	0.000158
1999	1.9880e+02	-0.3818	-9.737571	0.000385	3.852093	1.305125	0.000154
2000	1.9890e+02	-0.3561	-9.616457	0.000304	3.041126	1.030362	0.000122
2001	1.9900e+02	-0.3176	-9.454972	0.000405	4.054835	1.373815	0.000162
2002	1.9910e+02	-0.2775	-9.305598	0.000375	3.750723	1.270779	0.000150
2003	1.9920e+02	-0.2454	-9.156224	0.000375	3.750723	1.270779	0.000150
2004	1.9930e+02	-0.2005	-8.978590	0.000446	4.460319	1.511197	0.000179
2005	1.9940e+02	-0.1652	-8.857476	0.000304	3.041126	1.030362	0.000122
2006	1.9950e+02	-0.1043	-8.659656	0.000497	4.967173	1.682924	0.000199
2007	1.9960e+02	-0.0706	-8.534505	0.000314	3.142497	1.064707	0.000126
2008	1.9970e+02	-0.0433	-8.393205	0.000355	3.547981	1.202088	0.000142
2009	1.9980e+02	0.0016	-8.203460	0.000355	3.547981	1.202088	0.000191

PMax (uC/cm2):	7.33e+01
Pr (uC/cm2):	4.53e+00
-Pr (uC/cm2):	-2.08e+00
PLoss (uC/cm2):	-2.08e+00
-Vc:	-1.24e+00
C (Max-Eff) (nF):	3.67e-01
K (Eff):	1.24e+03
Vert. (+/-Pr) Shift (uC/cm2):	1.23e+00
Offset (uC/cm2):	6.13e+00

A (Loop Area - uC/cm2·Volts):	2.93e-02



Hysteresis Version: 5.48.1 - Radiant Technologies, Inc., 1999 - 9/12/24

