»»»»»»»»»»»»»»»»»»»»»»»»»»»»»»»»»»»» Hysteresis ««««««««««««««««««««««««««««««««««««
»»»  Executed Version:	5.48.1
»»»  Vision Version:	5.48.4 (R)
»»»  Vision Compiled:	9/18/24
»»»  Driver Version:	5.47.0
»»»  Windows Version:	Windows 8 or 8.1
»»»  Processor Information:	x86 (AMD or Intel) - 32 Processors
»»»  Tester Name:	PMF21124-494 (100V)
»»»  Tester S/N:	PMF21124-494
»»»  Internal Amp Type:	100V RevK 270k
»»»  Internal Amp S/N:	iAB2-596/K     
»»»  Execution Count:	1
»»»»»»»»»»»»»»»»»»»»»»»»»»»»»»»»»»»»»»»»»»««««««««««««««««««««««««««««««««««««««««««

Stored:	6/19/2025 - 19:13:49
Configured:	06/19/25 10:04:32 AM
Executed:	06/19/25 07:12:53 PM

»»»»»»»»»»»»»»»»»»»»»»»»»»»»»»»»»»» Sample Info ««««««««««««««««««««««««««««««««««««
Sample Name:	
Lot Name:	
Wafer Name:	
Die Row/Column:	0/0
Capacitor Number:	0
Sample Area (cm2):	1.00e-04
Sample Thickness (microns):	3.00e-01

Amplifier:	Internal

»»»»»»»»»»»»»»»»»»»»»»»»»»»»»»»»»»» Tester Info «««««««««««««««««««««««««««««««««««
Tester Name:	PMF21124-494 (100V)
Tester Serial Number:	PMF21124-494
Return Signal Amp. Level:	0.19 [Index: 3]

»»»»»»»»»»»»»»»»»»»»»»»»»»»»»»»» Hysteresis Info ««««««««««««««««««««««««««««««««««
Task Name:	Hyst-1168
Volts:	20.00
Field:	666.67 (kV/cm)
DCBias:	0.00
DCField:	0.00 (kV/cm)
Hysteresis Period (ms):	2.00e+02
Preset:	Enabled
Preset Delay (ms):	1.00e+03
Profile:	Standard Bipolar

»»»»»»»»»»»»»»»»»»»»»»»»»»»»»»»»»»»»»» Data «««««««««««««««««««««««««««««««««««««««
Points:	2009

Valid Data

Point	Time (ms)	Drive Voltage	Measured Polarization (uC/cm2)	Capacitance (uF)	Normalized Capacitance (uF/cm2)	Dielectric Constant	Instantaneous Current (mA)
   1	0.0000e+00	0.0048	-6.049648	0.000254	2.535086	0.858910	0.000101
   2	9.9500e-02	0.0353	-5.948720	0.000254	2.535086	0.858910	0.000101
   3	1.9900e-01	0.0786	-5.843754	0.000264	2.636489	0.893267	0.000105
   4	2.9850e-01	0.1171	-5.666120	0.000446	4.461751	1.511682	0.000179
   5	3.9800e-01	0.1604	-5.508672	0.000395	3.954734	1.339900	0.000158
   6	4.9750e-01	0.2021	-5.427929	0.000203	2.028069	0.687128	0.000081
   7	5.9700e-01	0.2374	-5.278555	0.000375	3.751927	1.271187	0.000150
   8	6.9650e-01	0.2823	-5.121107	0.000395	3.954734	1.339900	0.000158
   9	7.9600e-01	0.3176	-4.959621	0.000406	4.056137	1.374256	0.000162
  10	8.9550e-01	0.3529	-4.838507	0.000304	3.042103	1.030692	0.000122
  11	9.9500e-01	0.3946	-4.705282	0.000335	3.346313	1.133762	0.000134
  12	1.0945e+00	0.4364	-4.555908	0.000375	3.751927	1.271187	0.000150
  13	1.1940e+00	0.4732	-4.414608	0.000355	3.549120	1.202474	0.000142
  14	1.2935e+00	0.5198	-4.277345	0.000345	3.447717	1.168118	0.000138
  15	1.3930e+00	0.5567	-4.136046	0.000355	3.549120	1.202474	0.000142
  16	1.4925e+00	0.5855	-3.986672	0.000375	3.751927	1.271187	0.000150
  17	1.5920e+00	0.6321	-3.877669	0.000274	2.737893	0.927623	0.000110
  18	1.6915e+00	0.6786	-3.700035	0.000446	4.461751	1.511682	0.000179
  19	1.7910e+00	0.7123	-3.554698	0.000365	3.650523	1.236831	0.000146
  20	1.8905e+00	0.7476	-3.425510	0.000324	3.244910	1.099405	0.000130
  21	1.9900e+00	0.7893	-3.316507	0.000274	2.737893	0.927623	0.000110
  22	2.0895e+00	0.8326	-3.118687	0.000497	4.968768	1.683464	0.000199
  23	2.1890e+00	0.8727	-3.005648	0.000284	2.839296	0.961980	0.000114
  24	2.2885e+00	0.9112	-2.840125	0.000416	4.157541	1.408613	0.000166
  25	2.3880e+00	0.9465	-2.723048	0.000294	2.940699	0.996336	0.000118
  26	2.4875e+00	1.0010	-2.605971	0.000294	2.940699	0.996336	0.000118
  27	2.5870e+00	1.0331	-2.468709	0.000345	3.447717	1.168118	0.000138
  28	2.6865e+00	1.0829	-2.307223	0.000406	4.056137	1.374256	0.000162
  29	2.7860e+00	1.1101	-2.145738	0.000406	4.056137	1.374256	0.000162
  30	2.8855e+00	1.1550	-2.020586	0.000314	3.143506	1.065049	0.000126
  31	2.9850e+00	1.1984	-1.859101	0.000406	4.056137	1.374256	0.000162
  32	3.0845e+00	1.2385	-1.762210	0.000243	2.433682	0.824554	0.000097
  33	3.1840e+00	1.2770	-1.532093	0.000578	5.779995	1.958315	0.000231
  34	3.2835e+00	1.3139	-1.427127	0.000264	2.636489	0.893267	0.000105
  35	3.3830e+00	1.3572	-1.310051	0.000294	2.940699	0.996336	0.000118
  36	3.4825e+00	1.3861	-1.168751	0.000355	3.549120	1.202474	0.000142
  37	3.5820e+00	1.4358	-1.031488	0.000345	3.447717	1.168118	0.000138
  38	3.6815e+00	1.4695	-0.857891	0.000436	4.360347	1.477326	0.000174
  39	3.7810e+00	1.5176	-0.748889	0.000274	2.737893	0.927623	0.000110
  40	3.8805e+00	1.5481	-0.559143	0.000477	4.765961	1.614751	0.000191
  41	3.9800e+00	1.5930	-0.462252	0.000243	2.433682	0.824554	0.000097
  42	4.0795e+00	1.6299	-0.304804	0.000395	3.954734	1.339900	0.000158
  43	4.1790e+00	1.6812	-0.143318	0.000406	4.056137	1.374256	0.000162
  44	4.2785e+00	1.7181	0.030279	0.000436	4.360347	1.477326	0.000174
  45	4.3780e+00	1.7534	0.127170	0.000243	2.433682	0.824554	0.000097
  46	4.4775e+00	1.7935	0.276544	0.000375	3.751927	1.271187	0.000150
  47	4.5770e+00	1.8368	0.413806	0.000345	3.447717	1.168118	0.000138
  48	4.6765e+00	1.8721	0.555106	0.000355	3.549120	1.202474	0.000142
  49	4.7760e+00	1.9122	0.740814	0.000466	4.664558	1.580395	0.000187
  50	4.8755e+00	1.9491	0.825594	0.000213	2.129472	0.721485	0.000085
  51	4.9750e+00	1.9925	1.023414	0.000497	4.968768	1.683464	0.000199
  52	5.0745e+00	2.0261	1.148565	0.000314	3.143506	1.065049	0.000126
  53	5.1740e+00	2.0743	1.301976	0.000385	3.853330	1.305544	0.000154
  54	5.2735e+00	2.1160	1.447313	0.000365	3.650523	1.236831	0.000146
  55	5.3730e+00	2.1481	1.572464	0.000314	3.143506	1.065049	0.000126
  56	5.4725e+00	2.1914	1.729913	0.000395	3.954734	1.339900	0.000158
  57	5.5720e+00	2.2267	1.855064	0.000314	3.143506	1.065049	0.000126
  58	5.6715e+00	2.2684	1.972141	0.000294	2.940699	0.996336	0.000118
  59	5.7710e+00	2.3069	2.157849	0.000466	4.664558	1.580395	0.000187
  60	5.8705e+00	2.3438	2.315297	0.000395	3.954734	1.339900	0.000158
  61	5.9700e+00	2.3887	2.412189	0.000243	2.433682	0.824554	0.000097
  62	6.0695e+00	2.4352	2.565600	0.000385	3.853330	1.305544	0.000154
  63	6.1690e+00	2.4577	2.719011	0.000385	3.853330	1.305544	0.000154
  64	6.2685e+00	2.5106	2.860311	0.000355	3.549120	1.202474	0.000142
  65	6.3680e+00	2.5523	2.989499	0.000324	3.244910	1.099405	0.000130
  66	6.4675e+00	2.5908	3.167133	0.000446	4.461751	1.511682	0.000179
  67	6.5670e+00	2.6309	3.292284	0.000314	3.143506	1.065049	0.000126
  68	6.6665e+00	2.6743	3.469918	0.000446	4.461751	1.511682	0.000179
  69	6.7660e+00	2.7079	3.558735	0.000223	2.230875	0.755841	0.000089
  70	6.8655e+00	2.7529	3.712146	0.000385	3.853330	1.305544	0.000154
  71	6.9650e+00	2.7914	3.853446	0.000355	3.549120	1.202474	0.000142
  72	7.0645e+00	2.8234	4.014931	0.000406	4.056137	1.374256	0.000162
  73	7.1640e+00	2.8684	4.148157	0.000335	3.346313	1.133762	0.000134
  74	7.2635e+00	2.9117	4.313680	0.000416	4.157541	1.408613	0.000166
  75	7.3630e+00	2.9486	4.434794	0.000304	3.042103	1.030692	0.000122
  76	7.4625e+00	2.9887	4.588205	0.000385	3.853330	1.305544	0.000154
  77	7.5620e+00	3.0304	4.713356	0.000314	3.143506	1.065049	0.000126
  78	7.6615e+00	3.0657	4.915213	0.000507	5.070171	1.717821	0.000203
  79	7.7610e+00	3.1090	4.979807	0.000162	1.622455	0.549703	0.000065
  80	7.8605e+00	3.1523	5.161478	0.000456	4.563154	1.546039	0.000183
  81	7.9600e+00	3.1828	5.290666	0.000324	3.244910	1.099405	0.000130
  82	8.0595e+00	3.2277	5.456189	0.000416	4.157541	1.408613	0.000166
  83	8.1590e+00	3.2614	5.565192	0.000274	2.737893	0.927623	0.000110
  84	8.2585e+00	3.3095	5.674194	0.000274	2.737893	0.927623	0.000110
  85	8.3580e+00	3.3432	5.843754	0.000426	4.258944	1.442969	0.000170
  86	8.4575e+00	3.3849	5.964868	0.000304	3.042103	1.030692	0.000122
  87	8.5570e+00	3.4234	6.130391	0.000416	4.157541	1.408613	0.000166
  88	8.6565e+00	3.4716	6.259579	0.000324	3.244910	1.099405	0.000130
  89	8.7560e+00	3.5020	6.485659	0.000568	5.678592	1.923959	0.000227
  90	8.8555e+00	3.5421	6.606773	0.000304	3.042103	1.030692	0.000122
  91	8.9550e+00	3.5839	6.699627	0.000233	2.332279	0.790197	0.000093
  92	9.0545e+00	3.6288	6.853038	0.000385	3.853330	1.305544	0.000154
  93	9.1540e+00	3.6560	6.966078	0.000284	2.839296	0.961980	0.000114
  94	9.2535e+00	3.7058	7.155823	0.000477	4.765961	1.614751	0.000191
  95	9.3530e+00	3.7443	7.285011	0.000324	3.244910	1.099405	0.000130
  96	9.4525e+00	3.7732	7.434385	0.000375	3.751927	1.271187	0.000150
  97	9.5520e+00	3.8181	7.563574	0.000324	3.244910	1.099405	0.000130
  98	9.6515e+00	3.8598	7.700836	0.000345	3.447717	1.168118	0.000138
  99	9.7510e+00	3.8935	7.842136	0.000355	3.549120	1.202474	0.000142
 100	9.8505e+00	3.9368	7.975362	0.000335	3.346313	1.133762	0.000134
 101	9.9500e+00	3.9801	8.140884	0.000416	4.157541	1.408613	0.000166
 102	1.0050e+01	4.0218	8.278147	0.000345	3.447717	1.168118	0.000138
 103	1.0149e+01	4.0667	8.415409	0.000345	3.447717	1.168118	0.000138
 104	1.0248e+01	4.1004	8.540561	0.000314	3.143506	1.065049	0.000126
 105	1.0348e+01	4.1502	8.677823	0.000345	3.447717	1.168118	0.000138
 106	1.0447e+01	4.1806	8.855457	0.000446	4.461751	1.511682	0.000179
 107	1.0547e+01	4.2239	9.016943	0.000406	4.056137	1.374256	0.000162
 108	1.0646e+01	4.2624	9.150168	0.000335	3.346313	1.133762	0.000134
 109	1.0746e+01	4.3154	9.279356	0.000324	3.244910	1.099405	0.000130
 110	1.0845e+01	4.3523	9.436805	0.000395	3.954734	1.339900	0.000158
 111	1.0945e+01	4.3892	9.602327	0.000416	4.157541	1.408613	0.000166
 112	1.1044e+01	4.4181	9.703256	0.000254	2.535086	0.858910	0.000101
 113	1.1144e+01	4.4598	9.844555	0.000355	3.549120	1.202474	0.000142
 114	1.1243e+01	4.5047	10.066598	0.000558	5.577189	1.889603	0.000223
 115	1.1343e+01	4.5480	10.183675	0.000294	2.940699	0.996336	0.000118
 116	1.1443e+01	4.5801	10.284603	0.000254	2.535086	0.858910	0.000101
 117	1.1542e+01	4.6138	10.474349	0.000477	4.765961	1.614751	0.000191
 118	1.1642e+01	4.6667	10.611611	0.000345	3.447717	1.168118	0.000138
 119	1.1741e+01	4.7100	10.744837	0.000335	3.346313	1.133762	0.000134
 120	1.1841e+01	4.7453	10.906322	0.000406	4.056137	1.374256	0.000162
 121	1.1940e+01	4.7710	11.027436	0.000304	3.042103	1.030692	0.000122
 122	1.2040e+01	4.8127	11.136439	0.000274	2.737893	0.927623	0.000110
 123	1.2139e+01	4.8576	11.289850	0.000385	3.853330	1.305544	0.000154
 124	1.2239e+01	4.8977	11.463447	0.000436	4.360347	1.477326	0.000174
 125	1.2338e+01	4.9362	11.592635	0.000324	3.244910	1.099405	0.000130
 126	1.2438e+01	4.9763	11.709712	0.000294	2.940699	0.996336	0.000118
 127	1.2537e+01	5.0212	11.875235	0.000416	4.157541	1.408613	0.000166
 128	1.2636e+01	5.0662	12.069017	0.000487	4.867365	1.649108	0.000195
 129	1.2736e+01	5.0983	12.178020	0.000274	2.737893	0.927623	0.000110
 130	1.2835e+01	5.1384	12.287023	0.000274	2.737893	0.927623	0.000110
 131	1.2935e+01	5.1833	12.444471	0.000395	3.954734	1.339900	0.000158
 132	1.3034e+01	5.2154	12.601919	0.000395	3.954734	1.339900	0.000158
 133	1.3134e+01	5.2587	12.755330	0.000385	3.853330	1.305544	0.000154
 134	1.3233e+01	5.3004	12.900667	0.000365	3.650523	1.236831	0.000146
 135	1.3333e+01	5.3453	13.046004	0.000365	3.650523	1.236831	0.000146
 136	1.3432e+01	5.3790	13.211527	0.000416	4.157541	1.408613	0.000166
 137	1.3532e+01	5.4095	13.344752	0.000335	3.346313	1.133762	0.000134
 138	1.3632e+01	5.4560	13.477978	0.000335	3.346313	1.133762	0.000134
 139	1.3731e+01	5.5057	13.627352	0.000375	3.751927	1.271187	0.000150
 140	1.3831e+01	5.5362	13.760577	0.000335	3.346313	1.133762	0.000134
 141	1.3930e+01	5.5827	13.954360	0.000487	4.867365	1.649108	0.000195
 142	1.4030e+01	5.6180	14.071437	0.000294	2.940699	0.996336	0.000118
 143	1.4129e+01	5.6565	14.224848	0.000385	3.853330	1.305544	0.000154
 144	1.4229e+01	5.6998	14.370185	0.000365	3.650523	1.236831	0.000146
 145	1.4328e+01	5.7415	14.511484	0.000355	3.549120	1.202474	0.000142
 146	1.4428e+01	5.7752	14.693156	0.000456	4.563154	1.546039	0.000183
 147	1.4527e+01	5.8105	14.830418	0.000345	3.447717	1.168118	0.000138
 148	1.4627e+01	5.8554	14.955569	0.000314	3.143506	1.065049	0.000126
 149	1.4726e+01	5.9020	15.153389	0.000497	4.968768	1.683464	0.000199
 150	1.4825e+01	5.9357	15.213946	0.000152	1.521051	0.515346	0.000061
 151	1.4925e+01	5.9806	15.407729	0.000487	4.867365	1.649108	0.000195
 152	1.5024e+01	6.0143	15.557103	0.000375	3.751927	1.271187	0.000150
 153	1.5124e+01	6.0624	15.686291	0.000324	3.244910	1.099405	0.000130
 154	1.5223e+01	6.0897	15.855851	0.000426	4.258944	1.442969	0.000170
 155	1.5323e+01	6.1362	16.025410	0.000426	4.258944	1.442969	0.000170
 156	1.5422e+01	6.1843	16.122302	0.000243	2.433682	0.824554	0.000097
 157	1.5522e+01	6.2180	16.255527	0.000335	3.346313	1.133762	0.000134
 158	1.5621e+01	6.2613	16.453347	0.000497	4.968768	1.683464	0.000199
 159	1.5721e+01	6.2918	16.594646	0.000355	3.549120	1.202474	0.000142
 160	1.5820e+01	6.3431	16.691538	0.000243	2.433682	0.824554	0.000097
 161	1.5920e+01	6.3688	16.917617	0.000568	5.678592	1.923959	0.000227
 162	1.6020e+01	6.4137	17.018546	0.000254	2.535086	0.858910	0.000101
 163	1.6119e+01	6.4426	17.180031	0.000406	4.056137	1.374256	0.000162
 164	1.6218e+01	6.4859	17.268848	0.000223	2.230875	0.755841	0.000089
 165	1.6318e+01	6.5308	17.490891	0.000558	5.577189	1.889603	0.000223
 166	1.6418e+01	6.5613	17.612005	0.000304	3.042103	1.030692	0.000122
 167	1.6517e+01	6.6143	17.753304	0.000355	3.549120	1.202474	0.000142
 168	1.6616e+01	6.6479	17.914790	0.000406	4.056137	1.374256	0.000162
 169	1.6716e+01	6.6864	18.052052	0.000345	3.447717	1.168118	0.000138
 170	1.6816e+01	6.7265	18.221612	0.000426	4.258944	1.442969	0.000170
 171	1.6915e+01	6.7699	18.334652	0.000284	2.839296	0.961980	0.000114
 172	1.7015e+01	6.8180	18.532472	0.000497	4.968768	1.683464	0.000199
 173	1.7114e+01	6.8565	18.669734	0.000345	3.447717	1.168118	0.000138
 174	1.7213e+01	6.8886	18.806997	0.000345	3.447717	1.168118	0.000138
 175	1.7313e+01	6.9351	18.984631	0.000446	4.461751	1.511682	0.000179
 176	1.7413e+01	6.9672	19.085559	0.000254	2.535086	0.858910	0.000101
 177	1.7512e+01	7.0153	19.275305	0.000477	4.765961	1.614751	0.000191
 178	1.7611e+01	7.0538	19.424679	0.000375	3.751927	1.271187	0.000150
 179	1.7711e+01	7.0827	19.561941	0.000345	3.447717	1.168118	0.000138
 180	1.7811e+01	7.1292	19.715352	0.000385	3.853330	1.305544	0.000154
 181	1.7910e+01	7.1709	19.852615	0.000345	3.447717	1.168118	0.000138
 182	1.8009e+01	7.2110	20.001989	0.000375	3.751927	1.271187	0.000150
 183	1.8109e+01	7.2495	20.143289	0.000355	3.549120	1.202474	0.000142
 184	1.8209e+01	7.2800	20.304774	0.000406	4.056137	1.374256	0.000162
 185	1.8308e+01	7.3281	20.458185	0.000385	3.853330	1.305544	0.000154
 186	1.8407e+01	7.3731	20.591411	0.000335	3.346313	1.133762	0.000134
 187	1.8507e+01	7.4003	20.748859	0.000395	3.954734	1.339900	0.000158
 188	1.8607e+01	7.4501	20.878047	0.000324	3.244910	1.099405	0.000130
 189	1.8706e+01	7.4918	21.039533	0.000406	4.056137	1.374256	0.000162
 190	1.8805e+01	7.5271	21.229278	0.000477	4.765961	1.614751	0.000191
 191	1.8905e+01	7.5704	21.334244	0.000264	2.636489	0.893267	0.000105
 192	1.9005e+01	7.6057	21.483618	0.000375	3.751927	1.271187	0.000150
 193	1.9104e+01	7.6458	21.645103	0.000406	4.056137	1.374256	0.000162
 194	1.9203e+01	7.6843	21.802552	0.000395	3.954734	1.339900	0.000158
 195	1.9303e+01	7.7276	21.935777	0.000335	3.346313	1.133762	0.000134
 196	1.9402e+01	7.7565	22.097262	0.000406	4.056137	1.374256	0.000162
 197	1.9502e+01	7.8078	22.198191	0.000254	2.535086	0.858910	0.000101
 198	1.9602e+01	7.8463	22.375825	0.000446	4.461751	1.511682	0.000179
 199	1.9701e+01	7.8800	22.525199	0.000375	3.751927	1.271187	0.000150
 200	1.9800e+01	7.9249	22.674573	0.000375	3.751927	1.271187	0.000150
 201	1.9900e+01	7.9746	22.815873	0.000355	3.549120	1.202474	0.000142
 202	2.0000e+01	8.0035	22.920838	0.000264	2.636489	0.893267	0.000105
 203	2.0099e+01	8.0484	23.106546	0.000466	4.664558	1.580395	0.000187
 204	2.0198e+01	8.0821	23.276106	0.000426	4.258944	1.442969	0.000170
 205	2.0298e+01	8.1335	23.433554	0.000395	3.954734	1.339900	0.000158
 206	2.0398e+01	8.1543	23.526409	0.000233	2.332279	0.790197	0.000093
 207	2.0497e+01	8.2089	23.704042	0.000446	4.461751	1.511682	0.000179
 208	2.0596e+01	8.2425	23.857454	0.000385	3.853330	1.305544	0.000154
 209	2.0696e+01	8.2859	24.010865	0.000385	3.853330	1.305544	0.000154
 210	2.0796e+01	8.3292	24.140053	0.000324	3.244910	1.099405	0.000130
 211	2.0895e+01	8.3629	24.269241	0.000324	3.244910	1.099405	0.000130
 212	2.0994e+01	8.4046	24.430727	0.000406	4.056137	1.374256	0.000162
 213	2.1094e+01	8.4447	24.551841	0.000304	3.042103	1.030692	0.000122
 214	2.1194e+01	8.4896	24.741586	0.000477	4.765961	1.614751	0.000191
 215	2.1293e+01	8.5169	24.866738	0.000314	3.143506	1.065049	0.000126
 216	2.1392e+01	8.5682	24.995926	0.000324	3.244910	1.099405	0.000130
 217	2.1492e+01	8.5971	25.157411	0.000406	4.056137	1.374256	0.000162
 218	2.1591e+01	8.6452	25.322934	0.000416	4.157541	1.408613	0.000166
 219	2.1691e+01	8.6869	25.452122	0.000324	3.244910	1.099405	0.000130
 220	2.1791e+01	8.7270	25.585348	0.000335	3.346313	1.133762	0.000134
 221	2.1890e+01	8.7623	25.750870	0.000416	4.157541	1.408613	0.000166
 222	2.1989e+01	8.8056	25.904281	0.000385	3.853330	1.305544	0.000154
 223	2.2089e+01	8.8457	26.049618	0.000365	3.650523	1.236831	0.000146
 224	2.2189e+01	8.8842	26.203030	0.000385	3.853330	1.305544	0.000154
 225	2.2288e+01	8.9260	26.320106	0.000294	2.940699	0.996336	0.000118
 226	2.2387e+01	8.9548	26.481592	0.000406	4.056137	1.374256	0.000162
 227	2.2487e+01	9.0030	26.602706	0.000304	3.042103	1.030692	0.000122
 228	2.2587e+01	9.0382	26.792451	0.000477	4.765961	1.614751	0.000191
 229	2.2686e+01	9.0751	26.909528	0.000294	2.940699	0.996336	0.000118
 230	2.2785e+01	9.1233	27.042754	0.000335	3.346313	1.133762	0.000134
 231	2.2885e+01	9.1586	27.159831	0.000294	2.940699	0.996336	0.000118
 232	2.2985e+01	9.2083	27.325353	0.000416	4.157541	1.408613	0.000166
 233	2.3084e+01	9.2436	27.478764	0.000385	3.853330	1.305544	0.000154
 234	2.3183e+01	9.2869	27.611990	0.000335	3.346313	1.133762	0.000134
 235	2.3283e+01	9.3206	27.761364	0.000375	3.751927	1.271187	0.000150
 236	2.3383e+01	9.3623	27.914775	0.000385	3.853330	1.305544	0.000154
 237	2.3482e+01	9.3960	28.035889	0.000304	3.042103	1.030692	0.000122
 238	2.3581e+01	9.4441	28.177189	0.000355	3.549120	1.202474	0.000142
 239	2.3681e+01	9.4826	28.334637	0.000395	3.954734	1.339900	0.000158
 240	2.3780e+01	9.5275	28.488048	0.000385	3.853330	1.305544	0.000154
 241	2.3880e+01	9.5548	28.584940	0.000243	2.433682	0.824554	0.000097
 242	2.3980e+01	9.5997	28.766611	0.000456	4.563154	1.546039	0.000183
 243	2.4079e+01	9.6495	28.883688	0.000294	2.940699	0.996336	0.000118
 244	2.4178e+01	9.6831	29.033062	0.000375	3.751927	1.271187	0.000150
 245	2.4278e+01	9.7136	29.154176	0.000304	3.042103	1.030692	0.000122
 246	2.4378e+01	9.7521	29.331810	0.000446	4.461751	1.511682	0.000179
 247	2.4477e+01	9.8019	29.489258	0.000395	3.954734	1.339900	0.000158
 248	2.4576e+01	9.8372	29.594224	0.000264	2.636489	0.893267	0.000105
 249	2.4676e+01	9.8741	29.747635	0.000385	3.853330	1.305544	0.000154
 250	2.4776e+01	9.9110	29.892972	0.000365	3.650523	1.236831	0.000146
 251	2.4875e+01	9.9543	30.046383	0.000385	3.853330	1.305544	0.000154
 252	2.4974e+01	10.0024	30.155385	0.000274	2.737893	0.927623	0.000110
 253	2.5074e+01	10.0313	30.324945	0.000426	4.258944	1.442969	0.000170
 254	2.5174e+01	10.0794	30.470282	0.000365	3.650523	1.236831	0.000146
 255	2.5273e+01	10.1147	30.583322	0.000284	2.839296	0.961980	0.000114
 256	2.5372e+01	10.1580	30.692324	0.000274	2.737893	0.927623	0.000110
 257	2.5472e+01	10.1837	30.829587	0.000345	3.447717	1.168118	0.000138
 258	2.5572e+01	10.2446	30.966850	0.000345	3.447717	1.168118	0.000138
 259	2.5671e+01	10.2783	31.108149	0.000355	3.549120	1.202474	0.000142
 260	2.5770e+01	10.3248	31.293858	0.000466	4.664558	1.580395	0.000187
 261	2.5870e+01	10.3601	31.414972	0.000304	3.042103	1.030692	0.000122
 262	2.5970e+01	10.3922	31.532049	0.000294	2.940699	0.996336	0.000118
 263	2.6069e+01	10.4355	31.669311	0.000345	3.447717	1.168118	0.000138
 264	2.6169e+01	10.4756	31.850982	0.000456	4.563154	1.546039	0.000183
 265	2.6268e+01	10.5125	31.955948	0.000264	2.636489	0.893267	0.000105
 266	2.6367e+01	10.5591	32.089173	0.000335	3.346313	1.133762	0.000134
 267	2.6467e+01	10.5911	32.234510	0.000365	3.650523	1.236831	0.000146
 268	2.6567e+01	10.6296	32.400033	0.000416	4.157541	1.408613	0.000166
 269	2.6666e+01	10.6714	32.541333	0.000355	3.549120	1.202474	0.000142
 270	2.6765e+01	10.7211	32.650335	0.000274	2.737893	0.927623	0.000110
 271	2.6865e+01	10.7564	32.823932	0.000436	4.360347	1.477326	0.000174
 272	2.6965e+01	10.8013	32.924861	0.000254	2.535086	0.858910	0.000101
 273	2.7064e+01	10.8318	33.058086	0.000335	3.346313	1.133762	0.000134
 274	2.7163e+01	10.8655	33.235720	0.000446	4.461751	1.511682	0.000179
 275	2.7263e+01	10.9216	33.332611	0.000243	2.433682	0.824554	0.000097
 276	2.7363e+01	10.9505	33.506208	0.000436	4.360347	1.477326	0.000174
 277	2.7462e+01	10.9922	33.619248	0.000284	2.839296	0.961980	0.000114
 278	2.7561e+01	11.0387	33.813030	0.000487	4.867365	1.649108	0.000195
 279	2.7661e+01	11.0740	33.934144	0.000304	3.042103	1.030692	0.000122
 280	2.7761e+01	11.1093	34.043147	0.000274	2.737893	0.927623	0.000110
 281	2.7860e+01	11.1510	34.192521	0.000375	3.751927	1.271187	0.000150
 282	2.7959e+01	11.1927	34.362081	0.000426	4.258944	1.442969	0.000170
 283	2.8059e+01	11.2280	34.515492	0.000385	3.853330	1.305544	0.000154
 284	2.8159e+01	11.2762	34.636606	0.000304	3.042103	1.030692	0.000122
 285	2.8258e+01	11.3098	34.761757	0.000314	3.143506	1.065049	0.000126
 286	2.8358e+01	11.3596	34.882871	0.000304	3.042103	1.030692	0.000122
 287	2.8457e+01	11.4093	35.036283	0.000385	3.853330	1.305544	0.000154
 288	2.8556e+01	11.4253	35.169508	0.000335	3.346313	1.133762	0.000134
 289	2.8656e+01	11.4719	35.278511	0.000274	2.737893	0.927623	0.000110
 290	2.8756e+01	11.5088	35.431922	0.000385	3.853330	1.305544	0.000154
 291	2.8855e+01	11.5569	35.609556	0.000446	4.461751	1.511682	0.000179
 292	2.8954e+01	11.5938	35.746818	0.000345	3.447717	1.168118	0.000138
 293	2.9054e+01	11.6307	35.839673	0.000233	2.332279	0.790197	0.000093
 294	2.9154e+01	11.6708	36.013269	0.000436	4.360347	1.477326	0.000174
 295	2.9253e+01	11.7061	36.138421	0.000314	3.143506	1.065049	0.000126
 296	2.9352e+01	11.7446	36.283757	0.000365	3.650523	1.236831	0.000146
 297	2.9452e+01	11.7943	36.412946	0.000324	3.244910	1.099405	0.000130
 298	2.9552e+01	11.8280	36.566357	0.000385	3.853330	1.305544	0.000154
 299	2.9651e+01	11.8665	36.695545	0.000324	3.244910	1.099405	0.000130
 300	2.9750e+01	11.9178	36.832808	0.000345	3.447717	1.168118	0.000138
 301	2.9850e+01	11.9451	36.953922	0.000304	3.042103	1.030692	0.000122
 302	2.9950e+01	11.9932	37.095222	0.000355	3.549120	1.202474	0.000142
 303	3.0049e+01	12.0285	37.220373	0.000314	3.143506	1.065049	0.000126
 304	3.0148e+01	12.0767	37.434341	0.000537	5.374382	1.820890	0.000215
 305	3.0248e+01	12.1087	37.482787	0.000122	1.216841	0.412277	0.000049
 306	3.0348e+01	12.1489	37.660421	0.000446	4.461751	1.511682	0.000179
 307	3.0447e+01	12.1906	37.801720	0.000355	3.549120	1.202474	0.000142
 308	3.0547e+01	12.2291	37.906686	0.000264	2.636489	0.893267	0.000105
 309	3.0646e+01	12.2740	38.104506	0.000497	4.968768	1.683464	0.000199
 310	3.0745e+01	12.3141	38.221583	0.000294	2.940699	0.996336	0.000118
 311	3.0845e+01	12.3542	38.374994	0.000385	3.853330	1.305544	0.000154
 312	3.0945e+01	12.3879	38.508219	0.000335	3.346313	1.133762	0.000134
 313	3.1044e+01	12.4264	38.661630	0.000385	3.853330	1.305544	0.000154
 314	3.1143e+01	12.4617	38.794856	0.000335	3.346313	1.133762	0.000134
 315	3.1243e+01	12.5098	38.920007	0.000314	3.143506	1.065049	0.000126
 316	3.1343e+01	12.5515	39.093604	0.000436	4.360347	1.477326	0.000174
 317	3.1442e+01	12.5948	39.202607	0.000274	2.737893	0.927623	0.000110
 318	3.1541e+01	12.6205	39.384278	0.000456	4.563154	1.546039	0.000183
 319	3.1641e+01	12.6670	39.481169	0.000243	2.433682	0.824554	0.000097
 320	3.1741e+01	12.7055	39.638617	0.000395	3.954734	1.339900	0.000158
 321	3.1840e+01	12.7440	39.763768	0.000314	3.143506	1.065049	0.000126
 322	3.1939e+01	12.7793	39.937365	0.000436	4.360347	1.477326	0.000174
 323	3.2039e+01	12.8194	40.066554	0.000324	3.244910	1.099405	0.000130
 324	3.2139e+01	12.8643	40.187668	0.000304	3.042103	1.030692	0.000122
 325	3.2238e+01	12.9077	40.345116	0.000395	3.954734	1.339900	0.000158
 326	3.2337e+01	12.9526	40.494490	0.000375	3.751927	1.271187	0.000150
 327	3.2437e+01	12.9798	40.603493	0.000274	2.737893	0.927623	0.000110
 328	3.2536e+01	13.0296	40.744792	0.000355	3.549120	1.202474	0.000142
 329	3.2636e+01	13.0601	40.918389	0.000436	4.360347	1.477326	0.000174
 330	3.2736e+01	13.1098	41.015281	0.000243	2.433682	0.824554	0.000097
 331	3.2835e+01	13.1371	41.184840	0.000426	4.258944	1.442969	0.000170
 332	3.2934e+01	13.1820	41.338251	0.000385	3.853330	1.305544	0.000154
 333	3.3034e+01	13.2285	41.459365	0.000304	3.042103	1.030692	0.000122
 334	3.3133e+01	13.2574	41.616814	0.000395	3.954734	1.339900	0.000158
 335	3.3233e+01	13.2975	41.701594	0.000213	2.129472	0.721485	0.000085
 336	3.3333e+01	13.3408	41.879228	0.000446	4.461751	1.511682	0.000179
 337	3.3432e+01	13.3841	42.016490	0.000345	3.447717	1.168118	0.000138
 338	3.3532e+01	13.4226	42.141641	0.000314	3.143506	1.065049	0.000126
 339	3.3631e+01	13.4627	42.351572	0.000527	5.272978	1.786533	0.000211
 340	3.3730e+01	13.4916	42.436352	0.000213	2.129472	0.721485	0.000085
 341	3.3830e+01	13.5429	42.565541	0.000324	3.244910	1.099405	0.000130
 342	3.3929e+01	13.5766	42.727026	0.000406	4.056137	1.374256	0.000162
 343	3.4029e+01	13.6183	42.892549	0.000416	4.157541	1.408613	0.000166
 344	3.4129e+01	13.6633	43.009626	0.000294	2.940699	0.996336	0.000118
 345	3.4228e+01	13.7114	43.175148	0.000416	4.157541	1.408613	0.000166
 346	3.4328e+01	13.7403	43.316448	0.000355	3.549120	1.202474	0.000142
 347	3.4427e+01	13.7836	43.413339	0.000243	2.433682	0.824554	0.000097
 348	3.4526e+01	13.8237	43.603085	0.000477	4.765961	1.614751	0.000191
 349	3.4626e+01	13.8670	43.740347	0.000345	3.447717	1.168118	0.000138
 350	3.4725e+01	13.8975	43.873573	0.000335	3.346313	1.133762	0.000134
 351	3.4825e+01	13.9360	44.002761	0.000324	3.244910	1.099405	0.000130
 352	3.4925e+01	13.9921	44.135986	0.000335	3.346313	1.133762	0.000134
 353	3.5024e+01	14.0226	44.301509	0.000416	4.157541	1.408613	0.000166
 354	3.5123e+01	14.0579	44.422623	0.000304	3.042103	1.030692	0.000122
 355	3.5223e+01	14.1012	44.563923	0.000355	3.549120	1.202474	0.000142
 356	3.5322e+01	14.1413	44.729445	0.000416	4.157541	1.408613	0.000166
 357	3.5422e+01	14.1782	44.858634	0.000324	3.244910	1.099405	0.000130
 358	3.5522e+01	14.2215	44.995896	0.000345	3.447717	1.168118	0.000138
 359	3.5621e+01	14.2552	45.133159	0.000345	3.447717	1.168118	0.000138
 360	3.5721e+01	14.2953	45.254273	0.000304	3.042103	1.030692	0.000122
 361	3.5820e+01	14.3450	45.363276	0.000274	2.737893	0.927623	0.000110
 362	3.5919e+01	14.3868	45.544947	0.000456	4.563154	1.546039	0.000183
 363	3.6019e+01	14.4204	45.698358	0.000385	3.853330	1.305544	0.000154
 364	3.6118e+01	14.4493	45.867918	0.000426	4.258944	1.442969	0.000170
 365	3.6218e+01	14.4958	45.956735	0.000223	2.230875	0.755841	0.000089
 366	3.6318e+01	14.5392	46.093997	0.000345	3.447717	1.168118	0.000138
 367	3.6417e+01	14.5809	46.223186	0.000324	3.244910	1.099405	0.000130
 368	3.6517e+01	14.6130	46.400820	0.000446	4.461751	1.511682	0.000179
 369	3.6616e+01	14.6579	46.570379	0.000426	4.258944	1.442969	0.000170
 370	3.6715e+01	14.6932	46.651122	0.000203	2.028069	0.687128	0.000081
 371	3.6815e+01	14.7381	46.812607	0.000406	4.056137	1.374256	0.000162
 372	3.6914e+01	14.7750	46.941796	0.000324	3.244910	1.099405	0.000130
 373	3.7014e+01	14.8103	47.087133	0.000365	3.650523	1.236831	0.000146
 374	3.7114e+01	14.8552	47.188061	0.000254	2.535086	0.858910	0.000101
 375	3.7213e+01	14.9033	47.393955	0.000517	5.171575	1.752177	0.000207
 376	3.7313e+01	14.9338	47.527180	0.000335	3.346313	1.133762	0.000134
 377	3.7412e+01	14.9755	47.640220	0.000284	2.839296	0.961980	0.000114
 378	3.7511e+01	15.0252	47.789594	0.000375	3.751927	1.271187	0.000150
 379	3.7611e+01	15.0637	47.947043	0.000395	3.954734	1.339900	0.000158
 380	3.7711e+01	15.0990	48.060082	0.000284	2.839296	0.961980	0.000114
 381	3.7810e+01	15.1327	48.209456	0.000375	3.751927	1.271187	0.000150
 382	3.7910e+01	15.1873	48.362868	0.000385	3.853330	1.305544	0.000154
 383	3.8009e+01	15.2178	48.512242	0.000375	3.751927	1.271187	0.000150
 384	3.8108e+01	15.2530	48.625281	0.000284	2.839296	0.961980	0.000114
 385	3.8208e+01	15.2932	48.774655	0.000375	3.751927	1.271187	0.000150
 386	3.8307e+01	15.3349	48.928067	0.000385	3.853330	1.305544	0.000154
 387	3.8407e+01	15.3653	49.053218	0.000314	3.143506	1.065049	0.000126
 388	3.8507e+01	15.4215	49.158183	0.000264	2.636489	0.893267	0.000105
 389	3.8606e+01	15.4520	49.295446	0.000345	3.447717	1.168118	0.000138
 390	3.8706e+01	15.4889	49.444820	0.000375	3.751927	1.271187	0.000150
 391	3.8805e+01	15.5370	49.598231	0.000385	3.853330	1.305544	0.000154
 392	3.8904e+01	15.5723	49.735494	0.000345	3.447717	1.168118	0.000138
 393	3.9004e+01	15.6188	49.872756	0.000345	3.447717	1.168118	0.000138
 394	3.9103e+01	15.6605	50.001945	0.000324	3.244910	1.099405	0.000130
 395	3.9203e+01	15.6910	50.167467	0.000416	4.157541	1.408613	0.000166
 396	3.9303e+01	15.7295	50.288581	0.000304	3.042103	1.030692	0.000122
 397	3.9402e+01	15.7696	50.397584	0.000274	2.737893	0.927623	0.000110
 398	3.9502e+01	15.8161	50.526772	0.000324	3.244910	1.099405	0.000130
 399	3.9601e+01	15.8562	50.688258	0.000406	4.056137	1.374256	0.000162
 400	3.9700e+01	15.8979	50.801298	0.000284	2.839296	0.961980	0.000114
 401	3.9800e+01	15.9364	50.946634	0.000365	3.650523	1.236831	0.000146
 402	3.9900e+01	15.9733	51.087934	0.000355	3.549120	1.202474	0.000142
 403	3.9999e+01	16.0151	51.221160	0.000335	3.346313	1.133762	0.000134
 404	4.0099e+01	16.0520	51.378608	0.000395	3.954734	1.339900	0.000158
 405	4.0198e+01	16.0921	51.503759	0.000314	3.143506	1.065049	0.000126
 406	4.0297e+01	16.1338	51.616799	0.000284	2.839296	0.961980	0.000114
 407	4.0397e+01	16.1691	51.766173	0.000375	3.751927	1.271187	0.000150
 408	4.0496e+01	16.2092	51.895361	0.000324	3.244910	1.099405	0.000130
 409	4.0596e+01	16.2525	52.052810	0.000395	3.954734	1.339900	0.000158
 410	4.0696e+01	16.2910	52.169887	0.000294	2.940699	0.996336	0.000118
 411	4.0795e+01	16.3311	52.323298	0.000385	3.853330	1.305544	0.000154
 412	4.0895e+01	16.3728	52.464597	0.000355	3.549120	1.202474	0.000142
 413	4.0994e+01	16.4097	52.573600	0.000274	2.737893	0.927623	0.000110
 414	4.1093e+01	16.4450	52.706826	0.000335	3.346313	1.133762	0.000134
 415	4.1193e+01	16.4899	52.848125	0.000355	3.549120	1.202474	0.000142
 416	4.1292e+01	16.5236	52.977314	0.000324	3.244910	1.099405	0.000130
 417	4.1392e+01	16.5669	53.102465	0.000314	3.143506	1.065049	0.000126
 418	4.1492e+01	16.6054	53.251839	0.000375	3.751927	1.271187	0.000150
 419	4.1591e+01	16.6632	53.385064	0.000335	3.346313	1.133762	0.000134
 420	4.1691e+01	16.6888	53.506179	0.000304	3.042103	1.030692	0.000122
 421	4.1790e+01	16.7289	53.647478	0.000355	3.549120	1.202474	0.000142
 422	4.1889e+01	16.7626	53.748407	0.000254	2.535086	0.858910	0.000101
 423	4.1989e+01	16.8140	53.893744	0.000365	3.650523	1.236831	0.000146
 424	4.2089e+01	16.8541	54.043118	0.000375	3.751927	1.271187	0.000150
 425	4.2188e+01	16.8878	54.176343	0.000335	3.346313	1.133762	0.000134
 426	4.2288e+01	16.9263	54.321680	0.000365	3.650523	1.236831	0.000146
 427	4.2387e+01	16.9648	54.426645	0.000264	2.636489	0.893267	0.000105
 428	4.2486e+01	17.0049	54.563908	0.000345	3.447717	1.168118	0.000138
 429	4.2586e+01	17.0418	54.660799	0.000243	2.433682	0.824554	0.000097
 430	4.2685e+01	17.0899	54.814210	0.000385	3.853330	1.305544	0.000154
 431	4.2785e+01	17.1220	54.963585	0.000375	3.751927	1.271187	0.000150
 432	4.2885e+01	17.1621	55.096810	0.000335	3.346313	1.133762	0.000134
 433	4.2984e+01	17.2038	55.197738	0.000254	2.535086	0.858910	0.000101
 434	4.3084e+01	17.2423	55.383447	0.000466	4.664558	1.580395	0.000187
 435	4.3183e+01	17.2904	55.468226	0.000213	2.129472	0.721485	0.000085
 436	4.3282e+01	17.3337	55.589341	0.000304	3.042103	1.030692	0.000122
 437	4.3382e+01	17.3658	55.754863	0.000416	4.157541	1.408613	0.000166
 438	4.3481e+01	17.4027	55.875977	0.000304	3.042103	1.030692	0.000122
 439	4.3581e+01	17.4396	56.001128	0.000314	3.143506	1.065049	0.000126
 440	4.3681e+01	17.4926	56.118205	0.000294	2.940699	0.996336	0.000118
 441	4.3780e+01	17.5262	56.299876	0.000456	4.563154	1.546039	0.000183
 442	4.3880e+01	17.5728	56.412916	0.000284	2.839296	0.961980	0.000114
 443	4.3979e+01	17.6113	56.505770	0.000233	2.332279	0.790197	0.000093
 444	4.4078e+01	17.6530	56.703590	0.000497	4.968768	1.683464	0.000199
 445	4.4178e+01	17.6819	56.808556	0.000264	2.636489	0.893267	0.000105
 446	4.4278e+01	17.7284	56.957930	0.000375	3.751927	1.271187	0.000150
 447	4.4377e+01	17.7701	57.087118	0.000324	3.244910	1.099405	0.000130
 448	4.4477e+01	17.8054	57.220343	0.000335	3.346313	1.133762	0.000134
 449	4.4576e+01	17.8503	57.381829	0.000406	4.056137	1.374256	0.000162
 450	4.4675e+01	17.8776	57.470646	0.000223	2.230875	0.755841	0.000089
 451	4.4775e+01	17.9273	57.615983	0.000365	3.650523	1.236831	0.000146
 452	4.4874e+01	17.9562	57.801691	0.000466	4.664558	1.580395	0.000187
 453	4.4974e+01	18.0091	57.858211	0.000142	1.419648	0.480990	0.000057
 454	4.5074e+01	18.0460	58.015659	0.000395	3.954734	1.339900	0.000158
 455	4.5173e+01	18.0733	58.140810	0.000314	3.143506	1.065049	0.000126
 456	4.5273e+01	18.1246	58.241739	0.000254	2.535086	0.858910	0.000101
 457	4.5372e+01	18.1711	58.411298	0.000426	4.258944	1.442969	0.000170
 458	4.5471e+01	18.2000	58.552598	0.000355	3.549120	1.202474	0.000142
 459	4.5571e+01	18.2481	58.689861	0.000345	3.447717	1.168118	0.000138
 460	4.5670e+01	18.2866	58.794826	0.000264	2.636489	0.893267	0.000105
 461	4.5770e+01	18.3107	58.952275	0.000395	3.954734	1.339900	0.000158
 462	4.5870e+01	18.3669	59.065314	0.000284	2.839296	0.961980	0.000114
 463	4.5969e+01	18.3941	59.174317	0.000274	2.737893	0.927623	0.000110
 464	4.6069e+01	18.4439	59.311580	0.000345	3.447717	1.168118	0.000138
 465	4.6168e+01	18.4856	59.448842	0.000345	3.447717	1.168118	0.000138
 466	4.6267e+01	18.5241	59.590142	0.000355	3.549120	1.202474	0.000142
 467	4.6367e+01	18.5562	59.703182	0.000284	2.839296	0.961980	0.000114
 468	4.6467e+01	18.6027	59.856593	0.000385	3.853330	1.305544	0.000154
 469	4.6566e+01	18.6492	59.961559	0.000264	2.636489	0.893267	0.000105
 470	4.6666e+01	18.6813	60.135155	0.000436	4.360347	1.477326	0.000174
 471	4.6765e+01	18.7182	60.256269	0.000304	3.042103	1.030692	0.000122
 472	4.6864e+01	18.7631	60.385458	0.000324	3.244910	1.099405	0.000130
 473	4.6964e+01	18.8048	60.530795	0.000365	3.650523	1.236831	0.000146
 474	4.7063e+01	18.8481	60.659983	0.000324	3.244910	1.099405	0.000130
 475	4.7163e+01	18.8834	60.768986	0.000274	2.737893	0.927623	0.000110
 476	4.7263e+01	18.9107	60.926434	0.000395	3.954734	1.339900	0.000158
 477	4.7362e+01	18.9620	61.079845	0.000385	3.853330	1.305544	0.000154
 478	4.7462e+01	19.0070	61.188848	0.000274	2.737893	0.927623	0.000110
 479	4.7561e+01	19.0294	61.358408	0.000426	4.258944	1.442969	0.000170
 480	4.7660e+01	19.0823	61.467410	0.000274	2.737893	0.927623	0.000110
 481	4.7760e+01	19.1241	61.596599	0.000324	3.244910	1.099405	0.000130
 482	4.7859e+01	19.1577	61.737898	0.000355	3.549120	1.202474	0.000142
 483	4.7959e+01	19.2027	61.875161	0.000345	3.447717	1.168118	0.000138
 484	4.8059e+01	19.2396	62.004349	0.000324	3.244910	1.099405	0.000130
 485	4.8158e+01	19.2861	62.125463	0.000304	3.042103	1.030692	0.000122
 486	4.8258e+01	19.3246	62.307134	0.000456	4.563154	1.546039	0.000183
 487	4.8357e+01	19.3567	62.395951	0.000223	2.230875	0.755841	0.000089
 488	4.8456e+01	19.3952	62.504954	0.000274	2.737893	0.927623	0.000110
 489	4.8556e+01	19.4369	62.650291	0.000365	3.650523	1.236831	0.000146
 490	4.8656e+01	19.4786	62.811776	0.000406	4.056137	1.374256	0.000162
 491	4.8755e+01	19.5171	62.953076	0.000355	3.549120	1.202474	0.000142
 492	4.8855e+01	19.5636	63.074190	0.000304	3.042103	1.030692	0.000122
 493	4.8954e+01	19.5973	63.215490	0.000355	3.549120	1.202474	0.000142
 494	4.9053e+01	19.6406	63.320455	0.000264	2.636489	0.893267	0.000105
 495	4.9153e+01	19.6775	63.465792	0.000365	3.650523	1.236831	0.000146
 496	4.9252e+01	19.7224	63.627278	0.000406	4.056137	1.374256	0.000162
 497	4.9352e+01	19.7577	63.752429	0.000314	3.143506	1.065049	0.000126
 498	4.9452e+01	19.8026	63.881617	0.000324	3.244910	1.099405	0.000130
 499	4.9551e+01	19.8331	64.002731	0.000304	3.042103	1.030692	0.000122
 500	4.9651e+01	19.8764	64.091548	0.000223	2.230875	0.755841	0.000089
 501	4.9750e+01	19.9085	64.289368	0.000497	4.968768	1.683464	0.000199
 502	4.9849e+01	19.9631	64.418556	0.000324	3.244910	1.099405	0.000130
 503	4.9949e+01	19.9887	64.511411	0.000233	2.332279	0.790197	0.000093
 504	5.0048e+01	19.9534	64.442779	0.000172	1.723858	0.584059	-0.000069
 505	5.0148e+01	19.9133	64.362037	0.000203	2.028069	0.687128	-0.000081
 506	5.0248e+01	19.8716	64.301479	0.000152	1.521051	0.515346	-0.000061
 507	5.0347e+01	19.8315	64.168254	0.000335	3.346313	1.133762	-0.000134
 508	5.0447e+01	19.7978	64.075400	0.000233	2.332279	0.790197	-0.000093
 509	5.0546e+01	19.7625	63.966397	0.000274	2.737893	0.927623	-0.000110
 510	5.0645e+01	19.7160	63.869506	0.000243	2.433682	0.824554	-0.000097
 511	5.0745e+01	19.6743	63.764540	0.000264	2.636489	0.893267	-0.000105
 512	5.0844e+01	19.6438	63.659575	0.000264	2.636489	0.893267	-0.000105
 513	5.0944e+01	19.5893	63.582869	0.000193	1.926665	0.652772	-0.000077
 514	5.1044e+01	19.5620	63.481941	0.000254	2.535086	0.858910	-0.000101
 515	5.1143e+01	19.5155	63.360827	0.000304	3.042103	1.030692	-0.000122
 516	5.1242e+01	19.4722	63.255861	0.000264	2.636489	0.893267	-0.000105
 517	5.1342e+01	19.4385	63.175119	0.000203	2.028069	0.687128	-0.000081
 518	5.1441e+01	19.3936	63.029782	0.000365	3.650523	1.236831	-0.000146
 519	5.1541e+01	19.3583	62.945002	0.000213	2.129472	0.721485	-0.000085
 520	5.1641e+01	19.3246	62.827925	0.000294	2.940699	0.996336	-0.000118
 521	5.1740e+01	19.2845	62.726997	0.000254	2.535086	0.858910	-0.000101
 522	5.1840e+01	19.2412	62.626068	0.000254	2.535086	0.858910	-0.000101
 523	5.1939e+01	19.2059	62.521103	0.000264	2.636489	0.893267	-0.000105
 524	5.2038e+01	19.1529	62.412100	0.000274	2.737893	0.927623	-0.000110
 525	5.2138e+01	19.1225	62.274837	0.000345	3.447717	1.168118	-0.000138
 526	5.2237e+01	19.0791	62.181983	0.000233	2.332279	0.790197	-0.000093
 527	5.2337e+01	19.0422	62.081055	0.000254	2.535086	0.858910	-0.000101
 528	5.2437e+01	19.0021	61.972052	0.000274	2.737893	0.927623	-0.000110
 529	5.2536e+01	18.9636	61.854975	0.000294	2.940699	0.996336	-0.000118
 530	5.2636e+01	18.9299	61.754047	0.000254	2.535086	0.858910	-0.000101
 531	5.2735e+01	18.8818	61.596599	0.000395	3.954734	1.339900	-0.000158
 532	5.2834e+01	18.8417	61.523930	0.000183	1.825262	0.618415	-0.000073
 533	5.2934e+01	18.7968	61.414927	0.000274	2.737893	0.927623	-0.000110
 534	5.3033e+01	18.7647	61.318036	0.000243	2.433682	0.824554	-0.000097
 535	5.3133e+01	18.7150	61.184811	0.000335	3.346313	1.133762	-0.000134
 536	5.3233e+01	18.6765	61.063697	0.000304	3.042103	1.030692	-0.000122
 537	5.3332e+01	18.6444	60.966805	0.000243	2.433682	0.824554	-0.000097
 538	5.3431e+01	18.6091	60.869914	0.000243	2.433682	0.824554	-0.000097
 539	5.3531e+01	18.5578	60.736689	0.000335	3.346313	1.133762	-0.000134
 540	5.3630e+01	18.5193	60.611537	0.000314	3.143506	1.065049	-0.000126
 541	5.3730e+01	18.4888	60.510609	0.000254	2.535086	0.858910	-0.000101
 542	5.3830e+01	18.4374	60.401606	0.000274	2.737893	0.927623	-0.000110
 543	5.3929e+01	18.4006	60.288567	0.000284	2.839296	0.961980	-0.000114
 544	5.4029e+01	18.3572	60.175527	0.000284	2.839296	0.961980	-0.000114
 545	5.4128e+01	18.3348	60.070561	0.000264	2.636489	0.893267	-0.000105
 546	5.4227e+01	18.2915	59.981744	0.000223	2.230875	0.755841	-0.000089
 547	5.4327e+01	18.2369	59.832370	0.000375	3.751927	1.271187	-0.000150
 548	5.4426e+01	18.1968	59.743553	0.000223	2.230875	0.755841	-0.000089
 549	5.4526e+01	18.1663	59.598216	0.000365	3.650523	1.236831	-0.000146
 550	5.4626e+01	18.1342	59.529585	0.000172	1.723858	0.584059	-0.000069
 551	5.4725e+01	18.0829	59.400397	0.000324	3.244910	1.099405	-0.000130
 552	5.4825e+01	18.0428	59.263134	0.000345	3.447717	1.168118	-0.000138
 553	5.4924e+01	18.0027	59.158169	0.000264	2.636489	0.893267	-0.000105
 554	5.5023e+01	17.9674	59.057240	0.000254	2.535086	0.858910	-0.000101
 555	5.5123e+01	17.9273	58.903829	0.000385	3.853330	1.305544	-0.000154
 556	5.5222e+01	17.8936	58.806938	0.000243	2.433682	0.824554	-0.000097
 557	5.5322e+01	17.8439	58.665638	0.000355	3.549120	1.202474	-0.000142
 558	5.5422e+01	17.7990	58.568747	0.000243	2.433682	0.824554	-0.000097
 559	5.5521e+01	17.7685	58.475893	0.000233	2.332279	0.790197	-0.000093
 560	5.5620e+01	17.7284	58.330556	0.000365	3.650523	1.236831	-0.000146
 561	5.5720e+01	17.6802	58.209442	0.000304	3.042103	1.030692	-0.000122
 562	5.5819e+01	17.6434	58.080253	0.000324	3.244910	1.099405	-0.000130
 563	5.5919e+01	17.6065	57.967213	0.000284	2.839296	0.961980	-0.000114
 564	5.6019e+01	17.5680	57.874359	0.000233	2.332279	0.790197	-0.000093
 565	5.6118e+01	17.5246	57.749208	0.000314	3.143506	1.065049	-0.000126
 566	5.6218e+01	17.4926	57.632131	0.000294	2.940699	0.996336	-0.000118
 567	5.6317e+01	17.4364	57.494869	0.000345	3.447717	1.168118	-0.000138
 568	5.6416e+01	17.4123	57.369717	0.000314	3.143506	1.065049	-0.000126
 569	5.6516e+01	17.3610	57.236492	0.000335	3.346313	1.133762	-0.000134
 570	5.6615e+01	17.3257	57.159786	0.000193	1.926665	0.652772	-0.000077
 571	5.6715e+01	17.2760	57.002338	0.000395	3.954734	1.339900	-0.000158
 572	5.6815e+01	17.2471	56.865075	0.000345	3.447717	1.168118	-0.000138
 573	5.6914e+01	17.2102	56.768184	0.000243	2.433682	0.824554	-0.000097
 574	5.7014e+01	17.1685	56.651107	0.000294	2.940699	0.996336	-0.000118
 575	5.7113e+01	17.1284	56.509807	0.000355	3.549120	1.202474	-0.000142
 576	5.7212e+01	17.0883	56.404842	0.000264	2.636489	0.893267	-0.000105
 577	5.7312e+01	17.0498	56.267579	0.000345	3.447717	1.168118	-0.000138
 578	5.7411e+01	17.0161	56.182799	0.000213	2.129472	0.721485	-0.000085
 579	5.7511e+01	16.9712	56.045537	0.000345	3.447717	1.168118	-0.000138
 580	5.7611e+01	16.9263	55.940571	0.000264	2.636489	0.893267	-0.000105
 581	5.7710e+01	16.8910	55.815420	0.000314	3.143506	1.065049	-0.000126
 582	5.7809e+01	16.8525	55.738715	0.000193	1.926665	0.652772	-0.000077
 583	5.7909e+01	16.8075	55.597415	0.000355	3.549120	1.202474	-0.000142
 584	5.8008e+01	16.7642	55.456115	0.000355	3.549120	1.202474	-0.000142
 585	5.8108e+01	16.7386	55.335001	0.000304	3.042103	1.030692	-0.000122
 586	5.8208e+01	16.6904	55.181590	0.000385	3.853330	1.305544	-0.000154
 587	5.8307e+01	16.6535	55.056439	0.000314	3.143506	1.065049	-0.000126
 588	5.8407e+01	16.6118	54.931287	0.000314	3.143506	1.065049	-0.000126
 589	5.8506e+01	16.5733	54.810173	0.000304	3.042103	1.030692	-0.000122
 590	5.8605e+01	16.5348	54.652725	0.000395	3.954734	1.339900	-0.000158
 591	5.8705e+01	16.4883	54.559871	0.000233	2.332279	0.790197	-0.000093
 592	5.8804e+01	16.4562	54.434720	0.000314	3.143506	1.065049	-0.000126
 593	5.8904e+01	16.4177	54.329754	0.000264	2.636489	0.893267	-0.000105
 594	5.9004e+01	16.3664	54.148083	0.000456	4.563154	1.546039	-0.000183
 595	5.9103e+01	16.3327	54.087526	0.000152	1.521051	0.515346	-0.000061
 596	5.9203e+01	16.2926	53.934115	0.000385	3.853330	1.305544	-0.000154
 597	5.9302e+01	16.2557	53.853372	0.000203	2.028069	0.687128	-0.000081
 598	5.9401e+01	16.2188	53.687850	0.000416	4.157541	1.408613	-0.000166
 599	5.9501e+01	16.1771	53.594995	0.000233	2.332279	0.790197	-0.000093
 600	5.9600e+01	16.1322	53.445621	0.000375	3.751927	1.271187	-0.000150
 601	5.9700e+01	16.0937	53.304322	0.000355	3.549120	1.202474	-0.000142
 602	5.9800e+01	16.0536	53.183208	0.000304	3.042103	1.030692	-0.000122
 603	5.9899e+01	16.0183	53.054019	0.000324	3.244910	1.099405	-0.000130
 604	5.9998e+01	15.9701	52.945017	0.000274	2.737893	0.927623	-0.000110
 605	6.0098e+01	15.9397	52.807754	0.000345	3.447717	1.168118	-0.000138
 606	6.0197e+01	15.8755	52.682603	0.000314	3.143506	1.065049	-0.000126
 607	6.0297e+01	15.8482	52.593786	0.000223	2.230875	0.755841	-0.000089
 608	6.0397e+01	15.8193	52.420189	0.000436	4.360347	1.477326	-0.000174
 609	6.0496e+01	15.7712	52.299075	0.000304	3.042103	1.030692	-0.000122
 610	6.0596e+01	15.7327	52.161812	0.000345	3.447717	1.168118	-0.000138
 611	6.0695e+01	15.6910	52.089144	0.000183	1.825262	0.618415	-0.000073
 612	6.0794e+01	15.6573	51.939770	0.000375	3.751927	1.271187	-0.000150
 613	6.0894e+01	15.6060	51.830767	0.000274	2.737893	0.927623	-0.000110
 614	6.0993e+01	15.5803	51.705616	0.000314	3.143506	1.065049	-0.000126
 615	6.1093e+01	15.5322	51.580465	0.000314	3.143506	1.065049	-0.000126
 616	6.1193e+01	15.4969	51.447239	0.000335	3.346313	1.133762	-0.000134
 617	6.1292e+01	15.4488	51.285754	0.000406	4.056137	1.374256	-0.000162
 618	6.1392e+01	15.4199	51.192900	0.000233	2.332279	0.790197	-0.000093
 619	6.1491e+01	15.3798	51.079860	0.000284	2.839296	0.961980	-0.000114
 620	6.1590e+01	15.3365	50.922412	0.000395	3.954734	1.339900	-0.000158
 621	6.1690e+01	15.3012	50.797260	0.000314	3.143506	1.065049	-0.000126
 622	6.1789e+01	15.2498	50.651924	0.000365	3.650523	1.236831	-0.000146
 623	6.1889e+01	15.2210	50.559069	0.000233	2.332279	0.790197	-0.000093
 624	6.1989e+01	15.1809	50.446030	0.000284	2.839296	0.961980	-0.000114
 625	6.2088e+01	15.1343	50.324916	0.000304	3.042103	1.030692	-0.000122
 626	6.2188e+01	15.0990	50.183616	0.000355	3.549120	1.202474	-0.000142
 627	6.2287e+01	15.0509	50.082687	0.000254	2.535086	0.858910	-0.000101
 628	6.2386e+01	15.0204	49.941388	0.000355	3.549120	1.202474	-0.000142
 629	6.2486e+01	14.9803	49.779902	0.000406	4.056137	1.374256	-0.000162
 630	6.2586e+01	14.9386	49.691085	0.000223	2.230875	0.755841	-0.000089
 631	6.2685e+01	14.8985	49.541711	0.000375	3.751927	1.271187	-0.000150
 632	6.2785e+01	14.8504	49.396374	0.000365	3.650523	1.236831	-0.000146
 633	6.2884e+01	14.8183	49.287372	0.000274	2.737893	0.927623	-0.000110
 634	6.2983e+01	14.7782	49.174332	0.000284	2.839296	0.961980	-0.000114
 635	6.3083e+01	14.7333	49.045144	0.000324	3.244910	1.099405	-0.000130
 636	6.3182e+01	14.6980	48.903844	0.000355	3.549120	1.202474	-0.000142
 637	6.3282e+01	14.6611	48.798878	0.000264	2.636489	0.893267	-0.000105
 638	6.3382e+01	14.6162	48.681801	0.000294	2.940699	0.996336	-0.000118
 639	6.3481e+01	14.5841	48.512242	0.000426	4.258944	1.442969	-0.000170
 640	6.3581e+01	14.5440	48.427462	0.000213	2.129472	0.721485	-0.000085
 641	6.3680e+01	14.4975	48.286162	0.000355	3.549120	1.202474	-0.000142
 642	6.3779e+01	14.4622	48.177159	0.000274	2.737893	0.927623	-0.000110
 643	6.3879e+01	14.4188	48.027785	0.000375	3.751927	1.271187	-0.000150
 644	6.3978e+01	14.3900	47.914746	0.000284	2.839296	0.961980	-0.000114
 645	6.4078e+01	14.3450	47.801706	0.000284	2.839296	0.961980	-0.000114
 646	6.4177e+01	14.3049	47.648295	0.000385	3.853330	1.305544	-0.000154
 647	6.4277e+01	14.2536	47.527180	0.000304	3.042103	1.030692	-0.000122
 648	6.4376e+01	14.2263	47.406066	0.000304	3.042103	1.030692	-0.000122
 649	6.4476e+01	14.1846	47.284952	0.000304	3.042103	1.030692	-0.000122
 650	6.4576e+01	14.1349	47.151727	0.000335	3.346313	1.133762	-0.000134
 651	6.4675e+01	14.0996	47.038687	0.000284	2.839296	0.961980	-0.000114
 652	6.4775e+01	14.0579	46.933722	0.000264	2.636489	0.893267	-0.000105
 653	6.4874e+01	14.0210	46.760125	0.000436	4.360347	1.477326	-0.000174
 654	6.4974e+01	13.9777	46.651122	0.000274	2.737893	0.927623	-0.000110
 655	6.5073e+01	13.9392	46.538082	0.000284	2.839296	0.961980	-0.000114
 656	6.5172e+01	13.8959	46.412931	0.000314	3.143506	1.065049	-0.000126
 657	6.5272e+01	13.8542	46.267594	0.000365	3.650523	1.236831	-0.000146
 658	6.5371e+01	13.8173	46.126294	0.000355	3.549120	1.202474	-0.000142
 659	6.5471e+01	13.7836	46.013255	0.000284	2.839296	0.961980	-0.000114
 660	6.5570e+01	13.7483	45.884066	0.000324	3.244910	1.099405	-0.000130
 661	6.5670e+01	13.7050	45.750841	0.000335	3.346313	1.133762	-0.000134
 662	6.5769e+01	13.6552	45.666061	0.000213	2.129472	0.721485	-0.000085
 663	6.5869e+01	13.6151	45.524761	0.000355	3.549120	1.202474	-0.000142
 664	6.5969e+01	13.5782	45.387499	0.000345	3.447717	1.168118	-0.000138
 665	6.6068e+01	13.5429	45.258310	0.000324	3.244910	1.099405	-0.000130
 666	6.6168e+01	13.5076	45.157382	0.000254	2.535086	0.858910	-0.000101
 667	6.6267e+01	13.4627	45.028193	0.000324	3.244910	1.099405	-0.000130
 668	6.6367e+01	13.4178	44.862671	0.000416	4.157541	1.408613	-0.000166
 669	6.6466e+01	13.3761	44.781928	0.000203	2.028069	0.687128	-0.000081
 670	6.6566e+01	13.3376	44.668888	0.000284	2.839296	0.961980	-0.000114
 671	6.6665e+01	13.2943	44.527589	0.000355	3.549120	1.202474	-0.000142
 672	6.6764e+01	13.2702	44.390326	0.000345	3.447717	1.168118	-0.000138
 673	6.6864e+01	13.2253	44.273249	0.000294	2.940699	0.996336	-0.000118
 674	6.6963e+01	13.1820	44.131949	0.000355	3.549120	1.202474	-0.000142
 675	6.7063e+01	13.1403	44.043132	0.000223	2.230875	0.755841	-0.000089
 676	6.7162e+01	13.0970	43.897795	0.000365	3.650523	1.236831	-0.000146
 677	6.7262e+01	13.0585	43.784756	0.000284	2.839296	0.961980	-0.000114
 678	6.7362e+01	13.0248	43.647493	0.000345	3.447717	1.168118	-0.000138
 679	6.7461e+01	12.9798	43.558676	0.000223	2.230875	0.755841	-0.000089
 680	6.7561e+01	12.9397	43.401228	0.000395	3.954734	1.339900	-0.000158
 681	6.7660e+01	12.8964	43.300299	0.000254	2.535086	0.858910	-0.000101
 682	6.7760e+01	12.8627	43.150925	0.000375	3.751927	1.271187	-0.000150
 683	6.7859e+01	12.8307	43.066145	0.000213	2.129472	0.721485	-0.000085
 684	6.7959e+01	12.7825	42.916771	0.000375	3.751927	1.271187	-0.000150
 685	6.8058e+01	12.7472	42.803732	0.000284	2.839296	0.961980	-0.000114
 686	6.8157e+01	12.7151	42.666469	0.000345	3.447717	1.168118	-0.000138
 687	6.8257e+01	12.6638	42.517095	0.000375	3.751927	1.271187	-0.000150
 688	6.8356e+01	12.6221	42.400018	0.000294	2.940699	0.996336	-0.000118
 689	6.8456e+01	12.5836	42.262755	0.000345	3.447717	1.168118	-0.000138
 690	6.8555e+01	12.5515	42.137604	0.000314	3.143506	1.065049	-0.000126
 691	6.8655e+01	12.5130	42.024564	0.000284	2.839296	0.961980	-0.000114
 692	6.8754e+01	12.4601	41.911525	0.000284	2.839296	0.961980	-0.000114
 693	6.8854e+01	12.4248	41.770225	0.000355	3.549120	1.202474	-0.000142
 694	6.8954e+01	12.3911	41.636999	0.000335	3.346313	1.133762	-0.000134
 695	6.9053e+01	12.3462	41.515885	0.000304	3.042103	1.030692	-0.000122
 696	6.9153e+01	12.3029	41.418994	0.000243	2.433682	0.824554	-0.000097
 697	6.9252e+01	12.2708	41.277694	0.000355	3.549120	1.202474	-0.000142
 698	6.9352e+01	12.2259	41.164655	0.000284	2.839296	0.961980	-0.000114
 699	6.9451e+01	12.1938	40.987021	0.000446	4.461751	1.511682	-0.000179
 700	6.9550e+01	12.1456	40.869944	0.000294	2.940699	0.996336	-0.000118
 701	6.9650e+01	12.1152	40.764978	0.000264	2.636489	0.893267	-0.000105
 702	6.9749e+01	12.0670	40.603493	0.000406	4.056137	1.374256	-0.000162
 703	6.9849e+01	12.0317	40.486416	0.000294	2.940699	0.996336	-0.000118
 704	6.9948e+01	11.9868	40.373376	0.000284	2.839296	0.961980	-0.000114
 705	7.0048e+01	11.9483	40.244188	0.000324	3.244910	1.099405	-0.000130
 706	7.0147e+01	11.9162	40.135185	0.000274	2.737893	0.927623	-0.000110
 707	7.0247e+01	11.8665	40.001959	0.000335	3.346313	1.133762	-0.000134
 708	7.0347e+01	11.8280	39.852585	0.000375	3.751927	1.271187	-0.000150
 709	7.0446e+01	11.7911	39.711286	0.000355	3.549120	1.202474	-0.000142
 710	7.0546e+01	11.7510	39.598246	0.000284	2.839296	0.961980	-0.000114
 711	7.0645e+01	11.7125	39.481169	0.000294	2.940699	0.996336	-0.000118
 712	7.0745e+01	11.6660	39.356018	0.000314	3.143506	1.065049	-0.000126
 713	7.0844e+01	11.6323	39.230867	0.000314	3.143506	1.065049	-0.000126
 714	7.0944e+01	11.5906	39.077455	0.000385	3.853330	1.305544	-0.000154
 715	7.1043e+01	11.5521	38.964416	0.000284	2.839296	0.961980	-0.000114
 716	7.1142e+01	11.5136	38.835227	0.000324	3.244910	1.099405	-0.000130
 717	7.1242e+01	11.4735	38.689890	0.000365	3.650523	1.236831	-0.000146
 718	7.1341e+01	11.4253	38.584925	0.000264	2.636489	0.893267	-0.000105
 719	7.1441e+01	11.3981	38.435551	0.000375	3.751927	1.271187	-0.000150
 720	7.1540e+01	11.3499	38.342697	0.000233	2.332279	0.790197	-0.000093
 721	7.1640e+01	11.3130	38.209471	0.000335	3.346313	1.133762	-0.000134
 722	7.1740e+01	11.2729	38.056060	0.000385	3.853330	1.305544	-0.000154
 723	7.1839e+01	11.2248	37.902649	0.000385	3.853330	1.305544	-0.000154
 724	7.1939e+01	11.1927	37.781535	0.000304	3.042103	1.030692	-0.000122
 725	7.2038e+01	11.1526	37.648309	0.000335	3.346313	1.133762	-0.000134
 726	7.2138e+01	11.1125	37.535270	0.000284	2.839296	0.961980	-0.000114
 727	7.2237e+01	11.0788	37.357636	0.000446	4.461751	1.511682	-0.000179
 728	7.2337e+01	11.0307	37.284967	0.000183	1.825262	0.618415	-0.000073
 729	7.2436e+01	10.9970	37.099259	0.000466	4.664558	1.580395	-0.000187
 730	7.2535e+01	10.9553	36.953922	0.000365	3.650523	1.236831	-0.000146
 731	7.2635e+01	10.9152	36.889328	0.000162	1.622455	0.549703	-0.000065
 732	7.2734e+01	10.8799	36.691508	0.000497	4.968768	1.683464	-0.000199
 733	7.2834e+01	10.8318	36.606728	0.000213	2.129472	0.721485	-0.000085
 734	7.2933e+01	10.7933	36.477540	0.000324	3.244910	1.099405	-0.000130
 735	7.3033e+01	10.7548	36.316055	0.000406	4.056137	1.374256	-0.000162
 736	7.3132e+01	10.7195	36.170718	0.000365	3.650523	1.236831	-0.000146
 737	7.3232e+01	10.6762	36.045566	0.000314	3.143506	1.065049	-0.000126
 738	7.3332e+01	10.6377	35.932527	0.000284	2.839296	0.961980	-0.000114
 739	7.3431e+01	10.5944	35.779115	0.000385	3.853330	1.305544	-0.000154
 740	7.3531e+01	10.5591	35.641853	0.000345	3.447717	1.168118	-0.000138
 741	7.3630e+01	10.5270	35.504590	0.000345	3.447717	1.168118	-0.000138
 742	7.3730e+01	10.4821	35.355216	0.000375	3.751927	1.271187	-0.000150
 743	7.3829e+01	10.4291	35.230065	0.000314	3.143506	1.065049	-0.000126
 744	7.3928e+01	10.4034	35.088765	0.000355	3.549120	1.202474	-0.000142
 745	7.4028e+01	10.3521	34.999948	0.000223	2.230875	0.755841	-0.000089
 746	7.4127e+01	10.3168	34.878834	0.000304	3.042103	1.030692	-0.000122
 747	7.4227e+01	10.2831	34.745609	0.000335	3.346313	1.133762	-0.000134
 748	7.4326e+01	10.2334	34.576049	0.000426	4.258944	1.442969	-0.000170
 749	7.4426e+01	10.1981	34.438786	0.000345	3.447717	1.168118	-0.000138
 750	7.4525e+01	10.1500	34.337858	0.000254	2.535086	0.858910	-0.000101
 751	7.4625e+01	10.1147	34.160224	0.000446	4.461751	1.511682	-0.000179
 752	7.4725e+01	10.0762	34.022961	0.000345	3.447717	1.168118	-0.000138
 753	7.4824e+01	10.0377	33.877625	0.000365	3.650523	1.236831	-0.000146
 754	7.4924e+01	9.9944	33.748436	0.000324	3.244910	1.099405	-0.000130
 755	7.5023e+01	9.9543	33.599062	0.000375	3.751927	1.271187	-0.000150
 756	7.5123e+01	9.9238	33.461800	0.000345	3.447717	1.168118	-0.000138
 757	7.5222e+01	9.8805	33.312426	0.000375	3.751927	1.271187	-0.000150
 758	7.5322e+01	9.8323	33.207460	0.000264	2.636489	0.893267	-0.000105
 759	7.5421e+01	9.7954	33.094420	0.000284	2.839296	0.961980	-0.000114
 760	7.5520e+01	9.7569	32.900638	0.000487	4.867365	1.649108	-0.000195
 761	7.5620e+01	9.7168	32.783561	0.000294	2.940699	0.996336	-0.000118
 762	7.5719e+01	9.6880	32.626112	0.000395	3.954734	1.339900	-0.000158
 763	7.5819e+01	9.6479	32.500961	0.000314	3.143506	1.065049	-0.000126
 764	7.5918e+01	9.6045	32.387921	0.000284	2.839296	0.961980	-0.000114
 765	7.6018e+01	9.5612	32.222399	0.000416	4.157541	1.408613	-0.000166
 766	7.6118e+01	9.5275	32.101285	0.000304	3.042103	1.030692	-0.000122
 767	7.6217e+01	9.4762	31.939799	0.000406	4.056137	1.374256	-0.000162
 768	7.6317e+01	9.4457	31.814648	0.000314	3.143506	1.065049	-0.000126
 769	7.6416e+01	9.4008	31.709683	0.000264	2.636489	0.893267	-0.000105
 770	7.6516e+01	9.3607	31.536086	0.000436	4.360347	1.477326	-0.000174
 771	7.6615e+01	9.3254	31.398823	0.000345	3.447717	1.168118	-0.000138
 772	7.6715e+01	9.2757	31.269635	0.000324	3.244910	1.099405	-0.000130
 773	7.6814e+01	9.2420	31.096038	0.000436	4.360347	1.477326	-0.000174
 774	7.6913e+01	9.2035	31.035481	0.000152	1.521051	0.515346	-0.000061
 775	7.7013e+01	9.1602	30.865921	0.000426	4.258944	1.442969	-0.000170
 776	7.7112e+01	9.1185	30.704436	0.000406	4.056137	1.374256	-0.000162
 777	7.7212e+01	9.0864	30.575248	0.000324	3.244910	1.099405	-0.000130
 778	7.7311e+01	9.0431	30.446059	0.000324	3.244910	1.099405	-0.000130
 779	7.7411e+01	9.0062	30.365316	0.000203	2.028069	0.687128	-0.000081
 780	7.7510e+01	8.9564	30.179608	0.000466	4.664558	1.580395	-0.000187
 781	7.7610e+01	8.9227	30.054457	0.000314	3.143506	1.065049	-0.000126
 782	7.7710e+01	8.8842	29.933343	0.000304	3.042103	1.030692	-0.000122
 783	7.7809e+01	8.8409	29.751672	0.000456	4.563154	1.546039	-0.000183
 784	7.7909e+01	8.8056	29.618446	0.000335	3.346313	1.133762	-0.000134
 785	7.8008e+01	8.7591	29.469072	0.000375	3.751927	1.271187	-0.000150
 786	7.8108e+01	8.7174	29.368144	0.000254	2.535086	0.858910	-0.000101
 787	7.8207e+01	8.6773	29.182436	0.000466	4.664558	1.580395	-0.000187
 788	7.8306e+01	8.6372	29.061322	0.000304	3.042103	1.030692	-0.000122
 789	7.8406e+01	8.6067	28.932133	0.000324	3.244910	1.099405	-0.000130
 790	7.8505e+01	8.5618	28.766611	0.000416	4.157541	1.408613	-0.000166
 791	7.8605e+01	8.5201	28.653571	0.000284	2.839296	0.961980	-0.000114
 792	7.8704e+01	8.4816	28.500160	0.000385	3.853330	1.305544	-0.000154
 793	7.8804e+01	8.4399	28.370971	0.000324	3.244910	1.099405	-0.000130
 794	7.8903e+01	8.4014	28.241783	0.000324	3.244910	1.099405	-0.000130
 795	7.9003e+01	8.3789	28.116632	0.000314	3.143506	1.065049	-0.000126
 796	7.9103e+01	8.3292	27.963221	0.000385	3.853330	1.305544	-0.000154
 797	7.9202e+01	8.2875	27.838069	0.000314	3.143506	1.065049	-0.000126
 798	7.9302e+01	8.2474	27.644287	0.000487	4.867365	1.649108	-0.000195
 799	7.9401e+01	8.2008	27.535284	0.000274	2.737893	0.927623	-0.000110
 800	7.9501e+01	8.1671	27.393985	0.000355	3.549120	1.202474	-0.000142
 801	7.9600e+01	8.1319	27.244611	0.000375	3.751927	1.271187	-0.000150
 802	7.9700e+01	8.0885	27.107348	0.000345	3.447717	1.168118	-0.000138
 803	7.9799e+01	8.0468	26.986234	0.000304	3.042103	1.030692	-0.000122
 804	7.9898e+01	8.0003	26.857045	0.000324	3.244910	1.099405	-0.000130
 805	7.9998e+01	7.9682	26.687486	0.000426	4.258944	1.442969	-0.000170
 806	8.0097e+01	7.9281	26.538112	0.000375	3.751927	1.271187	-0.000150
 807	8.0197e+01	7.8784	26.425072	0.000284	2.839296	0.961980	-0.000114
 808	8.0296e+01	7.8511	26.263587	0.000406	4.056137	1.374256	-0.000162
 809	8.0396e+01	7.8094	26.158621	0.000264	2.636489	0.893267	-0.000105
 810	8.0496e+01	7.7613	26.001173	0.000395	3.954734	1.339900	-0.000158
 811	8.0595e+01	7.7228	25.847762	0.000385	3.853330	1.305544	-0.000154
 812	8.0695e+01	7.6875	25.738759	0.000274	2.737893	0.927623	-0.000110
 813	8.0794e+01	7.6538	25.593422	0.000365	3.650523	1.236831	-0.000146
 814	8.0894e+01	7.6073	25.460197	0.000335	3.346313	1.133762	-0.000134
 815	8.0993e+01	7.5672	25.274488	0.000466	4.664558	1.580395	-0.000187
 816	8.1093e+01	7.5255	25.165486	0.000274	2.737893	0.927623	-0.000110
 817	8.1192e+01	7.4821	25.036297	0.000324	3.244910	1.099405	-0.000130
 818	8.1291e+01	7.4468	24.866738	0.000426	4.258944	1.442969	-0.000170
 819	8.1391e+01	7.4116	24.741586	0.000314	3.143506	1.065049	-0.000126
 820	8.1490e+01	7.3650	24.628547	0.000284	2.839296	0.961980	-0.000114
 821	8.1590e+01	7.3313	24.515507	0.000284	2.839296	0.961980	-0.000114
 822	8.1689e+01	7.2880	24.366133	0.000375	3.751927	1.271187	-0.000150
 823	8.1789e+01	7.2431	24.224833	0.000355	3.549120	1.202474	-0.000142
 824	8.1888e+01	7.2014	24.107756	0.000294	2.940699	0.996336	-0.000118
 825	8.1988e+01	7.1741	23.978568	0.000324	3.244910	1.099405	-0.000130
 826	8.2088e+01	7.1340	23.809008	0.000426	4.258944	1.442969	-0.000170
 827	8.2187e+01	7.0907	23.659634	0.000375	3.751927	1.271187	-0.000150
 828	8.2287e+01	7.0474	23.522371	0.000345	3.447717	1.168118	-0.000138
 829	8.2386e+01	7.0041	23.389146	0.000335	3.346313	1.133762	-0.000134
 830	8.2486e+01	6.9736	23.251883	0.000345	3.447717	1.168118	-0.000138
 831	8.2585e+01	6.9271	23.118658	0.000335	3.346313	1.133762	-0.000134
 832	8.2684e+01	6.8934	22.981395	0.000345	3.447717	1.168118	-0.000138
 833	8.2784e+01	6.8437	22.823947	0.000395	3.954734	1.339900	-0.000158
 834	8.2883e+01	6.8116	22.706870	0.000294	2.940699	0.996336	-0.000118
 835	8.2983e+01	6.7763	22.601904	0.000264	2.636489	0.893267	-0.000105
 836	8.3082e+01	6.7346	22.424270	0.000446	4.461751	1.511682	-0.000179
 837	8.3182e+01	6.6864	22.311231	0.000284	2.839296	0.961980	-0.000114
 838	8.3281e+01	6.6431	22.182042	0.000324	3.244910	1.099405	-0.000130
 839	8.3381e+01	6.6094	22.085151	0.000243	2.433682	0.824554	-0.000097
 840	8.3481e+01	6.5677	21.923666	0.000406	4.056137	1.374256	-0.000162
 841	8.3580e+01	6.5324	21.754106	0.000426	4.258944	1.442969	-0.000170
 842	8.3680e+01	6.4987	21.665289	0.000223	2.230875	0.755841	-0.000089
 843	8.3779e+01	6.4554	21.507841	0.000395	3.954734	1.339900	-0.000158
 844	8.3879e+01	6.4105	21.358467	0.000375	3.751927	1.271187	-0.000150
 845	8.3978e+01	6.3720	21.196981	0.000406	4.056137	1.374256	-0.000162
 846	8.4078e+01	6.3303	21.071830	0.000314	3.143506	1.065049	-0.000126
 847	8.4177e+01	6.2886	20.938605	0.000335	3.346313	1.133762	-0.000134
 848	8.4276e+01	6.2517	20.849788	0.000223	2.230875	0.755841	-0.000089
 849	8.4376e+01	6.2164	20.668116	0.000456	4.563154	1.546039	-0.000183
 850	8.4475e+01	6.1667	20.555077	0.000284	2.839296	0.961980	-0.000114
 851	8.4575e+01	6.1346	20.454148	0.000254	2.535086	0.858910	-0.000101
 852	8.4674e+01	6.0929	20.268440	0.000466	4.664558	1.580395	-0.000187
 853	8.4774e+01	6.0640	20.151363	0.000294	2.940699	0.996336	-0.000118
 854	8.4874e+01	6.0207	19.997952	0.000385	3.853330	1.305544	-0.000154
 855	8.4973e+01	5.9726	19.844541	0.000385	3.853330	1.305544	-0.000154
 856	8.5073e+01	5.9341	19.731501	0.000284	2.839296	0.961980	-0.000114
 857	8.5172e+01	5.8875	19.574053	0.000395	3.954734	1.339900	-0.000158
 858	8.5272e+01	5.8603	19.416604	0.000395	3.954734	1.339900	-0.000158
 859	8.5371e+01	5.8153	19.323750	0.000233	2.332279	0.790197	-0.000093
 860	8.5471e+01	5.7768	19.198599	0.000314	3.143506	1.065049	-0.000126
 861	8.5570e+01	5.7351	19.029039	0.000426	4.258944	1.442969	-0.000170
 862	8.5669e+01	5.6902	18.875628	0.000385	3.853330	1.305544	-0.000154
 863	8.5769e+01	5.6565	18.738366	0.000345	3.447717	1.168118	-0.000138
 864	8.5868e+01	5.6116	18.597066	0.000355	3.549120	1.202474	-0.000142
 865	8.5968e+01	5.5811	18.451729	0.000365	3.650523	1.236831	-0.000146
 866	8.6067e+01	5.5298	18.342726	0.000274	2.737893	0.927623	-0.000110
 867	8.6167e+01	5.5009	18.193352	0.000375	3.751927	1.271187	-0.000150
 868	8.6266e+01	5.4528	18.023793	0.000426	4.258944	1.442969	-0.000170
 869	8.6366e+01	5.4239	17.955161	0.000172	1.723858	0.584059	-0.000069
 870	8.6466e+01	5.3710	17.773490	0.000456	4.563154	1.546039	-0.000183
 871	8.6565e+01	5.3453	17.620079	0.000385	3.853330	1.305544	-0.000154
 872	8.6665e+01	5.2988	17.490891	0.000324	3.244910	1.099405	-0.000130
 873	8.6764e+01	5.2651	17.393999	0.000243	2.433682	0.824554	-0.000097
 874	8.6864e+01	5.2089	17.220402	0.000436	4.360347	1.477326	-0.000174
 875	8.6963e+01	5.1753	17.050843	0.000426	4.258944	1.442969	-0.000170
 876	8.7063e+01	5.1384	16.953952	0.000243	2.433682	0.824554	-0.000097
 877	8.7162e+01	5.0966	16.824763	0.000324	3.244910	1.099405	-0.000130
 878	8.7261e+01	5.0549	16.687501	0.000345	3.447717	1.168118	-0.000138
 879	8.7361e+01	5.0196	16.542164	0.000365	3.650523	1.236831	-0.000146
 880	8.7460e+01	4.9763	16.392790	0.000375	3.751927	1.271187	-0.000150
 881	8.7560e+01	4.9330	16.251490	0.000355	3.549120	1.202474	-0.000142
 882	8.7659e+01	4.8977	16.106153	0.000365	3.650523	1.236831	-0.000146
 883	8.7759e+01	4.8560	15.997150	0.000274	2.737893	0.927623	-0.000110
 884	8.7859e+01	4.8239	15.859888	0.000345	3.447717	1.168118	-0.000138
 885	8.7958e+01	4.7822	15.746848	0.000284	2.839296	0.961980	-0.000114
 886	8.8058e+01	4.7405	15.549028	0.000497	4.968768	1.683464	-0.000199
 887	8.8157e+01	4.7068	15.419840	0.000324	3.244910	1.099405	-0.000130
 888	8.8257e+01	4.6651	15.254317	0.000416	4.157541	1.408613	-0.000166
 889	8.8356e+01	4.6170	15.149352	0.000264	2.636489	0.893267	-0.000105
 890	8.8456e+01	4.5769	15.004015	0.000365	3.650523	1.236831	-0.000146
 891	8.8555e+01	4.5464	14.854641	0.000375	3.751927	1.271187	-0.000150
 892	8.8654e+01	4.5015	14.701230	0.000385	3.853330	1.305544	-0.000154
 893	8.8754e+01	4.4534	14.555893	0.000365	3.650523	1.236831	-0.000146
 894	8.8853e+01	4.4148	14.418630	0.000345	3.447717	1.168118	-0.000138
 895	8.8953e+01	4.3763	14.301553	0.000294	2.940699	0.996336	-0.000118
 896	8.9052e+01	4.3362	14.164291	0.000345	3.447717	1.168118	-0.000138
 897	8.9152e+01	4.3009	14.002805	0.000406	4.056137	1.374256	-0.000162
 898	8.9251e+01	4.2641	13.853431	0.000375	3.751927	1.271187	-0.000150
 899	8.9351e+01	4.2175	13.708094	0.000365	3.650523	1.236831	-0.000146
 900	8.9451e+01	4.1822	13.554683	0.000385	3.853330	1.305544	-0.000154
 901	8.9550e+01	4.1421	13.441643	0.000284	2.839296	0.961980	-0.000114
 902	8.9650e+01	4.1004	13.259972	0.000456	4.563154	1.546039	-0.000183
 903	8.9749e+01	4.0587	13.138858	0.000304	3.042103	1.030692	-0.000122
 904	8.9849e+01	4.0186	12.977373	0.000406	4.056137	1.374256	-0.000162
 905	8.9948e+01	3.9833	12.844147	0.000335	3.346313	1.133762	-0.000134
 906	9.0047e+01	3.9496	12.690736	0.000385	3.853330	1.305544	-0.000154
 907	9.0147e+01	3.9111	12.577696	0.000284	2.839296	0.961980	-0.000114
 908	9.0246e+01	3.8646	12.428322	0.000375	3.751927	1.271187	-0.000150
 909	9.0346e+01	3.8197	12.295097	0.000335	3.346313	1.133762	-0.000134
 910	9.0445e+01	3.7908	12.141686	0.000385	3.853330	1.305544	-0.000154
 911	9.0545e+01	3.7459	12.028646	0.000284	2.839296	0.961980	-0.000114
 912	9.0644e+01	3.7154	11.863123	0.000416	4.157541	1.408613	-0.000166
 913	9.0744e+01	3.6721	11.697601	0.000416	4.157541	1.408613	-0.000166
 914	9.0844e+01	3.6111	11.515930	0.000456	4.563154	1.546039	-0.000183
 915	9.0943e+01	3.5806	11.410964	0.000264	2.636489	0.893267	-0.000105
 916	9.1043e+01	3.5405	11.281776	0.000324	3.244910	1.099405	-0.000130
 917	9.1142e+01	3.5052	11.108179	0.000436	4.360347	1.477326	-0.000174
 918	9.1242e+01	3.4555	10.954768	0.000385	3.853330	1.305544	-0.000154
 919	9.1341e+01	3.4234	10.821542	0.000335	3.346313	1.133762	-0.000134
 920	9.1441e+01	3.3881	10.688317	0.000335	3.346313	1.133762	-0.000134
 921	9.1540e+01	3.3545	10.530869	0.000395	3.954734	1.339900	-0.000158
 922	9.1639e+01	3.3047	10.413792	0.000294	2.940699	0.996336	-0.000118
 923	9.1739e+01	3.2582	10.260380	0.000385	3.853330	1.305544	-0.000154
 924	9.1838e+01	3.2117	10.131192	0.000324	3.244910	1.099405	-0.000130
 925	9.1938e+01	3.1860	9.929335	0.000507	5.070171	1.717821	-0.000203
 926	9.2037e+01	3.1523	9.759776	0.000426	4.258944	1.442969	-0.000170
 927	9.2137e+01	3.1042	9.662884	0.000243	2.433682	0.824554	-0.000097
 928	9.2237e+01	3.0705	9.525622	0.000345	3.447717	1.168118	-0.000138
 929	9.2336e+01	3.0352	9.408545	0.000294	2.940699	0.996336	-0.000118
 930	9.2436e+01	2.9791	9.206688	0.000507	5.070171	1.717821	-0.000203
 931	9.2535e+01	2.9406	9.077500	0.000324	3.244910	1.099405	-0.000130
 932	9.2635e+01	2.9069	8.936200	0.000355	3.549120	1.202474	-0.000142
 933	9.2734e+01	2.8620	8.770677	0.000416	4.157541	1.408613	-0.000166
 934	9.2834e+01	2.8267	8.621303	0.000375	3.751927	1.271187	-0.000150
 935	9.2933e+01	2.7866	8.500189	0.000304	3.042103	1.030692	-0.000122
 936	9.3032e+01	2.7481	8.330630	0.000426	4.258944	1.442969	-0.000170
 937	9.3132e+01	2.7031	8.185293	0.000365	3.650523	1.236831	-0.000146
 938	9.3231e+01	2.6678	8.056104	0.000324	3.244910	1.099405	-0.000130
 939	9.3331e+01	2.6197	7.898656	0.000395	3.954734	1.339900	-0.000158
 940	9.3430e+01	2.5989	7.761393	0.000345	3.447717	1.168118	-0.000138
 941	9.3530e+01	2.5507	7.599908	0.000406	4.056137	1.374256	-0.000162
 942	9.3629e+01	2.5074	7.486868	0.000284	2.839296	0.961980	-0.000114
 943	9.3729e+01	2.4625	7.317309	0.000426	4.258944	1.442969	-0.000170
 944	9.3829e+01	2.4288	7.180046	0.000345	3.447717	1.168118	-0.000138
 945	9.3928e+01	2.3887	7.018560	0.000406	4.056137	1.374256	-0.000162
 946	9.4028e+01	2.3390	6.893409	0.000314	3.143506	1.065049	-0.000126
 947	9.4127e+01	2.3053	6.764221	0.000324	3.244910	1.099405	-0.000130
 948	9.4227e+01	2.2844	6.630995	0.000335	3.346313	1.133762	-0.000134
 949	9.4326e+01	2.2251	6.469510	0.000406	4.056137	1.374256	-0.000162
 950	9.4425e+01	2.1914	6.324173	0.000365	3.650523	1.236831	-0.000146
 951	9.4525e+01	2.1433	6.162688	0.000406	4.056137	1.374256	-0.000162
 952	9.4624e+01	2.1128	6.001202	0.000406	4.056137	1.374256	-0.000162
 953	9.4724e+01	2.0695	5.876051	0.000314	3.143506	1.065049	-0.000126
 954	9.4823e+01	2.0342	5.694380	0.000456	4.563154	1.546039	-0.000183
 955	9.4923e+01	1.9876	5.609600	0.000213	2.129472	0.721485	-0.000085
 956	9.5022e+01	1.9443	5.436003	0.000436	4.360347	1.477326	-0.000174
 957	9.5122e+01	1.9090	5.254332	0.000456	4.563154	1.546039	-0.000183
 958	9.5222e+01	1.8673	5.145329	0.000274	2.737893	0.927623	-0.000110
 959	9.5321e+01	1.8240	4.995955	0.000375	3.751927	1.271187	-0.000150
 960	9.5421e+01	1.7871	4.826396	0.000426	4.258944	1.442969	-0.000170
 961	9.5520e+01	1.7598	4.721430	0.000264	2.636489	0.893267	-0.000105
 962	9.5620e+01	1.7053	4.580130	0.000355	3.549120	1.202474	-0.000142
 963	9.5719e+01	1.6716	4.438831	0.000355	3.549120	1.202474	-0.000142
 964	9.5819e+01	1.6235	4.228900	0.000527	5.272978	1.786533	-0.000211
 965	9.5918e+01	1.5834	4.119897	0.000274	2.737893	0.927623	-0.000110
 966	9.6017e+01	1.5513	3.990709	0.000324	3.244910	1.099405	-0.000130
 967	9.6117e+01	1.5112	3.805000	0.000466	4.664558	1.580395	-0.000187
 968	9.6216e+01	1.4759	3.675812	0.000324	3.244910	1.099405	-0.000130
 969	9.6316e+01	1.4262	3.530475	0.000365	3.650523	1.236831	-0.000146
 970	9.6415e+01	1.3973	3.401287	0.000324	3.244910	1.099405	-0.000130
 971	9.6515e+01	1.3427	3.243839	0.000395	3.954734	1.339900	-0.000158
 972	9.6615e+01	1.3107	3.070242	0.000436	4.360347	1.477326	-0.000174
 973	9.6714e+01	1.2689	2.977388	0.000233	2.332279	0.790197	-0.000093
 974	9.6814e+01	1.2385	2.823976	0.000385	3.853330	1.305544	-0.000154
 975	9.6913e+01	1.1935	2.670565	0.000385	3.853330	1.305544	-0.000154
 976	9.7013e+01	1.1486	2.496968	0.000436	4.360347	1.477326	-0.000174
 977	9.7112e+01	1.1053	2.363743	0.000335	3.346313	1.133762	-0.000134
 978	9.7212e+01	1.0764	2.222443	0.000355	3.549120	1.202474	-0.000142
 979	9.7311e+01	1.0331	2.069032	0.000385	3.853330	1.305544	-0.000154
 980	9.7410e+01	0.9914	1.955992	0.000284	2.839296	0.961980	-0.000114
 981	9.7510e+01	0.9481	1.842952	0.000284	2.839296	0.961980	-0.000114
 982	9.7609e+01	0.9096	1.685504	0.000395	3.954734	1.339900	-0.000158
 983	9.7709e+01	0.8727	1.519982	0.000416	4.157541	1.408613	-0.000166
 984	9.7808e+01	0.8342	1.354459	0.000416	4.157541	1.408613	-0.000166
 985	9.7908e+01	0.7813	1.225271	0.000324	3.244910	1.099405	-0.000130
 986	9.8007e+01	0.7572	1.100119	0.000314	3.143506	1.065049	-0.000126
 987	9.8107e+01	0.7171	0.926523	0.000436	4.360347	1.477326	-0.000174
 988	9.8207e+01	0.6754	0.761000	0.000416	4.157541	1.408613	-0.000166
 989	9.8306e+01	0.6305	0.656035	0.000264	2.636489	0.893267	-0.000105
 990	9.8406e+01	0.5920	0.526846	0.000324	3.244910	1.099405	-0.000130
 991	9.8505e+01	0.5503	0.377472	0.000375	3.751927	1.271187	-0.000150
 992	9.8605e+01	0.5101	0.264432	0.000284	2.839296	0.961980	-0.000114
 993	9.8704e+01	0.4845	0.070650	0.000487	4.867365	1.649108	-0.000195
 994	9.8803e+01	0.4380	-0.042390	0.000284	2.839296	0.961980	-0.000114
 995	9.8903e+01	0.3898	-0.191764	0.000375	3.751927	1.271187	-0.000150
 996	9.9002e+01	0.3497	-0.349212	0.000395	3.954734	1.339900	-0.000158
 997	9.9102e+01	0.3064	-0.502623	0.000385	3.853330	1.305544	-0.000154
 998	9.9201e+01	0.2839	-0.631812	0.000324	3.244910	1.099405	-0.000130
 999	9.9301e+01	0.2374	-0.765037	0.000335	3.346313	1.133762	-0.000134
1000	9.9400e+01	0.1973	-0.914411	0.000375	3.751927	1.271187	-0.000150
1001	9.9500e+01	0.1604	-1.035525	0.000304	3.042103	1.030692	-0.000122
1002	9.9600e+01	0.1155	-1.176825	0.000355	3.549120	1.202474	-0.000142
1003	9.9699e+01	0.0802	-1.330236	0.000385	3.853330	1.305544	-0.000154
1004	9.9799e+01	0.0337	-1.451350	0.000304	3.042103	1.030692	-0.000122
1005	9.9898e+01	0.0048	-1.568427	0.000294	2.940699	0.996336	-0.000118
1006	9.9998e+01	-0.0305	-1.725876	0.000395	3.954734	1.339900	-0.000158
1007	1.0010e+02	-0.0754	-1.867175	0.000355	3.549120	1.202474	-0.000142
1008	1.0020e+02	-0.1187	-1.976178	0.000274	2.737893	0.927623	-0.000110
1009	1.0030e+02	-0.1556	-2.125552	0.000375	3.751927	1.271187	-0.000150
1010	1.0040e+02	-0.1957	-2.254740	0.000324	3.244910	1.099405	-0.000130
1011	1.0050e+02	-0.2422	-2.428337	0.000436	4.360347	1.477326	-0.000174
1012	1.0059e+02	-0.2807	-2.545414	0.000294	2.940699	0.996336	-0.000118
1013	1.0069e+02	-0.3128	-2.686714	0.000355	3.549120	1.202474	-0.000142
1014	1.0079e+02	-0.3545	-2.828014	0.000355	3.549120	1.202474	-0.000142
1015	1.0089e+02	-0.3866	-2.961239	0.000335	3.346313	1.133762	-0.000134
1016	1.0099e+02	-0.4299	-3.098502	0.000345	3.447717	1.168118	-0.000138
1017	1.0109e+02	-0.4700	-3.239801	0.000355	3.549120	1.202474	-0.000142
1018	1.0119e+02	-0.5182	-3.413398	0.000436	4.360347	1.477326	-0.000174
1019	1.0129e+02	-0.5535	-3.522401	0.000274	2.737893	0.927623	-0.000110
1020	1.0139e+02	-0.5968	-3.667738	0.000365	3.650523	1.236831	-0.000146
1021	1.0149e+02	-0.6321	-3.776740	0.000274	2.737893	0.927623	-0.000110
1022	1.0159e+02	-0.6625	-3.970523	0.000487	4.867365	1.649108	-0.000195
1023	1.0169e+02	-0.7075	-4.095674	0.000314	3.143506	1.065049	-0.000126
1024	1.0179e+02	-0.7540	-4.241011	0.000365	3.650523	1.236831	-0.000146
1025	1.0189e+02	-0.7957	-4.370199	0.000324	3.244910	1.099405	-0.000130
1026	1.0199e+02	-0.8342	-4.511499	0.000355	3.549120	1.202474	-0.000142
1027	1.0209e+02	-0.8775	-4.628576	0.000294	2.940699	0.996336	-0.000118
1028	1.0219e+02	-0.9080	-4.806210	0.000446	4.461751	1.511682	-0.000179
1029	1.0229e+02	-0.9561	-4.927324	0.000304	3.042103	1.030692	-0.000122
1030	1.0239e+02	-0.9930	-5.044401	0.000294	2.940699	0.996336	-0.000118
1031	1.0248e+02	-1.0267	-5.222035	0.000446	4.461751	1.511682	-0.000179
1032	1.0258e+02	-1.0764	-5.355261	0.000335	3.346313	1.133762	-0.000134
1033	1.0268e+02	-1.1101	-5.528857	0.000436	4.360347	1.477326	-0.000174
1034	1.0278e+02	-1.1550	-5.649971	0.000304	3.042103	1.030692	-0.000122
1035	1.0288e+02	-1.1871	-5.803383	0.000385	3.853330	1.305544	-0.000154
1036	1.0298e+02	-1.2401	-5.884125	0.000203	2.028069	0.687128	-0.000081
1037	1.0308e+02	-1.2706	-6.061759	0.000446	4.461751	1.511682	-0.000179
1038	1.0318e+02	-1.3203	-6.199022	0.000345	3.447717	1.168118	-0.000138
1039	1.0328e+02	-1.3508	-6.336285	0.000345	3.447717	1.168118	-0.000138
1040	1.0338e+02	-1.3925	-6.453361	0.000294	2.940699	0.996336	-0.000118
1041	1.0348e+02	-1.4326	-6.594661	0.000355	3.549120	1.202474	-0.000142
1042	1.0358e+02	-1.4695	-6.768258	0.000436	4.360347	1.477326	-0.000174
1043	1.0368e+02	-1.5048	-6.913595	0.000365	3.650523	1.236831	-0.000146
1044	1.0378e+02	-1.5449	-7.018560	0.000264	2.636489	0.893267	-0.000105
1045	1.0388e+02	-1.5914	-7.208306	0.000477	4.765961	1.614751	-0.000191
1046	1.0398e+02	-1.6251	-7.317309	0.000274	2.737893	0.927623	-0.000110
1047	1.0408e+02	-1.6636	-7.398051	0.000203	2.028069	0.687128	-0.000081
1048	1.0418e+02	-1.7117	-7.587797	0.000477	4.765961	1.614751	-0.000191
1049	1.0428e+02	-1.7470	-7.745245	0.000395	3.954734	1.339900	-0.000158
1050	1.0438e+02	-1.7903	-7.854248	0.000274	2.737893	0.927623	-0.000110
1051	1.0447e+02	-1.8224	-7.999584	0.000365	3.650523	1.236831	-0.000146
1052	1.0457e+02	-1.8625	-8.173181	0.000436	4.360347	1.477326	-0.000174
1053	1.0467e+02	-1.9138	-8.253924	0.000203	2.028069	0.687128	-0.000081
1054	1.0477e+02	-1.9491	-8.399261	0.000365	3.650523	1.236831	-0.000146
1055	1.0487e+02	-1.9844	-8.564783	0.000416	4.157541	1.408613	-0.000166
1056	1.0497e+02	-2.0229	-8.693972	0.000324	3.244910	1.099405	-0.000130
1057	1.0507e+02	-2.0727	-8.851420	0.000395	3.954734	1.339900	-0.000158
1058	1.0517e+02	-2.1192	-8.984646	0.000335	3.346313	1.133762	-0.000134
1059	1.0527e+02	-2.1481	-9.109797	0.000314	3.143506	1.065049	-0.000126
1060	1.0537e+02	-2.1914	-9.279356	0.000426	4.258944	1.442969	-0.000170
1061	1.0547e+02	-2.2267	-9.436805	0.000395	3.954734	1.339900	-0.000158
1062	1.0557e+02	-2.2604	-9.553882	0.000294	2.940699	0.996336	-0.000118
1063	1.0567e+02	-2.3053	-9.711330	0.000395	3.954734	1.339900	-0.000158
1064	1.0577e+02	-2.3502	-9.828407	0.000294	2.940699	0.996336	-0.000118
1065	1.0587e+02	-2.4015	-9.977781	0.000375	3.751927	1.271187	-0.000150
1066	1.0597e+02	-2.4288	-10.123118	0.000365	3.650523	1.236831	-0.000146
1067	1.0607e+02	-2.4673	-10.256343	0.000335	3.346313	1.133762	-0.000134
1068	1.0617e+02	-2.5138	-10.405717	0.000375	3.751927	1.271187	-0.000150
1069	1.0627e+02	-2.5459	-10.534906	0.000324	3.244910	1.099405	-0.000130
1070	1.0637e+02	-2.5828	-10.676205	0.000355	3.549120	1.202474	-0.000142
1071	1.0647e+02	-2.6261	-10.825579	0.000375	3.751927	1.271187	-0.000150
1072	1.0656e+02	-2.6566	-10.926508	0.000254	2.535086	0.858910	-0.000101
1073	1.0666e+02	-2.7095	-11.100105	0.000436	4.360347	1.477326	-0.000174
1074	1.0676e+02	-2.7464	-11.237367	0.000345	3.447717	1.168118	-0.000138
1075	1.0686e+02	-2.7817	-11.394816	0.000395	3.954734	1.339900	-0.000158
1076	1.0696e+02	-2.8283	-11.560338	0.000416	4.157541	1.408613	-0.000166
1077	1.0706e+02	-2.8620	-11.649155	0.000223	2.230875	0.755841	-0.000089
1078	1.0716e+02	-2.8956	-11.851012	0.000507	5.070171	1.717821	-0.000203
1079	1.0726e+02	-2.9518	-11.976163	0.000314	3.143506	1.065049	-0.000126
1080	1.0736e+02	-2.9887	-12.101314	0.000314	3.143506	1.065049	-0.000126
1081	1.0746e+02	-3.0224	-12.222428	0.000304	3.042103	1.030692	-0.000122
1082	1.0756e+02	-3.0545	-12.371802	0.000375	3.751927	1.271187	-0.000150
1083	1.0766e+02	-3.1010	-12.521176	0.000375	3.751927	1.271187	-0.000150
1084	1.0776e+02	-3.1411	-12.638253	0.000294	2.940699	0.996336	-0.000118
1085	1.0786e+02	-3.1732	-12.807813	0.000426	4.258944	1.442969	-0.000170
1086	1.0796e+02	-3.2213	-12.941039	0.000335	3.346313	1.133762	-0.000134
1087	1.0806e+02	-3.2534	-13.110598	0.000426	4.258944	1.442969	-0.000170
1088	1.0816e+02	-3.3047	-13.207490	0.000243	2.433682	0.824554	-0.000097
1089	1.0826e+02	-3.3384	-13.348789	0.000355	3.549120	1.202474	-0.000142
1090	1.0836e+02	-3.3801	-13.494126	0.000365	3.650523	1.236831	-0.000146
1091	1.0845e+02	-3.4202	-13.655612	0.000406	4.056137	1.374256	-0.000162
1092	1.0855e+02	-3.4651	-13.792874	0.000345	3.447717	1.168118	-0.000138
1093	1.0865e+02	-3.4988	-13.942248	0.000375	3.751927	1.271187	-0.000150
1094	1.0875e+02	-3.5486	-14.111808	0.000426	4.258944	1.442969	-0.000170
1095	1.0885e+02	-3.5806	-14.240996	0.000324	3.244910	1.099405	-0.000130
1096	1.0895e+02	-3.6208	-14.366148	0.000314	3.143506	1.065049	-0.000126
1097	1.0905e+02	-3.6609	-14.523596	0.000395	3.954734	1.339900	-0.000158
1098	1.0915e+02	-3.6962	-14.648747	0.000314	3.143506	1.065049	-0.000126
1099	1.0925e+02	-3.7395	-14.798121	0.000375	3.751927	1.271187	-0.000150
1100	1.0935e+02	-3.7780	-14.935384	0.000345	3.447717	1.168118	-0.000138
1101	1.0945e+02	-3.8245	-15.076683	0.000355	3.549120	1.202474	-0.000142
1102	1.0955e+02	-3.8662	-15.217983	0.000355	3.549120	1.202474	-0.000142
1103	1.0965e+02	-3.9095	-15.375431	0.000395	3.954734	1.339900	-0.000158
1104	1.0975e+02	-3.9416	-15.504620	0.000324	3.244910	1.099405	-0.000130
1105	1.0985e+02	-3.9769	-15.666105	0.000406	4.056137	1.374256	-0.000162
1106	1.0995e+02	-4.0298	-15.831628	0.000416	4.157541	1.408613	-0.000166
1107	1.1005e+02	-4.0667	-15.948705	0.000294	2.940699	0.996336	-0.000118
1108	1.1015e+02	-4.1004	-16.041559	0.000233	2.332279	0.790197	-0.000093
1109	1.1025e+02	-4.1389	-16.162673	0.000304	3.042103	1.030692	-0.000122
1110	1.1035e+02	-4.1790	-16.356455	0.000487	4.867365	1.649108	-0.000195
1111	1.1044e+02	-4.2191	-16.473532	0.000294	2.940699	0.996336	-0.000118
1112	1.1054e+02	-4.2496	-16.598684	0.000314	3.143506	1.065049	-0.000126
1113	1.1064e+02	-4.2929	-16.744020	0.000365	3.650523	1.236831	-0.000146
1114	1.1074e+02	-4.3362	-16.909543	0.000416	4.157541	1.408613	-0.000166
1115	1.1084e+02	-4.3763	-17.038731	0.000324	3.244910	1.099405	-0.000130
1116	1.1094e+02	-4.4277	-17.184068	0.000365	3.650523	1.236831	-0.000146
1117	1.1104e+02	-4.4614	-17.280960	0.000243	2.433682	0.824554	-0.000097
1118	1.1114e+02	-4.4999	-17.442445	0.000406	4.056137	1.374256	-0.000162
1119	1.1124e+02	-4.5336	-17.587782	0.000365	3.650523	1.236831	-0.000146
1120	1.1134e+02	-4.5801	-17.716970	0.000324	3.244910	1.099405	-0.000130
1121	1.1144e+02	-4.6122	-17.910753	0.000487	4.867365	1.649108	-0.000195
1122	1.1154e+02	-4.6635	-17.991495	0.000203	2.028069	0.687128	-0.000081
1123	1.1164e+02	-4.6940	-18.177204	0.000466	4.664558	1.580395	-0.000187
1124	1.1174e+02	-4.7373	-18.298318	0.000304	3.042103	1.030692	-0.000122
1125	1.1184e+02	-4.7726	-18.427506	0.000324	3.244910	1.099405	-0.000130
1126	1.1194e+02	-4.8143	-18.572843	0.000365	3.650523	1.236831	-0.000146
1127	1.1204e+02	-4.8528	-18.726254	0.000385	3.853330	1.305544	-0.000154
1128	1.1214e+02	-4.8993	-18.863517	0.000345	3.447717	1.168118	-0.000138
1129	1.1224e+02	-4.9282	-18.980594	0.000294	2.940699	0.996336	-0.000118
1130	1.1234e+02	-4.9747	-19.089596	0.000274	2.737893	0.927623	-0.000110
1131	1.1244e+02	-5.0196	-19.303565	0.000537	5.374382	1.820890	-0.000215
1132	1.1253e+02	-5.0549	-19.400456	0.000243	2.433682	0.824554	-0.000097
1133	1.1263e+02	-5.1063	-19.525607	0.000314	3.143506	1.065049	-0.000126
1134	1.1273e+02	-5.1384	-19.695167	0.000426	4.258944	1.442969	-0.000170
1135	1.1283e+02	-5.1785	-19.804169	0.000274	2.737893	0.927623	-0.000110
1136	1.1293e+02	-5.2186	-19.953543	0.000375	3.751927	1.271187	-0.000150
1137	1.1303e+02	-5.2507	-20.082732	0.000324	3.244910	1.099405	-0.000130
1138	1.1313e+02	-5.2940	-20.211920	0.000324	3.244910	1.099405	-0.000130
1139	1.1323e+02	-5.3341	-20.349183	0.000345	3.447717	1.168118	-0.000138
1140	1.1333e+02	-5.3710	-20.510668	0.000406	4.056137	1.374256	-0.000162
1141	1.1343e+02	-5.4175	-20.603522	0.000233	2.332279	0.790197	-0.000093
1142	1.1353e+02	-5.4480	-20.756933	0.000385	3.853330	1.305544	-0.000154
1143	1.1363e+02	-5.4913	-20.865936	0.000274	2.737893	0.927623	-0.000110
1144	1.1373e+02	-5.5346	-21.031459	0.000416	4.157541	1.408613	-0.000166
1145	1.1383e+02	-5.5747	-21.112201	0.000203	2.028069	0.687128	-0.000081
1146	1.1393e+02	-5.6148	-21.297910	0.000466	4.664558	1.580395	-0.000187
1147	1.1403e+02	-5.6565	-21.419024	0.000304	3.042103	1.030692	-0.000122
1148	1.1413e+02	-5.6854	-21.580509	0.000406	4.056137	1.374256	-0.000162
1149	1.1423e+02	-5.7399	-21.705660	0.000314	3.143506	1.065049	-0.000126
1150	1.1433e+02	-5.7752	-21.822737	0.000294	2.940699	0.996336	-0.000118
1151	1.1442e+02	-5.8169	-21.939814	0.000294	2.940699	0.996336	-0.000118
1152	1.1452e+02	-5.8571	-22.117448	0.000446	4.461751	1.511682	-0.000179
1153	1.1462e+02	-5.9004	-22.210302	0.000233	2.332279	0.790197	-0.000093
1154	1.1472e+02	-5.9244	-22.355639	0.000365	3.650523	1.236831	-0.000146
1155	1.1482e+02	-5.9597	-22.476753	0.000304	3.042103	1.030692	-0.000122
1156	1.1492e+02	-6.0191	-22.597867	0.000304	3.042103	1.030692	-0.000122
1157	1.1502e+02	-6.0576	-22.710907	0.000284	2.839296	0.961980	-0.000114
1158	1.1512e+02	-6.0897	-22.864318	0.000385	3.853330	1.305544	-0.000154
1159	1.1522e+02	-6.1169	-23.041952	0.000446	4.461751	1.511682	-0.000179
1160	1.1532e+02	-6.1731	-23.122695	0.000203	2.028069	0.687128	-0.000081
1161	1.1542e+02	-6.2036	-23.243809	0.000304	3.042103	1.030692	-0.000122
1162	1.1552e+02	-6.2485	-23.417406	0.000436	4.360347	1.477326	-0.000174
1163	1.1562e+02	-6.2886	-23.550631	0.000335	3.346313	1.133762	-0.000134
1164	1.1572e+02	-6.3303	-23.687894	0.000345	3.447717	1.168118	-0.000138
1165	1.1582e+02	-6.3672	-23.837268	0.000375	3.751927	1.271187	-0.000150
1166	1.1592e+02	-6.4217	-23.918011	0.000203	2.028069	0.687128	-0.000081
1167	1.1602e+02	-6.4522	-24.035088	0.000294	2.940699	0.996336	-0.000118
1168	1.1612e+02	-6.4843	-24.180425	0.000365	3.650523	1.236831	-0.000146
1169	1.1622e+02	-6.5260	-24.297501	0.000294	2.940699	0.996336	-0.000118
1170	1.1632e+02	-6.5629	-24.426690	0.000324	3.244910	1.099405	-0.000130
1171	1.1642e+02	-6.6078	-24.588175	0.000406	4.056137	1.374256	-0.000162
1172	1.1651e+02	-6.6479	-24.697178	0.000274	2.737893	0.927623	-0.000110
1173	1.1661e+02	-6.6832	-24.830403	0.000335	3.346313	1.133762	-0.000134
1174	1.1671e+02	-6.7265	-24.923257	0.000233	2.332279	0.790197	-0.000093
1175	1.1681e+02	-6.7715	-25.068594	0.000365	3.650523	1.236831	-0.000146
1176	1.1691e+02	-6.8068	-25.205857	0.000345	3.447717	1.168118	-0.000138
1177	1.1701e+02	-6.8517	-25.403677	0.000497	4.968768	1.683464	-0.000199
1178	1.1711e+02	-6.8806	-25.488456	0.000213	2.129472	0.721485	-0.000085
1179	1.1721e+02	-6.9142	-25.581311	0.000233	2.332279	0.790197	-0.000093
1180	1.1731e+02	-6.9640	-25.722610	0.000355	3.549120	1.202474	-0.000142
1181	1.1741e+02	-7.0073	-25.831613	0.000274	2.737893	0.927623	-0.000110
1182	1.1751e+02	-7.0474	-26.005210	0.000436	4.360347	1.477326	-0.000174
1183	1.1761e+02	-7.1019	-26.134398	0.000324	3.244910	1.099405	-0.000130
1184	1.1771e+02	-7.1212	-26.223215	0.000223	2.230875	0.755841	-0.000089
1185	1.1781e+02	-7.1613	-26.348366	0.000314	3.143506	1.065049	-0.000126
1186	1.1791e+02	-7.2046	-26.461406	0.000284	2.839296	0.961980	-0.000114
1187	1.1801e+02	-7.2415	-26.574446	0.000284	2.839296	0.961980	-0.000114
1188	1.1811e+02	-7.2880	-26.707671	0.000335	3.346313	1.133762	-0.000134
1189	1.1821e+02	-7.3329	-26.853008	0.000365	3.650523	1.236831	-0.000146
1190	1.1831e+02	-7.3602	-26.994308	0.000355	3.549120	1.202474	-0.000142
1191	1.1841e+02	-7.4164	-27.107348	0.000284	2.839296	0.961980	-0.000114
1192	1.1850e+02	-7.4404	-27.252685	0.000365	3.650523	1.236831	-0.000146
1193	1.1860e+02	-7.4918	-27.365725	0.000284	2.839296	0.961980	-0.000114
1194	1.1870e+02	-7.5239	-27.494913	0.000324	3.244910	1.099405	-0.000130
1195	1.1880e+02	-7.5624	-27.607953	0.000284	2.839296	0.961980	-0.000114
1196	1.1890e+02	-7.6025	-27.749252	0.000355	3.549120	1.202474	-0.000142
1197	1.1900e+02	-7.6458	-27.866329	0.000294	2.940699	0.996336	-0.000118
1198	1.1910e+02	-7.6827	-28.007629	0.000355	3.549120	1.202474	-0.000142
1199	1.1920e+02	-7.7308	-28.177189	0.000426	4.258944	1.442969	-0.000170
1200	1.1930e+02	-7.7597	-28.245820	0.000172	1.723858	0.584059	-0.000069
1201	1.1940e+02	-7.7982	-28.375009	0.000324	3.244910	1.099405	-0.000130
1202	1.1950e+02	-7.8463	-28.492085	0.000294	2.940699	0.996336	-0.000118
1203	1.1960e+02	-7.8768	-28.645497	0.000385	3.853330	1.305544	-0.000154
1204	1.1970e+02	-7.9169	-28.782759	0.000345	3.447717	1.168118	-0.000138
1205	1.1980e+02	-7.9682	-28.839279	0.000142	1.419648	0.480990	-0.000057
1206	1.1990e+02	-7.9987	-29.033062	0.000487	4.867365	1.649108	-0.000195
1207	1.2000e+02	-8.0484	-29.170324	0.000345	3.447717	1.168118	-0.000138
1208	1.2010e+02	-8.0789	-29.279327	0.000274	2.737893	0.927623	-0.000110
1209	1.2020e+02	-8.1206	-29.404478	0.000314	3.143506	1.065049	-0.000126
1210	1.2030e+02	-8.1671	-29.529629	0.000314	3.143506	1.065049	-0.000126
1211	1.2039e+02	-8.2008	-29.650743	0.000304	3.042103	1.030692	-0.000122
1212	1.2049e+02	-8.2458	-29.775895	0.000314	3.143506	1.065049	-0.000126
1213	1.2059e+02	-8.2827	-29.888934	0.000284	2.839296	0.961980	-0.000114
1214	1.2069e+02	-8.3212	-30.014086	0.000314	3.143506	1.065049	-0.000126
1215	1.2079e+02	-8.3613	-30.139237	0.000314	3.143506	1.065049	-0.000126
1216	1.2089e+02	-8.3933	-30.324945	0.000466	4.664558	1.580395	-0.000187
1217	1.2099e+02	-8.4495	-30.373391	0.000122	1.216841	0.412277	-0.000049
1218	1.2109e+02	-8.4816	-30.502579	0.000324	3.244910	1.099405	-0.000130
1219	1.2119e+02	-8.5201	-30.647916	0.000365	3.650523	1.236831	-0.000146
1220	1.2129e+02	-8.5666	-30.740770	0.000233	2.332279	0.790197	-0.000093
1221	1.2139e+02	-8.6035	-30.902256	0.000406	4.056137	1.374256	-0.000162
1222	1.2149e+02	-8.6372	-31.031444	0.000324	3.244910	1.099405	-0.000130
1223	1.2159e+02	-8.6757	-31.176781	0.000365	3.650523	1.236831	-0.000146
1224	1.2169e+02	-8.7206	-31.277709	0.000254	2.535086	0.858910	-0.000101
1225	1.2179e+02	-8.7575	-31.362489	0.000213	2.129472	0.721485	-0.000085
1226	1.2189e+02	-8.7976	-31.507826	0.000365	3.650523	1.236831	-0.000146
1227	1.2199e+02	-8.8489	-31.701608	0.000487	4.867365	1.649108	-0.000195
1228	1.2209e+02	-8.8826	-31.790425	0.000223	2.230875	0.755841	-0.000089
1229	1.2219e+02	-8.9131	-31.907502	0.000294	2.940699	0.996336	-0.000118
1230	1.2229e+02	-8.9661	-32.060913	0.000385	3.853330	1.305544	-0.000154
1231	1.2239e+02	-8.9933	-32.161842	0.000254	2.535086	0.858910	-0.000101
1232	1.2248e+02	-9.0447	-32.282956	0.000304	3.042103	1.030692	-0.000122
1233	1.2258e+02	-9.0751	-32.408107	0.000314	3.143506	1.065049	-0.000126
1234	1.2268e+02	-9.1104	-32.545370	0.000345	3.447717	1.168118	-0.000138
1235	1.2278e+02	-9.1538	-32.674558	0.000324	3.244910	1.099405	-0.000130
1236	1.2288e+02	-9.1971	-32.823932	0.000375	3.751927	1.271187	-0.000150
1237	1.2298e+02	-9.2340	-32.904675	0.000203	2.028069	0.687128	-0.000081
1238	1.2308e+02	-9.2757	-33.029826	0.000314	3.143506	1.065049	-0.000126
1239	1.2318e+02	-9.3174	-33.183237	0.000385	3.853330	1.305544	-0.000154
1240	1.2328e+02	-9.3527	-33.304351	0.000304	3.042103	1.030692	-0.000122
1241	1.2338e+02	-9.3960	-33.449688	0.000365	3.650523	1.236831	-0.000146
1242	1.2348e+02	-9.4409	-33.498134	0.000122	1.216841	0.412277	-0.000049
1243	1.2358e+02	-9.4778	-33.704028	0.000517	5.171575	1.752177	-0.000207
1244	1.2368e+02	-9.5195	-33.808993	0.000264	2.636489	0.893267	-0.000105
1245	1.2378e+02	-9.5564	-33.897810	0.000223	2.230875	0.755841	-0.000089
1246	1.2388e+02	-9.5949	-34.051221	0.000385	3.853330	1.305544	-0.000154
1247	1.2398e+02	-9.6318	-34.188484	0.000345	3.447717	1.168118	-0.000138
1248	1.2408e+02	-9.6719	-34.313635	0.000314	3.143506	1.065049	-0.000126
1249	1.2418e+02	-9.7184	-34.434749	0.000304	3.042103	1.030692	-0.000122
1250	1.2428e+02	-9.7473	-34.547789	0.000284	2.839296	0.961980	-0.000114
1251	1.2438e+02	-9.8019	-34.705237	0.000395	3.954734	1.339900	-0.000158
1252	1.2447e+02	-9.8356	-34.814240	0.000274	2.737893	0.927623	-0.000110
1253	1.2457e+02	-9.8805	-34.911131	0.000243	2.433682	0.824554	-0.000097
1254	1.2467e+02	-9.9174	-35.048394	0.000345	3.447717	1.168118	-0.000138
1255	1.2477e+02	-9.9543	-35.213916	0.000416	4.157541	1.408613	-0.000166
1256	1.2487e+02	-9.9960	-35.335031	0.000304	3.042103	1.030692	-0.000122
1257	1.2497e+02	-10.0345	-35.472293	0.000345	3.447717	1.168118	-0.000138
1258	1.2507e+02	-10.0778	-35.585333	0.000284	2.839296	0.961980	-0.000114
1259	1.2517e+02	-10.1099	-35.698373	0.000284	2.839296	0.961980	-0.000114
1260	1.2527e+02	-10.1564	-35.811413	0.000284	2.839296	0.961980	-0.000114
1261	1.2537e+02	-10.1933	-35.936564	0.000314	3.143506	1.065049	-0.000126
1262	1.2547e+02	-10.2350	-36.085938	0.000375	3.751927	1.271187	-0.000150
1263	1.2557e+02	-10.2719	-36.186866	0.000254	2.535086	0.858910	-0.000101
1264	1.2567e+02	-10.3152	-36.336240	0.000375	3.751927	1.271187	-0.000150
1265	1.2577e+02	-10.3553	-36.465429	0.000324	3.244910	1.099405	-0.000130
1266	1.2587e+02	-10.3890	-36.606728	0.000355	3.549120	1.202474	-0.000142
1267	1.2597e+02	-10.4323	-36.699582	0.000233	2.332279	0.790197	-0.000093
1268	1.2607e+02	-10.4724	-36.844919	0.000365	3.650523	1.236831	-0.000146
1269	1.2617e+02	-10.5141	-36.998330	0.000385	3.853330	1.305544	-0.000154
1270	1.2627e+02	-10.5414	-37.123482	0.000314	3.143506	1.065049	-0.000126
1271	1.2636e+02	-10.5944	-37.196150	0.000183	1.825262	0.618415	-0.000073
1272	1.2646e+02	-10.6377	-37.353598	0.000395	3.954734	1.339900	-0.000158
1273	1.2656e+02	-10.6649	-37.478750	0.000314	3.143506	1.065049	-0.000126
1274	1.2666e+02	-10.7131	-37.591789	0.000284	2.839296	0.961980	-0.000114
1275	1.2676e+02	-10.7500	-37.708866	0.000294	2.940699	0.996336	-0.000118
1276	1.2686e+02	-10.7885	-37.813832	0.000264	2.636489	0.893267	-0.000105
1277	1.2696e+02	-10.8286	-37.979354	0.000416	4.157541	1.408613	-0.000166
1278	1.2706e+02	-10.8719	-38.100469	0.000304	3.042103	1.030692	-0.000122
1279	1.2716e+02	-10.9104	-38.193323	0.000233	2.332279	0.790197	-0.000093
1280	1.2726e+02	-10.9537	-38.306362	0.000284	2.839296	0.961980	-0.000114
1281	1.2736e+02	-10.9874	-38.447662	0.000355	3.549120	1.202474	-0.000142
1282	1.2746e+02	-11.0259	-38.560702	0.000284	2.839296	0.961980	-0.000114
1283	1.2756e+02	-11.0708	-38.710076	0.000375	3.751927	1.271187	-0.000150
1284	1.2766e+02	-11.1141	-38.823116	0.000284	2.839296	0.961980	-0.000114
1285	1.2776e+02	-11.1478	-38.968453	0.000365	3.650523	1.236831	-0.000146
1286	1.2786e+02	-11.1879	-39.057270	0.000223	2.230875	0.755841	-0.000089
1287	1.2796e+02	-11.2312	-39.222792	0.000416	4.157541	1.408613	-0.000166
1288	1.2806e+02	-11.2633	-39.311609	0.000223	2.230875	0.755841	-0.000089
1289	1.2816e+02	-11.3098	-39.440798	0.000324	3.244910	1.099405	-0.000130
1290	1.2826e+02	-11.3580	-39.565949	0.000314	3.143506	1.065049	-0.000126
1291	1.2835e+02	-11.3868	-39.666877	0.000254	2.535086	0.858910	-0.000101
1292	1.2845e+02	-11.4318	-39.816251	0.000375	3.751927	1.271187	-0.000150
1293	1.2855e+02	-11.4622	-39.937365	0.000304	3.042103	1.030692	-0.000122
1294	1.2865e+02	-11.5104	-40.119036	0.000456	4.563154	1.546039	-0.000183
1295	1.2875e+02	-11.5537	-40.215928	0.000243	2.433682	0.824554	-0.000097
1296	1.2885e+02	-11.5890	-40.280522	0.000162	1.622455	0.549703	-0.000065
1297	1.2895e+02	-11.6259	-40.413747	0.000335	3.346313	1.133762	-0.000134
1298	1.2905e+02	-11.6644	-40.551010	0.000345	3.447717	1.168118	-0.000138
1299	1.2915e+02	-11.7061	-40.684235	0.000335	3.346313	1.133762	-0.000134
1300	1.2925e+02	-11.7382	-40.813424	0.000324	3.244910	1.099405	-0.000130
1301	1.2935e+02	-11.7895	-40.873981	0.000152	1.521051	0.515346	-0.000061
1302	1.2945e+02	-11.8280	-41.031429	0.000395	3.954734	1.339900	-0.000158
1303	1.2955e+02	-11.8681	-41.144469	0.000284	2.839296	0.961980	-0.000114
1304	1.2965e+02	-11.9146	-41.318066	0.000436	4.360347	1.477326	-0.000174
1305	1.2975e+02	-11.9515	-41.398808	0.000203	2.028069	0.687128	-0.000081
1306	1.2985e+02	-11.9820	-41.507811	0.000274	2.737893	0.927623	-0.000110
1307	1.2995e+02	-12.0189	-41.681408	0.000436	4.360347	1.477326	-0.000174
1308	1.3005e+02	-12.0719	-41.746002	0.000162	1.622455	0.549703	-0.000065
1309	1.3015e+02	-12.1120	-41.907488	0.000406	4.056137	1.374256	-0.000162
1310	1.3025e+02	-12.1489	-42.020527	0.000284	2.839296	0.961980	-0.000114
1311	1.3034e+02	-12.1858	-42.121456	0.000254	2.535086	0.858910	-0.000101
1312	1.3044e+02	-12.2194	-42.266793	0.000365	3.650523	1.236831	-0.000146
1313	1.3054e+02	-12.2628	-42.331387	0.000162	1.622455	0.549703	-0.000065
1314	1.3064e+02	-12.3077	-42.468649	0.000345	3.447717	1.168118	-0.000138
1315	1.3074e+02	-12.3478	-42.577652	0.000274	2.737893	0.927623	-0.000110
1316	1.3084e+02	-12.3863	-42.722989	0.000365	3.650523	1.236831	-0.000146
1317	1.3094e+02	-12.4264	-42.831992	0.000274	2.737893	0.927623	-0.000110
1318	1.3104e+02	-12.4537	-42.961180	0.000324	3.244910	1.099405	-0.000130
1319	1.3114e+02	-12.4986	-43.094405	0.000335	3.346313	1.133762	-0.000134
1320	1.3124e+02	-12.5371	-43.171111	0.000193	1.926665	0.652772	-0.000077
1321	1.3134e+02	-12.5964	-43.300299	0.000324	3.244910	1.099405	-0.000130
1322	1.3144e+02	-12.6173	-43.421413	0.000304	3.042103	1.030692	-0.000122
1323	1.3154e+02	-12.6702	-43.558676	0.000345	3.447717	1.168118	-0.000138
1324	1.3164e+02	-12.7055	-43.651530	0.000233	2.332279	0.790197	-0.000093
1325	1.3174e+02	-12.7424	-43.776681	0.000314	3.143506	1.065049	-0.000126
1326	1.3184e+02	-12.7905	-43.909907	0.000335	3.346313	1.133762	-0.000134
1327	1.3194e+02	-12.8226	-43.998724	0.000223	2.230875	0.755841	-0.000089
1328	1.3204e+02	-12.8692	-44.119838	0.000304	3.042103	1.030692	-0.000122
1329	1.3214e+02	-12.9012	-44.261138	0.000355	3.549120	1.202474	-0.000142
1330	1.3224e+02	-12.9349	-44.337843	0.000193	1.926665	0.652772	-0.000077
1331	1.3234e+02	-12.9750	-44.479143	0.000355	3.549120	1.202474	-0.000142
1332	1.3243e+02	-13.0248	-44.563923	0.000213	2.129472	0.721485	-0.000085
1333	1.3253e+02	-13.0617	-44.697148	0.000335	3.346313	1.133762	-0.000134
1334	1.3263e+02	-13.0986	-44.806151	0.000274	2.737893	0.927623	-0.000110
1335	1.3273e+02	-13.1419	-44.923228	0.000294	2.940699	0.996336	-0.000118
1336	1.3283e+02	-13.1788	-45.024156	0.000254	2.535086	0.858910	-0.000101
1337	1.3293e+02	-13.2173	-45.209865	0.000466	4.664558	1.580395	-0.000187
1338	1.3303e+02	-13.2718	-45.278496	0.000172	1.723858	0.584059	-0.000069
1339	1.3313e+02	-13.3023	-45.395573	0.000294	2.940699	0.996336	-0.000118
1340	1.3323e+02	-13.3440	-45.496501	0.000254	2.535086	0.858910	-0.000101
1341	1.3333e+02	-13.3809	-45.609541	0.000284	2.839296	0.961980	-0.000114
1342	1.3343e+02	-13.4130	-45.750841	0.000355	3.549120	1.202474	-0.000142
1343	1.3353e+02	-13.4483	-45.859843	0.000274	2.737893	0.927623	-0.000110
1344	1.3363e+02	-13.4964	-45.964809	0.000264	2.636489	0.893267	-0.000105
1345	1.3373e+02	-13.5413	-46.073812	0.000274	2.737893	0.927623	-0.000110
1346	1.3383e+02	-13.5750	-46.162629	0.000223	2.230875	0.755841	-0.000089
1347	1.3393e+02	-13.6231	-46.332188	0.000426	4.258944	1.442969	-0.000170
1348	1.3403e+02	-13.6745	-46.416968	0.000213	2.129472	0.721485	-0.000085
1349	1.3413e+02	-13.7034	-46.517897	0.000254	2.535086	0.858910	-0.000101
1350	1.3423e+02	-13.7290	-46.626899	0.000274	2.737893	0.927623	-0.000110
1351	1.3432e+02	-13.7755	-46.723790	0.000243	2.433682	0.824554	-0.000097
1352	1.3442e+02	-13.8173	-46.873164	0.000375	3.751927	1.271187	-0.000150
1353	1.3452e+02	-13.8622	-46.970056	0.000243	2.433682	0.824554	-0.000097
1354	1.3462e+02	-13.8911	-47.103281	0.000335	3.346313	1.133762	-0.000134
1355	1.3472e+02	-13.9408	-47.196135	0.000233	2.332279	0.790197	-0.000093
1356	1.3482e+02	-13.9777	-47.317249	0.000304	3.042103	1.030692	-0.000122
1357	1.3492e+02	-14.0162	-47.414141	0.000243	2.433682	0.824554	-0.000097
1358	1.3502e+02	-14.0563	-47.494883	0.000203	2.028069	0.687128	-0.000081
1359	1.3512e+02	-14.1060	-47.628109	0.000335	3.346313	1.133762	-0.000134
1360	1.3522e+02	-14.1381	-47.781520	0.000385	3.853330	1.305544	-0.000154
1361	1.3532e+02	-14.1766	-47.890523	0.000274	2.737893	0.927623	-0.000110
1362	1.3542e+02	-14.2199	-47.995488	0.000264	2.636489	0.893267	-0.000105
1363	1.3552e+02	-14.2520	-48.108528	0.000284	2.839296	0.961980	-0.000114
1364	1.3562e+02	-14.2985	-48.221568	0.000284	2.839296	0.961980	-0.000114
1365	1.3572e+02	-14.3418	-48.318459	0.000243	2.433682	0.824554	-0.000097
1366	1.3582e+02	-14.3723	-48.443610	0.000314	3.143506	1.065049	-0.000126
1367	1.3592e+02	-14.4172	-48.560687	0.000294	2.940699	0.996336	-0.000118
1368	1.3602e+02	-14.4541	-48.697950	0.000345	3.447717	1.168118	-0.000138
1369	1.3612e+02	-14.4958	-48.782730	0.000213	2.129472	0.721485	-0.000085
1370	1.3622e+02	-14.5392	-48.895769	0.000284	2.839296	0.961980	-0.000114
1371	1.3631e+02	-14.5777	-49.028995	0.000335	3.346313	1.133762	-0.000134
1372	1.3641e+02	-14.6162	-49.101663	0.000183	1.825262	0.618415	-0.000073
1373	1.3651e+02	-14.6579	-49.230852	0.000324	3.244910	1.099405	-0.000130
1374	1.3661e+02	-14.6964	-49.372152	0.000355	3.549120	1.202474	-0.000142
1375	1.3671e+02	-14.7445	-49.432709	0.000152	1.521051	0.515346	-0.000061
1376	1.3681e+02	-14.7814	-49.569971	0.000345	3.447717	1.168118	-0.000138
1377	1.3691e+02	-14.8135	-49.695122	0.000314	3.143506	1.065049	-0.000126
1378	1.3701e+02	-14.8488	-49.836422	0.000355	3.549120	1.202474	-0.000142
1379	1.3711e+02	-14.8969	-49.884868	0.000122	1.216841	0.412277	-0.000049
1380	1.3721e+02	-14.9322	-50.054427	0.000426	4.258944	1.442969	-0.000170
1381	1.3731e+02	-14.9771	-50.143244	0.000223	2.230875	0.755841	-0.000089
1382	1.3741e+02	-15.0140	-50.236099	0.000233	2.332279	0.790197	-0.000093
1383	1.3751e+02	-15.0541	-50.365287	0.000324	3.244910	1.099405	-0.000130
1384	1.3761e+02	-15.0910	-50.421807	0.000142	1.419648	0.480990	-0.000057
1385	1.3771e+02	-15.1407	-50.530809	0.000274	2.737893	0.927623	-0.000110
1386	1.3781e+02	-15.1712	-50.668072	0.000345	3.447717	1.168118	-0.000138
1387	1.3791e+02	-15.2065	-50.809372	0.000355	3.549120	1.202474	-0.000142
1388	1.3801e+02	-15.2434	-50.914337	0.000264	2.636489	0.893267	-0.000105
1389	1.3811e+02	-15.2915	-51.011229	0.000243	2.433682	0.824554	-0.000097
1390	1.3821e+02	-15.3300	-51.148491	0.000345	3.447717	1.168118	-0.000138
1391	1.3831e+02	-15.3637	-51.269605	0.000304	3.042103	1.030692	-0.000122
1392	1.3840e+02	-15.4199	-51.370534	0.000254	2.535086	0.858910	-0.000101
1393	1.3850e+02	-15.4439	-51.459351	0.000223	2.230875	0.755841	-0.000089
1394	1.3860e+02	-15.4985	-51.556242	0.000243	2.433682	0.824554	-0.000097
1395	1.3870e+02	-15.5386	-51.725802	0.000426	4.258944	1.442969	-0.000170
1396	1.3880e+02	-15.5707	-51.810581	0.000213	2.129472	0.721485	-0.000085
1397	1.3890e+02	-15.6108	-51.919584	0.000274	2.737893	0.927623	-0.000110
1398	1.3900e+02	-15.6445	-52.044735	0.000314	3.143506	1.065049	-0.000126
1399	1.3910e+02	-15.6926	-52.129515	0.000213	2.129472	0.721485	-0.000085
1400	1.3920e+02	-15.7327	-52.242555	0.000284	2.839296	0.961980	-0.000114
1401	1.3930e+02	-15.7712	-52.391929	0.000375	3.751927	1.271187	-0.000150
1402	1.3940e+02	-15.8097	-52.484783	0.000233	2.332279	0.790197	-0.000093
1403	1.3950e+02	-15.8578	-52.589749	0.000264	2.636489	0.893267	-0.000105
1404	1.3960e+02	-15.8771	-52.727011	0.000345	3.447717	1.168118	-0.000138
1405	1.3970e+02	-15.9220	-52.876385	0.000375	3.751927	1.271187	-0.000150
1406	1.3980e+02	-15.9669	-52.932905	0.000142	1.419648	0.480990	-0.000057
1407	1.3990e+02	-16.0070	-53.037871	0.000264	2.636489	0.893267	-0.000105
1408	1.4000e+02	-16.0552	-53.167059	0.000324	3.244910	1.099405	-0.000130
1409	1.4010e+02	-16.0953	-53.280099	0.000284	2.839296	0.961980	-0.000114
1410	1.4020e+02	-16.1257	-53.417362	0.000345	3.447717	1.168118	-0.000138
1411	1.4029e+02	-16.1707	-53.506179	0.000223	2.230875	0.755841	-0.000089
1412	1.4039e+02	-16.2060	-53.639404	0.000335	3.346313	1.133762	-0.000134
1413	1.4049e+02	-16.2541	-53.776667	0.000345	3.447717	1.168118	-0.000138
1414	1.4059e+02	-16.2894	-53.849335	0.000183	1.825262	0.618415	-0.000073
1415	1.4069e+02	-16.3311	-53.930078	0.000203	2.028069	0.687128	-0.000081
1416	1.4079e+02	-16.3744	-54.095600	0.000416	4.157541	1.408613	-0.000166
1417	1.4089e+02	-16.4097	-54.160194	0.000162	1.622455	0.549703	-0.000065
1418	1.4099e+02	-16.4530	-54.281309	0.000304	3.042103	1.030692	-0.000122
1419	1.4109e+02	-16.4835	-54.398386	0.000294	2.940699	0.996336	-0.000118
1420	1.4119e+02	-16.5188	-54.527574	0.000324	3.244910	1.099405	-0.000130
1421	1.4129e+02	-16.5717	-54.652725	0.000314	3.143506	1.065049	-0.000126
1422	1.4139e+02	-16.6134	-54.761728	0.000274	2.737893	0.927623	-0.000110
1423	1.4149e+02	-16.6551	-54.903027	0.000355	3.549120	1.202474	-0.000142
1424	1.4159e+02	-16.6936	-54.963585	0.000152	1.521051	0.515346	-0.000061
1425	1.4169e+02	-16.7289	-55.121033	0.000395	3.954734	1.339900	-0.000158
1426	1.4179e+02	-16.7690	-55.205813	0.000213	2.129472	0.721485	-0.000085
1427	1.4189e+02	-16.8124	-55.351150	0.000365	3.650523	1.236831	-0.000146
1428	1.4199e+02	-16.8460	-55.508598	0.000395	3.954734	1.339900	-0.000158
1429	1.4209e+02	-16.8910	-55.557043	0.000122	1.216841	0.412277	-0.000049
1430	1.4219e+02	-16.9247	-55.706417	0.000375	3.751927	1.271187	-0.000150
1431	1.4228e+02	-16.9696	-55.795234	0.000223	2.230875	0.755841	-0.000089
1432	1.4238e+02	-17.0081	-55.940571	0.000365	3.650523	1.236831	-0.000146
1433	1.4248e+02	-17.0434	-56.017277	0.000193	1.926665	0.652772	-0.000077
1434	1.4258e+02	-17.0835	-56.170688	0.000385	3.853330	1.305544	-0.000154
1435	1.4268e+02	-17.1252	-56.316025	0.000365	3.650523	1.236831	-0.000146
1436	1.4278e+02	-17.1621	-56.412916	0.000243	2.433682	0.824554	-0.000097
1437	1.4288e+02	-17.1990	-56.465399	0.000132	1.318245	0.446633	-0.000053
1438	1.4298e+02	-17.2423	-56.630922	0.000416	4.157541	1.408613	-0.000166
1439	1.4308e+02	-17.2856	-56.727813	0.000243	2.433682	0.824554	-0.000097
1440	1.4318e+02	-17.3225	-56.861038	0.000335	3.346313	1.133762	-0.000134
1441	1.4328e+02	-17.3674	-56.945818	0.000213	2.129472	0.721485	-0.000085
1442	1.4338e+02	-17.4043	-57.111341	0.000416	4.157541	1.408613	-0.000166
1443	1.4348e+02	-17.4444	-57.208232	0.000243	2.433682	0.824554	-0.000097
1444	1.4358e+02	-17.4861	-57.341457	0.000335	3.346313	1.133762	-0.000134
1445	1.4368e+02	-17.5343	-57.402014	0.000152	1.521051	0.515346	-0.000061
1446	1.4378e+02	-17.5680	-57.519091	0.000294	2.940699	0.996336	-0.000118
1447	1.4388e+02	-17.6065	-57.632131	0.000284	2.839296	0.961980	-0.000114
1448	1.4398e+02	-17.6401	-57.733060	0.000254	2.535086	0.858910	-0.000101
1449	1.4408e+02	-17.6819	-57.866285	0.000335	3.346313	1.133762	-0.000134
1450	1.4418e+02	-17.7188	-57.975288	0.000274	2.737893	0.927623	-0.000110
1451	1.4428e+02	-17.7669	-58.096402	0.000304	3.042103	1.030692	-0.000122
1452	1.4437e+02	-17.8054	-58.217516	0.000304	3.042103	1.030692	-0.000122
1453	1.4447e+02	-17.8471	-58.278073	0.000152	1.521051	0.515346	-0.000061
1454	1.4457e+02	-17.8824	-58.439558	0.000406	4.056137	1.374256	-0.000162
1455	1.4467e+02	-17.9177	-58.544524	0.000264	2.636489	0.893267	-0.000105
1456	1.4477e+02	-17.9690	-58.714084	0.000426	4.258944	1.442969	-0.000170
1457	1.4487e+02	-18.0011	-58.782715	0.000172	1.723858	0.584059	-0.000069
1458	1.4497e+02	-18.0348	-58.903829	0.000304	3.042103	1.030692	-0.000122
1459	1.4507e+02	-18.0829	-59.000720	0.000243	2.433682	0.824554	-0.000097
1460	1.4517e+02	-18.1230	-59.146057	0.000365	3.650523	1.236831	-0.000146
1461	1.4527e+02	-18.1679	-59.218726	0.000183	1.825262	0.618415	-0.000073
1462	1.4537e+02	-18.2016	-59.327728	0.000274	2.737893	0.927623	-0.000110
1463	1.4547e+02	-18.2385	-59.456917	0.000324	3.244910	1.099405	-0.000130
1464	1.4557e+02	-18.2722	-59.610328	0.000385	3.853330	1.305544	-0.000154
1465	1.4567e+02	-18.3203	-59.711256	0.000254	2.535086	0.858910	-0.000101
1466	1.4577e+02	-18.3572	-59.836407	0.000314	3.143506	1.065049	-0.000126
1467	1.4587e+02	-18.3989	-59.896964	0.000152	1.521051	0.515346	-0.000061
1468	1.4597e+02	-18.4374	-60.066524	0.000426	4.258944	1.442969	-0.000170
1469	1.4607e+02	-18.4808	-60.203787	0.000345	3.447717	1.168118	-0.000138
1470	1.4617e+02	-18.5241	-60.288567	0.000213	2.129472	0.721485	-0.000085
1471	1.4626e+02	-18.5658	-60.373346	0.000213	2.129472	0.721485	-0.000085
1472	1.4636e+02	-18.5931	-60.534832	0.000406	4.056137	1.374256	-0.000162
1473	1.4646e+02	-18.6332	-60.623649	0.000223	2.230875	0.755841	-0.000089
1474	1.4656e+02	-18.6765	-60.752837	0.000324	3.244910	1.099405	-0.000130
1475	1.4666e+02	-18.7150	-60.877988	0.000314	3.143506	1.065049	-0.000126
1476	1.4676e+02	-18.7535	-60.950657	0.000183	1.825262	0.618415	-0.000073
1477	1.4686e+02	-18.8048	-61.063697	0.000284	2.839296	0.961980	-0.000114
1478	1.4696e+02	-18.8289	-61.192885	0.000324	3.244910	1.099405	-0.000130
1479	1.4706e+02	-18.8802	-61.297850	0.000264	2.636489	0.893267	-0.000105
1480	1.4716e+02	-18.9219	-61.414927	0.000294	2.940699	0.996336	-0.000118
1481	1.4726e+02	-18.9620	-61.527967	0.000284	2.839296	0.961980	-0.000114
1482	1.4736e+02	-18.9989	-61.612747	0.000213	2.129472	0.721485	-0.000085
1483	1.4746e+02	-19.0342	-61.750010	0.000345	3.447717	1.168118	-0.000138
1484	1.4756e+02	-19.0807	-61.883235	0.000335	3.346313	1.133762	-0.000134
1485	1.4766e+02	-19.1209	-61.968015	0.000213	2.129472	0.721485	-0.000085
1486	1.4776e+02	-19.1561	-62.072981	0.000264	2.636489	0.893267	-0.000105
1487	1.4786e+02	-19.1979	-62.214280	0.000355	3.549120	1.202474	-0.000142
1488	1.4796e+02	-19.2299	-62.307134	0.000233	2.332279	0.790197	-0.000093
1489	1.4806e+02	-19.2733	-62.424211	0.000294	2.940699	0.996336	-0.000118
1490	1.4816e+02	-19.3214	-62.545325	0.000304	3.042103	1.030692	-0.000122
1491	1.4825e+02	-19.3551	-62.690662	0.000365	3.650523	1.236831	-0.000146
1492	1.4835e+02	-19.3936	-62.735071	0.000112	1.115438	0.377921	-0.000045
1493	1.4845e+02	-19.4337	-62.888482	0.000385	3.853330	1.305544	-0.000154
1494	1.4855e+02	-19.4690	-63.017670	0.000324	3.244910	1.099405	-0.000130
1495	1.4865e+02	-19.5187	-63.114562	0.000243	2.433682	0.824554	-0.000097
1496	1.4875e+02	-19.5620	-63.239713	0.000314	3.143506	1.065049	-0.000126
1497	1.4885e+02	-19.5861	-63.340641	0.000254	2.535086	0.858910	-0.000101
1498	1.4895e+02	-19.6326	-63.461755	0.000304	3.042103	1.030692	-0.000122
1499	1.4905e+02	-19.6791	-63.566721	0.000264	2.636489	0.893267	-0.000105
1500	1.4915e+02	-19.7128	-63.724169	0.000395	3.954734	1.339900	-0.000158
1501	1.4925e+02	-19.7497	-63.837209	0.000284	2.839296	0.961980	-0.000114
1502	1.4935e+02	-19.7962	-63.950249	0.000284	2.839296	0.961980	-0.000114
1503	1.4945e+02	-19.8267	-64.075400	0.000314	3.143506	1.065049	-0.000126
1504	1.4955e+02	-19.8764	-64.196514	0.000304	3.042103	1.030692	-0.000122
1505	1.4965e+02	-19.9053	-64.261108	0.000162	1.622455	0.549703	-0.000065
1506	1.4975e+02	-19.9551	-64.374148	0.000284	2.839296	0.961980	-0.000114
1507	1.4985e+02	-19.9855	-64.511411	0.000345	3.447717	1.168118	-0.000138
1508	1.4995e+02	-19.9502	-64.450853	0.000152	1.521051	0.515346	0.000061
1509	1.5005e+02	-19.9198	-64.406445	0.000112	1.115438	0.377921	0.000045
1510	1.5015e+02	-19.8748	-64.374148	0.000081	0.811227	0.274851	0.000032
1511	1.5025e+02	-19.8395	-64.277257	0.000243	2.433682	0.824554	0.000097
1512	1.5034e+02	-19.7994	-64.131920	0.000365	3.650523	1.236831	0.000146
1513	1.5044e+02	-19.7433	-64.127883	0.000010	0.101403	0.034356	0.000004
1514	1.5054e+02	-19.7112	-64.047140	0.000203	2.028069	0.687128	0.000081
1515	1.5064e+02	-19.6615	-63.958323	0.000223	2.230875	0.755841	0.000089
1516	1.5074e+02	-19.6326	-63.893729	0.000162	1.622455	0.549703	0.000065
1517	1.5084e+02	-19.5973	-63.825097	0.000172	1.723858	0.584059	0.000069
1518	1.5094e+02	-19.5492	-63.720132	0.000264	2.636489	0.893267	0.000105
1519	1.5104e+02	-19.5203	-63.647463	0.000183	1.825262	0.618415	0.000073
1520	1.5114e+02	-19.4706	-63.574795	0.000183	1.825262	0.618415	0.000073
1521	1.5124e+02	-19.4385	-63.510201	0.000162	1.622455	0.549703	0.000065
1522	1.5134e+02	-19.3855	-63.429458	0.000203	2.028069	0.687128	0.000081
1523	1.5144e+02	-19.3583	-63.360827	0.000172	1.723858	0.584059	0.000069
1524	1.5154e+02	-19.3085	-63.292196	0.000172	1.723858	0.584059	0.000069
1525	1.5164e+02	-19.2749	-63.211453	0.000203	2.028069	0.687128	0.000081
1526	1.5174e+02	-19.2460	-63.134747	0.000193	1.926665	0.652772	0.000077
1527	1.5184e+02	-19.1946	-63.021707	0.000284	2.839296	0.961980	0.000114
1528	1.5194e+02	-19.1561	-62.981336	0.000101	1.014034	0.343564	0.000041
1529	1.5204e+02	-19.1192	-62.896556	0.000213	2.129472	0.721485	0.000085
1530	1.5214e+02	-19.0743	-62.803702	0.000233	2.332279	0.790197	0.000093
1531	1.5224e+02	-19.0342	-62.763331	0.000101	1.014034	0.343564	0.000041
1532	1.5233e+02	-18.9925	-62.638180	0.000314	3.143506	1.065049	0.000126
1533	1.5243e+02	-18.9588	-62.565511	0.000183	1.825262	0.618415	0.000073
1534	1.5253e+02	-18.9235	-62.492843	0.000183	1.825262	0.618415	0.000073
1535	1.5263e+02	-18.8786	-62.412100	0.000203	2.028069	0.687128	0.000081
1536	1.5273e+02	-18.8401	-62.331357	0.000203	2.028069	0.687128	0.000081
1537	1.5283e+02	-18.7984	-62.258689	0.000183	1.825262	0.618415	0.000073
1538	1.5293e+02	-18.7567	-62.194095	0.000162	1.622455	0.549703	0.000065
1539	1.5303e+02	-18.7198	-62.081055	0.000284	2.839296	0.961980	0.000114
1540	1.5313e+02	-18.6813	-62.000312	0.000203	2.028069	0.687128	0.000081
1541	1.5323e+02	-18.6348	-61.895347	0.000264	2.636489	0.893267	0.000105
1542	1.5333e+02	-18.6043	-61.806530	0.000223	2.230875	0.755841	0.000089
1543	1.5343e+02	-18.5562	-61.705601	0.000254	2.535086	0.858910	0.000101
1544	1.5353e+02	-18.5273	-61.612747	0.000233	2.332279	0.790197	0.000093
1545	1.5363e+02	-18.4792	-61.532004	0.000203	2.028069	0.687128	0.000081
1546	1.5373e+02	-18.4423	-61.475484	0.000142	1.419648	0.480990	0.000057
1547	1.5383e+02	-18.4086	-61.374556	0.000254	2.535086	0.858910	0.000101
1548	1.5393e+02	-18.3572	-61.309962	0.000162	1.622455	0.549703	0.000065
1549	1.5403e+02	-18.3203	-61.188848	0.000304	3.042103	1.030692	0.000122
1550	1.5413e+02	-18.2818	-61.104068	0.000213	2.129472	0.721485	0.000085
1551	1.5422e+02	-18.2401	-60.999102	0.000264	2.636489	0.893267	0.000105
1552	1.5432e+02	-18.2113	-60.934508	0.000162	1.622455	0.549703	0.000065
1553	1.5442e+02	-18.1695	-60.865877	0.000172	1.723858	0.584059	0.000069
1554	1.5452e+02	-18.1198	-60.760911	0.000264	2.636489	0.893267	0.000105
1555	1.5462e+02	-18.0797	-60.668057	0.000233	2.332279	0.790197	0.000093
1556	1.5472e+02	-18.0332	-60.559055	0.000274	2.737893	0.927623	0.000110
1557	1.5482e+02	-18.0075	-60.494460	0.000162	1.622455	0.549703	0.000065
1558	1.5492e+02	-17.9546	-60.405643	0.000223	2.230875	0.755841	0.000089
1559	1.5502e+02	-17.9273	-60.332975	0.000183	1.825262	0.618415	0.000073
1560	1.5512e+02	-17.8744	-60.215898	0.000294	2.940699	0.996336	0.000118
1561	1.5522e+02	-17.8423	-60.143230	0.000183	1.825262	0.618415	0.000073
1562	1.5532e+02	-17.8006	-60.010004	0.000335	3.346313	1.133762	0.000134
1563	1.5542e+02	-17.7637	-59.997893	0.000030	0.304210	0.103069	0.000012
1564	1.5552e+02	-17.7123	-59.884853	0.000284	2.839296	0.961980	0.000114
1565	1.5562e+02	-17.6819	-59.820259	0.000162	1.622455	0.549703	0.000065
1566	1.5572e+02	-17.6401	-59.666848	0.000385	3.853330	1.305544	0.000154
1567	1.5582e+02	-17.6065	-59.610328	0.000142	1.419648	0.480990	0.000057
1568	1.5592e+02	-17.5615	-59.509399	0.000254	2.535086	0.858910	0.000101
1569	1.5602e+02	-17.5198	-59.464991	0.000112	1.115438	0.377921	0.000045
1570	1.5612e+02	-17.4974	-59.343877	0.000304	3.042103	1.030692	0.000122
1571	1.5622e+02	-17.4444	-59.238911	0.000264	2.636489	0.893267	0.000105
1572	1.5631e+02	-17.4059	-59.154131	0.000213	2.129472	0.721485	0.000085
1573	1.5641e+02	-17.3610	-59.077426	0.000193	1.926665	0.652772	0.000077
1574	1.5651e+02	-17.3209	-58.968423	0.000274	2.737893	0.927623	0.000110
1575	1.5661e+02	-17.2872	-58.899792	0.000172	1.723858	0.584059	0.000069
1576	1.5671e+02	-17.2391	-58.786752	0.000284	2.839296	0.961980	0.000114
1577	1.5681e+02	-17.2070	-58.742344	0.000112	1.115438	0.377921	0.000045
1578	1.5691e+02	-17.1605	-58.649489	0.000233	2.332279	0.790197	0.000093
1579	1.5701e+02	-17.1252	-58.544524	0.000264	2.636489	0.893267	0.000105
1580	1.5711e+02	-17.0867	-58.447633	0.000243	2.433682	0.824554	0.000097
1581	1.5721e+02	-17.0482	-58.342667	0.000264	2.636489	0.893267	0.000105
1582	1.5731e+02	-16.9985	-58.249813	0.000233	2.332279	0.790197	0.000093
1583	1.5741e+02	-16.9616	-58.181182	0.000172	1.723858	0.584059	0.000069
1584	1.5751e+02	-16.9311	-58.096402	0.000213	2.129472	0.721485	0.000085
1585	1.5761e+02	-16.8910	-57.999511	0.000243	2.433682	0.824554	0.000097
1586	1.5771e+02	-16.8332	-57.906656	0.000233	2.332279	0.790197	0.000093
1587	1.5781e+02	-16.8043	-57.797654	0.000274	2.737893	0.927623	0.000110
1588	1.5791e+02	-16.7658	-57.708837	0.000223	2.230875	0.755841	0.000089
1589	1.5801e+02	-16.7321	-57.624057	0.000213	2.129472	0.721485	0.000085
1590	1.5811e+02	-16.6888	-57.531203	0.000233	2.332279	0.790197	0.000093
1591	1.5821e+02	-16.6439	-57.458534	0.000183	1.825262	0.618415	0.000073
1592	1.5830e+02	-16.6022	-57.329346	0.000324	3.244910	1.099405	0.000130
1593	1.5840e+02	-16.5637	-57.268789	0.000152	1.521051	0.515346	0.000061
1594	1.5850e+02	-16.5268	-57.188046	0.000203	2.028069	0.687128	0.000081
1595	1.5860e+02	-16.4883	-57.091155	0.000243	2.433682	0.824554	0.000097
1596	1.5870e+02	-16.4514	-56.978115	0.000284	2.839296	0.961980	0.000114
1597	1.5880e+02	-16.4033	-56.933707	0.000112	1.115438	0.377921	0.000045
1598	1.5890e+02	-16.3648	-56.824704	0.000274	2.737893	0.927623	0.000110
1599	1.5900e+02	-16.3263	-56.715701	0.000274	2.737893	0.927623	0.000110
1600	1.5910e+02	-16.2942	-56.647070	0.000172	1.723858	0.584059	0.000069
1601	1.5920e+02	-16.2525	-56.517882	0.000324	3.244910	1.099405	0.000130
1602	1.5930e+02	-16.2156	-56.473473	0.000112	1.115438	0.377921	0.000045
1603	1.5940e+02	-16.1723	-56.360433	0.000284	2.839296	0.961980	0.000114
1604	1.5950e+02	-16.1338	-56.227208	0.000335	3.346313	1.133762	0.000134
1605	1.5960e+02	-16.0937	-56.162614	0.000162	1.622455	0.549703	0.000065
1606	1.5970e+02	-16.0455	-56.093983	0.000172	1.723858	0.584059	0.000069
1607	1.5980e+02	-16.0118	-56.005166	0.000223	2.230875	0.755841	0.000089
1608	1.5990e+02	-15.9685	-55.892126	0.000284	2.839296	0.961980	0.000114
1609	1.6000e+02	-15.9236	-55.831569	0.000152	1.521051	0.515346	0.000061
1610	1.6010e+02	-15.8867	-55.706417	0.000314	3.143506	1.065049	0.000126
1611	1.6019e+02	-15.8546	-55.653935	0.000132	1.318245	0.446633	0.000053
1612	1.6029e+02	-15.8113	-55.544932	0.000274	2.737893	0.927623	0.000110
1613	1.6039e+02	-15.7760	-55.419781	0.000314	3.143506	1.065049	0.000126
1614	1.6049e+02	-15.7279	-55.330964	0.000223	2.230875	0.755841	0.000089
1615	1.6059e+02	-15.6958	-55.242147	0.000223	2.230875	0.755841	0.000089
1616	1.6069e+02	-15.6493	-55.145256	0.000243	2.433682	0.824554	0.000097
1617	1.6079e+02	-15.6140	-55.056439	0.000223	2.230875	0.755841	0.000089
1618	1.6089e+02	-15.5707	-54.995882	0.000152	1.521051	0.515346	0.000061
1619	1.6099e+02	-15.5290	-54.842470	0.000385	3.853330	1.305544	0.000154
1620	1.6109e+02	-15.4825	-54.773839	0.000172	1.723858	0.584059	0.000069
1621	1.6119e+02	-15.4472	-54.664836	0.000274	2.737893	0.927623	0.000110
1622	1.6129e+02	-15.4151	-54.567945	0.000243	2.433682	0.824554	0.000097
1623	1.6139e+02	-15.3750	-54.511425	0.000142	1.419648	0.480990	0.000057
1624	1.6149e+02	-15.3252	-54.374163	0.000345	3.447717	1.168118	0.000138
1625	1.6159e+02	-15.2915	-54.285346	0.000223	2.230875	0.755841	0.000089
1626	1.6169e+02	-15.2498	-54.200566	0.000213	2.129472	0.721485	0.000085
1627	1.6179e+02	-15.2097	-54.091563	0.000274	2.737893	0.927623	0.000110
1628	1.6189e+02	-15.1744	-54.010820	0.000203	2.028069	0.687128	0.000081
1629	1.6199e+02	-15.1375	-53.893744	0.000294	2.940699	0.996336	0.000118
1630	1.6209e+02	-15.0878	-53.800889	0.000233	2.332279	0.790197	0.000093
1631	1.6219e+02	-15.0557	-53.744370	0.000142	1.419648	0.480990	0.000057
1632	1.6228e+02	-15.0172	-53.615181	0.000324	3.244910	1.099405	0.000130
1633	1.6238e+02	-14.9851	-53.530401	0.000213	2.129472	0.721485	0.000085
1634	1.6248e+02	-14.9402	-53.477919	0.000132	1.318245	0.446633	0.000053
1635	1.6258e+02	-14.8969	-53.312396	0.000416	4.157541	1.408613	0.000166
1636	1.6268e+02	-14.8552	-53.247802	0.000162	1.622455	0.549703	0.000065
1637	1.6278e+02	-14.8103	-53.126688	0.000304	3.042103	1.030692	0.000122
1638	1.6288e+02	-14.7782	-53.033834	0.000233	2.332279	0.790197	0.000093
1639	1.6298e+02	-14.7445	-52.908682	0.000314	3.143506	1.065049	0.000126
1640	1.6308e+02	-14.6996	-52.856200	0.000132	1.318245	0.446633	0.000053
1641	1.6318e+02	-14.6563	-52.755271	0.000254	2.535086	0.858910	0.000101
1642	1.6328e+02	-14.6178	-52.650306	0.000264	2.636489	0.893267	0.000105
1643	1.6338e+02	-14.5729	-52.525155	0.000314	3.143506	1.065049	0.000126
1644	1.6348e+02	-14.5408	-52.460560	0.000162	1.622455	0.549703	0.000065
1645	1.6358e+02	-14.5023	-52.323298	0.000345	3.447717	1.168118	0.000138
1646	1.6368e+02	-14.4477	-52.234481	0.000223	2.230875	0.755841	0.000089
1647	1.6378e+02	-14.4076	-52.101255	0.000335	3.346313	1.133762	0.000134
1648	1.6388e+02	-14.3739	-52.028587	0.000183	1.825262	0.618415	0.000073
1649	1.6398e+02	-14.3386	-51.959956	0.000172	1.723858	0.584059	0.000069
1650	1.6408e+02	-14.2921	-51.883250	0.000193	1.926665	0.652772	0.000077
1651	1.6418e+02	-14.2568	-51.750024	0.000335	3.346313	1.133762	0.000134
1652	1.6427e+02	-14.2183	-51.632948	0.000294	2.940699	0.996336	0.000118
1653	1.6437e+02	-14.1782	-51.523945	0.000274	2.737893	0.927623	0.000110
1654	1.6447e+02	-14.1413	-51.406868	0.000294	2.940699	0.996336	0.000118
1655	1.6457e+02	-14.0932	-51.334199	0.000183	1.825262	0.618415	0.000073
1656	1.6467e+02	-14.0611	-51.253457	0.000203	2.028069	0.687128	0.000081
1657	1.6477e+02	-14.0258	-51.096008	0.000395	3.954734	1.339900	0.000158
1658	1.6487e+02	-13.9729	-51.039489	0.000142	1.419648	0.480990	0.000057
1659	1.6497e+02	-13.9360	-50.942597	0.000243	2.433682	0.824554	0.000097
1660	1.6507e+02	-13.8943	-50.825520	0.000294	2.940699	0.996336	0.000118
1661	1.6517e+02	-13.8526	-50.692295	0.000335	3.346313	1.133762	0.000134
1662	1.6527e+02	-13.8237	-50.599441	0.000233	2.332279	0.790197	0.000093
1663	1.6537e+02	-13.7707	-50.502550	0.000243	2.433682	0.824554	0.000097
1664	1.6547e+02	-13.7370	-50.385473	0.000294	2.940699	0.996336	0.000118
1665	1.6557e+02	-13.7001	-50.268396	0.000294	2.940699	0.996336	0.000118
1666	1.6567e+02	-13.6536	-50.171504	0.000243	2.433682	0.824554	0.000097
1667	1.6577e+02	-13.6103	-50.078650	0.000233	2.332279	0.790197	0.000093
1668	1.6587e+02	-13.5782	-49.981759	0.000243	2.433682	0.824554	0.000097
1669	1.6597e+02	-13.5461	-49.864682	0.000294	2.940699	0.996336	0.000118
1670	1.6607e+02	-13.5012	-49.792014	0.000183	1.825262	0.618415	0.000073
1671	1.6616e+02	-13.4579	-49.626491	0.000416	4.157541	1.408613	0.000166
1672	1.6626e+02	-13.4226	-49.586120	0.000101	1.014034	0.343564	0.000041
1673	1.6636e+02	-13.3841	-49.424634	0.000406	4.056137	1.374256	0.000162
1674	1.6646e+02	-13.3408	-49.319669	0.000264	2.636489	0.893267	0.000105
1675	1.6656e+02	-13.2911	-49.238926	0.000203	2.028069	0.687128	0.000081
1676	1.6666e+02	-13.2590	-49.109738	0.000324	3.244910	1.099405	0.000130
1677	1.6676e+02	-13.2221	-49.045144	0.000162	1.622455	0.549703	0.000065
1678	1.6686e+02	-13.1836	-48.899807	0.000365	3.650523	1.236831	0.000146
1679	1.6696e+02	-13.1403	-48.827138	0.000183	1.825262	0.618415	0.000073
1680	1.6706e+02	-13.0937	-48.734284	0.000233	2.332279	0.790197	0.000093
1681	1.6716e+02	-13.0569	-48.560687	0.000436	4.360347	1.477326	0.000174
1682	1.6726e+02	-13.0344	-48.508204	0.000132	1.318245	0.446633	0.000053
1683	1.6736e+02	-12.9863	-48.370942	0.000345	3.447717	1.168118	0.000138
1684	1.6746e+02	-12.9349	-48.282125	0.000223	2.230875	0.755841	0.000089
1685	1.6756e+02	-12.9028	-48.156974	0.000314	3.143506	1.065049	0.000126
1686	1.6766e+02	-12.8692	-47.987414	0.000426	4.258944	1.442969	0.000170
1687	1.6776e+02	-12.8162	-47.943005	0.000112	1.115438	0.377921	0.000045
1688	1.6786e+02	-12.7761	-47.850151	0.000233	2.332279	0.790197	0.000093
1689	1.6796e+02	-12.7424	-47.720963	0.000324	3.244910	1.099405	0.000130
1690	1.6806e+02	-12.6991	-47.636183	0.000213	2.129472	0.721485	0.000085
1691	1.6816e+02	-12.6670	-47.515069	0.000304	3.042103	1.030692	0.000122
1692	1.6825e+02	-12.6237	-47.385881	0.000324	3.244910	1.099405	0.000130
1693	1.6835e+02	-12.5788	-47.305138	0.000203	2.028069	0.687128	0.000081
1694	1.6845e+02	-12.5451	-47.159801	0.000365	3.650523	1.236831	0.000146
1695	1.6855e+02	-12.5050	-47.070984	0.000223	2.230875	0.755841	0.000089
1696	1.6865e+02	-12.4585	-46.970056	0.000254	2.535086	0.858910	0.000101
1697	1.6875e+02	-12.4200	-46.881239	0.000223	2.230875	0.755841	0.000089
1698	1.6885e+02	-12.3895	-46.764162	0.000294	2.940699	0.996336	0.000118
1699	1.6895e+02	-12.3414	-46.610751	0.000385	3.853330	1.305544	0.000154
1700	1.6905e+02	-12.3045	-46.521934	0.000223	2.230875	0.755841	0.000089
1701	1.6915e+02	-12.2595	-46.429080	0.000233	2.332279	0.790197	0.000093
1702	1.6925e+02	-12.2307	-46.291817	0.000345	3.447717	1.168118	0.000138
1703	1.6935e+02	-12.1841	-46.190889	0.000254	2.535086	0.858910	0.000101
1704	1.6945e+02	-12.1376	-46.114183	0.000193	1.926665	0.652772	0.000077
1705	1.6955e+02	-12.1007	-45.984995	0.000324	3.244910	1.099405	0.000130
1706	1.6965e+02	-12.0719	-45.871955	0.000284	2.839296	0.961980	0.000114
1707	1.6975e+02	-12.0285	-45.787175	0.000213	2.129472	0.721485	0.000085
1708	1.6985e+02	-11.9868	-45.670098	0.000294	2.940699	0.996336	0.000118
1709	1.6995e+02	-11.9563	-45.557058	0.000284	2.839296	0.961980	0.000114
1710	1.7005e+02	-11.9050	-45.427870	0.000324	3.244910	1.099405	0.000130
1711	1.7015e+02	-11.8649	-45.298682	0.000324	3.244910	1.099405	0.000130
1712	1.7024e+02	-11.8168	-45.193716	0.000264	2.636489	0.893267	0.000105
1713	1.7034e+02	-11.7751	-45.125085	0.000172	1.723858	0.584059	0.000069
1714	1.7044e+02	-11.7510	-44.967636	0.000395	3.954734	1.339900	0.000158
1715	1.7054e+02	-11.6997	-44.850559	0.000294	2.940699	0.996336	0.000118
1716	1.7064e+02	-11.6676	-44.765780	0.000213	2.129472	0.721485	0.000085
1717	1.7074e+02	-11.6211	-44.628517	0.000345	3.447717	1.168118	0.000138
1718	1.7084e+02	-11.5826	-44.523551	0.000264	2.636489	0.893267	0.000105
1719	1.7094e+02	-11.5553	-44.438772	0.000213	2.129472	0.721485	0.000085
1720	1.7104e+02	-11.5072	-44.337843	0.000254	2.535086	0.858910	0.000101
1721	1.7114e+02	-11.4655	-44.184432	0.000385	3.853330	1.305544	0.000154
1722	1.7124e+02	-11.4237	-44.063318	0.000304	3.042103	1.030692	0.000122
1723	1.7134e+02	-11.3836	-43.990650	0.000183	1.825262	0.618415	0.000073
1724	1.7144e+02	-11.3435	-43.861461	0.000324	3.244910	1.099405	0.000130
1725	1.7154e+02	-11.3147	-43.728236	0.000335	3.346313	1.133762	0.000134
1726	1.7164e+02	-11.2794	-43.663642	0.000162	1.622455	0.549703	0.000065
1727	1.7174e+02	-11.2328	-43.530416	0.000335	3.346313	1.133762	0.000134
1728	1.7184e+02	-11.1895	-43.409302	0.000304	3.042103	1.030692	0.000122
1729	1.7194e+02	-11.1590	-43.288188	0.000304	3.042103	1.030692	0.000122
1730	1.7204e+02	-11.0981	-43.199371	0.000223	2.230875	0.755841	0.000089
1731	1.7213e+02	-11.0660	-43.110554	0.000223	2.230875	0.755841	0.000089
1732	1.7223e+02	-11.0339	-42.989440	0.000304	3.042103	1.030692	0.000122
1733	1.7233e+02	-10.9970	-42.892549	0.000243	2.433682	0.824554	0.000097
1734	1.7243e+02	-10.9505	-42.739137	0.000385	3.853330	1.305544	0.000154
1735	1.7253e+02	-10.9072	-42.666469	0.000183	1.825262	0.618415	0.000073
1736	1.7263e+02	-10.8639	-42.561504	0.000264	2.636489	0.893267	0.000105
1737	1.7273e+02	-10.8270	-42.420204	0.000355	3.549120	1.202474	0.000142
1738	1.7283e+02	-10.7885	-42.343498	0.000193	1.926665	0.652772	0.000077
1739	1.7293e+02	-10.7500	-42.242570	0.000254	2.535086	0.858910	0.000101
1740	1.7303e+02	-10.7083	-42.077047	0.000416	4.157541	1.408613	0.000166
1741	1.7313e+02	-10.6714	-41.968045	0.000274	2.737893	0.927623	0.000110
1742	1.7323e+02	-10.6345	-41.911525	0.000142	1.419648	0.480990	0.000057
1743	1.7333e+02	-10.5911	-41.782336	0.000324	3.244910	1.099405	0.000130
1744	1.7343e+02	-10.5494	-41.665259	0.000294	2.940699	0.996336	0.000118
1745	1.7353e+02	-10.5190	-41.536071	0.000324	3.244910	1.099405	0.000130
1746	1.7363e+02	-10.4692	-41.459365	0.000193	1.926665	0.652772	0.000077
1747	1.7373e+02	-10.4355	-41.305954	0.000385	3.853330	1.305544	0.000154
1748	1.7383e+02	-10.3890	-41.192915	0.000284	2.839296	0.961980	0.000114
1749	1.7393e+02	-10.3521	-41.091986	0.000254	2.535086	0.858910	0.000101
1750	1.7403e+02	-10.3104	-41.007206	0.000213	2.129472	0.721485	0.000085
1751	1.7413e+02	-10.2719	-40.865907	0.000355	3.549120	1.202474	0.000142
1752	1.7422e+02	-10.2350	-40.789201	0.000193	1.926665	0.652772	0.000077
1753	1.7432e+02	-10.1853	-40.664050	0.000314	3.143506	1.065049	0.000126
1754	1.7442e+02	-10.1660	-40.579270	0.000213	2.129472	0.721485	0.000085
1755	1.7452e+02	-10.1195	-40.401636	0.000446	4.461751	1.511682	0.000179
1756	1.7462e+02	-10.0730	-40.316856	0.000213	2.129472	0.721485	0.000085
1757	1.7472e+02	-10.0377	-40.179593	0.000345	3.447717	1.168118	0.000138
1758	1.7482e+02	-9.9992	-40.110962	0.000172	1.723858	0.584059	0.000069
1759	1.7492e+02	-9.9591	-39.985811	0.000314	3.143506	1.065049	0.000126
1760	1.7502e+02	-9.9158	-39.852585	0.000335	3.346313	1.133762	0.000134
1761	1.7512e+02	-9.8757	-39.796066	0.000142	1.419648	0.480990	0.000057
1762	1.7522e+02	-9.8339	-39.630543	0.000416	4.157541	1.408613	0.000166
1763	1.7532e+02	-9.8003	-39.561912	0.000172	1.723858	0.584059	0.000069
1764	1.7542e+02	-9.7521	-39.432723	0.000324	3.244910	1.099405	0.000130
1765	1.7552e+02	-9.7217	-39.311609	0.000304	3.042103	1.030692	0.000122
1766	1.7562e+02	-9.6735	-39.230867	0.000203	2.028069	0.687128	0.000081
1767	1.7572e+02	-9.6334	-39.101678	0.000324	3.244910	1.099405	0.000130
1768	1.7582e+02	-9.5949	-39.004787	0.000243	2.433682	0.824554	0.000097
1769	1.7592e+02	-9.5564	-38.859450	0.000365	3.650523	1.236831	0.000146
1770	1.7602e+02	-9.5067	-38.754485	0.000264	2.636489	0.893267	0.000105
1771	1.7612e+02	-9.4810	-38.685853	0.000172	1.723858	0.584059	0.000069
1772	1.7621e+02	-9.4393	-38.548591	0.000345	3.447717	1.168118	0.000138
1773	1.7631e+02	-9.3976	-38.411328	0.000345	3.447717	1.168118	0.000138
1774	1.7641e+02	-9.3575	-38.306362	0.000264	2.636489	0.893267	0.000105
1775	1.7651e+02	-9.3142	-38.213508	0.000233	2.332279	0.790197	0.000093
1776	1.7661e+02	-9.2805	-38.092394	0.000304	3.042103	1.030692	0.000122
1777	1.7671e+02	-9.2484	-37.999540	0.000233	2.332279	0.790197	0.000093
1778	1.7681e+02	-9.1826	-37.862278	0.000345	3.447717	1.168118	0.000138
1779	1.7691e+02	-9.1538	-37.777498	0.000213	2.129472	0.721485	0.000085
1780	1.7701e+02	-9.1201	-37.652346	0.000314	3.143506	1.065049	0.000126
1781	1.7711e+02	-9.0784	-37.502972	0.000375	3.751927	1.271187	0.000150
1782	1.7721e+02	-9.0415	-37.389933	0.000284	2.839296	0.961980	0.000114
1783	1.7731e+02	-9.0014	-37.280930	0.000274	2.737893	0.927623	0.000110
1784	1.7741e+02	-8.9580	-37.180002	0.000254	2.535086	0.858910	0.000101
1785	1.7751e+02	-8.9308	-37.066962	0.000284	2.839296	0.961980	0.000114
1786	1.7761e+02	-8.8778	-36.909513	0.000395	3.954734	1.339900	0.000158
1787	1.7771e+02	-8.8313	-36.776288	0.000335	3.346313	1.133762	0.000134
1788	1.7781e+02	-8.8024	-36.683434	0.000233	2.332279	0.790197	0.000093
1789	1.7791e+02	-8.7591	-36.598654	0.000213	2.129472	0.721485	0.000085
1790	1.7801e+02	-8.7142	-36.449280	0.000375	3.751927	1.271187	0.000150
1791	1.7810e+02	-8.6821	-36.372574	0.000193	1.926665	0.652772	0.000077
1792	1.7820e+02	-8.6372	-36.231275	0.000355	3.549120	1.202474	0.000142
1793	1.7830e+02	-8.6019	-36.122272	0.000274	2.737893	0.927623	0.000110
1794	1.7840e+02	-8.5506	-35.993084	0.000324	3.244910	1.099405	0.000130
1795	1.7850e+02	-8.5185	-35.900230	0.000233	2.332279	0.790197	0.000093
1796	1.7860e+02	-8.4703	-35.746818	0.000385	3.853330	1.305544	0.000154
1797	1.7870e+02	-8.4351	-35.682224	0.000162	1.622455	0.549703	0.000065
1798	1.7880e+02	-8.4062	-35.516702	0.000416	4.157541	1.408613	0.000166
1799	1.7890e+02	-8.3564	-35.411736	0.000264	2.636489	0.893267	0.000105
1800	1.7900e+02	-8.3179	-35.330993	0.000203	2.028069	0.687128	0.000081
1801	1.7910e+02	-8.2698	-35.181619	0.000375	3.751927	1.271187	0.000150
1802	1.7920e+02	-8.2409	-35.072617	0.000274	2.737893	0.927623	0.000110
1803	1.7930e+02	-8.2089	-34.943428	0.000324	3.244910	1.099405	0.000130
1804	1.7940e+02	-8.1607	-34.858649	0.000213	2.129472	0.721485	0.000085
1805	1.7950e+02	-8.1270	-34.681015	0.000446	4.461751	1.511682	0.000179
1806	1.7960e+02	-8.0821	-34.612383	0.000172	1.723858	0.584059	0.000069
1807	1.7970e+02	-8.0420	-34.503381	0.000274	2.737893	0.927623	0.000110
1808	1.7980e+02	-8.0067	-34.341895	0.000406	4.056137	1.374256	0.000162
1809	1.7990e+02	-7.9586	-34.253078	0.000223	2.230875	0.755841	0.000089
1810	1.8000e+02	-7.9169	-34.107741	0.000365	3.650523	1.236831	0.000146
1811	1.8009e+02	-7.8848	-34.006813	0.000254	2.535086	0.858910	0.000101
1812	1.8019e+02	-7.8383	-33.889736	0.000294	2.940699	0.996336	0.000118
1813	1.8029e+02	-7.7966	-33.784770	0.000264	2.636489	0.893267	0.000105
1814	1.8039e+02	-7.7581	-33.623285	0.000406	4.056137	1.374256	0.000162
1815	1.8049e+02	-7.7212	-33.542542	0.000203	2.028069	0.687128	0.000081
1816	1.8059e+02	-7.6859	-33.385094	0.000395	3.954734	1.339900	0.000158
1817	1.8069e+02	-7.6394	-33.239757	0.000365	3.650523	1.236831	0.000146
1818	1.8079e+02	-7.6073	-33.167089	0.000183	1.825262	0.618415	0.000073
1819	1.8089e+02	-7.5591	-33.025789	0.000355	3.549120	1.202474	0.000142
1820	1.8099e+02	-7.5239	-32.916786	0.000274	2.737893	0.927623	0.000110
1821	1.8109e+02	-7.4982	-32.779524	0.000345	3.447717	1.168118	0.000138
1822	1.8119e+02	-7.4356	-32.662447	0.000294	2.940699	0.996336	0.000118
1823	1.8129e+02	-7.4083	-32.525184	0.000345	3.447717	1.168118	0.000138
1824	1.8139e+02	-7.3602	-32.391959	0.000335	3.346313	1.133762	0.000134
1825	1.8149e+02	-7.3233	-32.274882	0.000294	2.940699	0.996336	0.000118
1826	1.8159e+02	-7.2912	-32.161842	0.000284	2.839296	0.961980	0.000114
1827	1.8169e+02	-7.2431	-32.016505	0.000365	3.650523	1.236831	0.000146
1828	1.8179e+02	-7.2062	-31.907502	0.000274	2.737893	0.927623	0.000110
1829	1.8189e+02	-7.1629	-31.798500	0.000274	2.737893	0.927623	0.000110
1830	1.8199e+02	-7.1180	-31.669311	0.000324	3.244910	1.099405	0.000130
1831	1.8209e+02	-7.1003	-31.523974	0.000365	3.650523	1.236831	0.000146
1832	1.8218e+02	-7.0490	-31.410935	0.000284	2.839296	0.961980	0.000114
1833	1.8228e+02	-7.0057	-31.277709	0.000335	3.346313	1.133762	0.000134
1834	1.8238e+02	-6.9704	-31.184855	0.000233	2.332279	0.790197	0.000093
1835	1.8248e+02	-6.9207	-31.079889	0.000264	2.636489	0.893267	0.000105
1836	1.8258e+02	-6.8822	-30.894181	0.000466	4.664558	1.580395	0.000187
1837	1.8268e+02	-6.8340	-30.760956	0.000335	3.346313	1.133762	0.000134
1838	1.8278e+02	-6.8084	-30.680213	0.000203	2.028069	0.687128	0.000081
1839	1.8288e+02	-6.7683	-30.559099	0.000304	3.042103	1.030692	0.000122
1840	1.8298e+02	-6.7314	-30.409725	0.000375	3.751927	1.271187	0.000150
1841	1.8308e+02	-6.6800	-30.260351	0.000375	3.751927	1.271187	0.000150
1842	1.8318e+02	-6.6495	-30.115014	0.000365	3.650523	1.236831	0.000146
1843	1.8328e+02	-6.6175	-30.018123	0.000243	2.433682	0.824554	0.000097
1844	1.8338e+02	-6.5645	-29.872786	0.000365	3.650523	1.236831	0.000146
1845	1.8348e+02	-6.5180	-29.731486	0.000355	3.549120	1.202474	0.000142
1846	1.8358e+02	-6.4891	-29.638632	0.000233	2.332279	0.790197	0.000093
1847	1.8368e+02	-6.4586	-29.497332	0.000355	3.549120	1.202474	0.000142
1848	1.8378e+02	-6.4105	-29.404478	0.000233	2.332279	0.790197	0.000093
1849	1.8388e+02	-6.3720	-29.271253	0.000335	3.346313	1.133762	0.000134
1850	1.8398e+02	-6.3255	-29.105730	0.000416	4.157541	1.408613	0.000166
1851	1.8407e+02	-6.2934	-29.000765	0.000264	2.636489	0.893267	0.000105
1852	1.8417e+02	-6.2565	-28.875613	0.000314	3.143506	1.065049	0.000126
1853	1.8427e+02	-6.2196	-28.754499	0.000304	3.042103	1.030692	0.000122
1854	1.8437e+02	-6.1843	-28.597051	0.000395	3.954734	1.339900	0.000158
1855	1.8447e+02	-6.1282	-28.475937	0.000304	3.042103	1.030692	0.000122
1856	1.8457e+02	-6.1009	-28.366934	0.000274	2.737893	0.927623	0.000110
1857	1.8467e+02	-6.0528	-28.241783	0.000314	3.143506	1.065049	0.000126
1858	1.8477e+02	-6.0175	-28.092409	0.000375	3.751927	1.271187	0.000150
1859	1.8487e+02	-5.9742	-27.943035	0.000375	3.751927	1.271187	0.000150
1860	1.8497e+02	-5.9292	-27.825958	0.000294	2.940699	0.996336	0.000118
1861	1.8507e+02	-5.8940	-27.696770	0.000324	3.244910	1.099405	0.000130
1862	1.8517e+02	-5.8490	-27.571619	0.000314	3.143506	1.065049	0.000126
1863	1.8527e+02	-5.8234	-27.438393	0.000335	3.346313	1.133762	0.000134
1864	1.8537e+02	-5.7688	-27.313242	0.000314	3.143506	1.065049	0.000126
1865	1.8547e+02	-5.7399	-27.155794	0.000395	3.954734	1.339900	0.000158
1866	1.8557e+02	-5.6966	-27.038717	0.000294	2.940699	0.996336	0.000118
1867	1.8567e+02	-5.6453	-26.921640	0.000294	2.940699	0.996336	0.000118
1868	1.8577e+02	-5.6068	-26.760154	0.000406	4.056137	1.374256	0.000162
1869	1.8587e+02	-5.5747	-26.663263	0.000243	2.433682	0.824554	0.000097
1870	1.8597e+02	-5.5266	-26.546186	0.000294	2.940699	0.996336	0.000118
1871	1.8606e+02	-5.4945	-26.412961	0.000335	3.346313	1.133762	0.000134
1872	1.8616e+02	-5.4383	-26.219178	0.000487	4.867365	1.649108	0.000195
1873	1.8626e+02	-5.4127	-26.142472	0.000193	1.926665	0.652772	0.000077
1874	1.8636e+02	-5.3758	-25.976950	0.000416	4.157541	1.408613	0.000166
1875	1.8646e+02	-5.3341	-25.819502	0.000395	3.954734	1.339900	0.000158
1876	1.8656e+02	-5.2956	-25.742796	0.000193	1.926665	0.652772	0.000077
1877	1.8666e+02	-5.2507	-25.613608	0.000324	3.244910	1.099405	0.000130
1878	1.8676e+02	-5.2218	-25.456159	0.000395	3.954734	1.339900	0.000158
1879	1.8686e+02	-5.1737	-25.318897	0.000345	3.447717	1.168118	0.000138
1880	1.8696e+02	-5.1335	-25.197783	0.000304	3.042103	1.030692	0.000122
1881	1.8706e+02	-5.1015	-25.040334	0.000395	3.954734	1.339900	0.000158
1882	1.8716e+02	-5.0598	-24.923257	0.000294	2.940699	0.996336	0.000118
1883	1.8726e+02	-5.0196	-24.822329	0.000254	2.535086	0.858910	0.000101
1884	1.8736e+02	-4.9715	-24.644695	0.000446	4.461751	1.511682	0.000179
1885	1.8746e+02	-4.9346	-24.519544	0.000314	3.143506	1.065049	0.000126
1886	1.8756e+02	-4.8929	-24.386318	0.000335	3.346313	1.133762	0.000134
1887	1.8766e+02	-4.8528	-24.281353	0.000264	2.636489	0.893267	0.000105
1888	1.8776e+02	-4.8079	-24.099682	0.000456	4.563154	1.546039	0.000183
1889	1.8786e+02	-4.7710	-23.970493	0.000324	3.244910	1.099405	0.000130
1890	1.8796e+02	-4.7309	-23.889751	0.000203	2.028069	0.687128	0.000081
1891	1.8806e+02	-4.6956	-23.748451	0.000355	3.549120	1.202474	0.000142
1892	1.8815e+02	-4.6539	-23.599077	0.000375	3.751927	1.271187	0.000150
1893	1.8825e+02	-4.6186	-23.445666	0.000385	3.853330	1.305544	0.000154
1894	1.8835e+02	-4.5833	-23.328589	0.000294	2.940699	0.996336	0.000118
1895	1.8845e+02	-4.5496	-23.223623	0.000264	2.636489	0.893267	0.000105
1896	1.8855e+02	-4.4935	-23.070212	0.000385	3.853330	1.305544	0.000154
1897	1.8865e+02	-4.4582	-22.961210	0.000274	2.737893	0.927623	0.000110
1898	1.8875e+02	-4.4181	-22.795687	0.000416	4.157541	1.408613	0.000166
1899	1.8885e+02	-4.3780	-22.662461	0.000335	3.346313	1.133762	0.000134
1900	1.8895e+02	-4.3346	-22.545385	0.000294	2.940699	0.996336	0.000118
1901	1.8905e+02	-4.2977	-22.379862	0.000416	4.157541	1.408613	0.000166
1902	1.8915e+02	-4.2544	-22.270859	0.000274	2.737893	0.927623	0.000110
1903	1.8925e+02	-4.2159	-22.129560	0.000355	3.549120	1.202474	0.000142
1904	1.8935e+02	-4.1790	-22.012483	0.000294	2.940699	0.996336	0.000118
1905	1.8945e+02	-4.1437	-21.859071	0.000385	3.853330	1.305544	0.000154
1906	1.8955e+02	-4.0956	-21.746032	0.000284	2.839296	0.961980	0.000114
1907	1.8965e+02	-4.0571	-21.608769	0.000345	3.447717	1.168118	0.000138
1908	1.8975e+02	-4.0202	-21.471506	0.000345	3.447717	1.168118	0.000138
1909	1.8985e+02	-3.9897	-21.322132	0.000375	3.751927	1.271187	0.000150
1910	1.8995e+02	-3.9352	-21.205055	0.000294	2.940699	0.996336	0.000118
1911	1.9004e+02	-3.9031	-21.096053	0.000274	2.737893	0.927623	0.000110
1912	1.9014e+02	-3.8518	-20.930530	0.000416	4.157541	1.408613	0.000166
1913	1.9024e+02	-3.8245	-20.813453	0.000294	2.940699	0.996336	0.000118
1914	1.9034e+02	-3.7908	-20.684265	0.000324	3.244910	1.099405	0.000130
1915	1.9044e+02	-3.7395	-20.567188	0.000294	2.940699	0.996336	0.000118
1916	1.9054e+02	-3.7058	-20.401665	0.000416	4.157541	1.408613	0.000166
1917	1.9064e+02	-3.6560	-20.296700	0.000264	2.636489	0.893267	0.000105
1918	1.9074e+02	-3.6175	-20.147326	0.000375	3.751927	1.271187	0.000150
1919	1.9084e+02	-3.5839	-20.042360	0.000264	2.636489	0.893267	0.000105
1920	1.9094e+02	-3.5389	-19.892986	0.000375	3.751927	1.271187	0.000150
1921	1.9104e+02	-3.4972	-19.715352	0.000446	4.461751	1.511682	0.000179
1922	1.9114e+02	-3.4619	-19.594238	0.000304	3.042103	1.030692	0.000122
1923	1.9124e+02	-3.4154	-19.477161	0.000294	2.940699	0.996336	0.000118
1924	1.9134e+02	-3.3881	-19.291453	0.000466	4.664558	1.580395	0.000187
1925	1.9144e+02	-3.3384	-19.218785	0.000183	1.825262	0.618415	0.000073
1926	1.9154e+02	-3.2967	-19.057299	0.000406	4.056137	1.374256	0.000162
1927	1.9164e+02	-3.2662	-18.956371	0.000254	2.535086	0.858910	0.000101
1928	1.9174e+02	-3.2293	-18.790848	0.000416	4.157541	1.408613	0.000166
1929	1.9184e+02	-3.1828	-18.697994	0.000233	2.332279	0.790197	0.000093
1930	1.9194e+02	-3.1395	-18.580917	0.000294	2.940699	0.996336	0.000118
1931	1.9203e+02	-3.1090	-18.427506	0.000385	3.853330	1.305544	0.000154
1932	1.9213e+02	-3.0609	-18.274095	0.000385	3.853330	1.305544	0.000154
1933	1.9223e+02	-3.0224	-18.128758	0.000365	3.650523	1.236831	0.000146
1934	1.9233e+02	-2.9919	-18.011681	0.000294	2.940699	0.996336	0.000118
1935	1.9243e+02	-2.9470	-17.870381	0.000355	3.549120	1.202474	0.000142
1936	1.9253e+02	-2.9101	-17.696785	0.000436	4.360347	1.477326	0.000174
1937	1.9263e+02	-2.8684	-17.616042	0.000203	2.028069	0.687128	0.000081
1938	1.9273e+02	-2.8202	-17.454556	0.000406	4.056137	1.374256	0.000162
1939	1.9283e+02	-2.7785	-17.317294	0.000345	3.447717	1.168118	0.000138
1940	1.9293e+02	-2.7464	-17.200217	0.000294	2.940699	0.996336	0.000118
1941	1.9303e+02	-2.7031	-17.079103	0.000304	3.042103	1.030692	0.000122
1942	1.9313e+02	-2.6694	-16.945877	0.000335	3.346313	1.133762	0.000134
1943	1.9323e+02	-2.6181	-16.788429	0.000395	3.954734	1.339900	0.000158
1944	1.9333e+02	-2.5876	-16.683463	0.000264	2.636489	0.893267	0.000105
1945	1.9343e+02	-2.5491	-16.493718	0.000477	4.765961	1.614751	0.000191
1946	1.9353e+02	-2.5042	-16.396827	0.000243	2.433682	0.824554	0.000097
1947	1.9363e+02	-2.4657	-16.287824	0.000274	2.737893	0.927623	0.000110
1948	1.9373e+02	-2.4240	-16.114227	0.000436	4.360347	1.477326	0.000174
1949	1.9383e+02	-2.3887	-15.976965	0.000345	3.447717	1.168118	0.000138
1950	1.9393e+02	-2.3406	-15.803368	0.000436	4.360347	1.477326	0.000174
1951	1.9403e+02	-2.3117	-15.682254	0.000304	3.042103	1.030692	0.000122
1952	1.9412e+02	-2.2604	-15.589400	0.000233	2.332279	0.790197	0.000093
1953	1.9422e+02	-2.2283	-15.391580	0.000497	4.968768	1.683464	0.000199
1954	1.9432e+02	-2.1898	-15.298726	0.000233	2.332279	0.790197	0.000093
1955	1.9442e+02	-2.1481	-15.169538	0.000324	3.244910	1.099405	0.000130
1956	1.9452e+02	-2.1048	-15.008052	0.000406	4.056137	1.374256	0.000162
1957	1.9462e+02	-2.0743	-14.862715	0.000365	3.650523	1.236831	0.000146
1958	1.9472e+02	-2.0229	-14.729490	0.000335	3.346313	1.133762	0.000134
1959	1.9482e+02	-1.9909	-14.588190	0.000355	3.549120	1.202474	0.000142
1960	1.9492e+02	-1.9443	-14.459002	0.000324	3.244910	1.099405	0.000130
1961	1.9502e+02	-1.9058	-14.277331	0.000456	4.563154	1.546039	0.000183
1962	1.9512e+02	-1.8609	-14.172365	0.000264	2.636489	0.893267	0.000105
1963	1.9522e+02	-1.8352	-14.051251	0.000304	3.042103	1.030692	0.000122
1964	1.9532e+02	-1.7871	-13.865543	0.000466	4.664558	1.580395	0.000187
1965	1.9542e+02	-1.7454	-13.764614	0.000254	2.535086	0.858910	0.000101
1966	1.9552e+02	-1.7149	-13.655612	0.000274	2.737893	0.927623	0.000110
1967	1.9562e+02	-1.6684	-13.502200	0.000385	3.853330	1.305544	0.000154
1968	1.9572e+02	-1.6299	-13.336678	0.000416	4.157541	1.408613	0.000166
1969	1.9582e+02	-1.5914	-13.203452	0.000335	3.346313	1.133762	0.000134
1970	1.9592e+02	-1.5561	-13.074264	0.000324	3.244910	1.099405	0.000130
1971	1.9601e+02	-1.5080	-12.904704	0.000426	4.258944	1.442969	0.000170
1972	1.9611e+02	-1.4518	-12.787627	0.000294	2.940699	0.996336	0.000118
1973	1.9621e+02	-1.4310	-12.642291	0.000365	3.650523	1.236831	0.000146
1974	1.9631e+02	-1.3989	-12.500991	0.000355	3.549120	1.202474	0.000142
1975	1.9641e+02	-1.3492	-12.355654	0.000365	3.650523	1.236831	0.000146
1976	1.9651e+02	-1.3091	-12.226466	0.000324	3.244910	1.099405	0.000130
1977	1.9661e+02	-1.2689	-12.069017	0.000395	3.954734	1.339900	0.000158
1978	1.9671e+02	-1.2256	-11.903495	0.000416	4.157541	1.408613	0.000166
1979	1.9681e+02	-1.1968	-11.794492	0.000274	2.737893	0.927623	0.000110
1980	1.9691e+02	-1.1502	-11.641081	0.000385	3.853330	1.305544	0.000154
1981	1.9701e+02	-1.1149	-11.536115	0.000264	2.636489	0.893267	0.000105
1982	1.9711e+02	-1.0764	-11.358481	0.000446	4.461751	1.511682	0.000179
1983	1.9721e+02	-1.0267	-11.233330	0.000314	3.143506	1.065049	0.000126
1984	1.9731e+02	-0.9898	-11.087993	0.000365	3.650523	1.236831	0.000146
1985	1.9741e+02	-0.9481	-10.991102	0.000243	2.433682	0.824554	0.000097
1986	1.9751e+02	-0.9160	-10.801357	0.000477	4.765961	1.614751	0.000191
1987	1.9761e+02	-0.8679	-10.656020	0.000365	3.650523	1.236831	0.000146
1988	1.9771e+02	-0.8358	-10.526831	0.000324	3.244910	1.099405	0.000130
1989	1.9781e+02	-0.7957	-10.377457	0.000375	3.751927	1.271187	0.000150
1990	1.9791e+02	-0.7620	-10.244232	0.000335	3.346313	1.133762	0.000134
1991	1.9800e+02	-0.7123	-10.074672	0.000426	4.258944	1.442969	0.000170
1992	1.9810e+02	-0.6658	-9.945484	0.000324	3.244910	1.099405	0.000130
1993	1.9820e+02	-0.6337	-9.783998	0.000406	4.056137	1.374256	0.000162
1994	1.9830e+02	-0.5871	-9.658847	0.000314	3.143506	1.065049	0.000126
1995	1.9840e+02	-0.5438	-9.469102	0.000477	4.765961	1.614751	0.000191
1996	1.9850e+02	-0.5134	-9.327802	0.000355	3.549120	1.202474	0.000142
1997	1.9860e+02	-0.4749	-9.251097	0.000193	1.926665	0.652772	0.000077
1998	1.9870e+02	-0.4380	-9.016943	0.000588	5.881399	1.992672	0.000235
1999	1.9880e+02	-0.3930	-8.871606	0.000365	3.650523	1.236831	0.000146
2000	1.9890e+02	-0.3529	-8.766640	0.000264	2.636489	0.893267	0.000105
2001	1.9900e+02	-0.3160	-8.625341	0.000355	3.549120	1.202474	0.000142
2002	1.9910e+02	-0.2695	-8.471929	0.000385	3.853330	1.305544	0.000154
2003	1.9920e+02	-0.2294	-8.379075	0.000233	2.332279	0.790197	0.000093
2004	1.9930e+02	-0.1973	-8.177218	0.000507	5.070171	1.717821	0.000203
2005	1.9940e+02	-0.1524	-8.015733	0.000406	4.056137	1.374256	0.000162
2006	1.9950e+02	-0.1139	-7.918842	0.000243	2.433682	0.824554	0.000097
2007	1.9960e+02	-0.0770	-7.753319	0.000416	4.157541	1.408613	0.000166
2008	1.9970e+02	-0.0385	-7.591834	0.000406	4.056137	1.374256	0.000162
2009	1.9980e+02	0.0000	-7.398051	0.000406	4.056137	1.374256	0.000195

PMax (uC/cm2):	7.06e+01
Pr (uC/cm2):	4.48e+00
-Pr (uC/cm2):	-1.32e+00
PLoss (uC/cm2):	-1.35e+00
-Vc:	-1.27e+00
C (Max-Eff) (nF):	3.53e-01
K (Eff):	1.20e+03
Vert. (+/-Pr) Shift (uC/cm2):	1.58e+00
Offset (uC/cm2):	6.07e+00

A (Loop Area - uC/cm2·Volts):	-1.52e-03



Hysteresis Version: 5.48.1 - Radiant Technologies, Inc., 1999 - 9/12/24

