»»»»»»»»»»»»»»»»»»»»»»»»»»»»»»»»»»»» Hysteresis ««««««««««««««««««««««««««««««««««««
»»»  Executed Version:	5.48.1
»»»  Vision Version:	5.48.4 (R)
»»»  Vision Compiled:	9/18/24
»»»  Driver Version:	5.47.0
»»»  Windows Version:	Windows 8 or 8.1
»»»  Processor Information:	x86 (AMD or Intel) - 32 Processors
»»»  Tester Name:	PMF21124-494 (100V)
»»»  Tester S/N:	PMF21124-494
»»»  Internal Amp Type:	100V RevK 270k
»»»  Internal Amp S/N:	iAB2-596/K     
»»»  Execution Count:	1
»»»»»»»»»»»»»»»»»»»»»»»»»»»»»»»»»»»»»»»»»»««««««««««««««««««««««««««««««««««««««««««

Stored:	6/19/2025 - 19:29:18
Configured:	06/19/25 10:04:32 AM
Executed:	06/19/25 07:28:45 PM

»»»»»»»»»»»»»»»»»»»»»»»»»»»»»»»»»»» Sample Info ««««««««««««««««««««««««««««««««««««
Sample Name:	
Lot Name:	
Wafer Name:	
Die Row/Column:	0/0
Capacitor Number:	0
Sample Area (cm2):	1.00e-04
Sample Thickness (microns):	3.00e-01

Amplifier:	Internal

»»»»»»»»»»»»»»»»»»»»»»»»»»»»»»»»»»» Tester Info «««««««««««««««««««««««««««««««««««
Tester Name:	PMF21124-494 (100V)
Tester Serial Number:	PMF21124-494
Return Signal Amp. Level:	0.19 [Index: 3]

»»»»»»»»»»»»»»»»»»»»»»»»»»»»»»»» Hysteresis Info ««««««««««««««««««««««««««««««««««
Task Name:	Hyst-1168
Volts:	20.00
Field:	666.67 (kV/cm)
DCBias:	0.00
DCField:	0.00 (kV/cm)
Hysteresis Period (ms):	2.00e+02
Preset:	Enabled
Preset Delay (ms):	1.00e+03
Profile:	Standard Bipolar

»»»»»»»»»»»»»»»»»»»»»»»»»»»»»»»»»»»»»» Data «««««««««««««««««««««««««««««««««««««««
Points:	2009

Valid Data

Point	Time (ms)	Drive Voltage	Measured Polarization (uC/cm2)	Capacitance (uF)	Normalized Capacitance (uF/cm2)	Dielectric Constant	Instantaneous Current (mA)
   1	0.0000e+00	0.0064	-5.637860	0.000294	2.939579	0.995956	0.000118
   2	9.9500e-02	0.0385	-5.520783	0.000294	2.939579	0.995956	0.000118
   3	1.9900e-01	0.0722	-5.411780	0.000274	2.736849	0.927270	0.000110
   4	2.9850e-01	0.1299	-5.226072	0.000466	4.662780	1.579793	0.000187
   5	3.9800e-01	0.1620	-5.121107	0.000264	2.635484	0.892926	0.000105
   6	4.9750e-01	0.2005	-4.967696	0.000385	3.851862	1.305046	0.000154
   7	5.9700e-01	0.2390	-4.870804	0.000243	2.432755	0.824240	0.000097
   8	6.9650e-01	0.2791	-4.757764	0.000284	2.838214	0.961613	0.000114
   9	7.9600e-01	0.3112	-4.584168	0.000436	4.358686	1.476763	0.000174
  10	8.9550e-01	0.3529	-4.499388	0.000213	2.128660	0.721210	0.000085
  11	9.9500e-01	0.3962	-4.329828	0.000426	4.257321	1.442419	0.000170
  12	1.0945e+00	0.4364	-4.204677	0.000314	3.142308	1.064643	0.000126
  13	1.1940e+00	0.4797	-4.115860	0.000223	2.230025	0.755553	0.000089
  14	1.2935e+00	0.5166	-3.946300	0.000426	4.257321	1.442419	0.000170
  15	1.3930e+00	0.5599	-3.853446	0.000233	2.331390	0.789896	0.000093
  16	1.4925e+00	0.5936	-3.675812	0.000446	4.460050	1.511106	0.000179
  17	1.5920e+00	0.6385	-3.530475	0.000365	3.649132	1.236359	0.000146
  18	1.6915e+00	0.6754	-3.401287	0.000324	3.243673	1.098986	0.000130
  19	1.7910e+00	0.7155	-3.304396	0.000243	2.432755	0.824240	0.000097
  20	1.8905e+00	0.7572	-3.159059	0.000365	3.649132	1.236359	0.000146
  21	1.9900e+00	0.7893	-3.041982	0.000294	2.939579	0.995956	0.000118
  22	2.0895e+00	0.8390	-2.904719	0.000345	3.446403	1.167673	0.000138
  23	2.1890e+00	0.8743	-2.795716	0.000274	2.736849	0.927270	0.000110
  24	2.2885e+00	0.9192	-2.626157	0.000426	4.257321	1.442419	0.000170
  25	2.3880e+00	0.9513	-2.496968	0.000324	3.243673	1.098986	0.000130
  26	2.4875e+00	0.9994	-2.347594	0.000375	3.750497	1.270703	0.000150
  27	2.5870e+00	1.0203	-2.194183	0.000385	3.851862	1.305046	0.000154
  28	2.6865e+00	1.0748	-2.064995	0.000324	3.243673	1.098986	0.000130
  29	2.7860e+00	1.1182	-1.951955	0.000284	2.838214	0.961613	0.000114
  30	2.8855e+00	1.1550	-1.810655	0.000355	3.547767	1.202016	0.000142
  31	2.9850e+00	1.2000	-1.681467	0.000324	3.243673	1.098986	0.000130
  32	3.0845e+00	1.2369	-1.519982	0.000405	4.054591	1.373733	0.000162
  33	3.1840e+00	1.2754	-1.415016	0.000264	2.635484	0.892926	0.000105
  34	3.2835e+00	1.3042	-1.233345	0.000456	4.561415	1.545449	0.000183
  35	3.3830e+00	1.3620	-1.156639	0.000193	1.925931	0.652523	0.000077
  36	3.4825e+00	1.3989	-0.987080	0.000426	4.257321	1.442419	0.000170
  37	3.5820e+00	1.4262	-0.857891	0.000324	3.243673	1.098986	0.000130
  38	3.6815e+00	1.4759	-0.728703	0.000324	3.243673	1.098986	0.000130
  39	3.7810e+00	1.5048	-0.571255	0.000395	3.953226	1.339389	0.000158
  40	3.8805e+00	1.5561	-0.438029	0.000335	3.345038	1.133329	0.000134
  41	3.9800e+00	1.5914	-0.292692	0.000365	3.649132	1.236359	0.000146
  42	4.0795e+00	1.6331	-0.147355	0.000365	3.649132	1.236359	0.000146
  43	4.1790e+00	1.6780	-0.022204	0.000314	3.142308	1.064643	0.000126
  44	4.2785e+00	1.7149	0.094873	0.000294	2.939579	0.995956	0.000118
  45	4.3780e+00	1.7502	0.215987	0.000304	3.040943	1.030300	0.000122
  46	4.4775e+00	1.7855	0.365361	0.000375	3.750497	1.270703	0.000150
  47	4.5770e+00	1.8288	0.506661	0.000355	3.547767	1.202016	0.000142
  48	4.6765e+00	1.8721	0.643923	0.000345	3.446403	1.167673	0.000138
  49	4.7760e+00	1.9155	0.809446	0.000416	4.155956	1.408076	0.000166
  50	4.8755e+00	1.9507	0.942671	0.000335	3.345038	1.133329	0.000134
  51	4.9750e+00	1.9941	1.083971	0.000355	3.547767	1.202016	0.000142
  52	5.0745e+00	2.0326	1.221234	0.000345	3.446403	1.167673	0.000138
  53	5.1740e+00	2.0711	1.390793	0.000426	4.257321	1.442419	0.000170
  54	5.2735e+00	2.1208	1.487685	0.000243	2.432755	0.824240	0.000097
  55	5.3730e+00	2.1529	1.657244	0.000426	4.257321	1.442419	0.000170
  56	5.4725e+00	2.1866	1.786433	0.000324	3.243673	1.098986	0.000130
  57	5.5720e+00	2.2299	1.927732	0.000355	3.547767	1.202016	0.000142
  58	5.6715e+00	2.2652	2.085181	0.000395	3.953226	1.339389	0.000158
  59	5.7710e+00	2.3133	2.242629	0.000395	3.953226	1.339389	0.000158
  60	5.8705e+00	2.3502	2.396040	0.000385	3.851862	1.305046	0.000154
  61	5.9700e+00	2.3871	2.496968	0.000253	2.534120	0.858583	0.000101
  62	6.0695e+00	2.4336	2.678640	0.000456	4.561415	1.545449	0.000183
  63	6.1690e+00	2.4721	2.779568	0.000253	2.534120	0.858583	0.000101
  64	6.2685e+00	2.5154	2.932979	0.000385	3.851862	1.305046	0.000154
  65	6.3680e+00	2.5555	3.058130	0.000314	3.142308	1.064643	0.000126
  66	6.4675e+00	2.5892	3.199430	0.000355	3.547767	1.202016	0.000142
  67	6.5670e+00	2.6309	3.368990	0.000426	4.257321	1.442419	0.000170
  68	6.6665e+00	2.6630	3.506252	0.000345	3.446403	1.167673	0.000138
  69	6.7660e+00	2.7095	3.651589	0.000365	3.649132	1.236359	0.000146
  70	6.8655e+00	2.7448	3.756555	0.000264	2.635484	0.892926	0.000105
  71	6.9650e+00	2.7930	3.938226	0.000456	4.561415	1.545449	0.000183
  72	7.0645e+00	2.8299	4.027043	0.000223	2.230025	0.755553	0.000089
  73	7.1640e+00	2.8587	4.184491	0.000395	3.953226	1.339389	0.000158
  74	7.2635e+00	2.9037	4.370199	0.000466	4.662780	1.579793	0.000187
  75	7.3630e+00	2.9550	4.483239	0.000284	2.838214	0.961613	0.000114
  76	7.4625e+00	2.9823	4.628576	0.000365	3.649132	1.236359	0.000146
  77	7.5620e+00	3.0272	4.769876	0.000355	3.547767	1.202016	0.000142
  78	7.6615e+00	3.0641	4.919250	0.000375	3.750497	1.270703	0.000150
  79	7.7610e+00	3.1026	5.044401	0.000314	3.142308	1.064643	0.000126
  80	7.8605e+00	3.1475	5.189738	0.000365	3.649132	1.236359	0.000146
  81	7.9600e+00	3.1860	5.335075	0.000365	3.649132	1.236359	0.000146
  82	8.0595e+00	3.2389	5.484449	0.000375	3.750497	1.270703	0.000150
  83	8.1590e+00	3.2694	5.609600	0.000314	3.142308	1.064643	0.000126
  84	8.2585e+00	3.3111	5.758974	0.000375	3.750497	1.270703	0.000150
  85	8.3580e+00	3.3416	5.936608	0.000446	4.460050	1.511106	0.000179
  86	8.4575e+00	3.3785	6.049648	0.000284	2.838214	0.961613	0.000114
  87	8.5570e+00	3.4250	6.174799	0.000314	3.142308	1.064643	0.000126
  88	8.6565e+00	3.4716	6.308025	0.000335	3.345038	1.133329	0.000134
  89	8.7560e+00	3.5020	6.449324	0.000355	3.547767	1.202016	0.000142
  90	8.8555e+00	3.5454	6.602735	0.000385	3.851862	1.305046	0.000154
  91	8.9550e+00	3.5839	6.756147	0.000385	3.851862	1.305046	0.000154
  92	9.0545e+00	3.6240	6.909558	0.000385	3.851862	1.305046	0.000154
  93	9.1540e+00	3.6705	7.042783	0.000335	3.345038	1.133329	0.000134
  94	9.2535e+00	3.7074	7.171972	0.000324	3.243673	1.098986	0.000130
  95	9.3530e+00	3.7427	7.349606	0.000446	4.460050	1.511106	0.000179
  96	9.4525e+00	3.7796	7.503017	0.000385	3.851862	1.305046	0.000154
  97	9.5520e+00	3.8197	7.616057	0.000284	2.838214	0.961613	0.000114
  98	9.6515e+00	3.8678	7.765431	0.000375	3.750497	1.270703	0.000150
  99	9.7510e+00	3.8983	7.906730	0.000355	3.547767	1.202016	0.000142
 100	9.8505e+00	3.9432	8.035919	0.000324	3.243673	1.098986	0.000130
 101	9.9500e+00	3.9833	8.217590	0.000456	4.561415	1.545449	0.000183
 102	1.0050e+01	4.0282	8.350815	0.000335	3.345038	1.133329	0.000134
 103	1.0149e+01	4.0603	8.508264	0.000395	3.953226	1.339389	0.000158
 104	1.0248e+01	4.1036	8.617266	0.000274	2.736849	0.927270	0.000110
 105	1.0348e+01	4.1421	8.754529	0.000345	3.446403	1.167673	0.000138
 106	1.0447e+01	4.1919	8.907940	0.000385	3.851862	1.305046	0.000154
 107	1.0547e+01	4.2239	9.089611	0.000456	4.561415	1.545449	0.000183
 108	1.0646e+01	4.2673	9.230911	0.000355	3.547767	1.202016	0.000142
 109	1.0746e+01	4.2913	9.347988	0.000294	2.939579	0.995956	0.000118
 110	1.0845e+01	4.3443	9.489288	0.000355	3.547767	1.202016	0.000142
 111	1.0945e+01	4.3812	9.634624	0.000365	3.649132	1.236359	0.000146
 112	1.1044e+01	4.4213	9.840518	0.000517	5.169604	1.751509	0.000207
 113	1.1144e+01	4.4566	9.921261	0.000203	2.027296	0.686866	0.000081
 114	1.1243e+01	4.5015	10.131192	0.000527	5.270969	1.785853	0.000211
 115	1.1343e+01	4.5384	10.224046	0.000233	2.331390	0.789896	0.000093
 116	1.1443e+01	4.5737	10.397643	0.000436	4.358686	1.476763	0.000174
 117	1.1542e+01	4.6218	10.498571	0.000253	2.534120	0.858583	0.000101
 118	1.1642e+01	4.6667	10.684280	0.000466	4.662780	1.579793	0.000187
 119	1.1741e+01	4.7020	10.837691	0.000385	3.851862	1.305046	0.000154
 120	1.1841e+01	4.7421	10.958805	0.000304	3.040943	1.030300	0.000122
 121	1.1940e+01	4.7742	11.120290	0.000405	4.054591	1.373733	0.000162
 122	1.2040e+01	4.8127	11.233330	0.000284	2.838214	0.961613	0.000114
 123	1.2139e+01	4.8608	11.427113	0.000487	4.865509	1.648479	0.000195
 124	1.2239e+01	4.8993	11.544190	0.000294	2.939579	0.995956	0.000118
 125	1.2338e+01	4.9378	11.709712	0.000416	4.155956	1.408076	0.000166
 126	1.2438e+01	4.9795	11.875235	0.000416	4.155956	1.408076	0.000166
 127	1.2537e+01	5.0196	12.000386	0.000314	3.142308	1.064643	0.000126
 128	1.2636e+01	5.0614	12.178020	0.000446	4.460050	1.511106	0.000179
 129	1.2736e+01	5.0950	12.274911	0.000243	2.432755	0.824240	0.000097
 130	1.2835e+01	5.1335	12.436397	0.000405	4.054591	1.373733	0.000162
 131	1.2935e+01	5.1801	12.605956	0.000426	4.257321	1.442419	0.000170
 132	1.3034e+01	5.2250	12.763405	0.000395	3.953226	1.339389	0.000158
 133	1.3134e+01	5.2490	12.896630	0.000335	3.345038	1.133329	0.000134
 134	1.3233e+01	5.2940	13.025818	0.000324	3.243673	1.098986	0.000130
 135	1.3333e+01	5.3373	13.155007	0.000324	3.243673	1.098986	0.000130
 136	1.3432e+01	5.3838	13.316492	0.000405	4.054591	1.373733	0.000162
 137	1.3532e+01	5.4191	13.457792	0.000355	3.547767	1.202016	0.000142
 138	1.3632e+01	5.4512	13.599092	0.000355	3.547767	1.202016	0.000142
 139	1.3731e+01	5.4929	13.776726	0.000446	4.460050	1.511106	0.000179
 140	1.3831e+01	5.5362	13.897840	0.000304	3.040943	1.030300	0.000122
 141	1.3930e+01	5.5747	14.079511	0.000456	4.561415	1.545449	0.000183
 142	1.4030e+01	5.6100	14.168328	0.000223	2.230025	0.755553	0.000089
 143	1.4129e+01	5.6581	14.337888	0.000426	4.257321	1.442419	0.000170
 144	1.4229e+01	5.6918	14.479187	0.000355	3.547767	1.202016	0.000142
 145	1.4328e+01	5.7351	14.636636	0.000395	3.953226	1.339389	0.000158
 146	1.4428e+01	5.7833	14.818307	0.000456	4.561415	1.545449	0.000183
 147	1.4527e+01	5.8169	14.935384	0.000294	2.939579	0.995956	0.000118
 148	1.4627e+01	5.8587	15.104943	0.000426	4.257321	1.442419	0.000170
 149	1.4726e+01	5.8972	15.242206	0.000345	3.446403	1.167673	0.000138
 150	1.4825e+01	5.9357	15.375431	0.000335	3.345038	1.133329	0.000134
 151	1.4925e+01	5.9806	15.492508	0.000294	2.939579	0.995956	0.000118
 152	1.5024e+01	6.0191	15.658031	0.000416	4.155956	1.408076	0.000166
 153	1.5124e+01	6.0512	15.827591	0.000426	4.257321	1.442419	0.000170
 154	1.5223e+01	6.1009	15.944668	0.000294	2.939579	0.995956	0.000118
 155	1.5323e+01	6.1362	16.122302	0.000446	4.460050	1.511106	0.000179
 156	1.5422e+01	6.1779	16.312047	0.000476	4.764145	1.614136	0.000191
 157	1.5522e+01	6.2116	16.388753	0.000193	1.925931	0.652523	0.000077
 158	1.5621e+01	6.2549	16.618869	0.000578	5.777793	1.957569	0.000231
 159	1.5721e+01	6.2934	16.723835	0.000264	2.635484	0.892926	0.000105
 160	1.5820e+01	6.3383	16.869172	0.000365	3.649132	1.236359	0.000146
 161	1.5920e+01	6.3800	17.006434	0.000345	3.446403	1.167673	0.000138
 162	1.6020e+01	6.4185	17.204254	0.000497	4.966874	1.682823	0.000199
 163	1.6119e+01	6.4506	17.305182	0.000253	2.534120	0.858583	0.000101
 164	1.6218e+01	6.4875	17.470705	0.000416	4.155956	1.408076	0.000166
 165	1.6318e+01	6.5228	17.652376	0.000456	4.561415	1.545449	0.000183
 166	1.6418e+01	6.5774	17.769453	0.000294	2.939579	0.995956	0.000118
 167	1.6517e+01	6.6175	17.922864	0.000385	3.851862	1.305046	0.000154
 168	1.6616e+01	6.6528	18.096461	0.000436	4.358686	1.476763	0.000174
 169	1.6716e+01	6.6864	18.201426	0.000264	2.635484	0.892926	0.000105
 170	1.6816e+01	6.7298	18.383098	0.000456	4.561415	1.545449	0.000183
 171	1.6915e+01	6.7586	18.528434	0.000365	3.649132	1.236359	0.000146
 172	1.7015e+01	6.8068	18.689920	0.000405	4.054591	1.373733	0.000162
 173	1.7114e+01	6.8533	18.794885	0.000264	2.635484	0.892926	0.000105
 174	1.7213e+01	6.8918	18.968482	0.000436	4.358686	1.476763	0.000174
 175	1.7313e+01	6.9303	19.097671	0.000324	3.243673	1.098986	0.000130
 176	1.7413e+01	6.9704	19.267230	0.000426	4.257321	1.442419	0.000170
 177	1.7512e+01	7.0073	19.448901	0.000456	4.561415	1.545449	0.000183
 178	1.7611e+01	7.0474	19.565978	0.000294	2.939579	0.995956	0.000118
 179	1.7711e+01	7.0859	19.695167	0.000324	3.243673	1.098986	0.000130
 180	1.7811e+01	7.1308	19.864726	0.000426	4.257321	1.442419	0.000170
 181	1.7910e+01	7.1693	20.018138	0.000385	3.851862	1.305046	0.000154
 182	1.8009e+01	7.2094	20.127140	0.000274	2.736849	0.927270	0.000110
 183	1.8109e+01	7.2463	20.288626	0.000405	4.054591	1.373733	0.000162
 184	1.8209e+01	7.2816	20.421851	0.000335	3.345038	1.133329	0.000134
 185	1.8308e+01	7.3249	20.619671	0.000497	4.966874	1.682823	0.000199
 186	1.8407e+01	7.3747	20.732711	0.000284	2.838214	0.961613	0.000114
 187	1.8507e+01	7.4035	20.898233	0.000416	4.155956	1.408076	0.000166
 188	1.8607e+01	7.4501	21.031459	0.000335	3.345038	1.133329	0.000134
 189	1.8706e+01	7.4950	21.217167	0.000466	4.662780	1.579793	0.000187
 190	1.8805e+01	7.5367	21.354429	0.000345	3.446403	1.167673	0.000138
 191	1.8905e+01	7.5656	21.511878	0.000395	3.953226	1.339389	0.000158
 192	1.9005e+01	7.6121	21.641066	0.000324	3.243673	1.098986	0.000130
 193	1.9104e+01	7.6410	21.794477	0.000385	3.851862	1.305046	0.000154
 194	1.9203e+01	7.6730	21.947888	0.000385	3.851862	1.305046	0.000154
 195	1.9303e+01	7.7276	22.073040	0.000314	3.142308	1.064643	0.000126
 196	1.9402e+01	7.7677	22.206265	0.000335	3.345038	1.133329	0.000134
 197	1.9502e+01	7.7966	22.347565	0.000355	3.547767	1.202016	0.000142
 198	1.9602e+01	7.8431	22.545385	0.000497	4.966874	1.682823	0.000199
 199	1.9701e+01	7.8832	22.710907	0.000416	4.155956	1.408076	0.000166
 200	1.9800e+01	7.9217	22.844133	0.000335	3.345038	1.133329	0.000134
 201	1.9900e+01	7.9666	22.981395	0.000345	3.446403	1.167673	0.000138
 202	2.0000e+01	8.0067	23.175178	0.000487	4.865509	1.648479	0.000195
 203	2.0099e+01	8.0372	23.284180	0.000274	2.736849	0.927270	0.000110
 204	2.0198e+01	8.0918	23.417406	0.000335	3.345038	1.133329	0.000134
 205	2.0298e+01	8.1222	23.578891	0.000405	4.054591	1.373733	0.000162
 206	2.0398e+01	8.1607	23.760562	0.000456	4.561415	1.545449	0.000183
 207	2.0497e+01	8.2057	23.845342	0.000213	2.128660	0.721210	0.000085
 208	2.0596e+01	8.2425	24.014902	0.000426	4.257321	1.442419	0.000170
 209	2.0696e+01	8.2794	24.200610	0.000466	4.662780	1.579793	0.000187
 210	2.0796e+01	8.3308	24.345947	0.000365	3.649132	1.236359	0.000146
 211	2.0895e+01	8.3613	24.495321	0.000375	3.750497	1.270703	0.000150
 212	2.0994e+01	8.4078	24.612398	0.000294	2.939579	0.995956	0.000118
 213	2.1094e+01	8.4367	24.773883	0.000405	4.054591	1.373733	0.000162
 214	2.1194e+01	8.4784	24.923257	0.000375	3.750497	1.270703	0.000150
 215	2.1293e+01	8.5281	25.060520	0.000345	3.446403	1.167673	0.000138
 216	2.1392e+01	8.5634	25.242191	0.000456	4.561415	1.545449	0.000183
 217	2.1492e+01	8.5971	25.371380	0.000324	3.243673	1.098986	0.000130
 218	2.1591e+01	8.6420	25.536902	0.000416	4.155956	1.408076	0.000166
 219	2.1691e+01	8.6901	25.629756	0.000233	2.331390	0.789896	0.000093
 220	2.1791e+01	8.7190	25.803353	0.000436	4.358686	1.476763	0.000174
 221	2.1890e+01	8.7687	25.989061	0.000466	4.662780	1.579793	0.000187
 222	2.1989e+01	8.8008	26.102101	0.000284	2.838214	0.961613	0.000114
 223	2.2089e+01	8.8473	26.267624	0.000416	4.155956	1.408076	0.000166
 224	2.2189e+01	8.8810	26.396812	0.000324	3.243673	1.098986	0.000130
 225	2.2288e+01	8.9324	26.566372	0.000426	4.257321	1.442419	0.000170
 226	2.2387e+01	8.9628	26.727857	0.000405	4.054591	1.373733	0.000162
 227	2.2487e+01	9.0014	26.865120	0.000345	3.446403	1.167673	0.000138
 228	2.2587e+01	9.0447	27.014494	0.000375	3.750497	1.270703	0.000150
 229	2.2686e+01	9.0880	27.159831	0.000365	3.649132	1.236359	0.000146
 230	2.2785e+01	9.1185	27.321316	0.000405	4.054591	1.373733	0.000162
 231	2.2885e+01	9.1554	27.446467	0.000314	3.142308	1.064643	0.000126
 232	2.2985e+01	9.2003	27.628138	0.000456	4.561415	1.545449	0.000183
 233	2.3084e+01	9.2404	27.765401	0.000345	3.446403	1.167673	0.000138
 234	2.3183e+01	9.2853	27.930924	0.000416	4.155956	1.408076	0.000166
 235	2.3283e+01	9.3190	28.072223	0.000355	3.547767	1.202016	0.000142
 236	2.3383e+01	9.3687	28.189300	0.000294	2.939579	0.995956	0.000118
 237	2.3482e+01	9.3992	28.358860	0.000426	4.257321	1.442419	0.000170
 238	2.3581e+01	9.4473	28.467863	0.000274	2.736849	0.927270	0.000110
 239	2.3681e+01	9.4826	28.641459	0.000436	4.358686	1.476763	0.000174
 240	2.3780e+01	9.5227	28.790834	0.000375	3.750497	1.270703	0.000150
 241	2.3880e+01	9.5580	28.932133	0.000355	3.547767	1.202016	0.000142
 242	2.3980e+01	9.5949	29.081507	0.000375	3.750497	1.270703	0.000150
 243	2.4079e+01	9.6495	29.234918	0.000385	3.851862	1.305046	0.000154
 244	2.4178e+01	9.6831	29.372181	0.000345	3.446403	1.167673	0.000138
 245	2.4278e+01	9.7200	29.525592	0.000385	3.851862	1.305046	0.000154
 246	2.4378e+01	9.7602	29.703226	0.000446	4.460050	1.511106	0.000179
 247	2.4477e+01	9.7987	29.832415	0.000324	3.243673	1.098986	0.000130
 248	2.4576e+01	9.8372	29.989863	0.000395	3.953226	1.339389	0.000158
 249	2.4676e+01	9.8853	30.098865	0.000274	2.736849	0.927270	0.000110
 250	2.4776e+01	9.9142	30.240165	0.000355	3.547767	1.202016	0.000142
 251	2.4875e+01	9.9671	30.389539	0.000375	3.750497	1.270703	0.000150
 252	2.4974e+01	9.9896	30.534876	0.000365	3.649132	1.236359	0.000146
 253	2.5074e+01	10.0393	30.688287	0.000385	3.851862	1.305046	0.000154
 254	2.5174e+01	10.0778	30.809401	0.000304	3.040943	1.030300	0.000122
 255	2.5273e+01	10.1195	30.970887	0.000405	4.054591	1.373733	0.000162
 256	2.5372e+01	10.1532	31.104112	0.000335	3.345038	1.133329	0.000134
 257	2.5472e+01	10.1965	31.285783	0.000456	4.561415	1.545449	0.000183
 258	2.5572e+01	10.2302	31.419009	0.000335	3.345038	1.133329	0.000134
 259	2.5671e+01	10.2767	31.588569	0.000426	4.257321	1.442419	0.000170
 260	2.5770e+01	10.3200	31.717757	0.000324	3.243673	1.098986	0.000130
 261	2.5870e+01	10.3521	31.830797	0.000284	2.838214	0.961613	0.000114
 262	2.5970e+01	10.3970	32.016505	0.000466	4.662780	1.579793	0.000187
 263	2.6069e+01	10.4339	32.169916	0.000385	3.851862	1.305046	0.000154
 264	2.6169e+01	10.4724	32.250659	0.000203	2.027296	0.686866	0.000081
 265	2.6268e+01	10.5190	32.440404	0.000476	4.764145	1.614136	0.000191
 266	2.6367e+01	10.5510	32.589778	0.000375	3.750497	1.270703	0.000150
 267	2.6467e+01	10.5976	32.698781	0.000274	2.736849	0.927270	0.000110
 268	2.6567e+01	10.6393	32.868341	0.000426	4.257321	1.442419	0.000170
 269	2.6666e+01	10.6778	33.045975	0.000446	4.460050	1.511106	0.000179
 270	2.6765e+01	10.7259	33.179200	0.000335	3.345038	1.133329	0.000134
 271	2.6865e+01	10.7484	33.300314	0.000304	3.040943	1.030300	0.000122
 272	2.6965e+01	10.7933	33.477948	0.000446	4.460050	1.511106	0.000179
 273	2.7064e+01	10.8334	33.627322	0.000375	3.750497	1.270703	0.000150
 274	2.7163e+01	10.8799	33.760548	0.000335	3.345038	1.133329	0.000134
 275	2.7263e+01	10.9088	33.865513	0.000264	2.635484	0.892926	0.000105
 276	2.7363e+01	10.9457	34.087556	0.000558	5.575063	1.888882	0.000223
 277	2.7462e+01	10.9922	34.208670	0.000304	3.040943	1.030300	0.000122
 278	2.7561e+01	11.0307	34.345932	0.000345	3.446403	1.167673	0.000138
 279	2.7661e+01	11.0772	34.499343	0.000385	3.851862	1.305046	0.000154
 280	2.7761e+01	11.1109	34.632569	0.000335	3.345038	1.133329	0.000134
 281	2.7860e+01	11.1574	34.781943	0.000375	3.750497	1.270703	0.000150
 282	2.7959e+01	11.1991	34.919206	0.000345	3.446403	1.167673	0.000138
 283	2.8059e+01	11.2248	35.044357	0.000314	3.142308	1.064643	0.000126
 284	2.8159e+01	11.2729	35.189694	0.000365	3.649132	1.236359	0.000146
 285	2.8258e+01	11.3163	35.367328	0.000446	4.460050	1.511106	0.000179
 286	2.8358e+01	11.3451	35.536887	0.000426	4.257321	1.442419	0.000170
 287	2.8457e+01	11.4029	35.686261	0.000375	3.750497	1.270703	0.000150
 288	2.8556e+01	11.4286	35.787190	0.000253	2.534120	0.858583	0.000101
 289	2.8656e+01	11.4719	35.960787	0.000436	4.358686	1.476763	0.000174
 290	2.8756e+01	11.5136	36.081901	0.000304	3.040943	1.030300	0.000122
 291	2.8855e+01	11.5505	36.267609	0.000466	4.662780	1.579793	0.000187
 292	2.8954e+01	11.5906	36.392760	0.000314	3.142308	1.064643	0.000126
 293	2.9054e+01	11.6275	36.530023	0.000345	3.446403	1.167673	0.000138
 294	2.9154e+01	11.6708	36.703620	0.000436	4.358686	1.476763	0.000174
 295	2.9253e+01	11.7141	36.828771	0.000314	3.142308	1.064643	0.000126
 296	2.9352e+01	11.7510	36.982182	0.000385	3.851862	1.305046	0.000154
 297	2.9452e+01	11.7863	37.127519	0.000365	3.649132	1.236359	0.000146
 298	2.9552e+01	11.8200	37.264781	0.000345	3.446403	1.167673	0.000138
 299	2.9651e+01	11.8713	37.442415	0.000446	4.460050	1.511106	0.000179
 300	2.9750e+01	11.9098	37.547381	0.000264	2.635484	0.892926	0.000105
 301	2.9850e+01	11.9435	37.720978	0.000436	4.358686	1.476763	0.000174
 302	2.9950e+01	11.9900	37.817869	0.000243	2.432755	0.824240	0.000097
 303	3.0049e+01	12.0334	38.015689	0.000497	4.966874	1.682823	0.000199
 304	3.0148e+01	12.0686	38.132766	0.000294	2.939579	0.995956	0.000118
 305	3.0248e+01	12.1136	38.294251	0.000405	4.054591	1.373733	0.000162
 306	3.0348e+01	12.1456	38.419402	0.000314	3.142308	1.064643	0.000126
 307	3.0447e+01	12.2002	38.576851	0.000395	3.953226	1.339389	0.000158
 308	3.0547e+01	12.2275	38.734299	0.000395	3.953226	1.339389	0.000158
 309	3.0646e+01	12.2756	38.835227	0.000253	2.534120	0.858583	0.000101
 310	3.0745e+01	12.3141	39.004787	0.000426	4.257321	1.442419	0.000170
 311	3.0845e+01	12.3510	39.125901	0.000304	3.040943	1.030300	0.000122
 312	3.0945e+01	12.3895	39.251052	0.000314	3.142308	1.064643	0.000126
 313	3.1044e+01	12.4232	39.424649	0.000436	4.358686	1.476763	0.000174
 314	3.1143e+01	12.4713	39.606320	0.000456	4.561415	1.545449	0.000183
 315	3.1243e+01	12.5146	39.723397	0.000294	2.939579	0.995956	0.000118
 316	3.1343e+01	12.5531	39.876808	0.000385	3.851862	1.305046	0.000154
 317	3.1442e+01	12.5852	40.026182	0.000375	3.750497	1.270703	0.000150
 318	3.1541e+01	12.6237	40.151333	0.000314	3.142308	1.064643	0.000126
 319	3.1641e+01	12.6702	40.284559	0.000335	3.345038	1.133329	0.000134
 320	3.1741e+01	12.7135	40.429896	0.000365	3.649132	1.236359	0.000146
 321	3.1840e+01	12.7488	40.591381	0.000405	4.054591	1.373733	0.000162
 322	3.1939e+01	12.7922	40.740755	0.000375	3.750497	1.270703	0.000150
 323	3.2039e+01	12.8274	40.853795	0.000284	2.838214	0.961613	0.000114
 324	3.2139e+01	12.8627	41.015281	0.000405	4.054591	1.373733	0.000162
 325	3.2238e+01	12.9125	41.176766	0.000405	4.054591	1.373733	0.000162
 326	3.2337e+01	12.9494	41.269620	0.000233	2.331390	0.789896	0.000093
 327	3.2437e+01	12.9831	41.447254	0.000446	4.460050	1.511106	0.000179
 328	3.2536e+01	13.0200	41.600665	0.000385	3.851862	1.305046	0.000154
 329	3.2636e+01	13.0713	41.733891	0.000335	3.345038	1.133329	0.000134
 330	3.2736e+01	13.1098	41.875190	0.000355	3.547767	1.202016	0.000142
 331	3.2835e+01	13.1467	42.060899	0.000466	4.662780	1.579793	0.000187
 332	3.2934e+01	13.1820	42.202198	0.000355	3.547767	1.202016	0.000142
 333	3.3034e+01	13.2285	42.339461	0.000345	3.446403	1.167673	0.000138
 334	3.3133e+01	13.2622	42.480761	0.000355	3.547767	1.202016	0.000142
 335	3.3233e+01	13.3039	42.634172	0.000385	3.851862	1.305046	0.000154
 336	3.3333e+01	13.3536	42.827954	0.000487	4.865509	1.648479	0.000195
 337	3.3432e+01	13.3809	42.888512	0.000152	1.520472	0.515150	0.000061
 338	3.3532e+01	13.4210	43.054034	0.000416	4.155956	1.408076	0.000166
 339	3.3631e+01	13.4659	43.215520	0.000405	4.054591	1.373733	0.000162
 340	3.3730e+01	13.4868	43.368931	0.000385	3.851862	1.305046	0.000154
 341	3.3830e+01	13.5494	43.510230	0.000355	3.547767	1.202016	0.000142
 342	3.3929e+01	13.5830	43.639419	0.000324	3.243673	1.098986	0.000130
 343	3.4029e+01	13.6183	43.768607	0.000324	3.243673	1.098986	0.000130
 344	3.4129e+01	13.6504	43.922018	0.000385	3.851862	1.305046	0.000154
 345	3.4228e+01	13.6953	44.075429	0.000385	3.851862	1.305046	0.000154
 346	3.4328e+01	13.7419	44.196543	0.000304	3.040943	1.030300	0.000122
 347	3.4427e+01	13.7820	44.353992	0.000395	3.953226	1.339389	0.000158
 348	3.4526e+01	13.8253	44.491254	0.000345	3.446403	1.167673	0.000138
 349	3.4626e+01	13.8558	44.672926	0.000456	4.561415	1.545449	0.000183
 350	3.4725e+01	13.8927	44.790002	0.000294	2.939579	0.995956	0.000118
 351	3.4825e+01	13.9424	44.967636	0.000446	4.460050	1.511106	0.000179
 352	3.4925e+01	13.9889	45.112973	0.000365	3.649132	1.236359	0.000146
 353	3.5024e+01	14.0178	45.226013	0.000284	2.838214	0.961613	0.000114
 354	3.5123e+01	14.0627	45.363276	0.000345	3.446403	1.167673	0.000138
 355	3.5223e+01	14.0996	45.512650	0.000375	3.750497	1.270703	0.000150
 356	3.5322e+01	14.1333	45.690284	0.000446	4.460050	1.511106	0.000179
 357	3.5422e+01	14.1782	45.795249	0.000264	2.635484	0.892926	0.000105
 358	3.5522e+01	14.2183	45.960772	0.000416	4.155956	1.408076	0.000166
 359	3.5621e+01	14.2664	46.093997	0.000335	3.345038	1.133329	0.000134
 360	3.5721e+01	14.2953	46.194926	0.000253	2.534120	0.858583	0.000101
 361	3.5820e+01	14.3402	46.384671	0.000476	4.764145	1.614136	0.000191
 362	3.5919e+01	14.3771	46.513859	0.000324	3.243673	1.098986	0.000130
 363	3.6019e+01	14.4188	46.659196	0.000365	3.649132	1.236359	0.000146
 364	3.6118e+01	14.4638	46.772236	0.000284	2.838214	0.961613	0.000114
 365	3.6218e+01	14.4975	46.961981	0.000476	4.764145	1.614136	0.000191
 366	3.6318e+01	14.5376	47.107318	0.000365	3.649132	1.236359	0.000146
 367	3.6417e+01	14.5745	47.260730	0.000385	3.851862	1.305046	0.000154
 368	3.6517e+01	14.6242	47.393955	0.000335	3.345038	1.133329	0.000134
 369	3.6616e+01	14.6579	47.539292	0.000365	3.649132	1.236359	0.000146
 370	3.6715e+01	14.6980	47.708852	0.000426	4.257321	1.442419	0.000170
 371	3.6815e+01	14.7429	47.813817	0.000264	2.635484	0.892926	0.000105
 372	3.6914e+01	14.7718	48.003562	0.000476	4.764145	1.614136	0.000191
 373	3.7014e+01	14.8231	48.108528	0.000264	2.635484	0.892926	0.000105
 374	3.7114e+01	14.8648	48.241754	0.000335	3.345038	1.133329	0.000134
 375	3.7213e+01	14.9033	48.387090	0.000365	3.649132	1.236359	0.000146
 376	3.7313e+01	14.9290	48.488019	0.000253	2.534120	0.858583	0.000101
 377	3.7412e+01	14.9755	48.665653	0.000446	4.460050	1.511106	0.000179
 378	3.7511e+01	15.0124	48.798878	0.000335	3.345038	1.133329	0.000134
 379	3.7611e+01	15.0605	48.928067	0.000324	3.243673	1.098986	0.000130
 380	3.7711e+01	15.0942	49.121849	0.000487	4.865509	1.648479	0.000195
 381	3.7810e+01	15.1343	49.222777	0.000253	2.534120	0.858583	0.000101
 382	3.7910e+01	15.1696	49.376189	0.000385	3.851862	1.305046	0.000154
 383	3.8009e+01	15.2161	49.525563	0.000375	3.750497	1.270703	0.000150
 384	3.8108e+01	15.2530	49.674937	0.000375	3.750497	1.270703	0.000150
 385	3.8208e+01	15.2980	49.820274	0.000365	3.649132	1.236359	0.000146
 386	3.8307e+01	15.3349	49.945425	0.000314	3.142308	1.064643	0.000126
 387	3.8407e+01	15.3766	50.123059	0.000446	4.460050	1.511106	0.000179
 388	3.8507e+01	15.4167	50.288581	0.000416	4.155956	1.408076	0.000166
 389	3.8606e+01	15.4600	50.365287	0.000193	1.925931	0.652523	0.000077
 390	3.8706e+01	15.4937	50.526772	0.000405	4.054591	1.373733	0.000162
 391	3.8805e+01	15.5354	50.651924	0.000314	3.142308	1.064643	0.000126
 392	3.8904e+01	15.5755	50.845706	0.000487	4.865509	1.648479	0.000195
 393	3.9004e+01	15.6108	50.958746	0.000284	2.838214	0.961613	0.000114
 394	3.9103e+01	15.6605	51.144454	0.000466	4.662780	1.579793	0.000187
 395	3.9203e+01	15.6990	51.241345	0.000243	2.432755	0.824240	0.000097
 396	3.9303e+01	15.7423	51.394757	0.000385	3.851862	1.305046	0.000154
 397	3.9402e+01	15.7696	51.556242	0.000405	4.054591	1.373733	0.000162
 398	3.9502e+01	15.8097	51.677356	0.000304	3.040943	1.030300	0.000122
 399	3.9601e+01	15.8530	51.834804	0.000395	3.953226	1.339389	0.000158
 400	3.9700e+01	15.8979	51.963993	0.000324	3.243673	1.098986	0.000130
 401	3.9800e+01	15.9397	52.141627	0.000446	4.460050	1.511106	0.000179
 402	3.9900e+01	15.9669	52.278889	0.000345	3.446403	1.167673	0.000138
 403	3.9999e+01	16.0135	52.391929	0.000284	2.838214	0.961613	0.000114
 404	4.0099e+01	16.0375	52.537266	0.000365	3.649132	1.236359	0.000146
 405	4.0198e+01	16.0937	52.670491	0.000335	3.345038	1.133329	0.000134
 406	4.0297e+01	16.1402	52.807754	0.000345	3.446403	1.167673	0.000138
 407	4.0397e+01	16.1739	52.989425	0.000456	4.561415	1.545449	0.000183
 408	4.0496e+01	16.2076	53.094391	0.000264	2.635484	0.892926	0.000105
 409	4.0596e+01	16.2429	53.255876	0.000405	4.054591	1.373733	0.000162
 410	4.0696e+01	16.2926	53.372953	0.000294	2.939579	0.995956	0.000118
 411	4.0795e+01	16.3311	53.494067	0.000304	3.040943	1.030300	0.000122
 412	4.0895e+01	16.3648	53.659590	0.000416	4.155956	1.408076	0.000166
 413	4.0994e+01	16.4065	53.796852	0.000345	3.446403	1.167673	0.000138
 414	4.1093e+01	16.4578	53.966412	0.000426	4.257321	1.442419	0.000170
 415	4.1193e+01	16.4915	54.075415	0.000274	2.736849	0.927270	0.000110
 416	4.1292e+01	16.5300	54.232863	0.000395	3.953226	1.339389	0.000158
 417	4.1392e+01	16.5749	54.333791	0.000253	2.534120	0.858583	0.000101
 418	4.1492e+01	16.6038	54.519500	0.000466	4.662780	1.579793	0.000187
 419	4.1591e+01	16.6455	54.632539	0.000284	2.838214	0.961613	0.000114
 420	4.1691e+01	16.6969	54.773839	0.000355	3.547767	1.202016	0.000142
 421	4.1790e+01	16.7321	54.903027	0.000324	3.243673	1.098986	0.000130
 422	4.1889e+01	16.7723	55.056439	0.000385	3.851862	1.305046	0.000154
 423	4.1989e+01	16.8059	55.185627	0.000324	3.243673	1.098986	0.000130
 424	4.2089e+01	16.8428	55.322890	0.000345	3.446403	1.167673	0.000138
 425	4.2188e+01	16.8894	55.508598	0.000466	4.662780	1.579793	0.000187
 426	4.2288e+01	16.9198	55.605489	0.000243	2.432755	0.824240	0.000097
 427	4.2387e+01	16.9680	55.746789	0.000355	3.547767	1.202016	0.000142
 428	4.2486e+01	17.0145	55.900200	0.000385	3.851862	1.305046	0.000154
 429	4.2586e+01	17.0562	56.013240	0.000284	2.838214	0.961613	0.000114
 430	4.2685e+01	17.0803	56.174725	0.000405	4.054591	1.373733	0.000162
 431	4.2785e+01	17.1332	56.336211	0.000405	4.054591	1.373733	0.000162
 432	4.2885e+01	17.1717	56.457325	0.000304	3.040943	1.030300	0.000122
 433	4.2984e+01	17.2086	56.598624	0.000355	3.547767	1.202016	0.000142
 434	4.3084e+01	17.2567	56.776258	0.000446	4.460050	1.511106	0.000179
 435	4.3183e+01	17.2808	56.861038	0.000213	2.128660	0.721210	0.000085
 436	4.3282e+01	17.3241	57.026561	0.000416	4.155956	1.408076	0.000166
 437	4.3382e+01	17.3658	57.192083	0.000416	4.155956	1.408076	0.000166
 438	4.3481e+01	17.4123	57.317235	0.000314	3.142308	1.064643	0.000126
 439	4.3581e+01	17.4412	57.446423	0.000324	3.243673	1.098986	0.000130
 440	4.3681e+01	17.4861	57.591760	0.000365	3.649132	1.236359	0.000146
 441	4.3780e+01	17.5311	57.733060	0.000355	3.547767	1.202016	0.000142
 442	4.3880e+01	17.5599	57.821877	0.000223	2.230025	0.755553	0.000089
 443	4.3979e+01	17.6081	58.007585	0.000466	4.662780	1.579793	0.000187
 444	4.4078e+01	17.6450	58.128699	0.000304	3.040943	1.030300	0.000122
 445	4.4178e+01	17.6947	58.286147	0.000395	3.953226	1.339389	0.000158
 446	4.4278e+01	17.7188	58.451670	0.000416	4.155956	1.408076	0.000166
 447	4.4377e+01	17.7685	58.576821	0.000314	3.142308	1.064643	0.000126
 448	4.4477e+01	17.8070	58.710046	0.000335	3.345038	1.133329	0.000134
 449	4.4576e+01	17.8455	58.859420	0.000375	3.750497	1.270703	0.000150
 450	4.4675e+01	17.8744	59.008795	0.000375	3.750497	1.270703	0.000150
 451	4.4775e+01	17.9209	59.121834	0.000284	2.838214	0.961613	0.000114
 452	4.4874e+01	17.9658	59.311580	0.000476	4.764145	1.614136	0.000191
 453	4.4974e+01	18.0011	59.416545	0.000264	2.635484	0.892926	0.000105
 454	4.5074e+01	18.0444	59.553808	0.000345	3.446403	1.167673	0.000138
 455	4.5173e+01	18.0845	59.719330	0.000416	4.155956	1.408076	0.000166
 456	4.5273e+01	18.1230	59.812185	0.000233	2.331390	0.789896	0.000093
 457	4.5372e+01	18.1647	59.973670	0.000405	4.054591	1.373733	0.000162
 458	4.5471e+01	18.2080	60.102858	0.000324	3.243673	1.098986	0.000130
 459	4.5571e+01	18.2433	60.260307	0.000395	3.953226	1.339389	0.000158
 460	4.5670e+01	18.2834	60.385458	0.000314	3.142308	1.064643	0.000126
 461	4.5770e+01	18.3268	60.530795	0.000365	3.649132	1.236359	0.000146
 462	4.5870e+01	18.3701	60.664020	0.000335	3.345038	1.133329	0.000134
 463	4.5969e+01	18.3941	60.805320	0.000355	3.547767	1.202016	0.000142
 464	4.6069e+01	18.4487	60.962768	0.000395	3.953226	1.339389	0.000158
 465	4.6168e+01	18.4824	61.087919	0.000314	3.142308	1.064643	0.000126
 466	4.6267e+01	18.5289	61.229219	0.000355	3.547767	1.202016	0.000142
 467	4.6367e+01	18.5658	61.386667	0.000395	3.953226	1.339389	0.000158
 468	4.6467e+01	18.5995	61.491633	0.000264	2.635484	0.892926	0.000105
 469	4.6566e+01	18.6428	61.624858	0.000335	3.345038	1.133329	0.000134
 470	4.6666e+01	18.6925	61.794418	0.000426	4.257321	1.442419	0.000170
 471	4.6765e+01	18.7262	61.947829	0.000385	3.851862	1.305046	0.000154
 472	4.6864e+01	18.7663	62.060869	0.000284	2.838214	0.961613	0.000114
 473	4.6964e+01	18.8032	62.218317	0.000395	3.953226	1.339389	0.000158
 474	4.7063e+01	18.8401	62.339431	0.000304	3.040943	1.030300	0.000122
 475	4.7163e+01	18.8786	62.488806	0.000375	3.750497	1.270703	0.000150
 476	4.7263e+01	18.9139	62.654328	0.000416	4.155956	1.408076	0.000166
 477	4.7362e+01	18.9652	62.739108	0.000213	2.128660	0.721210	0.000085
 478	4.7462e+01	19.0037	62.896556	0.000395	3.953226	1.339389	0.000158
 479	4.7561e+01	19.0342	63.013633	0.000294	2.939579	0.995956	0.000118
 480	4.7660e+01	19.0807	63.146859	0.000335	3.345038	1.133329	0.000134
 481	4.7760e+01	19.1289	63.344678	0.000497	4.966874	1.682823	0.000199
 482	4.7859e+01	19.1706	63.453681	0.000274	2.736849	0.927270	0.000110
 483	4.7959e+01	19.1962	63.562684	0.000274	2.736849	0.927270	0.000110
 484	4.8059e+01	19.2428	63.724169	0.000405	4.054591	1.373733	0.000162
 485	4.8158e+01	19.2829	63.881617	0.000395	3.953226	1.339389	0.000158
 486	4.8258e+01	19.3166	64.002731	0.000304	3.040943	1.030300	0.000122
 487	4.8357e+01	19.3647	64.152105	0.000375	3.750497	1.270703	0.000150
 488	4.8456e+01	19.4000	64.248997	0.000243	2.432755	0.824240	0.000097
 489	4.8556e+01	19.4513	64.414519	0.000416	4.155956	1.408076	0.000166
 490	4.8656e+01	19.4834	64.551782	0.000345	3.446403	1.167673	0.000138
 491	4.8755e+01	19.5203	64.685007	0.000335	3.345038	1.133329	0.000134
 492	4.8855e+01	19.5540	64.826307	0.000355	3.547767	1.202016	0.000142
 493	4.8954e+01	19.6085	64.979718	0.000385	3.851862	1.305046	0.000154
 494	4.9053e+01	19.6310	65.112944	0.000335	3.345038	1.133329	0.000134
 495	4.9153e+01	19.6599	65.290578	0.000446	4.460050	1.511106	0.000179
 496	4.9252e+01	19.7144	65.403618	0.000284	2.838214	0.961613	0.000114
 497	4.9352e+01	19.7722	65.569140	0.000416	4.155956	1.408076	0.000166
 498	4.9452e+01	19.7946	65.718514	0.000375	3.750497	1.270703	0.000150
 499	4.9551e+01	19.8412	65.811368	0.000233	2.331390	0.789896	0.000093
 500	4.9651e+01	19.8732	65.940557	0.000324	3.243673	1.098986	0.000130
 501	4.9750e+01	19.9101	66.093968	0.000385	3.851862	1.305046	0.000154
 502	4.9849e+01	19.9534	66.275639	0.000456	4.561415	1.545449	0.000183
 503	4.9949e+01	19.9919	66.388679	0.000284	2.838214	0.961613	0.000114
 504	5.0048e+01	19.9486	66.279676	0.000274	2.736849	0.927270	-0.000110
 505	5.0148e+01	19.9198	66.243342	0.000091	0.912283	0.309090	-0.000037
 506	5.0248e+01	19.8732	66.122228	0.000304	3.040943	1.030300	-0.000122
 507	5.0347e+01	19.8395	66.053596	0.000172	1.723201	0.583836	-0.000069
 508	5.0447e+01	19.7946	65.944594	0.000274	2.736849	0.927270	-0.000110
 509	5.0546e+01	19.7529	65.880000	0.000162	1.621836	0.549493	-0.000065
 510	5.0645e+01	19.7160	65.738700	0.000355	3.547767	1.202016	-0.000142
 511	5.0745e+01	19.6807	65.657957	0.000203	2.027296	0.686866	-0.000081
 512	5.0844e+01	19.6422	65.557029	0.000253	2.534120	0.858583	-0.000101
 513	5.0944e+01	19.5877	65.419766	0.000345	3.446403	1.167673	-0.000138
 514	5.1044e+01	19.5556	65.282503	0.000345	3.446403	1.167673	-0.000138
 515	5.1143e+01	19.5155	65.250206	0.000081	0.810918	0.274747	-0.000032
 516	5.1242e+01	19.4850	65.121018	0.000324	3.243673	1.098986	-0.000130
 517	5.1342e+01	19.4417	65.024127	0.000243	2.432755	0.824240	-0.000097
 518	5.1441e+01	19.3936	64.931273	0.000233	2.331390	0.789896	-0.000093
 519	5.1541e+01	19.3567	64.814196	0.000294	2.939579	0.995956	-0.000118
 520	5.1641e+01	19.3118	64.733453	0.000203	2.027296	0.686866	-0.000081
 521	5.1740e+01	19.2684	64.608302	0.000314	3.142308	1.064643	-0.000126
 522	5.1840e+01	19.2412	64.519485	0.000223	2.230025	0.755553	-0.000089
 523	5.1939e+01	19.1946	64.386259	0.000335	3.345038	1.133329	-0.000134
 524	5.2038e+01	19.1626	64.277257	0.000274	2.736849	0.927270	-0.000110
 525	5.2138e+01	19.1225	64.180365	0.000243	2.432755	0.824240	-0.000097
 526	5.2237e+01	19.0807	64.087511	0.000233	2.331390	0.789896	-0.000093
 527	5.2337e+01	19.0342	63.982546	0.000264	2.635484	0.892926	-0.000105
 528	5.2437e+01	18.9973	63.869506	0.000284	2.838214	0.961613	-0.000114
 529	5.2536e+01	18.9540	63.748392	0.000304	3.040943	1.030300	-0.000122
 530	5.2636e+01	18.9299	63.663612	0.000213	2.128660	0.721210	-0.000085
 531	5.2735e+01	18.8850	63.506164	0.000395	3.953226	1.339389	-0.000158
 532	5.2834e+01	18.8465	63.457718	0.000122	1.216377	0.412120	-0.000049
 533	5.2934e+01	18.7968	63.332567	0.000314	3.142308	1.064643	-0.000126
 534	5.3033e+01	18.7583	63.215490	0.000294	2.939579	0.995956	-0.000118
 535	5.3133e+01	18.7166	63.106487	0.000274	2.736849	0.927270	-0.000110
 536	5.3233e+01	18.6861	62.993447	0.000284	2.838214	0.961613	-0.000114
 537	5.3332e+01	18.6444	62.880408	0.000284	2.838214	0.961613	-0.000114
 538	5.3431e+01	18.6091	62.763331	0.000294	2.939579	0.995956	-0.000118
 539	5.3531e+01	18.5626	62.666439	0.000243	2.432755	0.824240	-0.000097
 540	5.3630e+01	18.5225	62.525140	0.000355	3.547767	1.202016	-0.000142
 541	5.3730e+01	18.4872	62.416137	0.000274	2.736849	0.927270	-0.000110
 542	5.3830e+01	18.4374	62.319246	0.000243	2.432755	0.824240	-0.000097
 543	5.3929e+01	18.4102	62.210243	0.000274	2.736849	0.927270	-0.000110
 544	5.4029e+01	18.3685	62.109315	0.000253	2.534120	0.858583	-0.000101
 545	5.4128e+01	18.3268	61.976089	0.000335	3.345038	1.133329	-0.000134
 546	5.4227e+01	18.2883	61.887272	0.000223	2.230025	0.755553	-0.000089
 547	5.4327e+01	18.2530	61.750010	0.000345	3.446403	1.167673	-0.000138
 548	5.4426e+01	18.2064	61.645044	0.000264	2.635484	0.892926	-0.000105
 549	5.4526e+01	18.1727	61.532004	0.000284	2.838214	0.961613	-0.000114
 550	5.4626e+01	18.1278	61.431076	0.000253	2.534120	0.858583	-0.000101
 551	5.4725e+01	18.0877	61.277665	0.000385	3.851862	1.305046	-0.000154
 552	5.4825e+01	18.0412	61.164625	0.000284	2.838214	0.961613	-0.000114
 553	5.4924e+01	18.0043	61.095994	0.000172	1.723201	0.583836	-0.000069
 554	5.5023e+01	17.9610	60.942583	0.000385	3.851862	1.305046	-0.000154
 555	5.5123e+01	17.9257	60.886063	0.000142	1.419107	0.480806	-0.000057
 556	5.5222e+01	17.8792	60.704392	0.000456	4.561415	1.545449	-0.000183
 557	5.5322e+01	17.8455	60.599426	0.000264	2.635484	0.892926	-0.000105
 558	5.5422e+01	17.8054	60.478312	0.000304	3.040943	1.030300	-0.000122
 559	5.5521e+01	17.7637	60.381421	0.000243	2.432755	0.824240	-0.000097
 560	5.5620e+01	17.7316	60.248195	0.000335	3.345038	1.133329	-0.000134
 561	5.5720e+01	17.6883	60.195712	0.000132	1.317742	0.446463	-0.000053
 562	5.5819e+01	17.6466	60.010004	0.000466	4.662780	1.579793	-0.000187
 563	5.5919e+01	17.6113	59.965596	0.000112	1.115013	0.377776	-0.000045
 564	5.6019e+01	17.5696	59.791999	0.000436	4.358686	1.476763	-0.000174
 565	5.6118e+01	17.5327	59.699145	0.000233	2.331390	0.789896	-0.000093
 566	5.6218e+01	17.4910	59.582068	0.000294	2.939579	0.995956	-0.000118
 567	5.6317e+01	17.4428	59.444805	0.000345	3.446403	1.167673	-0.000138
 568	5.6416e+01	17.3979	59.319654	0.000314	3.142308	1.064643	-0.000126
 569	5.6516e+01	17.3706	59.246986	0.000182	1.824566	0.618180	-0.000073
 570	5.6615e+01	17.3209	59.125871	0.000304	3.040943	1.030300	-0.000122
 571	5.6715e+01	17.2824	59.012832	0.000284	2.838214	0.961613	-0.000114
 572	5.6815e+01	17.2599	58.891718	0.000304	3.040943	1.030300	-0.000122
 573	5.6914e+01	17.2086	58.706009	0.000466	4.662780	1.579793	-0.000187
 574	5.7014e+01	17.1717	58.633341	0.000182	1.824566	0.618180	-0.000073
 575	5.7113e+01	17.1188	58.520301	0.000284	2.838214	0.961613	-0.000114
 576	5.7212e+01	17.0867	58.411298	0.000274	2.736849	0.927270	-0.000110
 577	5.7312e+01	17.0482	58.253850	0.000395	3.953226	1.339389	-0.000158
 578	5.7411e+01	17.0001	58.144847	0.000274	2.736849	0.927270	-0.000110
 579	5.7511e+01	16.9648	58.043919	0.000253	2.534120	0.858583	-0.000101
 580	5.7611e+01	16.9263	57.882434	0.000405	4.054591	1.373733	-0.000162
 581	5.7710e+01	16.8894	57.793617	0.000223	2.230025	0.755553	-0.000089
 582	5.7809e+01	16.8444	57.700763	0.000233	2.331390	0.789896	-0.000093
 583	5.7909e+01	16.8124	57.567537	0.000335	3.345038	1.133329	-0.000134
 584	5.8008e+01	16.7739	57.442386	0.000314	3.142308	1.064643	-0.000126
 585	5.8108e+01	16.7321	57.284938	0.000395	3.953226	1.339389	-0.000158
 586	5.8208e+01	16.6888	57.163823	0.000304	3.040943	1.030300	-0.000122
 587	5.8307e+01	16.6503	57.058858	0.000264	2.635484	0.892926	-0.000105
 588	5.8407e+01	16.6134	56.945818	0.000284	2.838214	0.961613	-0.000114
 589	5.8506e+01	16.5605	56.792407	0.000385	3.851862	1.305046	-0.000154
 590	5.8605e+01	16.5332	56.707627	0.000213	2.128660	0.721210	-0.000085
 591	5.8705e+01	16.4883	56.586513	0.000304	3.040943	1.030300	-0.000122
 592	5.8804e+01	16.4530	56.457325	0.000324	3.243673	1.098986	-0.000130
 593	5.8904e+01	16.4081	56.316025	0.000355	3.547767	1.202016	-0.000142
 594	5.9004e+01	16.3696	56.215097	0.000253	2.534120	0.858583	-0.000101
 595	5.9103e+01	16.3311	56.053611	0.000405	4.054591	1.373733	-0.000162
 596	5.9203e+01	16.2910	55.972868	0.000203	2.027296	0.686866	-0.000081
 597	5.9302e+01	16.2477	55.831569	0.000355	3.547767	1.202016	-0.000142
 598	5.9401e+01	16.2156	55.714492	0.000294	2.939579	0.995956	-0.000118
 599	5.9501e+01	16.1659	55.601452	0.000284	2.838214	0.961613	-0.000114
 600	5.9600e+01	16.1241	55.484375	0.000294	2.939579	0.995956	-0.000118
 601	5.9700e+01	16.0985	55.363261	0.000304	3.040943	1.030300	-0.000122
 602	5.9800e+01	16.0503	55.230035	0.000335	3.345038	1.133329	-0.000134
 603	5.9899e+01	16.0135	55.100847	0.000324	3.243673	1.098986	-0.000130
 604	5.9998e+01	15.9701	54.999919	0.000253	2.534120	0.858583	-0.000101
 605	6.0098e+01	15.9220	54.874768	0.000314	3.142308	1.064643	-0.000126
 606	6.0197e+01	15.8931	54.733468	0.000355	3.547767	1.202016	-0.000142
 607	6.0297e+01	15.8466	54.628502	0.000264	2.635484	0.892926	-0.000105
 608	6.0397e+01	15.8145	54.483165	0.000365	3.649132	1.236359	-0.000146
 609	6.0496e+01	15.7648	54.386274	0.000243	2.432755	0.824240	-0.000097
 610	6.0596e+01	15.7327	54.253049	0.000335	3.345038	1.133329	-0.000134
 611	6.0695e+01	15.6990	54.119823	0.000335	3.345038	1.133329	-0.000134
 612	6.0794e+01	15.6637	54.026969	0.000233	2.331390	0.789896	-0.000093
 613	6.0894e+01	15.6188	53.877595	0.000375	3.750497	1.270703	-0.000150
 614	6.0993e+01	15.5803	53.744370	0.000335	3.345038	1.133329	-0.000134
 615	6.1093e+01	15.5338	53.623255	0.000304	3.040943	1.030300	-0.000122
 616	6.1193e+01	15.4953	53.514253	0.000274	2.736849	0.927270	-0.000110
 617	6.1292e+01	15.4552	53.368916	0.000365	3.649132	1.236359	-0.000146
 618	6.1392e+01	15.4119	53.239728	0.000324	3.243673	1.098986	-0.000130
 619	6.1491e+01	15.3830	53.122651	0.000294	2.939579	0.995956	-0.000118
 620	6.1590e+01	15.3413	52.977314	0.000365	3.649132	1.236359	-0.000146
 621	6.1690e+01	15.2899	52.848125	0.000324	3.243673	1.098986	-0.000130
 622	6.1789e+01	15.2611	52.735086	0.000284	2.838214	0.961613	-0.000114
 623	6.1889e+01	15.2145	52.630120	0.000264	2.635484	0.892926	-0.000105
 624	6.1989e+01	15.1857	52.484783	0.000365	3.649132	1.236359	-0.000146
 625	6.2088e+01	15.1327	52.375780	0.000274	2.736849	0.927270	-0.000110
 626	6.2188e+01	15.0926	52.210258	0.000416	4.155956	1.408076	-0.000166
 627	6.2287e+01	15.0605	52.145664	0.000162	1.621836	0.549493	-0.000065
 628	6.2386e+01	15.0092	52.000327	0.000365	3.649132	1.236359	-0.000146
 629	6.2486e+01	14.9803	51.875176	0.000314	3.142308	1.064643	-0.000126
 630	6.2586e+01	14.9386	51.758099	0.000294	2.939579	0.995956	-0.000118
 631	6.2685e+01	14.8921	51.616799	0.000355	3.547767	1.202016	-0.000142
 632	6.2785e+01	14.8552	51.475499	0.000355	3.547767	1.202016	-0.000142
 633	6.2884e+01	14.8199	51.390719	0.000213	2.128660	0.721210	-0.000085
 634	6.2983e+01	14.7814	51.237308	0.000385	3.851862	1.305046	-0.000154
 635	6.3083e+01	14.7397	51.136380	0.000253	2.534120	0.858583	-0.000101
 636	6.3182e+01	14.7044	50.946634	0.000476	4.764145	1.614136	-0.000191
 637	6.3282e+01	14.6659	50.849743	0.000243	2.432755	0.824240	-0.000097
 638	6.3382e+01	14.6258	50.736703	0.000284	2.838214	0.961613	-0.000114
 639	6.3481e+01	14.5873	50.631738	0.000264	2.635484	0.892926	-0.000105
 640	6.3581e+01	14.5504	50.450067	0.000456	4.561415	1.545449	-0.000183
 641	6.3680e+01	14.5039	50.349138	0.000253	2.534120	0.858583	-0.000101
 642	6.3779e+01	14.4573	50.211876	0.000345	3.446403	1.167673	-0.000138
 643	6.3879e+01	14.4188	50.078650	0.000335	3.345038	1.133329	-0.000134
 644	6.3978e+01	14.3771	49.953499	0.000314	3.142308	1.064643	-0.000126
 645	6.4078e+01	14.3386	49.824311	0.000324	3.243673	1.098986	-0.000130
 646	6.4177e+01	14.3033	49.666862	0.000395	3.953226	1.339389	-0.000158
 647	6.4277e+01	14.2536	49.565934	0.000253	2.534120	0.858583	-0.000101
 648	6.4376e+01	14.2215	49.424634	0.000355	3.547767	1.202016	-0.000142
 649	6.4476e+01	14.1846	49.335817	0.000223	2.230025	0.755553	-0.000089
 650	6.4576e+01	14.1413	49.162220	0.000436	4.358686	1.476763	-0.000174
 651	6.4675e+01	14.1044	49.053218	0.000274	2.736849	0.927270	-0.000110
 652	6.4775e+01	14.0563	48.911918	0.000355	3.547767	1.202016	-0.000142
 653	6.4874e+01	14.0194	48.823101	0.000223	2.230025	0.755553	-0.000089
 654	6.4974e+01	13.9793	48.673727	0.000375	3.750497	1.270703	-0.000150
 655	6.5073e+01	13.9488	48.532427	0.000355	3.547767	1.202016	-0.000142
 656	6.5172e+01	13.8959	48.407276	0.000314	3.142308	1.064643	-0.000126
 657	6.5272e+01	13.8574	48.261939	0.000365	3.649132	1.236359	-0.000146
 658	6.5371e+01	13.8173	48.120639	0.000355	3.547767	1.202016	-0.000142
 659	6.5471e+01	13.7723	48.027785	0.000233	2.331390	0.789896	-0.000093
 660	6.5570e+01	13.7370	47.902634	0.000314	3.142308	1.064643	-0.000126
 661	6.5670e+01	13.7001	47.785557	0.000294	2.939579	0.995956	-0.000118
 662	6.5769e+01	13.6649	47.632146	0.000385	3.851862	1.305046	-0.000154
 663	6.5869e+01	13.6231	47.506995	0.000314	3.142308	1.064643	-0.000126
 664	6.5969e+01	13.5750	47.381844	0.000314	3.142308	1.064643	-0.000126
 665	6.6068e+01	13.5413	47.276878	0.000264	2.635484	0.892926	-0.000105
 666	6.6168e+01	13.5060	47.115393	0.000405	4.054591	1.373733	-0.000162
 667	6.6267e+01	13.4691	47.022539	0.000233	2.331390	0.789896	-0.000093
 668	6.6367e+01	13.4258	46.877202	0.000365	3.649132	1.236359	-0.000146
 669	6.6466e+01	13.3857	46.768199	0.000274	2.736849	0.927270	-0.000110
 670	6.6566e+01	13.3520	46.618825	0.000375	3.750497	1.270703	-0.000150
 671	6.6665e+01	13.2943	46.481562	0.000345	3.446403	1.167673	-0.000138
 672	6.6764e+01	13.2718	46.348337	0.000335	3.345038	1.133329	-0.000134
 673	6.6864e+01	13.2237	46.243371	0.000264	2.635484	0.892926	-0.000105
 674	6.6963e+01	13.1916	46.106109	0.000345	3.446403	1.167673	-0.000138
 675	6.7063e+01	13.1483	45.984995	0.000304	3.040943	1.030300	-0.000122
 676	6.7162e+01	13.1034	45.855806	0.000324	3.243673	1.098986	-0.000130
 677	6.7262e+01	13.0649	45.710469	0.000365	3.649132	1.236359	-0.000146
 678	6.7362e+01	13.0232	45.561095	0.000375	3.750497	1.270703	-0.000150
 679	6.7461e+01	12.9815	45.456130	0.000264	2.635484	0.892926	-0.000105
 680	6.7561e+01	12.9446	45.294644	0.000405	4.054591	1.373733	-0.000162
 681	6.7660e+01	12.9028	45.181605	0.000284	2.838214	0.961613	-0.000114
 682	6.7760e+01	12.8627	45.084713	0.000243	2.432755	0.824240	-0.000097
 683	6.7859e+01	12.8290	44.890931	0.000487	4.865509	1.648479	-0.000195
 684	6.7959e+01	12.7889	44.802114	0.000223	2.230025	0.755553	-0.000089
 685	6.8058e+01	12.7488	44.648703	0.000385	3.851862	1.305046	-0.000154
 686	6.8157e+01	12.7055	44.539700	0.000274	2.736849	0.927270	-0.000110
 687	6.8257e+01	12.6670	44.422623	0.000294	2.939579	0.995956	-0.000118
 688	6.8356e+01	12.6253	44.273249	0.000375	3.750497	1.270703	-0.000150
 689	6.8456e+01	12.5884	44.144061	0.000324	3.243673	1.098986	-0.000130
 690	6.8555e+01	12.5483	44.006798	0.000345	3.446403	1.167673	-0.000138
 691	6.8655e+01	12.5114	43.885684	0.000304	3.040943	1.030300	-0.000122
 692	6.8754e+01	12.4713	43.744384	0.000355	3.547767	1.202016	-0.000142
 693	6.8854e+01	12.4344	43.603085	0.000355	3.547767	1.202016	-0.000142
 694	6.8954e+01	12.3879	43.490045	0.000284	2.838214	0.961613	-0.000114
 695	6.9053e+01	12.3414	43.360856	0.000324	3.243673	1.098986	-0.000130
 696	6.9153e+01	12.3125	43.219557	0.000355	3.547767	1.202016	-0.000142
 697	6.9252e+01	12.2756	43.078257	0.000355	3.547767	1.202016	-0.000142
 698	6.9352e+01	12.2307	42.932920	0.000365	3.649132	1.236359	-0.000146
 699	6.9451e+01	12.1874	42.852177	0.000203	2.027296	0.686866	-0.000081
 700	6.9550e+01	12.1553	42.662432	0.000476	4.764145	1.614136	-0.000191
 701	6.9650e+01	12.1120	42.537281	0.000314	3.142308	1.064643	-0.000126
 702	6.9749e+01	12.0767	42.436352	0.000253	2.534120	0.858583	-0.000101
 703	6.9849e+01	12.0253	42.286978	0.000375	3.750497	1.270703	-0.000150
 704	6.9948e+01	11.9900	42.133567	0.000385	3.851862	1.305046	-0.000154
 705	7.0048e+01	11.9467	42.020527	0.000284	2.838214	0.961613	-0.000114
 706	7.0147e+01	11.9146	41.871153	0.000375	3.750497	1.270703	-0.000150
 707	7.0247e+01	11.8633	41.750039	0.000304	3.040943	1.030300	-0.000122
 708	7.0347e+01	11.8280	41.596628	0.000385	3.851862	1.305046	-0.000154
 709	7.0446e+01	11.7943	41.495700	0.000253	2.534120	0.858583	-0.000101
 710	7.0546e+01	11.7478	41.342289	0.000385	3.851862	1.305046	-0.000154
 711	7.0645e+01	11.7141	41.217137	0.000314	3.142308	1.064643	-0.000126
 712	7.0745e+01	11.6788	41.087949	0.000324	3.243673	1.098986	-0.000130
 713	7.0844e+01	11.6323	40.942612	0.000365	3.649132	1.236359	-0.000146
 714	7.0944e+01	11.5954	40.789201	0.000385	3.851862	1.305046	-0.000154
 715	7.1043e+01	11.5585	40.684235	0.000264	2.635484	0.892926	-0.000105
 716	7.1142e+01	11.5136	40.534861	0.000375	3.750497	1.270703	-0.000150
 717	7.1242e+01	11.4622	40.413747	0.000304	3.040943	1.030300	-0.000122
 718	7.1341e+01	11.4350	40.280522	0.000335	3.345038	1.133329	-0.000134
 719	7.1441e+01	11.3852	40.139222	0.000355	3.547767	1.202016	-0.000142
 720	7.1540e+01	11.3532	39.977737	0.000405	4.054591	1.373733	-0.000162
 721	7.1640e+01	11.3082	39.892957	0.000213	2.128660	0.721210	-0.000085
 722	7.1740e+01	11.2794	39.719360	0.000436	4.358686	1.476763	-0.000174
 723	7.1839e+01	11.2377	39.578060	0.000355	3.547767	1.202016	-0.000142
 724	7.1939e+01	11.1943	39.440798	0.000345	3.446403	1.167673	-0.000138
 725	7.2038e+01	11.1510	39.311609	0.000324	3.243673	1.098986	-0.000130
 726	7.2138e+01	11.1141	39.198569	0.000284	2.838214	0.961613	-0.000114
 727	7.2237e+01	11.0740	39.057270	0.000355	3.547767	1.202016	-0.000142
 728	7.2337e+01	11.0371	38.895784	0.000405	4.054591	1.373733	-0.000162
 729	7.2436e+01	10.9890	38.770633	0.000314	3.142308	1.064643	-0.000126
 730	7.2535e+01	10.9553	38.649519	0.000304	3.040943	1.030300	-0.000122
 731	7.2635e+01	10.9152	38.500145	0.000375	3.750497	1.270703	-0.000150
 732	7.2734e+01	10.8703	38.383068	0.000294	2.939579	0.995956	-0.000118
 733	7.2834e+01	10.8286	38.249843	0.000335	3.345038	1.133329	-0.000134
 734	7.2933e+01	10.7965	38.108543	0.000355	3.547767	1.202016	-0.000142
 735	7.3033e+01	10.7612	37.979354	0.000324	3.243673	1.098986	-0.000130
 736	7.3132e+01	10.7163	37.842092	0.000345	3.446403	1.167673	-0.000138
 737	7.3232e+01	10.6778	37.708866	0.000335	3.345038	1.133329	-0.000134
 738	7.3332e+01	10.6377	37.591789	0.000294	2.939579	0.995956	-0.000118
 739	7.3431e+01	10.6056	37.410118	0.000456	4.561415	1.545449	-0.000183
 740	7.3531e+01	10.5575	37.297079	0.000284	2.838214	0.961613	-0.000114
 741	7.3630e+01	10.5125	37.151742	0.000365	3.649132	1.236359	-0.000146
 742	7.3730e+01	10.4805	37.050813	0.000253	2.534120	0.858583	-0.000101
 743	7.3829e+01	10.4339	36.889328	0.000405	4.054591	1.373733	-0.000162
 744	7.3928e+01	10.4034	36.752065	0.000345	3.446403	1.167673	-0.000138
 745	7.4028e+01	10.3505	36.606728	0.000365	3.649132	1.236359	-0.000146
 746	7.4127e+01	10.3184	36.469466	0.000345	3.446403	1.167673	-0.000138
 747	7.4227e+01	10.2703	36.324129	0.000365	3.649132	1.236359	-0.000146
 748	7.4326e+01	10.2350	36.182829	0.000355	3.547767	1.202016	-0.000142
 749	7.4426e+01	10.1869	36.017306	0.000416	4.155956	1.408076	-0.000166
 750	7.4525e+01	10.1580	35.912341	0.000264	2.635484	0.892926	-0.000105
 751	7.4625e+01	10.1147	35.775078	0.000345	3.446403	1.167673	-0.000138
 752	7.4725e+01	10.0794	35.589370	0.000466	4.662780	1.579793	-0.000187
 753	7.4824e+01	10.0409	35.480367	0.000274	2.736849	0.927270	-0.000110
 754	7.4924e+01	9.9960	35.318882	0.000405	4.054591	1.373733	-0.000162
 755	7.5023e+01	9.9591	35.217954	0.000253	2.534120	0.858583	-0.000101
 756	7.5123e+01	9.9206	35.044357	0.000436	4.358686	1.476763	-0.000174
 757	7.5222e+01	9.8821	34.911131	0.000335	3.345038	1.133329	-0.000134
 758	7.5322e+01	9.8356	34.769832	0.000355	3.547767	1.202016	-0.000142
 759	7.5421e+01	9.8035	34.660829	0.000274	2.736849	0.927270	-0.000110
 760	7.5520e+01	9.7569	34.483195	0.000446	4.460050	1.511106	-0.000179
 761	7.5620e+01	9.7249	34.366118	0.000294	2.939579	0.995956	-0.000118
 762	7.5719e+01	9.6864	34.216744	0.000375	3.750497	1.270703	-0.000150
 763	7.5819e+01	9.6350	34.087556	0.000324	3.243673	1.098986	-0.000130
 764	7.5918e+01	9.5965	33.934144	0.000385	3.851862	1.305046	-0.000154
 765	7.6018e+01	9.5596	33.796882	0.000345	3.446403	1.167673	-0.000138
 766	7.6118e+01	9.5163	33.651545	0.000365	3.649132	1.236359	-0.000146
 767	7.6217e+01	9.4794	33.481985	0.000426	4.257321	1.442419	-0.000170
 768	7.6317e+01	9.4393	33.381057	0.000253	2.534120	0.858583	-0.000101
 769	7.6416e+01	9.3992	33.263980	0.000294	2.939579	0.995956	-0.000118
 770	7.6516e+01	9.3607	33.090383	0.000436	4.358686	1.476763	-0.000174
 771	7.6615e+01	9.3190	32.912749	0.000446	4.460050	1.511106	-0.000179
 772	7.6715e+01	9.2933	32.819895	0.000233	2.331390	0.789896	-0.000093
 773	7.6814e+01	9.2308	32.670521	0.000375	3.750497	1.270703	-0.000150
 774	7.6913e+01	9.2019	32.549407	0.000304	3.040943	1.030300	-0.000122
 775	7.7013e+01	9.1634	32.391959	0.000395	3.953226	1.339389	-0.000158
 776	7.7112e+01	9.1233	32.262770	0.000324	3.243673	1.098986	-0.000130
 777	7.7212e+01	9.0800	32.105322	0.000395	3.953226	1.339389	-0.000158
 778	7.7311e+01	9.0447	31.988245	0.000294	2.939579	0.995956	-0.000118
 779	7.7411e+01	9.0014	31.802537	0.000466	4.662780	1.579793	-0.000187
 780	7.7510e+01	8.9612	31.689497	0.000284	2.838214	0.961613	-0.000114
 781	7.7610e+01	8.9211	31.564346	0.000314	3.142308	1.064643	-0.000126
 782	7.7710e+01	8.8746	31.398823	0.000416	4.155956	1.408076	-0.000166
 783	7.7809e+01	8.8457	31.249449	0.000375	3.750497	1.270703	-0.000150
 784	7.7909e+01	8.8056	31.087964	0.000405	4.054591	1.373733	-0.000162
 785	7.8008e+01	8.7655	30.982998	0.000264	2.635484	0.892926	-0.000105
 786	7.8108e+01	8.7222	30.845736	0.000345	3.446403	1.167673	-0.000138
 787	7.8207e+01	8.6741	30.708473	0.000345	3.446403	1.167673	-0.000138
 788	7.8306e+01	8.6484	30.559099	0.000375	3.750497	1.270703	-0.000150
 789	7.8406e+01	8.6083	30.417799	0.000355	3.547767	1.202016	-0.000142
 790	7.8505e+01	8.5698	30.308797	0.000274	2.736849	0.927270	-0.000110
 791	7.8605e+01	8.5217	30.127125	0.000456	4.561415	1.545449	-0.000183
 792	7.8704e+01	8.4912	29.985826	0.000355	3.547767	1.202016	-0.000142
 793	7.8804e+01	8.4383	29.836452	0.000375	3.750497	1.270703	-0.000150
 794	7.8903e+01	8.4014	29.755709	0.000203	2.027296	0.686866	-0.000081
 795	7.9003e+01	8.3629	29.553852	0.000507	5.068239	1.717166	-0.000203
 796	7.9103e+01	8.3324	29.444850	0.000274	2.736849	0.927270	-0.000110
 797	7.9202e+01	8.2907	29.299513	0.000365	3.649132	1.236359	-0.000146
 798	7.9302e+01	8.2506	29.113804	0.000466	4.662780	1.579793	-0.000187
 799	7.9401e+01	8.2040	28.984616	0.000324	3.243673	1.098986	-0.000130
 800	7.9501e+01	8.1543	28.847353	0.000345	3.446403	1.167673	-0.000138
 801	7.9600e+01	8.1254	28.734314	0.000284	2.838214	0.961613	-0.000114
 802	7.9700e+01	8.0789	28.528420	0.000517	5.169604	1.751509	-0.000207
 803	7.9799e+01	8.0468	28.431528	0.000243	2.432755	0.824240	-0.000097
 804	7.9898e+01	8.0099	28.278117	0.000385	3.851862	1.305046	-0.000154
 805	7.9998e+01	7.9666	28.157003	0.000304	3.040943	1.030300	-0.000122
 806	8.0097e+01	7.9217	27.999555	0.000395	3.953226	1.339389	-0.000158
 807	8.0197e+01	7.8848	27.821921	0.000446	4.460050	1.511106	-0.000179
 808	8.0296e+01	7.8495	27.741178	0.000203	2.027296	0.686866	-0.000081
 809	8.0396e+01	7.8062	27.543359	0.000497	4.966874	1.682823	-0.000199
 810	8.0496e+01	7.7741	27.438393	0.000264	2.635484	0.892926	-0.000105
 811	8.0595e+01	7.7212	27.313242	0.000314	3.142308	1.064643	-0.000126
 812	8.0695e+01	7.6859	27.135608	0.000446	4.460050	1.511106	-0.000179
 813	8.0794e+01	7.6426	27.018531	0.000294	2.939579	0.995956	-0.000118
 814	8.0894e+01	7.6105	26.828786	0.000476	4.764145	1.614136	-0.000191
 815	8.0993e+01	7.5656	26.739969	0.000223	2.230025	0.755553	-0.000089
 816	8.1093e+01	7.5367	26.558297	0.000456	4.561415	1.545449	-0.000183
 817	8.1192e+01	7.4821	26.441221	0.000294	2.939579	0.995956	-0.000118
 818	8.1291e+01	7.4501	26.263587	0.000446	4.460050	1.511106	-0.000179
 819	8.1391e+01	7.4003	26.142472	0.000304	3.040943	1.030300	-0.000122
 820	8.1490e+01	7.3747	25.956764	0.000466	4.662780	1.579793	-0.000187
 821	8.1590e+01	7.3169	25.839687	0.000294	2.939579	0.995956	-0.000118
 822	8.1689e+01	7.2816	25.670128	0.000426	4.257321	1.442419	-0.000170
 823	8.1789e+01	7.2415	25.536902	0.000335	3.345038	1.133329	-0.000134
 824	8.1888e+01	7.2110	25.383491	0.000385	3.851862	1.305046	-0.000154
 825	8.1988e+01	7.1677	25.234117	0.000375	3.750497	1.270703	-0.000150
 826	8.2088e+01	7.1196	25.129151	0.000264	2.635484	0.892926	-0.000105
 827	8.2187e+01	7.0843	24.955555	0.000436	4.358686	1.476763	-0.000174
 828	8.2287e+01	7.0410	24.846552	0.000274	2.736849	0.927270	-0.000110
 829	8.2386e+01	7.0137	24.697178	0.000375	3.750497	1.270703	-0.000150
 830	8.2486e+01	6.9736	24.580101	0.000294	2.939579	0.995956	-0.000118
 831	8.2585e+01	6.9239	24.386318	0.000487	4.865509	1.648479	-0.000195
 832	8.2684e+01	6.8950	24.261167	0.000314	3.142308	1.064643	-0.000126
 833	8.2784e+01	6.8388	24.131979	0.000324	3.243673	1.098986	-0.000130
 834	8.2883e+01	6.8100	24.018939	0.000284	2.838214	0.961613	-0.000114
 835	8.2983e+01	6.7699	23.829194	0.000476	4.764145	1.614136	-0.000191
 836	8.3082e+01	6.7233	23.695968	0.000335	3.345038	1.133329	-0.000134
 837	8.3182e+01	6.6929	23.595040	0.000253	2.534120	0.858583	-0.000101
 838	8.3281e+01	6.6544	23.437592	0.000395	3.953226	1.339389	-0.000158
 839	8.3381e+01	6.6126	23.300329	0.000345	3.446403	1.167673	-0.000138
 840	8.3481e+01	6.5709	23.138843	0.000405	4.054591	1.373733	-0.000162
 841	8.3580e+01	6.5260	22.973321	0.000416	4.155956	1.408076	-0.000166
 842	8.3680e+01	6.4907	22.815873	0.000395	3.953226	1.339389	-0.000158
 843	8.3779e+01	6.4618	22.686684	0.000324	3.243673	1.098986	-0.000130
 844	8.3879e+01	6.4137	22.533273	0.000385	3.851862	1.305046	-0.000154
 845	8.3978e+01	6.3704	22.408122	0.000314	3.142308	1.064643	-0.000126
 846	8.4078e+01	6.3367	22.282971	0.000314	3.142308	1.064643	-0.000126
 847	8.4177e+01	6.2950	22.125522	0.000395	3.953226	1.339389	-0.000158
 848	8.4276e+01	6.2421	21.960000	0.000416	4.155956	1.408076	-0.000166
 849	8.4376e+01	6.2100	21.834849	0.000314	3.142308	1.064643	-0.000126
 850	8.4475e+01	6.1731	21.685475	0.000375	3.750497	1.270703	-0.000150
 851	8.4575e+01	6.1426	21.580509	0.000264	2.635484	0.892926	-0.000105
 852	8.4674e+01	6.0881	21.423061	0.000395	3.953226	1.339389	-0.000158
 853	8.4774e+01	6.0496	21.253501	0.000426	4.257321	1.442419	-0.000170
 854	8.4874e+01	6.0191	21.075867	0.000446	4.460050	1.511106	-0.000179
 855	8.4973e+01	5.9854	20.991087	0.000213	2.128660	0.721210	-0.000085
 856	8.5073e+01	5.9308	20.837676	0.000385	3.851862	1.305046	-0.000154
 857	8.5172e+01	5.8923	20.684265	0.000385	3.851862	1.305046	-0.000154
 858	8.5272e+01	5.8651	20.563151	0.000304	3.040943	1.030300	-0.000122
 859	8.5371e+01	5.8137	20.381480	0.000456	4.561415	1.545449	-0.000183
 860	8.5471e+01	5.7768	20.268440	0.000284	2.838214	0.961613	-0.000114
 861	8.5570e+01	5.7367	20.098880	0.000426	4.257321	1.442419	-0.000170
 862	8.5669e+01	5.6950	19.965655	0.000335	3.345038	1.133329	-0.000134
 863	8.5769e+01	5.6565	19.820318	0.000365	3.649132	1.236359	-0.000146
 864	8.5868e+01	5.6100	19.654795	0.000416	4.155956	1.408076	-0.000166
 865	8.5968e+01	5.5715	19.537718	0.000294	2.939579	0.995956	-0.000118
 866	8.6067e+01	5.5378	19.368159	0.000426	4.257321	1.442419	-0.000170
 867	8.6167e+01	5.4945	19.202636	0.000416	4.155956	1.408076	-0.000166
 868	8.6266e+01	5.4592	19.025002	0.000446	4.460050	1.511106	-0.000179
 869	8.6366e+01	5.4191	18.956371	0.000172	1.723201	0.583836	-0.000069
 870	8.6466e+01	5.3726	18.766625	0.000476	4.764145	1.614136	-0.000191
 871	8.6565e+01	5.3389	18.645511	0.000304	3.040943	1.030300	-0.000122
 872	8.6665e+01	5.3020	18.492100	0.000385	3.851862	1.305046	-0.000154
 873	8.6764e+01	5.2587	18.366949	0.000314	3.142308	1.064643	-0.000126
 874	8.6864e+01	5.2073	18.213538	0.000385	3.851862	1.305046	-0.000154
 875	8.6963e+01	5.1801	18.023793	0.000476	4.764145	1.614136	-0.000191
 876	8.7063e+01	5.1319	17.914790	0.000274	2.736849	0.927270	-0.000110
 877	8.7162e+01	5.0983	17.749267	0.000416	4.155956	1.408076	-0.000166
 878	8.7261e+01	5.0630	17.616042	0.000335	3.345038	1.133329	-0.000134
 879	8.7361e+01	5.0196	17.454556	0.000405	4.054591	1.373733	-0.000162
 880	8.7460e+01	4.9811	17.325368	0.000324	3.243673	1.098986	-0.000130
 881	8.7560e+01	4.9426	17.147734	0.000446	4.460050	1.511106	-0.000179
 882	8.7659e+01	4.8993	17.054880	0.000233	2.331390	0.789896	-0.000093
 883	8.7759e+01	4.8624	16.873209	0.000456	4.561415	1.545449	-0.000183
 884	8.7859e+01	4.8239	16.731909	0.000355	3.547767	1.202016	-0.000142
 885	8.7958e+01	4.7822	16.602721	0.000324	3.243673	1.098986	-0.000130
 886	8.8058e+01	4.7357	16.433161	0.000426	4.257321	1.442419	-0.000170
 887	8.8157e+01	4.6972	16.291861	0.000355	3.547767	1.202016	-0.000142
 888	8.8257e+01	4.6619	16.146524	0.000365	3.649132	1.236359	-0.000146
 889	8.8356e+01	4.6250	15.985039	0.000405	4.054591	1.373733	-0.000162
 890	8.8456e+01	4.5769	15.851813	0.000335	3.345038	1.133329	-0.000134
 891	8.8555e+01	4.5464	15.738774	0.000284	2.838214	0.961613	-0.000114
 892	8.8654e+01	4.4999	15.569214	0.000426	4.257321	1.442419	-0.000170
 893	8.8754e+01	4.4630	15.423877	0.000365	3.649132	1.236359	-0.000146
 894	8.8853e+01	4.4197	15.282577	0.000355	3.547767	1.202016	-0.000142
 895	8.8953e+01	4.3828	15.141278	0.000355	3.547767	1.202016	-0.000142
 896	8.9052e+01	4.3491	14.999978	0.000355	3.547767	1.202016	-0.000142
 897	8.9152e+01	4.3026	14.866752	0.000335	3.345038	1.133329	-0.000134
 898	8.9251e+01	4.2608	14.681044	0.000466	4.662780	1.579793	-0.000187
 899	8.9351e+01	4.2239	14.576079	0.000264	2.635484	0.892926	-0.000105
 900	8.9451e+01	4.1822	14.422667	0.000385	3.851862	1.305046	-0.000154
 901	8.9550e+01	4.1405	14.232922	0.000476	4.764145	1.614136	-0.000191
 902	8.9650e+01	4.1052	14.115845	0.000294	2.939579	0.995956	-0.000118
 903	8.9749e+01	4.0587	13.962434	0.000385	3.851862	1.305046	-0.000154
 904	8.9849e+01	4.0234	13.825171	0.000345	3.446403	1.167673	-0.000138
 905	8.9948e+01	3.9801	13.687909	0.000345	3.446403	1.167673	-0.000138
 906	9.0047e+01	3.9400	13.542572	0.000365	3.649132	1.236359	-0.000146
 907	9.0147e+01	3.9015	13.352826	0.000476	4.764145	1.614136	-0.000191
 908	9.0246e+01	3.8678	13.191341	0.000405	4.054591	1.373733	-0.000162
 909	9.0346e+01	3.8213	13.090413	0.000253	2.534120	0.858583	-0.000101
 910	9.0445e+01	3.7892	12.981410	0.000274	2.736849	0.927270	-0.000110
 911	9.0545e+01	3.7459	12.823962	0.000395	3.953226	1.339389	-0.000158
 912	9.0644e+01	3.6929	12.622105	0.000507	5.068239	1.717166	-0.000203
 913	9.0744e+01	3.6705	12.509065	0.000284	2.838214	0.961613	-0.000114
 914	9.0844e+01	3.6143	12.335468	0.000436	4.358686	1.476763	-0.000174
 915	9.0943e+01	3.5823	12.157834	0.000446	4.460050	1.511106	-0.000179
 916	9.1043e+01	3.5502	12.060943	0.000243	2.432755	0.824240	-0.000097
 917	9.1142e+01	3.4972	11.915606	0.000365	3.649132	1.236359	-0.000146
 918	9.1242e+01	3.4635	11.746046	0.000426	4.257321	1.442419	-0.000170
 919	9.1341e+01	3.4218	11.592635	0.000385	3.851862	1.305046	-0.000154
 920	9.1441e+01	3.3817	11.455373	0.000345	3.446403	1.167673	-0.000138
 921	9.1540e+01	3.3432	11.293887	0.000405	4.054591	1.373733	-0.000162
 922	9.1639e+01	3.2983	11.124328	0.000426	4.257321	1.442419	-0.000170
 923	9.1739e+01	3.2646	11.027436	0.000243	2.432755	0.824240	-0.000097
 924	9.1838e+01	3.2229	10.833654	0.000487	4.865509	1.648479	-0.000195
 925	9.1938e+01	3.1828	10.692354	0.000355	3.547767	1.202016	-0.000142
 926	9.2037e+01	3.1379	10.547017	0.000365	3.649132	1.236359	-0.000146
 927	9.2137e+01	3.0978	10.385532	0.000405	4.054591	1.373733	-0.000162
 928	9.2237e+01	3.0737	10.284603	0.000253	2.534120	0.858583	-0.000101
 929	9.2336e+01	3.0288	10.070635	0.000537	5.372333	1.820196	-0.000215
 930	9.2436e+01	2.9807	9.977781	0.000233	2.331390	0.789896	-0.000093
 931	9.2535e+01	2.9502	9.820333	0.000395	3.953226	1.339389	-0.000158
 932	9.2635e+01	2.9085	9.674996	0.000365	3.649132	1.236359	-0.000146
 933	9.2734e+01	2.8668	9.509473	0.000416	4.155956	1.408076	-0.000166
 934	9.2834e+01	2.8331	9.380285	0.000324	3.243673	1.098986	-0.000130
 935	9.2933e+01	2.8026	9.226874	0.000385	3.851862	1.305046	-0.000154
 936	9.3032e+01	2.7448	9.069425	0.000395	3.953226	1.339389	-0.000158
 937	9.3132e+01	2.7063	8.903903	0.000416	4.155956	1.408076	-0.000166
 938	9.3231e+01	2.6710	8.790863	0.000284	2.838214	0.961613	-0.000114
 939	9.3331e+01	2.6149	8.645526	0.000365	3.649132	1.236359	-0.000146
 940	9.3430e+01	2.6005	8.439632	0.000517	5.169604	1.751509	-0.000207
 941	9.3530e+01	2.5395	8.326592	0.000284	2.838214	0.961613	-0.000114
 942	9.3629e+01	2.5090	8.213553	0.000284	2.838214	0.961613	-0.000114
 943	9.3729e+01	2.4673	8.019770	0.000487	4.865509	1.648479	-0.000195
 944	9.3829e+01	2.4256	7.922879	0.000243	2.432755	0.824240	-0.000097
 945	9.3928e+01	2.3951	7.729096	0.000487	4.865509	1.648479	-0.000195
 946	9.4028e+01	2.3438	7.587797	0.000355	3.547767	1.202016	-0.000142
 947	9.4127e+01	2.3021	7.442460	0.000365	3.649132	1.236359	-0.000146
 948	9.4227e+01	2.2732	7.285011	0.000395	3.953226	1.339389	-0.000158
 949	9.4326e+01	2.2315	7.147749	0.000345	3.446403	1.167673	-0.000138
 950	9.4425e+01	2.1914	6.982226	0.000416	4.155956	1.408076	-0.000166
 951	9.4525e+01	2.1545	6.853038	0.000324	3.243673	1.098986	-0.000130
 952	9.4624e+01	2.1096	6.675404	0.000446	4.460050	1.511106	-0.000179
 953	9.4724e+01	2.0711	6.554290	0.000304	3.040943	1.030300	-0.000122
 954	9.4823e+01	2.0294	6.404916	0.000375	3.750497	1.270703	-0.000150
 955	9.4923e+01	1.9828	6.190948	0.000537	5.372333	1.820196	-0.000215
 956	9.5022e+01	1.9491	6.069834	0.000304	3.040943	1.030300	-0.000122
 957	9.5122e+01	1.9090	5.960831	0.000274	2.736849	0.927270	-0.000110
 958	9.5222e+01	1.8721	5.807420	0.000385	3.851862	1.305046	-0.000154
 959	9.5321e+01	1.8352	5.658046	0.000375	3.750497	1.270703	-0.000150
 960	9.5421e+01	1.7871	5.508672	0.000375	3.750497	1.270703	-0.000150
 961	9.5520e+01	1.7486	5.363335	0.000365	3.649132	1.236359	-0.000146
 962	9.5620e+01	1.7101	5.234146	0.000324	3.243673	1.098986	-0.000130
 963	9.5719e+01	1.6732	5.076698	0.000395	3.953226	1.339389	-0.000158
 964	9.5819e+01	1.6315	4.919250	0.000395	3.953226	1.339389	-0.000158
 965	9.5918e+01	1.5946	4.765839	0.000385	3.851862	1.305046	-0.000154
 966	9.6017e+01	1.5577	4.628576	0.000345	3.446403	1.167673	-0.000138
 967	9.6117e+01	1.5128	4.475165	0.000385	3.851862	1.305046	-0.000154
 968	9.6216e+01	1.4711	4.350014	0.000314	3.142308	1.064643	-0.000126
 969	9.6316e+01	1.4262	4.172380	0.000446	4.460050	1.511106	-0.000179
 970	9.6415e+01	1.3877	4.023006	0.000375	3.750497	1.270703	-0.000150
 971	9.6515e+01	1.3620	3.897855	0.000314	3.142308	1.064643	-0.000126
 972	9.6615e+01	1.3171	3.736369	0.000405	4.054591	1.373733	-0.000162
 973	9.6714e+01	1.2754	3.611218	0.000314	3.142308	1.064643	-0.000126
 974	9.6814e+01	1.2337	3.437621	0.000436	4.358686	1.476763	-0.000174
 975	9.6913e+01	1.1952	3.292284	0.000365	3.649132	1.236359	-0.000146
 976	9.7013e+01	1.1470	3.146947	0.000365	3.649132	1.236359	-0.000146
 977	9.7112e+01	1.1198	2.989499	0.000395	3.953226	1.339389	-0.000158
 978	9.7212e+01	1.0748	2.876459	0.000284	2.838214	0.961613	-0.000114
 979	9.7311e+01	1.0411	2.666528	0.000527	5.270969	1.785853	-0.000211
 980	9.7410e+01	0.9866	2.561563	0.000264	2.635484	0.892926	-0.000105
 981	9.7510e+01	0.9625	2.408151	0.000385	3.851862	1.305046	-0.000154
 982	9.7609e+01	0.9176	2.254740	0.000385	3.851862	1.305046	-0.000154
 983	9.7709e+01	0.8775	2.117478	0.000345	3.446403	1.167673	-0.000138
 984	9.7808e+01	0.8326	1.939844	0.000446	4.460050	1.511106	-0.000179
 985	9.7908e+01	0.7989	1.794507	0.000365	3.649132	1.236359	-0.000146
 986	9.8007e+01	0.7572	1.677430	0.000294	2.939579	0.995956	-0.000118
 987	9.8107e+01	0.7059	1.507870	0.000426	4.257321	1.442419	-0.000170
 988	9.8207e+01	0.6738	1.358496	0.000375	3.750497	1.270703	-0.000150
 989	9.8306e+01	0.6385	1.192974	0.000416	4.155956	1.408076	-0.000166
 990	9.8406e+01	0.5920	1.112231	0.000203	2.027296	0.686866	-0.000081
 991	9.8505e+01	0.5503	0.934597	0.000446	4.460050	1.511106	-0.000179
 992	9.8605e+01	0.5134	0.773111	0.000405	4.054591	1.373733	-0.000162
 993	9.8704e+01	0.4749	0.599515	0.000436	4.358686	1.476763	-0.000174
 994	9.8803e+01	0.4364	0.498586	0.000253	2.534120	0.858583	-0.000101
 995	9.8903e+01	0.4027	0.349212	0.000375	3.750497	1.270703	-0.000150
 996	9.9002e+01	0.3545	0.139281	0.000527	5.270969	1.785853	-0.000211
 997	9.9102e+01	0.3096	0.038353	0.000253	2.534120	0.858583	-0.000101
 998	9.9201e+01	0.2839	-0.094873	0.000335	3.345038	1.133329	-0.000134
 999	9.9301e+01	0.2358	-0.264432	0.000426	4.257321	1.442419	-0.000170
1000	9.9400e+01	0.1941	-0.417844	0.000385	3.851862	1.305046	-0.000154
1001	9.9500e+01	0.1476	-0.506661	0.000223	2.230025	0.755553	-0.000089
1002	9.9600e+01	0.1123	-0.684295	0.000446	4.460050	1.511106	-0.000179
1003	9.9699e+01	0.0770	-0.829631	0.000365	3.649132	1.236359	-0.000146
1004	9.9799e+01	0.0369	-0.966894	0.000345	3.446403	1.167673	-0.000138
1005	9.9898e+01	0.0160	-1.067822	0.000253	2.534120	0.858583	-0.000101
1006	9.9998e+01	-0.0385	-1.261605	0.000487	4.865509	1.648479	-0.000195
1007	1.0010e+02	-0.0754	-1.334273	0.000182	1.824566	0.618180	-0.000073
1008	1.0020e+02	-0.1203	-1.515944	0.000456	4.561415	1.545449	-0.000183
1009	1.0030e+02	-0.1540	-1.661281	0.000365	3.649132	1.236359	-0.000146
1010	1.0040e+02	-0.1893	-1.826804	0.000416	4.155956	1.408076	-0.000166
1011	1.0050e+02	-0.2278	-1.947918	0.000304	3.040943	1.030300	-0.000122
1012	1.0059e+02	-0.2791	-2.073069	0.000314	3.142308	1.064643	-0.000126
1013	1.0069e+02	-0.3080	-2.234555	0.000405	4.054591	1.373733	-0.000162
1014	1.0079e+02	-0.3529	-2.404114	0.000426	4.257321	1.442419	-0.000170
1015	1.0089e+02	-0.3850	-2.541377	0.000345	3.446403	1.167673	-0.000138
1016	1.0099e+02	-0.4251	-2.682677	0.000355	3.547767	1.202016	-0.000142
1017	1.0109e+02	-0.4749	-2.836088	0.000385	3.851862	1.305046	-0.000154
1018	1.0119e+02	-0.5166	-2.997573	0.000405	4.054591	1.373733	-0.000162
1019	1.0129e+02	-0.5503	-3.106576	0.000274	2.736849	0.927270	-0.000110
1020	1.0139e+02	-0.6016	-3.276136	0.000426	4.257321	1.442419	-0.000170
1021	1.0149e+02	-0.6369	-3.397250	0.000304	3.040943	1.030300	-0.000122
1022	1.0159e+02	-0.6786	-3.566809	0.000426	4.257321	1.442419	-0.000170
1023	1.0169e+02	-0.7059	-3.671775	0.000264	2.635484	0.892926	-0.000105
1024	1.0179e+02	-0.7492	-3.829223	0.000395	3.953226	1.339389	-0.000158
1025	1.0189e+02	-0.7861	-4.018969	0.000476	4.764145	1.614136	-0.000191
1026	1.0199e+02	-0.8262	-4.136046	0.000294	2.939579	0.995956	-0.000118
1027	1.0209e+02	-0.8711	-4.289457	0.000385	3.851862	1.305046	-0.000154
1028	1.0219e+02	-0.9064	-4.442868	0.000385	3.851862	1.305046	-0.000154
1029	1.0229e+02	-0.9593	-4.576093	0.000335	3.345038	1.133329	-0.000134
1030	1.0239e+02	-1.0042	-4.689133	0.000284	2.838214	0.961613	-0.000114
1031	1.0248e+02	-1.0411	-4.862730	0.000436	4.358686	1.476763	-0.000174
1032	1.0258e+02	-1.0732	-5.028253	0.000416	4.155956	1.408076	-0.000166
1033	1.0268e+02	-1.1149	-5.189738	0.000405	4.054591	1.373733	-0.000162
1034	1.0278e+02	-1.1470	-5.306815	0.000294	2.939579	0.995956	-0.000118
1035	1.0288e+02	-1.1935	-5.468300	0.000405	4.054591	1.373733	-0.000162
1036	1.0298e+02	-1.2272	-5.585377	0.000294	2.939579	0.995956	-0.000118
1037	1.0308e+02	-1.2561	-5.754937	0.000426	4.257321	1.442419	-0.000170
1038	1.0318e+02	-1.3074	-5.880088	0.000314	3.142308	1.064643	-0.000126
1039	1.0328e+02	-1.3524	-6.041574	0.000405	4.054591	1.373733	-0.000162
1040	1.0338e+02	-1.3845	-6.162688	0.000304	3.040943	1.030300	-0.000122
1041	1.0348e+02	-1.4294	-6.332247	0.000426	4.257321	1.442419	-0.000170
1042	1.0358e+02	-1.4807	-6.453361	0.000304	3.040943	1.030300	-0.000122
1043	1.0368e+02	-1.5080	-6.614847	0.000405	4.054591	1.373733	-0.000162
1044	1.0378e+02	-1.5593	-6.780369	0.000416	4.155956	1.408076	-0.000166
1045	1.0388e+02	-1.5850	-6.921669	0.000355	3.547767	1.202016	-0.000142
1046	1.0398e+02	-1.6235	-7.046820	0.000314	3.142308	1.064643	-0.000126
1047	1.0408e+02	-1.6636	-7.208306	0.000405	4.054591	1.373733	-0.000162
1048	1.0418e+02	-1.7053	-7.361717	0.000385	3.851862	1.305046	-0.000154
1049	1.0428e+02	-1.7518	-7.478794	0.000294	2.939579	0.995956	-0.000118
1050	1.0438e+02	-1.7775	-7.624131	0.000365	3.649132	1.236359	-0.000146
1051	1.0447e+02	-1.8304	-7.712948	0.000223	2.230025	0.755553	-0.000089
1052	1.0457e+02	-1.8689	-7.918842	0.000517	5.169604	1.751509	-0.000207
1053	1.0467e+02	-1.8994	-8.092439	0.000436	4.358686	1.476763	-0.000174
1054	1.0477e+02	-1.9459	-8.197404	0.000264	2.635484	0.892926	-0.000105
1055	1.0487e+02	-1.9876	-8.326592	0.000324	3.243673	1.098986	-0.000130
1056	1.0497e+02	-2.0310	-8.488078	0.000405	4.054591	1.373733	-0.000162
1057	1.0507e+02	-2.0759	-8.605155	0.000294	2.939579	0.995956	-0.000118
1058	1.0517e+02	-2.1015	-8.758566	0.000385	3.851862	1.305046	-0.000154
1059	1.0527e+02	-2.1465	-8.928126	0.000426	4.257321	1.442419	-0.000170
1060	1.0537e+02	-2.1866	-9.089611	0.000405	4.054591	1.373733	-0.000162
1061	1.0547e+02	-2.2219	-9.214762	0.000314	3.142308	1.064643	-0.000126
1062	1.0557e+02	-2.2700	-9.352025	0.000345	3.446403	1.167673	-0.000138
1063	1.0567e+02	-2.3181	-9.501399	0.000375	3.750497	1.270703	-0.000150
1064	1.0577e+02	-2.3374	-9.630587	0.000324	3.243673	1.098986	-0.000130
1065	1.0587e+02	-2.3855	-9.771887	0.000355	3.547767	1.202016	-0.000142
1066	1.0597e+02	-2.4320	-9.909150	0.000345	3.446403	1.167673	-0.000138
1067	1.0607e+02	-2.4673	-10.054487	0.000365	3.649132	1.236359	-0.000146
1068	1.0617e+02	-2.5074	-10.203861	0.000375	3.750497	1.270703	-0.000150
1069	1.0627e+02	-2.5539	-10.316900	0.000284	2.838214	0.961613	-0.000114
1070	1.0637e+02	-2.5924	-10.478386	0.000405	4.054591	1.373733	-0.000162
1071	1.0647e+02	-2.6358	-10.607574	0.000324	3.243673	1.098986	-0.000130
1072	1.0656e+02	-2.6630	-10.760985	0.000385	3.851862	1.305046	-0.000154
1073	1.0666e+02	-2.6999	-10.898248	0.000345	3.446403	1.167673	-0.000138
1074	1.0676e+02	-2.7416	-11.015325	0.000294	2.939579	0.995956	-0.000118
1075	1.0686e+02	-2.7769	-11.188922	0.000436	4.358686	1.476763	-0.000174
1076	1.0696e+02	-2.8218	-11.322147	0.000335	3.345038	1.133329	-0.000134
1077	1.0706e+02	-2.8636	-11.507855	0.000466	4.662780	1.579793	-0.000187
1078	1.0716e+02	-2.9021	-11.600710	0.000233	2.331390	0.789896	-0.000093
1079	1.0726e+02	-2.9406	-11.774306	0.000436	4.358686	1.476763	-0.000174
1080	1.0736e+02	-2.9839	-11.915606	0.000355	3.547767	1.202016	-0.000142
1081	1.0746e+02	-3.0224	-12.048832	0.000335	3.345038	1.133329	-0.000134
1082	1.0756e+02	-3.0657	-12.242614	0.000487	4.865509	1.648479	-0.000195
1083	1.0766e+02	-3.1154	-12.351617	0.000274	2.736849	0.927270	-0.000110
1084	1.0776e+02	-3.1459	-12.484842	0.000335	3.345038	1.133329	-0.000134
1085	1.0786e+02	-3.1844	-12.626142	0.000355	3.547767	1.202016	-0.000142
1086	1.0796e+02	-3.2245	-12.799739	0.000436	4.358686	1.476763	-0.000174
1087	1.0806e+02	-3.2598	-12.949113	0.000375	3.750497	1.270703	-0.000150
1088	1.0816e+02	-3.3047	-13.118673	0.000426	4.257321	1.442419	-0.000170
1089	1.0826e+02	-3.3416	-13.203452	0.000213	2.128660	0.721210	-0.000085
1090	1.0836e+02	-3.3785	-13.377049	0.000436	4.358686	1.476763	-0.000174
1091	1.0845e+02	-3.4218	-13.469903	0.000233	2.331390	0.789896	-0.000093
1092	1.0855e+02	-3.4603	-13.695983	0.000568	5.676428	1.923226	-0.000227
1093	1.0865e+02	-3.4956	-13.788837	0.000233	2.331390	0.789896	-0.000093
1094	1.0875e+02	-3.5438	-13.922063	0.000335	3.345038	1.133329	-0.000134
1095	1.0885e+02	-3.5839	-14.043177	0.000304	3.040943	1.030300	-0.000122
1096	1.0895e+02	-3.6208	-14.212736	0.000426	4.257321	1.442419	-0.000170
1097	1.0905e+02	-3.6689	-14.333850	0.000304	3.040943	1.030300	-0.000122
1098	1.0915e+02	-3.6962	-14.495336	0.000405	4.054591	1.373733	-0.000162
1099	1.0925e+02	-3.7475	-14.608376	0.000284	2.838214	0.961613	-0.000114
1100	1.0935e+02	-3.7812	-14.761787	0.000385	3.851862	1.305046	-0.000154
1101	1.0945e+02	-3.8229	-14.935384	0.000436	4.358686	1.476763	-0.000174
1102	1.0955e+02	-3.8534	-15.056498	0.000304	3.040943	1.030300	-0.000122
1103	1.0965e+02	-3.8983	-15.189723	0.000335	3.345038	1.133329	-0.000134
1104	1.0975e+02	-3.9448	-15.387543	0.000497	4.966874	1.682823	-0.000199
1105	1.0985e+02	-3.9881	-15.500583	0.000284	2.838214	0.961613	-0.000114
1106	1.0995e+02	-4.0186	-15.629771	0.000324	3.243673	1.098986	-0.000130
1107	1.1005e+02	-4.0619	-15.767034	0.000345	3.446403	1.167673	-0.000138
1108	1.1015e+02	-4.1004	-15.944668	0.000446	4.460050	1.511106	-0.000179
1109	1.1025e+02	-4.1389	-16.085967	0.000355	3.547767	1.202016	-0.000142
1110	1.1035e+02	-4.1806	-16.194970	0.000274	2.736849	0.927270	-0.000110
1111	1.1044e+02	-4.2159	-16.328195	0.000335	3.345038	1.133329	-0.000134
1112	1.1054e+02	-4.2528	-16.481607	0.000385	3.851862	1.305046	-0.000154
1113	1.1064e+02	-4.2945	-16.643092	0.000405	4.054591	1.373733	-0.000162
1114	1.1074e+02	-4.3378	-16.735946	0.000233	2.331390	0.789896	-0.000093
1115	1.1084e+02	-4.3763	-16.901469	0.000416	4.155956	1.408076	-0.000166
1116	1.1094e+02	-4.4132	-17.038731	0.000345	3.446403	1.167673	-0.000138
1117	1.1104e+02	-4.4501	-17.204254	0.000416	4.155956	1.408076	-0.000166
1118	1.1114e+02	-4.4967	-17.345554	0.000355	3.547767	1.202016	-0.000142
1119	1.1124e+02	-4.5368	-17.422259	0.000193	1.925931	0.652523	-0.000077
1120	1.1134e+02	-4.5705	-17.599893	0.000446	4.460050	1.511106	-0.000179
1121	1.1144e+02	-4.6170	-17.745230	0.000365	3.649132	1.236359	-0.000146
1122	1.1154e+02	-4.6539	-17.906716	0.000405	4.054591	1.373733	-0.000162
1123	1.1164e+02	-4.6908	-18.031867	0.000314	3.142308	1.064643	-0.000126
1124	1.1174e+02	-4.7325	-18.136832	0.000264	2.635484	0.892926	-0.000105
1125	1.1184e+02	-4.7726	-18.314466	0.000446	4.460050	1.511106	-0.000179
1126	1.1194e+02	-4.8127	-18.431543	0.000294	2.939579	0.995956	-0.000118
1127	1.1204e+02	-4.8624	-18.556694	0.000314	3.142308	1.064643	-0.000126
1128	1.1214e+02	-4.8993	-18.754514	0.000497	4.966874	1.682823	-0.000199
1129	1.1224e+02	-4.9298	-18.819108	0.000162	1.621836	0.549493	-0.000065
1130	1.1234e+02	-4.9763	-19.016928	0.000497	4.966874	1.682823	-0.000199
1131	1.1244e+02	-5.0164	-19.129968	0.000284	2.838214	0.961613	-0.000114
1132	1.1253e+02	-5.0549	-19.295490	0.000416	4.155956	1.408076	-0.000166
1133	1.1263e+02	-5.0950	-19.396419	0.000253	2.534120	0.858583	-0.000101
1134	1.1273e+02	-5.1416	-19.549830	0.000385	3.851862	1.305046	-0.000154
1135	1.1283e+02	-5.1769	-19.679018	0.000324	3.243673	1.098986	-0.000130
1136	1.1293e+02	-5.2186	-19.828392	0.000375	3.750497	1.270703	-0.000150
1137	1.1303e+02	-5.2507	-19.937395	0.000274	2.736849	0.927270	-0.000110
1138	1.1313e+02	-5.2892	-20.086769	0.000375	3.750497	1.270703	-0.000150
1139	1.1323e+02	-5.3357	-20.228069	0.000355	3.547767	1.202016	-0.000142
1140	1.1333e+02	-5.3726	-20.353220	0.000314	3.142308	1.064643	-0.000126
1141	1.1343e+02	-5.4111	-20.526817	0.000436	4.358686	1.476763	-0.000174
1142	1.1353e+02	-5.4512	-20.643894	0.000294	2.939579	0.995956	-0.000118
1143	1.1363e+02	-5.4865	-20.789230	0.000365	3.649132	1.236359	-0.000146
1144	1.1373e+02	-5.5314	-20.954753	0.000416	4.155956	1.408076	-0.000166
1145	1.1383e+02	-5.5667	-21.116238	0.000405	4.054591	1.373733	-0.000162
1146	1.1393e+02	-5.6132	-21.225241	0.000274	2.736849	0.927270	-0.000110
1147	1.1403e+02	-5.6565	-21.374615	0.000375	3.750497	1.270703	-0.000150
1148	1.1413e+02	-5.6966	-21.451321	0.000193	1.925931	0.652523	-0.000077
1149	1.1423e+02	-5.7287	-21.657215	0.000517	5.169604	1.751509	-0.000207
1150	1.1433e+02	-5.7704	-21.766217	0.000274	2.736849	0.927270	-0.000110
1151	1.1442e+02	-5.8073	-21.879257	0.000284	2.838214	0.961613	-0.000114
1152	1.1452e+02	-5.8619	-22.044780	0.000416	4.155956	1.408076	-0.000166
1153	1.1462e+02	-5.8843	-22.194154	0.000375	3.750497	1.270703	-0.000150
1154	1.1472e+02	-5.9308	-22.307194	0.000284	2.838214	0.961613	-0.000114
1155	1.1482e+02	-5.9694	-22.448493	0.000355	3.547767	1.202016	-0.000142
1156	1.1492e+02	-6.0062	-22.622090	0.000436	4.358686	1.476763	-0.000174
1157	1.1502e+02	-6.0464	-22.727056	0.000264	2.635484	0.892926	-0.000105
1158	1.1512e+02	-6.0913	-22.872393	0.000365	3.649132	1.236359	-0.000146
1159	1.1522e+02	-6.1282	-23.001581	0.000324	3.243673	1.098986	-0.000130
1160	1.1532e+02	-6.1699	-23.118658	0.000294	2.939579	0.995956	-0.000118
1161	1.1542e+02	-6.2068	-23.292255	0.000436	4.358686	1.476763	-0.000174
1162	1.1552e+02	-6.2549	-23.437592	0.000365	3.649132	1.236359	-0.000146
1163	1.1562e+02	-6.2934	-23.518334	0.000203	2.027296	0.686866	-0.000081
1164	1.1572e+02	-6.3319	-23.643485	0.000314	3.142308	1.064643	-0.000126
1165	1.1582e+02	-6.3865	-23.809008	0.000416	4.155956	1.408076	-0.000166
1166	1.1592e+02	-6.4121	-23.978568	0.000426	4.257321	1.442419	-0.000170
1167	1.1602e+02	-6.4474	-24.079496	0.000253	2.534120	0.858583	-0.000101
1168	1.1612e+02	-6.4811	-24.184462	0.000264	2.635484	0.892926	-0.000105
1169	1.1622e+02	-6.5260	-24.341910	0.000395	3.953226	1.339389	-0.000158
1170	1.1632e+02	-6.5597	-24.471098	0.000324	3.243673	1.098986	-0.000130
1171	1.1642e+02	-6.6014	-24.584138	0.000284	2.838214	0.961613	-0.000114
1172	1.1651e+02	-6.6624	-24.725438	0.000355	3.547767	1.202016	-0.000142
1173	1.1661e+02	-6.6880	-24.878849	0.000385	3.851862	1.305046	-0.000154
1174	1.1671e+02	-6.7201	-24.979777	0.000253	2.534120	0.858583	-0.000101
1175	1.1681e+02	-6.7586	-25.125114	0.000365	3.649132	1.236359	-0.000146
1176	1.1691e+02	-6.8036	-25.230080	0.000264	2.635484	0.892926	-0.000105
1177	1.1701e+02	-6.8437	-25.399639	0.000426	4.257321	1.442419	-0.000170
1178	1.1711e+02	-6.8822	-25.492494	0.000233	2.331390	0.789896	-0.000093
1179	1.1721e+02	-6.9239	-25.658016	0.000416	4.155956	1.408076	-0.000166
1180	1.1731e+02	-6.9704	-25.758945	0.000253	2.534120	0.858583	-0.000101
1181	1.1741e+02	-7.0137	-25.948690	0.000476	4.764145	1.614136	-0.000191
1182	1.1751e+02	-7.0394	-26.069804	0.000304	3.040943	1.030300	-0.000122
1183	1.1761e+02	-7.0939	-26.215141	0.000365	3.649132	1.236359	-0.000146
1184	1.1771e+02	-7.1260	-26.307995	0.000233	2.331390	0.789896	-0.000093
1185	1.1781e+02	-7.1581	-26.477555	0.000426	4.257321	1.442419	-0.000170
1186	1.1791e+02	-7.2046	-26.618854	0.000355	3.547767	1.202016	-0.000142
1187	1.1801e+02	-7.2431	-26.691523	0.000182	1.824566	0.618180	-0.000073
1188	1.1811e+02	-7.2784	-26.836860	0.000365	3.649132	1.236359	-0.000146
1189	1.1821e+02	-7.3281	-26.986234	0.000375	3.750497	1.270703	-0.000150
1190	1.1831e+02	-7.3602	-27.119459	0.000335	3.345038	1.133329	-0.000134
1191	1.1841e+02	-7.3987	-27.260759	0.000355	3.547767	1.202016	-0.000142
1192	1.1850e+02	-7.4404	-27.329390	0.000172	1.723201	0.583836	-0.000069
1193	1.1860e+02	-7.4870	-27.535284	0.000517	5.169604	1.751509	-0.000207
1194	1.1870e+02	-7.5271	-27.664473	0.000324	3.243673	1.098986	-0.000130
1195	1.1880e+02	-7.5624	-27.805772	0.000355	3.547767	1.202016	-0.000142
1196	1.1890e+02	-7.6073	-27.943035	0.000345	3.446403	1.167673	-0.000138
1197	1.1900e+02	-7.6426	-28.039926	0.000243	2.432755	0.824240	-0.000097
1198	1.1910e+02	-7.6907	-28.197375	0.000395	3.953226	1.339389	-0.000158
1199	1.1920e+02	-7.7132	-28.314451	0.000294	2.939579	0.995956	-0.000118
1200	1.1930e+02	-7.7581	-28.435566	0.000304	3.040943	1.030300	-0.000122
1201	1.1940e+02	-7.7998	-28.584940	0.000375	3.750497	1.270703	-0.000150
1202	1.1950e+02	-7.8367	-28.718165	0.000335	3.345038	1.133329	-0.000134
1203	1.1960e+02	-7.8720	-28.815056	0.000243	2.432755	0.824240	-0.000097
1204	1.1970e+02	-7.9153	-28.976542	0.000405	4.054591	1.373733	-0.000162
1205	1.1980e+02	-7.9586	-29.142064	0.000416	4.155956	1.408076	-0.000166
1206	1.1990e+02	-8.0019	-29.182436	0.000101	1.013648	0.343433	-0.000041
1207	1.2000e+02	-8.0452	-29.331810	0.000375	3.750497	1.270703	-0.000150
1208	1.2010e+02	-8.0773	-29.497332	0.000416	4.155956	1.408076	-0.000166
1209	1.2020e+02	-8.1174	-29.626521	0.000324	3.243673	1.098986	-0.000130
1210	1.2030e+02	-8.1671	-29.751672	0.000314	3.142308	1.064643	-0.000126
1211	1.2039e+02	-8.1976	-29.884897	0.000335	3.345038	1.133329	-0.000134
1212	1.2049e+02	-8.2442	-29.985826	0.000253	2.534120	0.858583	-0.000101
1213	1.2059e+02	-8.2810	-30.139237	0.000385	3.851862	1.305046	-0.000154
1214	1.2069e+02	-8.3212	-30.252277	0.000284	2.838214	0.961613	-0.000114
1215	1.2079e+02	-8.3597	-30.405688	0.000385	3.851862	1.305046	-0.000154
1216	1.2089e+02	-8.3966	-30.514690	0.000274	2.736849	0.927270	-0.000110
1217	1.2099e+02	-8.4383	-30.631767	0.000294	2.939579	0.995956	-0.000118
1218	1.2109e+02	-8.4864	-30.793253	0.000405	4.054591	1.373733	-0.000162
1219	1.2119e+02	-8.5201	-30.926478	0.000335	3.345038	1.133329	-0.000134
1220	1.2129e+02	-8.5586	-31.031444	0.000264	2.635484	0.892926	-0.000105
1221	1.2139e+02	-8.6099	-31.217152	0.000466	4.662780	1.579793	-0.000187
1222	1.2149e+02	-8.6388	-31.314043	0.000243	2.432755	0.824240	-0.000097
1223	1.2159e+02	-8.6885	-31.471492	0.000395	3.953226	1.339389	-0.000158
1224	1.2169e+02	-8.7222	-31.568383	0.000243	2.432755	0.824240	-0.000097
1225	1.2179e+02	-8.7543	-31.697571	0.000324	3.243673	1.098986	-0.000130
1226	1.2189e+02	-8.7864	-31.806574	0.000274	2.736849	0.927270	-0.000110
1227	1.2199e+02	-8.8361	-31.964022	0.000395	3.953226	1.339389	-0.000158
1228	1.2209e+02	-8.8762	-32.089173	0.000314	3.142308	1.064643	-0.000126
1229	1.2219e+02	-8.9179	-32.218362	0.000324	3.243673	1.098986	-0.000130
1230	1.2229e+02	-8.9548	-32.351587	0.000335	3.345038	1.133329	-0.000134
1231	1.2239e+02	-8.9981	-32.484813	0.000335	3.345038	1.133329	-0.000134
1232	1.2248e+02	-9.0350	-32.634187	0.000375	3.750497	1.270703	-0.000150
1233	1.2258e+02	-9.0767	-32.751264	0.000294	2.939579	0.995956	-0.000118
1234	1.2268e+02	-9.1281	-32.852192	0.000253	2.534120	0.858583	-0.000101
1235	1.2278e+02	-9.1586	-32.989455	0.000345	3.446403	1.167673	-0.000138
1236	1.2288e+02	-9.1971	-33.110569	0.000304	3.040943	1.030300	-0.000122
1237	1.2298e+02	-9.2436	-33.268017	0.000395	3.953226	1.339389	-0.000158
1238	1.2308e+02	-9.2789	-33.360871	0.000233	2.331390	0.789896	-0.000093
1239	1.2318e+02	-9.3158	-33.494097	0.000335	3.345038	1.133329	-0.000134
1240	1.2328e+02	-9.3527	-33.615211	0.000304	3.040943	1.030300	-0.000122
1241	1.2338e+02	-9.3896	-33.752473	0.000345	3.446403	1.167673	-0.000138
1242	1.2348e+02	-9.4377	-33.857439	0.000264	2.635484	0.892926	-0.000105
1243	1.2358e+02	-9.4762	-33.986627	0.000324	3.243673	1.098986	-0.000130
1244	1.2368e+02	-9.5099	-34.111778	0.000314	3.142308	1.064643	-0.000126
1245	1.2378e+02	-9.5596	-34.293450	0.000456	4.561415	1.545449	-0.000183
1246	1.2388e+02	-9.5949	-34.358044	0.000162	1.621836	0.549493	-0.000065
1247	1.2398e+02	-9.6382	-34.543752	0.000466	4.662780	1.579793	-0.000187
1248	1.2408e+02	-9.6671	-34.624495	0.000203	2.027296	0.686866	-0.000081
1249	1.2418e+02	-9.7072	-34.790017	0.000416	4.155956	1.408076	-0.000166
1250	1.2428e+02	-9.7537	-34.894983	0.000264	2.635484	0.892926	-0.000105
1251	1.2438e+02	-9.7938	-35.012060	0.000294	2.939579	0.995956	-0.000118
1252	1.2447e+02	-9.8291	-35.173545	0.000405	4.054591	1.373733	-0.000162
1253	1.2457e+02	-9.8724	-35.322919	0.000375	3.750497	1.270703	-0.000150
1254	1.2467e+02	-9.9126	-35.460182	0.000345	3.446403	1.167673	-0.000138
1255	1.2477e+02	-9.9527	-35.565147	0.000264	2.635484	0.892926	-0.000105
1256	1.2487e+02	-9.9976	-35.678187	0.000284	2.838214	0.961613	-0.000114
1257	1.2497e+02	-10.0313	-35.823524	0.000365	3.649132	1.236359	-0.000146
1258	1.2507e+02	-10.0746	-35.940601	0.000294	2.939579	0.995956	-0.000118
1259	1.2517e+02	-10.1115	-36.037492	0.000243	2.432755	0.824240	-0.000097
1260	1.2527e+02	-10.1516	-36.207052	0.000426	4.257321	1.442419	-0.000170
1261	1.2537e+02	-10.1949	-36.303943	0.000243	2.432755	0.824240	-0.000097
1262	1.2547e+02	-10.2350	-36.421020	0.000294	2.939579	0.995956	-0.000118
1263	1.2557e+02	-10.2687	-36.562320	0.000355	3.547767	1.202016	-0.000142
1264	1.2567e+02	-10.3104	-36.683434	0.000304	3.040943	1.030300	-0.000122
1265	1.2577e+02	-10.3553	-36.812622	0.000324	3.243673	1.098986	-0.000130
1266	1.2587e+02	-10.3906	-36.982182	0.000426	4.257321	1.442419	-0.000170
1267	1.2597e+02	-10.4323	-37.103296	0.000304	3.040943	1.030300	-0.000122
1268	1.2607e+02	-10.4596	-37.204224	0.000253	2.534120	0.858583	-0.000101
1269	1.2617e+02	-10.5190	-37.289004	0.000213	2.128660	0.721210	-0.000085
1270	1.2627e+02	-10.5494	-37.410118	0.000304	3.040943	1.030300	-0.000122
1271	1.2636e+02	-10.5847	-37.543344	0.000335	3.345038	1.133329	-0.000134
1272	1.2646e+02	-10.6345	-37.684644	0.000355	3.547767	1.202016	-0.000142
1273	1.2656e+02	-10.6762	-37.805758	0.000304	3.040943	1.030300	-0.000122
1274	1.2666e+02	-10.7066	-37.975317	0.000426	4.257321	1.442419	-0.000170
1275	1.2676e+02	-10.7468	-38.124691	0.000375	3.750497	1.270703	-0.000150
1276	1.2686e+02	-10.7869	-38.177174	0.000132	1.317742	0.446463	-0.000053
1277	1.2696e+02	-10.8254	-38.314437	0.000345	3.446403	1.167673	-0.000138
1278	1.2706e+02	-10.8719	-38.447662	0.000335	3.345038	1.133329	-0.000134
1279	1.2716e+02	-10.9040	-38.536479	0.000223	2.230025	0.755553	-0.000089
1280	1.2726e+02	-10.9441	-38.722187	0.000466	4.662780	1.579793	-0.000187
1281	1.2736e+02	-10.9906	-38.815042	0.000233	2.331390	0.789896	-0.000093
1282	1.2746e+02	-11.0323	-38.976527	0.000405	4.054591	1.373733	-0.000162
1283	1.2756e+02	-11.0740	-39.097641	0.000304	3.040943	1.030300	-0.000122
1284	1.2766e+02	-11.1077	-39.226829	0.000324	3.243673	1.098986	-0.000130
1285	1.2776e+02	-11.1494	-39.323721	0.000243	2.432755	0.824240	-0.000097
1286	1.2786e+02	-11.1943	-39.469058	0.000365	3.649132	1.236359	-0.000146
1287	1.2796e+02	-11.2248	-39.565949	0.000243	2.432755	0.824240	-0.000097
1288	1.2806e+02	-11.2633	-39.723397	0.000395	3.953226	1.339389	-0.000158
1289	1.2816e+02	-11.3147	-39.832400	0.000274	2.736849	0.927270	-0.000110
1290	1.2826e+02	-11.3532	-39.921217	0.000223	2.230025	0.755553	-0.000089
1291	1.2835e+02	-11.3917	-40.070591	0.000375	3.750497	1.270703	-0.000150
1292	1.2845e+02	-11.4253	-40.195742	0.000314	3.142308	1.064643	-0.000126
1293	1.2855e+02	-11.4655	-40.300708	0.000264	2.635484	0.892926	-0.000105
1294	1.2865e+02	-11.5056	-40.450082	0.000375	3.750497	1.270703	-0.000150
1295	1.2875e+02	-11.5473	-40.579270	0.000324	3.243673	1.098986	-0.000130
1296	1.2885e+02	-11.5858	-40.684235	0.000264	2.635484	0.892926	-0.000105
1297	1.2895e+02	-11.6162	-40.789201	0.000264	2.635484	0.892926	-0.000105
1298	1.2905e+02	-11.6596	-40.926464	0.000345	3.446403	1.167673	-0.000138
1299	1.2915e+02	-11.7141	-41.063726	0.000345	3.446403	1.167673	-0.000138
1300	1.2925e+02	-11.7542	-41.209063	0.000365	3.649132	1.236359	-0.000146
1301	1.2935e+02	-11.7927	-41.261546	0.000132	1.317742	0.446463	-0.000053
1302	1.2945e+02	-11.8328	-41.439180	0.000446	4.460050	1.511106	-0.000179
1303	1.2955e+02	-11.8761	-41.564331	0.000314	3.142308	1.064643	-0.000126
1304	1.2965e+02	-11.9050	-41.673334	0.000274	2.736849	0.927270	-0.000110
1305	1.2975e+02	-11.9403	-41.806559	0.000335	3.345038	1.133329	-0.000134
1306	1.2985e+02	-11.9772	-41.903450	0.000243	2.432755	0.824240	-0.000097
1307	1.2995e+02	-12.0189	-42.028602	0.000314	3.142308	1.064643	-0.000126
1308	1.3005e+02	-12.0670	-42.165864	0.000345	3.446403	1.167673	-0.000138
1309	1.3015e+02	-12.0991	-42.291015	0.000314	3.142308	1.064643	-0.000126
1310	1.3025e+02	-12.1456	-42.412129	0.000304	3.040943	1.030300	-0.000122
1311	1.3034e+02	-12.1777	-42.517095	0.000264	2.635484	0.892926	-0.000105
1312	1.3044e+02	-12.2194	-42.646283	0.000324	3.243673	1.098986	-0.000130
1313	1.3054e+02	-12.2644	-42.763360	0.000294	2.939579	0.995956	-0.000118
1314	1.3064e+02	-12.3093	-42.916771	0.000385	3.851862	1.305046	-0.000154
1315	1.3074e+02	-12.3430	-42.981366	0.000162	1.621836	0.549493	-0.000065
1316	1.3084e+02	-12.3799	-43.122665	0.000355	3.547767	1.202016	-0.000142
1317	1.3094e+02	-12.4264	-43.268002	0.000365	3.649132	1.236359	-0.000146
1318	1.3104e+02	-12.4681	-43.385079	0.000294	2.939579	0.995956	-0.000118
1319	1.3114e+02	-12.5066	-43.477933	0.000233	2.331390	0.789896	-0.000093
1320	1.3124e+02	-12.5435	-43.639419	0.000405	4.054591	1.373733	-0.000162
1321	1.3134e+02	-12.5852	-43.716124	0.000193	1.925931	0.652523	-0.000077
1322	1.3144e+02	-12.6253	-43.881647	0.000416	4.155956	1.408076	-0.000166
1323	1.3154e+02	-12.6654	-43.990650	0.000274	2.736849	0.927270	-0.000110
1324	1.3164e+02	-12.6991	-44.152135	0.000405	4.054591	1.373733	-0.000162
1325	1.3174e+02	-12.7360	-44.236915	0.000213	2.128660	0.721210	-0.000085
1326	1.3184e+02	-12.7857	-44.333806	0.000243	2.432755	0.824240	-0.000097
1327	1.3194e+02	-12.8210	-44.515477	0.000456	4.561415	1.545449	-0.000183
1328	1.3204e+02	-12.8547	-44.604294	0.000223	2.230025	0.755553	-0.000089
1329	1.3214e+02	-12.8964	-44.717334	0.000284	2.838214	0.961613	-0.000114
1330	1.3224e+02	-12.9349	-44.842485	0.000314	3.142308	1.064643	-0.000126
1331	1.3234e+02	-12.9798	-44.907079	0.000162	1.621836	0.549493	-0.000065
1332	1.3243e+02	-13.0183	-45.060491	0.000385	3.851862	1.305046	-0.000154
1333	1.3253e+02	-13.0520	-45.185642	0.000314	3.142308	1.064643	-0.000126
1334	1.3263e+02	-13.1002	-45.330979	0.000365	3.649132	1.236359	-0.000146
1335	1.3273e+02	-13.1403	-45.411721	0.000203	2.027296	0.686866	-0.000081
1336	1.3283e+02	-13.1708	-45.536873	0.000314	3.142308	1.064643	-0.000126
1337	1.3293e+02	-13.2221	-45.682209	0.000365	3.649132	1.236359	-0.000146
1338	1.3303e+02	-13.2526	-45.758915	0.000193	1.925931	0.652523	-0.000077
1339	1.3313e+02	-13.2975	-45.880029	0.000304	3.040943	1.030300	-0.000122
1340	1.3323e+02	-13.3424	-45.952698	0.000182	1.824566	0.618180	-0.000073
1341	1.3333e+02	-13.3777	-46.118220	0.000416	4.155956	1.408076	-0.000166
1342	1.3343e+02	-13.4178	-46.231260	0.000284	2.838214	0.961613	-0.000114
1343	1.3353e+02	-13.4611	-46.364485	0.000335	3.345038	1.133329	-0.000134
1344	1.3363e+02	-13.5044	-46.513859	0.000375	3.750497	1.270703	-0.000150
1345	1.3373e+02	-13.5333	-46.590565	0.000193	1.925931	0.652523	-0.000077
1346	1.3383e+02	-13.5718	-46.752050	0.000405	4.054591	1.373733	-0.000162
1347	1.3393e+02	-13.6231	-46.832793	0.000203	2.027296	0.686866	-0.000081
1348	1.3403e+02	-13.6633	-46.885276	0.000132	1.317742	0.446463	-0.000053
1349	1.3413e+02	-13.7001	-47.070984	0.000466	4.662780	1.579793	-0.000187
1350	1.3423e+02	-13.7386	-47.163838	0.000233	2.331390	0.789896	-0.000093
1351	1.3432e+02	-13.7788	-47.305138	0.000355	3.547767	1.202016	-0.000142
1352	1.3442e+02	-13.8108	-47.422215	0.000294	2.939579	0.995956	-0.000118
1353	1.3452e+02	-13.8622	-47.543329	0.000304	3.040943	1.030300	-0.000122
1354	1.3462e+02	-13.8911	-47.628109	0.000213	2.128660	0.721210	-0.000085
1355	1.3472e+02	-13.9344	-47.769409	0.000355	3.547767	1.202016	-0.000142
1356	1.3482e+02	-13.9809	-47.842077	0.000182	1.824566	0.618180	-0.000073
1357	1.3492e+02	-14.0098	-48.011637	0.000426	4.257321	1.442419	-0.000170
1358	1.3502e+02	-14.0547	-48.104491	0.000233	2.331390	0.789896	-0.000093
1359	1.3512e+02	-14.0980	-48.221568	0.000294	2.939579	0.995956	-0.000118
1360	1.3522e+02	-14.1381	-48.350756	0.000324	3.243673	1.098986	-0.000130
1361	1.3532e+02	-14.1830	-48.479945	0.000324	3.243673	1.098986	-0.000130
1362	1.3542e+02	-14.2215	-48.580873	0.000253	2.534120	0.858583	-0.000101
1363	1.3552e+02	-14.2488	-48.681801	0.000253	2.534120	0.858583	-0.000101
1364	1.3562e+02	-14.2905	-48.835212	0.000385	3.851862	1.305046	-0.000154
1365	1.3572e+02	-14.3370	-48.972475	0.000345	3.446403	1.167673	-0.000138
1366	1.3582e+02	-14.3836	-49.033032	0.000152	1.520472	0.515150	-0.000061
1367	1.3592e+02	-14.4204	-49.166258	0.000335	3.345038	1.133329	-0.000134
1368	1.3602e+02	-14.4509	-49.271223	0.000264	2.635484	0.892926	-0.000105
1369	1.3612e+02	-14.4975	-49.408486	0.000345	3.446403	1.167673	-0.000138
1370	1.3622e+02	-14.5376	-49.561897	0.000385	3.851862	1.305046	-0.000154
1371	1.3631e+02	-14.5761	-49.578045	0.000041	0.405459	0.137373	-0.000016
1372	1.3641e+02	-14.6146	-49.719345	0.000355	3.547767	1.202016	-0.000142
1373	1.3651e+02	-14.6547	-49.880831	0.000405	4.054591	1.373733	-0.000162
1374	1.3661e+02	-14.7012	-49.957536	0.000193	1.925931	0.652523	-0.000077
1375	1.3671e+02	-14.7317	-50.114984	0.000395	3.953226	1.339389	-0.000158
1376	1.3681e+02	-14.7766	-50.228024	0.000284	2.838214	0.961613	-0.000114
1377	1.3691e+02	-14.8183	-50.357213	0.000324	3.243673	1.098986	-0.000130
1378	1.3701e+02	-14.8568	-50.462178	0.000264	2.635484	0.892926	-0.000105
1379	1.3711e+02	-14.8873	-50.575218	0.000284	2.838214	0.961613	-0.000114
1380	1.3721e+02	-14.9306	-50.672109	0.000243	2.432755	0.824240	-0.000097
1381	1.3731e+02	-14.9691	-50.797260	0.000314	3.142308	1.064643	-0.000126
1382	1.3741e+02	-15.0124	-50.918374	0.000304	3.040943	1.030300	-0.000122
1383	1.3751e+02	-15.0557	-51.043526	0.000314	3.142308	1.064643	-0.000126
1384	1.3761e+02	-15.0926	-51.152528	0.000274	2.736849	0.927270	-0.000110
1385	1.3771e+02	-15.1359	-51.273642	0.000304	3.040943	1.030300	-0.000122
1386	1.3781e+02	-15.1696	-51.366497	0.000233	2.331390	0.789896	-0.000093
1387	1.3791e+02	-15.2145	-51.487611	0.000304	3.040943	1.030300	-0.000122
1388	1.3801e+02	-15.2418	-51.624873	0.000345	3.446403	1.167673	-0.000138
1389	1.3811e+02	-15.2915	-51.725802	0.000253	2.534120	0.858583	-0.000101
1390	1.3821e+02	-15.3317	-51.810581	0.000213	2.128660	0.721210	-0.000085
1391	1.3831e+02	-15.3718	-51.935733	0.000314	3.142308	1.064643	-0.000126
1392	1.3840e+02	-15.4103	-52.060884	0.000314	3.142308	1.064643	-0.000126
1393	1.3850e+02	-15.4632	-52.198147	0.000345	3.446403	1.167673	-0.000138
1394	1.3860e+02	-15.4857	-52.291001	0.000233	2.331390	0.789896	-0.000093
1395	1.3870e+02	-15.5290	-52.408078	0.000294	2.939579	0.995956	-0.000118
1396	1.3880e+02	-15.5723	-52.525155	0.000294	2.939579	0.995956	-0.000118
1397	1.3890e+02	-15.6108	-52.666454	0.000355	3.547767	1.202016	-0.000142
1398	1.3900e+02	-15.6445	-52.755271	0.000223	2.230025	0.755553	-0.000089
1399	1.3910e+02	-15.6894	-52.860237	0.000264	2.635484	0.892926	-0.000105
1400	1.3920e+02	-15.7375	-52.993462	0.000335	3.345038	1.133329	-0.000134
1401	1.3930e+02	-15.7600	-53.094391	0.000253	2.534120	0.858583	-0.000101
1402	1.3940e+02	-15.8001	-53.175133	0.000203	2.027296	0.686866	-0.000081
1403	1.3950e+02	-15.8466	-53.300285	0.000314	3.142308	1.064643	-0.000126
1404	1.3960e+02	-15.8851	-53.437547	0.000345	3.446403	1.167673	-0.000138
1405	1.3970e+02	-15.9316	-53.578847	0.000355	3.547767	1.202016	-0.000142
1406	1.3980e+02	-15.9621	-53.667664	0.000223	2.230025	0.755553	-0.000089
1407	1.3990e+02	-16.0118	-53.756481	0.000223	2.230025	0.755553	-0.000089
1408	1.4000e+02	-16.0391	-53.897781	0.000355	3.547767	1.202016	-0.000142
1409	1.4010e+02	-16.0840	-53.998709	0.000253	2.534120	0.858583	-0.000101
1410	1.4020e+02	-16.1257	-54.127897	0.000324	3.243673	1.098986	-0.000130
1411	1.4029e+02	-16.1642	-54.232863	0.000264	2.635484	0.892926	-0.000105
1412	1.4039e+02	-16.2140	-54.366088	0.000335	3.345038	1.133329	-0.000134
1413	1.4049e+02	-16.2396	-54.450868	0.000213	2.128660	0.721210	-0.000085
1414	1.4059e+02	-16.2942	-54.559871	0.000274	2.736849	0.927270	-0.000110
1415	1.4069e+02	-16.3231	-54.676948	0.000294	2.939579	0.995956	-0.000118
1416	1.4079e+02	-16.3568	-54.806136	0.000324	3.243673	1.098986	-0.000130
1417	1.4089e+02	-16.4033	-54.927250	0.000304	3.040943	1.030300	-0.000122
1418	1.4099e+02	-16.4482	-55.044327	0.000294	2.939579	0.995956	-0.000118
1419	1.4109e+02	-16.4835	-55.181590	0.000345	3.446403	1.167673	-0.000138
1420	1.4119e+02	-16.5236	-55.262333	0.000203	2.027296	0.686866	-0.000081
1421	1.4129e+02	-16.5621	-55.415744	0.000385	3.851862	1.305046	-0.000154
1422	1.4139e+02	-16.6070	-55.512635	0.000243	2.432755	0.824240	-0.000097
1423	1.4149e+02	-16.6551	-55.645860	0.000335	3.345038	1.133329	-0.000134
1424	1.4159e+02	-16.6888	-55.754863	0.000274	2.736849	0.927270	-0.000110
1425	1.4169e+02	-16.7257	-55.811383	0.000142	1.419107	0.480806	-0.000057
1426	1.4179e+02	-16.7594	-55.989017	0.000446	4.460050	1.511106	-0.000179
1427	1.4189e+02	-16.8043	-56.089945	0.000253	2.534120	0.858583	-0.000101
1428	1.4199e+02	-16.8444	-56.194911	0.000264	2.635484	0.892926	-0.000105
1429	1.4209e+02	-16.8894	-56.311988	0.000294	2.939579	0.995956	-0.000118
1430	1.4219e+02	-16.9247	-56.445213	0.000335	3.345038	1.133329	-0.000134
1431	1.4228e+02	-16.9583	-56.513845	0.000172	1.723201	0.583836	-0.000069
1432	1.4238e+02	-16.9936	-56.691479	0.000446	4.460050	1.511106	-0.000179
1433	1.4248e+02	-17.0418	-56.780296	0.000223	2.230025	0.755553	-0.000089
1434	1.4258e+02	-17.0835	-56.905447	0.000314	3.142308	1.064643	-0.000126
1435	1.4268e+02	-17.1300	-57.014449	0.000274	2.736849	0.927270	-0.000110
1436	1.4278e+02	-17.1589	-57.119415	0.000264	2.635484	0.892926	-0.000105
1437	1.4288e+02	-17.2006	-57.240529	0.000304	3.040943	1.030300	-0.000122
1438	1.4298e+02	-17.2423	-57.357606	0.000294	2.939579	0.995956	-0.000118
1439	1.4308e+02	-17.2840	-57.458534	0.000253	2.534120	0.858583	-0.000101
1440	1.4318e+02	-17.3241	-57.591760	0.000335	3.345038	1.133329	-0.000134
1441	1.4328e+02	-17.3594	-57.716911	0.000314	3.142308	1.064643	-0.000126
1442	1.4338e+02	-17.3931	-57.801691	0.000213	2.128660	0.721210	-0.000085
1443	1.4348e+02	-17.4428	-57.955102	0.000385	3.851862	1.305046	-0.000154
1444	1.4358e+02	-17.4733	-58.031808	0.000193	1.925931	0.652523	-0.000077
1445	1.4368e+02	-17.5182	-58.152922	0.000304	3.040943	1.030300	-0.000122
1446	1.4378e+02	-17.5680	-58.257887	0.000264	2.635484	0.892926	-0.000105
1447	1.4388e+02	-17.5968	-58.411298	0.000385	3.851862	1.305046	-0.000154
1448	1.4398e+02	-17.6401	-58.512227	0.000253	2.534120	0.858583	-0.000101
1449	1.4408e+02	-17.6867	-58.633341	0.000304	3.040943	1.030300	-0.000122
1450	1.4418e+02	-17.7171	-58.770604	0.000345	3.446403	1.167673	-0.000138
1451	1.4428e+02	-17.7621	-58.859420	0.000223	2.230025	0.755553	-0.000089
1452	1.4437e+02	-17.8022	-59.020906	0.000405	4.054591	1.373733	-0.000162
1453	1.4447e+02	-17.8359	-59.093574	0.000182	1.824566	0.618180	-0.000073
1454	1.4457e+02	-17.8824	-59.251023	0.000395	3.953226	1.339389	-0.000158
1455	1.4467e+02	-17.9305	-59.327728	0.000193	1.925931	0.652523	-0.000077
1456	1.4477e+02	-17.9658	-59.452879	0.000314	3.142308	1.064643	-0.000126
1457	1.4487e+02	-18.0027	-59.573994	0.000304	3.040943	1.030300	-0.000122
1458	1.4497e+02	-18.0412	-59.695108	0.000304	3.040943	1.030300	-0.000122
1459	1.4507e+02	-18.0765	-59.779887	0.000213	2.128660	0.721210	-0.000085
1460	1.4517e+02	-18.1262	-59.913113	0.000335	3.345038	1.133329	-0.000134
1461	1.4527e+02	-18.1599	-60.074598	0.000405	4.054591	1.373733	-0.000162
1462	1.4537e+02	-18.2032	-60.191675	0.000294	2.939579	0.995956	-0.000118
1463	1.4547e+02	-18.2433	-60.288567	0.000243	2.432755	0.824240	-0.000097
1464	1.4557e+02	-18.2818	-60.429866	0.000355	3.547767	1.202016	-0.000142
1465	1.4567e+02	-18.3187	-60.534832	0.000264	2.635484	0.892926	-0.000105
1466	1.4577e+02	-18.3588	-60.664020	0.000324	3.243673	1.098986	-0.000130
1467	1.4587e+02	-18.4006	-60.805320	0.000355	3.547767	1.202016	-0.000142
1468	1.4597e+02	-18.4374	-60.970842	0.000416	4.155956	1.408076	-0.000166
1469	1.4607e+02	-18.4792	-61.039474	0.000172	1.723201	0.583836	-0.000069
1470	1.4617e+02	-18.5145	-61.156551	0.000294	2.939579	0.995956	-0.000118
1471	1.4626e+02	-18.5562	-61.289776	0.000335	3.345038	1.133329	-0.000134
1472	1.4636e+02	-18.5931	-61.410890	0.000304	3.040943	1.030300	-0.000122
1473	1.4646e+02	-18.6396	-61.548153	0.000345	3.446403	1.167673	-0.000138
1474	1.4656e+02	-18.6813	-61.705601	0.000395	3.953226	1.339389	-0.000158
1475	1.4666e+02	-18.7198	-61.826715	0.000304	3.040943	1.030300	-0.000122
1476	1.4676e+02	-18.7471	-61.895347	0.000172	1.723201	0.583836	-0.000069
1477	1.4686e+02	-18.8016	-62.064906	0.000426	4.257321	1.442419	-0.000170
1478	1.4696e+02	-18.8417	-62.157760	0.000233	2.331390	0.789896	-0.000093
1479	1.4706e+02	-18.8786	-62.315209	0.000395	3.953226	1.339389	-0.000158
1480	1.4716e+02	-18.9107	-62.476694	0.000405	4.054591	1.373733	-0.000162
1481	1.4726e+02	-18.9636	-62.585697	0.000274	2.736849	0.927270	-0.000110
1482	1.4736e+02	-18.9941	-62.731034	0.000365	3.649132	1.236359	-0.000146
1483	1.4746e+02	-19.0390	-62.864259	0.000335	3.345038	1.133329	-0.000134
1484	1.4756e+02	-19.0695	-62.973262	0.000274	2.736849	0.927270	-0.000110
1485	1.4766e+02	-19.1064	-63.130710	0.000395	3.953226	1.339389	-0.000158
1486	1.4776e+02	-19.1481	-63.227601	0.000243	2.432755	0.824240	-0.000097
1487	1.4786e+02	-19.1946	-63.421384	0.000487	4.865509	1.648479	-0.000195
1488	1.4796e+02	-19.2396	-63.554609	0.000335	3.345038	1.133329	-0.000134
1489	1.4806e+02	-19.2700	-63.712058	0.000395	3.953226	1.339389	-0.000158
1490	1.4816e+02	-19.3214	-63.829135	0.000294	2.939579	0.995956	-0.000118
1491	1.4825e+02	-19.3503	-63.962360	0.000335	3.345038	1.133329	-0.000134
1492	1.4835e+02	-19.3855	-64.111734	0.000375	3.750497	1.270703	-0.000150
1493	1.4845e+02	-19.4321	-64.285331	0.000436	4.358686	1.476763	-0.000174
1494	1.4855e+02	-19.4722	-64.390296	0.000264	2.635484	0.892926	-0.000105
1495	1.4865e+02	-19.5219	-64.507373	0.000294	2.939579	0.995956	-0.000118
1496	1.4875e+02	-19.5524	-64.693082	0.000466	4.662780	1.579793	-0.000187
1497	1.4885e+02	-19.6021	-64.850530	0.000395	3.953226	1.339389	-0.000158
1498	1.4895e+02	-19.6326	-64.991830	0.000355	3.547767	1.202016	-0.000142
1499	1.4905e+02	-19.6743	-65.153315	0.000405	4.054591	1.373733	-0.000162
1500	1.4915e+02	-19.6984	-65.314801	0.000405	4.054591	1.373733	-0.000162
1501	1.4925e+02	-19.7577	-65.468212	0.000385	3.851862	1.305046	-0.000154
1502	1.4935e+02	-19.7930	-65.605474	0.000345	3.446403	1.167673	-0.000138
1503	1.4945e+02	-19.8476	-65.734663	0.000324	3.243673	1.098986	-0.000130
1504	1.4955e+02	-19.8668	-65.916334	0.000456	4.561415	1.545449	-0.000183
1505	1.4965e+02	-19.9166	-66.081856	0.000416	4.155956	1.408076	-0.000166
1506	1.4975e+02	-19.9486	-66.202970	0.000304	3.040943	1.030300	-0.000122
1507	1.4985e+02	-19.9952	-66.388679	0.000466	4.662780	1.579793	-0.000187
1508	1.4995e+02	-19.9567	-66.340233	0.000122	1.216377	0.412120	0.000049
1509	1.5005e+02	-19.9198	-66.324084	0.000041	0.405459	0.137373	0.000016
1510	1.5015e+02	-19.8748	-66.340233	-0.000041	-0.405459	-0.137373	-0.000016
1511	1.5025e+02	-19.8331	-66.255453	0.000213	2.128660	0.721210	0.000085
1512	1.5034e+02	-19.7930	-66.259490	-0.000010	-0.101365	-0.034343	-0.000004
1513	1.5044e+02	-19.7529	-66.211045	0.000122	1.216377	0.412120	0.000049
1514	1.5054e+02	-19.7096	-66.190859	0.000051	0.506824	0.171717	0.000020
1515	1.5064e+02	-19.6759	-66.178748	0.000030	0.304094	0.103030	0.000012
1516	1.5074e+02	-19.6294	-66.085893	0.000233	2.331390	0.789896	0.000093
1517	1.5084e+02	-19.5909	-66.065708	0.000051	0.506824	0.171717	0.000020
1518	1.5094e+02	-19.5476	-65.984965	0.000203	2.027296	0.686866	0.000081
1519	1.5104e+02	-19.5107	-65.972854	0.000030	0.304094	0.103030	0.000012
1520	1.5114e+02	-19.4706	-65.900185	0.000182	1.824566	0.618180	0.000073
1521	1.5124e+02	-19.4305	-65.863851	0.000091	0.912283	0.309090	0.000037
1522	1.5134e+02	-19.3952	-65.831554	0.000081	0.810918	0.274747	0.000032
1523	1.5144e+02	-19.3647	-65.766960	0.000162	1.621836	0.549493	0.000065
1524	1.5154e+02	-19.3118	-65.710440	0.000142	1.419107	0.480806	0.000057
1525	1.5164e+02	-19.2733	-65.637771	0.000182	1.824566	0.618180	0.000073
1526	1.5174e+02	-19.2331	-65.577214	0.000152	1.520472	0.515150	0.000061
1527	1.5184e+02	-19.1914	-65.524732	0.000132	1.317742	0.446463	0.000053
1528	1.5194e+02	-19.1433	-65.480323	0.000112	1.115013	0.377776	0.000045
1529	1.5204e+02	-19.1096	-65.367283	0.000284	2.838214	0.961613	0.000114
1530	1.5214e+02	-19.0807	-65.298652	0.000172	1.723201	0.583836	0.000069
1531	1.5224e+02	-19.0374	-65.246169	0.000132	1.317742	0.446463	0.000053
1532	1.5233e+02	-19.0086	-65.169464	0.000193	1.925931	0.652523	0.000077
1533	1.5243e+02	-18.9540	-65.084684	0.000213	2.128660	0.721210	0.000085
1534	1.5253e+02	-18.9155	-65.080647	0.000010	0.101365	0.034343	0.000004
1535	1.5263e+02	-18.8802	-64.967607	0.000284	2.838214	0.961613	0.000114
1536	1.5273e+02	-18.8385	-64.919161	0.000122	1.216377	0.412120	0.000049
1537	1.5283e+02	-18.7968	-64.870716	0.000122	1.216377	0.412120	0.000049
1538	1.5293e+02	-18.7583	-64.781899	0.000223	2.230025	0.755553	0.000089
1539	1.5303e+02	-18.7134	-64.697119	0.000213	2.128660	0.721210	0.000085
1540	1.5313e+02	-18.6909	-64.608302	0.000223	2.230025	0.755553	0.000089
1541	1.5323e+02	-18.6348	-64.543708	0.000162	1.621836	0.549493	0.000065
1542	1.5333e+02	-18.5947	-64.450853	0.000233	2.331390	0.789896	0.000093
1543	1.5343e+02	-18.5674	-64.374148	0.000193	1.925931	0.652523	0.000077
1544	1.5353e+02	-18.5257	-64.297442	0.000193	1.925931	0.652523	0.000077
1545	1.5363e+02	-18.4776	-64.220737	0.000193	1.925931	0.652523	0.000077
1546	1.5373e+02	-18.4423	-64.176328	0.000112	1.115013	0.377776	0.000045
1547	1.5383e+02	-18.3957	-64.103660	0.000182	1.824566	0.618180	0.000073
1548	1.5393e+02	-18.3604	-63.978509	0.000314	3.142308	1.064643	0.000126
1549	1.5403e+02	-18.3107	-63.913914	0.000162	1.621836	0.549493	0.000065
1550	1.5413e+02	-18.2834	-63.792800	0.000304	3.040943	1.030300	0.000122
1551	1.5422e+02	-18.2337	-63.732243	0.000152	1.520472	0.515150	0.000061
1552	1.5432e+02	-18.2064	-63.691872	0.000101	1.013648	0.343433	0.000041
1553	1.5442e+02	-18.1567	-63.599018	0.000233	2.331390	0.789896	0.000093
1554	1.5452e+02	-18.1198	-63.506164	0.000233	2.331390	0.789896	0.000093
1555	1.5462e+02	-18.0781	-63.429458	0.000193	1.925931	0.652523	0.000077
1556	1.5472e+02	-18.0412	-63.344678	0.000213	2.128660	0.721210	0.000085
1557	1.5482e+02	-17.9947	-63.243750	0.000253	2.534120	0.858583	0.000101
1558	1.5492e+02	-17.9626	-63.179156	0.000162	1.621836	0.549493	0.000065
1559	1.5502e+02	-17.9225	-63.090339	0.000223	2.230025	0.755553	0.000089
1560	1.5512e+02	-17.8776	-63.033819	0.000142	1.419107	0.480806	0.000057
1561	1.5522e+02	-17.8423	-62.908668	0.000314	3.142308	1.064643	0.000126
1562	1.5532e+02	-17.8022	-62.831962	0.000193	1.925931	0.652523	0.000077
1563	1.5542e+02	-17.7589	-62.775442	0.000142	1.419107	0.480806	0.000057
1564	1.5552e+02	-17.7252	-62.630105	0.000365	3.649132	1.236359	0.000146
1565	1.5562e+02	-17.6819	-62.549363	0.000203	2.027296	0.686866	0.000081
1566	1.5572e+02	-17.6385	-62.504954	0.000112	1.115013	0.377776	0.000045
1567	1.5582e+02	-17.5984	-62.404026	0.000253	2.534120	0.858583	0.000101
1568	1.5592e+02	-17.5680	-62.282912	0.000304	3.040943	1.030300	0.000122
1569	1.5602e+02	-17.5278	-62.234466	0.000122	1.216377	0.412120	0.000049
1570	1.5612e+02	-17.4813	-62.093166	0.000355	3.547767	1.202016	0.000142
1571	1.5622e+02	-17.4460	-62.012424	0.000203	2.027296	0.686866	0.000081
1572	1.5631e+02	-17.4059	-61.955904	0.000142	1.419107	0.480806	0.000057
1573	1.5641e+02	-17.3674	-61.810567	0.000365	3.649132	1.236359	0.000146
1574	1.5651e+02	-17.3241	-61.733861	0.000193	1.925931	0.652523	0.000077
1575	1.5661e+02	-17.2936	-61.669267	0.000162	1.621836	0.549493	0.000065
1576	1.5671e+02	-17.2455	-61.564301	0.000264	2.635484	0.892926	0.000105
1577	1.5681e+02	-17.2038	-61.455299	0.000274	2.736849	0.927270	0.000110
1578	1.5691e+02	-17.1653	-61.418965	0.000091	0.912283	0.309090	0.000037
1579	1.5701e+02	-17.1204	-61.322073	0.000243	2.432755	0.824240	0.000097
1580	1.5711e+02	-17.0755	-61.221145	0.000253	2.534120	0.858583	0.000101
1581	1.5721e+02	-17.0434	-61.112142	0.000274	2.736849	0.927270	0.000110
1582	1.5731e+02	-17.0033	-61.043511	0.000172	1.723201	0.583836	0.000069
1583	1.5741e+02	-16.9664	-60.918360	0.000314	3.142308	1.064643	0.000126
1584	1.5751e+02	-16.9247	-60.873951	0.000112	1.115013	0.377776	0.000045
1585	1.5761e+02	-16.8862	-60.805320	0.000172	1.723201	0.583836	0.000069
1586	1.5771e+02	-16.8396	-60.716503	0.000223	2.230025	0.755553	0.000089
1587	1.5781e+02	-16.8027	-60.635760	0.000203	2.027296	0.686866	0.000081
1588	1.5791e+02	-16.7674	-60.490423	0.000365	3.649132	1.236359	0.000146
1589	1.5801e+02	-16.7241	-60.401606	0.000223	2.230025	0.755553	0.000089
1590	1.5811e+02	-16.6824	-60.345086	0.000142	1.419107	0.480806	0.000057
1591	1.5821e+02	-16.6471	-60.244158	0.000253	2.534120	0.858583	0.000101
1592	1.5830e+02	-16.6086	-60.143230	0.000253	2.534120	0.858583	0.000101
1593	1.5840e+02	-16.5637	-60.054413	0.000223	2.230025	0.755553	0.000089
1594	1.5850e+02	-16.5284	-59.937336	0.000294	2.939579	0.995956	0.000118
1595	1.5860e+02	-16.4963	-59.856593	0.000203	2.027296	0.686866	0.000081
1596	1.5870e+02	-16.4546	-59.775850	0.000203	2.027296	0.686866	0.000081
1597	1.5880e+02	-16.4049	-59.646662	0.000324	3.243673	1.098986	0.000130
1598	1.5890e+02	-16.3712	-59.614365	0.000081	0.810918	0.274747	0.000032
1599	1.5900e+02	-16.3391	-59.485177	0.000324	3.243673	1.098986	0.000130
1600	1.5910e+02	-16.2894	-59.388285	0.000243	2.432755	0.824240	0.000097
1601	1.5920e+02	-16.2573	-59.307543	0.000203	2.027296	0.686866	0.000081
1602	1.5930e+02	-16.2156	-59.186428	0.000304	3.040943	1.030300	0.000122
1603	1.5940e+02	-16.1755	-59.117797	0.000172	1.723201	0.583836	0.000069
1604	1.5950e+02	-16.1290	-58.976497	0.000355	3.547767	1.202016	0.000142
1605	1.5960e+02	-16.0985	-58.887680	0.000223	2.230025	0.755553	0.000089
1606	1.5970e+02	-16.0471	-58.835198	0.000132	1.317742	0.446463	0.000053
1607	1.5980e+02	-16.0102	-58.730232	0.000264	2.635484	0.892926	0.000105
1608	1.5990e+02	-15.9685	-58.617192	0.000284	2.838214	0.961613	0.000114
1609	1.6000e+02	-15.9397	-58.552598	0.000162	1.621836	0.549493	0.000065
1610	1.6010e+02	-15.8819	-58.407261	0.000365	3.649132	1.236359	0.000146
1611	1.6019e+02	-15.8514	-58.338630	0.000172	1.723201	0.583836	0.000069
1612	1.6029e+02	-15.8113	-58.245776	0.000233	2.331390	0.789896	0.000093
1613	1.6039e+02	-15.7712	-58.112550	0.000335	3.345038	1.133329	0.000134
1614	1.6049e+02	-15.7359	-58.023733	0.000223	2.230025	0.755553	0.000089
1615	1.6059e+02	-15.6894	-57.959139	0.000162	1.621836	0.549493	0.000065
1616	1.6069e+02	-15.6557	-57.890508	0.000172	1.723201	0.583836	0.000069
1617	1.6079e+02	-15.6140	-57.741134	0.000375	3.750497	1.270703	0.000150
1618	1.6089e+02	-15.5707	-57.668465	0.000182	1.824566	0.618180	0.000073
1619	1.6099e+02	-15.5258	-57.599834	0.000172	1.723201	0.583836	0.000069
1620	1.6109e+02	-15.4905	-57.494869	0.000264	2.635484	0.892926	0.000105
1621	1.6119e+02	-15.4568	-57.385866	0.000274	2.736849	0.927270	0.000110
1622	1.6129e+02	-15.4167	-57.236492	0.000375	3.750497	1.270703	0.000150
1623	1.6139e+02	-15.3830	-57.184009	0.000132	1.317742	0.446463	0.000053
1624	1.6149e+02	-15.3252	-57.030598	0.000385	3.851862	1.305046	0.000154
1625	1.6159e+02	-15.2867	-56.986190	0.000112	1.115013	0.377776	0.000045
1626	1.6169e+02	-15.2482	-56.861038	0.000314	3.142308	1.064643	0.000126
1627	1.6179e+02	-15.2129	-56.804518	0.000142	1.419107	0.480806	0.000057
1628	1.6189e+02	-15.1664	-56.671293	0.000335	3.345038	1.133329	0.000134
1629	1.6199e+02	-15.1359	-56.542105	0.000324	3.243673	1.098986	0.000130
1630	1.6209e+02	-15.0894	-56.461362	0.000203	2.027296	0.686866	0.000081
1631	1.6219e+02	-15.0509	-56.372545	0.000223	2.230025	0.755553	0.000089
1632	1.6228e+02	-15.0092	-56.247394	0.000314	3.142308	1.064643	0.000126
1633	1.6238e+02	-14.9755	-56.150502	0.000243	2.432755	0.824240	0.000097
1634	1.6248e+02	-14.9354	-56.045537	0.000264	2.635484	0.892926	0.000105
1635	1.6258e+02	-14.8889	-55.964794	0.000203	2.027296	0.686866	0.000081
1636	1.6268e+02	-14.8472	-55.896163	0.000172	1.723201	0.583836	0.000069
1637	1.6278e+02	-14.8119	-55.754863	0.000355	3.547767	1.202016	0.000142
1638	1.6288e+02	-14.7686	-55.674120	0.000203	2.027296	0.686866	0.000081
1639	1.6298e+02	-14.7333	-55.553006	0.000304	3.040943	1.030300	0.000122
1640	1.6308e+02	-14.6835	-55.472264	0.000203	2.027296	0.686866	0.000081
1641	1.6318e+02	-14.6611	-55.383447	0.000223	2.230025	0.755553	0.000089
1642	1.6328e+02	-14.6146	-55.274444	0.000274	2.736849	0.927270	0.000110
1643	1.6338e+02	-14.5712	-55.145256	0.000324	3.243673	1.098986	0.000130
1644	1.6348e+02	-14.5376	-55.084699	0.000152	1.520472	0.515150	0.000061
1645	1.6358e+02	-14.4975	-54.923213	0.000405	4.054591	1.373733	0.000162
1646	1.6368e+02	-14.4606	-54.842470	0.000203	2.027296	0.686866	0.000081
1647	1.6378e+02	-14.4204	-54.737505	0.000264	2.635484	0.892926	0.000105
1648	1.6388e+02	-14.3643	-54.664836	0.000182	1.824566	0.618180	0.000073
1649	1.6398e+02	-14.3370	-54.535648	0.000324	3.243673	1.098986	0.000130
1650	1.6408e+02	-14.3001	-54.442794	0.000233	2.331390	0.789896	0.000093
1651	1.6418e+02	-14.2600	-54.382237	0.000152	1.520472	0.515150	0.000061
1652	1.6427e+02	-14.2119	-54.257086	0.000314	3.142308	1.064643	0.000126
1653	1.6437e+02	-14.1766	-54.148083	0.000274	2.736849	0.927270	0.000110
1654	1.6447e+02	-14.1493	-54.039080	0.000274	2.736849	0.927270	0.000110
1655	1.6457e+02	-14.0996	-53.938152	0.000253	2.534120	0.858583	0.000101
1656	1.6467e+02	-14.0579	-53.837224	0.000253	2.534120	0.858583	0.000101
1657	1.6477e+02	-14.0178	-53.732258	0.000264	2.635484	0.892926	0.000105
1658	1.6487e+02	-13.9825	-53.603070	0.000324	3.243673	1.098986	0.000130
1659	1.6497e+02	-13.9360	-53.542513	0.000152	1.520472	0.515150	0.000061
1660	1.6507e+02	-13.8943	-53.425436	0.000294	2.939579	0.995956	0.000118
1661	1.6517e+02	-13.8509	-53.276062	0.000375	3.750497	1.270703	0.000150
1662	1.6527e+02	-13.8140	-53.207430	0.000172	1.723201	0.583836	0.000069
1663	1.6537e+02	-13.7755	-53.090354	0.000294	2.939579	0.995956	0.000118
1664	1.6547e+02	-13.7274	-52.977314	0.000284	2.838214	0.961613	0.000114
1665	1.6557e+02	-13.7001	-52.924831	0.000132	1.317742	0.446463	0.000053
1666	1.6567e+02	-13.6600	-52.791605	0.000335	3.345038	1.133329	0.000134
1667	1.6577e+02	-13.6151	-52.678566	0.000284	2.838214	0.961613	0.000114
1668	1.6587e+02	-13.5862	-52.593786	0.000213	2.128660	0.721210	0.000085
1669	1.6597e+02	-13.5333	-52.476709	0.000294	2.939579	0.995956	0.000118
1670	1.6607e+02	-13.4980	-52.351558	0.000314	3.142308	1.064643	0.000126
1671	1.6616e+02	-13.4611	-52.226406	0.000314	3.142308	1.064643	0.000126
1672	1.6626e+02	-13.4210	-52.121441	0.000264	2.635484	0.892926	0.000105
1673	1.6636e+02	-13.3729	-52.008401	0.000284	2.838214	0.961613	0.000114
1674	1.6646e+02	-13.3376	-51.927658	0.000203	2.027296	0.686866	0.000081
1675	1.6656e+02	-13.2943	-51.778284	0.000375	3.750497	1.270703	0.000150
1676	1.6666e+02	-13.2654	-51.685430	0.000233	2.331390	0.789896	0.000093
1677	1.6676e+02	-13.2189	-51.608725	0.000193	1.925931	0.652523	0.000077
1678	1.6686e+02	-13.1740	-51.459351	0.000375	3.750497	1.270703	0.000150
1679	1.6696e+02	-13.1403	-51.374571	0.000213	2.128660	0.721210	0.000085
1680	1.6706e+02	-13.0921	-51.289791	0.000213	2.128660	0.721210	0.000085
1681	1.6716e+02	-13.0585	-51.152528	0.000345	3.446403	1.167673	0.000138
1682	1.6726e+02	-13.0248	-51.047563	0.000264	2.635484	0.892926	0.000105
1683	1.6736e+02	-12.9766	-50.934523	0.000284	2.838214	0.961613	0.000114
1684	1.6746e+02	-12.9301	-50.857817	0.000193	1.925931	0.652523	0.000077
1685	1.6756e+02	-12.9012	-50.724592	0.000335	3.345038	1.133329	0.000134
1686	1.6766e+02	-12.8595	-50.615589	0.000274	2.736849	0.927270	0.000110
1687	1.6776e+02	-12.8242	-50.530809	0.000213	2.128660	0.721210	0.000085
1688	1.6786e+02	-12.7889	-50.421807	0.000274	2.736849	0.927270	0.000110
1689	1.6796e+02	-12.7408	-50.324916	0.000243	2.432755	0.824240	0.000097
1690	1.6806e+02	-12.7055	-50.195727	0.000324	3.243673	1.098986	0.000130
1691	1.6816e+02	-12.6606	-50.062502	0.000335	3.345038	1.133329	0.000134
1692	1.6825e+02	-12.6237	-49.941388	0.000304	3.040943	1.030300	0.000122
1693	1.6835e+02	-12.5884	-49.844496	0.000243	2.432755	0.824240	0.000097
1694	1.6845e+02	-12.5467	-49.751642	0.000233	2.331390	0.789896	0.000093
1695	1.6855e+02	-12.5018	-49.610343	0.000355	3.547767	1.202016	0.000142
1696	1.6865e+02	-12.4697	-49.533637	0.000193	1.925931	0.652523	0.000077
1697	1.6875e+02	-12.4280	-49.428671	0.000264	2.635484	0.892926	0.000105
1698	1.6885e+02	-12.3767	-49.327743	0.000253	2.534120	0.858583	0.000101
1699	1.6895e+02	-12.3414	-49.214703	0.000284	2.838214	0.961613	0.000114
1700	1.6905e+02	-12.3013	-49.142035	0.000182	1.824566	0.618180	0.000073
1701	1.6915e+02	-12.2595	-48.968438	0.000436	4.358686	1.476763	0.000174
1702	1.6925e+02	-12.2259	-48.835212	0.000335	3.345038	1.133329	0.000134
1703	1.6935e+02	-12.1825	-48.778693	0.000142	1.419107	0.480806	0.000057
1704	1.6945e+02	-12.1376	-48.657578	0.000304	3.040943	1.030300	0.000122
1705	1.6955e+02	-12.0975	-48.512242	0.000365	3.649132	1.236359	0.000146
1706	1.6965e+02	-12.0574	-48.447647	0.000162	1.621836	0.549493	0.000065
1707	1.6975e+02	-12.0189	-48.322496	0.000314	3.142308	1.064643	0.000126
1708	1.6985e+02	-11.9820	-48.177159	0.000365	3.649132	1.236359	0.000146
1709	1.6995e+02	-11.9499	-48.092379	0.000213	2.128660	0.721210	0.000085
1710	1.7005e+02	-11.9114	-47.995488	0.000243	2.432755	0.824240	0.000097
1711	1.7015e+02	-11.8601	-47.882448	0.000284	2.838214	0.961613	0.000114
1712	1.7024e+02	-11.8344	-47.753260	0.000324	3.243673	1.098986	0.000130
1713	1.7034e+02	-11.7863	-47.664443	0.000223	2.230025	0.755553	0.000089
1714	1.7044e+02	-11.7446	-47.531218	0.000335	3.345038	1.133329	0.000134
1715	1.7054e+02	-11.7029	-47.446438	0.000213	2.128660	0.721210	0.000085
1716	1.7064e+02	-11.6692	-47.313212	0.000335	3.345038	1.133329	0.000134
1717	1.7074e+02	-11.6355	-47.200172	0.000284	2.838214	0.961613	0.000114
1718	1.7084e+02	-11.5826	-47.042724	0.000395	3.953226	1.339389	0.000158
1719	1.7094e+02	-11.5489	-46.974093	0.000172	1.723201	0.583836	0.000069
1720	1.7104e+02	-11.5088	-46.861053	0.000284	2.838214	0.961613	0.000114
1721	1.7114e+02	-11.4687	-46.748013	0.000284	2.838214	0.961613	0.000114
1722	1.7124e+02	-11.4270	-46.634973	0.000284	2.838214	0.961613	0.000114
1723	1.7134e+02	-11.3804	-46.481562	0.000385	3.851862	1.305046	0.000154
1724	1.7144e+02	-11.3548	-46.421005	0.000152	1.520472	0.515150	0.000061
1725	1.7154e+02	-11.3002	-46.316040	0.000264	2.635484	0.892926	0.000105
1726	1.7164e+02	-11.2633	-46.170703	0.000365	3.649132	1.236359	0.000146
1727	1.7174e+02	-11.2232	-46.005180	0.000416	4.155956	1.408076	0.000166
1728	1.7184e+02	-11.1943	-45.976920	0.000071	0.709553	0.240403	0.000028
1729	1.7194e+02	-11.1574	-45.823509	0.000385	3.851862	1.305046	0.000154
1730	1.7204e+02	-11.0981	-45.730655	0.000233	2.331390	0.789896	0.000093
1731	1.7213e+02	-11.0692	-45.633764	0.000243	2.432755	0.824240	0.000097
1732	1.7223e+02	-11.0307	-45.532835	0.000253	2.534120	0.858583	0.000101
1733	1.7233e+02	-10.9874	-45.371350	0.000405	4.054591	1.373733	0.000162
1734	1.7243e+02	-10.9505	-45.246199	0.000314	3.142308	1.064643	0.000126
1735	1.7253e+02	-10.9056	-45.100862	0.000365	3.649132	1.236359	0.000146
1736	1.7263e+02	-10.8687	-45.032231	0.000172	1.723201	0.583836	0.000069
1737	1.7273e+02	-10.8318	-44.907079	0.000314	3.142308	1.064643	0.000126
1738	1.7283e+02	-10.7965	-44.790002	0.000294	2.939579	0.995956	0.000118
1739	1.7293e+02	-10.7500	-44.668888	0.000304	3.040943	1.030300	0.000122
1740	1.7303e+02	-10.7163	-44.539700	0.000324	3.243673	1.098986	0.000130
1741	1.7313e+02	-10.6762	-44.446846	0.000233	2.331390	0.789896	0.000093
1742	1.7323e+02	-10.6329	-44.333806	0.000284	2.838214	0.961613	0.000114
1743	1.7333e+02	-10.5847	-44.208655	0.000314	3.142308	1.064643	0.000126
1744	1.7343e+02	-10.5462	-44.119838	0.000223	2.230025	0.755553	0.000089
1745	1.7353e+02	-10.5109	-43.982575	0.000345	3.446403	1.167673	0.000138
1746	1.7363e+02	-10.4628	-43.873573	0.000274	2.736849	0.927270	0.000110
1747	1.7373e+02	-10.4291	-43.716124	0.000395	3.953226	1.339389	0.000158
1748	1.7383e+02	-10.3858	-43.619233	0.000243	2.432755	0.824240	0.000097
1749	1.7393e+02	-10.3473	-43.538490	0.000203	2.027296	0.686866	0.000081
1750	1.7403e+02	-10.3104	-43.413339	0.000314	3.142308	1.064643	0.000126
1751	1.7413e+02	-10.2655	-43.292225	0.000304	3.040943	1.030300	0.000122
1752	1.7422e+02	-10.2350	-43.191297	0.000253	2.534120	0.858583	0.000101
1753	1.7432e+02	-10.1965	-43.078257	0.000284	2.838214	0.961613	0.000114
1754	1.7442e+02	-10.1420	-42.945031	0.000335	3.345038	1.133329	0.000134
1755	1.7452e+02	-10.1115	-42.831992	0.000284	2.838214	0.961613	0.000114
1756	1.7462e+02	-10.0858	-42.771435	0.000152	1.520472	0.515150	0.000061
1757	1.7472e+02	-10.0265	-42.618023	0.000385	3.851862	1.305046	0.000154
1758	1.7482e+02	-9.9928	-42.480761	0.000345	3.446403	1.167673	0.000138
1759	1.7492e+02	-9.9559	-42.383870	0.000243	2.432755	0.824240	0.000097
1760	1.7502e+02	-9.9045	-42.242570	0.000355	3.547767	1.202016	0.000142
1761	1.7512e+02	-9.8773	-42.145679	0.000243	2.432755	0.824240	0.000097
1762	1.7522e+02	-9.8307	-42.004379	0.000355	3.547767	1.202016	0.000142
1763	1.7532e+02	-9.7906	-41.875190	0.000324	3.243673	1.098986	0.000130
1764	1.7542e+02	-9.7521	-41.806559	0.000172	1.723201	0.583836	0.000069
1765	1.7552e+02	-9.7152	-41.649111	0.000395	3.953226	1.339389	0.000158
1766	1.7562e+02	-9.6751	-41.588554	0.000152	1.520472	0.515150	0.000061
1767	1.7572e+02	-9.6334	-41.463403	0.000314	3.142308	1.064643	0.000126
1768	1.7582e+02	-9.6013	-41.354400	0.000274	2.736849	0.927270	0.000110
1769	1.7592e+02	-9.5516	-41.241360	0.000284	2.838214	0.961613	0.000114
1770	1.7602e+02	-9.5179	-41.104098	0.000345	3.446403	1.167673	0.000138
1771	1.7612e+02	-9.4730	-40.991058	0.000284	2.838214	0.961613	0.000114
1772	1.7621e+02	-9.4425	-40.882055	0.000274	2.736849	0.927270	0.000110
1773	1.7631e+02	-9.4008	-40.748830	0.000335	3.345038	1.133329	0.000134
1774	1.7641e+02	-9.3575	-40.619641	0.000324	3.243673	1.098986	0.000130
1775	1.7651e+02	-9.3158	-40.490453	0.000324	3.243673	1.098986	0.000130
1776	1.7661e+02	-9.2821	-40.353190	0.000345	3.446403	1.167673	0.000138
1777	1.7671e+02	-9.2388	-40.268410	0.000213	2.128660	0.721210	0.000085
1778	1.7681e+02	-9.1955	-40.167482	0.000253	2.534120	0.858583	0.000101
1779	1.7691e+02	-9.1586	-40.026182	0.000355	3.547767	1.202016	0.000142
1780	1.7701e+02	-9.1153	-39.925254	0.000253	2.534120	0.858583	0.000101
1781	1.7711e+02	-9.0896	-39.812214	0.000284	2.838214	0.961613	0.000114
1782	1.7721e+02	-9.0238	-39.670914	0.000355	3.547767	1.202016	0.000142
1783	1.7731e+02	-8.9901	-39.517503	0.000385	3.851862	1.305046	0.000154
1784	1.7741e+02	-8.9548	-39.424649	0.000233	2.331390	0.789896	0.000093
1785	1.7751e+02	-8.9131	-39.315646	0.000274	2.736849	0.927270	0.000110
1786	1.7761e+02	-8.8826	-39.178384	0.000345	3.446403	1.167673	0.000138
1787	1.7771e+02	-8.8377	-39.037084	0.000355	3.547767	1.202016	0.000142
1788	1.7781e+02	-8.7976	-38.907896	0.000324	3.243673	1.098986	0.000130
1789	1.7791e+02	-8.7559	-38.859450	0.000122	1.216377	0.412120	0.000049
1790	1.7801e+02	-8.7174	-38.722187	0.000345	3.446403	1.167673	0.000138
1791	1.7810e+02	-8.6725	-38.584925	0.000345	3.446403	1.167673	0.000138
1792	1.7820e+02	-8.6356	-38.483996	0.000253	2.534120	0.858583	0.000101
1793	1.7830e+02	-8.6019	-38.334622	0.000375	3.750497	1.270703	0.000150
1794	1.7840e+02	-8.5634	-38.225620	0.000274	2.736849	0.927270	0.000110
1795	1.7850e+02	-8.5169	-38.080283	0.000365	3.649132	1.236359	0.000146
1796	1.7860e+02	-8.4784	-37.975317	0.000264	2.635484	0.892926	0.000105
1797	1.7870e+02	-8.4335	-37.838055	0.000345	3.446403	1.167673	0.000138
1798	1.7880e+02	-8.4046	-37.741163	0.000243	2.432755	0.824240	0.000097
1799	1.7890e+02	-8.3613	-37.595827	0.000365	3.649132	1.236359	0.000146
1800	1.7900e+02	-8.3163	-37.466638	0.000324	3.243673	1.098986	0.000130
1801	1.7910e+02	-8.2794	-37.365710	0.000253	2.534120	0.858583	0.000101
1802	1.7920e+02	-8.2313	-37.248633	0.000294	2.939579	0.995956	0.000118
1803	1.7930e+02	-8.2008	-37.143667	0.000264	2.635484	0.892926	0.000105
1804	1.7940e+02	-8.1623	-36.994293	0.000375	3.750497	1.270703	0.000150
1805	1.7950e+02	-8.1238	-36.877216	0.000294	2.939579	0.995956	0.000118
1806	1.7960e+02	-8.0789	-36.743991	0.000335	3.345038	1.133329	0.000134
1807	1.7970e+02	-8.0404	-36.647100	0.000243	2.432755	0.824240	0.000097
1808	1.7980e+02	-7.9987	-36.501763	0.000365	3.649132	1.236359	0.000146
1809	1.7990e+02	-7.9570	-36.380649	0.000304	3.040943	1.030300	0.000122
1810	1.8000e+02	-7.9169	-36.271646	0.000274	2.736849	0.927270	0.000110
1811	1.8009e+02	-7.8832	-36.146495	0.000314	3.142308	1.064643	0.000126
1812	1.8019e+02	-7.8351	-35.976935	0.000426	4.257321	1.442419	0.000170
1813	1.8029e+02	-7.8078	-35.896192	0.000203	2.027296	0.686866	0.000081
1814	1.8039e+02	-7.7581	-35.746818	0.000375	3.750497	1.270703	0.000150
1815	1.8049e+02	-7.7196	-35.617630	0.000324	3.243673	1.098986	0.000130
1816	1.8059e+02	-7.6714	-35.553036	0.000162	1.621836	0.549493	0.000065
1817	1.8069e+02	-7.6426	-35.419810	0.000335	3.345038	1.133329	0.000134
1818	1.8079e+02	-7.5960	-35.330993	0.000223	2.230025	0.755553	0.000089
1819	1.8089e+02	-7.5624	-35.153359	0.000446	4.460050	1.511106	0.000179
1820	1.8099e+02	-7.5158	-35.003985	0.000375	3.750497	1.270703	0.000150
1821	1.8109e+02	-7.4805	-34.935354	0.000172	1.723201	0.583836	0.000069
1822	1.8119e+02	-7.4452	-34.794054	0.000355	3.547767	1.202016	0.000142
1823	1.8129e+02	-7.3955	-34.660829	0.000335	3.345038	1.133329	0.000134
1824	1.8139e+02	-7.3586	-34.563938	0.000243	2.432755	0.824240	0.000097
1825	1.8149e+02	-7.3185	-34.390341	0.000436	4.358686	1.476763	0.000174
1826	1.8159e+02	-7.2864	-34.285375	0.000264	2.635484	0.892926	0.000105
1827	1.8169e+02	-7.2463	-34.156187	0.000324	3.243673	1.098986	0.000130
1828	1.8179e+02	-7.2014	-34.031036	0.000314	3.142308	1.064643	0.000126
1829	1.8189e+02	-7.1629	-33.897810	0.000335	3.345038	1.133329	0.000134
1830	1.8199e+02	-7.1260	-33.796882	0.000253	2.534120	0.858583	0.000101
1831	1.8209e+02	-7.0843	-33.671731	0.000314	3.142308	1.064643	0.000126
1832	1.8218e+02	-7.0410	-33.514282	0.000395	3.953226	1.339389	0.000158
1833	1.8228e+02	-6.9993	-33.409317	0.000264	2.635484	0.892926	0.000105
1834	1.8238e+02	-6.9624	-33.284166	0.000314	3.142308	1.064643	0.000126
1835	1.8248e+02	-6.9223	-33.175163	0.000274	2.736849	0.927270	0.000110
1836	1.8258e+02	-6.8806	-33.050012	0.000314	3.142308	1.064643	0.000126
1837	1.8268e+02	-6.8404	-32.912749	0.000345	3.446403	1.167673	0.000138
1838	1.8278e+02	-6.8052	-32.755301	0.000395	3.953226	1.339389	0.000158
1839	1.8288e+02	-6.7715	-32.654372	0.000253	2.534120	0.858583	0.000101
1840	1.8298e+02	-6.7233	-32.496924	0.000395	3.953226	1.339389	0.000158
1841	1.8308e+02	-6.6816	-32.379847	0.000294	2.939579	0.995956	0.000118
1842	1.8318e+02	-6.6447	-32.274882	0.000264	2.635484	0.892926	0.000105
1843	1.8328e+02	-6.6126	-32.093211	0.000456	4.561415	1.545449	0.000183
1844	1.8338e+02	-6.5758	-31.972096	0.000304	3.040943	1.030300	0.000122
1845	1.8348e+02	-6.5260	-31.850982	0.000304	3.040943	1.030300	0.000122
1846	1.8358e+02	-6.4843	-31.717757	0.000335	3.345038	1.133329	0.000134
1847	1.8368e+02	-6.4442	-31.584531	0.000335	3.345038	1.133329	0.000134
1848	1.8378e+02	-6.4105	-31.483603	0.000253	2.534120	0.858583	0.000101
1849	1.8388e+02	-6.3688	-31.334229	0.000375	3.750497	1.270703	0.000150
1850	1.8398e+02	-6.3319	-31.196966	0.000345	3.446403	1.167673	0.000138
1851	1.8407e+02	-6.2934	-31.112187	0.000213	2.128660	0.721210	0.000085
1852	1.8417e+02	-6.2549	-30.934553	0.000446	4.460050	1.511106	0.000179
1853	1.8427e+02	-6.2084	-30.813439	0.000304	3.040943	1.030300	0.000122
1854	1.8437e+02	-6.1715	-30.708473	0.000264	2.635484	0.892926	0.000105
1855	1.8447e+02	-6.1362	-30.579285	0.000324	3.243673	1.098986	0.000130
1856	1.8457e+02	-6.0849	-30.446059	0.000335	3.345038	1.133329	0.000134
1857	1.8467e+02	-6.0512	-30.308797	0.000345	3.446403	1.167673	0.000138
1858	1.8477e+02	-6.0191	-30.163460	0.000365	3.649132	1.236359	0.000146
1859	1.8487e+02	-5.9742	-30.094828	0.000172	1.723201	0.583836	0.000069
1860	1.8497e+02	-5.9341	-29.957566	0.000345	3.446403	1.167673	0.000138
1861	1.8507e+02	-5.9036	-29.808192	0.000375	3.750497	1.270703	0.000150
1862	1.8517e+02	-5.8426	-29.662855	0.000365	3.649132	1.236359	0.000146
1863	1.8527e+02	-5.8041	-29.570001	0.000233	2.331390	0.789896	0.000093
1864	1.8537e+02	-5.7720	-29.400441	0.000426	4.257321	1.442419	0.000170
1865	1.8547e+02	-5.7367	-29.283364	0.000294	2.939579	0.995956	0.000118
1866	1.8557e+02	-5.6966	-29.121879	0.000405	4.054591	1.373733	0.000162
1867	1.8567e+02	-5.6549	-29.008839	0.000284	2.838214	0.961613	0.000114
1868	1.8577e+02	-5.6132	-28.879651	0.000324	3.243673	1.098986	0.000130
1869	1.8587e+02	-5.5763	-28.766611	0.000284	2.838214	0.961613	0.000114
1870	1.8597e+02	-5.5378	-28.637422	0.000324	3.243673	1.098986	0.000130
1871	1.8606e+02	-5.4977	-28.479974	0.000395	3.953226	1.339389	0.000158
1872	1.8616e+02	-5.4528	-28.370971	0.000274	2.736849	0.927270	0.000110
1873	1.8626e+02	-5.3998	-28.225635	0.000365	3.649132	1.236359	0.000146
1874	1.8636e+02	-5.3710	-28.112595	0.000284	2.838214	0.961613	0.000114
1875	1.8646e+02	-5.3421	-27.955146	0.000395	3.953226	1.339389	0.000158
1876	1.8656e+02	-5.2940	-27.813847	0.000355	3.547767	1.202016	0.000142
1877	1.8666e+02	-5.2571	-27.712918	0.000253	2.534120	0.858583	0.000101
1878	1.8676e+02	-5.2154	-27.579693	0.000335	3.345038	1.133329	0.000134
1879	1.8686e+02	-5.1881	-27.478764	0.000253	2.534120	0.858583	0.000101
1880	1.8696e+02	-5.1287	-27.305168	0.000436	4.358686	1.476763	0.000174
1881	1.8706e+02	-5.0966	-27.180016	0.000314	3.142308	1.064643	0.000126
1882	1.8716e+02	-5.0581	-27.054865	0.000314	3.142308	1.064643	0.000126
1883	1.8726e+02	-5.0229	-26.885305	0.000426	4.257321	1.442419	0.000170
1884	1.8736e+02	-4.9844	-26.752080	0.000335	3.345038	1.133329	0.000134
1885	1.8746e+02	-4.9362	-26.643077	0.000274	2.736849	0.927270	0.000110
1886	1.8756e+02	-4.8897	-26.517926	0.000314	3.142308	1.064643	0.000126
1887	1.8766e+02	-4.8560	-26.364515	0.000385	3.851862	1.305046	0.000154
1888	1.8776e+02	-4.8143	-26.231289	0.000335	3.345038	1.133329	0.000134
1889	1.8786e+02	-4.7806	-26.102101	0.000324	3.243673	1.098986	0.000130
1890	1.8796e+02	-4.7341	-26.001173	0.000253	2.534120	0.858583	0.000101
1891	1.8806e+02	-4.6908	-25.855836	0.000365	3.649132	1.236359	0.000146
1892	1.8815e+02	-4.6619	-25.694350	0.000405	4.054591	1.373733	0.000162
1893	1.8825e+02	-4.6186	-25.557088	0.000345	3.446403	1.167673	0.000138
1894	1.8835e+02	-4.5769	-25.440011	0.000294	2.939579	0.995956	0.000118
1895	1.8845e+02	-4.5304	-25.339082	0.000253	2.534120	0.858583	0.000101
1896	1.8855e+02	-4.4919	-25.217968	0.000304	3.040943	1.030300	0.000122
1897	1.8865e+02	-4.4566	-25.076669	0.000355	3.547767	1.202016	0.000142
1898	1.8875e+02	-4.4213	-24.915183	0.000405	4.054591	1.373733	0.000162
1899	1.8885e+02	-4.3828	-24.806181	0.000274	2.736849	0.927270	0.000110
1900	1.8895e+02	-4.3346	-24.604324	0.000507	5.068239	1.717166	0.000203
1901	1.8905e+02	-4.3026	-24.495321	0.000274	2.736849	0.927270	0.000110
1902	1.8915e+02	-4.2464	-24.366133	0.000324	3.243673	1.098986	0.000130
1903	1.8925e+02	-4.2223	-24.216759	0.000375	3.750497	1.270703	0.000150
1904	1.8935e+02	-4.1758	-24.103719	0.000284	2.838214	0.961613	0.000114
1905	1.8945e+02	-4.1453	-23.950308	0.000385	3.851862	1.305046	0.000154
1906	1.8955e+02	-4.1036	-23.825157	0.000314	3.142308	1.064643	0.000126
1907	1.8965e+02	-4.0507	-23.647523	0.000446	4.460050	1.511106	0.000179
1908	1.8975e+02	-4.0266	-23.526409	0.000304	3.040943	1.030300	0.000122
1909	1.8985e+02	-3.9801	-23.368960	0.000395	3.953226	1.339389	0.000158
1910	1.8995e+02	-3.9432	-23.255920	0.000284	2.838214	0.961613	0.000114
1911	1.9004e+02	-3.9047	-23.110584	0.000365	3.649132	1.236359	0.000146
1912	1.9014e+02	-3.8550	-22.961210	0.000375	3.750497	1.270703	0.000150
1913	1.9024e+02	-3.8181	-22.848170	0.000284	2.838214	0.961613	0.000114
1914	1.9034e+02	-3.7812	-22.739167	0.000274	2.736849	0.927270	0.000110
1915	1.9044e+02	-3.7363	-22.573644	0.000416	4.155956	1.408076	0.000166
1916	1.9054e+02	-3.7058	-22.476753	0.000243	2.432755	0.824240	0.000097
1917	1.9064e+02	-3.6609	-22.327379	0.000375	3.750497	1.270703	0.000150
1918	1.9074e+02	-3.6256	-22.165894	0.000405	4.054591	1.373733	0.000162
1919	1.9084e+02	-3.5823	-22.000371	0.000416	4.155956	1.408076	0.000166
1920	1.9094e+02	-3.5454	-21.923666	0.000193	1.925931	0.652523	0.000077
1921	1.9104e+02	-3.5004	-21.774292	0.000375	3.750497	1.270703	0.000150
1922	1.9114e+02	-3.4603	-21.685475	0.000223	2.230025	0.755553	0.000089
1923	1.9124e+02	-3.4218	-21.528026	0.000395	3.953226	1.339389	0.000158
1924	1.9134e+02	-3.3785	-21.342318	0.000466	4.662780	1.579793	0.000187
1925	1.9144e+02	-3.3352	-21.253501	0.000223	2.230025	0.755553	0.000089
1926	1.9154e+02	-3.2919	-21.104127	0.000375	3.750497	1.270703	0.000150
1927	1.9164e+02	-3.2614	-20.995124	0.000274	2.736849	0.927270	0.000110
1928	1.9174e+02	-3.2309	-20.853825	0.000355	3.547767	1.202016	0.000142
1929	1.9184e+02	-3.1908	-20.680228	0.000436	4.358686	1.476763	0.000174
1930	1.9194e+02	-3.1395	-20.575262	0.000264	2.635484	0.892926	0.000105
1931	1.9203e+02	-3.1010	-20.438000	0.000345	3.446403	1.167673	0.000138
1932	1.9213e+02	-3.0641	-20.324960	0.000284	2.838214	0.961613	0.000114
1933	1.9223e+02	-3.0288	-20.147326	0.000446	4.460050	1.511106	0.000179
1934	1.9233e+02	-2.9823	-19.989878	0.000395	3.953226	1.339389	0.000158
1935	1.9243e+02	-2.9374	-19.884912	0.000264	2.635484	0.892926	0.000105
1936	1.9253e+02	-2.9053	-19.771872	0.000284	2.838214	0.961613	0.000114
1937	1.9263e+02	-2.8668	-19.586164	0.000466	4.662780	1.579793	0.000187
1938	1.9273e+02	-2.8202	-19.481199	0.000264	2.635484	0.892926	0.000105
1939	1.9283e+02	-2.7833	-19.323750	0.000395	3.953226	1.339389	0.000158
1940	1.9293e+02	-2.7481	-19.210710	0.000284	2.838214	0.961613	0.000114
1941	1.9303e+02	-2.7015	-19.061336	0.000375	3.750497	1.270703	0.000150
1942	1.9313e+02	-2.6662	-18.863517	0.000497	4.966874	1.682823	0.000199
1943	1.9323e+02	-2.6229	-18.770663	0.000233	2.331390	0.789896	0.000093
1944	1.9333e+02	-2.5860	-18.593029	0.000446	4.460050	1.511106	0.000179
1945	1.9343e+02	-2.5459	-18.504212	0.000223	2.230025	0.755553	0.000089
1946	1.9353e+02	-2.5106	-18.362912	0.000355	3.547767	1.202016	0.000142
1947	1.9363e+02	-2.4609	-18.217575	0.000365	3.649132	1.236359	0.000146
1948	1.9373e+02	-2.4336	-18.116647	0.000253	2.534120	0.858583	0.000101
1949	1.9383e+02	-2.3919	-17.934976	0.000456	4.561415	1.545449	0.000183
1950	1.9393e+02	-2.3422	-17.797713	0.000345	3.446403	1.167673	0.000138
1951	1.9403e+02	-2.3053	-17.680636	0.000294	2.939579	0.995956	0.000118
1952	1.9412e+02	-2.2636	-17.515113	0.000416	4.155956	1.408076	0.000166
1953	1.9422e+02	-2.2235	-17.353628	0.000405	4.054591	1.373733	0.000162
1954	1.9432e+02	-2.1850	-17.280960	0.000182	1.824566	0.618180	0.000073
1955	1.9442e+02	-2.1465	-17.135623	0.000365	3.649132	1.236359	0.000146
1956	1.9452e+02	-2.1031	-16.982211	0.000385	3.851862	1.305046	0.000154
1957	1.9462e+02	-2.0711	-16.832837	0.000375	3.750497	1.270703	0.000150
1958	1.9472e+02	-2.0245	-16.687501	0.000365	3.649132	1.236359	0.000146
1959	1.9482e+02	-1.9844	-16.558312	0.000324	3.243673	1.098986	0.000130
1960	1.9492e+02	-1.9443	-16.400864	0.000395	3.953226	1.339389	0.000158
1961	1.9502e+02	-1.9058	-16.275713	0.000314	3.142308	1.064643	0.000126
1962	1.9512e+02	-1.8705	-16.126339	0.000375	3.750497	1.270703	0.000150
1963	1.9522e+02	-1.8352	-16.013299	0.000284	2.838214	0.961613	0.000114
1964	1.9532e+02	-1.7903	-15.827591	0.000466	4.662780	1.579793	0.000187
1965	1.9542e+02	-1.7438	-15.678217	0.000375	3.750497	1.270703	0.000150
1966	1.9552e+02	-1.7149	-15.549028	0.000324	3.243673	1.098986	0.000130
1967	1.9562e+02	-1.6700	-15.427914	0.000304	3.040943	1.030300	0.000122
1968	1.9572e+02	-1.6299	-15.302763	0.000314	3.142308	1.064643	0.000126
1969	1.9582e+02	-1.5914	-15.117055	0.000466	4.662780	1.579793	0.000187
1970	1.9592e+02	-1.5417	-15.004015	0.000284	2.838214	0.961613	0.000114
1971	1.9601e+02	-1.5080	-14.830418	0.000436	4.358686	1.476763	0.000174
1972	1.9611e+02	-1.4663	-14.681044	0.000375	3.750497	1.270703	0.000150
1973	1.9621e+02	-1.4246	-14.596264	0.000213	2.128660	0.721210	0.000085
1974	1.9631e+02	-1.3973	-14.442853	0.000385	3.851862	1.305046	0.000154
1975	1.9641e+02	-1.3524	-14.273293	0.000426	4.257321	1.442419	0.000170
1976	1.9651e+02	-1.3026	-14.136031	0.000345	3.446403	1.167673	0.000138
1977	1.9661e+02	-1.2689	-14.002805	0.000335	3.345038	1.133329	0.000134
1978	1.9671e+02	-1.2321	-13.853431	0.000375	3.750497	1.270703	0.000150
1979	1.9681e+02	-1.1887	-13.695983	0.000395	3.953226	1.339389	0.000158
1980	1.9691e+02	-1.1454	-13.578906	0.000294	2.939579	0.995956	0.000118
1981	1.9701e+02	-1.1117	-13.457792	0.000304	3.040943	1.030300	0.000122
1982	1.9711e+02	-1.0716	-13.268047	0.000476	4.764145	1.614136	0.000191
1983	1.9721e+02	-1.0331	-13.155007	0.000284	2.838214	0.961613	0.000114
1984	1.9731e+02	-0.9914	-12.993521	0.000405	4.054591	1.373733	0.000162
1985	1.9741e+02	-0.9641	-12.868370	0.000314	3.142308	1.064643	0.000126
1986	1.9751e+02	-0.9192	-12.751293	0.000294	2.939579	0.995956	0.000118
1987	1.9761e+02	-0.8791	-12.597882	0.000385	3.851862	1.305046	0.000154
1988	1.9771e+02	-0.8326	-12.488879	0.000274	2.736849	0.927270	0.000110
1989	1.9781e+02	-0.7845	-12.327394	0.000405	4.054591	1.373733	0.000162
1990	1.9791e+02	-0.7588	-12.186094	0.000355	3.547767	1.202016	0.000142
1991	1.9800e+02	-0.7075	-12.000386	0.000466	4.662780	1.579793	0.000187
1992	1.9810e+02	-0.6706	-11.887346	0.000284	2.838214	0.961613	0.000114
1993	1.9820e+02	-0.6305	-11.713749	0.000436	4.358686	1.476763	0.000174
1994	1.9830e+02	-0.5968	-11.604747	0.000274	2.736849	0.927270	0.000110
1995	1.9840e+02	-0.5599	-11.471521	0.000335	3.345038	1.133329	0.000134
1996	1.9850e+02	-0.5166	-11.326184	0.000365	3.649132	1.236359	0.000146
1997	1.9860e+02	-0.4700	-11.176810	0.000375	3.750497	1.270703	0.000150
1998	1.9870e+02	-0.4412	-11.039548	0.000345	3.446403	1.167673	0.000138
1999	1.9880e+02	-0.3914	-10.878062	0.000405	4.054591	1.373733	0.000162
2000	1.9890e+02	-0.3529	-10.732725	0.000365	3.649132	1.236359	0.000146
2001	1.9900e+02	-0.3080	-10.587388	0.000365	3.649132	1.236359	0.000146
2002	1.9910e+02	-0.2791	-10.446089	0.000355	3.547767	1.202016	0.000142
2003	1.9920e+02	-0.2358	-10.264418	0.000456	4.561415	1.545449	0.000183
2004	1.9930e+02	-0.1941	-10.147341	0.000294	2.939579	0.995956	0.000118
2005	1.9940e+02	-0.1524	-9.997967	0.000375	3.750497	1.270703	0.000150
2006	1.9950e+02	-0.1107	-9.860704	0.000345	3.446403	1.167673	0.000138
2007	1.9960e+02	-0.0754	-9.679033	0.000456	4.561415	1.545449	0.000183
2008	1.9970e+02	-0.0289	-9.570030	0.000274	2.736849	0.927270	0.000110
2009	1.9980e+02	0.0064	-9.372211	0.000274	2.736849	0.927270	0.000199

PMax (uC/cm2):	7.20e+01
Pr (uC/cm2):	4.50e+00
-Pr (uC/cm2):	-3.75e+00
PLoss (uC/cm2):	-3.73e+00
-Vc:	-1.23e+00
C (Max-Eff) (nF):	3.60e-01
K (Eff):	1.22e+03
Vert. (+/-Pr) Shift (uC/cm2):	3.73e-01
Offset (uC/cm2):	5.62e+00

A (Loop Area - uC/cm2·Volts):	2.36e-02



Hysteresis Version: 5.48.1 - Radiant Technologies, Inc., 1999 - 9/12/24

