»»»»»»»»»»»»»»»»»»»»»»»»»»»»»»»»»»»» Hysteresis ««««««««««««««««««««««««««««««««««««
»»»  Executed Version:	5.48.1
»»»  Vision Version:	5.48.4 (R)
»»»  Vision Compiled:	9/18/24
»»»  Driver Version:	5.47.0
»»»  Windows Version:	Windows 8 or 8.1
»»»  Processor Information:	x86 (AMD or Intel) - 32 Processors
»»»  Tester Name:	PMF21124-494 (100V)
»»»  Tester S/N:	PMF21124-494
»»»  Internal Amp Type:	100V RevK 270k
»»»  Internal Amp S/N:	iAB2-596/K     
»»»  Execution Count:	1
»»»»»»»»»»»»»»»»»»»»»»»»»»»»»»»»»»»»»»»»»»««««««««««««««««««««««««««««««««««««««««««

Stored:	6/19/2025 - 19:47:25
Configured:	06/19/25 10:04:32 AM
Executed:	06/19/25 07:46:47 PM

»»»»»»»»»»»»»»»»»»»»»»»»»»»»»»»»»»» Sample Info ««««««««««««««««««««««««««««««««««««
Sample Name:	
Lot Name:	
Wafer Name:	
Die Row/Column:	0/0
Capacitor Number:	0
Sample Area (cm2):	1.00e-04
Sample Thickness (microns):	3.00e-01

Amplifier:	Internal

»»»»»»»»»»»»»»»»»»»»»»»»»»»»»»»»»»» Tester Info «««««««««««««««««««««««««««««««««««
Tester Name:	PMF21124-494 (100V)
Tester Serial Number:	PMF21124-494
Return Signal Amp. Level:	0.19 [Index: 3]

»»»»»»»»»»»»»»»»»»»»»»»»»»»»»»»» Hysteresis Info ««««««««««««««««««««««««««««««««««
Task Name:	Hyst-1168
Volts:	20.00
Field:	666.67 (kV/cm)
DCBias:	0.00
DCField:	0.00 (kV/cm)
Hysteresis Period (ms):	2.00e+02
Preset:	Enabled
Preset Delay (ms):	1.00e+03
Profile:	Standard Bipolar

»»»»»»»»»»»»»»»»»»»»»»»»»»»»»»»»»»»»»» Data «««««««««««««««««««««««««««««««««««««««
Points:	2009

Valid Data

Point	Time (ms)	Drive Voltage	Measured Polarization (uC/cm2)	Capacitance (uF)	Normalized Capacitance (uF/cm2)	Dielectric Constant	Instantaneous Current (mA)
   1	0.0000e+00	0.0112	-6.404916	0.000304	3.041798	1.030589	0.000122
   2	9.9500e-02	0.0385	-6.283802	0.000304	3.041798	1.030589	0.000122
   3	1.9900e-01	0.0754	-6.170762	0.000284	2.839011	0.961883	0.000114
   4	2.9850e-01	0.1171	-6.017351	0.000385	3.852944	1.305413	0.000154
   5	3.9800e-01	0.1572	-5.880088	0.000345	3.447371	1.168001	0.000138
   6	4.9750e-01	0.1861	-5.763011	0.000294	2.940404	0.996236	0.000118
   7	5.9700e-01	0.2262	-5.557117	0.000517	5.171056	1.752001	0.000207
   8	6.9650e-01	0.2904	-5.407743	0.000375	3.751550	1.271060	0.000150
   9	7.9600e-01	0.3160	-5.258369	0.000375	3.751550	1.271060	0.000150
  10	8.9550e-01	0.3610	-5.129181	0.000324	3.244584	1.099295	0.000130
  11	9.9500e-01	0.3946	-5.012104	0.000294	2.940404	0.996236	0.000118
  12	1.0945e+00	0.4380	-4.854656	0.000395	3.954337	1.339766	0.000158
  13	1.1940e+00	0.4749	-4.697207	0.000395	3.954337	1.339766	0.000158
  14	1.2935e+00	0.5166	-4.539759	0.000395	3.954337	1.339766	0.000158
  15	1.3930e+00	0.5551	-4.374237	0.000416	4.157123	1.408472	0.000166
  16	1.4925e+00	0.5936	-4.249085	0.000314	3.143191	1.064942	0.000126
  17	1.5920e+00	0.6305	-4.107786	0.000355	3.548764	1.202354	0.000142
  18	1.6915e+00	0.6770	-3.982634	0.000314	3.143191	1.064942	0.000126
  19	1.7910e+00	0.7171	-3.829223	0.000385	3.852944	1.305413	0.000154
  20	1.8905e+00	0.7636	-3.704072	0.000314	3.143191	1.064942	0.000126
  21	1.9900e+00	0.7909	-3.530475	0.000436	4.359910	1.477177	0.000174
  22	2.0895e+00	0.8358	-3.348804	0.000456	4.562696	1.545883	0.000183
  23	2.1890e+00	0.8855	-3.227690	0.000304	3.041798	1.030589	0.000122
  24	2.2885e+00	0.9176	-3.082353	0.000365	3.650157	1.236707	0.000146
  25	2.3880e+00	0.9577	-2.924905	0.000395	3.954337	1.339766	0.000158
  26	2.4875e+00	0.9978	-2.755345	0.000426	4.258517	1.442825	0.000170
  27	2.5870e+00	1.0363	-2.626157	0.000324	3.244584	1.099295	0.000130
  28	2.6865e+00	1.0700	-2.460634	0.000416	4.157123	1.408472	0.000166
  29	2.7860e+00	1.1198	-2.327409	0.000335	3.345977	1.133648	0.000134
  30	2.8855e+00	1.1567	-2.165923	0.000406	4.055730	1.374119	0.000162
  31	2.9850e+00	1.2048	-2.028661	0.000345	3.447371	1.168001	0.000138
  32	3.0845e+00	1.2288	-1.891398	0.000345	3.447371	1.168001	0.000138
  33	3.1840e+00	1.2754	-1.733950	0.000395	3.954337	1.339766	0.000158
  34	3.2835e+00	1.3139	-1.544204	0.000477	4.765483	1.614589	0.000191
  35	3.3830e+00	1.3652	-1.423090	0.000304	3.041798	1.030589	0.000122
  36	3.4825e+00	1.3925	-1.233345	0.000477	4.765483	1.614589	0.000191
  37	3.5820e+00	1.4342	-1.120305	0.000284	2.839011	0.961883	0.000114
  38	3.6815e+00	1.4727	-0.946708	0.000436	4.359910	1.477177	0.000174
  39	3.7810e+00	1.5144	-0.793297	0.000385	3.852944	1.305413	0.000154
  40	3.8805e+00	1.5577	-0.651997	0.000355	3.548764	1.202354	0.000142
  41	3.9800e+00	1.5914	-0.506661	0.000365	3.650157	1.236707	0.000146
  42	4.0795e+00	1.6315	-0.308841	0.000497	4.968270	1.683295	0.000199
  43	4.1790e+00	1.6812	-0.191764	0.000294	2.940404	0.996236	0.000118
  44	4.2785e+00	1.7117	-0.026241	0.000416	4.157123	1.408472	0.000166
  45	4.3780e+00	1.7470	0.102947	0.000324	3.244584	1.099295	0.000130
  46	4.4775e+00	1.7871	0.288655	0.000466	4.664090	1.580236	0.000187
  47	4.5770e+00	1.8256	0.417844	0.000324	3.244584	1.099295	0.000130
  48	4.6765e+00	1.8705	0.559143	0.000355	3.548764	1.202354	0.000142
  49	4.7760e+00	1.9155	0.732740	0.000436	4.359910	1.477177	0.000174
  50	4.8755e+00	1.9556	0.853854	0.000304	3.041798	1.030589	0.000122
  51	4.9750e+00	1.9892	1.051674	0.000497	4.968270	1.683295	0.000199
  52	5.0745e+00	2.0326	1.213159	0.000406	4.055730	1.374119	0.000162
  53	5.1740e+00	2.0775	1.330236	0.000294	2.940404	0.996236	0.000118
  54	5.2735e+00	2.1031	1.471536	0.000355	3.548764	1.202354	0.000142
  55	5.3730e+00	2.1497	1.637059	0.000416	4.157123	1.408472	0.000166
  56	5.4725e+00	2.1866	1.814693	0.000446	4.461303	1.511530	0.000179
  57	5.5720e+00	2.2235	1.955992	0.000355	3.548764	1.202354	0.000142
  58	5.6715e+00	2.2700	2.093255	0.000345	3.447371	1.168001	0.000138
  59	5.7710e+00	2.3149	2.238592	0.000365	3.650157	1.236707	0.000146
  60	5.8705e+00	2.3518	2.400077	0.000406	4.055730	1.374119	0.000162
  61	5.9700e+00	2.3951	2.533303	0.000335	3.345977	1.133648	0.000134
  62	6.0695e+00	2.4320	2.702862	0.000426	4.258517	1.442825	0.000170
  63	6.1690e+00	2.4609	2.872422	0.000426	4.258517	1.442825	0.000170
  64	6.2685e+00	2.5106	3.017759	0.000365	3.650157	1.236707	0.000146
  65	6.3680e+00	2.5411	3.138873	0.000304	3.041798	1.030589	0.000122
  66	6.4675e+00	2.5876	3.316507	0.000446	4.461303	1.511530	0.000179
  67	6.5670e+00	2.6342	3.457807	0.000355	3.548764	1.202354	0.000142
  68	6.6665e+00	2.6759	3.623329	0.000416	4.157123	1.408472	0.000166
  69	6.7660e+00	2.7128	3.800963	0.000446	4.461303	1.511530	0.000179
  70	6.8655e+00	2.7497	3.901892	0.000253	2.534831	0.858824	0.000101
  71	6.9650e+00	2.7833	4.063377	0.000406	4.055730	1.374119	0.000162
  72	7.0645e+00	2.8315	4.224863	0.000406	4.055730	1.374119	0.000162
  73	7.1640e+00	2.8684	4.414608	0.000477	4.765483	1.614589	0.000191
  74	7.2635e+00	2.9085	4.543796	0.000324	3.244584	1.099295	0.000130
  75	7.3630e+00	2.9454	4.672985	0.000324	3.244584	1.099295	0.000130
  76	7.4625e+00	2.9903	4.794099	0.000304	3.041798	1.030589	0.000122
  77	7.5620e+00	3.0352	4.967696	0.000436	4.359910	1.477177	0.000174
  78	7.6615e+00	3.0593	5.108995	0.000355	3.548764	1.202354	0.000142
  79	7.7610e+00	3.1218	5.270481	0.000406	4.055730	1.374119	0.000162
  80	7.8605e+00	3.1587	5.431966	0.000406	4.055730	1.374119	0.000162
  81	7.9600e+00	3.1796	5.601526	0.000426	4.258517	1.442825	0.000170
  82	8.0595e+00	3.2197	5.726677	0.000314	3.143191	1.064942	0.000126
  83	8.1590e+00	3.2694	5.880088	0.000385	3.852944	1.305413	0.000154
  84	8.2585e+00	3.3095	6.049648	0.000426	4.258517	1.442825	0.000170
  85	8.3580e+00	3.3496	6.227282	0.000446	4.461303	1.511530	0.000179
  86	8.4575e+00	3.3753	6.320136	0.000233	2.332045	0.790118	0.000093
  87	8.5570e+00	3.4234	6.501807	0.000456	4.562696	1.545883	0.000183
  88	8.6565e+00	3.4732	6.651181	0.000375	3.751550	1.271060	0.000150
  89	8.7560e+00	3.5117	6.820741	0.000426	4.258517	1.442825	0.000170
  90	8.8555e+00	3.5486	6.970115	0.000375	3.751550	1.271060	0.000150
  91	8.9550e+00	3.5903	7.119489	0.000375	3.751550	1.271060	0.000150
  92	9.0545e+00	3.6175	7.293086	0.000436	4.359910	1.477177	0.000174
  93	9.1540e+00	3.6705	7.406126	0.000284	2.839011	0.961883	0.000114
  94	9.2535e+00	3.7106	7.563574	0.000395	3.954337	1.339766	0.000158
  95	9.3530e+00	3.7395	7.737171	0.000436	4.359910	1.477177	0.000174
  96	9.4525e+00	3.7828	7.886545	0.000375	3.751550	1.271060	0.000150
  97	9.5520e+00	3.8261	8.060142	0.000436	4.359910	1.477177	0.000174
  98	9.6515e+00	3.8710	8.209516	0.000375	3.751550	1.271060	0.000150
  99	9.7510e+00	3.9031	8.314481	0.000264	2.636225	0.893177	0.000105
 100	9.8505e+00	3.9384	8.508264	0.000487	4.866876	1.648942	0.000195
 101	9.9500e+00	3.9801	8.669749	0.000406	4.055730	1.374119	0.000162
 102	1.0050e+01	4.0250	8.770677	0.000253	2.534831	0.858824	0.000101
 103	1.0149e+01	4.0603	8.936200	0.000416	4.157123	1.408472	0.000166
 104	1.0248e+01	4.0988	9.154205	0.000548	5.475236	1.855060	0.000219
 105	1.0348e+01	4.1373	9.303579	0.000375	3.751550	1.271060	0.000150
 106	1.0447e+01	4.1806	9.428731	0.000314	3.143191	1.064942	0.000126
 107	1.0547e+01	4.2207	9.586179	0.000395	3.954337	1.339766	0.000158
 108	1.0646e+01	4.2641	9.727479	0.000355	3.548764	1.202354	0.000142
 109	1.0746e+01	4.3042	9.897038	0.000426	4.258517	1.442825	0.000170
 110	1.0845e+01	4.3411	10.066598	0.000426	4.258517	1.442825	0.000170
 111	1.0945e+01	4.3828	10.195786	0.000324	3.244584	1.099295	0.000130
 112	1.1044e+01	4.4165	10.349197	0.000385	3.852944	1.305413	0.000154
 113	1.1144e+01	4.4598	10.506646	0.000395	3.954337	1.339766	0.000158
 114	1.1243e+01	4.4951	10.680243	0.000436	4.359910	1.477177	0.000174
 115	1.1343e+01	4.5368	10.829617	0.000375	3.751550	1.271060	0.000150
 116	1.1443e+01	4.5753	10.958805	0.000324	3.244584	1.099295	0.000130
 117	1.1542e+01	4.6218	11.116253	0.000395	3.954337	1.339766	0.000158
 118	1.1642e+01	4.6571	11.314073	0.000497	4.968270	1.683295	0.000199
 119	1.1741e+01	4.6972	11.467484	0.000385	3.852944	1.305413	0.000154
 120	1.1841e+01	4.7485	11.608784	0.000355	3.548764	1.202354	0.000142
 121	1.1940e+01	4.7726	11.774306	0.000416	4.157123	1.408472	0.000166
 122	1.2040e+01	4.8223	11.887346	0.000284	2.839011	0.961883	0.000114
 123	1.2139e+01	4.8640	12.085166	0.000497	4.968270	1.683295	0.000199
 124	1.2239e+01	4.8929	12.234540	0.000375	3.751550	1.271060	0.000150
 125	1.2338e+01	4.9362	12.363728	0.000324	3.244584	1.099295	0.000130
 126	1.2438e+01	4.9763	12.509065	0.000365	3.650157	1.236707	0.000146
 127	1.2537e+01	5.0180	12.650365	0.000355	3.548764	1.202354	0.000142
 128	1.2636e+01	5.0517	12.840110	0.000477	4.765483	1.614589	0.000191
 129	1.2736e+01	5.0999	12.957187	0.000294	2.940404	0.996236	0.000118
 130	1.2835e+01	5.1400	13.134821	0.000446	4.461303	1.511530	0.000179
 131	1.2935e+01	5.1849	13.292269	0.000395	3.954337	1.339766	0.000158
 132	1.3034e+01	5.2186	13.421458	0.000324	3.244584	1.099295	0.000130
 133	1.3134e+01	5.2635	13.582943	0.000406	4.055730	1.374119	0.000162
 134	1.3233e+01	5.3020	13.732317	0.000375	3.751550	1.271060	0.000150
 135	1.3333e+01	5.3373	13.889766	0.000395	3.954337	1.339766	0.000158
 136	1.3432e+01	5.3870	14.051251	0.000406	4.055730	1.374119	0.000162
 137	1.3532e+01	5.4207	14.224848	0.000436	4.359910	1.477177	0.000174
 138	1.3632e+01	5.4656	14.333850	0.000274	2.737618	0.927530	0.000110
 139	1.3731e+01	5.4961	14.499373	0.000416	4.157123	1.408472	0.000166
 140	1.3831e+01	5.5410	14.689118	0.000477	4.765483	1.614589	0.000191
 141	1.3930e+01	5.5859	14.846567	0.000395	3.954337	1.339766	0.000158
 142	1.4030e+01	5.6068	14.975755	0.000324	3.244584	1.099295	0.000130
 143	1.4129e+01	5.6597	15.125129	0.000375	3.751550	1.271060	0.000150
 144	1.4229e+01	5.7063	15.326986	0.000507	5.069663	1.717648	0.000203
 145	1.4328e+01	5.7287	15.468286	0.000355	3.548764	1.202354	0.000142
 146	1.4428e+01	5.7817	15.625734	0.000395	3.954337	1.339766	0.000158
 147	1.4527e+01	5.8202	15.771071	0.000365	3.650157	1.236707	0.000146
 148	1.4627e+01	5.8554	15.928519	0.000395	3.954337	1.339766	0.000158
 149	1.4726e+01	5.8988	16.094042	0.000416	4.157123	1.408472	0.000166
 150	1.4825e+01	5.9357	16.231304	0.000345	3.447371	1.168001	0.000138
 151	1.4925e+01	5.9806	16.392790	0.000406	4.055730	1.374119	0.000162
 152	1.5024e+01	6.0239	16.566387	0.000436	4.359910	1.477177	0.000174
 153	1.5124e+01	6.0624	16.735946	0.000426	4.258517	1.442825	0.000170
 154	1.5223e+01	6.0929	16.881283	0.000365	3.650157	1.236707	0.000146
 155	1.5323e+01	6.1298	17.050843	0.000426	4.258517	1.442825	0.000170
 156	1.5422e+01	6.1683	17.196180	0.000365	3.650157	1.236707	0.000146
 157	1.5522e+01	6.2084	17.333442	0.000345	3.447371	1.168001	0.000138
 158	1.5621e+01	6.2581	17.535299	0.000507	5.069663	1.717648	0.000203
 159	1.5721e+01	6.3014	17.684673	0.000375	3.751550	1.271060	0.000150
 160	1.5820e+01	6.3303	17.882493	0.000497	4.968270	1.683295	0.000199
 161	1.5920e+01	6.3736	18.003607	0.000304	3.041798	1.030589	0.000122
 162	1.6020e+01	6.4105	18.148944	0.000365	3.650157	1.236707	0.000146
 163	1.6119e+01	6.4522	18.322541	0.000436	4.359910	1.477177	0.000174
 164	1.6218e+01	6.4875	18.463840	0.000355	3.548764	1.202354	0.000142
 165	1.6318e+01	6.5340	18.605140	0.000355	3.548764	1.202354	0.000142
 166	1.6418e+01	6.5677	18.778737	0.000436	4.359910	1.477177	0.000174
 167	1.6517e+01	6.6078	18.928111	0.000375	3.751550	1.271060	0.000150
 168	1.6616e+01	6.6608	19.089596	0.000406	4.055730	1.374119	0.000162
 169	1.6716e+01	6.6848	19.218785	0.000324	3.244584	1.099295	0.000130
 170	1.6816e+01	6.7378	19.384307	0.000416	4.157123	1.408472	0.000166
 171	1.6915e+01	6.7618	19.586164	0.000507	5.069663	1.717648	0.000203
 172	1.7015e+01	6.8164	19.687092	0.000253	2.534831	0.858824	0.000101
 173	1.7114e+01	6.8533	19.868764	0.000456	4.562696	1.545883	0.000183
 174	1.7213e+01	6.8870	20.006026	0.000345	3.447371	1.168001	0.000138
 175	1.7313e+01	6.9319	20.191734	0.000466	4.664090	1.580236	0.000187
 176	1.7413e+01	6.9768	20.357257	0.000416	4.157123	1.408472	0.000166
 177	1.7512e+01	7.0105	20.458185	0.000253	2.534831	0.858824	0.000101
 178	1.7611e+01	7.0442	20.623708	0.000416	4.157123	1.408472	0.000166
 179	1.7711e+01	7.0971	20.797305	0.000436	4.359910	1.477177	0.000174
 180	1.7811e+01	7.1308	20.950716	0.000385	3.852944	1.305413	0.000154
 181	1.7910e+01	7.1709	21.075867	0.000314	3.143191	1.064942	0.000126
 182	1.8009e+01	7.2126	21.253501	0.000446	4.461303	1.511530	0.000179
 183	1.8109e+01	7.2495	21.419024	0.000416	4.157123	1.408472	0.000166
 184	1.8209e+01	7.2961	21.576472	0.000395	3.954337	1.339766	0.000158
 185	1.8308e+01	7.3297	21.713735	0.000345	3.447371	1.168001	0.000138
 186	1.8407e+01	7.3666	21.895406	0.000456	4.562696	1.545883	0.000183
 187	1.8507e+01	7.3987	22.056891	0.000406	4.055730	1.374119	0.000162
 188	1.8607e+01	7.4436	22.190117	0.000335	3.345977	1.133648	0.000134
 189	1.8706e+01	7.4918	22.371788	0.000456	4.562696	1.545883	0.000183
 190	1.8805e+01	7.5367	22.496939	0.000314	3.143191	1.064942	0.000126
 191	1.8905e+01	7.5640	22.670536	0.000436	4.359910	1.477177	0.000174
 192	1.9005e+01	7.6137	22.840095	0.000426	4.258517	1.442825	0.000170
 193	1.9104e+01	7.6474	22.949098	0.000274	2.737618	0.927530	0.000110
 194	1.9203e+01	7.6843	23.134806	0.000466	4.664090	1.580236	0.000187
 195	1.9303e+01	7.7180	23.231698	0.000243	2.433438	0.824471	0.000097
 196	1.9402e+01	7.7789	23.413369	0.000456	4.562696	1.545883	0.000183
 197	1.9502e+01	7.8062	23.578891	0.000416	4.157123	1.408472	0.000166
 198	1.9602e+01	7.8367	23.732302	0.000385	3.852944	1.305413	0.000154
 199	1.9701e+01	7.8816	23.909936	0.000446	4.461303	1.511530	0.000179
 200	1.9800e+01	7.9265	24.035088	0.000314	3.143191	1.064942	0.000126
 201	1.9900e+01	7.9602	24.184462	0.000375	3.751550	1.271060	0.000150
 202	2.0000e+01	7.9987	24.366133	0.000456	4.562696	1.545883	0.000183
 203	2.0099e+01	8.0565	24.458987	0.000233	2.332045	0.790118	0.000093
 204	2.0198e+01	8.0709	24.648732	0.000477	4.765483	1.614589	0.000191
 205	2.0298e+01	8.1222	24.802143	0.000385	3.852944	1.305413	0.000154
 206	2.0398e+01	8.1655	24.975740	0.000436	4.359910	1.477177	0.000174
 207	2.0497e+01	8.2057	25.169523	0.000487	4.866876	1.648942	0.000195
 208	2.0596e+01	8.2458	25.274488	0.000264	2.636225	0.893177	0.000105
 209	2.0696e+01	8.2827	25.444048	0.000426	4.258517	1.442825	0.000170
 210	2.0796e+01	8.3228	25.629756	0.000466	4.664090	1.580236	0.000187
 211	2.0895e+01	8.3693	25.750870	0.000304	3.041798	1.030589	0.000122
 212	2.0994e+01	8.4094	25.904281	0.000385	3.852944	1.305413	0.000154
 213	2.1094e+01	8.4463	26.057693	0.000385	3.852944	1.305413	0.000154
 214	2.1194e+01	8.4864	26.223215	0.000416	4.157123	1.408472	0.000166
 215	2.1293e+01	8.5217	26.388738	0.000416	4.157123	1.408472	0.000166
 216	2.1392e+01	8.5650	26.521963	0.000335	3.345977	1.133648	0.000134
 217	2.1492e+01	8.6051	26.639040	0.000294	2.940404	0.996236	0.000118
 218	2.1591e+01	8.6404	26.836860	0.000497	4.968270	1.683295	0.000199
 219	2.1691e+01	8.6805	26.966048	0.000324	3.244584	1.099295	0.000130
 220	2.1791e+01	8.7158	27.151756	0.000466	4.664090	1.580236	0.000187
 221	2.1890e+01	8.7623	27.357650	0.000517	5.171056	1.752001	0.000207
 222	2.1989e+01	8.8056	27.434356	0.000193	1.926472	0.652706	0.000077
 223	2.2089e+01	8.8377	27.595841	0.000406	4.055730	1.374119	0.000162
 224	2.2189e+01	8.8842	27.725030	0.000324	3.244584	1.099295	0.000130
 225	2.2288e+01	8.9211	27.918812	0.000487	4.866876	1.648942	0.000195
 226	2.2387e+01	8.9628	28.027815	0.000274	2.737618	0.927530	0.000110
 227	2.2487e+01	9.0110	28.213523	0.000466	4.664090	1.580236	0.000187
 228	2.2587e+01	9.0463	28.338674	0.000314	3.143191	1.064942	0.000126
 229	2.2686e+01	9.0832	28.492085	0.000385	3.852944	1.305413	0.000154
 230	2.2785e+01	9.1169	28.637422	0.000365	3.650157	1.236707	0.000146
 231	2.2885e+01	9.1602	28.782759	0.000365	3.650157	1.236707	0.000146
 232	2.2985e+01	9.1987	28.911948	0.000324	3.244584	1.099295	0.000130
 233	2.3084e+01	9.2468	29.138027	0.000568	5.678022	1.923766	0.000227
 234	2.3183e+01	9.2757	29.251067	0.000284	2.839011	0.961883	0.000114
 235	2.3283e+01	9.3206	29.376218	0.000314	3.143191	1.064942	0.000126
 236	2.3383e+01	9.3687	29.513481	0.000345	3.447371	1.168001	0.000138
 237	2.3482e+01	9.3976	29.691115	0.000446	4.461303	1.511530	0.000179
 238	2.3581e+01	9.4425	29.848563	0.000395	3.954337	1.339766	0.000158
 239	2.3681e+01	9.4682	30.006011	0.000395	3.954337	1.339766	0.000158
 240	2.3780e+01	9.5211	30.143274	0.000345	3.447371	1.168001	0.000138
 241	2.3880e+01	9.5628	30.272462	0.000324	3.244584	1.099295	0.000130
 242	2.3980e+01	9.5981	30.454133	0.000456	4.562696	1.545883	0.000183
 243	2.4079e+01	9.6479	30.599470	0.000365	3.650157	1.236707	0.000146
 244	2.4178e+01	9.6815	30.716547	0.000294	2.940404	0.996236	0.000118
 245	2.4278e+01	9.7200	30.845736	0.000324	3.244584	1.099295	0.000130
 246	2.4378e+01	9.7585	31.051630	0.000517	5.171056	1.752001	0.000207
 247	2.4477e+01	9.8035	31.184855	0.000335	3.345977	1.133648	0.000134
 248	2.4576e+01	9.8452	31.326155	0.000355	3.548764	1.202354	0.000142
 249	2.4676e+01	9.8757	31.479566	0.000385	3.852944	1.305413	0.000154
 250	2.4776e+01	9.9206	31.600680	0.000304	3.041798	1.030589	0.000122
 251	2.4875e+01	9.9591	31.790425	0.000477	4.765483	1.614589	0.000191
 252	2.4974e+01	9.9944	31.947874	0.000395	3.954337	1.339766	0.000158
 253	2.5074e+01	10.0441	32.093211	0.000365	3.650157	1.236707	0.000146
 254	2.5174e+01	10.0826	32.226436	0.000335	3.345977	1.133648	0.000134
 255	2.5273e+01	10.1179	32.383884	0.000395	3.954337	1.339766	0.000158
 256	2.5372e+01	10.1596	32.533258	0.000375	3.751550	1.271060	0.000150
 257	2.5472e+01	10.1997	32.678595	0.000365	3.650157	1.236707	0.000146
 258	2.5572e+01	10.2302	32.823932	0.000365	3.650157	1.236707	0.000146
 259	2.5671e+01	10.2751	32.981380	0.000395	3.954337	1.339766	0.000158
 260	2.5770e+01	10.3136	33.130754	0.000375	3.751550	1.271060	0.000150
 261	2.5870e+01	10.3569	33.219571	0.000223	2.230652	0.755765	0.000089
 262	2.5970e+01	10.3970	33.429502	0.000527	5.272449	1.786354	0.000211
 263	2.6069e+01	10.4371	33.554654	0.000314	3.143191	1.064942	0.000126
 264	2.6169e+01	10.4724	33.728251	0.000436	4.359910	1.477177	0.000174
 265	2.6268e+01	10.5222	33.861476	0.000335	3.345977	1.133648	0.000134
 266	2.6367e+01	10.5671	34.018924	0.000395	3.954337	1.339766	0.000158
 267	2.6467e+01	10.5944	34.156187	0.000345	3.447371	1.168001	0.000138
 268	2.6567e+01	10.6361	34.305561	0.000375	3.751550	1.271060	0.000150
 269	2.6666e+01	10.6778	34.463009	0.000395	3.954337	1.339766	0.000158
 270	2.6765e+01	10.7147	34.616420	0.000385	3.852944	1.305413	0.000154
 271	2.6865e+01	10.7564	34.790017	0.000436	4.359910	1.477177	0.000174
 272	2.6965e+01	10.7981	34.915168	0.000314	3.143191	1.064942	0.000126
 273	2.7064e+01	10.8382	35.048394	0.000335	3.345977	1.133648	0.000134
 274	2.7163e+01	10.8783	35.209879	0.000406	4.055730	1.374119	0.000162
 275	2.7263e+01	10.9136	35.351179	0.000355	3.548764	1.202354	0.000142
 276	2.7363e+01	10.9569	35.508627	0.000395	3.954337	1.339766	0.000158
 277	2.7462e+01	10.9986	35.645890	0.000345	3.447371	1.168001	0.000138
 278	2.7561e+01	11.0371	35.803338	0.000395	3.954337	1.339766	0.000158
 279	2.7661e+01	11.0676	35.936564	0.000335	3.345977	1.133648	0.000134
 280	2.7761e+01	11.1141	36.114198	0.000446	4.461303	1.511530	0.000179
 281	2.7860e+01	11.1494	36.247423	0.000335	3.345977	1.133648	0.000134
 282	2.7959e+01	11.1991	36.412946	0.000416	4.157123	1.408472	0.000166
 283	2.8059e+01	11.2312	36.550208	0.000345	3.447371	1.168001	0.000138
 284	2.8159e+01	11.2665	36.675360	0.000314	3.143191	1.064942	0.000126
 285	2.8258e+01	11.3130	36.852994	0.000446	4.461303	1.511530	0.000179
 286	2.8358e+01	11.3499	37.014479	0.000406	4.055730	1.374119	0.000162
 287	2.8457e+01	11.3933	37.147704	0.000335	3.345977	1.133648	0.000134
 288	2.8556e+01	11.4286	37.252670	0.000264	2.636225	0.893177	0.000105
 289	2.8656e+01	11.4767	37.377821	0.000314	3.143191	1.064942	0.000126
 290	2.8756e+01	11.5072	37.563529	0.000466	4.664090	1.580236	0.000187
 291	2.8855e+01	11.5441	37.716941	0.000385	3.852944	1.305413	0.000154
 292	2.8954e+01	11.5954	37.838055	0.000304	3.041798	1.030589	0.000122
 293	2.9054e+01	11.6339	38.003577	0.000416	4.157123	1.408472	0.000166
 294	2.9154e+01	11.6660	38.148914	0.000365	3.650157	1.236707	0.000146
 295	2.9253e+01	11.7141	38.322511	0.000436	4.359910	1.477177	0.000174
 296	2.9352e+01	11.7590	38.455736	0.000335	3.345977	1.133648	0.000134
 297	2.9452e+01	11.7943	38.597036	0.000355	3.548764	1.202354	0.000142
 298	2.9552e+01	11.8360	38.750447	0.000385	3.852944	1.305413	0.000154
 299	2.9651e+01	11.8761	38.883673	0.000335	3.345977	1.133648	0.000134
 300	2.9750e+01	11.9146	39.033047	0.000375	3.751550	1.271060	0.000150
 301	2.9850e+01	11.9612	39.198569	0.000416	4.157123	1.408472	0.000166
 302	2.9950e+01	11.9868	39.307572	0.000274	2.737618	0.927530	0.000110
 303	3.0049e+01	12.0382	39.428686	0.000304	3.041798	1.030589	0.000122
 304	3.0148e+01	12.0590	39.594209	0.000416	4.157123	1.408472	0.000166
 305	3.0248e+01	12.1023	39.731471	0.000345	3.447371	1.168001	0.000138
 306	3.0348e+01	12.1505	39.917180	0.000466	4.664090	1.580236	0.000187
 307	3.0447e+01	12.1890	40.038294	0.000304	3.041798	1.030589	0.000122
 308	3.0547e+01	12.2275	40.199779	0.000406	4.055730	1.374119	0.000162
 309	3.0646e+01	12.2724	40.337042	0.000345	3.447371	1.168001	0.000138
 310	3.0745e+01	12.3061	40.478341	0.000355	3.548764	1.202354	0.000142
 311	3.0845e+01	12.3542	40.603493	0.000314	3.143191	1.064942	0.000126
 312	3.0945e+01	12.3911	40.797275	0.000487	4.866876	1.648942	0.000195
 313	3.1044e+01	12.4216	40.922426	0.000314	3.143191	1.064942	0.000126
 314	3.1143e+01	12.4649	41.059689	0.000345	3.447371	1.168001	0.000138
 315	3.1243e+01	12.5098	41.229249	0.000426	4.258517	1.442825	0.000170
 316	3.1343e+01	12.5515	41.382660	0.000385	3.852944	1.305413	0.000154
 317	3.1442e+01	12.5820	41.519922	0.000345	3.447371	1.168001	0.000138
 318	3.1541e+01	12.6253	41.689482	0.000426	4.258517	1.442825	0.000170
 319	3.1641e+01	12.6750	41.806559	0.000294	2.940404	0.996236	0.000118
 320	3.1741e+01	12.7200	42.012453	0.000517	5.171056	1.752001	0.000207
 321	3.1840e+01	12.7440	42.145679	0.000335	3.345977	1.133648	0.000134
 322	3.1939e+01	12.7889	42.278904	0.000335	3.345977	1.133648	0.000134
 323	3.2039e+01	12.8307	42.424241	0.000365	3.650157	1.236707	0.000146
 324	3.2139e+01	12.8643	42.589763	0.000416	4.157123	1.408472	0.000166
 325	3.2238e+01	12.9028	42.686655	0.000243	2.433438	0.824471	0.000097
 326	3.2337e+01	12.9397	42.856214	0.000426	4.258517	1.442825	0.000170
 327	3.2437e+01	12.9831	43.021737	0.000416	4.157123	1.408472	0.000166
 328	3.2536e+01	13.0200	43.191297	0.000426	4.258517	1.442825	0.000170
 329	3.2636e+01	13.0569	43.304336	0.000284	2.839011	0.961883	0.000114
 330	3.2736e+01	13.1098	43.461785	0.000395	3.954337	1.339766	0.000158
 331	3.2835e+01	13.1371	43.599047	0.000345	3.447371	1.168001	0.000138
 332	3.2934e+01	13.1772	43.752459	0.000385	3.852944	1.305413	0.000154
 333	3.3034e+01	13.2237	43.909907	0.000395	3.954337	1.339766	0.000158
 334	3.3133e+01	13.2734	44.063318	0.000385	3.852944	1.305413	0.000154
 335	3.3233e+01	13.3151	44.224803	0.000406	4.055730	1.374119	0.000162
 336	3.3333e+01	13.3440	44.325732	0.000253	2.534831	0.858824	0.000101
 337	3.3432e+01	13.3825	44.471069	0.000365	3.650157	1.236707	0.000146
 338	3.3532e+01	13.4194	44.608331	0.000345	3.447371	1.168001	0.000138
 339	3.3631e+01	13.4547	44.781928	0.000436	4.359910	1.477177	0.000174
 340	3.3730e+01	13.5012	44.899005	0.000294	2.940404	0.996236	0.000118
 341	3.3830e+01	13.5381	45.108936	0.000527	5.272449	1.786354	0.000211
 342	3.3929e+01	13.5911	45.205827	0.000243	2.433438	0.824471	0.000097
 343	3.4029e+01	13.6328	45.367313	0.000406	4.055730	1.374119	0.000162
 344	3.4129e+01	13.6665	45.520724	0.000385	3.852944	1.305413	0.000154
 345	3.4228e+01	13.7034	45.694321	0.000436	4.359910	1.477177	0.000174
 346	3.4328e+01	13.7370	45.791212	0.000243	2.433438	0.824471	0.000097
 347	3.4427e+01	13.7836	45.924438	0.000335	3.345977	1.133648	0.000134
 348	3.4526e+01	13.8237	46.061700	0.000345	3.447371	1.168001	0.000138
 349	3.4626e+01	13.8606	46.223186	0.000406	4.055730	1.374119	0.000162
 350	3.4725e+01	13.8927	46.380634	0.000395	3.954337	1.339766	0.000158
 351	3.4825e+01	13.9440	46.530008	0.000375	3.751550	1.271060	0.000150
 352	3.4925e+01	13.9825	46.683419	0.000385	3.852944	1.305413	0.000154
 353	3.5024e+01	14.0242	46.820682	0.000345	3.447371	1.168001	0.000138
 354	3.5123e+01	14.0499	46.953907	0.000335	3.345977	1.133648	0.000134
 355	3.5223e+01	14.0996	47.111355	0.000395	3.954337	1.339766	0.000158
 356	3.5322e+01	14.1285	47.252655	0.000355	3.548764	1.202354	0.000142
 357	3.5422e+01	14.1734	47.418178	0.000416	4.157123	1.408472	0.000166
 358	3.5522e+01	14.2247	47.555440	0.000345	3.447371	1.168001	0.000138
 359	3.5621e+01	14.2584	47.688666	0.000335	3.345977	1.133648	0.000134
 360	3.5721e+01	14.3033	47.789594	0.000253	2.534831	0.858824	0.000101
 361	3.5820e+01	14.3370	47.971265	0.000456	4.562696	1.545883	0.000183
 362	3.5919e+01	14.3868	48.116602	0.000365	3.650157	1.236707	0.000146
 363	3.6019e+01	14.4253	48.237716	0.000304	3.041798	1.030589	0.000122
 364	3.6118e+01	14.4654	48.411313	0.000436	4.359910	1.477177	0.000174
 365	3.6218e+01	14.5071	48.576836	0.000416	4.157123	1.408472	0.000166
 366	3.6318e+01	14.5440	48.710061	0.000335	3.345977	1.133648	0.000134
 367	3.6417e+01	14.5809	48.794841	0.000213	2.129258	0.721412	0.000085
 368	3.6517e+01	14.6146	48.980549	0.000466	4.664090	1.580236	0.000187
 369	3.6616e+01	14.6531	49.109738	0.000324	3.244584	1.099295	0.000130
 370	3.6715e+01	14.7012	49.263149	0.000385	3.852944	1.305413	0.000154
 371	3.6815e+01	14.7349	49.428671	0.000416	4.157123	1.408472	0.000166
 372	3.6914e+01	14.7862	49.578045	0.000375	3.751550	1.271060	0.000150
 373	3.7014e+01	14.8247	49.715308	0.000345	3.447371	1.168001	0.000138
 374	3.7114e+01	14.8520	49.852571	0.000345	3.447371	1.168001	0.000138
 375	3.7213e+01	14.9033	50.062502	0.000527	5.272449	1.786354	0.000211
 376	3.7313e+01	14.9418	50.139207	0.000193	1.926472	0.652706	0.000077
 377	3.7412e+01	14.9771	50.332990	0.000487	4.866876	1.648942	0.000195
 378	3.7511e+01	15.0172	50.385473	0.000132	1.318112	0.446589	0.000053
 379	3.7611e+01	15.0573	50.550995	0.000416	4.157123	1.408472	0.000166
 380	3.7711e+01	15.0958	50.716518	0.000416	4.157123	1.408472	0.000166
 381	3.7810e+01	15.1375	50.898189	0.000456	4.562696	1.545883	0.000183
 382	3.7910e+01	15.1664	51.015266	0.000294	2.940404	0.996236	0.000118
 383	3.8009e+01	15.2210	51.180788	0.000416	4.157123	1.408472	0.000166
 384	3.8108e+01	15.2530	51.314014	0.000335	3.345977	1.133648	0.000134
 385	3.8208e+01	15.2883	51.483573	0.000426	4.258517	1.442825	0.000170
 386	3.8307e+01	15.3429	51.584502	0.000253	2.534831	0.858824	0.000101
 387	3.8407e+01	15.3702	51.737913	0.000385	3.852944	1.305413	0.000154
 388	3.8507e+01	15.4199	51.883250	0.000365	3.650157	1.236707	0.000146
 389	3.8606e+01	15.4472	52.016475	0.000335	3.345977	1.133648	0.000134
 390	3.8706e+01	15.4969	52.165849	0.000375	3.751550	1.271060	0.000150
 391	3.8805e+01	15.5338	52.307149	0.000355	3.548764	1.202354	0.000142
 392	3.8904e+01	15.5787	52.464597	0.000395	3.954337	1.339766	0.000158
 393	3.9004e+01	15.6140	52.605897	0.000355	3.548764	1.202354	0.000142
 394	3.9103e+01	15.6573	52.759308	0.000385	3.852944	1.305413	0.000154
 395	3.9203e+01	15.6974	52.872348	0.000284	2.839011	0.961883	0.000114
 396	3.9303e+01	15.7279	53.001537	0.000324	3.244584	1.099295	0.000130
 397	3.9402e+01	15.7760	53.163022	0.000406	4.055730	1.374119	0.000162
 398	3.9502e+01	15.8161	53.308359	0.000365	3.650157	1.236707	0.000146
 399	3.9601e+01	15.8562	53.429473	0.000304	3.041798	1.030589	0.000122
 400	3.9700e+01	15.8915	53.550587	0.000304	3.041798	1.030589	0.000122
 401	3.9800e+01	15.9381	53.736295	0.000466	4.664090	1.580236	0.000187
 402	3.9900e+01	15.9701	53.877595	0.000355	3.548764	1.202354	0.000142
 403	3.9999e+01	16.0038	53.970449	0.000233	2.332045	0.790118	0.000093
 404	4.0099e+01	16.0471	54.135972	0.000416	4.157123	1.408472	0.000166
 405	4.0198e+01	16.0937	54.293420	0.000395	3.954337	1.339766	0.000158
 406	4.0297e+01	16.1370	54.434720	0.000355	3.548764	1.202354	0.000142
 407	4.0397e+01	16.1739	54.551797	0.000294	2.940404	0.996236	0.000118
 408	4.0496e+01	16.2140	54.668874	0.000294	2.940404	0.996236	0.000118
 409	4.0596e+01	16.2653	54.846508	0.000446	4.461303	1.511530	0.000179
 410	4.0696e+01	16.2846	55.003956	0.000395	3.954337	1.339766	0.000158
 411	4.0795e+01	16.3247	55.125070	0.000304	3.041798	1.030589	0.000122
 412	4.0895e+01	16.3616	55.282518	0.000395	3.954337	1.339766	0.000158
 413	4.0994e+01	16.4129	55.379409	0.000243	2.433438	0.824471	0.000097
 414	4.1093e+01	16.4498	55.557043	0.000446	4.461303	1.511530	0.000179
 415	4.1193e+01	16.4803	55.666046	0.000274	2.737618	0.927530	0.000110
 416	4.1292e+01	16.5252	55.827532	0.000406	4.055730	1.374119	0.000162
 417	4.1392e+01	16.5717	55.972868	0.000365	3.650157	1.236707	0.000146
 418	4.1492e+01	16.6102	56.122242	0.000375	3.751550	1.271060	0.000150
 419	4.1591e+01	16.6407	56.259505	0.000345	3.447371	1.168001	0.000138
 420	4.1691e+01	16.6888	56.384656	0.000314	3.143191	1.064942	0.000126
 421	4.1790e+01	16.7289	56.538067	0.000385	3.852944	1.305413	0.000154
 422	4.1889e+01	16.7706	56.671293	0.000335	3.345977	1.133648	0.000134
 423	4.1989e+01	16.8043	56.836815	0.000416	4.157123	1.408472	0.000166
 424	4.2089e+01	16.8509	56.941781	0.000264	2.636225	0.893177	0.000105
 425	4.2188e+01	16.8846	57.091155	0.000375	3.751550	1.271060	0.000150
 426	4.2288e+01	16.9343	57.248603	0.000395	3.954337	1.339766	0.000158
 427	4.2387e+01	16.9776	57.365680	0.000294	2.940404	0.996236	0.000118
 428	4.2486e+01	17.0049	57.527166	0.000406	4.055730	1.374119	0.000162
 429	4.2586e+01	17.0498	57.668465	0.000355	3.548764	1.202354	0.000142
 430	4.2685e+01	17.0835	57.801691	0.000335	3.345977	1.133648	0.000134
 431	4.2785e+01	17.1252	57.947028	0.000365	3.650157	1.236707	0.000146
 432	4.2885e+01	17.1653	58.100439	0.000385	3.852944	1.305413	0.000154
 433	4.2984e+01	17.2022	58.241739	0.000355	3.548764	1.202354	0.000142
 434	4.3084e+01	17.2503	58.358816	0.000294	2.940404	0.996236	0.000118
 435	4.3183e+01	17.2872	58.528375	0.000426	4.258517	1.442825	0.000170
 436	4.3282e+01	17.3273	58.649489	0.000304	3.041798	1.030589	0.000122
 437	4.3382e+01	17.3674	58.774641	0.000314	3.143191	1.064942	0.000126
 438	4.3481e+01	17.4156	58.924015	0.000375	3.751550	1.271060	0.000150
 439	4.3581e+01	17.4476	59.061277	0.000345	3.447371	1.168001	0.000138
 440	4.3681e+01	17.4893	59.182391	0.000304	3.041798	1.030589	0.000122
 441	4.3780e+01	17.5327	59.335803	0.000385	3.852944	1.305413	0.000154
 442	4.3880e+01	17.5663	59.517474	0.000456	4.562696	1.545883	0.000183
 443	4.3979e+01	17.6113	59.650699	0.000335	3.345977	1.133648	0.000134
 444	4.4078e+01	17.6514	59.759702	0.000274	2.737618	0.927530	0.000110
 445	4.4178e+01	17.6915	59.909076	0.000375	3.751550	1.271060	0.000150
 446	4.4278e+01	17.7188	60.058450	0.000375	3.751550	1.271060	0.000150
 447	4.4377e+01	17.7781	60.219935	0.000406	4.055730	1.374119	0.000162
 448	4.4477e+01	17.8102	60.361235	0.000355	3.548764	1.202354	0.000142
 449	4.4576e+01	17.8487	60.494460	0.000335	3.345977	1.133648	0.000134
 450	4.4675e+01	17.8776	60.623649	0.000324	3.244584	1.099295	0.000130
 451	4.4775e+01	17.9209	60.756874	0.000335	3.345977	1.133648	0.000134
 452	4.4874e+01	17.9626	60.882025	0.000314	3.143191	1.064942	0.000126
 453	4.4974e+01	18.0027	61.043511	0.000406	4.055730	1.374119	0.000162
 454	4.5074e+01	18.0492	61.213071	0.000426	4.258517	1.442825	0.000170
 455	4.5173e+01	18.0829	61.293813	0.000203	2.027865	0.687059	0.000081
 456	4.5273e+01	18.1326	61.443187	0.000375	3.751550	1.271060	0.000150
 457	4.5372e+01	18.1631	61.596599	0.000385	3.852944	1.305413	0.000154
 458	4.5471e+01	18.2129	61.745973	0.000375	3.751550	1.271060	0.000150
 459	4.5571e+01	18.2514	61.879198	0.000335	3.345977	1.133648	0.000134
 460	4.5670e+01	18.2866	61.963978	0.000213	2.129258	0.721412	0.000085
 461	4.5770e+01	18.3123	62.133538	0.000426	4.258517	1.442825	0.000170
 462	4.5870e+01	18.3669	62.282912	0.000375	3.751550	1.271060	0.000150
 463	4.5969e+01	18.4070	62.420174	0.000345	3.447371	1.168001	0.000138
 464	4.6069e+01	18.4407	62.581660	0.000406	4.055730	1.374119	0.000162
 465	4.6168e+01	18.4888	62.674514	0.000233	2.332045	0.790118	0.000093
 466	4.6267e+01	18.5337	62.795628	0.000304	3.041798	1.030589	0.000122
 467	4.6367e+01	18.5674	62.997485	0.000507	5.069663	1.717648	0.000203
 468	4.6467e+01	18.5931	63.110524	0.000284	2.839011	0.961883	0.000114
 469	4.6566e+01	18.6364	63.255861	0.000365	3.650157	1.236707	0.000146
 470	4.6666e+01	18.6861	63.381013	0.000314	3.143191	1.064942	0.000126
 471	4.6765e+01	18.7230	63.522312	0.000355	3.548764	1.202354	0.000142
 472	4.6864e+01	18.7503	63.699946	0.000446	4.461303	1.511530	0.000179
 473	4.6964e+01	18.8048	63.800875	0.000253	2.534831	0.858824	0.000101
 474	4.7063e+01	18.8465	63.974471	0.000436	4.359910	1.477177	0.000174
 475	4.7163e+01	18.8818	64.083474	0.000274	2.737618	0.927530	0.000110
 476	4.7263e+01	18.9187	64.196514	0.000284	2.839011	0.961883	0.000114
 477	4.7362e+01	18.9524	64.325702	0.000324	3.244584	1.099295	0.000130
 478	4.7462e+01	19.0053	64.503336	0.000446	4.461303	1.511530	0.000179
 479	4.7561e+01	19.0471	64.652710	0.000375	3.751550	1.271060	0.000150
 480	4.7660e+01	19.0856	64.798047	0.000365	3.650157	1.236707	0.000146
 481	4.7760e+01	19.1160	64.959533	0.000406	4.055730	1.374119	0.000162
 482	4.7859e+01	19.1642	65.080647	0.000304	3.041798	1.030589	0.000122
 483	4.7959e+01	19.2043	65.213872	0.000335	3.345977	1.133648	0.000134
 484	4.8059e+01	19.2380	65.347098	0.000335	3.345977	1.133648	0.000134
 485	4.8158e+01	19.2925	65.492435	0.000365	3.650157	1.236707	0.000146
 486	4.8258e+01	19.3230	65.645846	0.000385	3.852944	1.305413	0.000154
 487	4.8357e+01	19.3679	65.754848	0.000274	2.737618	0.927530	0.000110
 488	4.8456e+01	19.4080	65.875962	0.000304	3.041798	1.030589	0.000122
 489	4.8556e+01	19.4497	66.069745	0.000487	4.866876	1.648942	0.000195
 490	4.8656e+01	19.4786	66.194896	0.000314	3.143191	1.064942	0.000126
 491	4.8755e+01	19.5235	66.360419	0.000416	4.157123	1.408472	0.000166
 492	4.8855e+01	19.5572	66.477496	0.000294	2.940404	0.996236	0.000118
 493	4.8954e+01	19.6005	66.643018	0.000416	4.157123	1.408472	0.000166
 494	4.9053e+01	19.6310	66.760095	0.000294	2.940404	0.996236	0.000118
 495	4.9153e+01	19.6775	66.905432	0.000365	3.650157	1.236707	0.000146
 496	4.9252e+01	19.7224	67.050769	0.000365	3.650157	1.236707	0.000146
 497	4.9352e+01	19.7641	67.159772	0.000274	2.737618	0.927530	0.000110
 498	4.9452e+01	19.7962	67.333368	0.000436	4.359910	1.477177	0.000174
 499	4.9551e+01	19.8379	67.494854	0.000406	4.055730	1.374119	0.000162
 500	4.9651e+01	19.8748	67.591745	0.000243	2.433438	0.824471	0.000097
 501	4.9750e+01	19.9198	67.765342	0.000436	4.359910	1.477177	0.000174
 502	4.9849e+01	19.9454	67.922790	0.000395	3.954337	1.339766	0.000158
 503	4.9949e+01	20.0000	68.027756	0.000264	2.636225	0.893177	0.000105
 504	5.0048e+01	19.9599	67.951050	0.000193	1.926472	0.652706	-0.000077
 505	5.0148e+01	19.9133	67.838010	0.000284	2.839011	0.961883	-0.000114
 506	5.0248e+01	19.8764	67.708822	0.000324	3.244584	1.099295	-0.000130
 507	5.0347e+01	19.8347	67.615968	0.000233	2.332045	0.790118	-0.000093
 508	5.0447e+01	19.7978	67.511002	0.000264	2.636225	0.893177	-0.000105
 509	5.0546e+01	19.7545	67.397963	0.000284	2.839011	0.961883	-0.000114
 510	5.0645e+01	19.7208	67.313183	0.000213	2.129258	0.721412	-0.000085
 511	5.0745e+01	19.6839	67.196106	0.000294	2.940404	0.996236	-0.000118
 512	5.0844e+01	19.6358	67.050769	0.000365	3.650157	1.236707	-0.000146
 513	5.0944e+01	19.5973	66.941766	0.000274	2.737618	0.927530	-0.000110
 514	5.1044e+01	19.5588	66.844875	0.000243	2.433438	0.824471	-0.000097
 515	5.1143e+01	19.5219	66.735872	0.000274	2.737618	0.927530	-0.000110
 516	5.1242e+01	19.4850	66.610721	0.000314	3.143191	1.064942	-0.000126
 517	5.1342e+01	19.4369	66.501718	0.000274	2.737618	0.927530	-0.000110
 518	5.1441e+01	19.3936	66.372530	0.000324	3.244584	1.099295	-0.000130
 519	5.1541e+01	19.3615	66.279676	0.000233	2.332045	0.790118	-0.000093
 520	5.1641e+01	19.3278	66.166636	0.000284	2.839011	0.961883	-0.000114
 521	5.1740e+01	19.2781	66.053596	0.000284	2.839011	0.961883	-0.000114
 522	5.1840e+01	19.2396	65.932482	0.000304	3.041798	1.030589	-0.000122
 523	5.1939e+01	19.2027	65.823480	0.000274	2.737618	0.927530	-0.000110
 524	5.2038e+01	19.1529	65.702366	0.000304	3.041798	1.030589	-0.000122
 525	5.2138e+01	19.1353	65.577214	0.000314	3.143191	1.064942	-0.000126
 526	5.2237e+01	19.0823	65.476286	0.000253	2.534831	0.858824	-0.000101
 527	5.2337e+01	19.0278	65.383432	0.000233	2.332045	0.790118	-0.000093
 528	5.2437e+01	19.0005	65.262318	0.000304	3.041798	1.030589	-0.000122
 529	5.2536e+01	18.9604	65.145241	0.000294	2.940404	0.996236	-0.000118
 530	5.2636e+01	18.9235	64.999904	0.000365	3.650157	1.236707	-0.000146
 531	5.2735e+01	18.8738	64.886864	0.000284	2.839011	0.961883	-0.000114
 532	5.2834e+01	18.8369	64.785936	0.000253	2.534831	0.858824	-0.000101
 533	5.2934e+01	18.7952	64.652710	0.000335	3.345977	1.133648	-0.000134
 534	5.3033e+01	18.7727	64.543708	0.000274	2.737618	0.927530	-0.000110
 535	5.3133e+01	18.7214	64.378185	0.000416	4.157123	1.408472	-0.000166
 536	5.3233e+01	18.6861	64.297442	0.000203	2.027865	0.687059	-0.000081
 537	5.3332e+01	18.6412	64.180365	0.000294	2.940404	0.996236	-0.000118
 538	5.3431e+01	18.6059	64.051177	0.000324	3.244584	1.099295	-0.000130
 539	5.3531e+01	18.5674	63.926026	0.000314	3.143191	1.064942	-0.000126
 540	5.3630e+01	18.5209	63.825097	0.000253	2.534831	0.858824	-0.000101
 541	5.3730e+01	18.4856	63.683798	0.000355	3.548764	1.202354	-0.000142
 542	5.3830e+01	18.4391	63.599018	0.000213	2.129258	0.721412	-0.000085
 543	5.3929e+01	18.4038	63.449644	0.000375	3.751550	1.271060	-0.000150
 544	5.4029e+01	18.3653	63.348715	0.000253	2.534831	0.858824	-0.000101
 545	5.4128e+01	18.3139	63.203379	0.000365	3.650157	1.236707	-0.000146
 546	5.4227e+01	18.2883	63.074190	0.000324	3.244584	1.099295	-0.000130
 547	5.4327e+01	18.2417	62.989410	0.000213	2.129258	0.721412	-0.000085
 548	5.4426e+01	18.2096	62.848111	0.000355	3.548764	1.202354	-0.000142
 549	5.4526e+01	18.1663	62.743145	0.000264	2.636225	0.893177	-0.000105
 550	5.4626e+01	18.1246	62.622031	0.000304	3.041798	1.030589	-0.000122
 551	5.4725e+01	18.0813	62.488806	0.000335	3.345977	1.133648	-0.000134
 552	5.4825e+01	18.0492	62.424211	0.000162	1.622292	0.549647	-0.000065
 553	5.4924e+01	18.0011	62.274837	0.000375	3.751550	1.271060	-0.000150
 554	5.5023e+01	17.9722	62.105278	0.000426	4.258517	1.442825	-0.000170
 555	5.5123e+01	17.9161	62.048758	0.000142	1.419506	0.480942	-0.000057
 556	5.5222e+01	17.8808	61.891309	0.000395	3.954337	1.339766	-0.000158
 557	5.5322e+01	17.8455	61.790381	0.000253	2.534831	0.858824	-0.000101
 558	5.5422e+01	17.8054	61.649081	0.000355	3.548764	1.202354	-0.000142
 559	5.5521e+01	17.7637	61.523930	0.000314	3.143191	1.064942	-0.000126
 560	5.5620e+01	17.7300	61.402816	0.000304	3.041798	1.030589	-0.000122
 561	5.5720e+01	17.6867	61.265553	0.000345	3.447371	1.168001	-0.000138
 562	5.5819e+01	17.6434	61.152514	0.000284	2.839011	0.961883	-0.000114
 563	5.5919e+01	17.6049	61.027362	0.000314	3.143191	1.064942	-0.000126
 564	5.6019e+01	17.5631	60.894137	0.000335	3.345977	1.133648	-0.000134
 565	5.6118e+01	17.5262	60.748800	0.000365	3.650157	1.236707	-0.000146
 566	5.6218e+01	17.4942	60.615575	0.000335	3.345977	1.133648	-0.000134
 567	5.6317e+01	17.4524	60.482349	0.000335	3.345977	1.133648	-0.000134
 568	5.6416e+01	17.3963	60.373346	0.000274	2.737618	0.927530	-0.000110
 569	5.6516e+01	17.3787	60.248195	0.000314	3.143191	1.064942	-0.000126
 570	5.6615e+01	17.3273	60.102858	0.000365	3.650157	1.236707	-0.000146
 571	5.6715e+01	17.2904	59.997893	0.000264	2.636225	0.893177	-0.000105
 572	5.6815e+01	17.2519	59.884853	0.000284	2.839011	0.961883	-0.000114
 573	5.6914e+01	17.2054	59.735479	0.000375	3.751550	1.271060	-0.000150
 574	5.7014e+01	17.1733	59.598216	0.000345	3.447371	1.168001	-0.000138
 575	5.7113e+01	17.1300	59.444805	0.000385	3.852944	1.305413	-0.000154
 576	5.7212e+01	17.0835	59.376174	0.000172	1.723685	0.584000	-0.000069
 577	5.7312e+01	17.0418	59.242948	0.000335	3.345977	1.133648	-0.000134
 578	5.7411e+01	16.9985	59.113760	0.000324	3.244584	1.099295	-0.000130
 579	5.7511e+01	16.9696	58.980535	0.000335	3.345977	1.133648	-0.000134
 580	5.7611e+01	16.9231	58.855383	0.000314	3.143191	1.064942	-0.000126
 581	5.7710e+01	16.8894	58.714084	0.000355	3.548764	1.202354	-0.000142
 582	5.7809e+01	16.8525	58.556635	0.000395	3.954337	1.339766	-0.000158
 583	5.7909e+01	16.8059	58.455707	0.000253	2.534831	0.858824	-0.000101
 584	5.8008e+01	16.7610	58.387076	0.000172	1.723685	0.584000	-0.000069
 585	5.8108e+01	16.7193	58.205405	0.000456	4.562696	1.545883	-0.000183
 586	5.8208e+01	16.6904	58.088328	0.000294	2.940404	0.996236	-0.000118
 587	5.8307e+01	16.6535	57.963176	0.000314	3.143191	1.064942	-0.000126
 588	5.8407e+01	16.6086	57.825914	0.000345	3.447371	1.168001	-0.000138
 589	5.8506e+01	16.5733	57.652317	0.000436	4.359910	1.477177	-0.000174
 590	5.8605e+01	16.5364	57.539277	0.000284	2.839011	0.961883	-0.000114
 591	5.8705e+01	16.4883	57.442386	0.000243	2.433438	0.824471	-0.000097
 592	5.8804e+01	16.4578	57.317235	0.000314	3.143191	1.064942	-0.000126
 593	5.8904e+01	16.4097	57.135564	0.000456	4.562696	1.545883	-0.000183
 594	5.9004e+01	16.3696	57.042709	0.000233	2.332045	0.790118	-0.000093
 595	5.9103e+01	16.3295	56.917558	0.000314	3.143191	1.064942	-0.000126
 596	5.9203e+01	16.2910	56.824704	0.000233	2.332045	0.790118	-0.000093
 597	5.9302e+01	16.2605	56.667256	0.000395	3.954337	1.339766	-0.000158
 598	5.9401e+01	16.2092	56.529993	0.000345	3.447371	1.168001	-0.000138
 599	5.9501e+01	16.1642	56.400805	0.000324	3.244584	1.099295	-0.000130
 600	5.9600e+01	16.1306	56.283728	0.000294	2.940404	0.996236	-0.000118
 601	5.9700e+01	16.0824	56.154540	0.000324	3.244584	1.099295	-0.000130
 602	5.9800e+01	16.0568	56.029388	0.000314	3.143191	1.064942	-0.000126
 603	5.9899e+01	16.0151	55.888089	0.000355	3.548764	1.202354	-0.000142
 604	5.9998e+01	15.9685	55.730640	0.000395	3.954337	1.339766	-0.000158
 605	6.0098e+01	15.9381	55.609526	0.000304	3.041798	1.030589	-0.000122
 606	6.0197e+01	15.8979	55.512635	0.000243	2.433438	0.824471	-0.000097
 607	6.0297e+01	15.8562	55.375372	0.000345	3.447371	1.168001	-0.000138
 608	6.0397e+01	15.8097	55.238110	0.000345	3.447371	1.168001	-0.000138
 609	6.0496e+01	15.7808	55.104884	0.000335	3.345977	1.133648	-0.000134
 610	6.0596e+01	15.7375	54.975696	0.000324	3.244584	1.099295	-0.000130
 611	6.0695e+01	15.6990	54.838433	0.000345	3.447371	1.168001	-0.000138
 612	6.0794e+01	15.6589	54.709245	0.000324	3.244584	1.099295	-0.000130
 613	6.0894e+01	15.6236	54.576019	0.000335	3.345977	1.133648	-0.000134
 614	6.0993e+01	15.5771	54.475091	0.000253	2.534831	0.858824	-0.000101
 615	6.1093e+01	15.5338	54.337828	0.000345	3.447371	1.168001	-0.000138
 616	6.1193e+01	15.5017	54.220752	0.000294	2.940404	0.996236	-0.000118
 617	6.1292e+01	15.4504	54.103675	0.000294	2.940404	0.996236	-0.000118
 618	6.1392e+01	15.4215	53.946226	0.000395	3.954337	1.339766	-0.000158
 619	6.1491e+01	15.3830	53.796852	0.000375	3.751550	1.271060	-0.000150
 620	6.1590e+01	15.3381	53.675738	0.000304	3.041798	1.030589	-0.000122
 621	6.1690e+01	15.2964	53.542513	0.000335	3.345977	1.133648	-0.000134
 622	6.1789e+01	15.2563	53.425436	0.000294	2.940404	0.996236	-0.000118
 623	6.1889e+01	15.2097	53.288173	0.000345	3.447371	1.168001	-0.000138
 624	6.1989e+01	15.1793	53.171096	0.000294	2.940404	0.996236	-0.000118
 625	6.2088e+01	15.1311	53.025759	0.000365	3.650157	1.236707	-0.000146
 626	6.2188e+01	15.0958	52.912720	0.000284	2.839011	0.961883	-0.000114
 627	6.2287e+01	15.0589	52.731048	0.000456	4.562696	1.545883	-0.000183
 628	6.2386e+01	15.0204	52.618009	0.000284	2.839011	0.961883	-0.000114
 629	6.2486e+01	14.9739	52.513043	0.000264	2.636225	0.893177	-0.000105
 630	6.2586e+01	14.9306	52.383855	0.000324	3.244584	1.099295	-0.000130
 631	6.2685e+01	14.9017	52.238518	0.000365	3.650157	1.236707	-0.000146
 632	6.2785e+01	14.8600	52.129515	0.000274	2.737618	0.927530	-0.000110
 633	6.2884e+01	14.8151	51.955918	0.000436	4.359910	1.477177	-0.000174
 634	6.2983e+01	14.7862	51.794433	0.000406	4.055730	1.374119	-0.000162
 635	6.3083e+01	14.7349	51.673319	0.000304	3.041798	1.030589	-0.000122
 636	6.3182e+01	14.7044	51.580465	0.000233	2.332045	0.790118	-0.000093
 637	6.3282e+01	14.6547	51.402831	0.000446	4.461303	1.511530	-0.000179
 638	6.3382e+01	14.6194	51.314014	0.000223	2.230652	0.755765	-0.000089
 639	6.3481e+01	14.5905	51.144454	0.000426	4.258517	1.442825	-0.000170
 640	6.3581e+01	14.5408	51.015266	0.000324	3.244584	1.099295	-0.000130
 641	6.3680e+01	14.5055	50.930486	0.000213	2.129258	0.721412	-0.000085
 642	6.3779e+01	14.4590	50.793223	0.000345	3.447371	1.168001	-0.000138
 643	6.3879e+01	14.4237	50.643849	0.000375	3.751550	1.271060	-0.000150
 644	6.3978e+01	14.3852	50.514661	0.000324	3.244584	1.099295	-0.000130
 645	6.4078e+01	14.3434	50.377398	0.000345	3.447371	1.168001	-0.000138
 646	6.4177e+01	14.2969	50.228024	0.000375	3.751550	1.271060	-0.000150
 647	6.4277e+01	14.2616	50.090762	0.000345	3.447371	1.168001	-0.000138
 648	6.4376e+01	14.2167	49.965610	0.000314	3.143191	1.064942	-0.000126
 649	6.4476e+01	14.1814	49.840459	0.000314	3.143191	1.064942	-0.000126
 650	6.4576e+01	14.1269	49.719345	0.000304	3.041798	1.030589	-0.000122
 651	6.4675e+01	14.0980	49.610343	0.000274	2.737618	0.927530	-0.000110
 652	6.4775e+01	14.0595	49.473080	0.000345	3.447371	1.168001	-0.000138
 653	6.4874e+01	14.0274	49.323706	0.000375	3.751550	1.271060	-0.000150
 654	6.4974e+01	13.9729	49.182406	0.000355	3.548764	1.202354	-0.000142
 655	6.5073e+01	13.9392	49.061292	0.000304	3.041798	1.030589	-0.000122
 656	6.5172e+01	13.8991	48.928067	0.000335	3.345977	1.133648	-0.000134
 657	6.5272e+01	13.8526	48.770618	0.000395	3.954337	1.339766	-0.000158
 658	6.5371e+01	13.8253	48.677764	0.000233	2.332045	0.790118	-0.000093
 659	6.5471e+01	13.7788	48.544539	0.000335	3.345977	1.133648	-0.000134
 660	6.5570e+01	13.7419	48.443610	0.000253	2.534831	0.858824	-0.000101
 661	6.5670e+01	13.6985	48.282125	0.000406	4.055730	1.374119	-0.000162
 662	6.5769e+01	13.6552	48.169085	0.000284	2.839011	0.961883	-0.000114
 663	6.5869e+01	13.6264	47.975303	0.000487	4.866876	1.648942	-0.000195
 664	6.5969e+01	13.5911	47.886486	0.000223	2.230652	0.755765	-0.000089
 665	6.6068e+01	13.5429	47.753260	0.000335	3.345977	1.133648	-0.000134
 666	6.6168e+01	13.4964	47.595812	0.000395	3.954337	1.339766	-0.000158
 667	6.6267e+01	13.4579	47.486809	0.000274	2.737618	0.927530	-0.000110
 668	6.6367e+01	13.4258	47.361658	0.000314	3.143191	1.064942	-0.000126
 669	6.6466e+01	13.3889	47.208247	0.000385	3.852944	1.305413	-0.000154
 670	6.6566e+01	13.3360	47.103281	0.000264	2.636225	0.893177	-0.000105
 671	6.6665e+01	13.3023	46.949870	0.000385	3.852944	1.305413	-0.000154
 672	6.6764e+01	13.2574	46.804533	0.000365	3.650157	1.236707	-0.000146
 673	6.6864e+01	13.2269	46.683419	0.000304	3.041798	1.030589	-0.000122
 674	6.6963e+01	13.1820	46.534045	0.000375	3.751550	1.271060	-0.000150
 675	6.7063e+01	13.1419	46.437154	0.000243	2.433438	0.824471	-0.000097
 676	6.7162e+01	13.1130	46.275668	0.000406	4.055730	1.374119	-0.000162
 677	6.7262e+01	13.0745	46.118220	0.000395	3.954337	1.339766	-0.000158
 678	6.7362e+01	13.0216	46.013255	0.000264	2.636225	0.893177	-0.000105
 679	6.7461e+01	12.9766	45.904252	0.000274	2.737618	0.927530	-0.000110
 680	6.7561e+01	12.9413	45.758915	0.000365	3.650157	1.236707	-0.000146
 681	6.7660e+01	12.9077	45.629727	0.000324	3.244584	1.099295	-0.000130
 682	6.7760e+01	12.8595	45.468241	0.000406	4.055730	1.374119	-0.000162
 683	6.7859e+01	12.8323	45.318867	0.000375	3.751550	1.271060	-0.000150
 684	6.7959e+01	12.7889	45.217939	0.000253	2.534831	0.858824	-0.000101
 685	6.8058e+01	12.7488	45.080676	0.000345	3.447371	1.168001	-0.000138
 686	6.8157e+01	12.7071	44.955525	0.000314	3.143191	1.064942	-0.000126
 687	6.8257e+01	12.6654	44.846522	0.000274	2.737618	0.927530	-0.000110
 688	6.8356e+01	12.6301	44.681000	0.000416	4.157123	1.408472	-0.000166
 689	6.8456e+01	12.5964	44.559886	0.000304	3.041798	1.030589	-0.000122
 690	6.8555e+01	12.5531	44.398400	0.000406	4.055730	1.374119	-0.000162
 691	6.8655e+01	12.5034	44.269212	0.000324	3.244584	1.099295	-0.000130
 692	6.8754e+01	12.4729	44.152135	0.000294	2.940404	0.996236	-0.000118
 693	6.8854e+01	12.4312	44.002761	0.000375	3.751550	1.271060	-0.000150
 694	6.8954e+01	12.3975	43.881647	0.000304	3.041798	1.030589	-0.000122
 695	6.9053e+01	12.3558	43.695939	0.000466	4.664090	1.580236	-0.000187
 696	6.9153e+01	12.3093	43.578862	0.000294	2.940404	0.996236	-0.000118
 697	6.9252e+01	12.2756	43.429488	0.000375	3.751550	1.271060	-0.000150
 698	6.9352e+01	12.2323	43.344708	0.000213	2.129258	0.721412	-0.000085
 699	6.9451e+01	12.1906	43.183222	0.000406	4.055730	1.374119	-0.000162
 700	6.9550e+01	12.1537	43.066145	0.000294	2.940404	0.996236	-0.000118
 701	6.9650e+01	12.1055	42.904660	0.000406	4.055730	1.374119	-0.000162
 702	6.9749e+01	12.0735	42.787583	0.000294	2.940404	0.996236	-0.000118
 703	6.9849e+01	12.0253	42.618023	0.000426	4.258517	1.442825	-0.000170
 704	6.9948e+01	11.9965	42.509021	0.000274	2.737618	0.927530	-0.000110
 705	7.0048e+01	11.9467	42.343498	0.000416	4.157123	1.408472	-0.000166
 706	7.0147e+01	11.9082	42.206236	0.000345	3.447371	1.168001	-0.000138
 707	7.0247e+01	11.8665	42.081084	0.000314	3.143191	1.064942	-0.000126
 708	7.0347e+01	11.8392	41.939785	0.000355	3.548764	1.202354	-0.000142
 709	7.0446e+01	11.7895	41.818671	0.000304	3.041798	1.030589	-0.000122
 710	7.0546e+01	11.7510	41.685445	0.000335	3.345977	1.133648	-0.000134
 711	7.0645e+01	11.7189	41.532034	0.000385	3.852944	1.305413	-0.000154
 712	7.0745e+01	11.6660	41.410920	0.000304	3.041798	1.030589	-0.000122
 713	7.0844e+01	11.6307	41.257509	0.000385	3.852944	1.305413	-0.000154
 714	7.0944e+01	11.5874	41.104098	0.000385	3.852944	1.305413	-0.000154
 715	7.1043e+01	11.5553	41.003169	0.000253	2.534831	0.858824	-0.000101
 716	7.1142e+01	11.5136	40.865907	0.000345	3.447371	1.168001	-0.000138
 717	7.1242e+01	11.4703	40.724607	0.000355	3.548764	1.202354	-0.000142
 718	7.1341e+01	11.4334	40.559084	0.000416	4.157123	1.408472	-0.000166
 719	7.1441e+01	11.3981	40.466230	0.000233	2.332045	0.790118	-0.000093
 720	7.1540e+01	11.3499	40.373376	0.000233	2.332045	0.790118	-0.000093
 721	7.1640e+01	11.3114	40.175556	0.000497	4.968270	1.683295	-0.000199
 722	7.1740e+01	11.2778	40.058479	0.000294	2.940404	0.996236	-0.000118
 723	7.1839e+01	11.2280	39.888920	0.000426	4.258517	1.442825	-0.000170
 724	7.1939e+01	11.1959	39.755694	0.000335	3.345977	1.133648	-0.000134
 725	7.2038e+01	11.1574	39.666877	0.000223	2.230652	0.755765	-0.000089
 726	7.2138e+01	11.1205	39.509429	0.000395	3.954337	1.339766	-0.000158
 727	7.2237e+01	11.0756	39.356018	0.000385	3.852944	1.305413	-0.000154
 728	7.2337e+01	11.0323	39.230867	0.000314	3.143191	1.064942	-0.000126
 729	7.2436e+01	10.9906	39.024973	0.000517	5.171056	1.752001	-0.000207
 730	7.2535e+01	10.9537	38.915970	0.000274	2.737618	0.927530	-0.000110
 731	7.2635e+01	10.9104	38.754485	0.000406	4.055730	1.374119	-0.000162
 732	7.2734e+01	10.8703	38.633370	0.000304	3.041798	1.030589	-0.000122
 733	7.2834e+01	10.8254	38.471885	0.000406	4.055730	1.374119	-0.000162
 734	7.2933e+01	10.7949	38.366919	0.000264	2.636225	0.893177	-0.000105
 735	7.3033e+01	10.7500	38.197360	0.000426	4.258517	1.442825	-0.000170
 736	7.3132e+01	10.7243	38.043949	0.000385	3.852944	1.305413	-0.000154
 737	7.3232e+01	10.6842	37.963206	0.000203	2.027865	0.687059	-0.000081
 738	7.3332e+01	10.6409	37.805758	0.000395	3.954337	1.339766	-0.000158
 739	7.3431e+01	10.5960	37.636198	0.000426	4.258517	1.442825	-0.000170
 740	7.3531e+01	10.5575	37.515084	0.000304	3.041798	1.030589	-0.000122
 741	7.3630e+01	10.5206	37.333413	0.000456	4.562696	1.545883	-0.000183
 742	7.3730e+01	10.4724	37.204224	0.000324	3.244584	1.099295	-0.000130
 743	7.3829e+01	10.4387	37.050813	0.000385	3.852944	1.305413	-0.000154
 744	7.3928e+01	10.3922	36.929699	0.000304	3.041798	1.030589	-0.000122
 745	7.4028e+01	10.3505	36.776288	0.000385	3.852944	1.305413	-0.000154
 746	7.4127e+01	10.3184	36.574431	0.000507	5.069663	1.717648	-0.000203
 747	7.4227e+01	10.2815	36.481577	0.000233	2.332045	0.790118	-0.000093
 748	7.4326e+01	10.2366	36.356426	0.000314	3.143191	1.064942	-0.000126
 749	7.4426e+01	10.1949	36.203015	0.000385	3.852944	1.305413	-0.000154
 750	7.4525e+01	10.1548	36.057678	0.000365	3.650157	1.236707	-0.000146
 751	7.4625e+01	10.1179	35.920415	0.000345	3.447371	1.168001	-0.000138
 752	7.4725e+01	10.0730	35.795264	0.000314	3.143191	1.064942	-0.000126
 753	7.4824e+01	10.0345	35.649927	0.000365	3.650157	1.236707	-0.000146
 754	7.4924e+01	10.0056	35.500553	0.000375	3.751550	1.271060	-0.000150
 755	7.5023e+01	9.9591	35.375402	0.000314	3.143191	1.064942	-0.000126
 756	7.5123e+01	9.9158	35.193731	0.000456	4.562696	1.545883	-0.000183
 757	7.5222e+01	9.8805	35.096840	0.000243	2.433438	0.824471	-0.000097
 758	7.5322e+01	9.8323	34.858649	0.000598	5.982202	2.026825	-0.000239
 759	7.5421e+01	9.7922	34.785980	0.000183	1.825079	0.618353	-0.000073
 760	7.5520e+01	9.7585	34.648717	0.000345	3.447371	1.168001	-0.000138
 761	7.5620e+01	9.7200	34.495306	0.000385	3.852944	1.305413	-0.000154
 762	7.5719e+01	9.6815	34.325747	0.000426	4.258517	1.442825	-0.000170
 763	7.5819e+01	9.6463	34.224818	0.000253	2.534831	0.858824	-0.000101
 764	7.5918e+01	9.5965	34.022961	0.000507	5.069663	1.717648	-0.000203
 765	7.6018e+01	9.5612	33.934144	0.000223	2.230652	0.755765	-0.000089
 766	7.6118e+01	9.5211	33.764585	0.000426	4.258517	1.442825	-0.000170
 767	7.6217e+01	9.4778	33.623285	0.000355	3.548764	1.202354	-0.000142
 768	7.6317e+01	9.4425	33.490060	0.000335	3.345977	1.133648	-0.000134
 769	7.6416e+01	9.3960	33.372983	0.000294	2.940404	0.996236	-0.000118
 770	7.6516e+01	9.3655	33.207460	0.000416	4.157123	1.408472	-0.000166
 771	7.6615e+01	9.3238	33.078272	0.000324	3.244584	1.099295	-0.000130
 772	7.6715e+01	9.2741	32.961195	0.000294	2.940404	0.996236	-0.000118
 773	7.6814e+01	9.2452	32.787598	0.000436	4.359910	1.477177	-0.000174
 774	7.6913e+01	9.2067	32.622075	0.000416	4.157123	1.408472	-0.000166
 775	7.7013e+01	9.1618	32.484813	0.000345	3.447371	1.168001	-0.000138
 776	7.7112e+01	9.1201	32.315253	0.000426	4.258517	1.442825	-0.000170
 777	7.7212e+01	9.0800	32.210287	0.000264	2.636225	0.893177	-0.000105
 778	7.7311e+01	9.0399	32.032654	0.000446	4.461303	1.511530	-0.000179
 779	7.7411e+01	9.0062	31.903465	0.000324	3.244584	1.099295	-0.000130
 780	7.7510e+01	8.9596	31.774277	0.000324	3.244584	1.099295	-0.000130
 781	7.7610e+01	8.9195	31.624903	0.000375	3.751550	1.271060	-0.000150
 782	7.7710e+01	8.8826	31.495714	0.000324	3.244584	1.099295	-0.000130
 783	7.7809e+01	8.8457	31.334229	0.000406	4.055730	1.374119	-0.000162
 784	7.7909e+01	8.8121	31.188892	0.000365	3.650157	1.236707	-0.000146
 785	7.8008e+01	8.7671	31.035481	0.000385	3.852944	1.305413	-0.000154
 786	7.8108e+01	8.7206	30.918404	0.000294	2.940404	0.996236	-0.000118
 787	7.8207e+01	8.6949	30.756919	0.000406	4.055730	1.374119	-0.000162
 788	7.8306e+01	8.6548	30.623693	0.000335	3.345977	1.133648	-0.000134
 789	7.8406e+01	8.5971	30.466245	0.000395	3.954337	1.339766	-0.000158
 790	7.8505e+01	8.5618	30.324945	0.000355	3.548764	1.202354	-0.000142
 791	7.8605e+01	8.5185	30.163460	0.000406	4.055730	1.374119	-0.000162
 792	7.8704e+01	8.4928	30.034271	0.000324	3.244584	1.099295	-0.000130
 793	7.8804e+01	8.4479	29.888934	0.000365	3.650157	1.236707	-0.000146
 794	7.8903e+01	8.3982	29.715338	0.000436	4.359910	1.477177	-0.000174
 795	7.9003e+01	8.3661	29.574038	0.000355	3.548764	1.202354	-0.000142
 796	7.9103e+01	8.3244	29.432738	0.000355	3.548764	1.202354	-0.000142
 797	7.9202e+01	8.2778	29.283364	0.000375	3.751550	1.271060	-0.000150
 798	7.9302e+01	8.2361	29.154176	0.000324	3.244584	1.099295	-0.000130
 799	7.9401e+01	8.2073	29.037099	0.000294	2.940404	0.996236	-0.000118
 800	7.9501e+01	8.1639	28.843316	0.000487	4.866876	1.648942	-0.000195
 801	7.9600e+01	8.1206	28.706054	0.000345	3.447371	1.168001	-0.000138
 802	7.9700e+01	8.0789	28.576865	0.000324	3.244584	1.099295	-0.000130
 803	7.9799e+01	8.0420	28.399231	0.000446	4.461303	1.511530	-0.000179
 804	7.9898e+01	8.0035	28.257932	0.000355	3.548764	1.202354	-0.000142
 805	7.9998e+01	7.9666	28.136818	0.000304	3.041798	1.030589	-0.000122
 806	8.0097e+01	7.9249	27.983406	0.000385	3.852944	1.305413	-0.000154
 807	8.0197e+01	7.8912	27.834032	0.000375	3.751550	1.271060	-0.000150
 808	8.0296e+01	7.8527	27.672547	0.000406	4.055730	1.374119	-0.000162
 809	8.0396e+01	7.8030	27.531247	0.000355	3.548764	1.202354	-0.000142
 810	8.0496e+01	7.7725	27.369762	0.000406	4.055730	1.374119	-0.000162
 811	8.0595e+01	7.7212	27.244611	0.000314	3.143191	1.064942	-0.000126
 812	8.0695e+01	7.6811	27.091199	0.000385	3.852944	1.305413	-0.000154
 813	8.0794e+01	7.6490	26.933751	0.000395	3.954337	1.339766	-0.000158
 814	8.0894e+01	7.6073	26.796488	0.000345	3.447371	1.168001	-0.000138
 815	8.0993e+01	7.5688	26.663263	0.000335	3.345977	1.133648	-0.000134
 816	8.1093e+01	7.5303	26.538112	0.000314	3.143191	1.064942	-0.000126
 817	8.1192e+01	7.4805	26.396812	0.000355	3.548764	1.202354	-0.000142
 818	8.1291e+01	7.4581	26.219178	0.000446	4.461303	1.511530	-0.000179
 819	8.1391e+01	7.4035	26.065767	0.000385	3.852944	1.305413	-0.000154
 820	8.1490e+01	7.3714	25.932541	0.000335	3.345977	1.133648	-0.000134
 821	8.1590e+01	7.3362	25.795279	0.000345	3.447371	1.168001	-0.000138
 822	8.1689e+01	7.2880	25.666090	0.000324	3.244584	1.099295	-0.000130
 823	8.1789e+01	7.2415	25.512679	0.000385	3.852944	1.305413	-0.000154
 824	8.1888e+01	7.2078	25.379454	0.000335	3.345977	1.133648	-0.000134
 825	8.1988e+01	7.1629	25.278525	0.000253	2.534831	0.858824	-0.000101
 826	8.2088e+01	7.1212	25.068594	0.000527	5.272449	1.786354	-0.000211
 827	8.2187e+01	7.0891	24.975740	0.000233	2.332045	0.790118	-0.000093
 828	8.2287e+01	7.0554	24.785995	0.000477	4.765483	1.614589	-0.000191
 829	8.2386e+01	7.0041	24.636621	0.000375	3.751550	1.271060	-0.000150
 830	8.2486e+01	6.9752	24.527618	0.000274	2.737618	0.927530	-0.000110
 831	8.2585e+01	6.9175	24.341910	0.000466	4.664090	1.580236	-0.000187
 832	8.2684e+01	6.8918	24.216759	0.000314	3.143191	1.064942	-0.000126
 833	8.2784e+01	6.8517	24.059310	0.000395	3.954337	1.339766	-0.000158
 834	8.2883e+01	6.8148	23.905899	0.000385	3.852944	1.305413	-0.000154
 835	8.2983e+01	6.7747	23.764600	0.000355	3.548764	1.202354	-0.000142
 836	8.3082e+01	6.7362	23.651560	0.000284	2.839011	0.961883	-0.000114
 837	8.3182e+01	6.6880	23.461814	0.000477	4.765483	1.614589	-0.000191
 838	8.3281e+01	6.6511	23.332626	0.000324	3.244584	1.099295	-0.000130
 839	8.3381e+01	6.6143	23.183252	0.000375	3.751550	1.271060	-0.000150
 840	8.3481e+01	6.5613	23.021767	0.000406	4.055730	1.374119	-0.000162
 841	8.3580e+01	6.5324	22.892578	0.000324	3.244584	1.099295	-0.000130
 842	8.3680e+01	6.4939	22.751278	0.000355	3.548764	1.202354	-0.000142
 843	8.3779e+01	6.4522	22.622090	0.000324	3.244584	1.099295	-0.000130
 844	8.3879e+01	6.4057	22.476753	0.000365	3.650157	1.236707	-0.000146
 845	8.3978e+01	6.3736	22.278934	0.000497	4.968270	1.683295	-0.000199
 846	8.4078e+01	6.3271	22.190117	0.000223	2.230652	0.755765	-0.000089
 847	8.4177e+01	6.2982	22.020557	0.000426	4.258517	1.442825	-0.000170
 848	8.4276e+01	6.2501	21.903480	0.000294	2.940404	0.996236	-0.000118
 849	8.4376e+01	6.2164	21.701623	0.000507	5.069663	1.717648	-0.000203
 850	8.4475e+01	6.1763	21.584546	0.000294	2.940404	0.996236	-0.000118
 851	8.4575e+01	6.1394	21.475544	0.000274	2.737618	0.927530	-0.000110
 852	8.4674e+01	6.0929	21.265613	0.000527	5.272449	1.786354	-0.000211
 853	8.4774e+01	6.0528	21.116238	0.000375	3.751550	1.271060	-0.000150
 854	8.4874e+01	6.0175	20.970902	0.000365	3.650157	1.236707	-0.000146
 855	8.4973e+01	5.9742	20.801342	0.000426	4.258517	1.442825	-0.000170
 856	8.5073e+01	5.9421	20.724636	0.000193	1.926472	0.652706	-0.000077
 857	8.5172e+01	5.8972	20.530854	0.000487	4.866876	1.648942	-0.000195
 858	8.5272e+01	5.8571	20.393591	0.000345	3.447371	1.168001	-0.000138
 859	8.5371e+01	5.8186	20.256329	0.000345	3.447371	1.168001	-0.000138
 860	8.5471e+01	5.7688	20.086769	0.000426	4.258517	1.442825	-0.000170
 861	8.5570e+01	5.7399	19.909135	0.000446	4.461303	1.511530	-0.000179
 862	8.5669e+01	5.6934	19.788021	0.000304	3.041798	1.030589	-0.000122
 863	8.5769e+01	5.6597	19.638647	0.000375	3.751550	1.271060	-0.000150
 864	8.5868e+01	5.6180	19.509458	0.000324	3.244584	1.099295	-0.000130
 865	8.5968e+01	5.5843	19.352010	0.000395	3.954337	1.339766	-0.000158
 866	8.6067e+01	5.5394	19.198599	0.000385	3.852944	1.305413	-0.000154
 867	8.6167e+01	5.5009	19.057299	0.000355	3.548764	1.202354	-0.000142
 868	8.6266e+01	5.4512	18.899851	0.000395	3.954337	1.339766	-0.000158
 869	8.6366e+01	5.4223	18.750477	0.000375	3.751550	1.271060	-0.000150
 870	8.6466e+01	5.3774	18.625326	0.000314	3.143191	1.064942	-0.000126
 871	8.6565e+01	5.3389	18.451729	0.000436	4.359910	1.477177	-0.000174
 872	8.6665e+01	5.3004	18.294281	0.000395	3.954337	1.339766	-0.000158
 873	8.6764e+01	5.2539	18.165092	0.000324	3.244584	1.099295	-0.000130
 874	8.6864e+01	5.2186	18.015718	0.000375	3.751550	1.271060	-0.000150
 875	8.6963e+01	5.1785	17.842121	0.000436	4.359910	1.477177	-0.000174
 876	8.7063e+01	5.1335	17.721007	0.000304	3.041798	1.030589	-0.000122
 877	8.7162e+01	5.1063	17.612005	0.000274	2.737618	0.927530	-0.000110
 878	8.7261e+01	5.0581	17.418222	0.000487	4.866876	1.648942	-0.000195
 879	8.7361e+01	5.0196	17.301145	0.000294	2.940404	0.996236	-0.000118
 880	8.7460e+01	4.9779	17.111400	0.000477	4.765483	1.614589	-0.000191
 881	8.7560e+01	4.9410	16.998360	0.000284	2.839011	0.961883	-0.000114
 882	8.7659e+01	4.9057	16.820726	0.000446	4.461303	1.511530	-0.000179
 883	8.7759e+01	4.8592	16.679426	0.000355	3.548764	1.202354	-0.000142
 884	8.7859e+01	4.8207	16.546201	0.000335	3.345977	1.133648	-0.000134
 885	8.7958e+01	4.7742	16.380678	0.000416	4.157123	1.408472	-0.000166
 886	8.8058e+01	4.7485	16.251490	0.000324	3.244584	1.099295	-0.000130
 887	8.8157e+01	4.6972	16.114227	0.000345	3.447371	1.168001	-0.000138
 888	8.8257e+01	4.6619	15.932556	0.000456	4.562696	1.545883	-0.000183
 889	8.8356e+01	4.6218	15.799331	0.000335	3.345977	1.133648	-0.000134
 890	8.8456e+01	4.5849	15.653994	0.000365	3.650157	1.236707	-0.000146
 891	8.8555e+01	4.5464	15.508657	0.000365	3.650157	1.236707	-0.000146
 892	8.8654e+01	4.5047	15.335060	0.000436	4.359910	1.477177	-0.000174
 893	8.8754e+01	4.4566	15.197797	0.000345	3.447371	1.168001	-0.000138
 894	8.8853e+01	4.4197	15.048423	0.000375	3.751550	1.271060	-0.000150
 895	8.8953e+01	4.3812	14.878864	0.000426	4.258517	1.442825	-0.000170
 896	8.9052e+01	4.3346	14.749675	0.000324	3.244584	1.099295	-0.000130
 897	8.9152e+01	4.3090	14.568004	0.000456	4.562696	1.545883	-0.000183
 898	8.9251e+01	4.2737	14.422667	0.000365	3.650157	1.236707	-0.000146
 899	8.9351e+01	4.2159	14.281368	0.000355	3.548764	1.202354	-0.000142
 900	8.9451e+01	4.1838	14.144105	0.000345	3.447371	1.168001	-0.000138
 901	8.9550e+01	4.1421	13.942248	0.000507	5.069663	1.717648	-0.000203
 902	8.9650e+01	4.1036	13.772689	0.000426	4.258517	1.442825	-0.000170
 903	8.9749e+01	4.0619	13.663686	0.000274	2.737618	0.927530	-0.000110
 904	8.9849e+01	4.0266	13.502200	0.000406	4.055730	1.374119	-0.000162
 905	8.9948e+01	3.9865	13.340715	0.000406	4.055730	1.374119	-0.000162
 906	9.0047e+01	3.9288	13.183267	0.000395	3.954337	1.339766	-0.000158
 907	9.0147e+01	3.9047	13.050041	0.000335	3.345977	1.133648	-0.000134
 908	9.0246e+01	3.8598	12.920853	0.000324	3.244584	1.099295	-0.000130
 909	9.0346e+01	3.8213	12.739182	0.000456	4.562696	1.545883	-0.000183
 910	9.0445e+01	3.7860	12.557511	0.000456	4.562696	1.545883	-0.000183
 911	9.0545e+01	3.7459	12.428322	0.000324	3.244584	1.099295	-0.000130
 912	9.0644e+01	3.7074	12.274911	0.000385	3.852944	1.305413	-0.000154
 913	9.0744e+01	3.6544	12.121500	0.000385	3.852944	1.305413	-0.000154
 914	9.0844e+01	3.6208	11.927718	0.000487	4.866876	1.648942	-0.000195
 915	9.0943e+01	3.5887	11.774306	0.000385	3.852944	1.305413	-0.000154
 916	9.1043e+01	3.5405	11.665304	0.000274	2.737618	0.927530	-0.000110
 917	9.1142e+01	3.5020	11.528041	0.000345	3.447371	1.168001	-0.000138
 918	9.1242e+01	3.4619	11.374630	0.000385	3.852944	1.305413	-0.000154
 919	9.1341e+01	3.4234	11.192959	0.000456	4.562696	1.545883	-0.000183
 920	9.1441e+01	3.3801	11.043585	0.000375	3.751550	1.271060	-0.000150
 921	9.1540e+01	3.3464	10.861914	0.000456	4.562696	1.545883	-0.000183
 922	9.1639e+01	3.3111	10.720614	0.000355	3.548764	1.202354	-0.000142
 923	9.1739e+01	3.2662	10.587388	0.000335	3.345977	1.133648	-0.000134
 924	9.1838e+01	3.2341	10.425903	0.000406	4.055730	1.374119	-0.000162
 925	9.1938e+01	3.1860	10.260380	0.000416	4.157123	1.408472	-0.000166
 926	9.2037e+01	3.1507	10.131192	0.000324	3.244584	1.099295	-0.000130
 927	9.2137e+01	3.1090	9.993930	0.000345	3.447371	1.168001	-0.000138
 928	9.2237e+01	3.0689	9.816296	0.000446	4.461303	1.511530	-0.000179
 929	9.2336e+01	3.0144	9.642699	0.000436	4.359910	1.477177	-0.000174
 930	9.2436e+01	2.9983	9.521585	0.000304	3.041798	1.030589	-0.000122
 931	9.2535e+01	2.9502	9.311654	0.000527	5.272449	1.786354	-0.000211
 932	9.2635e+01	2.9085	9.194577	0.000294	2.940404	0.996236	-0.000118
 933	9.2734e+01	2.8684	9.049240	0.000365	3.650157	1.236707	-0.000146
 934	9.2834e+01	2.8154	8.875643	0.000436	4.359910	1.477177	-0.000174
 935	9.2933e+01	2.7914	8.734343	0.000355	3.548764	1.202354	-0.000142
 936	9.3032e+01	2.7497	8.601118	0.000335	3.345977	1.133648	-0.000134
 937	9.3132e+01	2.7144	8.435595	0.000416	4.157123	1.408472	-0.000166
 938	9.3231e+01	2.6678	8.282184	0.000385	3.852944	1.305413	-0.000154
 939	9.3331e+01	2.6309	8.092439	0.000477	4.765483	1.614589	-0.000191
 940	9.3430e+01	2.5876	7.995547	0.000243	2.433438	0.824471	-0.000097
 941	9.3530e+01	2.5427	7.830025	0.000416	4.157123	1.408472	-0.000166
 942	9.3629e+01	2.4978	7.616057	0.000537	5.373843	1.820707	-0.000215
 943	9.3729e+01	2.4769	7.527240	0.000223	2.230652	0.755765	-0.000089
 944	9.3829e+01	2.4288	7.345568	0.000456	4.562696	1.545883	-0.000183
 945	9.3928e+01	2.3871	7.204269	0.000355	3.548764	1.202354	-0.000142
 946	9.4028e+01	2.3486	7.087192	0.000294	2.940404	0.996236	-0.000118
 947	9.4127e+01	2.3101	6.913595	0.000436	4.359910	1.477177	-0.000174
 948	9.4227e+01	2.2604	6.756147	0.000395	3.954337	1.339766	-0.000158
 949	9.4326e+01	2.2363	6.626958	0.000324	3.244584	1.099295	-0.000130
 950	9.4425e+01	2.1882	6.473547	0.000385	3.852944	1.305413	-0.000154
 951	9.4525e+01	2.1545	6.267653	0.000517	5.171056	1.752001	-0.000207
 952	9.4624e+01	2.1096	6.138465	0.000324	3.244584	1.099295	-0.000130
 953	9.4724e+01	2.0711	5.981017	0.000395	3.954337	1.339766	-0.000158
 954	9.4823e+01	2.0374	5.843754	0.000345	3.447371	1.168001	-0.000138
 955	9.4923e+01	1.9828	5.678231	0.000416	4.157123	1.408472	-0.000166
 956	9.5022e+01	1.9588	5.524820	0.000385	3.852944	1.305413	-0.000154
 957	9.5122e+01	1.9058	5.387558	0.000345	3.447371	1.168001	-0.000138
 958	9.5222e+01	1.8721	5.209924	0.000446	4.461303	1.511530	-0.000179
 959	9.5321e+01	1.8304	5.072661	0.000345	3.447371	1.168001	-0.000138
 960	9.5421e+01	1.7903	4.890990	0.000456	4.562696	1.545883	-0.000183
 961	9.5520e+01	1.7518	4.749690	0.000355	3.548764	1.202354	-0.000142
 962	9.5620e+01	1.7117	4.584168	0.000416	4.157123	1.408472	-0.000166
 963	9.5719e+01	1.6652	4.454979	0.000324	3.244584	1.099295	-0.000130
 964	9.5819e+01	1.6299	4.269271	0.000466	4.664090	1.580236	-0.000187
 965	9.5918e+01	1.5930	4.132008	0.000345	3.447371	1.168001	-0.000138
 966	9.6017e+01	1.5481	3.982634	0.000375	3.751550	1.271060	-0.000150
 967	9.6117e+01	1.5160	3.829223	0.000385	3.852944	1.305413	-0.000154
 968	9.6216e+01	1.4711	3.663701	0.000416	4.157123	1.408472	-0.000166
 969	9.6316e+01	1.4294	3.526438	0.000345	3.447371	1.168001	-0.000138
 970	9.6415e+01	1.3925	3.360916	0.000416	4.157123	1.408472	-0.000166
 971	9.6515e+01	1.3604	3.191356	0.000426	4.258517	1.442825	-0.000170
 972	9.6615e+01	1.3107	3.037945	0.000385	3.852944	1.305413	-0.000154
 973	9.6714e+01	1.2770	2.864348	0.000436	4.359910	1.477177	-0.000174
 974	9.6814e+01	1.2288	2.719011	0.000365	3.650157	1.236707	-0.000146
 975	9.6913e+01	1.1952	2.589823	0.000324	3.244584	1.099295	-0.000130
 976	9.7013e+01	1.1567	2.416226	0.000436	4.359910	1.477177	-0.000174
 977	9.7112e+01	1.1101	2.319334	0.000243	2.433438	0.824471	-0.000097
 978	9.7212e+01	1.0684	2.109403	0.000527	5.272449	1.786354	-0.000211
 979	9.7311e+01	1.0315	1.972141	0.000345	3.447371	1.168001	-0.000138
 980	9.7410e+01	0.9914	1.842952	0.000324	3.244584	1.099295	-0.000130
 981	9.7510e+01	0.9577	1.673393	0.000426	4.258517	1.442825	-0.000170
 982	9.7609e+01	0.9176	1.487685	0.000466	4.664090	1.580236	-0.000187
 983	9.7709e+01	0.8759	1.374645	0.000284	2.839011	0.961883	-0.000114
 984	9.7808e+01	0.8390	1.229308	0.000365	3.650157	1.236707	-0.000146
 985	9.7908e+01	0.7925	1.083971	0.000365	3.650157	1.236707	-0.000146
 986	9.8007e+01	0.7684	0.946708	0.000345	3.447371	1.168001	-0.000138
 987	9.8107e+01	0.7203	0.769074	0.000446	4.461303	1.511530	-0.000179
 988	9.8207e+01	0.6722	0.635849	0.000335	3.345977	1.133648	-0.000134
 989	9.8306e+01	0.6321	0.454178	0.000456	4.562696	1.545883	-0.000183
 990	9.8406e+01	0.6000	0.308841	0.000365	3.650157	1.236707	-0.000146
 991	9.8505e+01	0.5503	0.163504	0.000365	3.650157	1.236707	-0.000146
 992	9.8605e+01	0.5230	-0.010093	0.000436	4.359910	1.477177	-0.000174
 993	9.8704e+01	0.4765	-0.127170	0.000294	2.940404	0.996236	-0.000118
 994	9.8803e+01	0.4380	-0.256358	0.000324	3.244584	1.099295	-0.000130
 995	9.8903e+01	0.4011	-0.433992	0.000446	4.461303	1.511530	-0.000179
 996	9.9002e+01	0.3610	-0.559143	0.000314	3.143191	1.064942	-0.000126
 997	9.9102e+01	0.3176	-0.765037	0.000517	5.171056	1.752001	-0.000207
 998	9.9201e+01	0.2743	-0.841743	0.000193	1.926472	0.652706	-0.000077
 999	9.9301e+01	0.2390	-1.015340	0.000436	4.359910	1.477177	-0.000174
1000	9.9400e+01	0.1925	-1.168751	0.000385	3.852944	1.305413	-0.000154
1001	9.9500e+01	0.1572	-1.346385	0.000446	4.461303	1.511530	-0.000179
1002	9.9600e+01	0.1155	-1.463462	0.000294	2.940404	0.996236	-0.000118
1003	9.9699e+01	0.0786	-1.628984	0.000416	4.157123	1.408472	-0.000166
1004	9.9799e+01	0.0449	-1.786433	0.000395	3.954337	1.339766	-0.000158
1005	9.9898e+01	0.0160	-1.895435	0.000274	2.737618	0.927530	-0.000110
1006	9.9998e+01	-0.0401	-2.081143	0.000466	4.664090	1.580236	-0.000187
1007	1.0010e+02	-0.0770	-2.161886	0.000203	2.027865	0.687059	-0.000081
1008	1.0020e+02	-0.1123	-2.343557	0.000456	4.562696	1.545883	-0.000183
1009	1.0030e+02	-0.1492	-2.533303	0.000477	4.765483	1.614589	-0.000191
1010	1.0040e+02	-0.1893	-2.662491	0.000324	3.244584	1.099295	-0.000130
1011	1.0050e+02	-0.2310	-2.840125	0.000446	4.461303	1.511530	-0.000179
1012	1.0059e+02	-0.2695	-2.965276	0.000314	3.143191	1.064942	-0.000126
1013	1.0069e+02	-0.3048	-3.126762	0.000406	4.055730	1.374119	-0.000162
1014	1.0079e+02	-0.3497	-3.272099	0.000365	3.650157	1.236707	-0.000146
1015	1.0089e+02	-0.3995	-3.425510	0.000385	3.852944	1.305413	-0.000154
1016	1.0099e+02	-0.4396	-3.542587	0.000294	2.940404	0.996236	-0.000118
1017	1.0109e+02	-0.4829	-3.700035	0.000395	3.954337	1.339766	-0.000158
1018	1.0119e+02	-0.5101	-3.897855	0.000497	4.968270	1.683295	-0.000199
1019	1.0129e+02	-0.5551	-3.978597	0.000203	2.027865	0.687059	-0.000081
1020	1.0139e+02	-0.5952	-4.164306	0.000466	4.664090	1.580236	-0.000187
1021	1.0149e+02	-0.6305	-4.289457	0.000314	3.143191	1.064942	-0.000126
1022	1.0159e+02	-0.6674	-4.471128	0.000456	4.562696	1.545883	-0.000183
1023	1.0169e+02	-0.7075	-4.596279	0.000314	3.143191	1.064942	-0.000126
1024	1.0179e+02	-0.7428	-4.781987	0.000466	4.664090	1.580236	-0.000187
1025	1.0189e+02	-0.7813	-4.951547	0.000426	4.258517	1.442825	-0.000170
1026	1.0199e+02	-0.8406	-5.048438	0.000243	2.433438	0.824471	-0.000097
1027	1.0209e+02	-0.8647	-5.189738	0.000355	3.548764	1.202354	-0.000142
1028	1.0219e+02	-0.9096	-5.379483	0.000477	4.765483	1.614589	-0.000191
1029	1.0229e+02	-0.9465	-5.545006	0.000416	4.157123	1.408472	-0.000166
1030	1.0239e+02	-0.9914	-5.662083	0.000294	2.940404	0.996236	-0.000118
1031	1.0248e+02	-1.0347	-5.811457	0.000375	3.751550	1.271060	-0.000150
1032	1.0258e+02	-1.0668	-5.968905	0.000395	3.954337	1.339766	-0.000158
1033	1.0268e+02	-1.1117	-6.162688	0.000487	4.866876	1.648942	-0.000195
1034	1.0278e+02	-1.1470	-6.279765	0.000294	2.940404	0.996236	-0.000118
1035	1.0288e+02	-1.1984	-6.441250	0.000406	4.055730	1.374119	-0.000162
1036	1.0298e+02	-1.2321	-6.598698	0.000395	3.954337	1.339766	-0.000158
1037	1.0308e+02	-1.2706	-6.748072	0.000375	3.751550	1.271060	-0.000150
1038	1.0318e+02	-1.3107	-6.897446	0.000375	3.751550	1.271060	-0.000150
1039	1.0328e+02	-1.3427	-7.034709	0.000345	3.447371	1.168001	-0.000138
1040	1.0338e+02	-1.3893	-7.180046	0.000365	3.650157	1.236707	-0.000146
1041	1.0348e+02	-1.4262	-7.333457	0.000385	3.852944	1.305413	-0.000154
1042	1.0358e+02	-1.4759	-7.486868	0.000385	3.852944	1.305413	-0.000154
1043	1.0368e+02	-1.5160	-7.652391	0.000416	4.157123	1.408472	-0.000166
1044	1.0378e+02	-1.5497	-7.765431	0.000284	2.839011	0.961883	-0.000114
1045	1.0388e+02	-1.5866	-7.930953	0.000416	4.157123	1.408472	-0.000166
1046	1.0398e+02	-1.6331	-8.080327	0.000375	3.751550	1.271060	-0.000150
1047	1.0408e+02	-1.6636	-8.209516	0.000324	3.244584	1.099295	-0.000130
1048	1.0418e+02	-1.7101	-8.403298	0.000487	4.866876	1.648942	-0.000195
1049	1.0428e+02	-1.7486	-8.512301	0.000274	2.737618	0.927530	-0.000110
1050	1.0438e+02	-1.7855	-8.673786	0.000406	4.055730	1.374119	-0.000162
1051	1.0447e+02	-1.8256	-8.790863	0.000294	2.940404	0.996236	-0.000118
1052	1.0457e+02	-1.8721	-8.956386	0.000416	4.157123	1.408472	-0.000166
1053	1.0467e+02	-1.9090	-9.142094	0.000466	4.664090	1.580236	-0.000187
1054	1.0477e+02	-1.9427	-9.238985	0.000243	2.433438	0.824471	-0.000097
1055	1.0487e+02	-1.9876	-9.412582	0.000436	4.359910	1.477177	-0.000174
1056	1.0497e+02	-2.0294	-9.549845	0.000345	3.447371	1.168001	-0.000138
1057	1.0507e+02	-2.0663	-9.695181	0.000365	3.650157	1.236707	-0.000146
1058	1.0517e+02	-2.0999	-9.840518	0.000365	3.650157	1.236707	-0.000146
1059	1.0527e+02	-2.1497	-10.006041	0.000416	4.157123	1.408472	-0.000166
1060	1.0537e+02	-2.1866	-10.151378	0.000365	3.650157	1.236707	-0.000146
1061	1.0547e+02	-2.2251	-10.304789	0.000385	3.852944	1.305413	-0.000154
1062	1.0557e+02	-2.2604	-10.498571	0.000487	4.866876	1.648942	-0.000195
1063	1.0567e+02	-2.3085	-10.583351	0.000213	2.129258	0.721412	-0.000085
1064	1.0577e+02	-2.3438	-10.765022	0.000456	4.562696	1.545883	-0.000183
1065	1.0587e+02	-2.3903	-10.882099	0.000294	2.940404	0.996236	-0.000118
1066	1.0597e+02	-2.4240	-11.087993	0.000517	5.171056	1.752001	-0.000207
1067	1.0607e+02	-2.4689	-11.229293	0.000355	3.548764	1.202354	-0.000142
1068	1.0617e+02	-2.5010	-11.326184	0.000243	2.433438	0.824471	-0.000097
1069	1.0627e+02	-2.5491	-11.499781	0.000436	4.359910	1.477177	-0.000174
1070	1.0637e+02	-2.5876	-11.689527	0.000477	4.765483	1.614589	-0.000191
1071	1.0647e+02	-2.6197	-11.822752	0.000335	3.345977	1.133648	-0.000134
1072	1.0656e+02	-2.6678	-11.984237	0.000406	4.055730	1.374119	-0.000162
1073	1.0666e+02	-2.7112	-12.169946	0.000466	4.664090	1.580236	-0.000187
1074	1.0676e+02	-2.7481	-12.266837	0.000243	2.433438	0.824471	-0.000097
1075	1.0686e+02	-2.7849	-12.452545	0.000466	4.664090	1.580236	-0.000187
1076	1.0696e+02	-2.8202	-12.581734	0.000324	3.244584	1.099295	-0.000130
1077	1.0706e+02	-2.8700	-12.747256	0.000416	4.157123	1.408472	-0.000166
1078	1.0716e+02	-2.9037	-12.864333	0.000294	2.940404	0.996236	-0.000118
1079	1.0726e+02	-2.9470	-13.037930	0.000436	4.359910	1.477177	-0.000174
1080	1.0736e+02	-2.9791	-13.187304	0.000375	3.751550	1.271060	-0.000150
1081	1.0746e+02	-3.0256	-13.352826	0.000416	4.157123	1.408472	-0.000166
1082	1.0756e+02	-3.0705	-13.494126	0.000355	3.548764	1.202354	-0.000142
1083	1.0766e+02	-3.1010	-13.651574	0.000395	3.954337	1.339766	-0.000158
1084	1.0776e+02	-3.1427	-13.788837	0.000345	3.447371	1.168001	-0.000138
1085	1.0786e+02	-3.1908	-13.962434	0.000436	4.359910	1.477177	-0.000174
1086	1.0796e+02	-3.2261	-14.071437	0.000274	2.737618	0.927530	-0.000110
1087	1.0806e+02	-3.2646	-14.269256	0.000497	4.968270	1.683295	-0.000199
1088	1.0816e+02	-3.2999	-14.382296	0.000284	2.839011	0.961883	-0.000114
1089	1.0826e+02	-3.3320	-14.555893	0.000436	4.359910	1.477177	-0.000174
1090	1.0836e+02	-3.3833	-14.677007	0.000304	3.041798	1.030589	-0.000122
1091	1.0845e+02	-3.4282	-14.826381	0.000375	3.751550	1.271060	-0.000150
1092	1.0855e+02	-3.4507	-14.991904	0.000416	4.157123	1.408472	-0.000166
1093	1.0865e+02	-3.4972	-15.121092	0.000324	3.244584	1.099295	-0.000130
1094	1.0875e+02	-3.5341	-15.254317	0.000335	3.345977	1.133648	-0.000134
1095	1.0885e+02	-3.5839	-15.435988	0.000456	4.562696	1.545883	-0.000183
1096	1.0895e+02	-3.6143	-15.565177	0.000324	3.244584	1.099295	-0.000130
1097	1.0905e+02	-3.6625	-15.710514	0.000365	3.650157	1.236707	-0.000146
1098	1.0915e+02	-3.6994	-15.855851	0.000365	3.650157	1.236707	-0.000146
1099	1.0925e+02	-3.7411	-15.985039	0.000324	3.244584	1.099295	-0.000130
1100	1.0935e+02	-3.7828	-16.122302	0.000345	3.447371	1.168001	-0.000138
1101	1.0945e+02	-3.8261	-16.295898	0.000436	4.359910	1.477177	-0.000174
1102	1.0955e+02	-3.8582	-16.461421	0.000416	4.157123	1.408472	-0.000166
1103	1.0965e+02	-3.9031	-16.594646	0.000335	3.345977	1.133648	-0.000134
1104	1.0975e+02	-3.9384	-16.719798	0.000314	3.143191	1.064942	-0.000126
1105	1.0985e+02	-3.9801	-16.889357	0.000426	4.258517	1.442825	-0.000170
1106	1.0995e+02	-4.0266	-17.058917	0.000426	4.258517	1.442825	-0.000170
1107	1.1005e+02	-4.0603	-17.232514	0.000436	4.359910	1.477177	-0.000174
1108	1.1015e+02	-4.1084	-17.349591	0.000294	2.940404	0.996236	-0.000118
1109	1.1025e+02	-4.1373	-17.454556	0.000264	2.636225	0.893177	-0.000105
1110	1.1035e+02	-4.1806	-17.628153	0.000436	4.359910	1.477177	-0.000174
1111	1.1044e+02	-4.2095	-17.773490	0.000365	3.650157	1.236707	-0.000146
1112	1.1054e+02	-4.2592	-17.894604	0.000304	3.041798	1.030589	-0.000122
1113	1.1064e+02	-4.2929	-18.060127	0.000416	4.157123	1.408472	-0.000166
1114	1.1074e+02	-4.3411	-18.217575	0.000395	3.954337	1.339766	-0.000158
1115	1.1084e+02	-4.3780	-18.326578	0.000274	2.737618	0.927530	-0.000110
1116	1.1094e+02	-4.4197	-18.496137	0.000426	4.258517	1.442825	-0.000170
1117	1.1104e+02	-4.4614	-18.613214	0.000294	2.940404	0.996236	-0.000118
1118	1.1114e+02	-4.4999	-18.806997	0.000487	4.866876	1.648942	-0.000195
1119	1.1124e+02	-4.5320	-18.907925	0.000253	2.534831	0.858824	-0.000101
1120	1.1134e+02	-4.5913	-19.033076	0.000314	3.143191	1.064942	-0.000126
1121	1.1144e+02	-4.6170	-19.186488	0.000385	3.852944	1.305413	-0.000154
1122	1.1154e+02	-4.6587	-19.352010	0.000416	4.157123	1.408472	-0.000166
1123	1.1164e+02	-4.6972	-19.505421	0.000385	3.852944	1.305413	-0.000154
1124	1.1174e+02	-4.7341	-19.626535	0.000304	3.041798	1.030589	-0.000122
1125	1.1184e+02	-4.7678	-19.775909	0.000375	3.751550	1.271060	-0.000150
1126	1.1194e+02	-4.8127	-19.933358	0.000395	3.954337	1.339766	-0.000158
1127	1.1204e+02	-4.8624	-20.098880	0.000416	4.157123	1.408472	-0.000166
1128	1.1214e+02	-4.9041	-20.211920	0.000284	2.839011	0.961883	-0.000114
1129	1.1224e+02	-4.9378	-20.401665	0.000477	4.765483	1.614589	-0.000191
1130	1.1234e+02	-4.9860	-20.526817	0.000314	3.143191	1.064942	-0.000126
1131	1.1244e+02	-5.0180	-20.668116	0.000355	3.548764	1.202354	-0.000142
1132	1.1253e+02	-5.0533	-20.781156	0.000284	2.839011	0.961883	-0.000114
1133	1.1263e+02	-5.0983	-20.942642	0.000406	4.055730	1.374119	-0.000162
1134	1.1273e+02	-5.1255	-21.100090	0.000395	3.954337	1.339766	-0.000158
1135	1.1283e+02	-5.1688	-21.229278	0.000324	3.244584	1.099295	-0.000130
1136	1.1293e+02	-5.2154	-21.398838	0.000426	4.258517	1.442825	-0.000170
1137	1.1303e+02	-5.2507	-21.507841	0.000274	2.737618	0.927530	-0.000110
1138	1.1313e+02	-5.2811	-21.653178	0.000365	3.650157	1.236707	-0.000146
1139	1.1323e+02	-5.3325	-21.822737	0.000426	4.258517	1.442825	-0.000170
1140	1.1333e+02	-5.3758	-21.968074	0.000365	3.650157	1.236707	-0.000146
1141	1.1343e+02	-5.4159	-22.089188	0.000304	3.041798	1.030589	-0.000122
1142	1.1353e+02	-5.4480	-22.238562	0.000375	3.751550	1.271060	-0.000150
1143	1.1363e+02	-5.4929	-22.408122	0.000426	4.258517	1.442825	-0.000170
1144	1.1373e+02	-5.5282	-22.525199	0.000294	2.940404	0.996236	-0.000118
1145	1.1383e+02	-5.5779	-22.682647	0.000395	3.954337	1.339766	-0.000158
1146	1.1393e+02	-5.6036	-22.775501	0.000233	2.332045	0.790118	-0.000093
1147	1.1403e+02	-5.6581	-22.961210	0.000466	4.664090	1.580236	-0.000187
1148	1.1413e+02	-5.6966	-23.086361	0.000314	3.143191	1.064942	-0.000126
1149	1.1423e+02	-5.7255	-23.247846	0.000406	4.055730	1.374119	-0.000162
1150	1.1433e+02	-5.7656	-23.368960	0.000304	3.041798	1.030589	-0.000122
1151	1.1442e+02	-5.8057	-23.490074	0.000304	3.041798	1.030589	-0.000122
1152	1.1452e+02	-5.8571	-23.615225	0.000314	3.143191	1.064942	-0.000126
1153	1.1462e+02	-5.8891	-23.804971	0.000477	4.765483	1.614589	-0.000191
1154	1.1472e+02	-5.9357	-23.926085	0.000304	3.041798	1.030589	-0.000122
1155	1.1482e+02	-5.9677	-24.071422	0.000365	3.650157	1.236707	-0.000146
1156	1.1492e+02	-6.0175	-24.184462	0.000284	2.839011	0.961883	-0.000114
1157	1.1502e+02	-6.0447	-24.337873	0.000385	3.852944	1.305413	-0.000154
1158	1.1512e+02	-6.0913	-24.491284	0.000385	3.852944	1.305413	-0.000154
1159	1.1522e+02	-6.1282	-24.632584	0.000355	3.548764	1.202354	-0.000142
1160	1.1532e+02	-6.1699	-24.737549	0.000264	2.636225	0.893177	-0.000105
1161	1.1542e+02	-6.2052	-24.834440	0.000243	2.433438	0.824471	-0.000097
1162	1.1552e+02	-6.2501	-25.020149	0.000466	4.664090	1.580236	-0.000187
1163	1.1562e+02	-6.2886	-25.145300	0.000314	3.143191	1.064942	-0.000126
1164	1.1572e+02	-6.3303	-25.262377	0.000294	2.940404	0.996236	-0.000118
1165	1.1582e+02	-6.3704	-25.427899	0.000416	4.157123	1.408472	-0.000166
1166	1.1592e+02	-6.4169	-25.536902	0.000274	2.737618	0.927530	-0.000110
1167	1.1602e+02	-6.4458	-25.690313	0.000385	3.852944	1.305413	-0.000154
1168	1.1612e+02	-6.4891	-25.823539	0.000335	3.345977	1.133648	-0.000134
1169	1.1622e+02	-6.5228	-25.952727	0.000324	3.244584	1.099295	-0.000130
1170	1.1632e+02	-6.5629	-26.073841	0.000304	3.041798	1.030589	-0.000122
1171	1.1642e+02	-6.6078	-26.231289	0.000395	3.954337	1.339766	-0.000158
1172	1.1651e+02	-6.6528	-26.388738	0.000395	3.954337	1.339766	-0.000158
1173	1.1661e+02	-6.6800	-26.513889	0.000314	3.143191	1.064942	-0.000126
1174	1.1671e+02	-6.7233	-26.626929	0.000284	2.839011	0.961883	-0.000114
1175	1.1681e+02	-6.7650	-26.768229	0.000355	3.548764	1.202354	-0.000142
1176	1.1691e+02	-6.8084	-26.921640	0.000385	3.852944	1.305413	-0.000154
1177	1.1701e+02	-6.8437	-27.054865	0.000335	3.345977	1.133648	-0.000134
1178	1.1711e+02	-6.8822	-27.147719	0.000233	2.332045	0.790118	-0.000093
1179	1.1721e+02	-6.9287	-27.313242	0.000416	4.157123	1.408472	-0.000166
1180	1.1731e+02	-6.9672	-27.470690	0.000395	3.954337	1.339766	-0.000158
1181	1.1741e+02	-7.0009	-27.587767	0.000294	2.940404	0.996236	-0.000118
1182	1.1751e+02	-7.0442	-27.696770	0.000274	2.737618	0.927530	-0.000110
1183	1.1761e+02	-7.0795	-27.874404	0.000446	4.461303	1.511530	-0.000179
1184	1.1771e+02	-7.1292	-27.991481	0.000294	2.940404	0.996236	-0.000118
1185	1.1781e+02	-7.1677	-28.157003	0.000416	4.157123	1.408472	-0.000166
1186	1.1791e+02	-7.2078	-28.266006	0.000274	2.737618	0.927530	-0.000110
1187	1.1801e+02	-7.2511	-28.439603	0.000436	4.359910	1.477177	-0.000174
1188	1.1811e+02	-7.2848	-28.516308	0.000193	1.926472	0.652706	-0.000077
1189	1.1821e+02	-7.3297	-28.718165	0.000507	5.069663	1.717648	-0.000203
1190	1.1831e+02	-7.3586	-28.811019	0.000233	2.332045	0.790118	-0.000093
1191	1.1841e+02	-7.3955	-28.992690	0.000456	4.562696	1.545883	-0.000183
1192	1.1850e+02	-7.4517	-29.065359	0.000183	1.825079	0.618353	-0.000073
1193	1.1860e+02	-7.4934	-29.247030	0.000456	4.562696	1.545883	-0.000183
1194	1.1870e+02	-7.5239	-29.351995	0.000264	2.636225	0.893177	-0.000105
1195	1.1880e+02	-7.5640	-29.448887	0.000243	2.433438	0.824471	-0.000097
1196	1.1890e+02	-7.6025	-29.606335	0.000395	3.954337	1.339766	-0.000158
1197	1.1900e+02	-7.6394	-29.775895	0.000426	4.258517	1.442825	-0.000170
1198	1.1910e+02	-7.6939	-29.901046	0.000314	3.143191	1.064942	-0.000126
1199	1.1920e+02	-7.7196	-30.022160	0.000304	3.041798	1.030589	-0.000122
1200	1.1930e+02	-7.7549	-30.175571	0.000385	3.852944	1.305413	-0.000154
1201	1.1940e+02	-7.8014	-30.316871	0.000355	3.548764	1.202354	-0.000142
1202	1.1950e+02	-7.8319	-30.450096	0.000335	3.345977	1.133648	-0.000134
1203	1.1960e+02	-7.8800	-30.567173	0.000294	2.940404	0.996236	-0.000118
1204	1.1970e+02	-7.9185	-30.708473	0.000355	3.548764	1.202354	-0.000142
1205	1.1980e+02	-7.9730	-30.857847	0.000375	3.751550	1.271060	-0.000150
1206	1.1990e+02	-8.0131	-31.007221	0.000375	3.751550	1.271060	-0.000150
1207	1.2000e+02	-8.0452	-31.132372	0.000314	3.143191	1.064942	-0.000126
1208	1.2010e+02	-8.0805	-31.221189	0.000223	2.230652	0.755765	-0.000089
1209	1.2020e+02	-8.1238	-31.374600	0.000385	3.852944	1.305413	-0.000154
1210	1.2030e+02	-8.1591	-31.515900	0.000355	3.548764	1.202354	-0.000142
1211	1.2039e+02	-8.1944	-31.616829	0.000253	2.534831	0.858824	-0.000101
1212	1.2049e+02	-8.2409	-31.762165	0.000365	3.650157	1.236707	-0.000146
1213	1.2059e+02	-8.2794	-31.907502	0.000365	3.650157	1.236707	-0.000146
1214	1.2069e+02	-8.3163	-32.060913	0.000385	3.852944	1.305413	-0.000154
1215	1.2079e+02	-8.3597	-32.182028	0.000304	3.041798	1.030589	-0.000122
1216	1.2089e+02	-8.3998	-32.311216	0.000324	3.244584	1.099295	-0.000130
1217	1.2099e+02	-8.4399	-32.416181	0.000264	2.636225	0.893177	-0.000105
1218	1.2109e+02	-8.4720	-32.521147	0.000264	2.636225	0.893177	-0.000105
1219	1.2119e+02	-8.5169	-32.682632	0.000406	4.055730	1.374119	-0.000162
1220	1.2129e+02	-8.5602	-32.827969	0.000365	3.650157	1.236707	-0.000146
1221	1.2139e+02	-8.5955	-32.904675	0.000193	1.926472	0.652706	-0.000077
1222	1.2149e+02	-8.6420	-33.054049	0.000375	3.751550	1.271060	-0.000150
1223	1.2159e+02	-8.6805	-33.223609	0.000426	4.258517	1.442825	-0.000170
1224	1.2169e+02	-8.7174	-33.364908	0.000355	3.548764	1.202354	-0.000142
1225	1.2179e+02	-8.7559	-33.486022	0.000304	3.041798	1.030589	-0.000122
1226	1.2189e+02	-8.7912	-33.631359	0.000365	3.650157	1.236707	-0.000146
1227	1.2199e+02	-8.8281	-33.740362	0.000274	2.737618	0.927530	-0.000110
1228	1.2209e+02	-8.8730	-33.889736	0.000375	3.751550	1.271060	-0.000150
1229	1.2219e+02	-8.9115	-34.006813	0.000294	2.940404	0.996236	-0.000118
1230	1.2229e+02	-8.9532	-34.123890	0.000294	2.940404	0.996236	-0.000118
1231	1.2239e+02	-9.0046	-34.228855	0.000264	2.636225	0.893177	-0.000105
1232	1.2248e+02	-9.0334	-34.378229	0.000375	3.751550	1.271060	-0.000150
1233	1.2258e+02	-9.0880	-34.515492	0.000345	3.447371	1.168001	-0.000138
1234	1.2268e+02	-9.1153	-34.681015	0.000416	4.157123	1.408472	-0.000166
1235	1.2278e+02	-9.1554	-34.806166	0.000314	3.143191	1.064942	-0.000126
1236	1.2288e+02	-9.2019	-34.939391	0.000335	3.345977	1.133648	-0.000134
1237	1.2298e+02	-9.2420	-35.076654	0.000345	3.447371	1.168001	-0.000138
1238	1.2308e+02	-9.2741	-35.226028	0.000375	3.751550	1.271060	-0.000150
1239	1.2318e+02	-9.3206	-35.343105	0.000294	2.940404	0.996236	-0.000118
1240	1.2328e+02	-9.3511	-35.496516	0.000385	3.852944	1.305413	-0.000154
1241	1.2338e+02	-9.3992	-35.613593	0.000294	2.940404	0.996236	-0.000118
1242	1.2348e+02	-9.4297	-35.714521	0.000253	2.534831	0.858824	-0.000101
1243	1.2358e+02	-9.4794	-35.859858	0.000365	3.650157	1.236707	-0.000146
1244	1.2368e+02	-9.5083	-36.013269	0.000385	3.852944	1.305413	-0.000154
1245	1.2378e+02	-9.5548	-36.142458	0.000324	3.244584	1.099295	-0.000130
1246	1.2388e+02	-9.5917	-36.283757	0.000355	3.548764	1.202354	-0.000142
1247	1.2398e+02	-9.6382	-36.400834	0.000294	2.940404	0.996236	-0.000118
1248	1.2408e+02	-9.6751	-36.550208	0.000375	3.751550	1.271060	-0.000150
1249	1.2418e+02	-9.7136	-36.671322	0.000304	3.041798	1.030589	-0.000122
1250	1.2428e+02	-9.7473	-36.832808	0.000406	4.055730	1.374119	-0.000162
1251	1.2438e+02	-9.7987	-36.933736	0.000253	2.534831	0.858824	-0.000101
1252	1.2447e+02	-9.8339	-37.046776	0.000284	2.839011	0.961883	-0.000114
1253	1.2457e+02	-9.8757	-37.200187	0.000385	3.852944	1.305413	-0.000154
1254	1.2467e+02	-9.9077	-37.317264	0.000294	2.940404	0.996236	-0.000118
1255	1.2477e+02	-9.9543	-37.482787	0.000416	4.157123	1.408472	-0.000166
1256	1.2487e+02	-9.9928	-37.531232	0.000122	1.216719	0.412236	-0.000049
1257	1.2497e+02	-10.0313	-37.716941	0.000466	4.664090	1.580236	-0.000187
1258	1.2507e+02	-10.0762	-37.825943	0.000274	2.737618	0.927530	-0.000110
1259	1.2517e+02	-10.1083	-38.007614	0.000456	4.562696	1.545883	-0.000183
1260	1.2527e+02	-10.1516	-38.096431	0.000223	2.230652	0.755765	-0.000089
1261	1.2537e+02	-10.1901	-38.229657	0.000335	3.345977	1.133648	-0.000134
1262	1.2547e+02	-10.2318	-38.370957	0.000355	3.548764	1.202354	-0.000142
1263	1.2557e+02	-10.2767	-38.471885	0.000253	2.534831	0.858824	-0.000101
1264	1.2567e+02	-10.3088	-38.629333	0.000395	3.954337	1.339766	-0.000158
1265	1.2577e+02	-10.3553	-38.774670	0.000365	3.650157	1.236707	-0.000146
1266	1.2587e+02	-10.3938	-38.907896	0.000335	3.345977	1.133648	-0.000134
1267	1.2597e+02	-10.4323	-39.029010	0.000304	3.041798	1.030589	-0.000122
1268	1.2607e+02	-10.4740	-39.121864	0.000233	2.332045	0.790118	-0.000093
1269	1.2617e+02	-10.5045	-39.275275	0.000385	3.852944	1.305413	-0.000154
1270	1.2627e+02	-10.5526	-39.408501	0.000335	3.345977	1.133648	-0.000134
1271	1.2636e+02	-10.5927	-39.541726	0.000335	3.345977	1.133648	-0.000134
1272	1.2646e+02	-10.6280	-39.662840	0.000304	3.041798	1.030589	-0.000122
1273	1.2656e+02	-10.6762	-39.816251	0.000385	3.852944	1.305413	-0.000154
1274	1.2666e+02	-10.7115	-39.888920	0.000183	1.825079	0.618353	-0.000073
1275	1.2676e+02	-10.7612	-40.042331	0.000385	3.852944	1.305413	-0.000154
1276	1.2686e+02	-10.7901	-40.187668	0.000365	3.650157	1.236707	-0.000146
1277	1.2696e+02	-10.8350	-40.296670	0.000274	2.737618	0.927530	-0.000110
1278	1.2706e+02	-10.8687	-40.433933	0.000345	3.447371	1.168001	-0.000138
1279	1.2716e+02	-10.9040	-40.555047	0.000304	3.041798	1.030589	-0.000122
1280	1.2726e+02	-10.9489	-40.668087	0.000284	2.839011	0.961883	-0.000114
1281	1.2736e+02	-10.9970	-40.756904	0.000223	2.230652	0.755765	-0.000089
1282	1.2746e+02	-11.0259	-40.938575	0.000456	4.562696	1.545883	-0.000183
1283	1.2756e+02	-11.0660	-41.055652	0.000294	2.940404	0.996236	-0.000118
1284	1.2766e+02	-11.1077	-41.192915	0.000345	3.447371	1.168001	-0.000138
1285	1.2776e+02	-11.1510	-41.318066	0.000314	3.143191	1.064942	-0.000126
1286	1.2786e+02	-11.1847	-41.410920	0.000233	2.332045	0.790118	-0.000093
1287	1.2796e+02	-11.2248	-41.568368	0.000395	3.954337	1.339766	-0.000158
1288	1.2806e+02	-11.2681	-41.685445	0.000294	2.940404	0.996236	-0.000118
1289	1.2816e+02	-11.3114	-41.838856	0.000385	3.852944	1.305413	-0.000154
1290	1.2826e+02	-11.3451	-41.923636	0.000213	2.129258	0.721412	-0.000085
1291	1.2835e+02	-11.3836	-42.060899	0.000345	3.447371	1.168001	-0.000138
1292	1.2845e+02	-11.4237	-42.194124	0.000335	3.345977	1.133648	-0.000134
1293	1.2855e+02	-11.4638	-42.359647	0.000416	4.157123	1.408472	-0.000166
1294	1.2865e+02	-11.5088	-42.444427	0.000213	2.129258	0.721412	-0.000085
1295	1.2875e+02	-11.5553	-42.569578	0.000314	3.143191	1.064942	-0.000126
1296	1.2885e+02	-11.5842	-42.702803	0.000335	3.345977	1.133648	-0.000134
1297	1.2895e+02	-11.6259	-42.831992	0.000324	3.244584	1.099295	-0.000130
1298	1.2905e+02	-11.6596	-42.981366	0.000375	3.751550	1.271060	-0.000150
1299	1.2915e+02	-11.7045	-43.094405	0.000284	2.839011	0.961883	-0.000114
1300	1.2925e+02	-11.7478	-43.231668	0.000345	3.447371	1.168001	-0.000138
1301	1.2935e+02	-11.7863	-43.320485	0.000223	2.230652	0.755765	-0.000089
1302	1.2945e+02	-11.8216	-43.473896	0.000385	3.852944	1.305413	-0.000154
1303	1.2955e+02	-11.8649	-43.603085	0.000324	3.244584	1.099295	-0.000130
1304	1.2965e+02	-11.9066	-43.724199	0.000304	3.041798	1.030589	-0.000122
1305	1.2975e+02	-11.9435	-43.845313	0.000304	3.041798	1.030589	-0.000122
1306	1.2985e+02	-11.9820	-43.978538	0.000335	3.345977	1.133648	-0.000134
1307	1.2995e+02	-12.0237	-44.095615	0.000294	2.940404	0.996236	-0.000118
1308	1.3005e+02	-12.0702	-44.208655	0.000284	2.839011	0.961883	-0.000114
1309	1.3015e+02	-12.1055	-44.358029	0.000375	3.751550	1.271060	-0.000150
1310	1.3025e+02	-12.1440	-44.511440	0.000385	3.852944	1.305413	-0.000154
1311	1.3034e+02	-12.1809	-44.580071	0.000172	1.723685	0.584000	-0.000069
1312	1.3044e+02	-12.2210	-44.689074	0.000274	2.737618	0.927530	-0.000110
1313	1.3054e+02	-12.2612	-44.858634	0.000426	4.258517	1.442825	-0.000170
1314	1.3064e+02	-12.3077	-44.971674	0.000284	2.839011	0.961883	-0.000114
1315	1.3074e+02	-12.3478	-45.096825	0.000314	3.143191	1.064942	-0.000126
1316	1.3084e+02	-12.3815	-45.221976	0.000314	3.143191	1.064942	-0.000126
1317	1.3094e+02	-12.4232	-45.363276	0.000355	3.548764	1.202354	-0.000142
1318	1.3104e+02	-12.4601	-45.484390	0.000304	3.041798	1.030589	-0.000122
1319	1.3114e+02	-12.4938	-45.569170	0.000213	2.129258	0.721412	-0.000085
1320	1.3124e+02	-12.5435	-45.682209	0.000284	2.839011	0.961883	-0.000114
1321	1.3134e+02	-12.5772	-45.807361	0.000314	3.143191	1.064942	-0.000126
1322	1.3144e+02	-12.6141	-45.940586	0.000335	3.345977	1.133648	-0.000134
1323	1.3154e+02	-12.6622	-46.057663	0.000294	2.940404	0.996236	-0.000118
1324	1.3164e+02	-12.7007	-46.166666	0.000274	2.737618	0.927530	-0.000110
1325	1.3174e+02	-12.7408	-46.275668	0.000274	2.737618	0.927530	-0.000110
1326	1.3184e+02	-12.7761	-46.433117	0.000395	3.954337	1.339766	-0.000158
1327	1.3194e+02	-12.8146	-46.534045	0.000253	2.534831	0.858824	-0.000101
1328	1.3204e+02	-12.8563	-46.659196	0.000314	3.143191	1.064942	-0.000126
1329	1.3214e+02	-12.8964	-46.752050	0.000233	2.332045	0.790118	-0.000093
1330	1.3224e+02	-12.9542	-46.905462	0.000385	3.852944	1.305413	-0.000154
1331	1.3234e+02	-12.9750	-46.998316	0.000233	2.332045	0.790118	-0.000093
1332	1.3243e+02	-13.0183	-47.139615	0.000355	3.548764	1.202354	-0.000142
1333	1.3253e+02	-13.0552	-47.236507	0.000243	2.433438	0.824471	-0.000097
1334	1.3263e+02	-13.1002	-47.402029	0.000416	4.157123	1.408472	-0.000166
1335	1.3273e+02	-13.1435	-47.486809	0.000213	2.129258	0.721412	-0.000085
1336	1.3283e+02	-13.1788	-47.587738	0.000253	2.534831	0.858824	-0.000101
1337	1.3293e+02	-13.2237	-47.708852	0.000304	3.041798	1.030589	-0.000122
1338	1.3303e+02	-13.2622	-47.858226	0.000375	3.751550	1.271060	-0.000150
1339	1.3313e+02	-13.2975	-47.983377	0.000314	3.143191	1.064942	-0.000126
1340	1.3323e+02	-13.3376	-48.108528	0.000314	3.143191	1.064942	-0.000126
1341	1.3333e+02	-13.3761	-48.213494	0.000264	2.636225	0.893177	-0.000105
1342	1.3343e+02	-13.4146	-48.314422	0.000253	2.534831	0.858824	-0.000101
1343	1.3353e+02	-13.4579	-48.443610	0.000324	3.244584	1.099295	-0.000130
1344	1.3363e+02	-13.4980	-48.568761	0.000314	3.143191	1.064942	-0.000126
1345	1.3373e+02	-13.5413	-48.665653	0.000243	2.433438	0.824471	-0.000097
1346	1.3383e+02	-13.5734	-48.810990	0.000365	3.650157	1.236707	-0.000146
1347	1.3393e+02	-13.6183	-48.924029	0.000284	2.839011	0.961883	-0.000114
1348	1.3403e+02	-13.6600	-49.053218	0.000324	3.244584	1.099295	-0.000130
1349	1.3413e+02	-13.6985	-49.158183	0.000264	2.636225	0.893177	-0.000105
1350	1.3423e+02	-13.7467	-49.255075	0.000243	2.433438	0.824471	-0.000097
1351	1.3432e+02	-13.7739	-49.392337	0.000345	3.447371	1.168001	-0.000138
1352	1.3442e+02	-13.8060	-49.505377	0.000284	2.839011	0.961883	-0.000114
1353	1.3452e+02	-13.8493	-49.691085	0.000466	4.664090	1.580236	-0.000187
1354	1.3462e+02	-13.8959	-49.747605	0.000142	1.419506	0.480942	-0.000057
1355	1.3472e+02	-13.9312	-49.913128	0.000416	4.157123	1.408472	-0.000166
1356	1.3482e+02	-13.9713	-49.977722	0.000162	1.622292	0.549647	-0.000065
1357	1.3492e+02	-14.0226	-50.127096	0.000375	3.751550	1.271060	-0.000150
1358	1.3502e+02	-14.0563	-50.240136	0.000284	2.839011	0.961883	-0.000114
1359	1.3512e+02	-14.1012	-50.397584	0.000395	3.954337	1.339766	-0.000158
1360	1.3522e+02	-14.1397	-50.490438	0.000233	2.332045	0.790118	-0.000093
1361	1.3532e+02	-14.1750	-50.639812	0.000375	3.751550	1.271060	-0.000150
1362	1.3542e+02	-14.2119	-50.728629	0.000223	2.230652	0.755765	-0.000089
1363	1.3552e+02	-14.2520	-50.817446	0.000223	2.230652	0.755765	-0.000089
1364	1.3562e+02	-14.2953	-50.954709	0.000345	3.447371	1.168001	-0.000138
1365	1.3572e+02	-14.3450	-51.047563	0.000233	2.332045	0.790118	-0.000093
1366	1.3582e+02	-14.3723	-51.192900	0.000365	3.650157	1.236707	-0.000146
1367	1.3592e+02	-14.4108	-51.314014	0.000304	3.041798	1.030589	-0.000122
1368	1.3602e+02	-14.4541	-51.459351	0.000365	3.650157	1.236707	-0.000146
1369	1.3612e+02	-14.4926	-51.548168	0.000223	2.230652	0.755765	-0.000089
1370	1.3622e+02	-14.5392	-51.693505	0.000365	3.650157	1.236707	-0.000146
1371	1.3631e+02	-14.5696	-51.790396	0.000243	2.433438	0.824471	-0.000097
1372	1.3641e+02	-14.6130	-51.915547	0.000314	3.143191	1.064942	-0.000126
1373	1.3651e+02	-14.6579	-52.040698	0.000314	3.143191	1.064942	-0.000126
1374	1.3661e+02	-14.6948	-52.141627	0.000253	2.534831	0.858824	-0.000101
1375	1.3671e+02	-14.7349	-52.250629	0.000274	2.737618	0.927530	-0.000110
1376	1.3681e+02	-14.7686	-52.424226	0.000436	4.359910	1.477177	-0.000174
1377	1.3691e+02	-14.8135	-52.541303	0.000294	2.940404	0.996236	-0.000118
1378	1.3701e+02	-14.8568	-52.601860	0.000152	1.520899	0.515294	-0.000061
1379	1.3711e+02	-14.8953	-52.735086	0.000335	3.345977	1.133648	-0.000134
1380	1.3721e+02	-14.9306	-52.864274	0.000324	3.244584	1.099295	-0.000130
1381	1.3731e+02	-14.9787	-52.981351	0.000294	2.940404	0.996236	-0.000118
1382	1.3741e+02	-15.0156	-53.082279	0.000253	2.534831	0.858824	-0.000101
1383	1.3751e+02	-15.0557	-53.215505	0.000335	3.345977	1.133648	-0.000134
1384	1.3761e+02	-15.0926	-53.344693	0.000324	3.244584	1.099295	-0.000130
1385	1.3771e+02	-15.1343	-53.477919	0.000335	3.345977	1.133648	-0.000134
1386	1.3781e+02	-15.1793	-53.570773	0.000233	2.332045	0.790118	-0.000093
1387	1.3791e+02	-15.2097	-53.679775	0.000274	2.737618	0.927530	-0.000110
1388	1.3801e+02	-15.2530	-53.784741	0.000264	2.636225	0.893177	-0.000105
1389	1.3811e+02	-15.2787	-53.930078	0.000365	3.650157	1.236707	-0.000146
1390	1.3821e+02	-15.3252	-54.006783	0.000193	1.926472	0.652706	-0.000077
1391	1.3831e+02	-15.3669	-54.140009	0.000335	3.345977	1.133648	-0.000134
1392	1.3840e+02	-15.4183	-54.281309	0.000355	3.548764	1.202354	-0.000142
1393	1.3850e+02	-15.4407	-54.353977	0.000183	1.825079	0.618353	-0.000073
1394	1.3860e+02	-15.4953	-54.487202	0.000335	3.345977	1.133648	-0.000134
1395	1.3870e+02	-15.5306	-54.588131	0.000253	2.534831	0.858824	-0.000101
1396	1.3880e+02	-15.5723	-54.753653	0.000416	4.157123	1.408472	-0.000166
1397	1.3890e+02	-15.6044	-54.858619	0.000264	2.636225	0.893177	-0.000105
1398	1.3900e+02	-15.6573	-54.967622	0.000274	2.737618	0.927530	-0.000110
1399	1.3910e+02	-15.6926	-55.064513	0.000243	2.433438	0.824471	-0.000097
1400	1.3920e+02	-15.7263	-55.201776	0.000345	3.447371	1.168001	-0.000138
1401	1.3930e+02	-15.7584	-55.326927	0.000314	3.143191	1.064942	-0.000126
1402	1.3940e+02	-15.8065	-55.431892	0.000264	2.636225	0.893177	-0.000105
1403	1.3950e+02	-15.8450	-55.573192	0.000355	3.548764	1.202354	-0.000142
1404	1.3960e+02	-15.8867	-55.706417	0.000335	3.345977	1.133648	-0.000134
1405	1.3970e+02	-15.9252	-55.823494	0.000294	2.940404	0.996236	-0.000118
1406	1.3980e+02	-15.9637	-55.900200	0.000193	1.926472	0.652706	-0.000077
1407	1.3990e+02	-16.0151	-56.049574	0.000375	3.751550	1.271060	-0.000150
1408	1.4000e+02	-16.0503	-56.146465	0.000243	2.433438	0.824471	-0.000097
1409	1.4010e+02	-16.0921	-56.291802	0.000365	3.650157	1.236707	-0.000146
1410	1.4020e+02	-16.1193	-56.392731	0.000253	2.534831	0.858824	-0.000101
1411	1.4029e+02	-16.1626	-56.529993	0.000345	3.447371	1.168001	-0.000138
1412	1.4039e+02	-16.2124	-56.647070	0.000294	2.940404	0.996236	-0.000118
1413	1.4049e+02	-16.2445	-56.760110	0.000284	2.839011	0.961883	-0.000114
1414	1.4059e+02	-16.2894	-56.905447	0.000365	3.650157	1.236707	-0.000146
1415	1.4069e+02	-16.3327	-57.010412	0.000264	2.636225	0.893177	-0.000105
1416	1.4079e+02	-16.3648	-57.115378	0.000264	2.636225	0.893177	-0.000105
1417	1.4089e+02	-16.4097	-57.252640	0.000345	3.447371	1.168001	-0.000138
1418	1.4099e+02	-16.4450	-57.365680	0.000284	2.839011	0.961883	-0.000114
1419	1.4109e+02	-16.4851	-57.482757	0.000294	2.940404	0.996236	-0.000118
1420	1.4119e+02	-16.5300	-57.611946	0.000324	3.244584	1.099295	-0.000130
1421	1.4129e+02	-16.5589	-57.692688	0.000203	2.027865	0.687059	-0.000081
1422	1.4139e+02	-16.6086	-57.870322	0.000446	4.461303	1.511530	-0.000179
1423	1.4149e+02	-16.6391	-57.959139	0.000223	2.230652	0.755765	-0.000089
1424	1.4159e+02	-16.6760	-58.104476	0.000365	3.650157	1.236707	-0.000146
1425	1.4169e+02	-16.7305	-58.201367	0.000243	2.433438	0.824471	-0.000097
1426	1.4179e+02	-16.7610	-58.318444	0.000294	2.940404	0.996236	-0.000118
1427	1.4189e+02	-16.8075	-58.463781	0.000365	3.650157	1.236707	-0.000146
1428	1.4199e+02	-16.8477	-58.544524	0.000203	2.027865	0.687059	-0.000081
1429	1.4209e+02	-16.8813	-58.665638	0.000304	3.041798	1.030589	-0.000122
1430	1.4219e+02	-16.9231	-58.790789	0.000314	3.143191	1.064942	-0.000126
1431	1.4228e+02	-16.9567	-58.871532	0.000203	2.027865	0.687059	-0.000081
1432	1.4238e+02	-17.0001	-59.033017	0.000406	4.055730	1.374119	-0.000162
1433	1.4248e+02	-17.0466	-59.121834	0.000223	2.230652	0.755765	-0.000089
1434	1.4258e+02	-17.0819	-59.259097	0.000345	3.447371	1.168001	-0.000138
1435	1.4268e+02	-17.1204	-59.355988	0.000243	2.433438	0.824471	-0.000097
1436	1.4278e+02	-17.1653	-59.493251	0.000345	3.447371	1.168001	-0.000138
1437	1.4288e+02	-17.2022	-59.598216	0.000264	2.636225	0.893177	-0.000105
1438	1.4298e+02	-17.2423	-59.727405	0.000324	3.244584	1.099295	-0.000130
1439	1.4308e+02	-17.2872	-59.860630	0.000335	3.345977	1.133648	-0.000134
1440	1.4318e+02	-17.3257	-59.929261	0.000172	1.723685	0.584000	-0.000069
1441	1.4328e+02	-17.3706	-60.042301	0.000284	2.839011	0.961883	-0.000114
1442	1.4338e+02	-17.4075	-60.228010	0.000466	4.664090	1.580236	-0.000187
1443	1.4348e+02	-17.4492	-60.341049	0.000284	2.839011	0.961883	-0.000114
1444	1.4358e+02	-17.4861	-60.429866	0.000223	2.230652	0.755765	-0.000089
1445	1.4368e+02	-17.5166	-60.538869	0.000274	2.737618	0.927530	-0.000110
1446	1.4378e+02	-17.5615	-60.635760	0.000243	2.433438	0.824471	-0.000097
1447	1.4388e+02	-17.6049	-60.821468	0.000466	4.664090	1.580236	-0.000187
1448	1.4398e+02	-17.6337	-60.857803	0.000091	0.912539	0.309177	-0.000037
1449	1.4408e+02	-17.6851	-61.019288	0.000406	4.055730	1.374119	-0.000162
1450	1.4418e+02	-17.7188	-61.120217	0.000253	2.534831	0.858824	-0.000101
1451	1.4428e+02	-17.7589	-61.273628	0.000385	3.852944	1.305413	-0.000154
1452	1.4437e+02	-17.7974	-61.378593	0.000264	2.636225	0.893177	-0.000105
1453	1.4447e+02	-17.8407	-61.499707	0.000304	3.041798	1.030589	-0.000122
1454	1.4457e+02	-17.8744	-61.592561	0.000233	2.332045	0.790118	-0.000093
1455	1.4467e+02	-17.9241	-61.701564	0.000274	2.737618	0.927530	-0.000110
1456	1.4477e+02	-17.9610	-61.863049	0.000406	4.055730	1.374119	-0.000162
1457	1.4487e+02	-18.0059	-61.972052	0.000274	2.737618	0.927530	-0.000110
1458	1.4497e+02	-18.0428	-62.105278	0.000335	3.345977	1.133648	-0.000134
1459	1.4507e+02	-18.0765	-62.202169	0.000243	2.433438	0.824471	-0.000097
1460	1.4517e+02	-18.1198	-62.335394	0.000335	3.345977	1.133648	-0.000134
1461	1.4527e+02	-18.1599	-62.440360	0.000264	2.636225	0.893177	-0.000105
1462	1.4537e+02	-18.1904	-62.561474	0.000304	3.041798	1.030589	-0.000122
1463	1.4547e+02	-18.2353	-62.654328	0.000233	2.332045	0.790118	-0.000093
1464	1.4557e+02	-18.2866	-62.763331	0.000274	2.737618	0.927530	-0.000110
1465	1.4567e+02	-18.3284	-62.920779	0.000395	3.954337	1.339766	-0.000158
1466	1.4577e+02	-18.3604	-63.094376	0.000436	4.359910	1.477177	-0.000174
1467	1.4587e+02	-18.3957	-63.146859	0.000132	1.318112	0.446589	-0.000053
1468	1.4597e+02	-18.4294	-63.284121	0.000345	3.447371	1.168001	-0.000138
1469	1.4607e+02	-18.4695	-63.409272	0.000314	3.143191	1.064942	-0.000126
1470	1.4617e+02	-18.5161	-63.522312	0.000284	2.839011	0.961883	-0.000114
1471	1.4626e+02	-18.5658	-63.683798	0.000406	4.055730	1.374119	-0.000162
1472	1.4636e+02	-18.5963	-63.740318	0.000142	1.419506	0.480942	-0.000057
1473	1.4646e+02	-18.6348	-63.865469	0.000314	3.143191	1.064942	-0.000126
1474	1.4656e+02	-18.6813	-64.010806	0.000365	3.650157	1.236707	-0.000146
1475	1.4666e+02	-18.7134	-64.127883	0.000294	2.940404	0.996236	-0.000118
1476	1.4676e+02	-18.7615	-64.208625	0.000203	2.027865	0.687059	-0.000081
1477	1.4686e+02	-18.7872	-64.357999	0.000375	3.751550	1.271060	-0.000150
1478	1.4696e+02	-18.8337	-64.511411	0.000385	3.852944	1.305413	-0.000154
1479	1.4706e+02	-18.8754	-64.624450	0.000284	2.839011	0.961883	-0.000114
1480	1.4716e+02	-18.9187	-64.729416	0.000264	2.636225	0.893177	-0.000105
1481	1.4726e+02	-18.9524	-64.862641	0.000335	3.345977	1.133648	-0.000134
1482	1.4736e+02	-18.9877	-64.963570	0.000253	2.534831	0.858824	-0.000101
1483	1.4746e+02	-19.0390	-65.064498	0.000253	2.534831	0.858824	-0.000101
1484	1.4756e+02	-19.0759	-65.217909	0.000385	3.852944	1.305413	-0.000154
1485	1.4766e+02	-19.1176	-65.290578	0.000183	1.825079	0.618353	-0.000073
1486	1.4776e+02	-19.1497	-65.468212	0.000446	4.461303	1.511530	-0.000179
1487	1.4786e+02	-19.2043	-65.557029	0.000223	2.230652	0.755765	-0.000089
1488	1.4796e+02	-19.2315	-65.690254	0.000335	3.345977	1.133648	-0.000134
1489	1.4806e+02	-19.2813	-65.843665	0.000385	3.852944	1.305413	-0.000154
1490	1.4816e+02	-19.3198	-65.936519	0.000233	2.332045	0.790118	-0.000093
1491	1.4825e+02	-19.3615	-66.037448	0.000253	2.534831	0.858824	-0.000101
1492	1.4835e+02	-19.3936	-66.158562	0.000304	3.041798	1.030589	-0.000122
1493	1.4845e+02	-19.4385	-66.271602	0.000284	2.839011	0.961883	-0.000114
1494	1.4855e+02	-19.4738	-66.420976	0.000375	3.751550	1.271060	-0.000150
1495	1.4865e+02	-19.5171	-66.517867	0.000243	2.433438	0.824471	-0.000097
1496	1.4875e+02	-19.5444	-66.626870	0.000274	2.737618	0.927530	-0.000110
1497	1.4885e+02	-19.6005	-66.752021	0.000314	3.143191	1.064942	-0.000126
1498	1.4895e+02	-19.6246	-66.873135	0.000304	3.041798	1.030589	-0.000122
1499	1.4905e+02	-19.6679	-66.986175	0.000284	2.839011	0.961883	-0.000114
1500	1.4915e+02	-19.7144	-67.139586	0.000385	3.852944	1.305413	-0.000154
1501	1.4925e+02	-19.7529	-67.256663	0.000294	2.940404	0.996236	-0.000118
1502	1.4935e+02	-19.7930	-67.389888	0.000335	3.345977	1.133648	-0.000134
1503	1.4945e+02	-19.8331	-67.458520	0.000172	1.723685	0.584000	-0.000069
1504	1.4955e+02	-19.8652	-67.640191	0.000456	4.562696	1.545883	-0.000183
1505	1.4965e+02	-19.9005	-67.745156	0.000264	2.636225	0.893177	-0.000105
1506	1.4975e+02	-19.9518	-67.894530	0.000375	3.751550	1.271060	-0.000150
1507	1.4985e+02	-19.9839	-68.027756	0.000335	3.345977	1.133648	-0.000134
1508	1.4995e+02	-19.9502	-67.979310	0.000122	1.216719	0.412236	0.000049
1509	1.5005e+02	-19.9117	-67.898567	0.000203	2.027865	0.687059	0.000081
1510	1.5015e+02	-19.8748	-67.846085	0.000132	1.318112	0.446589	0.000053
1511	1.5025e+02	-19.8428	-67.805713	0.000101	1.013933	0.343530	0.000041
1512	1.5034e+02	-19.7898	-67.712859	0.000233	2.332045	0.790118	0.000093
1513	1.5044e+02	-19.7593	-67.652302	0.000152	1.520899	0.515294	0.000061
1514	1.5054e+02	-19.7160	-67.559448	0.000233	2.332045	0.790118	0.000093
1515	1.5064e+02	-19.6759	-67.482742	0.000193	1.926472	0.652706	0.000077
1516	1.5074e+02	-19.6326	-67.402000	0.000203	2.027865	0.687059	0.000081
1517	1.5084e+02	-19.5877	-67.353554	0.000122	1.216719	0.412236	0.000049
1518	1.5094e+02	-19.5540	-67.292997	0.000152	1.520899	0.515294	0.000061
1519	1.5104e+02	-19.5123	-67.212254	0.000203	2.027865	0.687059	0.000081
1520	1.5114e+02	-19.4770	-67.119400	0.000233	2.332045	0.790118	0.000093
1521	1.5124e+02	-19.4305	-67.058843	0.000152	1.520899	0.515294	0.000061
1522	1.5134e+02	-19.3888	-66.982138	0.000193	1.926472	0.652706	0.000077
1523	1.5144e+02	-19.3551	-66.917543	0.000162	1.622292	0.549647	0.000065
1524	1.5154e+02	-19.3118	-66.812578	0.000264	2.636225	0.893177	0.000105
1525	1.5164e+02	-19.2733	-66.719724	0.000233	2.332045	0.790118	0.000093
1526	1.5174e+02	-19.2299	-66.687427	0.000081	0.811146	0.274824	0.000032
1527	1.5184e+02	-19.2027	-66.610721	0.000193	1.926472	0.652706	0.000077
1528	1.5194e+02	-19.1545	-66.477496	0.000335	3.345977	1.133648	0.000134
1529	1.5204e+02	-19.1257	-66.380604	0.000243	2.433438	0.824471	0.000097
1530	1.5214e+02	-19.0775	-66.316010	0.000162	1.622292	0.549647	0.000065
1531	1.5224e+02	-19.0358	-66.267565	0.000122	1.216719	0.412236	0.000049
1532	1.5233e+02	-19.0005	-66.154525	0.000284	2.839011	0.961883	0.000114
1533	1.5243e+02	-18.9588	-66.085893	0.000172	1.723685	0.584000	0.000069
1534	1.5253e+02	-18.9107	-66.049559	0.000091	0.912539	0.309177	0.000037
1535	1.5263e+02	-18.8722	-65.948631	0.000253	2.534831	0.858824	0.000101
1536	1.5273e+02	-18.8417	-65.859814	0.000223	2.230652	0.755765	0.000089
1537	1.5283e+02	-18.7872	-65.746774	0.000284	2.839011	0.961883	0.000114
1538	1.5293e+02	-18.7551	-65.670068	0.000193	1.926472	0.652706	0.000077
1539	1.5303e+02	-18.7182	-65.577214	0.000233	2.332045	0.790118	0.000093
1540	1.5313e+02	-18.6781	-65.516657	0.000152	1.520899	0.515294	0.000061
1541	1.5323e+02	-18.6476	-65.464175	0.000132	1.318112	0.446589	0.000053
1542	1.5333e+02	-18.5979	-65.343060	0.000304	3.041798	1.030589	0.000122
1543	1.5343e+02	-18.5610	-65.238095	0.000264	2.636225	0.893177	0.000105
1544	1.5353e+02	-18.5209	-65.153315	0.000213	2.129258	0.721412	0.000085
1545	1.5363e+02	-18.4824	-65.060461	0.000233	2.332045	0.790118	0.000093
1546	1.5373e+02	-18.4374	-64.983755	0.000193	1.926472	0.652706	0.000077
1547	1.5383e+02	-18.3989	-64.878790	0.000264	2.636225	0.893177	0.000105
1548	1.5393e+02	-18.3524	-64.830344	0.000122	1.216719	0.412236	0.000049
1549	1.5403e+02	-18.3155	-64.705193	0.000314	3.143191	1.064942	0.000126
1550	1.5413e+02	-18.2866	-64.624450	0.000203	2.027865	0.687059	0.000081
1551	1.5422e+02	-18.2417	-64.547745	0.000193	1.926472	0.652706	0.000077
1552	1.5432e+02	-18.2016	-64.458928	0.000223	2.230652	0.755765	0.000089
1553	1.5442e+02	-18.1615	-64.329739	0.000324	3.244584	1.099295	0.000130
1554	1.5452e+02	-18.1150	-64.236885	0.000233	2.332045	0.790118	0.000093
1555	1.5462e+02	-18.0845	-64.156143	0.000203	2.027865	0.687059	0.000081
1556	1.5472e+02	-18.0396	-64.075400	0.000203	2.027865	0.687059	0.000081
1557	1.5482e+02	-18.0027	-63.974471	0.000253	2.534831	0.858824	0.000101
1558	1.5492e+02	-17.9610	-63.869506	0.000264	2.636225	0.893177	0.000105
1559	1.5502e+02	-17.9209	-63.776652	0.000233	2.332045	0.790118	0.000093
1560	1.5512e+02	-17.8792	-63.683798	0.000233	2.332045	0.790118	0.000093
1561	1.5522e+02	-17.8439	-63.586906	0.000243	2.433438	0.824471	0.000097
1562	1.5532e+02	-17.8022	-63.514238	0.000183	1.825079	0.618353	0.000073
1563	1.5542e+02	-17.7621	-63.409272	0.000264	2.636225	0.893177	0.000105
1564	1.5552e+02	-17.7139	-63.324493	0.000213	2.129258	0.721412	0.000085
1565	1.5562e+02	-17.6867	-63.247787	0.000193	1.926472	0.652706	0.000077
1566	1.5572e+02	-17.6466	-63.175119	0.000183	1.825079	0.618353	0.000073
1567	1.5582e+02	-17.5984	-63.070153	0.000264	2.636225	0.893177	0.000105
1568	1.5592e+02	-17.5615	-62.916742	0.000385	3.852944	1.305413	0.000154
1569	1.5602e+02	-17.5311	-62.904631	0.000030	0.304180	0.103059	0.000012
1570	1.5612e+02	-17.4877	-62.807739	0.000243	2.433438	0.824471	0.000097
1571	1.5622e+02	-17.4476	-62.674514	0.000335	3.345977	1.133648	0.000134
1572	1.5631e+02	-17.4091	-62.573585	0.000253	2.534831	0.858824	0.000101
1573	1.5641e+02	-17.3642	-62.513028	0.000152	1.520899	0.515294	0.000061
1574	1.5651e+02	-17.3161	-62.424211	0.000223	2.230652	0.755765	0.000089
1575	1.5661e+02	-17.2840	-62.335394	0.000223	2.230652	0.755765	0.000089
1576	1.5671e+02	-17.2471	-62.234466	0.000253	2.534831	0.858824	0.000101
1577	1.5681e+02	-17.2022	-62.133538	0.000253	2.534831	0.858824	0.000101
1578	1.5691e+02	-17.1605	-62.028572	0.000264	2.636225	0.893177	0.000105
1579	1.5701e+02	-17.1284	-61.984164	0.000112	1.115326	0.377883	0.000045
1580	1.5711e+02	-17.0883	-61.887272	0.000243	2.433438	0.824471	0.000097
1581	1.5721e+02	-17.0370	-61.786344	0.000253	2.534831	0.858824	0.000101
1582	1.5731e+02	-17.0049	-61.705601	0.000203	2.027865	0.687059	0.000081
1583	1.5741e+02	-16.9680	-61.604673	0.000253	2.534831	0.858824	0.000101
1584	1.5751e+02	-16.9279	-61.499707	0.000264	2.636225	0.893177	0.000105
1585	1.5761e+02	-16.8733	-61.394742	0.000264	2.636225	0.893177	0.000105
1586	1.5771e+02	-16.8444	-61.338222	0.000142	1.419506	0.480942	0.000057
1587	1.5781e+02	-16.8140	-61.192885	0.000365	3.650157	1.236707	0.000146
1588	1.5791e+02	-16.7658	-61.104068	0.000223	2.230652	0.755765	0.000089
1589	1.5801e+02	-16.7305	-61.007177	0.000243	2.433438	0.824471	0.000097
1590	1.5811e+02	-16.6872	-60.894137	0.000284	2.839011	0.961883	0.000114
1591	1.5821e+02	-16.6423	-60.825506	0.000172	1.723685	0.584000	0.000069
1592	1.5830e+02	-16.6118	-60.712466	0.000284	2.839011	0.961883	0.000114
1593	1.5840e+02	-16.5669	-60.631723	0.000203	2.027865	0.687059	0.000081
1594	1.5850e+02	-16.5252	-60.575203	0.000142	1.419506	0.480942	0.000057
1595	1.5860e+02	-16.4851	-60.413718	0.000406	4.055730	1.374119	0.000162
1596	1.5870e+02	-16.4386	-60.345086	0.000172	1.723685	0.584000	0.000069
1597	1.5880e+02	-16.4177	-60.272418	0.000183	1.825079	0.618353	0.000073
1598	1.5890e+02	-16.3744	-60.139193	0.000335	3.345977	1.133648	0.000134
1599	1.5900e+02	-16.3231	-60.022116	0.000294	2.940404	0.996236	0.000118
1600	1.5910e+02	-16.2910	-59.997893	0.000061	0.608360	0.206118	0.000024
1601	1.5920e+02	-16.2541	-59.872742	0.000314	3.143191	1.064942	0.000126
1602	1.5930e+02	-16.2044	-59.755665	0.000294	2.940404	0.996236	0.000118
1603	1.5940e+02	-16.1626	-59.650699	0.000264	2.636225	0.893177	0.000105
1604	1.5950e+02	-16.1322	-59.537659	0.000284	2.839011	0.961883	0.000114
1605	1.5960e+02	-16.0985	-59.481139	0.000142	1.419506	0.480942	0.000057
1606	1.5970e+02	-16.0455	-59.311580	0.000426	4.258517	1.442825	0.000170
1607	1.5980e+02	-16.0151	-59.259097	0.000132	1.318112	0.446589	0.000053
1608	1.5990e+02	-15.9717	-59.174317	0.000213	2.129258	0.721412	0.000085
1609	1.6000e+02	-15.9413	-59.065314	0.000274	2.737618	0.927530	0.000110
1610	1.6010e+02	-15.8835	-58.992646	0.000183	1.825079	0.618353	0.000073
1611	1.6019e+02	-15.8530	-58.879606	0.000284	2.839011	0.961883	0.000114
1612	1.6029e+02	-15.8033	-58.774641	0.000264	2.636225	0.893177	0.000105
1613	1.6039e+02	-15.7680	-58.629304	0.000365	3.650157	1.236707	0.000146
1614	1.6049e+02	-15.7279	-58.584895	0.000112	1.115326	0.377883	0.000045
1615	1.6059e+02	-15.6974	-58.475893	0.000274	2.737618	0.927530	0.000110
1616	1.6069e+02	-15.6541	-58.362853	0.000284	2.839011	0.961883	0.000114
1617	1.6079e+02	-15.6108	-58.294221	0.000172	1.723685	0.584000	0.000069
1618	1.6089e+02	-15.5771	-58.156959	0.000345	3.447371	1.168001	0.000138
1619	1.6099e+02	-15.5322	-58.100439	0.000142	1.419506	0.480942	0.000057
1620	1.6109e+02	-15.4921	-57.959139	0.000355	3.548764	1.202354	0.000142
1621	1.6119e+02	-15.4504	-57.862248	0.000243	2.433438	0.824471	0.000097
1622	1.6129e+02	-15.4151	-57.781505	0.000203	2.027865	0.687059	0.000081
1623	1.6139e+02	-15.3702	-57.676540	0.000264	2.636225	0.893177	0.000105
1624	1.6149e+02	-15.3349	-57.575611	0.000253	2.534831	0.858824	0.000101
1625	1.6159e+02	-15.2883	-57.458534	0.000294	2.940404	0.996236	0.000118
1626	1.6169e+02	-15.2546	-57.381829	0.000193	1.926472	0.652706	0.000077
1627	1.6179e+02	-15.2145	-57.228418	0.000385	3.852944	1.305413	0.000154
1628	1.6189e+02	-15.1664	-57.147675	0.000203	2.027865	0.687059	0.000081
1629	1.6199e+02	-15.1247	-57.075006	0.000183	1.825079	0.618353	0.000073
1630	1.6209e+02	-15.0958	-56.941781	0.000335	3.345977	1.133648	0.000134
1631	1.6219e+02	-15.0541	-56.852964	0.000223	2.230652	0.755765	0.000089
1632	1.6228e+02	-15.0204	-56.776258	0.000193	1.926472	0.652706	0.000077
1633	1.6238e+02	-14.9675	-56.675330	0.000253	2.534831	0.858824	0.000101
1634	1.6248e+02	-14.9338	-56.521919	0.000385	3.852944	1.305413	0.000154
1635	1.6258e+02	-14.8921	-56.481548	0.000101	1.013933	0.343530	0.000041
1636	1.6268e+02	-14.8568	-56.368508	0.000284	2.839011	0.961883	0.000114
1637	1.6278e+02	-14.8151	-56.251431	0.000294	2.940404	0.996236	0.000118
1638	1.6288e+02	-14.7686	-56.142428	0.000274	2.737618	0.927530	0.000110
1639	1.6298e+02	-14.7349	-56.009203	0.000335	3.345977	1.133648	0.000134
1640	1.6308e+02	-14.6996	-55.956720	0.000132	1.318112	0.446589	0.000053
1641	1.6318e+02	-14.6482	-55.871940	0.000213	2.129258	0.721412	0.000085
1642	1.6328e+02	-14.6130	-55.718529	0.000385	3.852944	1.305413	0.000154
1643	1.6338e+02	-14.5696	-55.637786	0.000203	2.027865	0.687059	0.000081
1644	1.6348e+02	-14.5311	-55.544932	0.000233	2.332045	0.790118	0.000093
1645	1.6358e+02	-14.4942	-55.435929	0.000274	2.737618	0.927530	0.000110
1646	1.6368e+02	-14.4590	-55.314815	0.000304	3.041798	1.030589	0.000122
1647	1.6378e+02	-14.4156	-55.238110	0.000193	1.926472	0.652706	0.000077
1648	1.6388e+02	-14.3739	-55.104884	0.000335	3.345977	1.133648	0.000134
1649	1.6398e+02	-14.3434	-54.991844	0.000284	2.839011	0.961883	0.000114
1650	1.6408e+02	-14.2937	-54.886879	0.000264	2.636225	0.893177	0.000105
1651	1.6418e+02	-14.2616	-54.798062	0.000223	2.230652	0.755765	0.000089
1652	1.6427e+02	-14.2183	-54.701171	0.000243	2.433438	0.824471	0.000097
1653	1.6437e+02	-14.1782	-54.571982	0.000324	3.244584	1.099295	0.000130
1654	1.6447e+02	-14.1413	-54.454905	0.000294	2.940404	0.996236	0.000118
1655	1.6457e+02	-14.0948	-54.353977	0.000253	2.534831	0.858824	0.000101
1656	1.6467e+02	-14.0402	-54.261123	0.000233	2.332045	0.790118	0.000093
1657	1.6477e+02	-14.0082	-54.115786	0.000365	3.650157	1.236707	0.000146
1658	1.6487e+02	-13.9825	-54.006783	0.000274	2.737618	0.927530	0.000110
1659	1.6497e+02	-13.9376	-53.926041	0.000203	2.027865	0.687059	0.000081
1660	1.6507e+02	-13.8927	-53.800889	0.000314	3.143191	1.064942	0.000126
1661	1.6517e+02	-13.8590	-53.683812	0.000294	2.940404	0.996236	0.000118
1662	1.6527e+02	-13.8237	-53.607107	0.000193	1.926472	0.652706	0.000077
1663	1.6537e+02	-13.7884	-53.461770	0.000365	3.650157	1.236707	0.000146
1664	1.6547e+02	-13.7354	-53.352767	0.000274	2.737618	0.927530	0.000110
1665	1.6557e+02	-13.6905	-53.263950	0.000223	2.230652	0.755765	0.000089
1666	1.6567e+02	-13.6552	-53.114576	0.000375	3.751550	1.271060	0.000150
1667	1.6577e+02	-13.6119	-53.013648	0.000253	2.534831	0.858824	0.000101
1668	1.6587e+02	-13.5766	-52.957128	0.000142	1.419506	0.480942	0.000057
1669	1.6597e+02	-13.5365	-52.795643	0.000406	4.055730	1.374119	0.000162
1670	1.6607e+02	-13.5028	-52.702788	0.000233	2.332045	0.790118	0.000093
1671	1.6616e+02	-13.4611	-52.573600	0.000324	3.244584	1.099295	0.000130
1672	1.6626e+02	-13.4146	-52.488820	0.000213	2.129258	0.721412	0.000085
1673	1.6636e+02	-13.3729	-52.428263	0.000152	1.520899	0.515294	0.000061
1674	1.6646e+02	-13.3360	-52.254666	0.000436	4.359910	1.477177	0.000174
1675	1.6656e+02	-13.3007	-52.145664	0.000274	2.737618	0.927530	0.000110
1676	1.6666e+02	-13.2606	-52.036661	0.000274	2.737618	0.927530	0.000110
1677	1.6676e+02	-13.2173	-51.935733	0.000253	2.534831	0.858824	0.000101
1678	1.6686e+02	-13.1820	-51.863064	0.000183	1.825079	0.618353	0.000073
1679	1.6696e+02	-13.1403	-51.709653	0.000385	3.852944	1.305413	0.000154
1680	1.6706e+02	-13.1034	-51.616799	0.000233	2.332045	0.790118	0.000093
1681	1.6716e+02	-13.0552	-51.503759	0.000284	2.839011	0.961883	0.000114
1682	1.6726e+02	-13.0183	-51.414942	0.000223	2.230652	0.755765	0.000089
1683	1.6736e+02	-12.9782	-51.273642	0.000355	3.548764	1.202354	0.000142
1684	1.6746e+02	-12.9397	-51.140417	0.000335	3.345977	1.133648	0.000134
1685	1.6756e+02	-12.8948	-51.043526	0.000243	2.433438	0.824471	0.000097
1686	1.6766e+02	-12.8676	-50.946634	0.000243	2.433438	0.824471	0.000097
1687	1.6776e+02	-12.8242	-50.833595	0.000284	2.839011	0.961883	0.000114
1688	1.6786e+02	-12.7825	-50.732666	0.000253	2.534831	0.858824	0.000101
1689	1.6796e+02	-12.7472	-50.631738	0.000253	2.534831	0.858824	0.000101
1690	1.6806e+02	-12.7087	-50.526772	0.000264	2.636225	0.893177	0.000105
1691	1.6816e+02	-12.6542	-50.389510	0.000345	3.447371	1.168001	0.000138
1692	1.6825e+02	-12.6189	-50.292618	0.000243	2.433438	0.824471	0.000097
1693	1.6835e+02	-12.5900	-50.123059	0.000426	4.258517	1.442825	0.000170
1694	1.6845e+02	-12.5387	-50.062502	0.000152	1.520899	0.515294	0.000061
1695	1.6855e+02	-12.5002	-49.953499	0.000274	2.737618	0.927530	0.000110
1696	1.6865e+02	-12.4633	-49.852571	0.000253	2.534831	0.858824	0.000101
1697	1.6875e+02	-12.4296	-49.719345	0.000335	3.345977	1.133648	0.000134
1698	1.6885e+02	-12.3863	-49.598231	0.000304	3.041798	1.030589	0.000122
1699	1.6895e+02	-12.3414	-49.493266	0.000264	2.636225	0.893177	0.000105
1700	1.6905e+02	-12.3029	-49.347929	0.000365	3.650157	1.236707	0.000146
1701	1.6915e+02	-12.2595	-49.222777	0.000314	3.143191	1.064942	0.000126
1702	1.6925e+02	-12.2323	-49.146072	0.000193	1.926472	0.652706	0.000077
1703	1.6935e+02	-12.1841	-49.049181	0.000243	2.433438	0.824471	0.000097
1704	1.6945e+02	-12.1521	-48.915955	0.000335	3.345977	1.133648	0.000134
1705	1.6955e+02	-12.1055	-48.802915	0.000284	2.839011	0.961883	0.000114
1706	1.6965e+02	-12.0654	-48.701987	0.000253	2.534831	0.858824	0.000101
1707	1.6975e+02	-12.0189	-48.609133	0.000233	2.332045	0.790118	0.000093
1708	1.6985e+02	-11.9836	-48.459759	0.000375	3.751550	1.271060	0.000150
1709	1.6995e+02	-11.9515	-48.362868	0.000243	2.433438	0.824471	0.000097
1710	1.7005e+02	-11.9066	-48.241754	0.000304	3.041798	1.030589	0.000122
1711	1.7015e+02	-11.8681	-48.128714	0.000284	2.839011	0.961883	0.000114
1712	1.7024e+02	-11.8264	-48.019711	0.000274	2.737618	0.927530	0.000110
1713	1.7034e+02	-11.7847	-47.886486	0.000335	3.345977	1.133648	0.000134
1714	1.7044e+02	-11.7446	-47.781520	0.000264	2.636225	0.893177	0.000105
1715	1.7054e+02	-11.7045	-47.680592	0.000253	2.534831	0.858824	0.000101
1716	1.7064e+02	-11.6676	-47.527180	0.000385	3.852944	1.305413	0.000154
1717	1.7074e+02	-11.6195	-47.446438	0.000203	2.027865	0.687059	0.000081
1718	1.7084e+02	-11.5954	-47.321287	0.000314	3.143191	1.064942	0.000126
1719	1.7094e+02	-11.5473	-47.208247	0.000284	2.839011	0.961883	0.000114
1720	1.7104e+02	-11.5023	-47.095207	0.000284	2.839011	0.961883	0.000114
1721	1.7114e+02	-11.4719	-46.982167	0.000284	2.839011	0.961883	0.000114
1722	1.7124e+02	-11.4334	-46.812607	0.000426	4.258517	1.442825	0.000170
1723	1.7134e+02	-11.3884	-46.739939	0.000183	1.825079	0.618353	0.000073
1724	1.7144e+02	-11.3499	-46.626899	0.000284	2.839011	0.961883	0.000114
1725	1.7154e+02	-11.3034	-46.517897	0.000274	2.737618	0.927530	0.000110
1726	1.7164e+02	-11.2681	-46.388708	0.000324	3.244584	1.099295	0.000130
1727	1.7174e+02	-11.2264	-46.287780	0.000253	2.534831	0.858824	0.000101
1728	1.7184e+02	-11.1815	-46.146480	0.000355	3.548764	1.202354	0.000142
1729	1.7194e+02	-11.1478	-46.037477	0.000274	2.737618	0.927530	0.000110
1730	1.7204e+02	-11.1109	-45.948660	0.000223	2.230652	0.755765	0.000089
1731	1.7213e+02	-11.0676	-45.799286	0.000375	3.751550	1.271060	0.000150
1732	1.7223e+02	-11.0355	-45.690284	0.000274	2.737618	0.927530	0.000110
1733	1.7233e+02	-10.9826	-45.581281	0.000274	2.737618	0.927530	0.000110
1734	1.7243e+02	-10.9441	-45.448056	0.000335	3.345977	1.133648	0.000134
1735	1.7253e+02	-10.9104	-45.322904	0.000314	3.143191	1.064942	0.000126
1736	1.7263e+02	-10.8783	-45.250236	0.000183	1.825079	0.618353	0.000073
1737	1.7273e+02	-10.8270	-45.117010	0.000335	3.345977	1.133648	0.000134
1738	1.7283e+02	-10.7853	-45.024156	0.000233	2.332045	0.790118	0.000093
1739	1.7293e+02	-10.7403	-44.890931	0.000335	3.345977	1.133648	0.000134
1740	1.7303e+02	-10.7179	-44.806151	0.000213	2.129258	0.721412	0.000085
1741	1.7313e+02	-10.6633	-44.664851	0.000355	3.548764	1.202354	0.000142
1742	1.7323e+02	-10.6216	-44.543737	0.000304	3.041798	1.030589	0.000122
1743	1.7333e+02	-10.5927	-44.430697	0.000284	2.839011	0.961883	0.000114
1744	1.7343e+02	-10.5526	-44.341880	0.000223	2.230652	0.755765	0.000089
1745	1.7353e+02	-10.5141	-44.216729	0.000314	3.143191	1.064942	0.000126
1746	1.7363e+02	-10.4708	-44.095615	0.000304	3.041798	1.030589	0.000122
1747	1.7373e+02	-10.4291	-43.938167	0.000395	3.954337	1.339766	0.000158
1748	1.7383e+02	-10.3970	-43.901833	0.000091	0.912539	0.309177	0.000037
1749	1.7393e+02	-10.3505	-43.756496	0.000365	3.650157	1.236707	0.000146
1750	1.7403e+02	-10.3152	-43.595010	0.000406	4.055730	1.374119	0.000162
1751	1.7413e+02	-10.2671	-43.514268	0.000203	2.027865	0.687059	0.000081
1752	1.7422e+02	-10.2382	-43.377005	0.000345	3.447371	1.168001	0.000138
1753	1.7432e+02	-10.1965	-43.263965	0.000284	2.839011	0.961883	0.000114
1754	1.7442e+02	-10.1484	-43.150925	0.000284	2.839011	0.961883	0.000114
1755	1.7452e+02	-10.1131	-43.033848	0.000294	2.940404	0.996236	0.000118
1756	1.7462e+02	-10.0778	-42.924846	0.000274	2.737618	0.927530	0.000110
1757	1.7472e+02	-10.0313	-42.795657	0.000324	3.244584	1.099295	0.000130
1758	1.7482e+02	-9.9928	-42.670506	0.000314	3.143191	1.064942	0.000126
1759	1.7492e+02	-9.9639	-42.581689	0.000223	2.230652	0.755765	0.000089
1760	1.7502e+02	-9.9206	-42.468649	0.000284	2.839011	0.961883	0.000114
1761	1.7512e+02	-9.8741	-42.347535	0.000304	3.041798	1.030589	0.000122
1762	1.7522e+02	-9.8227	-42.190087	0.000395	3.954337	1.339766	0.000158
1763	1.7532e+02	-9.7906	-42.113381	0.000193	1.926472	0.652706	0.000077
1764	1.7542e+02	-9.7585	-41.939785	0.000436	4.359910	1.477177	0.000174
1765	1.7552e+02	-9.7120	-41.846930	0.000233	2.332045	0.790118	0.000093
1766	1.7562e+02	-9.6751	-41.725816	0.000304	3.041798	1.030589	0.000122
1767	1.7572e+02	-9.6398	-41.592591	0.000335	3.345977	1.133648	0.000134
1768	1.7582e+02	-9.6013	-41.471477	0.000304	3.041798	1.030589	0.000122
1769	1.7592e+02	-9.5596	-41.358437	0.000284	2.839011	0.961883	0.000114
1770	1.7602e+02	-9.5179	-41.217137	0.000355	3.548764	1.202354	0.000142
1771	1.7612e+02	-9.4794	-41.116209	0.000253	2.534831	0.858824	0.000101
1772	1.7621e+02	-9.4361	-41.043540	0.000183	1.825079	0.618353	0.000073
1773	1.7631e+02	-9.3928	-40.890129	0.000385	3.852944	1.305413	0.000154
1774	1.7641e+02	-9.3495	-40.773052	0.000294	2.940404	0.996236	0.000118
1775	1.7651e+02	-9.3142	-40.643864	0.000324	3.244584	1.099295	0.000130
1776	1.7661e+02	-9.2805	-40.518713	0.000314	3.143191	1.064942	0.000126
1777	1.7671e+02	-9.2340	-40.369339	0.000375	3.751550	1.271060	0.000150
1778	1.7681e+02	-9.2019	-40.252262	0.000294	2.940404	0.996236	0.000118
1779	1.7691e+02	-9.1570	-40.171519	0.000203	2.027865	0.687059	0.000081
1780	1.7701e+02	-9.1120	-40.030219	0.000355	3.548764	1.202354	0.000142
1781	1.7711e+02	-9.0784	-39.892957	0.000345	3.447371	1.168001	0.000138
1782	1.7721e+02	-9.0399	-39.828363	0.000162	1.622292	0.549647	0.000065
1783	1.7731e+02	-8.9885	-39.654766	0.000436	4.359910	1.477177	0.000174
1784	1.7741e+02	-8.9532	-39.565949	0.000223	2.230652	0.755765	0.000089
1785	1.7751e+02	-8.9227	-39.404463	0.000406	4.055730	1.374119	0.000162
1786	1.7761e+02	-8.8794	-39.279312	0.000314	3.143191	1.064942	0.000126
1787	1.7771e+02	-8.8409	-39.121864	0.000395	3.954337	1.339766	0.000158
1788	1.7781e+02	-8.8040	-39.037084	0.000213	2.129258	0.721412	0.000085
1789	1.7791e+02	-8.7591	-38.891747	0.000365	3.650157	1.236707	0.000146
1790	1.7801e+02	-8.7206	-38.806967	0.000213	2.129258	0.721412	0.000085
1791	1.7810e+02	-8.6789	-38.673742	0.000335	3.345977	1.133648	0.000134
1792	1.7820e+02	-8.6388	-38.552628	0.000304	3.041798	1.030589	0.000122
1793	1.7830e+02	-8.5907	-38.411328	0.000355	3.548764	1.202354	0.000142
1794	1.7840e+02	-8.5554	-38.322511	0.000223	2.230652	0.755765	0.000089
1795	1.7850e+02	-8.5121	-38.156988	0.000416	4.157123	1.408472	0.000166
1796	1.7860e+02	-8.4720	-38.023763	0.000335	3.345977	1.133648	0.000134
1797	1.7870e+02	-8.4399	-37.922835	0.000253	2.534831	0.858824	0.000101
1798	1.7880e+02	-8.3982	-37.858240	0.000162	1.622292	0.549647	0.000065
1799	1.7890e+02	-8.3677	-37.688681	0.000426	4.258517	1.442825	0.000170
1800	1.7900e+02	-8.3212	-37.591789	0.000243	2.433438	0.824471	0.000097
1801	1.7910e+02	-8.2778	-37.414155	0.000446	4.461303	1.511530	0.000179
1802	1.7920e+02	-8.2425	-37.305153	0.000274	2.737618	0.927530	0.000110
1803	1.7930e+02	-8.1928	-37.188076	0.000294	2.940404	0.996236	0.000118
1804	1.7940e+02	-8.1623	-37.087147	0.000253	2.534831	0.858824	0.000101
1805	1.7950e+02	-8.1222	-36.921625	0.000416	4.157123	1.408472	0.000166
1806	1.7960e+02	-8.0853	-36.800511	0.000304	3.041798	1.030589	0.000122
1807	1.7970e+02	-8.0420	-36.695545	0.000264	2.636225	0.893177	0.000105
1808	1.7980e+02	-8.0019	-36.566357	0.000324	3.244584	1.099295	0.000130
1809	1.7990e+02	-7.9634	-36.449280	0.000294	2.940404	0.996236	0.000118
1810	1.8000e+02	-7.9217	-36.287795	0.000406	4.055730	1.374119	0.000162
1811	1.8009e+02	-7.8832	-36.174755	0.000284	2.839011	0.961883	0.000114
1812	1.8019e+02	-7.8367	-36.057678	0.000294	2.940404	0.996236	0.000118
1813	1.8029e+02	-7.7998	-35.932527	0.000314	3.143191	1.064942	0.000126
1814	1.8039e+02	-7.7661	-35.815450	0.000294	2.940404	0.996236	0.000118
1815	1.8049e+02	-7.7244	-35.694336	0.000304	3.041798	1.030589	0.000122
1816	1.8059e+02	-7.6795	-35.532850	0.000406	4.055730	1.374119	0.000162
1817	1.8069e+02	-7.6442	-35.435959	0.000243	2.433438	0.824471	0.000097
1818	1.8079e+02	-7.6041	-35.278511	0.000395	3.954337	1.339766	0.000158
1819	1.8089e+02	-7.5624	-35.165471	0.000284	2.839011	0.961883	0.000114
1820	1.8099e+02	-7.5335	-35.024171	0.000355	3.548764	1.202354	0.000142
1821	1.8109e+02	-7.4789	-34.919206	0.000264	2.636225	0.893177	0.000105
1822	1.8119e+02	-7.4388	-34.781943	0.000345	3.447371	1.168001	0.000138
1823	1.8129e+02	-7.4067	-34.632569	0.000375	3.751550	1.271060	0.000150
1824	1.8139e+02	-7.3538	-34.511455	0.000304	3.041798	1.030589	0.000122
1825	1.8149e+02	-7.3185	-34.366118	0.000365	3.650157	1.236707	0.000146
1826	1.8159e+02	-7.2736	-34.224818	0.000355	3.548764	1.202354	0.000142
1827	1.8169e+02	-7.2495	-34.111778	0.000284	2.839011	0.961883	0.000114
1828	1.8179e+02	-7.1934	-33.974516	0.000345	3.447371	1.168001	0.000138
1829	1.8189e+02	-7.1613	-33.817068	0.000395	3.954337	1.339766	0.000158
1830	1.8199e+02	-7.1292	-33.671731	0.000365	3.650157	1.236707	0.000146
1831	1.8209e+02	-7.0843	-33.570802	0.000253	2.534831	0.858824	0.000101
1832	1.8218e+02	-7.0394	-33.441614	0.000324	3.244584	1.099295	0.000130
1833	1.8228e+02	-7.0105	-33.324537	0.000294	2.940404	0.996236	0.000118
1834	1.8238e+02	-6.9688	-33.203423	0.000304	3.041798	1.030589	0.000122
1835	1.8248e+02	-6.9287	-32.981380	0.000558	5.576629	1.889413	0.000223
1836	1.8258e+02	-6.8773	-32.896601	0.000213	2.129258	0.721412	0.000085
1837	1.8268e+02	-6.8469	-32.811821	0.000213	2.129258	0.721412	0.000085
1838	1.8278e+02	-6.8036	-32.614001	0.000497	4.968270	1.683295	0.000199
1839	1.8288e+02	-6.7634	-32.504998	0.000274	2.737618	0.927530	0.000110
1840	1.8298e+02	-6.7217	-32.383884	0.000304	3.041798	1.030589	0.000122
1841	1.8308e+02	-6.6961	-32.214325	0.000426	4.258517	1.442825	0.000170
1842	1.8318e+02	-6.6415	-32.149730	0.000162	1.622292	0.549647	0.000065
1843	1.8328e+02	-6.6110	-31.939799	0.000527	5.272449	1.786354	0.000211
1844	1.8338e+02	-6.5758	-31.867131	0.000183	1.825079	0.618353	0.000073
1845	1.8348e+02	-6.5244	-31.725831	0.000355	3.548764	1.202354	0.000142
1846	1.8358e+02	-6.4843	-31.552234	0.000436	4.359910	1.477177	0.000174
1847	1.8368e+02	-6.4490	-31.439195	0.000284	2.839011	0.961883	0.000114
1848	1.8378e+02	-6.4057	-31.338266	0.000253	2.534831	0.858824	0.000101
1849	1.8388e+02	-6.3752	-31.176781	0.000406	4.055730	1.374119	0.000162
1850	1.8398e+02	-6.3239	-31.059704	0.000294	2.940404	0.996236	0.000118
1851	1.8407e+02	-6.2934	-30.918404	0.000355	3.548764	1.202354	0.000142
1852	1.8417e+02	-6.2597	-30.789216	0.000324	3.244584	1.099295	0.000130
1853	1.8427e+02	-6.2052	-30.672139	0.000294	2.940404	0.996236	0.000118
1854	1.8437e+02	-6.1715	-30.534876	0.000345	3.447371	1.168001	0.000138
1855	1.8447e+02	-6.1314	-30.385502	0.000375	3.751550	1.271060	0.000150
1856	1.8457e+02	-6.0881	-30.252277	0.000335	3.345977	1.133648	0.000134
1857	1.8467e+02	-6.0576	-30.127125	0.000314	3.143191	1.064942	0.000126
1858	1.8477e+02	-6.0143	-29.977751	0.000375	3.751550	1.271060	0.000150
1859	1.8487e+02	-5.9806	-29.884897	0.000233	2.332045	0.790118	0.000093
1860	1.8497e+02	-5.9341	-29.711300	0.000436	4.359910	1.477177	0.000174
1861	1.8507e+02	-5.8843	-29.570001	0.000355	3.548764	1.202354	0.000142
1862	1.8517e+02	-5.8522	-29.456961	0.000284	2.839011	0.961883	0.000114
1863	1.8527e+02	-5.8073	-29.315661	0.000355	3.548764	1.202354	0.000142
1864	1.8537e+02	-5.7736	-29.162250	0.000385	3.852944	1.305413	0.000154
1865	1.8547e+02	-5.7464	-29.037099	0.000314	3.143191	1.064942	0.000126
1866	1.8557e+02	-5.6902	-28.895799	0.000355	3.548764	1.202354	0.000142
1867	1.8567e+02	-5.6581	-28.766611	0.000324	3.244584	1.099295	0.000130
1868	1.8577e+02	-5.6084	-28.641459	0.000314	3.143191	1.064942	0.000126
1869	1.8587e+02	-5.5651	-28.508234	0.000335	3.345977	1.133648	0.000134
1870	1.8597e+02	-5.5266	-28.350786	0.000395	3.954337	1.339766	0.000158
1871	1.8606e+02	-5.4961	-28.225635	0.000314	3.143191	1.064942	0.000126
1872	1.8616e+02	-5.4560	-28.112595	0.000284	2.839011	0.961883	0.000114
1873	1.8626e+02	-5.4095	-27.947072	0.000416	4.157123	1.408472	0.000166
1874	1.8636e+02	-5.3742	-27.805772	0.000355	3.548764	1.202354	0.000142
1875	1.8646e+02	-5.3325	-27.664473	0.000355	3.548764	1.202354	0.000142
1876	1.8656e+02	-5.2843	-27.547396	0.000294	2.940404	0.996236	0.000118
1877	1.8666e+02	-5.2474	-27.402059	0.000365	3.650157	1.236707	0.000146
1878	1.8676e+02	-5.2122	-27.252685	0.000375	3.751550	1.271060	0.000150
1879	1.8686e+02	-5.1801	-27.139645	0.000284	2.839011	0.961883	0.000114
1880	1.8696e+02	-5.1416	-26.974122	0.000416	4.157123	1.408472	0.000166
1881	1.8706e+02	-5.0934	-26.848971	0.000314	3.143191	1.064942	0.000126
1882	1.8716e+02	-5.0565	-26.687486	0.000406	4.055730	1.374119	0.000162
1883	1.8726e+02	-5.0116	-26.538112	0.000375	3.751550	1.271060	0.000150
1884	1.8736e+02	-4.9683	-26.429109	0.000274	2.737618	0.927530	0.000110
1885	1.8746e+02	-4.9378	-26.303958	0.000314	3.143191	1.064942	0.000126
1886	1.8756e+02	-4.8945	-26.106138	0.000497	4.968270	1.683295	0.000199
1887	1.8766e+02	-4.8480	-26.029433	0.000193	1.926472	0.652706	0.000077
1888	1.8776e+02	-4.8143	-25.871984	0.000395	3.954337	1.339766	0.000158
1889	1.8786e+02	-4.7726	-25.674165	0.000497	4.968270	1.683295	0.000199
1890	1.8796e+02	-4.7373	-25.589385	0.000213	2.129258	0.721412	0.000085
1891	1.8806e+02	-4.6972	-25.444048	0.000365	3.650157	1.236707	0.000146
1892	1.8815e+02	-4.6571	-25.294674	0.000375	3.751550	1.271060	0.000150
1893	1.8825e+02	-4.6138	-25.133189	0.000406	4.055730	1.374119	0.000162
1894	1.8835e+02	-4.5769	-25.012074	0.000304	3.041798	1.030589	0.000122
1895	1.8845e+02	-4.5271	-24.850589	0.000406	4.055730	1.374119	0.000162
1896	1.8855e+02	-4.4919	-24.709289	0.000355	3.548764	1.202354	0.000142
1897	1.8865e+02	-4.4630	-24.559915	0.000375	3.751550	1.271060	0.000150
1898	1.8875e+02	-4.4165	-24.487247	0.000183	1.825079	0.618353	0.000073
1899	1.8885e+02	-4.3715	-24.309613	0.000446	4.461303	1.511530	0.000179
1900	1.8895e+02	-4.3346	-24.152165	0.000395	3.954337	1.339766	0.000158
1901	1.8905e+02	-4.2993	-24.043162	0.000274	2.737618	0.927530	0.000110
1902	1.8915e+02	-4.2576	-23.905899	0.000345	3.447371	1.168001	0.000138
1903	1.8925e+02	-4.2159	-23.796897	0.000274	2.737618	0.927530	0.000110
1904	1.8935e+02	-4.1870	-23.615225	0.000456	4.562696	1.545883	0.000183
1905	1.8945e+02	-4.1485	-23.469889	0.000365	3.650157	1.236707	0.000146
1906	1.8955e+02	-4.0988	-23.352812	0.000294	2.940404	0.996236	0.000118
1907	1.8965e+02	-4.0603	-23.187289	0.000416	4.157123	1.408472	0.000166
1908	1.8975e+02	-4.0106	-23.066175	0.000304	3.041798	1.030589	0.000122
1909	1.8985e+02	-3.9849	-22.949098	0.000294	2.940404	0.996236	0.000118
1910	1.8995e+02	-3.9368	-22.779538	0.000426	4.258517	1.442825	0.000170
1911	1.9004e+02	-3.8887	-22.670536	0.000274	2.737618	0.927530	0.000110
1912	1.9014e+02	-3.8598	-22.533273	0.000345	3.447371	1.168001	0.000138
1913	1.9024e+02	-3.8293	-22.355639	0.000446	4.461303	1.511530	0.000179
1914	1.9034e+02	-3.7828	-22.242599	0.000284	2.839011	0.961883	0.000114
1915	1.9044e+02	-3.7411	-22.089188	0.000385	3.852944	1.305413	0.000154
1916	1.9054e+02	-3.6978	-21.923666	0.000416	4.157123	1.408472	0.000166
1917	1.9064e+02	-3.6560	-21.806589	0.000294	2.940404	0.996236	0.000118
1918	1.9074e+02	-3.6143	-21.665289	0.000355	3.548764	1.202354	0.000142
1919	1.9084e+02	-3.5790	-21.544175	0.000304	3.041798	1.030589	0.000122
1920	1.9094e+02	-3.5454	-21.366541	0.000446	4.461303	1.511530	0.000179
1921	1.9104e+02	-3.5020	-21.289835	0.000193	1.926472	0.652706	0.000077
1922	1.9114e+02	-3.4539	-21.128350	0.000406	4.055730	1.374119	0.000162
1923	1.9124e+02	-3.4218	-20.930530	0.000497	4.968270	1.683295	0.000199
1924	1.9134e+02	-3.3673	-20.797305	0.000335	3.345977	1.133648	0.000134
1925	1.9144e+02	-3.3368	-20.672154	0.000314	3.143191	1.064942	0.000126
1926	1.9154e+02	-3.3095	-20.538928	0.000335	3.345977	1.133648	0.000134
1927	1.9164e+02	-3.2566	-20.393591	0.000365	3.650157	1.236707	0.000146
1928	1.9174e+02	-3.2213	-20.224031	0.000426	4.258517	1.442825	0.000170
1929	1.9184e+02	-3.1796	-20.123103	0.000253	2.534831	0.858824	0.000101
1930	1.9194e+02	-3.1427	-19.961618	0.000406	4.055730	1.374119	0.000162
1931	1.9203e+02	-3.1090	-19.824355	0.000345	3.447371	1.168001	0.000138
1932	1.9213e+02	-3.0609	-19.674981	0.000375	3.751550	1.271060	0.000150
1933	1.9223e+02	-3.0272	-19.561941	0.000284	2.839011	0.961883	0.000114
1934	1.9233e+02	-2.9887	-19.372196	0.000477	4.765483	1.614589	0.000191
1935	1.9243e+02	-2.9390	-19.283379	0.000223	2.230652	0.755765	0.000089
1936	1.9253e+02	-2.9053	-19.093633	0.000477	4.765483	1.614589	0.000191
1937	1.9263e+02	-2.8668	-18.968482	0.000314	3.143191	1.064942	0.000126
1938	1.9273e+02	-2.8202	-18.823145	0.000365	3.650157	1.236707	0.000146
1939	1.9283e+02	-2.7801	-18.665697	0.000395	3.954337	1.339766	0.000158
1940	1.9293e+02	-2.7368	-18.532472	0.000335	3.345977	1.133648	0.000134
1941	1.9303e+02	-2.7063	-18.375023	0.000395	3.954337	1.339766	0.000158
1942	1.9313e+02	-2.6678	-18.245835	0.000324	3.244584	1.099295	0.000130
1943	1.9323e+02	-2.6261	-18.088387	0.000395	3.954337	1.339766	0.000158
1944	1.9333e+02	-2.5796	-17.934976	0.000385	3.852944	1.305413	0.000154
1945	1.9343e+02	-2.5427	-17.773490	0.000406	4.055730	1.374119	0.000162
1946	1.9353e+02	-2.4930	-17.684673	0.000223	2.230652	0.755765	0.000089
1947	1.9363e+02	-2.4577	-17.523188	0.000406	4.055730	1.374119	0.000162
1948	1.9373e+02	-2.4288	-17.353628	0.000426	4.258517	1.442825	0.000170
1949	1.9383e+02	-2.3871	-17.212328	0.000355	3.548764	1.202354	0.000142
1950	1.9393e+02	-2.3422	-17.066991	0.000365	3.650157	1.236707	0.000146
1951	1.9403e+02	-2.3085	-16.877246	0.000477	4.765483	1.614589	0.000191
1952	1.9412e+02	-2.2668	-16.772280	0.000264	2.636225	0.893177	0.000105
1953	1.9422e+02	-2.2203	-16.614832	0.000395	3.954337	1.339766	0.000158
1954	1.9432e+02	-2.1834	-16.445272	0.000426	4.258517	1.442825	0.000170
1955	1.9442e+02	-2.1449	-16.340307	0.000264	2.636225	0.893177	0.000105
1956	1.9452e+02	-2.0983	-16.146524	0.000487	4.866876	1.648942	0.000195
1957	1.9462e+02	-2.0614	-16.013299	0.000335	3.345977	1.133648	0.000134
1958	1.9472e+02	-2.0294	-15.871999	0.000355	3.548764	1.202354	0.000142
1959	1.9482e+02	-1.9892	-15.706477	0.000416	4.157123	1.408472	0.000166
1960	1.9492e+02	-1.9507	-15.589400	0.000294	2.940404	0.996236	0.000118
1961	1.9502e+02	-1.9042	-15.460211	0.000324	3.244584	1.099295	0.000130
1962	1.9512e+02	-1.8641	-15.290652	0.000426	4.258517	1.442825	0.000170
1963	1.9522e+02	-1.8208	-15.129166	0.000406	4.055730	1.374119	0.000162
1964	1.9532e+02	-1.7887	-14.971718	0.000395	3.954337	1.339766	0.000158
1965	1.9542e+02	-1.7454	-14.842530	0.000324	3.244584	1.099295	0.000130
1966	1.9552e+02	-1.7149	-14.672970	0.000426	4.258517	1.442825	0.000170
1967	1.9562e+02	-1.6652	-14.572041	0.000253	2.534831	0.858824	0.000101
1968	1.9572e+02	-1.6235	-14.390370	0.000456	4.562696	1.545883	0.000183
1969	1.9582e+02	-1.5898	-14.249071	0.000355	3.548764	1.202354	0.000142
1970	1.9592e+02	-1.5529	-14.099697	0.000375	3.751550	1.271060	0.000150
1971	1.9601e+02	-1.5096	-13.946285	0.000385	3.852944	1.305413	0.000154
1972	1.9611e+02	-1.4679	-13.813060	0.000335	3.345977	1.133648	0.000134
1973	1.9621e+02	-1.4262	-13.659649	0.000385	3.852944	1.305413	0.000154
1974	1.9631e+02	-1.3877	-13.490089	0.000426	4.258517	1.442825	0.000170
1975	1.9641e+02	-1.3524	-13.377049	0.000284	2.839011	0.961883	0.000114
1976	1.9651e+02	-1.3026	-13.231712	0.000365	3.650157	1.236707	0.000146
1977	1.9661e+02	-1.2641	-13.070227	0.000406	4.055730	1.374119	0.000162
1978	1.9671e+02	-1.2224	-12.916816	0.000385	3.852944	1.305413	0.000154
1979	1.9681e+02	-1.1855	-12.771479	0.000365	3.650157	1.236707	0.000146
1980	1.9691e+02	-1.1422	-12.597882	0.000436	4.359910	1.477177	0.000174
1981	1.9701e+02	-1.1101	-12.480805	0.000294	2.940404	0.996236	0.000118
1982	1.9711e+02	-1.0684	-12.327394	0.000385	3.852944	1.305413	0.000154
1983	1.9721e+02	-1.0411	-12.157834	0.000426	4.258517	1.442825	0.000170
1984	1.9731e+02	-0.9930	-12.012497	0.000365	3.650157	1.236707	0.000146
1985	1.9741e+02	-0.9529	-11.842938	0.000426	4.258517	1.442825	0.000170
1986	1.9751e+02	-0.9032	-11.677415	0.000416	4.157123	1.408472	0.000166
1987	1.9761e+02	-0.8695	-11.556301	0.000304	3.041798	1.030589	0.000122
1988	1.9771e+02	-0.8390	-11.394816	0.000406	4.055730	1.374119	0.000162
1989	1.9781e+02	-0.7829	-11.253516	0.000355	3.548764	1.202354	0.000142
1990	1.9791e+02	-0.7572	-11.104142	0.000375	3.751550	1.271060	0.000150
1991	1.9800e+02	-0.7203	-10.910359	0.000487	4.866876	1.648942	0.000195
1992	1.9810e+02	-0.6690	-10.769060	0.000355	3.548764	1.202354	0.000142
1993	1.9820e+02	-0.6321	-10.668131	0.000253	2.534831	0.858824	0.000101
1994	1.9830e+02	-0.5904	-10.446089	0.000558	5.576629	1.889413	0.000223
1995	1.9840e+02	-0.5535	-10.312863	0.000335	3.345977	1.133648	0.000134
1996	1.9850e+02	-0.5069	-10.151378	0.000406	4.055730	1.374119	0.000162
1997	1.9860e+02	-0.4700	-9.981818	0.000426	4.258517	1.442825	0.000170
1998	1.9870e+02	-0.4251	-9.808221	0.000436	4.359910	1.477177	0.000174
1999	1.9880e+02	-0.3898	-9.699219	0.000274	2.737618	0.927530	0.000110
2000	1.9890e+02	-0.3610	-9.557919	0.000355	3.548764	1.202354	0.000142
2001	1.9900e+02	-0.3128	-9.400471	0.000395	3.954337	1.339766	0.000158
2002	1.9910e+02	-0.2711	-9.194577	0.000517	5.171056	1.752001	0.000207
2003	1.9920e+02	-0.2374	-9.069425	0.000314	3.143191	1.064942	0.000126
2004	1.9930e+02	-0.1925	-8.875643	0.000487	4.866876	1.648942	0.000195
2005	1.9940e+02	-0.1476	-8.766640	0.000274	2.737618	0.927530	0.000110
2006	1.9950e+02	-0.1059	-8.609192	0.000395	3.954337	1.339766	0.000158
2007	1.9960e+02	-0.0738	-8.447707	0.000406	4.055730	1.374119	0.000162
2008	1.9970e+02	-0.0337	-8.294295	0.000385	3.852944	1.305413	0.000154
2009	1.9980e+02	-0.0048	-8.140884	0.000385	3.852944	1.305413	0.000154

PMax (uC/cm2):	7.44e+01
Pr (uC/cm2):	4.47e+00
-Pr (uC/cm2):	-1.72e+00
PLoss (uC/cm2):	-1.74e+00
-Vc:	-1.19e+00
C (Max-Eff) (nF):	3.72e-01
K (Eff):	1.26e+03
Vert. (+/-Pr) Shift (uC/cm2):	1.38e+00
Offset (uC/cm2):	6.42e+00

A (Loop Area - uC/cm2·Volts):	6.05e-03



Hysteresis Version: 5.48.1 - Radiant Technologies, Inc., 1999 - 9/12/24

