»»»»»»»»»»»»»»»»»»»»»»»»»»»»»»»»»»»» Hysteresis ««««««««««««««««««««««««««««««««««««
»»»  Executed Version:	5.48.1
»»»  Vision Version:	5.48.4 (R)
»»»  Vision Compiled:	9/18/24
»»»  Driver Version:	5.47.0
»»»  Windows Version:	Windows 8 or 8.1
»»»  Processor Information:	x86 (AMD or Intel) - 32 Processors
»»»  Tester Name:	PMF21124-494 (100V)
»»»  Tester S/N:	PMF21124-494
»»»  Internal Amp Type:	100V RevK 270k
»»»  Internal Amp S/N:	iAB2-596/K     
»»»  Execution Count:	1
»»»»»»»»»»»»»»»»»»»»»»»»»»»»»»»»»»»»»»»»»»««««««««««««««««««««««««««««««««««««««««««

Stored:	6/19/2025 - 19:51:2
Configured:	06/19/25 10:04:32 AM
Executed:	06/19/25 07:50:33 PM

»»»»»»»»»»»»»»»»»»»»»»»»»»»»»»»»»»» Sample Info ««««««««««««««««««««««««««««««««««««
Sample Name:	
Lot Name:	
Wafer Name:	
Die Row/Column:	0/0
Capacitor Number:	0
Sample Area (cm2):	1.00e-04
Sample Thickness (microns):	3.00e-01

Amplifier:	Internal

»»»»»»»»»»»»»»»»»»»»»»»»»»»»»»»»»»» Tester Info «««««««««««««««««««««««««««««««««««
Tester Name:	PMF21124-494 (100V)
Tester Serial Number:	PMF21124-494
Return Signal Amp. Level:	0.19 [Index: 3]

»»»»»»»»»»»»»»»»»»»»»»»»»»»»»»»» Hysteresis Info ««««««««««««««««««««««««««««««««««
Task Name:	Hyst-1168
Volts:	20.00
Field:	666.67 (kV/cm)
DCBias:	0.00
DCField:	0.00 (kV/cm)
Hysteresis Period (ms):	2.00e+02
Preset:	Enabled
Preset Delay (ms):	1.00e+03
Profile:	Standard Bipolar

»»»»»»»»»»»»»»»»»»»»»»»»»»»»»»»»»»»»»» Data «««««««««««««««««««««««««««««««««««««««
Points:	2009

Valid Data

Point	Time (ms)	Drive Voltage	Measured Polarization (uC/cm2)	Capacitance (uF)	Normalized Capacitance (uF/cm2)	Dielectric Constant	Instantaneous Current (mA)
   1	0.0000e+00	0.0080	-6.552271	0.000314	3.143191	1.064942	0.000126
   2	9.9500e-02	0.0369	-6.427120	0.000314	3.143191	1.064942	0.000126
   3	1.9900e-01	0.0834	-6.301969	0.000314	3.143191	1.064942	0.000126
   4	2.9850e-01	0.1251	-6.144521	0.000395	3.954337	1.339766	0.000158
   5	3.9800e-01	0.1572	-5.954775	0.000477	4.765483	1.614589	0.000191
   6	4.9750e-01	0.1973	-5.789253	0.000416	4.157123	1.408472	0.000166
   7	5.9700e-01	0.2294	-5.660064	0.000324	3.244584	1.099295	0.000130
   8	6.9650e-01	0.2727	-5.510690	0.000375	3.751550	1.271060	0.000150
   9	7.9600e-01	0.3128	-5.397650	0.000284	2.839011	0.961883	0.000114
  10	8.9550e-01	0.3593	-5.215979	0.000456	4.562696	1.545883	0.000183
  11	9.9500e-01	0.3946	-5.082754	0.000335	3.345977	1.133648	0.000134
  12	1.0945e+00	0.4331	-4.937417	0.000365	3.650157	1.236707	0.000146
  13	1.1940e+00	0.4813	-4.796117	0.000355	3.548764	1.202354	0.000142
  14	1.2935e+00	0.5150	-4.650780	0.000365	3.650157	1.236707	0.000146
  15	1.3930e+00	0.5503	-4.440849	0.000527	5.272449	1.786354	0.000211
  16	1.4925e+00	0.6000	-4.299550	0.000355	3.548764	1.202354	0.000142
  17	1.5920e+00	0.6273	-4.117878	0.000456	4.562696	1.545883	0.000183
  18	1.6915e+00	0.6738	-4.016950	0.000253	2.534831	0.858824	0.000101
  19	1.7910e+00	0.7203	-3.871613	0.000365	3.650157	1.236707	0.000146
  20	1.8905e+00	0.7540	-3.714165	0.000395	3.954337	1.339766	0.000158
  21	1.9900e+00	0.7941	-3.552679	0.000406	4.055730	1.374119	0.000162
  22	2.0895e+00	0.8358	-3.399268	0.000385	3.852944	1.305413	0.000154
  23	2.1890e+00	0.8727	-3.229709	0.000426	4.258517	1.442825	0.000170
  24	2.2885e+00	0.9160	-3.088409	0.000355	3.548764	1.202354	0.000142
  25	2.3880e+00	0.9545	-2.971332	0.000294	2.940404	0.996236	0.000118
  26	2.4875e+00	1.0059	-2.777549	0.000487	4.866876	1.648942	0.000195
  27	2.5870e+00	1.0331	-2.599915	0.000446	4.461303	1.511530	0.000179
  28	2.6865e+00	1.0684	-2.503024	0.000243	2.433438	0.824471	0.000097
  29	2.7860e+00	1.1165	-2.349613	0.000385	3.852944	1.305413	0.000154
  30	2.8855e+00	1.1534	-2.176016	0.000436	4.359910	1.477177	0.000174
  31	2.9850e+00	1.1919	-1.998382	0.000446	4.461303	1.511530	0.000179
  32	3.0845e+00	1.2417	-1.816711	0.000456	4.562696	1.545883	0.000183
  33	3.1840e+00	1.2689	-1.667337	0.000375	3.751550	1.271060	0.000150
  34	3.2835e+00	1.3155	-1.542186	0.000314	3.143191	1.064942	0.000126
  35	3.3830e+00	1.3492	-1.340329	0.000507	5.069663	1.717648	0.000203
  36	3.4825e+00	1.4053	-1.219215	0.000304	3.041798	1.030589	0.000122
  37	3.5820e+00	1.4358	-1.049655	0.000426	4.258517	1.442825	0.000170
  38	3.6815e+00	1.4695	-0.916430	0.000335	3.345977	1.133648	0.000134
  39	3.7810e+00	1.5032	-0.758982	0.000395	3.954337	1.339766	0.000158
  40	3.8805e+00	1.5497	-0.609607	0.000375	3.751550	1.271060	0.000150
  41	3.9800e+00	1.5946	-0.436011	0.000436	4.359910	1.477177	0.000174
  42	4.0795e+00	1.6411	-0.286637	0.000375	3.751550	1.271060	0.000150
  43	4.1790e+00	1.6684	-0.117077	0.000426	4.258517	1.442825	0.000170
  44	4.2785e+00	1.7117	0.064594	0.000456	4.562696	1.545883	0.000183
  45	4.3780e+00	1.7582	0.222042	0.000395	3.954337	1.339766	0.000158
  46	4.4775e+00	1.7951	0.306822	0.000213	2.129258	0.721412	0.000085
  47	4.5770e+00	1.8288	0.500605	0.000487	4.866876	1.648942	0.000195
  48	4.6765e+00	1.8689	0.694387	0.000487	4.866876	1.648942	0.000195
  49	4.7760e+00	1.9171	0.847799	0.000385	3.852944	1.305413	0.000154
  50	4.8755e+00	1.9507	0.972950	0.000314	3.143191	1.064942	0.000126
  51	4.9750e+00	1.9892	1.130398	0.000395	3.954337	1.339766	0.000158
  52	5.0745e+00	2.0294	1.316106	0.000466	4.664090	1.580236	0.000187
  53	5.1740e+00	2.0791	1.473555	0.000395	3.954337	1.339766	0.000158
  54	5.2735e+00	2.1048	1.602743	0.000324	3.244584	1.099295	0.000130
  55	5.3730e+00	2.1465	1.792488	0.000477	4.765483	1.614589	0.000191
  56	5.4725e+00	2.1834	1.929751	0.000345	3.447371	1.168001	0.000138
  57	5.5720e+00	2.2267	2.107385	0.000446	4.461303	1.511530	0.000179
  58	5.6715e+00	2.2684	2.232536	0.000314	3.143191	1.064942	0.000126
  59	5.7710e+00	2.3101	2.426319	0.000487	4.866876	1.648942	0.000195
  60	5.8705e+00	2.3550	2.571655	0.000365	3.650157	1.236707	0.000146
  61	5.9700e+00	2.3935	2.765438	0.000487	4.866876	1.648942	0.000195
  62	6.0695e+00	2.4320	2.874441	0.000274	2.737618	0.927530	0.000110
  63	6.1690e+00	2.4673	3.035926	0.000406	4.055730	1.374119	0.000162
  64	6.2685e+00	2.5122	3.205486	0.000426	4.258517	1.442825	0.000170
  65	6.3680e+00	2.5539	3.395231	0.000477	4.765483	1.614589	0.000191
  66	6.4675e+00	2.5876	3.548642	0.000385	3.852944	1.305413	0.000154
  67	6.5670e+00	2.6277	3.661682	0.000284	2.839011	0.961883	0.000114
  68	6.6665e+00	2.6678	3.839316	0.000446	4.461303	1.511530	0.000179
  69	6.7660e+00	2.7224	4.016950	0.000446	4.461303	1.511530	0.000179
  70	6.8655e+00	2.7513	4.166324	0.000375	3.751550	1.271060	0.000150
  71	6.9650e+00	2.7930	4.307624	0.000355	3.548764	1.202354	0.000142
  72	7.0645e+00	2.8347	4.465072	0.000395	3.954337	1.339766	0.000158
  73	7.1640e+00	2.8620	4.606372	0.000355	3.548764	1.202354	0.000142
  74	7.2635e+00	2.9037	4.796117	0.000477	4.765483	1.614589	0.000191
  75	7.3630e+00	2.9454	4.941454	0.000365	3.650157	1.236707	0.000146
  76	7.4625e+00	2.9919	5.094865	0.000385	3.852944	1.305413	0.000154
  77	7.5620e+00	3.0352	5.260388	0.000416	4.157123	1.408472	0.000166
  78	7.6615e+00	3.0625	5.421873	0.000406	4.055730	1.374119	0.000162
  79	7.7610e+00	3.1074	5.603544	0.000456	4.562696	1.545883	0.000183
  80	7.8605e+00	3.1555	5.720621	0.000294	2.940404	0.996236	0.000118
  81	7.9600e+00	3.1940	5.894218	0.000436	4.359910	1.477177	0.000174
  82	8.0595e+00	3.2149	6.023407	0.000324	3.244584	1.099295	0.000130
  83	8.1590e+00	3.2742	6.217189	0.000487	4.866876	1.648942	0.000195
  84	8.2585e+00	3.3095	6.342340	0.000314	3.143191	1.064942	0.000126
  85	8.3580e+00	3.3480	6.532086	0.000477	4.765483	1.614589	0.000191
  86	8.4575e+00	3.3897	6.677423	0.000365	3.650157	1.236707	0.000146
  87	8.5570e+00	3.4202	6.863131	0.000466	4.664090	1.580236	0.000187
  88	8.6565e+00	3.4684	6.980208	0.000294	2.940404	0.996236	0.000118
  89	8.7560e+00	3.4988	7.109396	0.000324	3.244584	1.099295	0.000130
  90	8.8555e+00	3.5438	7.315290	0.000517	5.171056	1.752001	0.000207
  91	8.9550e+00	3.5790	7.448515	0.000335	3.345977	1.133648	0.000134
  92	9.0545e+00	3.6224	7.610001	0.000406	4.055730	1.374119	0.000162
  93	9.1540e+00	3.6673	7.759375	0.000375	3.751550	1.271060	0.000150
  94	9.2535e+00	3.7106	7.900675	0.000355	3.548764	1.202354	0.000142
  95	9.3530e+00	3.7347	8.122717	0.000558	5.576629	1.889413	0.000223
  96	9.4525e+00	3.7812	8.223645	0.000253	2.534831	0.858824	0.000101
  97	9.5520e+00	3.8293	8.397242	0.000436	4.359910	1.477177	0.000174
  98	9.6515e+00	3.8630	8.546616	0.000375	3.751550	1.271060	0.000150
  99	9.7510e+00	3.9047	8.708102	0.000406	4.055730	1.374119	0.000162
 100	9.8505e+00	3.9496	8.881699	0.000436	4.359910	1.477177	0.000174
 101	9.9500e+00	3.9849	8.994738	0.000284	2.839011	0.961883	0.000114
 102	1.0050e+01	4.0250	9.200632	0.000517	5.171056	1.752001	0.000207
 103	1.0149e+01	4.0667	9.329821	0.000324	3.244584	1.099295	0.000130
 104	1.0248e+01	4.0988	9.467083	0.000345	3.447371	1.168001	0.000138
 105	1.0348e+01	4.1469	9.636643	0.000426	4.258517	1.442825	0.000170
 106	1.0447e+01	4.1903	9.786017	0.000375	3.751550	1.271060	0.000150
 107	1.0547e+01	4.2207	9.955577	0.000426	4.258517	1.442825	0.000170
 108	1.0646e+01	4.2608	10.100914	0.000365	3.650157	1.236707	0.000146
 109	1.0746e+01	4.3026	10.242213	0.000355	3.548764	1.202354	0.000142
 110	1.0845e+01	4.3443	10.427922	0.000466	4.664090	1.580236	0.000187
 111	1.0945e+01	4.3780	10.605556	0.000446	4.461303	1.511530	0.000179
 112	1.1044e+01	4.4213	10.742818	0.000345	3.447371	1.168001	0.000138
 113	1.1144e+01	4.4582	10.896229	0.000385	3.852944	1.305413	0.000154
 114	1.1243e+01	4.5063	11.057715	0.000406	4.055730	1.374119	0.000162
 115	1.1343e+01	4.5416	11.223237	0.000416	4.157123	1.408472	0.000166
 116	1.1443e+01	4.5833	11.352426	0.000324	3.244584	1.099295	0.000130
 117	1.1542e+01	4.6106	11.489688	0.000345	3.447371	1.168001	0.000138
 118	1.1642e+01	4.6603	11.647137	0.000395	3.954337	1.339766	0.000158
 119	1.1741e+01	4.7036	11.832845	0.000466	4.664090	1.580236	0.000187
 120	1.1841e+01	4.7341	12.014516	0.000456	4.562696	1.545883	0.000183
 121	1.1940e+01	4.7806	12.103333	0.000223	2.230652	0.755765	0.000089
 122	1.2040e+01	4.8223	12.280967	0.000446	4.461303	1.511530	0.000179
 123	1.2139e+01	4.8592	12.454564	0.000436	4.359910	1.477177	0.000174
 124	1.2239e+01	4.9025	12.583752	0.000324	3.244584	1.099295	0.000130
 125	1.2338e+01	4.9378	12.745238	0.000406	4.055730	1.374119	0.000162
 126	1.2438e+01	4.9811	12.878463	0.000335	3.345977	1.133648	0.000134
 127	1.2537e+01	5.0229	13.048023	0.000426	4.258517	1.442825	0.000170
 128	1.2636e+01	5.0565	13.213545	0.000416	4.157123	1.408472	0.000166
 129	1.2736e+01	5.1047	13.354845	0.000355	3.548764	1.202354	0.000142
 130	1.2835e+01	5.1400	13.540553	0.000466	4.664090	1.580236	0.000187
 131	1.2935e+01	5.1624	13.665704	0.000314	3.143191	1.064942	0.000126
 132	1.3034e+01	5.2234	13.883710	0.000548	5.475236	1.855060	0.000219
 133	1.3134e+01	5.2683	13.964453	0.000203	2.027865	0.687059	0.000081
 134	1.3233e+01	5.2940	14.146124	0.000456	4.562696	1.545883	0.000183
 135	1.3333e+01	5.3405	14.299535	0.000385	3.852944	1.305413	0.000154
 136	1.3432e+01	5.3838	14.461020	0.000406	4.055730	1.374119	0.000162
 137	1.3532e+01	5.4207	14.634617	0.000436	4.359910	1.477177	0.000174
 138	1.3632e+01	5.4544	14.775917	0.000355	3.548764	1.202354	0.000142
 139	1.3731e+01	5.4929	14.929328	0.000385	3.852944	1.305413	0.000154
 140	1.3831e+01	5.5362	15.102925	0.000436	4.359910	1.477177	0.000174
 141	1.3930e+01	5.5827	15.220002	0.000294	2.940404	0.996236	0.000118
 142	1.4030e+01	5.6164	15.369376	0.000375	3.751550	1.271060	0.000150
 143	1.4129e+01	5.6629	15.542973	0.000436	4.359910	1.477177	0.000174
 144	1.4229e+01	5.6870	15.704458	0.000406	4.055730	1.374119	0.000162
 145	1.4328e+01	5.7432	15.865943	0.000406	4.055730	1.374119	0.000162
 146	1.4428e+01	5.7849	15.995132	0.000324	3.244584	1.099295	0.000130
 147	1.4527e+01	5.8186	16.152580	0.000395	3.954337	1.339766	0.000158
 148	1.4627e+01	5.8506	16.261583	0.000274	2.737618	0.927530	0.000110
 149	1.4726e+01	5.8988	16.479588	0.000548	5.475236	1.855060	0.000219
 150	1.4825e+01	5.9437	16.600702	0.000304	3.041798	1.030589	0.000122
 151	1.4925e+01	5.9822	16.750076	0.000375	3.751550	1.271060	0.000150
 152	1.5024e+01	6.0159	16.927710	0.000446	4.461303	1.511530	0.000179
 153	1.5124e+01	6.0560	17.093233	0.000416	4.157123	1.408472	0.000166
 154	1.5223e+01	6.0977	17.266830	0.000436	4.359910	1.477177	0.000174
 155	1.5323e+01	6.1314	17.404092	0.000345	3.447371	1.168001	0.000138
 156	1.5422e+01	6.1763	17.517132	0.000284	2.839011	0.961883	0.000114
 157	1.5522e+01	6.2212	17.706877	0.000477	4.765483	1.614589	0.000191
 158	1.5621e+01	6.2613	17.884511	0.000446	4.461303	1.511530	0.000179
 159	1.5721e+01	6.2934	18.037922	0.000385	3.852944	1.305413	0.000154
 160	1.5820e+01	6.3303	18.179222	0.000355	3.548764	1.202354	0.000142
 161	1.5920e+01	6.3752	18.324559	0.000365	3.650157	1.236707	0.000146
 162	1.6020e+01	6.4089	18.518342	0.000487	4.866876	1.648942	0.000195
 163	1.6119e+01	6.4554	18.683864	0.000416	4.157123	1.408472	0.000166
 164	1.6218e+01	6.4971	18.804978	0.000304	3.041798	1.030589	0.000122
 165	1.6318e+01	6.5260	18.938204	0.000335	3.345977	1.133648	0.000134
 166	1.6418e+01	6.5725	19.140061	0.000507	5.069663	1.717648	0.000203
 167	1.6517e+01	6.6110	19.313657	0.000436	4.359910	1.477177	0.000174
 168	1.6616e+01	6.6447	19.442846	0.000324	3.244584	1.099295	0.000130
 169	1.6716e+01	6.6913	19.616443	0.000436	4.359910	1.477177	0.000174
 170	1.6816e+01	6.7298	19.733519	0.000294	2.940404	0.996236	0.000118
 171	1.6915e+01	6.7699	19.915191	0.000456	4.562696	1.545883	0.000183
 172	1.7015e+01	6.8068	20.092825	0.000446	4.461303	1.511530	0.000179
 173	1.7114e+01	6.8517	20.201827	0.000274	2.737618	0.927530	0.000110
 174	1.7213e+01	6.8998	20.399647	0.000497	4.968270	1.683295	0.000199
 175	1.7313e+01	6.9271	20.565169	0.000416	4.157123	1.408472	0.000166
 176	1.7413e+01	6.9688	20.730692	0.000416	4.157123	1.408472	0.000166
 177	1.7512e+01	7.0121	20.871992	0.000355	3.548764	1.202354	0.000142
 178	1.7611e+01	7.0554	21.013292	0.000355	3.548764	1.202354	0.000142
 179	1.7711e+01	7.0891	21.219185	0.000517	5.171056	1.752001	0.000207
 180	1.7811e+01	7.1276	21.360485	0.000355	3.548764	1.202354	0.000142
 181	1.7910e+01	7.1629	21.526008	0.000416	4.157123	1.408472	0.000166
 182	1.8009e+01	7.2094	21.639048	0.000284	2.839011	0.961883	0.000114
 183	1.8109e+01	7.2367	21.840904	0.000507	5.069663	1.717648	0.000203
 184	1.8209e+01	7.2816	21.990278	0.000375	3.751550	1.271060	0.000150
 185	1.8308e+01	7.3297	22.143690	0.000385	3.852944	1.305413	0.000154
 186	1.8407e+01	7.3731	22.317286	0.000436	4.359910	1.477177	0.000174
 187	1.8507e+01	7.4132	22.507032	0.000477	4.765483	1.614589	0.000191
 188	1.8607e+01	7.4420	22.624109	0.000294	2.940404	0.996236	0.000118
 189	1.8706e+01	7.4886	22.781557	0.000395	3.954337	1.339766	0.000158
 190	1.8805e+01	7.5222	22.926894	0.000365	3.650157	1.236707	0.000146
 191	1.8905e+01	7.5704	23.096454	0.000426	4.258517	1.442825	0.000170
 192	1.9005e+01	7.6057	23.261976	0.000416	4.157123	1.408472	0.000166
 193	1.9104e+01	7.6394	23.379053	0.000294	2.940404	0.996236	0.000118
 194	1.9203e+01	7.6811	23.580910	0.000507	5.069663	1.717648	0.000203
 195	1.9303e+01	7.7324	23.718172	0.000345	3.447371	1.168001	0.000138
 196	1.9402e+01	7.7741	23.907918	0.000477	4.765483	1.614589	0.000191
 197	1.9502e+01	7.7966	24.033069	0.000314	3.143191	1.064942	0.000126
 198	1.9602e+01	7.8495	24.194554	0.000406	4.055730	1.374119	0.000162
 199	1.9701e+01	7.8928	24.364114	0.000426	4.258517	1.442825	0.000170
 200	1.9800e+01	7.9313	24.557897	0.000487	4.866876	1.648942	0.000195
 201	1.9900e+01	7.9682	24.670936	0.000284	2.839011	0.961883	0.000114
 202	2.0000e+01	7.9971	24.836459	0.000416	4.157123	1.408472	0.000166
 203	2.0099e+01	8.0452	25.010056	0.000436	4.359910	1.477177	0.000174
 204	2.0198e+01	8.0805	25.163467	0.000385	3.852944	1.305413	0.000154
 205	2.0298e+01	8.1238	25.316878	0.000385	3.852944	1.305413	0.000154
 206	2.0398e+01	8.1655	25.498549	0.000456	4.562696	1.545883	0.000183
 207	2.0497e+01	8.2089	25.651960	0.000385	3.852944	1.305413	0.000154
 208	2.0596e+01	8.2409	25.789223	0.000345	3.447371	1.168001	0.000138
 209	2.0696e+01	8.2843	25.942634	0.000385	3.852944	1.305413	0.000154
 210	2.0796e+01	8.3276	26.124305	0.000456	4.562696	1.545883	0.000183
 211	2.0895e+01	8.3613	26.277717	0.000385	3.852944	1.305413	0.000154
 212	2.0994e+01	8.4046	26.455350	0.000446	4.461303	1.511530	0.000179
 213	2.1094e+01	8.4431	26.572427	0.000294	2.940404	0.996236	0.000118
 214	2.1194e+01	8.4832	26.729876	0.000395	3.954337	1.339766	0.000158
 215	2.1293e+01	8.5217	26.903473	0.000436	4.359910	1.477177	0.000174
 216	2.1392e+01	8.5666	27.044772	0.000355	3.548764	1.202354	0.000142
 217	2.1492e+01	8.6067	27.206258	0.000406	4.055730	1.374119	0.000162
 218	2.1591e+01	8.6356	27.371780	0.000416	4.157123	1.408472	0.000166
 219	2.1691e+01	8.6853	27.561526	0.000477	4.765483	1.614589	0.000191
 220	2.1791e+01	8.7254	27.706863	0.000365	3.650157	1.236707	0.000146
 221	2.1890e+01	8.7575	27.860274	0.000385	3.852944	1.305413	0.000154
 222	2.1989e+01	8.7976	27.997536	0.000345	3.447371	1.168001	0.000138
 223	2.2089e+01	8.8409	28.146910	0.000375	3.751550	1.271060	0.000150
 224	2.2189e+01	8.8746	28.320507	0.000436	4.359910	1.477177	0.000174
 225	2.2288e+01	8.9308	28.490067	0.000426	4.258517	1.442825	0.000170
 226	2.2387e+01	8.9789	28.671738	0.000456	4.562696	1.545883	0.000183
 227	2.2487e+01	8.9997	28.796889	0.000314	3.143191	1.064942	0.000126
 228	2.2587e+01	9.0511	28.974523	0.000446	4.461303	1.511530	0.000179
 229	2.2686e+01	9.0832	29.148120	0.000436	4.359910	1.477177	0.000174
 230	2.2785e+01	9.1185	29.289420	0.000355	3.548764	1.202354	0.000142
 231	2.2885e+01	9.1602	29.430720	0.000355	3.548764	1.202354	0.000142
 232	2.2985e+01	9.2035	29.604316	0.000436	4.359910	1.477177	0.000174
 233	2.3084e+01	9.2452	29.753690	0.000375	3.751550	1.271060	0.000150
 234	2.3183e+01	9.2805	29.911139	0.000395	3.954337	1.339766	0.000158
 235	2.3283e+01	9.3254	30.064550	0.000385	3.852944	1.305413	0.000154
 236	2.3383e+01	9.3559	30.217961	0.000385	3.852944	1.305413	0.000154
 237	2.3482e+01	9.4056	30.395595	0.000446	4.461303	1.511530	0.000179
 238	2.3581e+01	9.4457	30.516709	0.000304	3.041798	1.030589	0.000122
 239	2.3681e+01	9.4826	30.682232	0.000416	4.157123	1.408472	0.000166
 240	2.3780e+01	9.5147	30.839680	0.000395	3.954337	1.339766	0.000158
 241	2.3880e+01	9.5612	30.972905	0.000335	3.345977	1.133648	0.000134
 242	2.3980e+01	9.6045	31.150539	0.000446	4.461303	1.511530	0.000179
 243	2.4079e+01	9.6382	31.307988	0.000395	3.954337	1.339766	0.000158
 244	2.4178e+01	9.6848	31.441213	0.000335	3.345977	1.133648	0.000134
 245	2.4278e+01	9.7152	31.594624	0.000385	3.852944	1.305413	0.000154
 246	2.4378e+01	9.7521	31.748035	0.000385	3.852944	1.305413	0.000154
 247	2.4477e+01	9.7970	31.921632	0.000436	4.359910	1.477177	0.000174
 248	2.4576e+01	9.8356	32.079081	0.000395	3.954337	1.339766	0.000158
 249	2.4676e+01	9.8773	32.200195	0.000304	3.041798	1.030589	0.000122
 250	2.4776e+01	9.9190	32.377829	0.000446	4.461303	1.511530	0.000179
 251	2.4875e+01	9.9543	32.539314	0.000406	4.055730	1.374119	0.000162
 252	2.4974e+01	9.9896	32.680614	0.000355	3.548764	1.202354	0.000142
 253	2.5074e+01	10.0329	32.838062	0.000395	3.954337	1.339766	0.000158
 254	2.5174e+01	10.0682	32.963213	0.000314	3.143191	1.064942	0.000126
 255	2.5273e+01	10.1163	33.128736	0.000416	4.157123	1.408472	0.000166
 256	2.5372e+01	10.1628	33.265998	0.000345	3.447371	1.168001	0.000138
 257	2.5472e+01	10.1933	33.415373	0.000375	3.751550	1.271060	0.000150
 258	2.5572e+01	10.2414	33.584932	0.000426	4.258517	1.442825	0.000170
 259	2.5671e+01	10.2751	33.726232	0.000355	3.548764	1.202354	0.000142
 260	2.5770e+01	10.3200	33.879643	0.000385	3.852944	1.305413	0.000154
 261	2.5870e+01	10.3585	34.041129	0.000406	4.055730	1.374119	0.000162
 262	2.5970e+01	10.3970	34.194540	0.000385	3.852944	1.305413	0.000154
 263	2.6069e+01	10.4387	34.323728	0.000324	3.244584	1.099295	0.000130
 264	2.6169e+01	10.4788	34.533659	0.000527	5.272449	1.786354	0.000211
 265	2.6268e+01	10.5222	34.646699	0.000284	2.839011	0.961883	0.000114
 266	2.6367e+01	10.5559	34.796073	0.000375	3.751550	1.271060	0.000150
 267	2.6467e+01	10.5992	34.913150	0.000294	2.940404	0.996236	0.000118
 268	2.6567e+01	10.6329	35.127118	0.000537	5.373843	1.820707	0.000215
 269	2.6666e+01	10.6842	35.228046	0.000253	2.534831	0.858824	0.000101
 270	2.6765e+01	10.7131	35.401643	0.000436	4.359910	1.477177	0.000174
 271	2.6865e+01	10.7580	35.563129	0.000406	4.055730	1.374119	0.000162
 272	2.6965e+01	10.7901	35.708466	0.000365	3.650157	1.236707	0.000146
 273	2.7064e+01	10.8318	35.853802	0.000365	3.650157	1.236707	0.000146
 274	2.7163e+01	10.8783	36.003177	0.000375	3.751550	1.271060	0.000150
 275	2.7263e+01	10.9152	36.148513	0.000365	3.650157	1.236707	0.000146
 276	2.7363e+01	10.9489	36.305962	0.000395	3.954337	1.339766	0.000158
 277	2.7462e+01	11.0098	36.435150	0.000324	3.244584	1.099295	0.000130
 278	2.7561e+01	11.0355	36.576450	0.000355	3.548764	1.202354	0.000142
 279	2.7661e+01	11.0708	36.725824	0.000375	3.751550	1.271060	0.000150
 280	2.7761e+01	11.1061	36.883272	0.000395	3.954337	1.339766	0.000158
 281	2.7860e+01	11.1526	37.020535	0.000345	3.447371	1.168001	0.000138
 282	2.7959e+01	11.1863	37.169909	0.000375	3.751550	1.271060	0.000150
 283	2.8059e+01	11.2312	37.315246	0.000365	3.650157	1.236707	0.000146
 284	2.8159e+01	11.2745	37.480768	0.000416	4.157123	1.408472	0.000166
 285	2.8258e+01	11.3211	37.654365	0.000436	4.359910	1.477177	0.000174
 286	2.8358e+01	11.3483	37.787591	0.000335	3.345977	1.133648	0.000134
 287	2.8457e+01	11.3949	37.892556	0.000264	2.636225	0.893177	0.000105
 288	2.8556e+01	11.4334	38.058079	0.000416	4.157123	1.408472	0.000166
 289	2.8656e+01	11.4703	38.227638	0.000426	4.258517	1.442825	0.000170
 290	2.8756e+01	11.5120	38.385087	0.000395	3.954337	1.339766	0.000158
 291	2.8855e+01	11.5473	38.494089	0.000274	2.737618	0.927530	0.000110
 292	2.8954e+01	11.5986	38.643463	0.000375	3.751550	1.271060	0.000150
 293	2.9054e+01	11.6323	38.800912	0.000395	3.954337	1.339766	0.000158
 294	2.9154e+01	11.6788	38.934137	0.000335	3.345977	1.133648	0.000134
 295	2.9253e+01	11.7109	39.051214	0.000294	2.940404	0.996236	0.000118
 296	2.9352e+01	11.7446	39.240959	0.000477	4.765483	1.614589	0.000191
 297	2.9452e+01	11.7911	39.402445	0.000406	4.055730	1.374119	0.000162
 298	2.9552e+01	11.8376	39.551819	0.000375	3.751550	1.271060	0.000150
 299	2.9651e+01	11.8745	39.672933	0.000304	3.041798	1.030589	0.000122
 300	2.9750e+01	11.9130	39.781936	0.000274	2.737618	0.927530	0.000110
 301	2.9850e+01	11.9547	39.983792	0.000507	5.069663	1.717648	0.000203
 302	2.9950e+01	11.9900	40.108944	0.000314	3.143191	1.064942	0.000126
 303	3.0049e+01	12.0301	40.254280	0.000365	3.650157	1.236707	0.000146
 304	3.0148e+01	12.0719	40.383469	0.000324	3.244584	1.099295	0.000130
 305	3.0248e+01	12.1039	40.528806	0.000365	3.650157	1.236707	0.000146
 306	3.0348e+01	12.1440	40.698365	0.000426	4.258517	1.442825	0.000170
 307	3.0447e+01	12.1970	40.884074	0.000466	4.664090	1.580236	0.000187
 308	3.0547e+01	12.2387	40.972891	0.000223	2.230652	0.755765	0.000089
 309	3.0646e+01	12.2692	41.130339	0.000395	3.954337	1.339766	0.000158
 310	3.0745e+01	12.3013	41.299899	0.000426	4.258517	1.442825	0.000170
 311	3.0845e+01	12.3558	41.429087	0.000324	3.244584	1.099295	0.000130
 312	3.0945e+01	12.3975	41.558275	0.000324	3.244584	1.099295	0.000130
 313	3.1044e+01	12.4360	41.715724	0.000395	3.954337	1.339766	0.000158
 314	3.1143e+01	12.4713	41.869135	0.000385	3.852944	1.305413	0.000154
 315	3.1243e+01	12.5066	41.966026	0.000243	2.433438	0.824471	0.000097
 316	3.1343e+01	12.5435	42.143660	0.000446	4.461303	1.511530	0.000179
 317	3.1442e+01	12.5980	42.309183	0.000416	4.157123	1.408472	0.000166
 318	3.1541e+01	12.6253	42.430297	0.000304	3.041798	1.030589	0.000122
 319	3.1641e+01	12.6590	42.567559	0.000345	3.447371	1.168001	0.000138
 320	3.1741e+01	12.7103	42.749230	0.000456	4.562696	1.545883	0.000183
 321	3.1840e+01	12.7504	42.882456	0.000335	3.345977	1.133648	0.000134
 322	3.1939e+01	12.7938	42.999533	0.000294	2.940404	0.996236	0.000118
 323	3.2039e+01	12.8226	43.185241	0.000466	4.664090	1.580236	0.000187
 324	3.2139e+01	12.8659	43.318466	0.000335	3.345977	1.133648	0.000134
 325	3.2238e+01	12.9044	43.467840	0.000375	3.751550	1.271060	0.000150
 326	3.2337e+01	12.9462	43.637400	0.000426	4.258517	1.442825	0.000170
 327	3.2437e+01	12.9911	43.738329	0.000253	2.534831	0.858824	0.000101
 328	3.2536e+01	13.0328	43.907888	0.000426	4.258517	1.442825	0.000170
 329	3.2636e+01	13.0601	44.065337	0.000395	3.954337	1.339766	0.000158
 330	3.2736e+01	13.1066	44.210673	0.000365	3.650157	1.236707	0.000146
 331	3.2835e+01	13.1467	44.343899	0.000335	3.345977	1.133648	0.000134
 332	3.2934e+01	13.1932	44.473087	0.000324	3.244584	1.099295	0.000130
 333	3.3034e+01	13.2285	44.638610	0.000416	4.157123	1.408472	0.000166
 334	3.3133e+01	13.2638	44.787984	0.000375	3.751550	1.271060	0.000150
 335	3.3233e+01	13.3023	44.921209	0.000335	3.345977	1.133648	0.000134
 336	3.3333e+01	13.3360	45.102880	0.000456	4.562696	1.545883	0.000183
 337	3.3432e+01	13.3793	45.244180	0.000355	3.548764	1.202354	0.000142
 338	3.3532e+01	13.4226	45.377406	0.000335	3.345977	1.133648	0.000134
 339	3.3631e+01	13.4659	45.542928	0.000416	4.157123	1.408472	0.000166
 340	3.3730e+01	13.4980	45.716525	0.000436	4.359910	1.477177	0.000174
 341	3.3830e+01	13.5429	45.797268	0.000203	2.027865	0.687059	0.000081
 342	3.3929e+01	13.5846	45.978939	0.000456	4.562696	1.545883	0.000183
 343	3.4029e+01	13.6247	46.124276	0.000365	3.650157	1.236707	0.000146
 344	3.4129e+01	13.6568	46.269613	0.000365	3.650157	1.236707	0.000146
 345	3.4228e+01	13.6985	46.427061	0.000395	3.954337	1.339766	0.000158
 346	3.4328e+01	13.7435	46.604695	0.000446	4.461303	1.511530	0.000179
 347	3.4427e+01	13.7804	46.725809	0.000304	3.041798	1.030589	0.000122
 348	3.4526e+01	13.8221	46.867109	0.000355	3.548764	1.202354	0.000142
 349	3.4626e+01	13.8606	47.024557	0.000395	3.954337	1.339766	0.000158
 350	3.4725e+01	13.8911	47.125485	0.000253	2.534831	0.858824	0.000101
 351	3.4825e+01	13.9424	47.343491	0.000548	5.475236	1.855060	0.000219
 352	3.4925e+01	13.9873	47.436345	0.000233	2.332045	0.790118	0.000093
 353	3.5024e+01	14.0178	47.634165	0.000497	4.968270	1.683295	0.000199
 354	3.5123e+01	14.0627	47.767390	0.000335	3.345977	1.133648	0.000134
 355	3.5223e+01	14.1044	47.888504	0.000304	3.041798	1.030589	0.000122
 356	3.5322e+01	14.1365	48.037878	0.000375	3.751550	1.271060	0.000150
 357	3.5422e+01	14.1766	48.223586	0.000466	4.664090	1.580236	0.000187
 358	3.5522e+01	14.2247	48.389109	0.000416	4.157123	1.408472	0.000166
 359	3.5621e+01	14.2616	48.498112	0.000274	2.737618	0.927530	0.000110
 360	3.5721e+01	14.2985	48.643449	0.000365	3.650157	1.236707	0.000146
 361	3.5820e+01	14.3386	48.788785	0.000365	3.650157	1.236707	0.000146
 362	3.5919e+01	14.3868	48.982568	0.000487	4.866876	1.648942	0.000195
 363	3.6019e+01	14.4204	49.107719	0.000314	3.143191	1.064942	0.000126
 364	3.6118e+01	14.4718	49.277279	0.000426	4.258517	1.442825	0.000170
 365	3.6218e+01	14.4942	49.398393	0.000304	3.041798	1.030589	0.000122
 366	3.6318e+01	14.5408	49.612361	0.000537	5.373843	1.820707	0.000215
 367	3.6417e+01	14.5729	49.701178	0.000223	2.230652	0.755765	0.000089
 368	3.6517e+01	14.6146	49.858626	0.000395	3.954337	1.339766	0.000158
 369	3.6616e+01	14.6466	50.016075	0.000395	3.954337	1.339766	0.000158
 370	3.6715e+01	14.7012	50.173523	0.000395	3.954337	1.339766	0.000158
 371	3.6815e+01	14.7429	50.294637	0.000304	3.041798	1.030589	0.000122
 372	3.6914e+01	14.7846	50.460160	0.000416	4.157123	1.408472	0.000166
 373	3.7014e+01	14.8119	50.581274	0.000304	3.041798	1.030589	0.000122
 374	3.7114e+01	14.8552	50.742759	0.000406	4.055730	1.374119	0.000162
 375	3.7213e+01	14.8969	50.892133	0.000375	3.751550	1.271060	0.000150
 376	3.7313e+01	14.9226	51.021321	0.000324	3.244584	1.099295	0.000130
 377	3.7412e+01	14.9755	51.223178	0.000507	5.069663	1.717648	0.000203
 378	3.7511e+01	15.0124	51.376589	0.000385	3.852944	1.305413	0.000154
 379	3.7611e+01	15.0541	51.501741	0.000314	3.143191	1.064942	0.000126
 380	3.7711e+01	15.1022	51.683412	0.000456	4.562696	1.545883	0.000183
 381	3.7810e+01	15.1279	51.824711	0.000355	3.548764	1.202354	0.000142
 382	3.7910e+01	15.1776	51.909491	0.000213	2.129258	0.721412	0.000085
 383	3.8009e+01	15.2210	52.087125	0.000446	4.461303	1.511530	0.000179
 384	3.8108e+01	15.2595	52.288982	0.000507	5.069663	1.717648	0.000203
 385	3.8208e+01	15.2851	52.422208	0.000335	3.345977	1.133648	0.000134
 386	3.8307e+01	15.3284	52.523136	0.000253	2.534831	0.858824	0.000101
 387	3.8407e+01	15.3766	52.684621	0.000406	4.055730	1.374119	0.000162
 388	3.8507e+01	15.4231	52.825921	0.000355	3.548764	1.202354	0.000142
 389	3.8606e+01	15.4616	52.983369	0.000395	3.954337	1.339766	0.000158
 390	3.8706e+01	15.4969	53.112558	0.000324	3.244584	1.099295	0.000130
 391	3.8805e+01	15.5402	53.298266	0.000466	4.664090	1.580236	0.000187
 392	3.8904e+01	15.5691	53.447640	0.000375	3.751550	1.271060	0.000150
 393	3.9004e+01	15.6188	53.580866	0.000335	3.345977	1.133648	0.000134
 394	3.9103e+01	15.6445	53.730240	0.000375	3.751550	1.271060	0.000150
 395	3.9203e+01	15.6894	53.883651	0.000385	3.852944	1.305413	0.000154
 396	3.9303e+01	15.7247	54.028988	0.000365	3.650157	1.236707	0.000146
 397	3.9402e+01	15.7776	54.174324	0.000365	3.650157	1.236707	0.000146
 398	3.9502e+01	15.8049	54.335810	0.000406	4.055730	1.374119	0.000162
 399	3.9601e+01	15.8578	54.469035	0.000335	3.345977	1.133648	0.000134
 400	3.9700e+01	15.8963	54.614372	0.000365	3.650157	1.236707	0.000146
 401	3.9800e+01	15.9236	54.783932	0.000426	4.258517	1.442825	0.000170
 402	3.9900e+01	15.9750	54.917157	0.000335	3.345977	1.133648	0.000134
 403	3.9999e+01	16.0135	55.110940	0.000487	4.866876	1.648942	0.000195
 404	4.0099e+01	16.0503	55.203794	0.000233	2.332045	0.790118	0.000093
 405	4.0198e+01	16.0905	55.353168	0.000375	3.751550	1.271060	0.000150
 406	4.0297e+01	16.1338	55.490431	0.000345	3.447371	1.168001	0.000138
 407	4.0397e+01	16.1755	55.643842	0.000385	3.852944	1.305413	0.000154
 408	4.0496e+01	16.2124	55.789179	0.000365	3.650157	1.236707	0.000146
 409	4.0596e+01	16.2669	55.930479	0.000355	3.548764	1.202354	0.000142
 410	4.0696e+01	16.2926	56.104075	0.000436	4.359910	1.477177	0.000174
 411	4.0795e+01	16.3247	56.249412	0.000365	3.650157	1.236707	0.000146
 412	4.0895e+01	16.3696	56.362452	0.000284	2.839011	0.961883	0.000114
 413	4.0994e+01	16.4081	56.511826	0.000375	3.751550	1.271060	0.000150
 414	4.1093e+01	16.4594	56.645052	0.000335	3.345977	1.133648	0.000134
 415	4.1193e+01	16.4883	56.854983	0.000527	5.272449	1.786354	0.000211
 416	4.1292e+01	16.5348	56.972060	0.000294	2.940404	0.996236	0.000118
 417	4.1392e+01	16.5749	57.113359	0.000355	3.548764	1.202354	0.000142
 418	4.1492e+01	16.6054	57.274845	0.000406	4.055730	1.374119	0.000162
 419	4.1591e+01	16.6519	57.391922	0.000294	2.940404	0.996236	0.000118
 420	4.1691e+01	16.6936	57.513036	0.000304	3.041798	1.030589	0.000122
 421	4.1790e+01	16.7257	57.630113	0.000294	2.940404	0.996236	0.000118
 422	4.1889e+01	16.7755	57.775450	0.000365	3.650157	1.236707	0.000146
 423	4.1989e+01	16.8043	57.920786	0.000365	3.650157	1.236707	0.000146
 424	4.2089e+01	16.8380	58.106495	0.000466	4.664090	1.580236	0.000187
 425	4.2188e+01	16.8894	58.247794	0.000355	3.548764	1.202354	0.000142
 426	4.2288e+01	16.9231	58.389094	0.000355	3.548764	1.202354	0.000142
 427	4.2387e+01	16.9664	58.510208	0.000304	3.041798	1.030589	0.000122
 428	4.2486e+01	17.0193	58.671694	0.000406	4.055730	1.374119	0.000162
 429	4.2586e+01	17.0498	58.796845	0.000314	3.143191	1.064942	0.000126
 430	4.2685e+01	17.0819	58.962367	0.000416	4.157123	1.408472	0.000166
 431	4.2785e+01	17.1220	59.123853	0.000406	4.055730	1.374119	0.000162
 432	4.2885e+01	17.1717	59.232856	0.000274	2.737618	0.927530	0.000110
 433	4.2984e+01	17.2134	59.378192	0.000365	3.650157	1.236707	0.000146
 434	4.3084e+01	17.2583	59.543715	0.000416	4.157123	1.408472	0.000166
 435	4.3183e+01	17.2920	59.672903	0.000324	3.244584	1.099295	0.000130
 436	4.3282e+01	17.3305	59.798055	0.000314	3.143191	1.064942	0.000126
 437	4.3382e+01	17.3674	59.927243	0.000324	3.244584	1.099295	0.000130
 438	4.3481e+01	17.4156	60.116988	0.000477	4.765483	1.614589	0.000191
 439	4.3581e+01	17.4476	60.221954	0.000264	2.636225	0.893177	0.000105
 440	4.3681e+01	17.4797	60.383439	0.000406	4.055730	1.374119	0.000162
 441	4.3780e+01	17.5246	60.528776	0.000365	3.650157	1.236707	0.000146
 442	4.3880e+01	17.5631	60.666039	0.000345	3.447371	1.168001	0.000138
 443	4.3979e+01	17.5984	60.815413	0.000375	3.751550	1.271060	0.000150
 444	4.4078e+01	17.6466	60.920378	0.000264	2.636225	0.893177	0.000105
 445	4.4178e+01	17.6835	61.102049	0.000456	4.562696	1.545883	0.000183
 446	4.4278e+01	17.7316	61.207015	0.000264	2.636225	0.893177	0.000105
 447	4.4377e+01	17.7653	61.340240	0.000335	3.345977	1.133648	0.000134
 448	4.4477e+01	17.8134	61.509800	0.000426	4.258517	1.442825	0.000170
 449	4.4576e+01	17.8503	61.643026	0.000335	3.345977	1.133648	0.000134
 450	4.4675e+01	17.8888	61.731843	0.000223	2.230652	0.755765	0.000089
 451	4.4775e+01	17.9257	61.913514	0.000456	4.562696	1.545883	0.000183
 452	4.4874e+01	17.9722	62.042702	0.000324	3.244584	1.099295	0.000130
 453	4.4974e+01	18.0043	62.192076	0.000375	3.751550	1.271060	0.000150
 454	4.5074e+01	18.0476	62.313190	0.000304	3.041798	1.030589	0.000122
 455	4.5173e+01	18.0909	62.458527	0.000365	3.650157	1.236707	0.000146
 456	4.5273e+01	18.1359	62.567530	0.000274	2.737618	0.927530	0.000110
 457	4.5372e+01	18.1647	62.724978	0.000395	3.954337	1.339766	0.000158
 458	4.5471e+01	18.2080	62.874352	0.000375	3.751550	1.271060	0.000150
 459	4.5571e+01	18.2417	63.019689	0.000365	3.650157	1.236707	0.000146
 460	4.5670e+01	18.2899	63.156951	0.000345	3.447371	1.168001	0.000138
 461	4.5770e+01	18.3187	63.286140	0.000324	3.244584	1.099295	0.000130
 462	4.5870e+01	18.3620	63.439551	0.000385	3.852944	1.305413	0.000154
 463	4.5969e+01	18.4070	63.548554	0.000274	2.737618	0.927530	0.000110
 464	4.6069e+01	18.4391	63.697928	0.000375	3.751550	1.271060	0.000150
 465	4.6168e+01	18.4920	63.819042	0.000304	3.041798	1.030589	0.000122
 466	4.6267e+01	18.5225	63.980527	0.000406	4.055730	1.374119	0.000162
 467	4.6367e+01	18.5578	64.129901	0.000375	3.751550	1.271060	0.000150
 468	4.6467e+01	18.6059	64.267164	0.000345	3.447371	1.168001	0.000138
 469	4.6566e+01	18.6348	64.412501	0.000365	3.650157	1.236707	0.000146
 470	4.6666e+01	18.6797	64.549763	0.000345	3.447371	1.168001	0.000138
 471	4.6765e+01	18.7182	64.691063	0.000355	3.548764	1.202354	0.000142
 472	4.6864e+01	18.7551	64.804103	0.000284	2.839011	0.961883	0.000114
 473	4.6964e+01	18.7968	64.969625	0.000416	4.157123	1.408472	0.000166
 474	4.7063e+01	18.8289	65.110925	0.000355	3.548764	1.202354	0.000142
 475	4.7163e+01	18.8738	65.219928	0.000274	2.737618	0.927530	0.000110
 476	4.7263e+01	18.9235	65.373339	0.000385	3.852944	1.305413	0.000154
 477	4.7362e+01	18.9620	65.498490	0.000314	3.143191	1.064942	0.000126
 478	4.7462e+01	19.0005	65.631716	0.000335	3.345977	1.133648	0.000134
 479	4.7561e+01	19.0374	65.801275	0.000426	4.258517	1.442825	0.000170
 480	4.7660e+01	19.0807	65.902204	0.000253	2.534831	0.858824	0.000101
 481	4.7760e+01	19.1209	66.055615	0.000385	3.852944	1.305413	0.000154
 482	4.7859e+01	19.1610	66.176729	0.000304	3.041798	1.030589	0.000122
 483	4.7959e+01	19.2043	66.350326	0.000436	4.359910	1.477177	0.000174
 484	4.8059e+01	19.2396	66.455291	0.000264	2.636225	0.893177	0.000105
 485	4.8158e+01	19.2893	66.641000	0.000466	4.664090	1.580236	0.000187
 486	4.8258e+01	19.3150	66.713668	0.000183	1.825079	0.618353	0.000073
 487	4.8357e+01	19.3615	66.891302	0.000446	4.461303	1.511530	0.000179
 488	4.8456e+01	19.4016	67.040676	0.000375	3.751550	1.271060	0.000150
 489	4.8556e+01	19.4305	67.149679	0.000274	2.737618	0.927530	0.000110
 490	4.8656e+01	19.4770	67.303090	0.000385	3.852944	1.305413	0.000154
 491	4.8755e+01	19.5283	67.412093	0.000274	2.737618	0.927530	0.000110
 492	4.8855e+01	19.5684	67.545318	0.000335	3.345977	1.133648	0.000134
 493	4.8954e+01	19.6021	67.718915	0.000436	4.359910	1.477177	0.000174
 494	4.9053e+01	19.6406	67.831955	0.000284	2.839011	0.961883	0.000114
 495	4.9153e+01	19.6695	67.997477	0.000416	4.157123	1.408472	0.000166
 496	4.9252e+01	19.7160	68.126666	0.000324	3.244584	1.099295	0.000130
 497	4.9352e+01	19.7577	68.272002	0.000365	3.650157	1.236707	0.000146
 498	4.9452e+01	19.7994	68.417339	0.000365	3.650157	1.236707	0.000146
 499	4.9551e+01	19.8379	68.562676	0.000365	3.650157	1.236707	0.000146
 500	4.9651e+01	19.8764	68.695902	0.000335	3.345977	1.133648	0.000134
 501	4.9750e+01	19.9182	68.817016	0.000304	3.041798	1.030589	0.000122
 502	4.9849e+01	19.9551	68.970427	0.000385	3.852944	1.305413	0.000154
 503	4.9949e+01	19.9903	69.115764	0.000365	3.650157	1.236707	0.000146
 504	5.0048e+01	19.9551	68.998687	0.000294	2.940404	0.996236	-0.000118
 505	5.0148e+01	19.9230	68.893721	0.000264	2.636225	0.893177	-0.000105
 506	5.0248e+01	19.8732	68.780682	0.000284	2.839011	0.961883	-0.000114
 507	5.0347e+01	19.8412	68.651493	0.000324	3.244584	1.099295	-0.000130
 508	5.0447e+01	19.7962	68.590936	0.000152	1.520899	0.515294	-0.000061
 509	5.0546e+01	19.7577	68.469822	0.000304	3.041798	1.030589	-0.000122
 510	5.0645e+01	19.7160	68.352745	0.000294	2.940404	0.996236	-0.000118
 511	5.0745e+01	19.6807	68.231631	0.000304	3.041798	1.030589	-0.000122
 512	5.0844e+01	19.6390	68.110517	0.000304	3.041798	1.030589	-0.000122
 513	5.0944e+01	19.5877	68.025737	0.000213	2.129258	0.721412	-0.000085
 514	5.1044e+01	19.5604	67.912697	0.000284	2.839011	0.961883	-0.000114
 515	5.1143e+01	19.5235	67.787546	0.000314	3.143191	1.064942	-0.000126
 516	5.1242e+01	19.4770	67.654321	0.000335	3.345977	1.133648	-0.000134
 517	5.1342e+01	19.4417	67.573578	0.000203	2.027865	0.687059	-0.000081
 518	5.1441e+01	19.3968	67.432278	0.000355	3.548764	1.202354	-0.000142
 519	5.1541e+01	19.3551	67.307127	0.000314	3.143191	1.064942	-0.000126
 520	5.1641e+01	19.3150	67.194087	0.000284	2.839011	0.961883	-0.000114
 521	5.1740e+01	19.2893	67.093159	0.000253	2.534831	0.858824	-0.000101
 522	5.1840e+01	19.2444	67.004342	0.000223	2.230652	0.755765	-0.000089
 523	5.1939e+01	19.1979	66.875154	0.000324	3.244584	1.099295	-0.000130
 524	5.2038e+01	19.1610	66.750002	0.000314	3.143191	1.064942	-0.000126
 525	5.2138e+01	19.1160	66.653111	0.000243	2.433438	0.824471	-0.000097
 526	5.2237e+01	19.0840	66.503737	0.000375	3.751550	1.271060	-0.000150
 527	5.2337e+01	19.0374	66.431069	0.000183	1.825079	0.618353	-0.000073
 528	5.2437e+01	18.9957	66.305917	0.000314	3.143191	1.064942	-0.000126
 529	5.2536e+01	18.9572	66.152506	0.000385	3.852944	1.305413	-0.000154
 530	5.2636e+01	18.9155	66.035429	0.000294	2.940404	0.996236	-0.000118
 531	5.2735e+01	18.8882	65.934501	0.000253	2.534831	0.858824	-0.000101
 532	5.2834e+01	18.8449	65.825498	0.000274	2.737618	0.927530	-0.000110
 533	5.2934e+01	18.8032	65.720533	0.000264	2.636225	0.893177	-0.000105
 534	5.3033e+01	18.7615	65.607493	0.000284	2.839011	0.961883	-0.000114
 535	5.3133e+01	18.7246	65.454082	0.000385	3.852944	1.305413	-0.000154
 536	5.3233e+01	18.6781	65.332968	0.000304	3.041798	1.030589	-0.000122
 537	5.3332e+01	18.6444	65.236076	0.000243	2.433438	0.824471	-0.000097
 538	5.3431e+01	18.6043	65.110925	0.000314	3.143191	1.064942	-0.000126
 539	5.3531e+01	18.5658	64.997885	0.000284	2.839011	0.961883	-0.000114
 540	5.3630e+01	18.5241	64.913106	0.000213	2.129258	0.721412	-0.000085
 541	5.3730e+01	18.4856	64.751620	0.000406	4.055730	1.374119	-0.000162
 542	5.3830e+01	18.4423	64.678952	0.000183	1.825079	0.618353	-0.000073
 543	5.3929e+01	18.4070	64.509392	0.000426	4.258517	1.442825	-0.000170
 544	5.4029e+01	18.3572	64.412501	0.000243	2.433438	0.824471	-0.000097
 545	5.4128e+01	18.3252	64.275238	0.000345	3.447371	1.168001	-0.000138
 546	5.4227e+01	18.2850	64.166235	0.000274	2.737618	0.927530	-0.000110
 547	5.4327e+01	18.2449	64.065307	0.000253	2.534831	0.858824	-0.000101
 548	5.4426e+01	18.2064	63.899784	0.000416	4.157123	1.408472	-0.000166
 549	5.4526e+01	18.1679	63.855376	0.000112	1.115326	0.377883	-0.000045
 550	5.4626e+01	18.1278	63.665631	0.000477	4.765483	1.614589	-0.000191
 551	5.4725e+01	18.0893	63.512219	0.000385	3.852944	1.305413	-0.000154
 552	5.4825e+01	18.0476	63.419365	0.000233	2.332045	0.790118	-0.000093
 553	5.4924e+01	18.0059	63.310363	0.000274	2.737618	0.927530	-0.000110
 554	5.5023e+01	17.9626	63.181174	0.000324	3.244584	1.099295	-0.000130
 555	5.5123e+01	17.9289	63.088320	0.000233	2.332045	0.790118	-0.000093
 556	5.5222e+01	17.8840	62.963169	0.000314	3.143191	1.064942	-0.000126
 557	5.5322e+01	17.8471	62.805721	0.000395	3.954337	1.339766	-0.000158
 558	5.5422e+01	17.8022	62.688644	0.000294	2.940404	0.996236	-0.000118
 559	5.5521e+01	17.7653	62.559455	0.000324	3.244584	1.099295	-0.000130
 560	5.5620e+01	17.7284	62.450453	0.000274	2.737618	0.927530	-0.000110
 561	5.5720e+01	17.6899	62.345487	0.000264	2.636225	0.893177	-0.000105
 562	5.5819e+01	17.6466	62.204187	0.000355	3.548764	1.202354	-0.000142
 563	5.5919e+01	17.6049	62.058851	0.000365	3.650157	1.236707	-0.000146
 564	5.6019e+01	17.5647	61.961959	0.000243	2.433438	0.824471	-0.000097
 565	5.6118e+01	17.5295	61.869105	0.000233	2.332045	0.790118	-0.000093
 566	5.6218e+01	17.4861	61.695508	0.000436	4.359910	1.477177	-0.000174
 567	5.6317e+01	17.4492	61.586506	0.000274	2.737618	0.927530	-0.000110
 568	5.6416e+01	17.4075	61.509800	0.000193	1.926472	0.652706	-0.000077
 569	5.6516e+01	17.3658	61.364463	0.000365	3.650157	1.236707	-0.000146
 570	5.6615e+01	17.3257	61.247386	0.000294	2.940404	0.996236	-0.000118
 571	5.6715e+01	17.2888	61.081864	0.000416	4.157123	1.408472	-0.000166
 572	5.6815e+01	17.2535	60.956713	0.000314	3.143191	1.064942	-0.000126
 573	5.6914e+01	17.2102	60.839636	0.000294	2.940404	0.996236	-0.000118
 574	5.7014e+01	17.1685	60.718522	0.000304	3.041798	1.030589	-0.000122
 575	5.7113e+01	17.1236	60.585296	0.000335	3.345977	1.133648	-0.000134
 576	5.7212e+01	17.0883	60.468219	0.000294	2.940404	0.996236	-0.000118
 577	5.7312e+01	17.0594	60.347105	0.000304	3.041798	1.030589	-0.000122
 578	5.7411e+01	17.0097	60.177545	0.000426	4.258517	1.442825	-0.000170
 579	5.7511e+01	16.9696	60.068543	0.000274	2.737618	0.927530	-0.000110
 580	5.7611e+01	16.9359	59.959540	0.000274	2.737618	0.927530	-0.000110
 581	5.7710e+01	16.8958	59.882834	0.000193	1.926472	0.652706	-0.000077
 582	5.7809e+01	16.8444	59.725386	0.000395	3.954337	1.339766	-0.000158
 583	5.7909e+01	16.8108	59.567938	0.000395	3.954337	1.339766	-0.000158
 584	5.8008e+01	16.7739	59.446824	0.000304	3.041798	1.030589	-0.000122
 585	5.8108e+01	16.7209	59.301487	0.000365	3.650157	1.236707	-0.000146
 586	5.8208e+01	16.6969	59.192484	0.000274	2.737618	0.927530	-0.000110
 587	5.8307e+01	16.6487	59.067333	0.000314	3.143191	1.064942	-0.000126
 588	5.8407e+01	16.6166	58.921996	0.000365	3.650157	1.236707	-0.000146
 589	5.8506e+01	16.5669	58.788771	0.000335	3.345977	1.133648	-0.000134
 590	5.8605e+01	16.5348	58.675731	0.000284	2.839011	0.961883	-0.000114
 591	5.8705e+01	16.4899	58.554617	0.000304	3.041798	1.030589	-0.000122
 592	5.8804e+01	16.4530	58.397168	0.000395	3.954337	1.339766	-0.000158
 593	5.8904e+01	16.4097	58.272017	0.000314	3.143191	1.064942	-0.000126
 594	5.9004e+01	16.3712	58.146866	0.000314	3.143191	1.064942	-0.000126
 595	5.9103e+01	16.3295	57.977306	0.000426	4.258517	1.442825	-0.000170
 596	5.9203e+01	16.2910	57.908675	0.000172	1.723685	0.584000	-0.000069
 597	5.9302e+01	16.2525	57.710855	0.000497	4.968270	1.683295	-0.000199
 598	5.9401e+01	16.2220	57.638187	0.000183	1.825079	0.618353	-0.000073
 599	5.9501e+01	16.1691	57.472664	0.000416	4.157123	1.408472	-0.000166
 600	5.9600e+01	16.1338	57.315216	0.000395	3.954337	1.339766	-0.000158
 601	5.9700e+01	16.0953	57.246585	0.000172	1.723685	0.584000	-0.000069
 602	5.9800e+01	16.0568	57.109322	0.000345	3.447371	1.168001	-0.000138
 603	5.9899e+01	16.0199	56.947837	0.000406	4.055730	1.374119	-0.000162
 604	5.9998e+01	15.9717	56.822686	0.000314	3.143191	1.064942	-0.000126
 605	6.0098e+01	15.9364	56.705609	0.000294	2.940404	0.996236	-0.000118
 606	6.0197e+01	15.8819	56.584495	0.000304	3.041798	1.030589	-0.000122
 607	6.0297e+01	15.8578	56.447232	0.000345	3.447371	1.168001	-0.000138
 608	6.0397e+01	15.8242	56.305932	0.000355	3.548764	1.202354	-0.000142
 609	6.0496e+01	15.7840	56.152521	0.000385	3.852944	1.305413	-0.000154
 610	6.0596e+01	15.7455	56.059667	0.000233	2.332045	0.790118	-0.000093
 611	6.0695e+01	15.6942	55.877996	0.000456	4.562696	1.545883	-0.000183
 612	6.0794e+01	15.6525	55.756882	0.000304	3.041798	1.030589	-0.000122
 613	6.0894e+01	15.6140	55.643842	0.000284	2.839011	0.961883	-0.000114
 614	6.0993e+01	15.5739	55.526765	0.000294	2.940404	0.996236	-0.000118
 615	6.1093e+01	15.5354	55.381428	0.000365	3.650157	1.236707	-0.000146
 616	6.1193e+01	15.4937	55.244165	0.000345	3.447371	1.168001	-0.000138
 617	6.1292e+01	15.4520	55.127089	0.000294	2.940404	0.996236	-0.000118
 618	6.1392e+01	15.4167	54.961566	0.000416	4.157123	1.408472	-0.000166
 619	6.1491e+01	15.3814	54.751635	0.000527	5.272449	1.786354	-0.000211
 620	6.1590e+01	15.3381	54.691078	0.000152	1.520899	0.515294	-0.000061
 621	6.1690e+01	15.3028	54.541704	0.000375	3.751550	1.271060	-0.000150
 622	6.1789e+01	15.2498	54.432701	0.000274	2.737618	0.927530	-0.000110
 623	6.1889e+01	15.2113	54.279290	0.000385	3.852944	1.305413	-0.000154
 624	6.1989e+01	15.1696	54.117805	0.000406	4.055730	1.374119	-0.000162
 625	6.2088e+01	15.1375	54.008802	0.000274	2.737618	0.927530	-0.000110
 626	6.2188e+01	15.0942	53.859428	0.000375	3.751550	1.271060	-0.000150
 627	6.2287e+01	15.0493	53.730240	0.000324	3.244584	1.099295	-0.000130
 628	6.2386e+01	15.0140	53.592977	0.000345	3.447371	1.168001	-0.000138
 629	6.2486e+01	14.9771	53.467826	0.000314	3.143191	1.064942	-0.000126
 630	6.2586e+01	14.9434	53.350749	0.000294	2.940404	0.996236	-0.000118
 631	6.2685e+01	14.8921	53.181189	0.000426	4.258517	1.442825	-0.000170
 632	6.2785e+01	14.8552	53.068149	0.000284	2.839011	0.961883	-0.000114
 633	6.2884e+01	14.8199	52.878404	0.000477	4.765483	1.614589	-0.000191
 634	6.2983e+01	14.7814	52.761327	0.000294	2.940404	0.996236	-0.000118
 635	6.3083e+01	14.7365	52.611953	0.000375	3.751550	1.271060	-0.000150
 636	6.3182e+01	14.6980	52.539284	0.000183	1.825079	0.618353	-0.000073
 637	6.3282e+01	14.6547	52.406059	0.000335	3.345977	1.133648	-0.000134
 638	6.3382e+01	14.6178	52.248611	0.000395	3.954337	1.339766	-0.000158
 639	6.3481e+01	14.5745	52.095200	0.000385	3.852944	1.305413	-0.000154
 640	6.3581e+01	14.5504	51.941788	0.000385	3.852944	1.305413	-0.000154
 641	6.3680e+01	14.4910	51.820674	0.000304	3.041798	1.030589	-0.000122
 642	6.3779e+01	14.4557	51.707635	0.000284	2.839011	0.961883	-0.000114
 643	6.3879e+01	14.4172	51.554223	0.000385	3.852944	1.305413	-0.000154
 644	6.3978e+01	14.3803	51.437146	0.000294	2.940404	0.996236	-0.000118
 645	6.4078e+01	14.3434	51.291810	0.000365	3.650157	1.236707	-0.000146
 646	6.4177e+01	14.2985	51.146473	0.000365	3.650157	1.236707	-0.000146
 647	6.4277e+01	14.2504	51.001136	0.000365	3.650157	1.236707	-0.000146
 648	6.4376e+01	14.2199	50.867910	0.000335	3.345977	1.133648	-0.000134
 649	6.4476e+01	14.1750	50.754870	0.000284	2.839011	0.961883	-0.000114
 650	6.4576e+01	14.1445	50.597422	0.000395	3.954337	1.339766	-0.000158
 651	6.4675e+01	14.1012	50.472271	0.000314	3.143191	1.064942	-0.000126
 652	6.4775e+01	14.0563	50.326934	0.000365	3.650157	1.236707	-0.000146
 653	6.4874e+01	14.0226	50.157374	0.000426	4.258517	1.442825	-0.000170
 654	6.4974e+01	13.9857	50.080669	0.000193	1.926472	0.652706	-0.000077
 655	6.5073e+01	13.9360	49.907072	0.000436	4.359910	1.477177	-0.000174
 656	6.5172e+01	13.9055	49.769809	0.000345	3.447371	1.168001	-0.000138
 657	6.5272e+01	13.8509	49.632547	0.000345	3.447371	1.168001	-0.000138
 658	6.5371e+01	13.8205	49.503358	0.000324	3.244584	1.099295	-0.000130
 659	6.5471e+01	13.7820	49.358022	0.000365	3.650157	1.236707	-0.000146
 660	6.5570e+01	13.7386	49.240945	0.000294	2.940404	0.996236	-0.000118
 661	6.5670e+01	13.7066	49.087533	0.000385	3.852944	1.305413	-0.000154
 662	6.5769e+01	13.6584	48.990642	0.000243	2.433438	0.824471	-0.000097
 663	6.5869e+01	13.6199	48.821082	0.000426	4.258517	1.442825	-0.000170
 664	6.5969e+01	13.5750	48.667671	0.000385	3.852944	1.305413	-0.000154
 665	6.6068e+01	13.5381	48.542520	0.000314	3.143191	1.064942	-0.000126
 666	6.6168e+01	13.4996	48.385072	0.000395	3.954337	1.339766	-0.000158
 667	6.6267e+01	13.4643	48.272032	0.000284	2.839011	0.961883	-0.000114
 668	6.6367e+01	13.4242	48.154955	0.000294	2.940404	0.996236	-0.000118
 669	6.6466e+01	13.3873	47.977321	0.000446	4.461303	1.511530	-0.000179
 670	6.6566e+01	13.3456	47.868318	0.000274	2.737618	0.927530	-0.000110
 671	6.6665e+01	13.3007	47.735093	0.000335	3.345977	1.133648	-0.000134
 672	6.6764e+01	13.2574	47.585719	0.000375	3.751550	1.271060	-0.000150
 673	6.6864e+01	13.2173	47.504976	0.000203	2.027865	0.687059	-0.000081
 674	6.6963e+01	13.1868	47.323305	0.000456	4.562696	1.545883	-0.000183
 675	6.7063e+01	13.1467	47.190080	0.000335	3.345977	1.133648	-0.000134
 676	6.7162e+01	13.1066	47.048780	0.000355	3.548764	1.202354	-0.000142
 677	6.7262e+01	13.0569	46.919592	0.000324	3.244584	1.099295	-0.000130
 678	6.7362e+01	13.0264	46.782329	0.000345	3.447371	1.168001	-0.000138
 679	6.7461e+01	12.9798	46.616806	0.000416	4.157123	1.408472	-0.000166
 680	6.7561e+01	12.9413	46.503767	0.000284	2.839011	0.961883	-0.000114
 681	6.7660e+01	12.9093	46.362467	0.000355	3.548764	1.202354	-0.000142
 682	6.7760e+01	12.8659	46.217130	0.000365	3.650157	1.236707	-0.000146
 683	6.7859e+01	12.8242	46.104090	0.000284	2.839011	0.961883	-0.000114
 684	6.7959e+01	12.7905	45.999125	0.000264	2.636225	0.893177	-0.000105
 685	6.8058e+01	12.7440	45.837639	0.000406	4.055730	1.374119	-0.000162
 686	6.8157e+01	12.7055	45.688265	0.000375	3.751550	1.271060	-0.000150
 687	6.8257e+01	12.6686	45.583300	0.000264	2.636225	0.893177	-0.000105
 688	6.8356e+01	12.6333	45.389517	0.000487	4.866876	1.648942	-0.000195
 689	6.8456e+01	12.5900	45.332997	0.000142	1.419506	0.480942	-0.000057
 690	6.8555e+01	12.5627	45.155363	0.000446	4.461303	1.511530	-0.000179
 691	6.8655e+01	12.5098	45.005989	0.000375	3.751550	1.271060	-0.000150
 692	6.8754e+01	12.4665	44.868727	0.000345	3.447371	1.168001	-0.000138
 693	6.8854e+01	12.4216	44.743575	0.000314	3.143191	1.064942	-0.000126
 694	6.8954e+01	12.3863	44.618424	0.000314	3.143191	1.064942	-0.000126
 695	6.9053e+01	12.3510	44.469050	0.000375	3.751550	1.271060	-0.000150
 696	6.9153e+01	12.3077	44.331788	0.000345	3.447371	1.168001	-0.000138
 697	6.9252e+01	12.2740	44.206636	0.000314	3.143191	1.064942	-0.000126
 698	6.9352e+01	12.2339	44.061299	0.000365	3.650157	1.236707	-0.000146
 699	6.9451e+01	12.1954	43.936148	0.000314	3.143191	1.064942	-0.000126
 700	6.9550e+01	12.1489	43.794848	0.000355	3.548764	1.202354	-0.000142
 701	6.9650e+01	12.1152	43.685846	0.000274	2.737618	0.927530	-0.000110
 702	6.9749e+01	12.0751	43.520323	0.000416	4.157123	1.408472	-0.000166
 703	6.9849e+01	12.0301	43.407283	0.000284	2.839011	0.961883	-0.000114
 704	6.9948e+01	11.9948	43.257909	0.000375	3.751550	1.271060	-0.000150
 705	7.0048e+01	11.9515	43.116610	0.000355	3.548764	1.202354	-0.000142
 706	7.0147e+01	11.9146	43.019718	0.000243	2.433438	0.824471	-0.000097
 707	7.0247e+01	11.8665	42.842084	0.000446	4.461303	1.511530	-0.000179
 708	7.0347e+01	11.8344	42.672525	0.000426	4.258517	1.442825	-0.000170
 709	7.0446e+01	11.7911	42.616005	0.000142	1.419506	0.480942	-0.000057
 710	7.0546e+01	11.7526	42.450482	0.000416	4.157123	1.408472	-0.000166
 711	7.0645e+01	11.7125	42.321294	0.000324	3.244584	1.099295	-0.000130
 712	7.0745e+01	11.6612	42.192106	0.000324	3.244584	1.099295	-0.000130
 713	7.0844e+01	11.6323	42.030620	0.000406	4.055730	1.374119	-0.000162
 714	7.0944e+01	11.5922	41.921618	0.000274	2.737618	0.927530	-0.000110
 715	7.1043e+01	11.5553	41.788392	0.000335	3.345977	1.133648	-0.000134
 716	7.1142e+01	11.5152	41.598647	0.000477	4.765483	1.614589	-0.000191
 717	7.1242e+01	11.4735	41.489644	0.000274	2.737618	0.927530	-0.000110
 718	7.1341e+01	11.4237	41.340270	0.000375	3.751550	1.271060	-0.000150
 719	7.1441e+01	11.3901	41.211082	0.000324	3.244584	1.099295	-0.000130
 720	7.1540e+01	11.3548	41.069782	0.000355	3.548764	1.202354	-0.000142
 721	7.1640e+01	11.3211	40.920408	0.000375	3.751550	1.271060	-0.000150
 722	7.1740e+01	11.2713	40.803331	0.000294	2.940404	0.996236	-0.000118
 723	7.1839e+01	11.2248	40.617623	0.000466	4.664090	1.580236	-0.000187
 724	7.1939e+01	11.2008	40.528806	0.000223	2.230652	0.755765	-0.000089
 725	7.2038e+01	11.1526	40.399617	0.000324	3.244584	1.099295	-0.000130
 726	7.2138e+01	11.1254	40.221983	0.000446	4.461303	1.511530	-0.000179
 727	7.2237e+01	11.0708	40.088758	0.000335	3.345977	1.133648	-0.000134
 728	7.2337e+01	11.0403	39.975718	0.000284	2.839011	0.961883	-0.000114
 729	7.2436e+01	10.9938	39.830381	0.000365	3.650157	1.236707	-0.000146
 730	7.2535e+01	10.9569	39.693119	0.000345	3.447371	1.168001	-0.000138
 731	7.2635e+01	10.9120	39.580079	0.000284	2.839011	0.961883	-0.000114
 732	7.2734e+01	10.8751	39.446853	0.000335	3.345977	1.133648	-0.000134
 733	7.2834e+01	10.8414	39.281331	0.000416	4.157123	1.408472	-0.000166
 734	7.2933e+01	10.7933	39.164254	0.000294	2.940404	0.996236	-0.000118
 735	7.3033e+01	10.7596	39.010843	0.000385	3.852944	1.305413	-0.000154
 736	7.3132e+01	10.7211	38.857431	0.000385	3.852944	1.305413	-0.000154
 737	7.3232e+01	10.6714	38.728243	0.000324	3.244584	1.099295	-0.000130
 738	7.3332e+01	10.6280	38.582906	0.000365	3.650157	1.236707	-0.000146
 739	7.3431e+01	10.5976	38.441606	0.000355	3.548764	1.202354	-0.000142
 740	7.3531e+01	10.5510	38.300307	0.000355	3.548764	1.202354	-0.000142
 741	7.3630e+01	10.5190	38.122673	0.000446	4.461303	1.511530	-0.000179
 742	7.3730e+01	10.4740	38.021744	0.000253	2.534831	0.858824	-0.000101
 743	7.3829e+01	10.4291	37.868333	0.000385	3.852944	1.305413	-0.000154
 744	7.3928e+01	10.3922	37.735108	0.000335	3.345977	1.133648	-0.000134
 745	7.4028e+01	10.3633	37.650328	0.000213	2.129258	0.721412	-0.000085
 746	7.4127e+01	10.3216	37.452508	0.000497	4.968270	1.683295	-0.000199
 747	7.4227e+01	10.2767	37.286986	0.000416	4.157123	1.408472	-0.000166
 748	7.4326e+01	10.2350	37.157797	0.000324	3.244584	1.099295	-0.000130
 749	7.4426e+01	10.1965	36.992275	0.000416	4.157123	1.408472	-0.000166
 750	7.4525e+01	10.1532	36.883272	0.000274	2.737618	0.927530	-0.000110
 751	7.4625e+01	10.1227	36.741972	0.000355	3.548764	1.202354	-0.000142
 752	7.4725e+01	10.0666	36.596635	0.000365	3.650157	1.236707	-0.000146
 753	7.4824e+01	10.0441	36.431113	0.000416	4.157123	1.408472	-0.000166
 754	7.4924e+01	9.9992	36.318073	0.000284	2.839011	0.961883	-0.000114
 755	7.5023e+01	9.9607	36.132365	0.000466	4.664090	1.580236	-0.000187
 756	7.5123e+01	9.9110	35.982991	0.000375	3.751550	1.271060	-0.000150
 757	7.5222e+01	9.8789	35.861877	0.000304	3.041798	1.030589	-0.000122
 758	7.5322e+01	9.8372	35.720577	0.000355	3.548764	1.202354	-0.000142
 759	7.5421e+01	9.7922	35.579277	0.000355	3.548764	1.202354	-0.000142
 760	7.5520e+01	9.7650	35.429903	0.000375	3.751550	1.271060	-0.000150
 761	7.5620e+01	9.7152	35.276492	0.000385	3.852944	1.305413	-0.000154
 762	7.5719e+01	9.6687	35.159415	0.000294	2.940404	0.996236	-0.000118
 763	7.5819e+01	9.6366	35.001967	0.000395	3.954337	1.339766	-0.000158
 764	7.5918e+01	9.6013	34.872779	0.000324	3.244584	1.099295	-0.000130
 765	7.6018e+01	9.5644	34.695145	0.000446	4.461303	1.511530	-0.000179
 766	7.6118e+01	9.5163	34.569993	0.000314	3.143191	1.064942	-0.000126
 767	7.6217e+01	9.4762	34.412545	0.000395	3.954337	1.339766	-0.000158
 768	7.6317e+01	9.4361	34.291431	0.000304	3.041798	1.030589	-0.000122
 769	7.6416e+01	9.3992	34.109760	0.000456	4.562696	1.545883	-0.000183
 770	7.6516e+01	9.3527	34.029017	0.000203	2.027865	0.687059	-0.000081
 771	7.6615e+01	9.3238	33.875606	0.000385	3.852944	1.305413	-0.000154
 772	7.6715e+01	9.2821	33.689898	0.000466	4.664090	1.580236	-0.000187
 773	7.6814e+01	9.2484	33.544561	0.000365	3.650157	1.236707	-0.000146
 774	7.6913e+01	9.1987	33.431521	0.000284	2.839011	0.961883	-0.000114
 775	7.7013e+01	9.1570	33.229664	0.000507	5.069663	1.717648	-0.000203
 776	7.7112e+01	9.1217	33.096439	0.000335	3.345977	1.133648	-0.000134
 777	7.7212e+01	9.0751	32.967250	0.000324	3.244584	1.099295	-0.000130
 778	7.7311e+01	9.0463	32.813839	0.000385	3.852944	1.305413	-0.000154
 779	7.7411e+01	8.9981	32.692725	0.000304	3.041798	1.030589	-0.000122
 780	7.7510e+01	8.9661	32.511054	0.000456	4.562696	1.545883	-0.000183
 781	7.7610e+01	8.9276	32.385903	0.000314	3.143191	1.064942	-0.000126
 782	7.7710e+01	8.8762	32.208269	0.000446	4.461303	1.511530	-0.000179
 783	7.7809e+01	8.8441	32.054858	0.000385	3.852944	1.305413	-0.000154
 784	7.7909e+01	8.8104	31.933744	0.000304	3.041798	1.030589	-0.000122
 785	7.8008e+01	8.7687	31.776295	0.000395	3.954337	1.339766	-0.000158
 786	7.8108e+01	8.7318	31.602699	0.000436	4.359910	1.477177	-0.000174
 787	7.8207e+01	8.6821	31.485622	0.000294	2.940404	0.996236	-0.000118
 788	7.8306e+01	8.6436	31.312025	0.000436	4.359910	1.477177	-0.000174
 789	7.8406e+01	8.6003	31.170725	0.000355	3.548764	1.202354	-0.000142
 790	7.8505e+01	8.5698	31.037500	0.000335	3.345977	1.133648	-0.000134
 791	7.8605e+01	8.5233	30.835643	0.000507	5.069663	1.717648	-0.000203
 792	7.8704e+01	8.4848	30.698380	0.000345	3.447371	1.168001	-0.000138
 793	7.8804e+01	8.4447	30.561118	0.000345	3.447371	1.168001	-0.000138
 794	7.8903e+01	8.3982	30.427892	0.000335	3.345977	1.133648	-0.000134
 795	7.9003e+01	8.3677	30.250258	0.000446	4.461303	1.511530	-0.000179
 796	7.9103e+01	8.3276	30.088773	0.000406	4.055730	1.374119	-0.000162
 797	7.9202e+01	8.2875	29.979770	0.000274	2.737618	0.927530	-0.000110
 798	7.9302e+01	8.2425	29.834433	0.000365	3.650157	1.236707	-0.000146
 799	7.9401e+01	8.2024	29.628539	0.000517	5.171056	1.752001	-0.000207
 800	7.9501e+01	8.1688	29.483202	0.000365	3.650157	1.236707	-0.000146
 801	7.9600e+01	8.1254	29.358051	0.000314	3.143191	1.064942	-0.000126
 802	7.9700e+01	8.0821	29.188491	0.000426	4.258517	1.442825	-0.000170
 803	7.9799e+01	8.0452	29.091600	0.000243	2.433438	0.824471	-0.000097
 804	7.9898e+01	8.0083	28.905892	0.000466	4.664090	1.580236	-0.000187
 805	7.9998e+01	7.9618	28.788815	0.000294	2.940404	0.996236	-0.000118
 806	8.0097e+01	7.9233	28.615218	0.000436	4.359910	1.477177	-0.000174
 807	8.0197e+01	7.8960	28.453733	0.000406	4.055730	1.374119	-0.000162
 808	8.0296e+01	7.8543	28.320507	0.000335	3.345977	1.133648	-0.000134
 809	8.0396e+01	7.8142	28.159022	0.000406	4.055730	1.374119	-0.000162
 810	8.0496e+01	7.7613	28.029833	0.000324	3.244584	1.099295	-0.000130
 811	8.0595e+01	7.7292	27.872385	0.000395	3.954337	1.339766	-0.000158
 812	8.0695e+01	7.6891	27.678603	0.000487	4.866876	1.648942	-0.000195
 813	8.0794e+01	7.6474	27.561526	0.000294	2.940404	0.996236	-0.000118
 814	8.0894e+01	7.6169	27.400040	0.000406	4.055730	1.374119	-0.000162
 815	8.0993e+01	7.5720	27.266815	0.000335	3.345977	1.133648	-0.000134
 816	8.1093e+01	7.5303	27.125515	0.000355	3.548764	1.202354	-0.000142
 817	8.1192e+01	7.4886	26.964030	0.000406	4.055730	1.374119	-0.000162
 818	8.1291e+01	7.4468	26.794470	0.000426	4.258517	1.442825	-0.000170
 819	8.1391e+01	7.4132	26.665282	0.000324	3.244584	1.099295	-0.000130
 820	8.1490e+01	7.3618	26.495722	0.000426	4.258517	1.442825	-0.000170
 821	8.1590e+01	7.3297	26.334236	0.000406	4.055730	1.374119	-0.000162
 822	8.1689e+01	7.2896	26.176788	0.000395	3.954337	1.339766	-0.000158
 823	8.1789e+01	7.2463	26.067785	0.000274	2.737618	0.927530	-0.000110
 824	8.1888e+01	7.2046	25.902263	0.000416	4.157123	1.408472	-0.000166
 825	8.1988e+01	7.1661	25.736740	0.000416	4.157123	1.408472	-0.000166
 826	8.2088e+01	7.1292	25.591403	0.000365	3.650157	1.236707	-0.000146
 827	8.2187e+01	7.0875	25.470289	0.000304	3.041798	1.030589	-0.000122
 828	8.2287e+01	7.0490	25.284581	0.000466	4.664090	1.580236	-0.000187
 829	8.2386e+01	7.0121	25.163467	0.000304	3.041798	1.030589	-0.000122
 830	8.2486e+01	6.9768	25.006019	0.000395	3.954337	1.339766	-0.000158
 831	8.2585e+01	6.9319	24.852608	0.000385	3.852944	1.305413	-0.000154
 832	8.2684e+01	6.8854	24.735531	0.000294	2.940404	0.996236	-0.000118
 833	8.2784e+01	6.8565	24.537711	0.000497	4.968270	1.683295	-0.000199
 834	8.2883e+01	6.8052	24.388337	0.000375	3.751550	1.271060	-0.000150
 835	8.2983e+01	6.7699	24.259149	0.000324	3.244584	1.099295	-0.000130
 836	8.3082e+01	6.7378	24.109775	0.000375	3.751550	1.271060	-0.000150
 837	8.3182e+01	6.6945	23.952326	0.000395	3.954337	1.339766	-0.000158
 838	8.3281e+01	6.6479	23.835249	0.000294	2.940404	0.996236	-0.000118
 839	8.3381e+01	6.6062	23.673764	0.000406	4.055730	1.374119	-0.000162
 840	8.3481e+01	6.5790	23.524390	0.000375	3.751550	1.271060	-0.000150
 841	8.3580e+01	6.5324	23.366942	0.000395	3.954337	1.339766	-0.000158
 842	8.3680e+01	6.5052	23.253902	0.000284	2.839011	0.961883	-0.000114
 843	8.3779e+01	6.4458	23.048008	0.000517	5.171056	1.752001	-0.000207
 844	8.3879e+01	6.4201	22.930931	0.000294	2.940404	0.996236	-0.000118
 845	8.3978e+01	6.3832	22.789631	0.000355	3.548764	1.202354	-0.000142
 846	8.4078e+01	6.3383	22.603923	0.000466	4.664090	1.580236	-0.000187
 847	8.4177e+01	6.2950	22.498957	0.000264	2.636225	0.893177	-0.000105
 848	8.4276e+01	6.2661	22.357658	0.000355	3.548764	1.202354	-0.000142
 849	8.4376e+01	6.2132	22.180024	0.000446	4.461303	1.511530	-0.000179
 850	8.4475e+01	6.1699	22.026613	0.000385	3.852944	1.305413	-0.000154
 851	8.4575e+01	6.1330	21.853016	0.000436	4.359910	1.477177	-0.000174
 852	8.4674e+01	6.0929	21.744013	0.000274	2.737618	0.927530	-0.000110
 853	8.4774e+01	6.0672	21.598676	0.000365	3.650157	1.236707	-0.000146
 854	8.4874e+01	6.0143	21.441228	0.000395	3.954337	1.339766	-0.000158
 855	8.4973e+01	5.9806	21.279742	0.000406	4.055730	1.374119	-0.000162
 856	8.5073e+01	5.9373	21.126331	0.000385	3.852944	1.305413	-0.000154
 857	8.5172e+01	5.8923	20.972920	0.000385	3.852944	1.305413	-0.000154
 858	8.5272e+01	5.8522	20.823546	0.000375	3.751550	1.271060	-0.000150
 859	8.5371e+01	5.8169	20.666098	0.000395	3.954337	1.339766	-0.000158
 860	8.5471e+01	5.7720	20.536909	0.000324	3.244584	1.099295	-0.000130
 861	8.5570e+01	5.7351	20.367350	0.000426	4.258517	1.442825	-0.000170
 862	8.5669e+01	5.6934	20.242199	0.000314	3.143191	1.064942	-0.000126
 863	8.5769e+01	5.6613	20.100899	0.000355	3.548764	1.202354	-0.000142
 864	8.5868e+01	5.6116	19.939413	0.000406	4.055730	1.374119	-0.000162
 865	8.5968e+01	5.5731	19.790039	0.000375	3.751550	1.271060	-0.000150
 866	8.6067e+01	5.5362	19.640665	0.000375	3.751550	1.271060	-0.000150
 867	8.6167e+01	5.5009	19.487254	0.000385	3.852944	1.305413	-0.000154
 868	8.6266e+01	5.4560	19.366140	0.000304	3.041798	1.030589	-0.000122
 869	8.6366e+01	5.4255	19.176395	0.000477	4.765483	1.614589	-0.000191
 870	8.6466e+01	5.3790	19.022984	0.000385	3.852944	1.305413	-0.000154
 871	8.6565e+01	5.3325	18.922055	0.000253	2.534831	0.858824	-0.000101
 872	8.6665e+01	5.2940	18.776718	0.000365	3.650157	1.236707	-0.000146
 873	8.6764e+01	5.2667	18.611196	0.000416	4.157123	1.408472	-0.000166
 874	8.6864e+01	5.2202	18.486045	0.000314	3.143191	1.064942	-0.000126
 875	8.6963e+01	5.1737	18.284188	0.000507	5.069663	1.717648	-0.000203
 876	8.7063e+01	5.1416	18.191334	0.000233	2.332045	0.790118	-0.000093
 877	8.7162e+01	5.0950	18.041960	0.000375	3.751550	1.271060	-0.000150
 878	8.7261e+01	5.0662	17.888548	0.000385	3.852944	1.305413	-0.000154
 879	8.7361e+01	5.0180	17.702840	0.000466	4.664090	1.580236	-0.000187
 880	8.7460e+01	4.9892	17.533281	0.000426	4.258517	1.442825	-0.000170
 881	8.7560e+01	4.9362	17.412166	0.000304	3.041798	1.030589	-0.000122
 882	8.7659e+01	4.9009	17.299127	0.000284	2.839011	0.961883	-0.000114
 883	8.7759e+01	4.8624	17.121493	0.000446	4.461303	1.511530	-0.000179
 884	8.7859e+01	4.8191	16.968082	0.000385	3.852944	1.305413	-0.000154
 885	8.7958e+01	4.7758	16.814670	0.000385	3.852944	1.305413	-0.000154
 886	8.8058e+01	4.7341	16.661259	0.000385	3.852944	1.305413	-0.000154
 887	8.8157e+01	4.7036	16.511885	0.000375	3.751550	1.271060	-0.000150
 888	8.8257e+01	4.6683	16.346363	0.000416	4.157123	1.408472	-0.000166
 889	8.8356e+01	4.6154	16.221211	0.000314	3.143191	1.064942	-0.000126
 890	8.8456e+01	4.5769	16.055689	0.000416	4.157123	1.408472	-0.000166
 891	8.8555e+01	4.5384	15.942649	0.000284	2.839011	0.961883	-0.000114
 892	8.8654e+01	4.5015	15.769052	0.000436	4.359910	1.477177	-0.000174
 893	8.8754e+01	4.4614	15.660050	0.000274	2.737618	0.927530	-0.000110
 894	8.8853e+01	4.4197	15.442044	0.000548	5.475236	1.855060	-0.000219
 895	8.8953e+01	4.3828	15.324967	0.000294	2.940404	0.996236	-0.000118
 896	8.9052e+01	4.3491	15.159445	0.000416	4.157123	1.408472	-0.000166
 897	8.9152e+01	4.3026	15.042368	0.000294	2.940404	0.996236	-0.000118
 898	8.9251e+01	4.2576	14.868771	0.000436	4.359910	1.477177	-0.000174
 899	8.9351e+01	4.2239	14.739583	0.000324	3.244584	1.099295	-0.000130
 900	8.9451e+01	4.1790	14.590209	0.000375	3.751550	1.271060	-0.000150
 901	8.9550e+01	4.1437	14.432760	0.000395	3.954337	1.339766	-0.000158
 902	8.9650e+01	4.1068	14.335869	0.000243	2.433438	0.824471	-0.000097
 903	8.9749e+01	4.0683	14.134012	0.000507	5.069663	1.717648	-0.000203
 904	8.9849e+01	4.0282	13.980601	0.000385	3.852944	1.305413	-0.000154
 905	8.9948e+01	3.9865	13.815078	0.000416	4.157123	1.408472	-0.000166
 906	9.0047e+01	3.9416	13.689927	0.000314	3.143191	1.064942	-0.000126
 907	9.0147e+01	3.8999	13.500182	0.000477	4.765483	1.614589	-0.000191
 908	9.0246e+01	3.8598	13.379068	0.000304	3.041798	1.030589	-0.000122
 909	9.0346e+01	3.8165	13.193360	0.000466	4.664090	1.580236	-0.000187
 910	9.0445e+01	3.7796	13.043986	0.000375	3.751550	1.271060	-0.000150
 911	9.0545e+01	3.7330	12.898649	0.000365	3.650157	1.236707	-0.000146
 912	9.0644e+01	3.7090	12.773497	0.000314	3.143191	1.064942	-0.000126
 913	9.0744e+01	3.6625	12.603938	0.000426	4.258517	1.442825	-0.000170
 914	9.0844e+01	3.6079	12.422267	0.000456	4.562696	1.545883	-0.000183
 915	9.0943e+01	3.5887	12.272893	0.000375	3.751550	1.271060	-0.000150
 916	9.1043e+01	3.5438	12.131593	0.000355	3.548764	1.202354	-0.000142
 917	9.1142e+01	3.5036	12.006442	0.000314	3.143191	1.064942	-0.000126
 918	9.1242e+01	3.4700	11.861105	0.000365	3.650157	1.236707	-0.000146
 919	9.1341e+01	3.4266	11.675397	0.000466	4.664090	1.580236	-0.000187
 920	9.1441e+01	3.3930	11.505837	0.000426	4.258517	1.442825	-0.000170
 921	9.1540e+01	3.3496	11.360500	0.000365	3.650157	1.236707	-0.000146
 922	9.1639e+01	3.3111	11.231312	0.000324	3.244584	1.099295	-0.000130
 923	9.1739e+01	3.2726	11.073863	0.000395	3.954337	1.339766	-0.000158
 924	9.1838e+01	3.2229	10.932564	0.000355	3.548764	1.202354	-0.000142
 925	9.1938e+01	3.1844	10.726670	0.000517	5.171056	1.752001	-0.000207
 926	9.2037e+01	3.1507	10.581333	0.000365	3.650157	1.236707	-0.000146
 927	9.2137e+01	3.1058	10.419847	0.000406	4.055730	1.374119	-0.000162
 928	9.2237e+01	3.0721	10.318919	0.000253	2.534831	0.858824	-0.000101
 929	9.2336e+01	3.0256	10.117062	0.000507	5.069663	1.717648	-0.000203
 930	9.2436e+01	2.9759	9.963651	0.000385	3.852944	1.305413	-0.000154
 931	9.2535e+01	2.9470	9.810240	0.000385	3.852944	1.305413	-0.000154
 932	9.2635e+01	2.9069	9.660866	0.000375	3.751550	1.271060	-0.000150
 933	9.2734e+01	2.8652	9.495343	0.000416	4.157123	1.408472	-0.000166
 934	9.2834e+01	2.8299	9.358081	0.000345	3.447371	1.168001	-0.000138
 935	9.2933e+01	2.7866	9.192558	0.000416	4.157123	1.408472	-0.000166
 936	9.3032e+01	2.7513	9.055295	0.000345	3.447371	1.168001	-0.000138
 937	9.3132e+01	2.7079	8.905921	0.000375	3.751550	1.271060	-0.000150
 938	9.3231e+01	2.6710	8.732325	0.000436	4.359910	1.477177	-0.000174
 939	9.3331e+01	2.6293	8.566802	0.000416	4.157123	1.408472	-0.000166
 940	9.3430e+01	2.5860	8.449725	0.000294	2.940404	0.996236	-0.000118
 941	9.3530e+01	2.5363	8.211534	0.000598	5.982202	2.026825	-0.000239
 942	9.3629e+01	2.5202	8.090420	0.000304	3.041798	1.030589	-0.000122
 943	9.3729e+01	2.4721	7.920860	0.000426	4.258517	1.442825	-0.000170
 944	9.3829e+01	2.4304	7.807821	0.000284	2.839011	0.961883	-0.000114
 945	9.3928e+01	2.3951	7.642298	0.000416	4.157123	1.408472	-0.000166
 946	9.4028e+01	2.3454	7.404107	0.000598	5.982202	2.026825	-0.000239
 947	9.4127e+01	2.3021	7.307216	0.000243	2.433438	0.824471	-0.000097
 948	9.4227e+01	2.2748	7.153805	0.000385	3.852944	1.305413	-0.000154
 949	9.4326e+01	2.2299	6.976171	0.000446	4.461303	1.511530	-0.000179
 950	9.4425e+01	2.1898	6.818722	0.000395	3.954337	1.339766	-0.000158
 951	9.4525e+01	2.1481	6.665311	0.000385	3.852944	1.305413	-0.000154
 952	9.4624e+01	2.1015	6.499789	0.000416	4.157123	1.408472	-0.000166
 953	9.4724e+01	2.0711	6.346377	0.000385	3.852944	1.305413	-0.000154
 954	9.4823e+01	2.0294	6.180855	0.000416	4.157123	1.408472	-0.000166
 955	9.4923e+01	1.9989	6.055704	0.000314	3.143191	1.064942	-0.000126
 956	9.5022e+01	1.9507	5.894218	0.000406	4.055730	1.374119	-0.000162
 957	9.5122e+01	1.9106	5.728696	0.000416	4.157123	1.408472	-0.000166
 958	9.5222e+01	1.8689	5.563173	0.000416	4.157123	1.408472	-0.000166
 959	9.5321e+01	1.8336	5.429948	0.000335	3.345977	1.133648	-0.000134
 960	9.5421e+01	1.7871	5.272499	0.000395	3.954337	1.339766	-0.000158
 961	9.5520e+01	1.7534	5.074680	0.000497	4.968270	1.683295	-0.000199
 962	9.5620e+01	1.7149	4.957603	0.000294	2.940404	0.996236	-0.000118
 963	9.5719e+01	1.6764	4.763820	0.000487	4.866876	1.648942	-0.000195
 964	9.5819e+01	1.6283	4.642706	0.000304	3.041798	1.030589	-0.000122
 965	9.5918e+01	1.5898	4.444886	0.000497	4.968270	1.683295	-0.000199
 966	9.6017e+01	1.5465	4.291475	0.000385	3.852944	1.305413	-0.000154
 967	9.6117e+01	1.5208	4.121916	0.000426	4.258517	1.442825	-0.000170
 968	9.6216e+01	1.4711	4.004839	0.000294	2.940404	0.996236	-0.000118
 969	9.6316e+01	1.4342	3.815093	0.000477	4.765483	1.614589	-0.000191
 970	9.6415e+01	1.3861	3.641496	0.000436	4.359910	1.477177	-0.000174
 971	9.6515e+01	1.3540	3.484048	0.000395	3.954337	1.339766	-0.000158
 972	9.6615e+01	1.3123	3.354860	0.000324	3.244584	1.099295	-0.000130
 973	9.6714e+01	1.2689	3.189337	0.000416	4.157123	1.408472	-0.000166
 974	9.6814e+01	1.2337	3.048037	0.000355	3.548764	1.202354	-0.000142
 975	9.6913e+01	1.1984	2.874441	0.000436	4.359910	1.477177	-0.000174
 976	9.7013e+01	1.1615	2.696807	0.000446	4.461303	1.511530	-0.000179
 977	9.7112e+01	1.1069	2.531284	0.000416	4.157123	1.408472	-0.000166
 978	9.7212e+01	1.0700	2.398059	0.000335	3.345977	1.133648	-0.000134
 979	9.7311e+01	1.0315	2.252722	0.000365	3.650157	1.236707	-0.000146
 980	9.7410e+01	0.9930	2.071051	0.000456	4.562696	1.545883	-0.000183
 981	9.7510e+01	0.9529	1.933788	0.000345	3.447371	1.168001	-0.000138
 982	9.7609e+01	0.9160	1.756154	0.000446	4.461303	1.511530	-0.000179
 983	9.7709e+01	0.8711	1.602743	0.000385	3.852944	1.305413	-0.000154
 984	9.7808e+01	0.8342	1.465480	0.000345	3.447371	1.168001	-0.000138
 985	9.7908e+01	0.7829	1.243438	0.000558	5.576629	1.889413	-0.000223
 986	9.8007e+01	0.7460	1.146547	0.000243	2.433438	0.824471	-0.000097
 987	9.8107e+01	0.7075	0.989098	0.000395	3.954337	1.339766	-0.000158
 988	9.8207e+01	0.6834	0.863947	0.000314	3.143191	1.064942	-0.000126
 989	9.8306e+01	0.6401	0.637867	0.000568	5.678022	1.923766	-0.000227
 990	9.8406e+01	0.5920	0.504642	0.000335	3.345977	1.133648	-0.000134
 991	9.8505e+01	0.5583	0.335082	0.000426	4.258517	1.442825	-0.000170
 992	9.8605e+01	0.5198	0.218005	0.000294	2.940404	0.996236	-0.000118
 993	9.8704e+01	0.4749	0.028260	0.000477	4.765483	1.614589	-0.000191
 994	9.8803e+01	0.4460	-0.137263	0.000416	4.157123	1.408472	-0.000166
 995	9.8903e+01	0.3962	-0.254340	0.000294	2.940404	0.996236	-0.000118
 996	9.9002e+01	0.3561	-0.440048	0.000466	4.664090	1.580236	-0.000187
 997	9.9102e+01	0.3241	-0.581348	0.000355	3.548764	1.202354	-0.000142
 998	9.9201e+01	0.2695	-0.763019	0.000456	4.562696	1.545883	-0.000183
 999	9.9301e+01	0.2294	-0.876058	0.000284	2.839011	0.961883	-0.000114
1000	9.9400e+01	0.1973	-1.073878	0.000497	4.968270	1.683295	-0.000199
1001	9.9500e+01	0.1556	-1.207104	0.000335	3.345977	1.133648	-0.000134
1002	9.9600e+01	0.1107	-1.376663	0.000426	4.258517	1.442825	-0.000170
1003	9.9699e+01	0.0786	-1.505852	0.000324	3.244584	1.099295	-0.000130
1004	9.9799e+01	0.0337	-1.691560	0.000466	4.664090	1.580236	-0.000187
1005	9.9898e+01	0.0128	-1.808637	0.000294	2.940404	0.996236	-0.000118
1006	9.9998e+01	-0.0337	-1.958011	0.000375	3.751550	1.271060	-0.000150
1007	1.0010e+02	-0.0674	-2.075088	0.000294	2.940404	0.996236	-0.000118
1008	1.0020e+02	-0.1155	-2.301167	0.000568	5.678022	1.923766	-0.000227
1009	1.0030e+02	-0.1588	-2.430356	0.000324	3.244584	1.099295	-0.000130
1010	1.0040e+02	-0.1925	-2.551470	0.000304	3.041798	1.030589	-0.000122
1011	1.0050e+02	-0.2326	-2.721029	0.000426	4.258517	1.442825	-0.000170
1012	1.0059e+02	-0.2711	-2.862329	0.000355	3.548764	1.202354	-0.000142
1013	1.0069e+02	-0.3112	-3.039963	0.000446	4.461303	1.511530	-0.000179
1014	1.0079e+02	-0.3545	-3.165114	0.000314	3.143191	1.064942	-0.000126
1015	1.0089e+02	-0.3930	-3.342748	0.000446	4.461303	1.511530	-0.000179
1016	1.0099e+02	-0.4347	-3.467900	0.000314	3.143191	1.064942	-0.000126
1017	1.0109e+02	-0.4636	-3.629385	0.000406	4.055730	1.374119	-0.000162
1018	1.0119e+02	-0.5134	-3.790870	0.000406	4.055730	1.374119	-0.000162
1019	1.0129e+02	-0.5567	-3.944282	0.000385	3.852944	1.305413	-0.000154
1020	1.0139e+02	-0.5968	-4.101730	0.000395	3.954337	1.339766	-0.000158
1021	1.0149e+02	-0.6289	-4.295512	0.000487	4.866876	1.648942	-0.000195
1022	1.0159e+02	-0.6690	-4.396441	0.000253	2.534831	0.858824	-0.000101
1023	1.0169e+02	-0.7155	-4.537741	0.000355	3.548764	1.202354	-0.000142
1024	1.0179e+02	-0.7476	-4.735560	0.000497	4.968270	1.683295	-0.000199
1025	1.0189e+02	-0.7877	-4.856674	0.000304	3.041798	1.030589	-0.000122
1026	1.0199e+02	-0.8342	-5.034308	0.000446	4.461303	1.511530	-0.000179
1027	1.0209e+02	-0.8647	-5.155422	0.000304	3.041798	1.030589	-0.000122
1028	1.0219e+02	-0.9128	-5.341131	0.000466	4.664090	1.580236	-0.000187
1029	1.0229e+02	-0.9497	-5.450133	0.000274	2.737618	0.927530	-0.000110
1030	1.0239e+02	-0.9866	-5.635841	0.000466	4.664090	1.580236	-0.000187
1031	1.0248e+02	-1.0299	-5.801364	0.000416	4.157123	1.408472	-0.000166
1032	1.0258e+02	-1.0668	-5.946701	0.000365	3.650157	1.236707	-0.000146
1033	1.0268e+02	-1.1182	-6.071852	0.000314	3.143191	1.064942	-0.000126
1034	1.0278e+02	-1.1534	-6.245449	0.000436	4.359910	1.477177	-0.000174
1035	1.0288e+02	-1.1984	-6.402897	0.000395	3.954337	1.339766	-0.000158
1036	1.0298e+02	-1.2337	-6.528048	0.000314	3.143191	1.064942	-0.000126
1037	1.0308e+02	-1.2706	-6.641088	0.000284	2.839011	0.961883	-0.000114
1038	1.0318e+02	-1.3171	-6.842945	0.000507	5.069663	1.717648	-0.000203
1039	1.0328e+02	-1.3524	-6.992319	0.000375	3.751550	1.271060	-0.000150
1040	1.0338e+02	-1.3845	-7.121507	0.000324	3.244584	1.099295	-0.000130
1041	1.0348e+02	-1.4310	-7.274919	0.000385	3.852944	1.305413	-0.000154
1042	1.0358e+02	-1.4631	-7.412181	0.000345	3.447371	1.168001	-0.000138
1043	1.0368e+02	-1.5160	-7.565592	0.000385	3.852944	1.305413	-0.000154
1044	1.0378e+02	-1.5497	-7.723041	0.000395	3.954337	1.339766	-0.000158
1045	1.0388e+02	-1.5930	-7.840118	0.000294	2.940404	0.996236	-0.000118
1046	1.0398e+02	-1.6331	-8.029863	0.000477	4.765483	1.614589	-0.000191
1047	1.0408e+02	-1.6652	-8.195386	0.000416	4.157123	1.408472	-0.000166
1048	1.0418e+02	-1.7149	-8.312462	0.000294	2.940404	0.996236	-0.000118
1049	1.0428e+02	-1.7518	-8.477985	0.000416	4.157123	1.408472	-0.000166
1050	1.0438e+02	-1.7807	-8.635433	0.000395	3.954337	1.339766	-0.000158
1051	1.0447e+02	-1.8192	-8.784807	0.000375	3.751550	1.271060	-0.000150
1052	1.0457e+02	-1.8737	-8.881699	0.000243	2.433438	0.824471	-0.000097
1053	1.0467e+02	-1.9090	-9.115852	0.000588	5.880809	1.992472	-0.000235
1054	1.0477e+02	-1.9524	-9.204669	0.000223	2.230652	0.755765	-0.000089
1055	1.0487e+02	-1.9860	-9.358081	0.000385	3.852944	1.305413	-0.000154
1056	1.0497e+02	-2.0229	-9.535715	0.000446	4.461303	1.511530	-0.000179
1057	1.0507e+02	-2.0663	-9.709311	0.000436	4.359910	1.477177	-0.000174
1058	1.0517e+02	-2.1096	-9.826388	0.000294	2.940404	0.996236	-0.000118
1059	1.0527e+02	-2.1433	-9.939428	0.000284	2.839011	0.961883	-0.000114
1060	1.0537e+02	-2.1866	-10.137248	0.000497	4.968270	1.683295	-0.000199
1061	1.0547e+02	-2.2347	-10.274510	0.000345	3.447371	1.168001	-0.000138
1062	1.0557e+02	-2.2604	-10.419847	0.000365	3.650157	1.236707	-0.000146
1063	1.0567e+02	-2.2989	-10.577296	0.000395	3.954337	1.339766	-0.000158
1064	1.0577e+02	-2.3518	-10.722633	0.000365	3.650157	1.236707	-0.000146
1065	1.0587e+02	-2.3855	-10.872007	0.000375	3.751550	1.271060	-0.000150
1066	1.0597e+02	-2.4256	-11.045603	0.000436	4.359910	1.477177	-0.000174
1067	1.0607e+02	-2.4561	-11.186903	0.000355	3.548764	1.202354	-0.000142
1068	1.0617e+02	-2.5170	-11.316091	0.000324	3.244584	1.099295	-0.000130
1069	1.0627e+02	-2.5427	-11.489688	0.000436	4.359910	1.477177	-0.000174
1070	1.0637e+02	-2.5844	-11.659248	0.000426	4.258517	1.442825	-0.000170
1071	1.0647e+02	-2.6213	-11.748065	0.000223	2.230652	0.755765	-0.000089
1072	1.0656e+02	-2.6630	-11.885328	0.000345	3.447371	1.168001	-0.000138
1073	1.0666e+02	-2.6935	-12.062962	0.000446	4.461303	1.511530	-0.000179
1074	1.0676e+02	-2.7448	-12.188113	0.000314	3.143191	1.064942	-0.000126
1075	1.0686e+02	-2.7769	-12.349598	0.000406	4.055730	1.374119	-0.000162
1076	1.0696e+02	-2.8218	-12.494935	0.000365	3.650157	1.236707	-0.000146
1077	1.0706e+02	-2.8620	-12.652383	0.000395	3.954337	1.339766	-0.000158
1078	1.0716e+02	-2.9101	-12.817906	0.000416	4.157123	1.408472	-0.000166
1079	1.0726e+02	-2.9454	-12.926909	0.000274	2.737618	0.927530	-0.000110
1080	1.0736e+02	-2.9871	-13.096468	0.000426	4.258517	1.442825	-0.000170
1081	1.0746e+02	-3.0208	-13.266028	0.000426	4.258517	1.442825	-0.000170
1082	1.0756e+02	-3.0689	-13.399254	0.000335	3.345977	1.133648	-0.000134
1083	1.0766e+02	-3.1010	-13.576887	0.000446	4.461303	1.511530	-0.000179
1084	1.0776e+02	-3.1443	-13.718187	0.000355	3.548764	1.202354	-0.000142
1085	1.0786e+02	-3.1860	-13.867561	0.000375	3.751550	1.271060	-0.000150
1086	1.0796e+02	-3.2245	-14.041158	0.000436	4.359910	1.477177	-0.000174
1087	1.0806e+02	-3.2598	-14.202644	0.000406	4.055730	1.374119	-0.000162
1088	1.0816e+02	-3.2903	-14.307609	0.000264	2.636225	0.893177	-0.000105
1089	1.0826e+02	-3.3448	-14.461020	0.000385	3.852944	1.305413	-0.000154
1090	1.0836e+02	-3.3849	-14.634617	0.000436	4.359910	1.477177	-0.000174
1091	1.0845e+02	-3.4202	-14.763805	0.000324	3.244584	1.099295	-0.000130
1092	1.0855e+02	-3.4635	-14.933365	0.000426	4.258517	1.442825	-0.000170
1093	1.0865e+02	-3.4956	-15.062553	0.000324	3.244584	1.099295	-0.000130
1094	1.0875e+02	-3.5470	-15.232113	0.000426	4.258517	1.442825	-0.000170
1095	1.0885e+02	-3.5790	-15.389561	0.000395	3.954337	1.339766	-0.000158
1096	1.0895e+02	-3.6175	-15.510676	0.000304	3.041798	1.030589	-0.000122
1097	1.0905e+02	-3.6657	-15.692347	0.000456	4.562696	1.545883	-0.000183
1098	1.0915e+02	-3.6962	-15.817498	0.000314	3.143191	1.064942	-0.000126
1099	1.0925e+02	-3.7443	-15.966872	0.000375	3.751550	1.271060	-0.000150
1100	1.0935e+02	-3.7764	-16.116246	0.000375	3.751550	1.271060	-0.000150
1101	1.0945e+02	-3.8181	-16.245434	0.000324	3.244584	1.099295	-0.000130
1102	1.0955e+02	-3.8678	-16.439217	0.000487	4.866876	1.648942	-0.000195
1103	1.0965e+02	-3.8999	-16.576479	0.000345	3.447371	1.168001	-0.000138
1104	1.0975e+02	-3.9464	-16.709705	0.000335	3.345977	1.133648	-0.000134
1105	1.0985e+02	-3.9833	-16.919636	0.000527	5.272449	1.786354	-0.000211
1106	1.0995e+02	-4.0138	-17.004416	0.000213	2.129258	0.721412	-0.000085
1107	1.1005e+02	-4.0587	-17.182050	0.000446	4.461303	1.511530	-0.000179
1108	1.1015e+02	-4.0972	-17.335461	0.000385	3.852944	1.305413	-0.000154
1109	1.1025e+02	-4.1437	-17.452538	0.000294	2.940404	0.996236	-0.000118
1110	1.1035e+02	-4.1774	-17.622097	0.000426	4.258517	1.442825	-0.000170
1111	1.1044e+02	-4.2239	-17.747249	0.000314	3.143191	1.064942	-0.000126
1112	1.1054e+02	-4.2544	-17.892586	0.000365	3.650157	1.236707	-0.000146
1113	1.1064e+02	-4.3026	-18.066182	0.000436	4.359910	1.477177	-0.000174
1114	1.1074e+02	-4.3427	-18.203445	0.000345	3.447371	1.168001	-0.000138
1115	1.1084e+02	-4.3828	-18.344745	0.000355	3.548764	1.202354	-0.000142
1116	1.1094e+02	-4.4132	-18.550639	0.000517	5.171056	1.752001	-0.000207
1117	1.1104e+02	-4.4485	-18.659641	0.000274	2.737618	0.927530	-0.000110
1118	1.1114e+02	-4.4951	-18.821127	0.000406	4.055730	1.374119	-0.000162
1119	1.1124e+02	-4.5352	-18.990687	0.000426	4.258517	1.442825	-0.000170
1120	1.1134e+02	-4.5673	-19.111801	0.000304	3.041798	1.030589	-0.000122
1121	1.1144e+02	-4.6218	-19.281360	0.000426	4.258517	1.442825	-0.000170
1122	1.1154e+02	-4.6667	-19.422660	0.000355	3.548764	1.202354	-0.000142
1123	1.1164e+02	-4.6892	-19.551848	0.000324	3.244584	1.099295	-0.000130
1124	1.1174e+02	-4.7341	-19.717371	0.000416	4.157123	1.408472	-0.000166
1125	1.1184e+02	-4.7726	-19.874819	0.000395	3.954337	1.339766	-0.000158
1126	1.1194e+02	-4.8175	-20.020156	0.000365	3.650157	1.236707	-0.000146
1127	1.1204e+02	-4.8560	-20.157419	0.000345	3.447371	1.168001	-0.000138
1128	1.1214e+02	-4.8881	-20.343127	0.000466	4.664090	1.580236	-0.000187
1129	1.1224e+02	-4.9378	-20.496538	0.000385	3.852944	1.305413	-0.000154
1130	1.1234e+02	-4.9747	-20.637838	0.000355	3.548764	1.202354	-0.000142
1131	1.1244e+02	-5.0277	-20.754915	0.000294	2.940404	0.996236	-0.000118
1132	1.1253e+02	-5.0581	-20.944660	0.000477	4.765483	1.614589	-0.000191
1133	1.1263e+02	-5.0934	-21.073849	0.000324	3.244584	1.099295	-0.000130
1134	1.1273e+02	-5.1239	-21.227260	0.000385	3.852944	1.305413	-0.000154
1135	1.1283e+02	-5.1737	-21.372597	0.000365	3.650157	1.236707	-0.000146
1136	1.1293e+02	-5.2250	-21.469488	0.000243	2.433438	0.824471	-0.000097
1137	1.1303e+02	-5.2603	-21.671345	0.000507	5.069663	1.717648	-0.000203
1138	1.1313e+02	-5.2908	-21.804570	0.000335	3.345977	1.133648	-0.000134
1139	1.1323e+02	-5.3469	-21.957981	0.000385	3.852944	1.305413	-0.000154
1140	1.1333e+02	-5.3822	-22.099281	0.000355	3.548764	1.202354	-0.000142
1141	1.1343e+02	-5.4175	-22.232507	0.000335	3.345977	1.133648	-0.000134
1142	1.1353e+02	-5.4608	-22.426289	0.000487	4.866876	1.648942	-0.000195
1143	1.1363e+02	-5.5009	-22.551440	0.000314	3.143191	1.064942	-0.000126
1144	1.1373e+02	-5.5314	-22.660443	0.000274	2.737618	0.927530	-0.000110
1145	1.1383e+02	-5.5843	-22.821928	0.000406	4.055730	1.374119	-0.000162
1146	1.1393e+02	-5.6148	-22.999562	0.000446	4.461303	1.511530	-0.000179
1147	1.1403e+02	-5.6597	-23.112602	0.000284	2.839011	0.961883	-0.000114
1148	1.1413e+02	-5.6918	-23.286199	0.000436	4.359910	1.477177	-0.000174
1149	1.1423e+02	-5.7383	-23.423462	0.000345	3.447371	1.168001	-0.000138
1150	1.1433e+02	-5.7656	-23.560724	0.000345	3.447371	1.168001	-0.000138
1151	1.1442e+02	-5.8105	-23.702024	0.000355	3.548764	1.202354	-0.000142
1152	1.1452e+02	-5.8538	-23.871584	0.000426	4.258517	1.442825	-0.000170
1153	1.1462e+02	-5.8907	-23.992698	0.000304	3.041798	1.030589	-0.000122
1154	1.1472e+02	-5.9341	-24.121886	0.000324	3.244584	1.099295	-0.000130
1155	1.1482e+02	-5.9726	-24.283371	0.000406	4.055730	1.374119	-0.000162
1156	1.1492e+02	-6.0030	-24.477154	0.000487	4.866876	1.648942	-0.000195
1157	1.1502e+02	-6.0544	-24.594231	0.000294	2.940404	0.996236	-0.000118
1158	1.1512e+02	-6.1009	-24.719382	0.000314	3.143191	1.064942	-0.000126
1159	1.1522e+02	-6.1250	-24.864719	0.000365	3.650157	1.236707	-0.000146
1160	1.1532e+02	-6.1731	-25.026204	0.000406	4.055730	1.374119	-0.000162
1161	1.1542e+02	-6.2116	-25.171541	0.000365	3.650157	1.236707	-0.000146
1162	1.1552e+02	-6.2501	-25.300730	0.000324	3.244584	1.099295	-0.000130
1163	1.1562e+02	-6.2982	-25.417807	0.000294	2.940404	0.996236	-0.000118
1164	1.1572e+02	-6.3223	-25.575255	0.000395	3.954337	1.339766	-0.000158
1165	1.1582e+02	-6.3704	-25.720592	0.000365	3.650157	1.236707	-0.000146
1166	1.1592e+02	-6.4153	-25.865929	0.000365	3.650157	1.236707	-0.000146
1167	1.1602e+02	-6.4426	-26.011266	0.000365	3.650157	1.236707	-0.000146
1168	1.1612e+02	-6.4795	-26.176788	0.000416	4.157123	1.408472	-0.000166
1169	1.1622e+02	-6.5308	-26.289828	0.000284	2.839011	0.961883	-0.000114
1170	1.1632e+02	-6.5677	-26.414979	0.000314	3.143191	1.064942	-0.000126
1171	1.1642e+02	-6.6014	-26.552242	0.000345	3.447371	1.168001	-0.000138
1172	1.1651e+02	-6.6576	-26.729876	0.000446	4.461303	1.511530	-0.000179
1173	1.1661e+02	-6.6816	-26.818693	0.000223	2.230652	0.755765	-0.000089
1174	1.1671e+02	-6.7217	-26.968067	0.000375	3.751550	1.271060	-0.000150
1175	1.1681e+02	-6.7715	-27.097255	0.000324	3.244584	1.099295	-0.000130
1176	1.1691e+02	-6.8116	-27.287000	0.000477	4.765483	1.614589	-0.000191
1177	1.1701e+02	-6.8324	-27.396003	0.000274	2.737618	0.927530	-0.000110
1178	1.1711e+02	-6.8790	-27.541340	0.000365	3.650157	1.236707	-0.000146
1179	1.1721e+02	-6.9271	-27.662454	0.000304	3.041798	1.030589	-0.000122
1180	1.1731e+02	-6.9736	-27.783568	0.000304	3.041798	1.030589	-0.000122
1181	1.1741e+02	-7.0041	-27.981388	0.000497	4.968270	1.683295	-0.000199
1182	1.1751e+02	-7.0426	-28.090390	0.000274	2.737618	0.927530	-0.000110
1183	1.1761e+02	-7.0699	-28.235727	0.000365	3.650157	1.236707	-0.000146
1184	1.1771e+02	-7.1276	-28.364916	0.000324	3.244584	1.099295	-0.000130
1185	1.1781e+02	-7.1597	-28.481993	0.000294	2.940404	0.996236	-0.000118
1186	1.1791e+02	-7.1982	-28.623292	0.000355	3.548764	1.202354	-0.000142
1187	1.1801e+02	-7.2495	-28.784778	0.000406	4.055730	1.374119	-0.000162
1188	1.1811e+02	-7.2832	-28.966449	0.000456	4.562696	1.545883	-0.000183
1189	1.1821e+02	-7.3281	-29.031043	0.000162	1.622292	0.549647	-0.000065
1190	1.1831e+02	-7.3618	-29.212714	0.000456	4.562696	1.545883	-0.000183
1191	1.1841e+02	-7.4035	-29.349977	0.000345	3.447371	1.168001	-0.000138
1192	1.1850e+02	-7.4420	-29.475128	0.000314	3.143191	1.064942	-0.000126
1193	1.1860e+02	-7.4870	-29.608354	0.000335	3.345977	1.133648	-0.000134
1194	1.1870e+02	-7.5255	-29.757728	0.000375	3.751550	1.271060	-0.000150
1195	1.1880e+02	-7.5624	-29.894990	0.000345	3.447371	1.168001	-0.000138
1196	1.1890e+02	-7.6041	-30.020141	0.000314	3.143191	1.064942	-0.000126
1197	1.1900e+02	-7.6506	-30.177590	0.000395	3.954337	1.339766	-0.000158
1198	1.1910e+02	-7.6763	-30.262369	0.000213	2.129258	0.721412	-0.000085
1199	1.1920e+02	-7.7276	-30.423855	0.000406	4.055730	1.374119	-0.000162
1200	1.1930e+02	-7.7677	-30.536895	0.000284	2.839011	0.961883	-0.000114
1201	1.1940e+02	-7.8158	-30.706454	0.000426	4.258517	1.442825	-0.000170
1202	1.1950e+02	-7.8431	-30.811420	0.000264	2.636225	0.893177	-0.000105
1203	1.1960e+02	-7.8816	-30.972905	0.000406	4.055730	1.374119	-0.000162
1204	1.1970e+02	-7.9233	-31.098057	0.000314	3.143191	1.064942	-0.000126
1205	1.1980e+02	-7.9650	-31.235319	0.000345	3.447371	1.168001	-0.000138
1206	1.1990e+02	-7.9987	-31.348359	0.000284	2.839011	0.961883	-0.000114
1207	1.2000e+02	-8.0356	-31.501770	0.000385	3.852944	1.305413	-0.000154
1208	1.2010e+02	-8.0789	-31.618847	0.000294	2.940404	0.996236	-0.000118
1209	1.2020e+02	-8.1303	-31.735924	0.000294	2.940404	0.996236	-0.000118
1210	1.2030e+02	-8.1559	-31.861075	0.000314	3.143191	1.064942	-0.000126
1211	1.2039e+02	-8.2024	-32.002375	0.000355	3.548764	1.202354	-0.000142
1212	1.2049e+02	-8.2313	-32.163860	0.000406	4.055730	1.374119	-0.000162
1213	1.2059e+02	-8.2859	-32.272863	0.000274	2.737618	0.927530	-0.000110
1214	1.2069e+02	-8.3228	-32.398014	0.000314	3.143191	1.064942	-0.000126
1215	1.2079e+02	-8.3661	-32.567574	0.000426	4.258517	1.442825	-0.000170
1216	1.2089e+02	-8.4094	-32.708874	0.000355	3.548764	1.202354	-0.000142
1217	1.2099e+02	-8.4318	-32.793654	0.000213	2.129258	0.721412	-0.000085
1218	1.2109e+02	-8.4816	-32.999548	0.000517	5.171056	1.752001	-0.000207
1219	1.2119e+02	-8.5121	-33.088365	0.000223	2.230652	0.755765	-0.000089
1220	1.2129e+02	-8.5650	-33.185256	0.000243	2.433438	0.824471	-0.000097
1221	1.2139e+02	-8.6003	-33.338667	0.000385	3.852944	1.305413	-0.000154
1222	1.2149e+02	-8.6276	-33.459781	0.000304	3.041798	1.030589	-0.000122
1223	1.2159e+02	-8.6821	-33.625304	0.000416	4.157123	1.408472	-0.000166
1224	1.2169e+02	-8.7206	-33.734306	0.000274	2.737618	0.927530	-0.000110
1225	1.2179e+02	-8.7575	-33.883680	0.000375	3.751550	1.271060	-0.000150
1226	1.2189e+02	-8.7992	-34.033054	0.000375	3.751550	1.271060	-0.000150
1227	1.2199e+02	-8.8329	-34.150131	0.000294	2.940404	0.996236	-0.000118
1228	1.2209e+02	-8.8842	-34.275282	0.000314	3.143191	1.064942	-0.000126
1229	1.2219e+02	-8.9243	-34.372174	0.000243	2.433438	0.824471	-0.000097
1230	1.2229e+02	-8.9532	-34.537696	0.000416	4.157123	1.408472	-0.000166
1231	1.2239e+02	-9.0046	-34.658810	0.000304	3.041798	1.030589	-0.000122
1232	1.2248e+02	-9.0350	-34.812221	0.000385	3.852944	1.305413	-0.000154
1233	1.2258e+02	-9.0767	-34.897001	0.000213	2.129258	0.721412	-0.000085
1234	1.2268e+02	-9.1169	-35.042338	0.000365	3.650157	1.236707	-0.000146
1235	1.2278e+02	-9.1602	-35.167489	0.000314	3.143191	1.064942	-0.000126
1236	1.2288e+02	-9.1987	-35.308789	0.000355	3.548764	1.202354	-0.000142
1237	1.2298e+02	-9.2356	-35.462200	0.000385	3.852944	1.305413	-0.000154
1238	1.2308e+02	-9.2837	-35.583314	0.000304	3.041798	1.030589	-0.000122
1239	1.2318e+02	-9.3158	-35.700391	0.000294	2.940404	0.996236	-0.000118
1240	1.2328e+02	-9.3479	-35.833617	0.000335	3.345977	1.133648	-0.000134
1241	1.2338e+02	-9.4008	-35.982991	0.000375	3.751550	1.271060	-0.000150
1242	1.2348e+02	-9.4329	-36.108142	0.000314	3.143191	1.064942	-0.000126
1243	1.2358e+02	-9.4762	-36.217145	0.000274	2.737618	0.927530	-0.000110
1244	1.2368e+02	-9.5163	-36.390742	0.000436	4.359910	1.477177	-0.000174
1245	1.2378e+02	-9.5564	-36.503781	0.000284	2.839011	0.961883	-0.000114
1246	1.2388e+02	-9.5997	-36.604710	0.000253	2.534831	0.858824	-0.000101
1247	1.2398e+02	-9.6398	-36.794455	0.000477	4.765483	1.614589	-0.000191
1248	1.2408e+02	-9.6815	-36.907495	0.000284	2.839011	0.961883	-0.000114
1249	1.2418e+02	-9.7152	-37.016498	0.000274	2.737618	0.927530	-0.000110
1250	1.2428e+02	-9.7537	-37.161834	0.000365	3.650157	1.236707	-0.000146
1251	1.2438e+02	-9.7858	-37.258726	0.000243	2.433438	0.824471	-0.000097
1252	1.2447e+02	-9.8259	-37.428285	0.000426	4.258517	1.442825	-0.000170
1253	1.2457e+02	-9.8724	-37.525177	0.000243	2.433438	0.824471	-0.000097
1254	1.2467e+02	-9.9142	-37.670514	0.000365	3.650157	1.236707	-0.000146
1255	1.2477e+02	-9.9495	-37.815850	0.000365	3.650157	1.236707	-0.000146
1256	1.2487e+02	-9.9992	-37.928890	0.000284	2.839011	0.961883	-0.000114
1257	1.2497e+02	-10.0345	-38.114599	0.000466	4.664090	1.580236	-0.000187
1258	1.2507e+02	-10.0778	-38.235713	0.000304	3.041798	1.030589	-0.000122
1259	1.2517e+02	-10.1147	-38.340678	0.000264	2.636225	0.893177	-0.000105
1260	1.2527e+02	-10.1564	-38.469866	0.000324	3.244584	1.099295	-0.000130
1261	1.2537e+02	-10.1869	-38.627315	0.000395	3.954337	1.339766	-0.000158
1262	1.2547e+02	-10.2318	-38.720169	0.000233	2.332045	0.790118	-0.000093
1263	1.2557e+02	-10.2703	-38.885691	0.000416	4.157123	1.408472	-0.000166
1264	1.2567e+02	-10.3120	-39.002768	0.000294	2.940404	0.996236	-0.000118
1265	1.2577e+02	-10.3521	-39.135994	0.000335	3.345977	1.133648	-0.000134
1266	1.2587e+02	-10.3906	-39.281331	0.000365	3.650157	1.236707	-0.000146
1267	1.2597e+02	-10.4243	-39.390333	0.000274	2.737618	0.927530	-0.000110
1268	1.2607e+02	-10.4772	-39.551819	0.000406	4.055730	1.374119	-0.000162
1269	1.2617e+02	-10.5141	-39.701193	0.000375	3.751550	1.271060	-0.000150
1270	1.2627e+02	-10.5510	-39.781936	0.000203	2.027865	0.687059	-0.000081
1271	1.2636e+02	-10.5960	-39.923235	0.000355	3.548764	1.202354	-0.000142
1272	1.2646e+02	-10.6345	-40.024164	0.000253	2.534831	0.858824	-0.000101
1273	1.2656e+02	-10.6698	-40.181612	0.000395	3.954337	1.339766	-0.000158
1274	1.2666e+02	-10.7227	-40.343097	0.000406	4.055730	1.374119	-0.000162
1275	1.2676e+02	-10.7435	-40.448063	0.000264	2.636225	0.893177	-0.000105
1276	1.2686e+02	-10.7933	-40.605511	0.000395	3.954337	1.339766	-0.000158
1277	1.2696e+02	-10.8334	-40.738737	0.000335	3.345977	1.133648	-0.000134
1278	1.2706e+02	-10.8655	-40.819479	0.000203	2.027865	0.687059	-0.000081
1279	1.2716e+02	-10.8992	-40.972891	0.000385	3.852944	1.305413	-0.000154
1280	1.2726e+02	-10.9553	-41.081893	0.000274	2.737618	0.927530	-0.000110
1281	1.2736e+02	-10.9874	-41.219156	0.000345	3.447371	1.168001	-0.000138
1282	1.2746e+02	-11.0259	-41.400827	0.000456	4.562696	1.545883	-0.000183
1283	1.2756e+02	-11.0692	-41.521941	0.000304	3.041798	1.030589	-0.000122
1284	1.2766e+02	-11.1205	-41.647092	0.000314	3.143191	1.064942	-0.000126
1285	1.2776e+02	-11.1478	-41.776281	0.000324	3.244584	1.099295	-0.000130
1286	1.2786e+02	-11.1799	-41.913543	0.000345	3.447371	1.168001	-0.000138
1287	1.2796e+02	-11.2248	-42.058880	0.000365	3.650157	1.236707	-0.000146
1288	1.2806e+02	-11.2762	-42.184031	0.000314	3.143191	1.064942	-0.000126
1289	1.2816e+02	-11.3227	-42.288997	0.000264	2.636225	0.893177	-0.000105
1290	1.2826e+02	-11.3596	-42.442408	0.000385	3.852944	1.305413	-0.000154
1291	1.2835e+02	-11.3917	-42.547374	0.000264	2.636225	0.893177	-0.000105
1292	1.2845e+02	-11.4318	-42.712896	0.000416	4.157123	1.408472	-0.000166
1293	1.2855e+02	-11.4622	-42.805750	0.000233	2.332045	0.790118	-0.000093
1294	1.2865e+02	-11.5023	-42.963199	0.000395	3.954337	1.339766	-0.000158
1295	1.2875e+02	-11.5441	-43.112573	0.000375	3.751550	1.271060	-0.000150
1296	1.2885e+02	-11.5826	-43.209464	0.000243	2.433438	0.824471	-0.000097
1297	1.2895e+02	-11.6162	-43.326541	0.000294	2.940404	0.996236	-0.000118
1298	1.2905e+02	-11.6676	-43.512249	0.000466	4.664090	1.580236	-0.000187
1299	1.2915e+02	-11.7125	-43.597029	0.000213	2.129258	0.721412	-0.000085
1300	1.2925e+02	-11.7494	-43.726217	0.000324	3.244584	1.099295	-0.000130
1301	1.2935e+02	-11.7863	-43.871554	0.000365	3.650157	1.236707	-0.000146
1302	1.2945e+02	-11.8296	-43.996705	0.000314	3.143191	1.064942	-0.000126
1303	1.2955e+02	-11.8681	-44.081485	0.000213	2.129258	0.721412	-0.000085
1304	1.2965e+02	-11.9034	-44.251045	0.000426	4.258517	1.442825	-0.000170
1305	1.2975e+02	-11.9403	-44.372159	0.000304	3.041798	1.030589	-0.000122
1306	1.2985e+02	-11.9852	-44.525570	0.000385	3.852944	1.305413	-0.000154
1307	1.2995e+02	-12.0157	-44.658796	0.000335	3.345977	1.133648	-0.000134
1308	1.3005e+02	-12.0638	-44.787984	0.000324	3.244584	1.099295	-0.000130
1309	1.3015e+02	-12.0959	-44.929284	0.000355	3.548764	1.202354	-0.000142
1310	1.3025e+02	-12.1344	-45.102880	0.000436	4.359910	1.477177	-0.000174
1311	1.3034e+02	-12.1874	-45.167475	0.000162	1.622292	0.549647	-0.000065
1312	1.3044e+02	-12.2275	-45.280514	0.000284	2.839011	0.961883	-0.000114
1313	1.3054e+02	-12.2595	-45.454111	0.000436	4.359910	1.477177	-0.000174
1314	1.3064e+02	-12.2997	-45.563114	0.000274	2.737618	0.927530	-0.000110
1315	1.3074e+02	-12.3382	-45.688265	0.000314	3.143191	1.064942	-0.000126
1316	1.3084e+02	-12.3815	-45.829565	0.000355	3.548764	1.202354	-0.000142
1317	1.3094e+02	-12.4312	-45.958753	0.000324	3.244584	1.099295	-0.000130
1318	1.3104e+02	-12.4569	-46.023347	0.000162	1.622292	0.549647	-0.000065
1319	1.3114e+02	-12.4970	-46.200981	0.000446	4.461303	1.511530	-0.000179
1320	1.3124e+02	-12.5483	-46.309984	0.000274	2.737618	0.927530	-0.000110
1321	1.3134e+02	-12.5820	-46.451284	0.000355	3.548764	1.202354	-0.000142
1322	1.3144e+02	-12.6189	-46.608732	0.000395	3.954337	1.339766	-0.000158
1323	1.3154e+02	-12.6606	-46.725809	0.000294	2.940404	0.996236	-0.000118
1324	1.3164e+02	-12.7023	-46.826737	0.000253	2.534831	0.858824	-0.000101
1325	1.3174e+02	-12.7456	-46.988223	0.000406	4.055730	1.374119	-0.000162
1326	1.3184e+02	-12.7761	-47.105300	0.000294	2.940404	0.996236	-0.000118
1327	1.3194e+02	-12.8274	-47.254674	0.000375	3.751550	1.271060	-0.000150
1328	1.3204e+02	-12.8708	-47.387899	0.000335	3.345977	1.133648	-0.000134
1329	1.3214e+02	-12.8964	-47.456531	0.000172	1.723685	0.584000	-0.000069
1330	1.3224e+02	-12.9365	-47.613979	0.000395	3.954337	1.339766	-0.000158
1331	1.3234e+02	-12.9831	-47.710870	0.000243	2.433438	0.824471	-0.000097
1332	1.3243e+02	-13.0232	-47.864281	0.000385	3.852944	1.305413	-0.000154
1333	1.3253e+02	-13.0601	-47.957135	0.000233	2.332045	0.790118	-0.000093
1334	1.3263e+02	-13.0954	-48.114584	0.000395	3.954337	1.339766	-0.000158
1335	1.3273e+02	-13.1306	-48.219549	0.000264	2.636225	0.893177	-0.000105
1336	1.3283e+02	-13.1804	-48.336626	0.000294	2.940404	0.996236	-0.000118
1337	1.3293e+02	-13.2141	-48.441592	0.000264	2.636225	0.893177	-0.000105
1338	1.3303e+02	-13.2542	-48.578854	0.000345	3.447371	1.168001	-0.000138
1339	1.3313e+02	-13.3055	-48.732265	0.000385	3.852944	1.305413	-0.000154
1340	1.3323e+02	-13.3248	-48.817045	0.000213	2.129258	0.721412	-0.000085
1341	1.3333e+02	-13.3841	-48.950271	0.000335	3.345977	1.133648	-0.000134
1342	1.3343e+02	-13.4098	-49.087533	0.000345	3.447371	1.168001	-0.000138
1343	1.3353e+02	-13.4595	-49.212685	0.000314	3.143191	1.064942	-0.000126
1344	1.3363e+02	-13.4964	-49.337836	0.000314	3.143191	1.064942	-0.000126
1345	1.3373e+02	-13.5413	-49.462987	0.000314	3.143191	1.064942	-0.000126
1346	1.3383e+02	-13.5879	-49.559878	0.000243	2.433438	0.824471	-0.000097
1347	1.3393e+02	-13.6199	-49.689067	0.000324	3.244584	1.099295	-0.000130
1348	1.3403e+02	-13.6600	-49.830366	0.000355	3.548764	1.202354	-0.000142
1349	1.3413e+02	-13.6985	-49.967629	0.000345	3.447371	1.168001	-0.000138
1350	1.3423e+02	-13.7274	-50.008000	0.000101	1.013933	0.343530	-0.000041
1351	1.3432e+02	-13.7852	-50.161412	0.000385	3.852944	1.305413	-0.000154
1352	1.3442e+02	-13.8108	-50.314823	0.000385	3.852944	1.305413	-0.000154
1353	1.3452e+02	-13.8622	-50.419788	0.000264	2.636225	0.893177	-0.000105
1354	1.3462e+02	-13.8927	-50.544939	0.000314	3.143191	1.064942	-0.000126
1355	1.3472e+02	-13.9424	-50.649905	0.000264	2.636225	0.893177	-0.000105
1356	1.3482e+02	-13.9697	-50.750833	0.000253	2.534831	0.858824	-0.000101
1357	1.3492e+02	-14.0194	-50.847725	0.000243	2.433438	0.824471	-0.000097
1358	1.3502e+02	-14.0547	-51.021321	0.000436	4.359910	1.477177	-0.000174
1359	1.3512e+02	-14.0964	-51.114176	0.000233	2.332045	0.790118	-0.000093
1360	1.3522e+02	-14.1349	-51.263550	0.000375	3.751550	1.271060	-0.000150
1361	1.3532e+02	-14.1814	-51.408886	0.000365	3.650157	1.236707	-0.000146
1362	1.3542e+02	-14.2103	-51.517889	0.000274	2.737618	0.927530	-0.000110
1363	1.3552e+02	-14.2616	-51.622855	0.000264	2.636225	0.893177	-0.000105
1364	1.3562e+02	-14.3033	-51.735894	0.000284	2.839011	0.961883	-0.000114
1365	1.3572e+02	-14.3386	-51.865083	0.000324	3.244584	1.099295	-0.000130
1366	1.3582e+02	-14.3819	-51.957937	0.000233	2.332045	0.790118	-0.000093
1367	1.3592e+02	-14.4140	-52.079051	0.000304	3.041798	1.030589	-0.000122
1368	1.3602e+02	-14.4509	-52.175942	0.000243	2.433438	0.824471	-0.000097
1369	1.3612e+02	-14.4926	-52.337428	0.000406	4.055730	1.374119	-0.000162
1370	1.3622e+02	-14.5392	-52.442393	0.000264	2.636225	0.893177	-0.000105
1371	1.3631e+02	-14.5712	-52.575619	0.000335	3.345977	1.133648	-0.000134
1372	1.3641e+02	-14.6081	-52.664436	0.000223	2.230652	0.755765	-0.000089
1373	1.3651e+02	-14.6515	-52.785550	0.000304	3.041798	1.030589	-0.000122
1374	1.3661e+02	-14.6948	-52.934924	0.000375	3.751550	1.271060	-0.000150
1375	1.3671e+02	-14.7301	-53.047964	0.000284	2.839011	0.961883	-0.000114
1376	1.3681e+02	-14.7718	-53.156966	0.000274	2.737618	0.927530	-0.000110
1377	1.3691e+02	-14.8119	-53.261932	0.000264	2.636225	0.893177	-0.000105
1378	1.3701e+02	-14.8568	-53.391120	0.000324	3.244584	1.099295	-0.000130
1379	1.3711e+02	-14.8889	-53.504160	0.000284	2.839011	0.961883	-0.000114
1380	1.3721e+02	-14.9258	-53.661608	0.000395	3.954337	1.339766	-0.000158
1381	1.3731e+02	-14.9707	-53.750425	0.000223	2.230652	0.755765	-0.000089
1382	1.3741e+02	-15.0140	-53.851354	0.000253	2.534831	0.858824	-0.000101
1383	1.3751e+02	-15.0509	-53.984579	0.000335	3.345977	1.133648	-0.000134
1384	1.3761e+02	-15.0878	-54.109730	0.000314	3.143191	1.064942	-0.000126
1385	1.3771e+02	-15.1327	-54.214696	0.000264	2.636225	0.893177	-0.000105
1386	1.3781e+02	-15.1728	-54.335810	0.000304	3.041798	1.030589	-0.000122
1387	1.3791e+02	-15.2113	-54.444813	0.000274	2.737618	0.927530	-0.000110
1388	1.3801e+02	-15.2498	-54.569964	0.000314	3.143191	1.064942	-0.000126
1389	1.3811e+02	-15.2883	-54.687041	0.000294	2.940404	0.996236	-0.000118
1390	1.3821e+02	-15.3317	-54.775858	0.000223	2.230652	0.755765	-0.000089
1391	1.3831e+02	-15.3718	-54.949455	0.000436	4.359910	1.477177	-0.000174
1392	1.3840e+02	-15.4087	-55.026160	0.000193	1.926472	0.652706	-0.000077
1393	1.3850e+02	-15.4520	-55.183608	0.000395	3.954337	1.339766	-0.000158
1394	1.3860e+02	-15.4889	-55.280500	0.000243	2.433438	0.824471	-0.000097
1395	1.3870e+02	-15.5258	-55.417762	0.000345	3.447371	1.168001	-0.000138
1396	1.3880e+02	-15.5771	-55.498505	0.000203	2.027865	0.687059	-0.000081
1397	1.3890e+02	-15.6076	-55.587322	0.000223	2.230652	0.755765	-0.000089
1398	1.3900e+02	-15.6477	-55.740733	0.000385	3.852944	1.305413	-0.000154
1399	1.3910e+02	-15.6926	-55.829550	0.000223	2.230652	0.755765	-0.000089
1400	1.3920e+02	-15.7343	-55.934516	0.000264	2.636225	0.893177	-0.000105
1401	1.3930e+02	-15.7696	-56.104075	0.000426	4.258517	1.442825	-0.000170
1402	1.3940e+02	-15.8161	-56.233264	0.000324	3.244584	1.099295	-0.000130
1403	1.3950e+02	-15.8482	-56.318044	0.000213	2.129258	0.721412	-0.000085
1404	1.3960e+02	-15.8787	-56.463380	0.000365	3.650157	1.236707	-0.000146
1405	1.3970e+02	-15.9268	-56.560272	0.000243	2.433438	0.824471	-0.000097
1406	1.3980e+02	-15.9733	-56.673311	0.000284	2.839011	0.961883	-0.000114
1407	1.3990e+02	-15.9974	-56.790388	0.000294	2.940404	0.996236	-0.000118
1408	1.4000e+02	-16.0503	-56.907465	0.000294	2.940404	0.996236	-0.000118
1409	1.4010e+02	-16.0905	-57.020505	0.000284	2.839011	0.961883	-0.000114
1410	1.4020e+02	-16.1274	-57.149694	0.000324	3.244584	1.099295	-0.000130
1411	1.4029e+02	-16.1675	-57.230436	0.000203	2.027865	0.687059	-0.000081
1412	1.4039e+02	-16.2108	-57.383847	0.000385	3.852944	1.305413	-0.000154
1413	1.4049e+02	-16.2348	-57.488813	0.000264	2.636225	0.893177	-0.000105
1414	1.4059e+02	-16.2942	-57.626076	0.000345	3.447371	1.168001	-0.000138
1415	1.4069e+02	-16.3295	-57.710855	0.000213	2.129258	0.721412	-0.000085
1416	1.4079e+02	-16.3680	-57.860229	0.000375	3.751550	1.271060	-0.000150
1417	1.4089e+02	-16.4113	-57.953084	0.000233	2.332045	0.790118	-0.000093
1418	1.4099e+02	-16.4514	-58.102458	0.000375	3.751550	1.271060	-0.000150
1419	1.4109e+02	-16.4819	-58.207423	0.000264	2.636225	0.893177	-0.000105
1420	1.4119e+02	-16.5236	-58.320463	0.000284	2.839011	0.961883	-0.000114
1421	1.4129e+02	-16.5621	-58.469837	0.000375	3.751550	1.271060	-0.000150
1422	1.4139e+02	-16.6022	-58.550580	0.000203	2.027865	0.687059	-0.000081
1423	1.4149e+02	-16.6487	-58.691879	0.000355	3.548764	1.202354	-0.000142
1424	1.4159e+02	-16.6904	-58.788771	0.000243	2.433438	0.824471	-0.000097
1425	1.4169e+02	-16.7241	-58.913922	0.000314	3.143191	1.064942	-0.000126
1426	1.4179e+02	-16.7706	-59.035036	0.000304	3.041798	1.030589	-0.000122
1427	1.4189e+02	-16.8011	-59.156150	0.000304	3.041798	1.030589	-0.000122
1428	1.4199e+02	-16.8525	-59.329747	0.000436	4.359910	1.477177	-0.000174
1429	1.4209e+02	-16.8846	-59.353970	0.000061	0.608360	0.206118	-0.000024
1430	1.4219e+02	-16.9295	-59.511418	0.000395	3.954337	1.339766	-0.000158
1431	1.4228e+02	-16.9599	-59.620421	0.000274	2.737618	0.927530	-0.000110
1432	1.4238e+02	-16.9952	-59.765757	0.000365	3.650157	1.236707	-0.000146
1433	1.4248e+02	-17.0386	-59.890909	0.000314	3.143191	1.064942	-0.000126
1434	1.4258e+02	-17.0947	-59.995874	0.000264	2.636225	0.893177	-0.000105
1435	1.4268e+02	-17.1220	-60.068543	0.000183	1.825079	0.618353	-0.000073
1436	1.4278e+02	-17.1637	-60.258288	0.000477	4.765483	1.614589	-0.000191
1437	1.4288e+02	-17.2054	-60.367291	0.000274	2.737618	0.927530	-0.000110
1438	1.4298e+02	-17.2471	-60.472256	0.000264	2.636225	0.893177	-0.000105
1439	1.4308e+02	-17.2808	-60.601445	0.000324	3.244584	1.099295	-0.000130
1440	1.4318e+02	-17.3209	-60.722559	0.000304	3.041798	1.030589	-0.000122
1441	1.4328e+02	-17.3770	-60.811376	0.000223	2.230652	0.755765	-0.000089
1442	1.4338e+02	-17.4043	-60.968824	0.000395	3.954337	1.339766	-0.000158
1443	1.4348e+02	-17.4476	-61.085901	0.000294	2.940404	0.996236	-0.000118
1444	1.4358e+02	-17.4877	-61.194904	0.000274	2.737618	0.927530	-0.000110
1445	1.4368e+02	-17.5198	-61.291795	0.000243	2.433438	0.824471	-0.000097
1446	1.4378e+02	-17.5567	-61.425020	0.000335	3.345977	1.133648	-0.000134
1447	1.4388e+02	-17.5968	-61.550171	0.000314	3.143191	1.064942	-0.000126
1448	1.4398e+02	-17.6434	-61.695508	0.000365	3.650157	1.236707	-0.000146
1449	1.4408e+02	-17.6851	-61.792400	0.000243	2.433438	0.824471	-0.000097
1450	1.4418e+02	-17.7236	-61.917551	0.000314	3.143191	1.064942	-0.000126
1451	1.4428e+02	-17.7573	-62.091148	0.000436	4.359910	1.477177	-0.000174
1452	1.4437e+02	-17.8006	-62.163816	0.000183	1.825079	0.618353	-0.000073
1453	1.4447e+02	-17.8310	-62.329339	0.000416	4.157123	1.408472	-0.000166
1454	1.4457e+02	-17.8792	-62.406044	0.000193	1.926472	0.652706	-0.000077
1455	1.4467e+02	-17.9209	-62.543307	0.000345	3.447371	1.168001	-0.000138
1456	1.4477e+02	-17.9626	-62.684607	0.000355	3.548764	1.202354	-0.000142
1457	1.4487e+02	-18.0011	-62.781498	0.000243	2.433438	0.824471	-0.000097
1458	1.4497e+02	-18.0364	-62.918760	0.000345	3.447371	1.168001	-0.000138
1459	1.4507e+02	-18.0813	-63.011615	0.000233	2.332045	0.790118	-0.000093
1460	1.4517e+02	-18.1182	-63.189249	0.000446	4.461303	1.511530	-0.000179
1461	1.4527e+02	-18.1599	-63.306326	0.000294	2.940404	0.996236	-0.000118
1462	1.4537e+02	-18.2080	-63.455700	0.000375	3.751550	1.271060	-0.000150
1463	1.4547e+02	-18.2305	-63.544517	0.000223	2.230652	0.755765	-0.000089
1464	1.4557e+02	-18.2802	-63.661593	0.000294	2.940404	0.996236	-0.000118
1465	1.4567e+02	-18.3187	-63.782708	0.000304	3.041798	1.030589	-0.000122
1466	1.4577e+02	-18.3669	-63.928044	0.000365	3.650157	1.236707	-0.000146
1467	1.4587e+02	-18.4022	-64.024936	0.000243	2.433438	0.824471	-0.000097
1468	1.4597e+02	-18.4342	-64.162198	0.000345	3.447371	1.168001	-0.000138
1469	1.4607e+02	-18.4856	-64.299461	0.000345	3.447371	1.168001	-0.000138
1470	1.4617e+02	-18.5273	-64.392315	0.000233	2.332045	0.790118	-0.000093
1471	1.4626e+02	-18.5594	-64.537652	0.000365	3.650157	1.236707	-0.000146
1472	1.4636e+02	-18.6043	-64.691063	0.000385	3.852944	1.305413	-0.000154
1473	1.4646e+02	-18.6300	-64.800066	0.000274	2.737618	0.927530	-0.000110
1474	1.4656e+02	-18.6813	-64.933291	0.000335	3.345977	1.133648	-0.000134
1475	1.4666e+02	-18.7182	-65.005960	0.000183	1.825079	0.618353	-0.000073
1476	1.4676e+02	-18.7583	-65.163408	0.000395	3.954337	1.339766	-0.000158
1477	1.4686e+02	-18.7952	-65.268373	0.000264	2.636225	0.893177	-0.000105
1478	1.4696e+02	-18.8481	-65.393525	0.000314	3.143191	1.064942	-0.000126
1479	1.4706e+02	-18.8834	-65.546936	0.000385	3.852944	1.305413	-0.000154
1480	1.4716e+02	-18.9235	-65.684198	0.000345	3.447371	1.168001	-0.000138
1481	1.4726e+02	-18.9556	-65.785127	0.000253	2.534831	0.858824	-0.000101
1482	1.4736e+02	-18.9909	-65.950649	0.000416	4.157123	1.408472	-0.000166
1483	1.4746e+02	-19.0358	-66.027355	0.000193	1.926472	0.652706	-0.000077
1484	1.4756e+02	-19.0775	-66.196915	0.000426	4.258517	1.442825	-0.000170
1485	1.4766e+02	-19.1048	-66.326103	0.000324	3.244584	1.099295	-0.000130
1486	1.4776e+02	-19.1513	-66.451254	0.000314	3.143191	1.064942	-0.000126
1487	1.4786e+02	-19.2059	-66.544108	0.000233	2.332045	0.790118	-0.000093
1488	1.4796e+02	-19.2428	-66.713668	0.000426	4.258517	1.442825	-0.000170
1489	1.4806e+02	-19.2781	-66.794411	0.000203	2.027865	0.687059	-0.000081
1490	1.4816e+02	-19.3150	-66.939748	0.000365	3.650157	1.236707	-0.000146
1491	1.4825e+02	-19.3551	-67.089122	0.000375	3.751550	1.271060	-0.000150
1492	1.4835e+02	-19.3936	-67.190050	0.000253	2.534831	0.858824	-0.000101
1493	1.4845e+02	-19.4337	-67.315201	0.000314	3.143191	1.064942	-0.000126
1494	1.4855e+02	-19.4674	-67.464575	0.000375	3.751550	1.271060	-0.000150
1495	1.4865e+02	-19.5091	-67.617986	0.000385	3.852944	1.305413	-0.000154
1496	1.4875e+02	-19.5668	-67.722952	0.000264	2.636225	0.893177	-0.000105
1497	1.4885e+02	-19.5877	-67.807732	0.000213	2.129258	0.721412	-0.000085
1498	1.4895e+02	-19.6438	-67.944994	0.000345	3.447371	1.168001	-0.000138
1499	1.4905e+02	-19.6759	-68.090331	0.000365	3.650157	1.236707	-0.000146
1500	1.4915e+02	-19.7096	-68.195297	0.000264	2.636225	0.893177	-0.000105
1501	1.4925e+02	-19.7497	-68.381005	0.000466	4.664090	1.580236	-0.000187
1502	1.4935e+02	-19.7882	-68.461748	0.000203	2.027865	0.687059	-0.000081
1503	1.4945e+02	-19.8235	-68.607085	0.000365	3.650157	1.236707	-0.000146
1504	1.4955e+02	-19.8732	-68.748384	0.000355	3.548764	1.202354	-0.000142
1505	1.4965e+02	-19.9133	-68.837201	0.000223	2.230652	0.755765	-0.000089
1506	1.4975e+02	-19.9470	-69.006761	0.000426	4.258517	1.442825	-0.000170
1507	1.4985e+02	-19.9871	-69.115764	0.000274	2.737618	0.927530	-0.000110
1508	1.4995e+02	-19.9438	-69.071355	0.000112	1.115326	0.377883	0.000045
1509	1.5005e+02	-19.9133	-69.018873	0.000132	1.318112	0.446589	0.000053
1510	1.5015e+02	-19.8764	-68.982538	0.000091	0.912539	0.309177	0.000037
1511	1.5025e+02	-19.8363	-68.930056	0.000132	1.318112	0.446589	0.000053
1512	1.5034e+02	-19.7946	-68.812979	0.000294	2.940404	0.996236	0.000118
1513	1.5044e+02	-19.7561	-68.724162	0.000223	2.230652	0.755765	0.000089
1514	1.5054e+02	-19.7208	-68.687827	0.000091	0.912539	0.309177	0.000037
1515	1.5064e+02	-19.6679	-68.631308	0.000142	1.419506	0.480942	0.000057
1516	1.5074e+02	-19.6214	-68.506156	0.000314	3.143191	1.064942	0.000126
1517	1.5084e+02	-19.5941	-68.506156	0.000000	0.000000	0.000000	0.000000
1518	1.5094e+02	-19.5556	-68.421376	0.000213	2.129258	0.721412	0.000085
1519	1.5104e+02	-19.5123	-68.320448	0.000253	2.534831	0.858824	0.000101
1520	1.5114e+02	-19.4690	-68.280077	0.000101	1.013933	0.343530	0.000041
1521	1.5124e+02	-19.4289	-68.187223	0.000233	2.332045	0.790118	0.000093
1522	1.5134e+02	-19.3936	-68.130703	0.000142	1.419506	0.480942	0.000057
1523	1.5144e+02	-19.3583	-68.009589	0.000304	3.041798	1.030589	0.000122
1524	1.5154e+02	-19.3198	-67.932883	0.000193	1.926472	0.652706	0.000077
1525	1.5164e+02	-19.2749	-67.916735	0.000041	0.405573	0.137412	0.000016
1526	1.5174e+02	-19.2348	-67.779472	0.000345	3.447371	1.168001	0.000138
1527	1.5184e+02	-19.2075	-67.706803	0.000183	1.825079	0.618353	0.000073
1528	1.5194e+02	-19.1626	-67.634135	0.000183	1.825079	0.618353	0.000073
1529	1.5204e+02	-19.1128	-67.573578	0.000152	1.520899	0.515294	0.000061
1530	1.5214e+02	-19.0695	-67.460538	0.000284	2.839011	0.961883	0.000114
1531	1.5224e+02	-19.0438	-67.399981	0.000152	1.520899	0.515294	0.000061
1532	1.5233e+02	-18.9909	-67.295016	0.000264	2.636225	0.893177	0.000105
1533	1.5243e+02	-18.9588	-67.214273	0.000203	2.027865	0.687059	0.000081
1534	1.5253e+02	-18.9203	-67.141604	0.000183	1.825079	0.618353	0.000073
1535	1.5263e+02	-18.8834	-67.028565	0.000284	2.839011	0.961883	0.000114
1536	1.5273e+02	-18.8449	-66.972045	0.000142	1.419506	0.480942	0.000057
1537	1.5283e+02	-18.8032	-66.810559	0.000406	4.055730	1.374119	0.000162
1538	1.5293e+02	-18.7599	-66.762114	0.000122	1.216719	0.412236	0.000049
1539	1.5303e+02	-18.7054	-66.665222	0.000243	2.433438	0.824471	0.000097
1540	1.5313e+02	-18.6877	-66.588517	0.000193	1.926472	0.652706	0.000077
1541	1.5323e+02	-18.6364	-66.435106	0.000385	3.852944	1.305413	0.000154
1542	1.5333e+02	-18.6011	-66.374549	0.000152	1.520899	0.515294	0.000061
1543	1.5343e+02	-18.5610	-66.297843	0.000193	1.926472	0.652706	0.000077
1544	1.5353e+02	-18.5193	-66.229212	0.000172	1.723685	0.584000	0.000069
1545	1.5363e+02	-18.4792	-66.124246	0.000264	2.636225	0.893177	0.000105
1546	1.5373e+02	-18.4407	-66.011206	0.000284	2.839011	0.961883	0.000114
1547	1.5383e+02	-18.3973	-65.942575	0.000172	1.723685	0.584000	0.000069
1548	1.5393e+02	-18.3588	-65.841647	0.000253	2.534831	0.858824	0.000101
1549	1.5403e+02	-18.3219	-65.748793	0.000233	2.332045	0.790118	0.000093
1550	1.5413e+02	-18.2866	-65.659976	0.000223	2.230652	0.755765	0.000089
1551	1.5422e+02	-18.2401	-65.538862	0.000304	3.041798	1.030589	0.000122
1552	1.5432e+02	-18.2000	-65.490416	0.000122	1.216719	0.412236	0.000049
1553	1.5442e+02	-18.1647	-65.361228	0.000324	3.244584	1.099295	0.000130
1554	1.5452e+02	-18.1214	-65.248188	0.000284	2.839011	0.961883	0.000114
1555	1.5462e+02	-18.0829	-65.163408	0.000213	2.129258	0.721412	0.000085
1556	1.5472e+02	-18.0412	-65.131111	0.000081	0.811146	0.274824	0.000032
1557	1.5482e+02	-18.0011	-64.977700	0.000385	3.852944	1.305413	0.000154
1558	1.5492e+02	-17.9642	-64.884846	0.000233	2.332045	0.790118	0.000093
1559	1.5502e+02	-17.9193	-64.840437	0.000112	1.115326	0.377883	0.000045
1560	1.5512e+02	-17.8840	-64.719323	0.000304	3.041798	1.030589	0.000122
1561	1.5522e+02	-17.8407	-64.638580	0.000203	2.027865	0.687059	0.000081
1562	1.5532e+02	-17.7942	-64.485169	0.000385	3.852944	1.305413	0.000154
1563	1.5542e+02	-17.7669	-64.420575	0.000162	1.622292	0.549647	0.000065
1564	1.5552e+02	-17.7188	-64.291387	0.000324	3.244584	1.099295	0.000130
1565	1.5562e+02	-17.6835	-64.255052	0.000091	0.912539	0.309177	0.000037
1566	1.5572e+02	-17.6466	-64.146050	0.000274	2.737618	0.927530	0.000110
1567	1.5582e+02	-17.6032	-64.085493	0.000152	1.520899	0.515294	0.000061
1568	1.5592e+02	-17.5583	-63.932082	0.000385	3.852944	1.305413	0.000154
1569	1.5602e+02	-17.5166	-63.843265	0.000223	2.230652	0.755765	0.000089
1570	1.5612e+02	-17.4893	-63.758485	0.000213	2.129258	0.721412	0.000085
1571	1.5622e+02	-17.4396	-63.641408	0.000294	2.940404	0.996236	0.000118
1572	1.5631e+02	-17.3995	-63.556628	0.000213	2.129258	0.721412	0.000085
1573	1.5641e+02	-17.3642	-63.399180	0.000395	3.954337	1.339766	0.000158
1574	1.5651e+02	-17.3209	-63.350734	0.000122	1.216719	0.412236	0.000049
1575	1.5661e+02	-17.2840	-63.245768	0.000264	2.636225	0.893177	0.000105
1576	1.5671e+02	-17.2375	-63.160989	0.000213	2.129258	0.721412	0.000085
1577	1.5681e+02	-17.2006	-63.027763	0.000335	3.345977	1.133648	0.000134
1578	1.5691e+02	-17.1685	-62.979318	0.000122	1.216719	0.412236	0.000049
1579	1.5701e+02	-17.1300	-62.833981	0.000365	3.650157	1.236707	0.000146
1580	1.5711e+02	-17.0755	-62.733052	0.000253	2.534831	0.858824	0.000101
1581	1.5721e+02	-17.0434	-62.615975	0.000294	2.940404	0.996236	0.000118
1582	1.5731e+02	-17.0001	-62.579641	0.000091	0.912539	0.309177	0.000037
1583	1.5741e+02	-16.9599	-62.502935	0.000193	1.926472	0.652706	0.000077
1584	1.5751e+02	-16.9295	-62.353561	0.000375	3.751550	1.271060	0.000150
1585	1.5761e+02	-16.8846	-62.280893	0.000183	1.825079	0.618353	0.000073
1586	1.5771e+02	-16.8541	-62.163816	0.000294	2.940404	0.996236	0.000118
1587	1.5781e+02	-16.8011	-62.038665	0.000314	3.143191	1.064942	0.000126
1588	1.5791e+02	-16.7658	-62.002331	0.000091	0.912539	0.309177	0.000037
1589	1.5801e+02	-16.7257	-61.893328	0.000274	2.737618	0.927530	0.000110
1590	1.5811e+02	-16.6856	-61.780288	0.000284	2.839011	0.961883	0.000114
1591	1.5821e+02	-16.6343	-61.699545	0.000203	2.027865	0.687059	0.000081
1592	1.5830e+02	-16.6038	-61.610728	0.000223	2.230652	0.755765	0.000089
1593	1.5840e+02	-16.5701	-61.493652	0.000294	2.940404	0.996236	0.000118
1594	1.5850e+02	-16.5396	-61.420983	0.000183	1.825079	0.618353	0.000073
1595	1.5860e+02	-16.4835	-61.255461	0.000416	4.157123	1.408472	0.000166
1596	1.5870e+02	-16.4370	-61.239312	0.000041	0.405573	0.137412	0.000016
1597	1.5880e+02	-16.3985	-61.126272	0.000284	2.839011	0.961883	0.000114
1598	1.5890e+02	-16.3792	-61.009195	0.000294	2.940404	0.996236	0.000118
1599	1.5900e+02	-16.3295	-60.896155	0.000284	2.839011	0.961883	0.000114
1600	1.5910e+02	-16.2846	-60.787153	0.000274	2.737618	0.927530	0.000110
1601	1.5920e+02	-16.2477	-60.710447	0.000193	1.926472	0.652706	0.000077
1602	1.5930e+02	-16.2092	-60.613556	0.000243	2.433438	0.824471	0.000097
1603	1.5940e+02	-16.1691	-60.528776	0.000213	2.129258	0.721412	0.000085
1604	1.5950e+02	-16.1354	-60.399588	0.000324	3.244584	1.099295	0.000130
1605	1.5960e+02	-16.0744	-60.326919	0.000183	1.825079	0.618353	0.000073
1606	1.5970e+02	-16.0568	-60.217917	0.000274	2.737618	0.927530	0.000110
1607	1.5980e+02	-16.0102	-60.133137	0.000213	2.129258	0.721412	0.000085
1608	1.5990e+02	-15.9685	-60.048357	0.000213	2.129258	0.721412	0.000085
1609	1.6000e+02	-15.9236	-59.935317	0.000284	2.839011	0.961883	0.000114
1610	1.6010e+02	-15.8883	-59.858612	0.000193	1.926472	0.652706	0.000077
1611	1.6019e+02	-15.8610	-59.753646	0.000264	2.636225	0.893177	0.000105
1612	1.6029e+02	-15.8129	-59.608309	0.000365	3.650157	1.236707	0.000146
1613	1.6039e+02	-15.7664	-59.527566	0.000203	2.027865	0.687059	0.000081
1614	1.6049e+02	-15.7327	-59.382230	0.000365	3.650157	1.236707	0.000146
1615	1.6059e+02	-15.6926	-59.297450	0.000213	2.129258	0.721412	0.000085
1616	1.6069e+02	-15.6477	-59.212670	0.000213	2.129258	0.721412	0.000085
1617	1.6079e+02	-15.6044	-59.144039	0.000172	1.723685	0.584000	0.000069
1618	1.6089e+02	-15.5739	-59.018887	0.000314	3.143191	1.064942	0.000126
1619	1.6099e+02	-15.5434	-58.938145	0.000203	2.027865	0.687059	0.000081
1620	1.6109e+02	-15.4889	-58.849328	0.000223	2.230652	0.755765	0.000089
1621	1.6119e+02	-15.4488	-58.708028	0.000355	3.548764	1.202354	0.000142
1622	1.6129e+02	-15.4103	-58.651508	0.000142	1.419506	0.480942	0.000057
1623	1.6139e+02	-15.3702	-58.538468	0.000284	2.839011	0.961883	0.000114
1624	1.6149e+02	-15.3252	-58.397168	0.000355	3.548764	1.202354	0.000142
1625	1.6159e+02	-15.2996	-58.308351	0.000223	2.230652	0.755765	0.000089
1626	1.6169e+02	-15.2498	-58.243757	0.000162	1.622292	0.549647	0.000065
1627	1.6179e+02	-15.2049	-58.114569	0.000324	3.244584	1.099295	0.000130
1628	1.6189e+02	-15.1680	-58.001529	0.000284	2.839011	0.961883	0.000114
1629	1.6199e+02	-15.1359	-57.932898	0.000172	1.723685	0.584000	0.000069
1630	1.6209e+02	-15.0958	-57.836007	0.000243	2.433438	0.824471	0.000097
1631	1.6219e+02	-15.0493	-57.727004	0.000274	2.737618	0.927530	0.000110
1632	1.6228e+02	-15.0124	-57.666447	0.000152	1.520899	0.515294	0.000061
1633	1.6238e+02	-14.9755	-57.480739	0.000466	4.664090	1.580236	0.000187
1634	1.6248e+02	-14.9386	-57.432293	0.000122	1.216719	0.412236	0.000049
1635	1.6258e+02	-14.9017	-57.262733	0.000426	4.258517	1.442825	0.000170
1636	1.6268e+02	-14.8584	-57.222362	0.000101	1.013933	0.343530	0.000041
1637	1.6278e+02	-14.8247	-57.113359	0.000274	2.737618	0.927530	0.000110
1638	1.6288e+02	-14.7830	-56.996282	0.000294	2.940404	0.996236	0.000118
1639	1.6298e+02	-14.7285	-56.891317	0.000264	2.636225	0.893177	0.000105
1640	1.6308e+02	-14.6932	-56.834797	0.000142	1.419506	0.480942	0.000057
1641	1.6318e+02	-14.6450	-56.709646	0.000314	3.143191	1.064942	0.000126
1642	1.6328e+02	-14.6162	-56.584495	0.000314	3.143191	1.064942	0.000126
1643	1.6338e+02	-14.5680	-56.499715	0.000213	2.129258	0.721412	0.000085
1644	1.6348e+02	-14.5376	-56.406861	0.000233	2.332045	0.790118	0.000093
1645	1.6358e+02	-14.4926	-56.314006	0.000233	2.332045	0.790118	0.000093
1646	1.6368e+02	-14.4590	-56.196929	0.000294	2.940404	0.996236	0.000118
1647	1.6378e+02	-14.4092	-56.059667	0.000345	3.447371	1.168001	0.000138
1648	1.6388e+02	-14.3771	-55.978924	0.000203	2.027865	0.687059	0.000081
1649	1.6398e+02	-14.3274	-55.873959	0.000264	2.636225	0.893177	0.000105
1650	1.6408e+02	-14.2969	-55.809364	0.000162	1.622292	0.549647	0.000065
1651	1.6418e+02	-14.2488	-55.659990	0.000375	3.751550	1.271060	0.000150
1652	1.6427e+02	-14.2263	-55.555025	0.000264	2.636225	0.893177	0.000105
1653	1.6437e+02	-14.1766	-55.458134	0.000243	2.433438	0.824471	0.000097
1654	1.6447e+02	-14.1301	-55.357205	0.000253	2.534831	0.858824	0.000101
1655	1.6457e+02	-14.0948	-55.219943	0.000345	3.447371	1.168001	0.000138
1656	1.6467e+02	-14.0547	-55.159386	0.000152	1.520899	0.515294	0.000061
1657	1.6477e+02	-14.0178	-55.050383	0.000274	2.737618	0.927530	0.000110
1658	1.6487e+02	-13.9825	-54.921195	0.000324	3.244584	1.099295	0.000130
1659	1.6497e+02	-13.9392	-54.824303	0.000243	2.433438	0.824471	0.000097
1660	1.6507e+02	-13.8991	-54.751635	0.000183	1.825079	0.618353	0.000073
1661	1.6517e+02	-13.8622	-54.626484	0.000314	3.143191	1.064942	0.000126
1662	1.6527e+02	-13.8140	-54.501332	0.000314	3.143191	1.064942	0.000126
1663	1.6537e+02	-13.7739	-54.400404	0.000253	2.534831	0.858824	0.000101
1664	1.6547e+02	-13.7386	-54.311587	0.000223	2.230652	0.755765	0.000089
1665	1.6557e+02	-13.6953	-54.162213	0.000375	3.751550	1.271060	0.000150
1666	1.6567e+02	-13.6568	-54.077433	0.000213	2.129258	0.721412	0.000085
1667	1.6577e+02	-13.6199	-53.948245	0.000324	3.244584	1.099295	0.000130
1668	1.6587e+02	-13.5734	-53.871539	0.000193	1.926472	0.652706	0.000077
1669	1.6597e+02	-13.5445	-53.750425	0.000304	3.041798	1.030589	0.000122
1670	1.6607e+02	-13.5028	-53.649497	0.000253	2.534831	0.858824	0.000101
1671	1.6616e+02	-13.4547	-53.520308	0.000324	3.244584	1.099295	0.000130
1672	1.6626e+02	-13.4194	-53.411306	0.000274	2.737618	0.927530	0.000110
1673	1.6636e+02	-13.3809	-53.302303	0.000274	2.737618	0.927530	0.000110
1674	1.6646e+02	-13.3344	-53.185226	0.000294	2.940404	0.996236	0.000118
1675	1.6656e+02	-13.2975	-53.112558	0.000183	1.825079	0.618353	0.000073
1676	1.6666e+02	-13.2638	-52.983369	0.000324	3.244584	1.099295	0.000130
1677	1.6676e+02	-13.2205	-52.833995	0.000375	3.751550	1.271060	0.000150
1678	1.6686e+02	-13.1868	-52.769401	0.000162	1.622292	0.549647	0.000065
1679	1.6696e+02	-13.1515	-52.615990	0.000385	3.852944	1.305413	0.000154
1680	1.6706e+02	-13.1018	-52.563507	0.000132	1.318112	0.446589	0.000053
1681	1.6716e+02	-13.0552	-52.410096	0.000385	3.852944	1.305413	0.000154
1682	1.6726e+02	-13.0200	-52.321279	0.000223	2.230652	0.755765	0.000089
1683	1.6736e+02	-12.9766	-52.192091	0.000324	3.244584	1.099295	0.000130
1684	1.6746e+02	-12.9478	-52.070977	0.000304	3.041798	1.030589	0.000122
1685	1.6756e+02	-12.8996	-51.970048	0.000253	2.534831	0.858824	0.000101
1686	1.6766e+02	-12.8643	-51.877194	0.000233	2.332045	0.790118	0.000093
1687	1.6776e+02	-12.8210	-51.707635	0.000426	4.258517	1.442825	0.000170
1688	1.6786e+02	-12.7809	-51.675337	0.000081	0.811146	0.274824	0.000032
1689	1.6796e+02	-12.7376	-51.517889	0.000395	3.954337	1.339766	0.000158
1690	1.6806e+02	-12.7023	-51.441184	0.000193	1.926472	0.652706	0.000077
1691	1.6816e+02	-12.6606	-51.283735	0.000395	3.954337	1.339766	0.000158
1692	1.6825e+02	-12.6285	-51.154547	0.000324	3.244584	1.099295	0.000130
1693	1.6835e+02	-12.5916	-51.057656	0.000243	2.433438	0.824471	0.000097
1694	1.6845e+02	-12.5435	-50.968839	0.000223	2.230652	0.755765	0.000089
1695	1.6855e+02	-12.4986	-50.863873	0.000264	2.636225	0.893177	0.000105
1696	1.6865e+02	-12.4681	-50.722573	0.000355	3.548764	1.202354	0.000142
1697	1.6875e+02	-12.4232	-50.601459	0.000304	3.041798	1.030589	0.000122
1698	1.6885e+02	-12.3831	-50.452085	0.000375	3.751550	1.271060	0.000150
1699	1.6895e+02	-12.3446	-50.403640	0.000122	1.216719	0.412236	0.000049
1700	1.6905e+02	-12.3125	-50.266377	0.000345	3.447371	1.168001	0.000138
1701	1.6915e+02	-12.2660	-50.129114	0.000345	3.447371	1.168001	0.000138
1702	1.6925e+02	-12.2259	-50.040297	0.000223	2.230652	0.755765	0.000089
1703	1.6935e+02	-12.1809	-49.898998	0.000355	3.548764	1.202354	0.000142
1704	1.6945e+02	-12.1440	-49.798069	0.000253	2.534831	0.858824	0.000101
1705	1.6955e+02	-12.1055	-49.668881	0.000324	3.244584	1.099295	0.000130
1706	1.6965e+02	-12.0670	-49.576027	0.000233	2.332045	0.790118	0.000093
1707	1.6975e+02	-12.0334	-49.450876	0.000314	3.143191	1.064942	0.000126
1708	1.6985e+02	-11.9820	-49.289390	0.000406	4.055730	1.374119	0.000162
1709	1.6995e+02	-11.9467	-49.172313	0.000294	2.940404	0.996236	0.000118
1710	1.7005e+02	-11.9034	-49.115793	0.000142	1.419506	0.480942	0.000057
1711	1.7015e+02	-11.8601	-48.926048	0.000477	4.765483	1.614589	0.000191
1712	1.7024e+02	-11.8328	-48.857417	0.000172	1.723685	0.584000	0.000069
1713	1.7034e+02	-11.7815	-48.724191	0.000335	3.345977	1.133648	0.000134
1714	1.7044e+02	-11.7382	-48.582891	0.000355	3.548764	1.202354	0.000142
1715	1.7054e+02	-11.7109	-48.477926	0.000264	2.636225	0.893177	0.000105
1716	1.7064e+02	-11.6708	-48.352775	0.000314	3.143191	1.064942	0.000126
1717	1.7074e+02	-11.6307	-48.251846	0.000253	2.534831	0.858824	0.000101
1718	1.7084e+02	-11.5858	-48.114584	0.000345	3.447371	1.168001	0.000138
1719	1.7094e+02	-11.5553	-48.029804	0.000213	2.129258	0.721412	0.000085
1720	1.7104e+02	-11.5072	-47.896578	0.000335	3.345977	1.133648	0.000134
1721	1.7114e+02	-11.4590	-47.751242	0.000365	3.650157	1.236707	0.000146
1722	1.7124e+02	-11.4253	-47.618016	0.000335	3.345977	1.133648	0.000134
1723	1.7134e+02	-11.3981	-47.521125	0.000243	2.433438	0.824471	0.000097
1724	1.7144e+02	-11.3564	-47.416159	0.000264	2.636225	0.893177	0.000105
1725	1.7154e+02	-11.3098	-47.291008	0.000314	3.143191	1.064942	0.000126
1726	1.7164e+02	-11.2729	-47.169894	0.000304	3.041798	1.030589	0.000122
1727	1.7174e+02	-11.2344	-47.044743	0.000314	3.143191	1.064942	0.000126
1728	1.7184e+02	-11.1799	-46.972074	0.000183	1.825079	0.618353	0.000073
1729	1.7194e+02	-11.1494	-46.790403	0.000456	4.562696	1.545883	0.000183
1730	1.7204e+02	-11.1141	-46.673326	0.000294	2.940404	0.996236	0.000118
1731	1.7213e+02	-11.0676	-46.560286	0.000284	2.839011	0.961883	0.000114
1732	1.7223e+02	-11.0259	-46.447247	0.000284	2.839011	0.961883	0.000114
1733	1.7233e+02	-10.9842	-46.273650	0.000436	4.359910	1.477177	0.000174
1734	1.7243e+02	-10.9457	-46.209056	0.000162	1.622292	0.549647	0.000065
1735	1.7253e+02	-10.9040	-46.091979	0.000294	2.940404	0.996236	0.000118
1736	1.7263e+02	-10.8783	-45.978939	0.000284	2.839011	0.961883	0.000114
1737	1.7273e+02	-10.8254	-45.837639	0.000355	3.548764	1.202354	0.000142
1738	1.7283e+02	-10.7933	-45.676154	0.000406	4.055730	1.374119	0.000162
1739	1.7293e+02	-10.7468	-45.567151	0.000274	2.737618	0.927530	0.000110
1740	1.7303e+02	-10.7115	-45.417777	0.000375	3.751550	1.271060	0.000150
1741	1.7313e+02	-10.6714	-45.349146	0.000172	1.723685	0.584000	0.000069
1742	1.7323e+02	-10.6296	-45.183623	0.000416	4.157123	1.408472	0.000166
1743	1.7333e+02	-10.5976	-45.127103	0.000142	1.419506	0.480942	0.000057
1744	1.7343e+02	-10.5575	-44.977729	0.000375	3.751550	1.271060	0.000150
1745	1.7353e+02	-10.5093	-44.872764	0.000264	2.636225	0.893177	0.000105
1746	1.7363e+02	-10.4676	-44.711278	0.000406	4.055730	1.374119	0.000162
1747	1.7373e+02	-10.4420	-44.618424	0.000233	2.332045	0.790118	0.000093
1748	1.7383e+02	-10.3906	-44.469050	0.000375	3.751550	1.271060	0.000150
1749	1.7393e+02	-10.3473	-44.327750	0.000355	3.548764	1.202354	0.000142
1750	1.7403e+02	-10.3088	-44.238933	0.000223	2.230652	0.755765	0.000089
1751	1.7413e+02	-10.2815	-44.113782	0.000314	3.143191	1.064942	0.000126
1752	1.7422e+02	-10.2254	-44.029002	0.000213	2.129258	0.721412	0.000085
1753	1.7432e+02	-10.1965	-43.879628	0.000375	3.751550	1.271060	0.000150
1754	1.7442e+02	-10.1500	-43.754477	0.000314	3.143191	1.064942	0.000126
1755	1.7452e+02	-10.1067	-43.649512	0.000264	2.636225	0.893177	0.000105
1756	1.7462e+02	-10.0746	-43.508212	0.000355	3.548764	1.202354	0.000142
1757	1.7472e+02	-10.0281	-43.419395	0.000223	2.230652	0.755765	0.000089
1758	1.7482e+02	-9.9863	-43.322504	0.000243	2.433438	0.824471	0.000097
1759	1.7492e+02	-9.9623	-43.181204	0.000355	3.548764	1.202354	0.000142
1760	1.7502e+02	-9.9142	-43.019718	0.000406	4.055730	1.374119	0.000162
1761	1.7512e+02	-9.8676	-42.922827	0.000243	2.433438	0.824471	0.000097
1762	1.7522e+02	-9.8259	-42.789602	0.000335	3.345977	1.133648	0.000134
1763	1.7532e+02	-9.7987	-42.664450	0.000314	3.143191	1.064942	0.000126
1764	1.7542e+02	-9.7569	-42.563522	0.000253	2.534831	0.858824	0.000101
1765	1.7552e+02	-9.7136	-42.470668	0.000233	2.332045	0.790118	0.000093
1766	1.7562e+02	-9.6671	-42.317257	0.000385	3.852944	1.305413	0.000154
1767	1.7572e+02	-9.6318	-42.200180	0.000294	2.940404	0.996236	0.000118
1768	1.7582e+02	-9.6061	-42.070992	0.000324	3.244584	1.099295	0.000130
1769	1.7592e+02	-9.5564	-41.982175	0.000223	2.230652	0.755765	0.000089
1770	1.7602e+02	-9.5051	-41.816652	0.000416	4.157123	1.408472	0.000166
1771	1.7612e+02	-9.4794	-41.715724	0.000253	2.534831	0.858824	0.000101
1772	1.7621e+02	-9.4377	-41.598647	0.000294	2.940404	0.996236	0.000118
1773	1.7631e+02	-9.3944	-41.493681	0.000264	2.636225	0.893177	0.000105
1774	1.7641e+02	-9.3559	-41.352381	0.000355	3.548764	1.202354	0.000142
1775	1.7651e+02	-9.3222	-41.223193	0.000324	3.244584	1.099295	0.000130
1776	1.7661e+02	-9.2660	-41.110153	0.000284	2.839011	0.961883	0.000114
1777	1.7671e+02	-9.2548	-41.021336	0.000223	2.230652	0.755765	0.000089
1778	1.7681e+02	-9.1826	-40.843702	0.000446	4.461303	1.511530	0.000179
1779	1.7691e+02	-9.1538	-40.742774	0.000253	2.534831	0.858824	0.000101
1780	1.7701e+02	-9.1249	-40.633771	0.000274	2.737618	0.927530	0.000110
1781	1.7711e+02	-9.0751	-40.488434	0.000365	3.650157	1.236707	0.000146
1782	1.7721e+02	-9.0431	-40.391543	0.000243	2.433438	0.824471	0.000097
1783	1.7731e+02	-8.9981	-40.250243	0.000355	3.548764	1.202354	0.000142
1784	1.7741e+02	-8.9596	-40.133166	0.000294	2.940404	0.996236	0.000118
1785	1.7751e+02	-8.9131	-39.999941	0.000335	3.345977	1.133648	0.000134
1786	1.7761e+02	-8.8778	-39.862678	0.000345	3.447371	1.168001	0.000138
1787	1.7771e+02	-8.8345	-39.733490	0.000324	3.244584	1.099295	0.000130
1788	1.7781e+02	-8.7928	-39.652747	0.000203	2.027865	0.687059	0.000081
1789	1.7791e+02	-8.7543	-39.495299	0.000395	3.954337	1.339766	0.000158
1790	1.7801e+02	-8.7174	-39.378222	0.000294	2.940404	0.996236	0.000118
1791	1.7810e+02	-8.6837	-39.269219	0.000274	2.737618	0.927530	0.000110
1792	1.7820e+02	-8.6372	-39.172328	0.000243	2.433438	0.824471	0.000097
1793	1.7830e+02	-8.5955	-39.018917	0.000385	3.852944	1.305413	0.000154
1794	1.7840e+02	-8.5522	-38.934137	0.000213	2.129258	0.721412	0.000085
1795	1.7850e+02	-8.5153	-38.768614	0.000416	4.157123	1.408472	0.000166
1796	1.7860e+02	-8.4768	-38.635389	0.000335	3.345977	1.133648	0.000134
1797	1.7870e+02	-8.4367	-38.530423	0.000264	2.636225	0.893177	0.000105
1798	1.7880e+02	-8.3966	-38.405272	0.000314	3.143191	1.064942	0.000126
1799	1.7890e+02	-8.3597	-38.272047	0.000335	3.345977	1.133648	0.000134
1800	1.7900e+02	-8.3196	-38.171118	0.000253	2.534831	0.858824	0.000101
1801	1.7910e+02	-8.2762	-38.017707	0.000385	3.852944	1.305413	0.000154
1802	1.7920e+02	-8.2377	-37.880445	0.000345	3.447371	1.168001	0.000138
1803	1.7930e+02	-8.1912	-37.787591	0.000233	2.332045	0.790118	0.000093
1804	1.7940e+02	-8.1639	-37.630142	0.000395	3.954337	1.339766	0.000158
1805	1.7950e+02	-8.1319	-37.525177	0.000264	2.636225	0.893177	0.000105
1806	1.7960e+02	-8.0725	-37.391951	0.000335	3.345977	1.133648	0.000134
1807	1.7970e+02	-8.0388	-37.278911	0.000284	2.839011	0.961883	0.000114
1808	1.7980e+02	-7.9939	-37.117426	0.000406	4.055730	1.374119	0.000162
1809	1.7990e+02	-7.9618	-37.020535	0.000243	2.433438	0.824471	0.000097
1810	1.8000e+02	-7.9137	-36.891346	0.000324	3.244584	1.099295	0.000130
1811	1.8009e+02	-7.8864	-36.782344	0.000274	2.737618	0.927530	0.000110
1812	1.8019e+02	-7.8287	-36.641044	0.000355	3.548764	1.202354	0.000142
1813	1.8029e+02	-7.8062	-36.511856	0.000324	3.244584	1.099295	0.000130
1814	1.8039e+02	-7.7517	-36.378630	0.000335	3.345977	1.133648	0.000134
1815	1.8049e+02	-7.7212	-36.257516	0.000304	3.041798	1.030589	0.000122
1816	1.8059e+02	-7.6923	-36.164662	0.000233	2.332045	0.790118	0.000093
1817	1.8069e+02	-7.6474	-36.007214	0.000395	3.954337	1.339766	0.000158
1818	1.8079e+02	-7.6009	-35.886100	0.000304	3.041798	1.030589	0.000122
1819	1.8089e+02	-7.5640	-35.740763	0.000365	3.650157	1.236707	0.000146
1820	1.8099e+02	-7.5287	-35.627723	0.000284	2.839011	0.961883	0.000114
1821	1.8109e+02	-7.4773	-35.498535	0.000324	3.244584	1.099295	0.000130
1822	1.8119e+02	-7.4452	-35.369346	0.000324	3.244584	1.099295	0.000130
1823	1.8129e+02	-7.4051	-35.228046	0.000355	3.548764	1.202354	0.000142
1824	1.8139e+02	-7.3650	-35.135192	0.000233	2.332045	0.790118	0.000093
1825	1.8149e+02	-7.3249	-35.010041	0.000314	3.143191	1.064942	0.000126
1826	1.8159e+02	-7.2848	-34.876816	0.000335	3.345977	1.133648	0.000134
1827	1.8169e+02	-7.2367	-34.739553	0.000345	3.447371	1.168001	0.000138
1828	1.8179e+02	-7.1982	-34.561919	0.000446	4.461303	1.511530	0.000179
1829	1.8189e+02	-7.1693	-34.465028	0.000243	2.433438	0.824471	0.000097
1830	1.8199e+02	-7.1276	-34.311617	0.000385	3.852944	1.305413	0.000154
1831	1.8209e+02	-7.0763	-34.202614	0.000274	2.737618	0.927530	0.000110
1832	1.8218e+02	-7.0474	-34.081500	0.000304	3.041798	1.030589	0.000122
1833	1.8228e+02	-7.0041	-33.968460	0.000284	2.839011	0.961883	0.000114
1834	1.8238e+02	-6.9640	-33.782752	0.000466	4.664090	1.580236	0.000187
1835	1.8248e+02	-6.9319	-33.669712	0.000284	2.839011	0.961883	0.000114
1836	1.8258e+02	-6.8822	-33.540524	0.000324	3.244584	1.099295	0.000130
1837	1.8268e+02	-6.8404	-33.391150	0.000375	3.751550	1.271060	0.000150
1838	1.8278e+02	-6.7955	-33.298296	0.000233	2.332045	0.790118	0.000093
1839	1.8288e+02	-6.7618	-33.156996	0.000355	3.548764	1.202354	0.000142
1840	1.8298e+02	-6.7249	-33.003585	0.000385	3.852944	1.305413	0.000154
1841	1.8308e+02	-6.6880	-32.886508	0.000294	2.940404	0.996236	0.000118
1842	1.8318e+02	-6.6415	-32.741171	0.000365	3.650157	1.236707	0.000146
1843	1.8328e+02	-6.5998	-32.595834	0.000365	3.650157	1.236707	0.000146
1844	1.8338e+02	-6.5677	-32.466646	0.000324	3.244584	1.099295	0.000130
1845	1.8348e+02	-6.5276	-32.349569	0.000294	2.940404	0.996236	0.000118
1846	1.8358e+02	-6.4907	-32.196158	0.000385	3.852944	1.305413	0.000154
1847	1.8368e+02	-6.4522	-32.075043	0.000304	3.041798	1.030589	0.000122
1848	1.8378e+02	-6.4041	-31.949892	0.000314	3.143191	1.064942	0.000126
1849	1.8388e+02	-6.3704	-31.844927	0.000264	2.636225	0.893177	0.000105
1850	1.8398e+02	-6.3335	-31.639033	0.000517	5.171056	1.752001	0.000207
1851	1.8407e+02	-6.2886	-31.562327	0.000193	1.926472	0.652706	0.000077
1852	1.8417e+02	-6.2533	-31.376619	0.000466	4.664090	1.580236	0.000187
1853	1.8427e+02	-6.2068	-31.251468	0.000314	3.143191	1.064942	0.000126
1854	1.8437e+02	-6.1667	-31.098057	0.000385	3.852944	1.305413	0.000154
1855	1.8447e+02	-6.1282	-30.980980	0.000294	2.940404	0.996236	0.000118
1856	1.8457e+02	-6.0897	-30.855828	0.000314	3.143191	1.064942	0.000126
1857	1.8467e+02	-6.0415	-30.706454	0.000375	3.751550	1.271060	0.000150
1858	1.8477e+02	-6.0191	-30.553043	0.000385	3.852944	1.305413	0.000154
1859	1.8487e+02	-5.9694	-30.444041	0.000274	2.737618	0.927530	0.000110
1860	1.8497e+02	-5.9244	-30.270444	0.000436	4.359910	1.477177	0.000174
1861	1.8507e+02	-5.8907	-30.173553	0.000243	2.433438	0.824471	0.000097
1862	1.8517e+02	-5.8522	-30.060513	0.000284	2.839011	0.961883	0.000114
1863	1.8527e+02	-5.8137	-29.903064	0.000395	3.954337	1.339766	0.000158
1864	1.8537e+02	-5.7704	-29.717356	0.000466	4.664090	1.580236	0.000187
1865	1.8547e+02	-5.7335	-29.612391	0.000264	2.636225	0.893177	0.000105
1866	1.8557e+02	-5.6998	-29.454942	0.000395	3.954337	1.339766	0.000158
1867	1.8567e+02	-5.6517	-29.313643	0.000355	3.548764	1.202354	0.000142
1868	1.8577e+02	-5.6100	-29.164269	0.000375	3.751550	1.271060	0.000150
1869	1.8587e+02	-5.5795	-29.047192	0.000294	2.940404	0.996236	0.000118
1870	1.8597e+02	-5.5394	-28.913966	0.000335	3.345977	1.133648	0.000134
1871	1.8606e+02	-5.4945	-28.772666	0.000355	3.548764	1.202354	0.000142
1872	1.8616e+02	-5.4496	-28.590995	0.000456	4.562696	1.545883	0.000183
1873	1.8626e+02	-5.4127	-28.441621	0.000375	3.751550	1.271060	0.000150
1874	1.8636e+02	-5.3646	-28.308396	0.000335	3.345977	1.133648	0.000134
1875	1.8646e+02	-5.3309	-28.171133	0.000345	3.447371	1.168001	0.000138
1876	1.8656e+02	-5.2892	-28.058093	0.000284	2.839011	0.961883	0.000114
1877	1.8666e+02	-5.2490	-27.912756	0.000365	3.650157	1.236707	0.000146
1878	1.8676e+02	-5.2105	-27.763382	0.000375	3.751550	1.271060	0.000150
1879	1.8686e+02	-5.1785	-27.601897	0.000406	4.055730	1.374119	0.000162
1880	1.8696e+02	-5.1303	-27.460597	0.000355	3.548764	1.202354	0.000142
1881	1.8706e+02	-5.0950	-27.343520	0.000294	2.940404	0.996236	0.000118
1882	1.8716e+02	-5.0581	-27.173961	0.000426	4.258517	1.442825	0.000170
1883	1.8726e+02	-5.0261	-27.020549	0.000385	3.852944	1.305413	0.000154
1884	1.8736e+02	-4.9811	-26.899435	0.000304	3.041798	1.030589	0.000122
1885	1.8746e+02	-4.9282	-26.758136	0.000355	3.548764	1.202354	0.000142
1886	1.8756e+02	-4.8977	-26.608762	0.000375	3.751550	1.271060	0.000150
1887	1.8766e+02	-4.8432	-26.451313	0.000395	3.954337	1.339766	0.000158
1888	1.8776e+02	-4.8191	-26.326162	0.000314	3.143191	1.064942	0.000126
1889	1.8786e+02	-4.7646	-26.164677	0.000406	4.055730	1.374119	0.000162
1890	1.8796e+02	-4.7405	-26.023377	0.000355	3.548764	1.202354	0.000142
1891	1.8806e+02	-4.7052	-25.914374	0.000274	2.737618	0.927530	0.000110
1892	1.8815e+02	-4.6587	-25.736740	0.000446	4.461303	1.511530	0.000179
1893	1.8825e+02	-4.6122	-25.567181	0.000426	4.258517	1.442825	0.000170
1894	1.8835e+02	-4.5801	-25.474327	0.000233	2.332045	0.790118	0.000093
1895	1.8845e+02	-4.5352	-25.316878	0.000395	3.954337	1.339766	0.000158
1896	1.8855e+02	-4.4983	-25.147319	0.000426	4.258517	1.442825	0.000170
1897	1.8865e+02	-4.4678	-24.993907	0.000385	3.852944	1.305413	0.000154
1898	1.8875e+02	-4.4132	-24.836459	0.000395	3.954337	1.339766	0.000158
1899	1.8885e+02	-4.3796	-24.715345	0.000304	3.041798	1.030589	0.000122
1900	1.8895e+02	-4.3314	-24.598268	0.000294	2.940404	0.996236	0.000118
1901	1.8905e+02	-4.2961	-24.444857	0.000385	3.852944	1.305413	0.000154
1902	1.8915e+02	-4.2608	-24.295483	0.000375	3.751550	1.271060	0.000150
1903	1.8925e+02	-4.2191	-24.174369	0.000304	3.041798	1.030589	0.000122
1904	1.8935e+02	-4.1758	-23.964438	0.000527	5.272449	1.786354	0.000211
1905	1.8945e+02	-4.1325	-23.851398	0.000284	2.839011	0.961883	0.000114
1906	1.8955e+02	-4.1004	-23.673764	0.000446	4.461303	1.511530	0.000179
1907	1.8965e+02	-4.0539	-23.552650	0.000304	3.041798	1.030589	0.000122
1908	1.8975e+02	-4.0218	-23.366942	0.000466	4.664090	1.580236	0.000187
1909	1.8985e+02	-3.9817	-23.270050	0.000243	2.433438	0.824471	0.000097
1910	1.8995e+02	-3.9400	-23.124714	0.000365	3.650157	1.236707	0.000146
1911	1.9004e+02	-3.8935	-22.951117	0.000436	4.359910	1.477177	0.000174
1912	1.9014e+02	-3.8534	-22.769446	0.000456	4.562696	1.545883	0.000183
1913	1.9024e+02	-3.8309	-22.620072	0.000375	3.751550	1.271060	0.000150
1914	1.9034e+02	-3.7844	-22.515106	0.000264	2.636225	0.893177	0.000105
1915	1.9044e+02	-3.7443	-22.329398	0.000466	4.664090	1.580236	0.000187
1916	1.9054e+02	-3.6962	-22.196172	0.000335	3.345977	1.133648	0.000134
1917	1.9064e+02	-3.6560	-22.115430	0.000203	2.027865	0.687059	0.000081
1918	1.9074e+02	-3.6159	-21.978167	0.000345	3.447371	1.168001	0.000138
1919	1.9084e+02	-3.5855	-21.800533	0.000446	4.461303	1.511530	0.000179
1920	1.9094e+02	-3.5438	-21.635010	0.000416	4.157123	1.408472	0.000166
1921	1.9104e+02	-3.4988	-21.517933	0.000294	2.940404	0.996236	0.000118
1922	1.9114e+02	-3.4587	-21.372597	0.000365	3.650157	1.236707	0.000146
1923	1.9124e+02	-3.4218	-21.219185	0.000385	3.852944	1.305413	0.000154
1924	1.9134e+02	-3.3865	-21.077886	0.000355	3.548764	1.202354	0.000142
1925	1.9144e+02	-3.3432	-20.904289	0.000436	4.359910	1.477177	0.000174
1926	1.9154e+02	-3.3031	-20.795286	0.000274	2.737618	0.927530	0.000110
1927	1.9164e+02	-3.2726	-20.621689	0.000436	4.359910	1.477177	0.000174
1928	1.9174e+02	-3.2213	-20.480390	0.000355	3.548764	1.202354	0.000142
1929	1.9184e+02	-3.1860	-20.347164	0.000335	3.345977	1.133648	0.000134
1930	1.9194e+02	-3.1411	-20.197790	0.000375	3.751550	1.271060	0.000150
1931	1.9203e+02	-3.1106	-20.048416	0.000375	3.751550	1.271060	0.000150
1932	1.9213e+02	-3.0625	-19.882894	0.000416	4.157123	1.408472	0.000166
1933	1.9223e+02	-3.0304	-19.745631	0.000345	3.447371	1.168001	0.000138
1934	1.9233e+02	-2.9807	-19.628554	0.000294	2.940404	0.996236	0.000118
1935	1.9243e+02	-2.9502	-19.458994	0.000426	4.258517	1.442825	0.000170
1936	1.9253e+02	-2.9037	-19.313657	0.000365	3.650157	1.236707	0.000146
1937	1.9263e+02	-2.8684	-19.172358	0.000355	3.548764	1.202354	0.000142
1938	1.9273e+02	-2.8186	-19.014909	0.000395	3.954337	1.339766	0.000158
1939	1.9283e+02	-2.7914	-18.869572	0.000365	3.650157	1.236707	0.000146
1940	1.9293e+02	-2.7481	-18.708087	0.000406	4.055730	1.374119	0.000162
1941	1.9303e+02	-2.7047	-18.582936	0.000314	3.143191	1.064942	0.000126
1942	1.9313e+02	-2.6662	-18.385116	0.000497	4.968270	1.683295	0.000199
1943	1.9323e+02	-2.6229	-18.288225	0.000243	2.433438	0.824471	0.000097
1944	1.9333e+02	-2.5844	-18.146925	0.000355	3.548764	1.202354	0.000142
1945	1.9343e+02	-2.5491	-17.989477	0.000395	3.954337	1.339766	0.000158
1946	1.9353e+02	-2.5010	-17.840103	0.000375	3.751550	1.271060	0.000150
1947	1.9363e+02	-2.4737	-17.662469	0.000446	4.461303	1.511530	0.000179
1948	1.9373e+02	-2.4224	-17.545392	0.000294	2.940404	0.996236	0.000118
1949	1.9383e+02	-2.3855	-17.379869	0.000416	4.157123	1.408472	0.000166
1950	1.9393e+02	-2.3486	-17.266830	0.000284	2.839011	0.961883	0.000114
1951	1.9403e+02	-2.2989	-17.101307	0.000416	4.157123	1.408472	0.000166
1952	1.9412e+02	-2.2620	-16.883302	0.000548	5.475236	1.855060	0.000219
1953	1.9422e+02	-2.2203	-16.822745	0.000152	1.520899	0.515294	0.000061
1954	1.9432e+02	-2.1946	-16.649148	0.000436	4.359910	1.477177	0.000174
1955	1.9442e+02	-2.1400	-16.475551	0.000436	4.359910	1.477177	0.000174
1956	1.9452e+02	-2.0951	-16.354437	0.000304	3.041798	1.030589	0.000122
1957	1.9462e+02	-2.0727	-16.201026	0.000385	3.852944	1.305413	0.000154
1958	1.9472e+02	-2.0181	-16.087986	0.000284	2.839011	0.961883	0.000114
1959	1.9482e+02	-1.9860	-15.882092	0.000517	5.171056	1.752001	0.000207
1960	1.9492e+02	-1.9395	-15.752904	0.000324	3.244584	1.099295	0.000130
1961	1.9502e+02	-1.9122	-15.643901	0.000274	2.737618	0.927530	0.000110
1962	1.9512e+02	-1.8705	-15.494527	0.000375	3.751550	1.271060	0.000150
1963	1.9522e+02	-1.8272	-15.320930	0.000436	4.359910	1.477177	0.000174
1964	1.9532e+02	-1.7807	-15.159445	0.000406	4.055730	1.374119	0.000162
1965	1.9542e+02	-1.7422	-15.030256	0.000324	3.244584	1.099295	0.000130
1966	1.9552e+02	-1.7117	-14.880882	0.000375	3.751550	1.271060	0.000150
1967	1.9562e+02	-1.6684	-14.747657	0.000335	3.345977	1.133648	0.000134
1968	1.9572e+02	-1.6219	-14.586171	0.000406	4.055730	1.374119	0.000162
1969	1.9582e+02	-1.5914	-14.436797	0.000375	3.751550	1.271060	0.000150
1970	1.9592e+02	-1.5417	-14.295498	0.000355	3.548764	1.202354	0.000142
1971	1.9601e+02	-1.5128	-14.109789	0.000466	4.664090	1.580236	0.000187
1972	1.9611e+02	-1.4647	-13.976564	0.000335	3.345977	1.133648	0.000134
1973	1.9621e+02	-1.4214	-13.819116	0.000395	3.954337	1.339766	0.000158
1974	1.9631e+02	-1.3877	-13.669742	0.000375	3.751550	1.271060	0.000150
1975	1.9641e+02	-1.3556	-13.572850	0.000243	2.433438	0.824471	0.000097
1976	1.9651e+02	-1.3058	-13.379068	0.000487	4.866876	1.648942	0.000195
1977	1.9661e+02	-1.2706	-13.217582	0.000406	4.055730	1.374119	0.000162
1978	1.9671e+02	-1.2304	-13.060134	0.000395	3.954337	1.339766	0.000158
1979	1.9681e+02	-1.1919	-12.943057	0.000294	2.940404	0.996236	0.000118
1980	1.9691e+02	-1.1502	-12.785609	0.000395	3.954337	1.339766	0.000158
1981	1.9701e+02	-1.1021	-12.624123	0.000406	4.055730	1.374119	0.000162
1982	1.9711e+02	-1.0684	-12.470712	0.000385	3.852944	1.305413	0.000154
1983	1.9721e+02	-1.0347	-12.345561	0.000314	3.143191	1.064942	0.000126
1984	1.9731e+02	-0.9834	-12.171964	0.000436	4.359910	1.477177	0.000174
1985	1.9741e+02	-0.9641	-12.050850	0.000304	3.041798	1.030589	0.000122
1986	1.9751e+02	-0.9128	-11.885328	0.000416	4.157123	1.408472	0.000166
1987	1.9761e+02	-0.8711	-11.707694	0.000446	4.461303	1.511530	0.000179
1988	1.9771e+02	-0.8310	-11.590617	0.000294	2.940404	0.996236	0.000118
1989	1.9781e+02	-0.7925	-11.437206	0.000385	3.852944	1.305413	0.000154
1990	1.9791e+02	-0.7540	-11.275720	0.000406	4.055730	1.374119	0.000162
1991	1.9800e+02	-0.7075	-11.090012	0.000466	4.664090	1.580236	0.000187
1992	1.9810e+02	-0.6658	-10.968898	0.000304	3.041798	1.030589	0.000122
1993	1.9820e+02	-0.6289	-10.775115	0.000487	4.866876	1.648942	0.000195
1994	1.9830e+02	-0.5920	-10.649964	0.000314	3.143191	1.064942	0.000126
1995	1.9840e+02	-0.5551	-10.484442	0.000416	4.157123	1.408472	0.000166
1996	1.9850e+02	-0.5246	-10.403699	0.000203	2.027865	0.687059	0.000081
1997	1.9860e+02	-0.4749	-10.197805	0.000517	5.171056	1.752001	0.000207
1998	1.9870e+02	-0.4331	-10.044394	0.000385	3.852944	1.305413	0.000154
1999	1.9880e+02	-0.3914	-9.886945	0.000395	3.954337	1.339766	0.000158
2000	1.9890e+02	-0.3465	-9.753720	0.000335	3.345977	1.133648	0.000134
2001	1.9900e+02	-0.3192	-9.568012	0.000466	4.664090	1.580236	0.000187
2002	1.9910e+02	-0.2711	-9.370192	0.000497	4.968270	1.683295	0.000199
2003	1.9920e+02	-0.2246	-9.261189	0.000274	2.737618	0.927530	0.000110
2004	1.9930e+02	-0.1925	-9.099704	0.000406	4.055730	1.374119	0.000162
2005	1.9940e+02	-0.1524	-8.946293	0.000385	3.852944	1.305413	0.000154
2006	1.9950e+02	-0.1219	-8.792882	0.000385	3.852944	1.305413	0.000154
2007	1.9960e+02	-0.0722	-8.663693	0.000324	3.244584	1.099295	0.000130
2008	1.9970e+02	-0.0321	-8.469911	0.000487	4.866876	1.648942	0.000195
2009	1.9980e+02	0.0048	-8.332648	0.000487	4.866876	1.648942	0.000138

PMax (uC/cm2):	7.56e+01
Pr (uC/cm2):	4.67e+00
-Pr (uC/cm2):	-1.81e+00
PLoss (uC/cm2):	-1.78e+00
-Vc:	-1.23e+00
C (Max-Eff) (nF):	3.78e-01
K (Eff):	1.28e+03
Vert. (+/-Pr) Shift (uC/cm2):	1.43e+00
Offset (uC/cm2):	6.52e+00

A (Loop Area - uC/cm2·Volts):	9.07e-03



Hysteresis Version: 5.48.1 - Radiant Technologies, Inc., 1999 - 9/12/24

