»»»»»»»»»»»»»»»»»»»»»»»»»»»»»»»»»»»» Hysteresis ««««««««««««««««««««««««««««««««««««
»»»  Executed Version:	5.48.1
»»»  Vision Version:	5.48.4 (R)
»»»  Vision Compiled:	9/18/24
»»»  Driver Version:	5.47.0
»»»  Windows Version:	Windows 8 or 8.1
»»»  Processor Information:	x86 (AMD or Intel) - 32 Processors
»»»  Tester Name:	PMF21124-494 (100V)
»»»  Tester S/N:	PMF21124-494
»»»  Internal Amp Type:	100V RevK 270k
»»»  Internal Amp S/N:	iAB2-596/K     
»»»  Execution Count:	1
»»»»»»»»»»»»»»»»»»»»»»»»»»»»»»»»»»»»»»»»»»««««««««««««««««««««««««««««««««««««««««««

Stored:	6/19/2025 - 19:54:46
Configured:	06/19/25 10:04:32 AM
Executed:	06/19/25 07:54:14 PM

»»»»»»»»»»»»»»»»»»»»»»»»»»»»»»»»»»» Sample Info ««««««««««««««««««««««««««««««««««««
Sample Name:	
Lot Name:	
Wafer Name:	
Die Row/Column:	0/0
Capacitor Number:	0
Sample Area (cm2):	1.00e-04
Sample Thickness (microns):	3.00e-01

Amplifier:	Internal

»»»»»»»»»»»»»»»»»»»»»»»»»»»»»»»»»»» Tester Info «««««««««««««««««««««««««««««««««««
Tester Name:	PMF21124-494 (100V)
Tester Serial Number:	PMF21124-494
Return Signal Amp. Level:	0.19 [Index: 3]

»»»»»»»»»»»»»»»»»»»»»»»»»»»»»»»» Hysteresis Info ««««««««««««««««««««««««««««««««««
Task Name:	Hyst-1168
Volts:	20.00
Field:	666.67 (kV/cm)
DCBias:	0.00
DCField:	0.00 (kV/cm)
Hysteresis Period (ms):	2.00e+02
Preset:	Enabled
Preset Delay (ms):	1.00e+03
Profile:	Standard Bipolar

»»»»»»»»»»»»»»»»»»»»»»»»»»»»»»»»»»»»»» Data «««««««««««««««««««««««««««««««««««««««
Points:	2009

Valid Data

Point	Time (ms)	Drive Voltage	Measured Polarization (uC/cm2)	Capacitance (uF)	Normalized Capacitance (uF/cm2)	Dielectric Constant	Instantaneous Current (mA)
   1	0.0000e+00	0.0064	-8.391187	0.000253	2.534272	0.858635	0.000101
   2	9.9500e-02	0.0305	-8.290258	0.000253	2.534272	0.858635	0.000101
   3	1.9900e-01	0.0754	-8.108587	0.000456	4.561690	1.545542	0.000183
   4	2.9850e-01	0.1219	-7.987473	0.000304	3.041126	1.030362	0.000122
   5	3.9800e-01	0.1604	-7.809839	0.000446	4.460319	1.511197	0.000179
   6	4.9750e-01	0.1973	-7.676614	0.000335	3.345239	1.133398	0.000134
   7	5.9700e-01	0.2438	-7.498980	0.000446	4.460319	1.511197	0.000179
   8	6.9650e-01	0.2711	-7.381903	0.000294	2.939756	0.996016	0.000118
   9	7.9600e-01	0.3144	-7.204269	0.000446	4.460319	1.511197	0.000179
  10	8.9550e-01	0.3529	-7.042783	0.000405	4.054835	1.373815	0.000162
  11	9.9500e-01	0.4011	-6.885335	0.000395	3.953464	1.339470	0.000158
  12	1.0945e+00	0.4347	-6.748072	0.000345	3.446610	1.167743	0.000138
  13	1.1940e+00	0.4813	-6.574476	0.000436	4.358948	1.476852	0.000174
  14	1.2935e+00	0.5085	-6.517956	0.000142	1.419192	0.480835	0.000057
  15	1.3930e+00	0.5583	-6.344359	0.000436	4.358948	1.476852	0.000174
  16	1.4925e+00	0.6016	-6.215170	0.000324	3.243868	1.099052	0.000130
  17	1.5920e+00	0.6369	-6.045611	0.000426	4.257577	1.442506	0.000170
  18	1.6915e+00	0.6850	-5.920460	0.000314	3.142497	1.064707	0.000126
  19	1.7910e+00	0.7123	-5.787234	0.000335	3.345239	1.133398	0.000134
  20	1.8905e+00	0.7540	-5.597489	0.000476	4.764431	1.614233	0.000191
  21	1.9900e+00	0.7845	-5.460226	0.000345	3.446610	1.167743	0.000138
  22	2.0895e+00	0.8342	-5.302778	0.000395	3.953464	1.339470	0.000158
  23	2.1890e+00	0.8727	-5.161478	0.000355	3.547981	1.202088	0.000142
  24	2.2885e+00	0.9032	-5.044401	0.000294	2.939756	0.996016	0.000118
  25	2.3880e+00	0.9481	-4.890990	0.000385	3.852093	1.305125	0.000154
  26	2.4875e+00	0.9898	-4.705282	0.000466	4.663061	1.579888	0.000187
  27	2.5870e+00	1.0411	-4.547833	0.000395	3.953464	1.339470	0.000158
  28	2.6865e+00	1.0716	-4.358088	0.000476	4.764431	1.614233	0.000191
  29	2.7860e+00	1.1117	-4.220825	0.000345	3.446610	1.167743	0.000138
  30	2.8855e+00	1.1486	-4.027043	0.000487	4.865802	1.648578	0.000195
  31	2.9850e+00	1.1952	-3.893817	0.000335	3.345239	1.133398	0.000134
  32	3.0845e+00	1.2337	-3.788852	0.000264	2.635643	0.892980	0.000105
  33	3.1840e+00	1.2689	-3.671775	0.000294	2.939756	0.996016	0.000118
  34	3.2835e+00	1.3123	-3.494141	0.000446	4.460319	1.511197	0.000179
  35	3.3830e+00	1.3492	-3.348804	0.000365	3.649352	1.236434	0.000146
  36	3.4825e+00	1.3845	-3.215579	0.000335	3.345239	1.133398	0.000134
  37	3.5820e+00	1.4438	-3.037945	0.000446	4.460319	1.511197	0.000179
  38	3.6815e+00	1.4759	-2.912793	0.000314	3.142497	1.064707	0.000126
  39	3.7810e+00	1.5064	-2.771494	0.000355	3.547981	1.202088	0.000142
  40	3.8805e+00	1.5577	-2.593860	0.000446	4.460319	1.511197	0.000179
  41	3.9800e+00	1.5802	-2.456597	0.000345	3.446610	1.167743	0.000138
  42	4.0795e+00	1.6235	-2.291075	0.000416	4.156206	1.408161	0.000166
  43	4.1790e+00	1.6684	-2.153812	0.000345	3.446610	1.167743	0.000138
  44	4.2785e+00	1.7069	-1.960029	0.000487	4.865802	1.648578	0.000195
  45	4.3780e+00	1.7502	-1.814693	0.000365	3.649352	1.236434	0.000146
  46	4.4775e+00	1.7999	-1.645133	0.000426	4.257577	1.442506	0.000170
  47	4.5770e+00	1.8240	-1.491722	0.000385	3.852093	1.305125	0.000154
  48	4.6765e+00	1.8705	-1.310051	0.000456	4.561690	1.545542	0.000183
  49	4.7760e+00	1.9187	-1.205085	0.000264	2.635643	0.892980	0.000105
  50	4.8755e+00	1.9459	-1.007265	0.000497	4.967173	1.682924	0.000199
  51	4.9750e+00	1.9909	-0.942671	0.000162	1.621934	0.549526	0.000065
  52	5.0745e+00	2.0342	-0.797334	0.000365	3.649352	1.236434	0.000146
  53	5.1740e+00	2.0791	-0.619700	0.000446	4.460319	1.511197	0.000179
  54	5.2735e+00	2.1064	-0.474363	0.000365	3.649352	1.236434	0.000146
  55	5.3730e+00	2.1481	-0.320952	0.000385	3.852093	1.305125	0.000154
  56	5.4725e+00	2.1850	-0.203875	0.000294	2.939756	0.996016	0.000118
  57	5.5720e+00	2.2395	-0.018167	0.000466	4.663061	1.579888	0.000187
  58	5.6715e+00	2.2684	0.163504	0.000456	4.561690	1.545542	0.000183
  59	5.7710e+00	2.3165	0.260395	0.000243	2.432901	0.824289	0.000097
  60	5.8705e+00	2.3566	0.450141	0.000476	4.764431	1.614233	0.000191
  61	5.9700e+00	2.4015	0.599515	0.000375	3.750723	1.270779	0.000150
  62	6.0695e+00	2.4240	0.761000	0.000405	4.054835	1.373815	0.000162
  63	6.1690e+00	2.4737	0.954783	0.000487	4.865802	1.648578	0.000195
  64	6.2685e+00	2.5090	1.120305	0.000416	4.156206	1.408161	0.000166
  65	6.3680e+00	2.5427	1.281791	0.000405	4.054835	1.373815	0.000162
  66	6.4675e+00	2.5924	1.451350	0.000426	4.257577	1.442506	0.000170
  67	6.5670e+00	2.6261	1.536130	0.000213	2.128789	0.721253	0.000085
  68	6.6665e+00	2.6662	1.725876	0.000476	4.764431	1.614233	0.000191
  69	6.7660e+00	2.7160	1.867175	0.000355	3.547981	1.202088	0.000142
  70	6.8655e+00	2.7577	1.988289	0.000304	3.041126	1.030362	0.000122
  71	6.9650e+00	2.7946	2.117478	0.000324	3.243868	1.099052	0.000130
  72	7.0645e+00	2.8299	2.327409	0.000527	5.271286	1.785960	0.000211
  73	7.1640e+00	2.8652	2.440449	0.000284	2.838385	0.961671	0.000114
  74	7.2635e+00	2.9133	2.589823	0.000375	3.750723	1.270779	0.000150
  75	7.3630e+00	2.9534	2.783605	0.000487	4.865802	1.648578	0.000195
  76	7.4625e+00	2.9903	2.896645	0.000284	2.838385	0.961671	0.000114
  77	7.5620e+00	3.0304	3.046019	0.000375	3.750723	1.270779	0.000150
  78	7.6615e+00	3.0737	3.235764	0.000476	4.764431	1.614233	0.000191
  79	7.7610e+00	3.1074	3.373027	0.000345	3.446610	1.167743	0.000138
  80	7.8605e+00	3.1459	3.530475	0.000395	3.953464	1.339470	0.000158
  81	7.9600e+00	3.1860	3.748481	0.000547	5.474028	1.854651	0.000219
  82	8.0595e+00	3.2293	3.918040	0.000426	4.257577	1.442506	0.000170
  83	8.1590e+00	3.2662	4.103748	0.000466	4.663061	1.579888	0.000187
  84	8.2585e+00	3.3063	4.232937	0.000324	3.243868	1.099052	0.000130
  85	8.3580e+00	3.3352	4.345977	0.000284	2.838385	0.961671	0.000114
  86	8.4575e+00	3.3897	4.515536	0.000426	4.257577	1.442506	0.000170
  87	8.5570e+00	3.4282	4.664910	0.000375	3.750723	1.270779	0.000150
  88	8.6565e+00	3.4667	4.773913	0.000274	2.737014	0.927325	0.000110
  89	8.7560e+00	3.4940	4.927324	0.000385	3.852093	1.305125	0.000154
  90	8.8555e+00	3.5534	5.068624	0.000355	3.547981	1.202088	0.000142
  91	8.9550e+00	3.5887	5.250295	0.000456	4.561690	1.545542	0.000183
  92	9.0545e+00	3.6256	5.399669	0.000375	3.750723	1.270779	0.000150
  93	9.1540e+00	3.6641	5.549043	0.000375	3.750723	1.270779	0.000150
  94	9.2535e+00	3.7026	5.702454	0.000385	3.852093	1.305125	0.000154
  95	9.3530e+00	3.7411	5.843754	0.000355	3.547981	1.202088	0.000142
  96	9.4525e+00	3.7780	6.045611	0.000507	5.068544	1.717269	0.000203
  97	9.5520e+00	3.8149	6.199022	0.000385	3.852093	1.305125	0.000154
  98	9.6515e+00	3.8582	6.356470	0.000395	3.953464	1.339470	0.000158
  99	9.7510e+00	3.8983	6.521993	0.000416	4.156206	1.408161	0.000166
 100	9.8505e+00	3.9560	6.699627	0.000446	4.460319	1.511197	0.000179
 101	9.9500e+00	3.9753	6.832852	0.000335	3.345239	1.133398	0.000134
 102	1.0050e+01	4.0202	7.006449	0.000436	4.358948	1.476852	0.000174
 103	1.0149e+01	4.0603	7.167935	0.000405	4.054835	1.373815	0.000162
 104	1.0248e+01	4.1020	7.345568	0.000446	4.460319	1.511197	0.000179
 105	1.0348e+01	4.1405	7.454571	0.000274	2.737014	0.927325	0.000110
 106	1.0447e+01	4.1935	7.595871	0.000355	3.547981	1.202088	0.000142
 107	1.0547e+01	4.2207	7.729096	0.000335	3.345239	1.133398	0.000134
 108	1.0646e+01	4.2689	7.894619	0.000416	4.156206	1.408161	0.000166
 109	1.0746e+01	4.3026	8.043993	0.000375	3.750723	1.270779	0.000150
 110	1.0845e+01	4.3443	8.209516	0.000416	4.156206	1.408161	0.000166
 111	1.0945e+01	4.3892	8.379075	0.000426	4.257577	1.442506	0.000170
 112	1.1044e+01	4.4213	8.528449	0.000375	3.750723	1.270779	0.000150
 113	1.1144e+01	4.4598	8.645526	0.000294	2.939756	0.996016	0.000118
 114	1.1243e+01	4.5079	8.835272	0.000476	4.764431	1.614233	0.000191
 115	1.1343e+01	4.5287	8.984646	0.000375	3.750723	1.270779	0.000150
 116	1.1443e+01	4.5769	9.138057	0.000385	3.852093	1.305125	0.000154
 117	1.1542e+01	4.6154	9.372211	0.000588	5.879511	1.992032	0.000235
 118	1.1642e+01	4.6587	9.473139	0.000253	2.534272	0.858635	0.000101
 119	1.1741e+01	4.7100	9.646736	0.000436	4.358948	1.476852	0.000174
 120	1.1841e+01	4.7341	9.816296	0.000426	4.257577	1.442506	0.000170
 121	1.1940e+01	4.7726	9.957595	0.000355	3.547981	1.202088	0.000142
 122	1.2040e+01	4.8207	10.131192	0.000436	4.358948	1.476852	0.000174
 123	1.2139e+01	4.8640	10.280566	0.000375	3.750723	1.270779	0.000150
 124	1.2239e+01	4.8961	10.409755	0.000324	3.243868	1.099052	0.000130
 125	1.2338e+01	4.9362	10.567203	0.000395	3.953464	1.339470	0.000158
 126	1.2438e+01	4.9827	10.708503	0.000355	3.547981	1.202088	0.000142
 127	1.2537e+01	5.0245	10.841728	0.000335	3.345239	1.133398	0.000134
 128	1.2636e+01	5.0517	10.974954	0.000335	3.345239	1.133398	0.000134
 129	1.2736e+01	5.1031	11.156625	0.000456	4.561690	1.545542	0.000183
 130	1.2835e+01	5.1480	11.358481	0.000507	5.068544	1.717269	0.000203
 131	1.2935e+01	5.1785	11.495744	0.000345	3.446610	1.167743	0.000138
 132	1.3034e+01	5.2122	11.624932	0.000324	3.243868	1.099052	0.000130
 133	1.3134e+01	5.2507	11.822752	0.000497	4.967173	1.682924	0.000199
 134	1.3233e+01	5.2924	11.976163	0.000385	3.852093	1.305125	0.000154
 135	1.3333e+01	5.3357	12.165909	0.000476	4.764431	1.614233	0.000191
 136	1.3432e+01	5.3902	12.315283	0.000375	3.750723	1.270779	0.000150
 137	1.3532e+01	5.4207	12.492917	0.000446	4.460319	1.511197	0.000179
 138	1.3632e+01	5.4512	12.630179	0.000345	3.446610	1.167743	0.000138
 139	1.3731e+01	5.4977	12.755330	0.000314	3.142497	1.064707	0.000126
 140	1.3831e+01	5.5298	12.932964	0.000446	4.460319	1.511197	0.000179
 141	1.3930e+01	5.5683	13.126747	0.000487	4.865802	1.648578	0.000195
 142	1.4030e+01	5.6036	13.268047	0.000355	3.547981	1.202088	0.000142
 143	1.4129e+01	5.6581	13.385124	0.000294	2.939756	0.996016	0.000118
 144	1.4229e+01	5.6902	13.506238	0.000304	3.041126	1.030362	0.000122
 145	1.4328e+01	5.7399	13.683872	0.000446	4.460319	1.511197	0.000179
 146	1.4428e+01	5.7784	13.825171	0.000355	3.547981	1.202088	0.000142
 147	1.4527e+01	5.8186	13.978582	0.000385	3.852093	1.305125	0.000154
 148	1.4627e+01	5.8538	14.099697	0.000304	3.041126	1.030362	0.000122
 149	1.4726e+01	5.9004	14.313665	0.000537	5.372657	1.820305	0.000215
 150	1.4825e+01	5.9421	14.442853	0.000324	3.243868	1.099052	0.000130
 151	1.4925e+01	5.9742	14.636636	0.000487	4.865802	1.648578	0.000195
 152	1.5024e+01	6.0111	14.818307	0.000456	4.561690	1.545542	0.000183
 153	1.5124e+01	6.0528	14.963644	0.000365	3.649352	1.236434	0.000146
 154	1.5223e+01	6.0929	15.149352	0.000466	4.663061	1.579888	0.000187
 155	1.5323e+01	6.1346	15.302763	0.000385	3.852093	1.305125	0.000154
 156	1.5422e+01	6.1683	15.444063	0.000355	3.547981	1.202088	0.000142
 157	1.5522e+01	6.2116	15.645920	0.000507	5.068544	1.717269	0.000203
 158	1.5621e+01	6.2469	15.803368	0.000395	3.953464	1.339470	0.000158
 159	1.5721e+01	6.3030	15.928519	0.000314	3.142497	1.064707	0.000126
 160	1.5820e+01	6.3271	16.073856	0.000365	3.649352	1.236434	0.000146
 161	1.5920e+01	6.3640	16.203044	0.000324	3.243868	1.099052	0.000130
 162	1.6020e+01	6.4153	16.344344	0.000355	3.547981	1.202088	0.000142
 163	1.6119e+01	6.4522	16.473532	0.000324	3.243868	1.099052	0.000130
 164	1.6218e+01	6.4939	16.618869	0.000365	3.649352	1.236434	0.000146
 165	1.6318e+01	6.5228	16.840912	0.000558	5.575398	1.888996	0.000223
 166	1.6418e+01	6.5709	16.957989	0.000294	2.939756	0.996016	0.000118
 167	1.6517e+01	6.6110	17.123511	0.000416	4.156206	1.408161	0.000166
 168	1.6616e+01	6.6511	17.244625	0.000304	3.041126	1.030362	0.000122
 169	1.6716e+01	6.6880	17.385925	0.000355	3.547981	1.202088	0.000142
 170	1.6816e+01	6.7265	17.575670	0.000476	4.764431	1.614233	0.000191
 171	1.6915e+01	6.7715	17.773490	0.000497	4.967173	1.682924	0.000199
 172	1.7015e+01	6.8068	17.934976	0.000405	4.054835	1.373815	0.000162
 173	1.7114e+01	6.8549	18.108572	0.000436	4.358948	1.476852	0.000174
 174	1.7213e+01	6.8982	18.261984	0.000385	3.852093	1.305125	0.000154
 175	1.7313e+01	6.9255	18.395209	0.000335	3.345239	1.133398	0.000134
 176	1.7413e+01	6.9736	18.588992	0.000487	4.865802	1.648578	0.000195
 177	1.7512e+01	7.0137	18.702031	0.000284	2.838385	0.961671	0.000114
 178	1.7611e+01	7.0554	18.855442	0.000385	3.852093	1.305125	0.000154
 179	1.7711e+01	7.0923	19.057299	0.000507	5.068544	1.717269	0.000203
 180	1.7811e+01	7.1372	19.178413	0.000304	3.041126	1.030362	0.000122
 181	1.7910e+01	7.1629	19.311639	0.000335	3.345239	1.133398	0.000134
 182	1.8009e+01	7.2046	19.416604	0.000264	2.635643	0.892980	0.000105
 183	1.8109e+01	7.2431	19.561941	0.000365	3.649352	1.236434	0.000146
 184	1.8209e+01	7.2928	19.723427	0.000405	4.054835	1.373815	0.000162
 185	1.8308e+01	7.3281	19.892986	0.000426	4.257577	1.442506	0.000170
 186	1.8407e+01	7.3666	20.054472	0.000405	4.054835	1.373815	0.000162
 187	1.8507e+01	7.4083	20.187697	0.000335	3.345239	1.133398	0.000134
 188	1.8607e+01	7.4452	20.385517	0.000497	4.967173	1.682924	0.000199
 189	1.8706e+01	7.4902	20.591411	0.000517	5.169915	1.751615	0.000207
 190	1.8805e+01	7.5271	20.728673	0.000345	3.446610	1.167743	0.000138
 191	1.8905e+01	7.5704	20.878047	0.000375	3.750723	1.270779	0.000150
 192	1.9005e+01	7.6089	21.067793	0.000476	4.764431	1.614233	0.000191
 193	1.9104e+01	7.6394	21.205055	0.000345	3.446610	1.167743	0.000138
 194	1.9203e+01	7.6859	21.394801	0.000476	4.764431	1.614233	0.000191
 195	1.9303e+01	7.7212	21.540138	0.000365	3.649352	1.236434	0.000146
 196	1.9402e+01	7.7581	21.681437	0.000355	3.547981	1.202088	0.000142
 197	1.9502e+01	7.8174	21.822737	0.000355	3.547981	1.202088	0.000142
 198	1.9602e+01	7.8447	22.004408	0.000456	4.561690	1.545542	0.000183
 199	1.9701e+01	7.8960	22.137634	0.000335	3.345239	1.133398	0.000134
 200	1.9800e+01	7.9281	22.218377	0.000203	2.027418	0.686908	0.000081
 201	1.9900e+01	7.9682	22.371788	0.000385	3.852093	1.305125	0.000154
 202	2.0000e+01	7.9987	22.521162	0.000375	3.750723	1.270779	0.000150
 203	2.0099e+01	8.0372	22.743204	0.000558	5.575398	1.888996	0.000223
 204	2.0198e+01	8.0869	22.880467	0.000345	3.446610	1.167743	0.000138
 205	2.0298e+01	8.1222	23.041952	0.000405	4.054835	1.373815	0.000162
 206	2.0398e+01	8.1607	23.175178	0.000335	3.345239	1.133398	0.000134
 207	2.0497e+01	8.2073	23.364923	0.000476	4.764431	1.614233	0.000191
 208	2.0596e+01	8.2425	23.510260	0.000365	3.649352	1.236434	0.000146
 209	2.0696e+01	8.2827	23.683857	0.000436	4.358948	1.476852	0.000174
 210	2.0796e+01	8.3228	23.857454	0.000436	4.358948	1.476852	0.000174
 211	2.0895e+01	8.3645	24.022976	0.000416	4.156206	1.408161	0.000166
 212	2.0994e+01	8.4110	24.131979	0.000274	2.737014	0.927325	0.000110
 213	2.1094e+01	8.4383	24.333836	0.000507	5.068544	1.717269	0.000203
 214	2.1194e+01	8.4816	24.519544	0.000466	4.663061	1.579888	0.000187
 215	2.1293e+01	8.5217	24.616435	0.000243	2.432901	0.824289	0.000097
 216	2.1392e+01	8.5666	24.769846	0.000385	3.852093	1.305125	0.000154
 217	2.1492e+01	8.6051	24.907109	0.000345	3.446610	1.167743	0.000138
 218	2.1591e+01	8.6468	25.036297	0.000324	3.243868	1.099052	0.000130
 219	2.1691e+01	8.6901	25.181634	0.000365	3.649352	1.236434	0.000146
 220	2.1791e+01	8.7286	25.367342	0.000466	4.663061	1.579888	0.000187
 221	2.1890e+01	8.7687	25.496531	0.000324	3.243868	1.099052	0.000130
 222	2.1989e+01	8.8056	25.625719	0.000324	3.243868	1.099052	0.000130
 223	2.2089e+01	8.8409	25.795279	0.000426	4.257577	1.442506	0.000170
 224	2.2189e+01	8.8891	25.948690	0.000385	3.852093	1.305125	0.000154
 225	2.2288e+01	8.9163	26.134398	0.000466	4.663061	1.579888	0.000187
 226	2.2387e+01	8.9628	26.287809	0.000385	3.852093	1.305125	0.000154
 227	2.2487e+01	9.0062	26.477555	0.000476	4.764431	1.614233	0.000191
 228	2.2587e+01	9.0399	26.643077	0.000416	4.156206	1.408161	0.000166
 229	2.2686e+01	9.0848	26.735931	0.000233	2.331530	0.789944	0.000093
 230	2.2785e+01	9.1185	26.901454	0.000416	4.156206	1.408161	0.000166
 231	2.2885e+01	9.1634	27.046791	0.000365	3.649352	1.236434	0.000146
 232	2.2985e+01	9.2115	27.216351	0.000426	4.257577	1.442506	0.000170
 233	2.3084e+01	9.2388	27.377836	0.000405	4.054835	1.373815	0.000162
 234	2.3183e+01	9.2885	27.535284	0.000395	3.953464	1.339470	0.000158
 235	2.3283e+01	9.3286	27.700807	0.000416	4.156206	1.408161	0.000166
 236	2.3383e+01	9.3607	27.834032	0.000335	3.345239	1.133398	0.000134
 237	2.3482e+01	9.4056	27.959184	0.000314	3.142497	1.064707	0.000126
 238	2.3581e+01	9.4441	28.124706	0.000416	4.156206	1.408161	0.000166
 239	2.3681e+01	9.4890	28.237746	0.000284	2.838385	0.961671	0.000114
 240	2.3780e+01	9.5211	28.399231	0.000405	4.054835	1.373815	0.000162
 241	2.3880e+01	9.5644	28.552643	0.000385	3.852093	1.305125	0.000154
 242	2.3980e+01	9.5949	28.718165	0.000416	4.156206	1.408161	0.000166
 243	2.4079e+01	9.6446	28.867539	0.000375	3.750723	1.270779	0.000150
 244	2.4178e+01	9.6799	29.057284	0.000476	4.764431	1.614233	0.000191
 245	2.4278e+01	9.7184	29.234918	0.000446	4.460319	1.511197	0.000179
 246	2.4378e+01	9.7602	29.368144	0.000335	3.345239	1.133398	0.000134
 247	2.4477e+01	9.8035	29.537704	0.000426	4.257577	1.442506	0.000170
 248	2.4576e+01	9.8436	29.699189	0.000405	4.054835	1.373815	0.000162
 249	2.4676e+01	9.8741	29.876823	0.000446	4.460319	1.511197	0.000179
 250	2.4776e+01	9.9158	30.001974	0.000314	3.142497	1.064707	0.000126
 251	2.4875e+01	9.9607	30.147311	0.000365	3.649352	1.236434	0.000146
 252	2.4974e+01	9.9960	30.256314	0.000274	2.737014	0.927325	0.000110
 253	2.5074e+01	10.0441	30.454133	0.000497	4.967173	1.682924	0.000199
 254	2.5174e+01	10.0746	30.563136	0.000274	2.737014	0.927325	0.000110
 255	2.5273e+01	10.1163	30.704436	0.000355	3.547981	1.202088	0.000142
 256	2.5372e+01	10.1612	30.849773	0.000365	3.649352	1.236434	0.000146
 257	2.5472e+01	10.1997	30.991072	0.000355	3.547981	1.202088	0.000142
 258	2.5572e+01	10.2414	31.140447	0.000375	3.750723	1.270779	0.000150
 259	2.5671e+01	10.2815	31.281746	0.000355	3.547981	1.202088	0.000142
 260	2.5770e+01	10.3232	31.463417	0.000456	4.561690	1.545542	0.000183
 261	2.5870e+01	10.3553	31.616829	0.000385	3.852093	1.305125	0.000154
 262	2.5970e+01	10.3954	31.802537	0.000466	4.663061	1.579888	0.000187
 263	2.6069e+01	10.4355	31.984208	0.000456	4.561690	1.545542	0.000183
 264	2.6169e+01	10.4805	32.153768	0.000426	4.257577	1.442506	0.000170
 265	2.6268e+01	10.5206	32.274882	0.000304	3.041126	1.030362	0.000122
 266	2.6367e+01	10.5655	32.412144	0.000345	3.446610	1.167743	0.000138
 267	2.6467e+01	10.5976	32.537295	0.000314	3.142497	1.064707	0.000126
 268	2.6567e+01	10.6425	32.763375	0.000568	5.676769	1.923342	0.000227
 269	2.6666e+01	10.6730	32.860266	0.000243	2.432901	0.824289	0.000097
 270	2.6765e+01	10.7227	32.989455	0.000324	3.243868	1.099052	0.000130
 271	2.6865e+01	10.7500	33.106532	0.000294	2.939756	0.996016	0.000118
 272	2.6965e+01	10.7885	33.247831	0.000355	3.547981	1.202088	0.000142
 273	2.7064e+01	10.8302	33.413354	0.000416	4.156206	1.408161	0.000166
 274	2.7163e+01	10.8895	33.546579	0.000335	3.345239	1.133398	0.000134
 275	2.7263e+01	10.9216	33.683842	0.000345	3.446610	1.167743	0.000138
 276	2.7363e+01	10.9633	33.857439	0.000436	4.358948	1.476852	0.000174
 277	2.7462e+01	10.9970	34.002776	0.000365	3.649352	1.236434	0.000146
 278	2.7561e+01	11.0419	34.188484	0.000466	4.663061	1.579888	0.000187
 279	2.7661e+01	11.0692	34.337858	0.000375	3.750723	1.270779	0.000150
 280	2.7761e+01	11.1221	34.507418	0.000426	4.257577	1.442506	0.000170
 281	2.7860e+01	11.1574	34.681015	0.000436	4.358948	1.476852	0.000174
 282	2.7959e+01	11.1943	34.826351	0.000365	3.649352	1.236434	0.000146
 283	2.8059e+01	11.2296	34.967651	0.000355	3.547981	1.202088	0.000142
 284	2.8159e+01	11.2794	35.112988	0.000365	3.649352	1.236434	0.000146
 285	2.8258e+01	11.3147	35.302733	0.000476	4.764431	1.614233	0.000191
 286	2.8358e+01	11.3580	35.431922	0.000324	3.243868	1.099052	0.000130
 287	2.8457e+01	11.3868	35.548999	0.000294	2.939756	0.996016	0.000118
 288	2.8556e+01	11.4318	35.670113	0.000304	3.041126	1.030362	0.000122
 289	2.8656e+01	11.4671	35.835635	0.000416	4.156206	1.408161	0.000166
 290	2.8756e+01	11.5088	35.956749	0.000304	3.041126	1.030362	0.000122
 291	2.8855e+01	11.5617	36.085938	0.000324	3.243868	1.099052	0.000130
 292	2.8954e+01	11.5906	36.235312	0.000375	3.750723	1.270779	0.000150
 293	2.9054e+01	11.6307	36.404872	0.000426	4.257577	1.442506	0.000170
 294	2.9154e+01	11.6676	36.558283	0.000385	3.852093	1.305125	0.000154
 295	2.9253e+01	11.7093	36.699582	0.000355	3.547981	1.202088	0.000142
 296	2.9352e+01	11.7558	36.824734	0.000314	3.142497	1.064707	0.000126
 297	2.9452e+01	11.7815	37.006405	0.000456	4.561690	1.545542	0.000183
 298	2.9552e+01	11.8280	37.204224	0.000497	4.967173	1.682924	0.000199
 299	2.9651e+01	11.8777	37.329376	0.000314	3.142497	1.064707	0.000126
 300	2.9750e+01	11.9050	37.519121	0.000476	4.764431	1.614233	0.000191
 301	2.9850e+01	11.9499	37.676569	0.000395	3.953464	1.339470	0.000158
 302	2.9950e+01	11.9900	37.793646	0.000294	2.939756	0.996016	0.000118
 303	3.0049e+01	12.0301	37.963206	0.000426	4.257577	1.442506	0.000170
 304	3.0148e+01	12.0670	38.112580	0.000375	3.750723	1.270779	0.000150
 305	3.0248e+01	12.1087	38.209471	0.000243	2.432901	0.824289	0.000097
 306	3.0348e+01	12.1424	38.383068	0.000436	4.358948	1.476852	0.000174
 307	3.0447e+01	12.1906	38.512256	0.000324	3.243868	1.099052	0.000130
 308	3.0547e+01	12.2307	38.613185	0.000253	2.534272	0.858635	0.000101
 309	3.0646e+01	12.2644	38.782744	0.000426	4.257577	1.442506	0.000170
 310	3.0745e+01	12.3077	38.948267	0.000416	4.156206	1.408161	0.000166
 311	3.0845e+01	12.3510	39.077455	0.000324	3.243868	1.099052	0.000130
 312	3.0945e+01	12.3831	39.242978	0.000416	4.156206	1.408161	0.000166
 313	3.1044e+01	12.4312	39.404463	0.000405	4.054835	1.373815	0.000162
 314	3.1143e+01	12.4745	39.557875	0.000385	3.852093	1.305125	0.000154
 315	3.1243e+01	12.5098	39.687063	0.000324	3.243868	1.099052	0.000130
 316	3.1343e+01	12.5579	39.896994	0.000527	5.271286	1.785960	0.000211
 317	3.1442e+01	12.5852	40.054442	0.000395	3.953464	1.339470	0.000158
 318	3.1541e+01	12.6301	40.167482	0.000284	2.838385	0.961671	0.000114
 319	3.1641e+01	12.6590	40.300708	0.000335	3.345239	1.133398	0.000134
 320	3.1741e+01	12.7055	40.502564	0.000507	5.068544	1.717269	0.000203
 321	3.1840e+01	12.7488	40.615604	0.000284	2.838385	0.961671	0.000114
 322	3.1939e+01	12.7873	40.785164	0.000426	4.257577	1.442506	0.000170
 323	3.2039e+01	12.8323	40.890129	0.000264	2.635643	0.892980	0.000105
 324	3.2139e+01	12.8772	41.039503	0.000375	3.750723	1.270779	0.000150
 325	3.2238e+01	12.9109	41.209063	0.000426	4.257577	1.442506	0.000170
 326	3.2337e+01	12.9413	41.309991	0.000253	2.534272	0.858635	0.000101
 327	3.2437e+01	12.9831	41.447254	0.000345	3.446610	1.167743	0.000138
 328	3.2536e+01	13.0248	41.588554	0.000355	3.547981	1.202088	0.000142
 329	3.2636e+01	13.0745	41.746002	0.000395	3.953464	1.339470	0.000158
 330	3.2736e+01	13.1050	41.875190	0.000324	3.243868	1.099052	0.000130
 331	3.2835e+01	13.1419	42.008416	0.000335	3.345239	1.133398	0.000134
 332	3.2934e+01	13.1852	42.202198	0.000487	4.865802	1.648578	0.000195
 333	3.3034e+01	13.2237	42.315238	0.000284	2.838385	0.961671	0.000114
 334	3.3133e+01	13.2590	42.476724	0.000405	4.054835	1.373815	0.000162
 335	3.3233e+01	13.3071	42.630135	0.000385	3.852093	1.305125	0.000154
 336	3.3333e+01	13.3456	42.763360	0.000335	3.345239	1.133398	0.000134
 337	3.3432e+01	13.3793	42.981366	0.000547	5.474028	1.854651	0.000219
 338	3.3532e+01	13.4210	43.098443	0.000294	2.939756	0.996016	0.000118
 339	3.3631e+01	13.4563	43.259928	0.000405	4.054835	1.373815	0.000162
 340	3.3730e+01	13.4980	43.413339	0.000385	3.852093	1.305125	0.000154
 341	3.3830e+01	13.5461	43.538490	0.000314	3.142497	1.064707	0.000126
 342	3.3929e+01	13.5814	43.712087	0.000436	4.358948	1.476852	0.000174
 343	3.4029e+01	13.6167	43.861461	0.000375	3.750723	1.270779	0.000150
 344	3.4129e+01	13.6649	43.974501	0.000284	2.838385	0.961671	0.000114
 345	3.4228e+01	13.6985	44.067355	0.000233	2.331530	0.789944	0.000093
 346	3.4328e+01	13.7403	44.236915	0.000426	4.257577	1.442506	0.000170
 347	3.4427e+01	13.7804	44.378215	0.000355	3.547981	1.202088	0.000142
 348	3.4526e+01	13.8285	44.539700	0.000405	4.054835	1.373815	0.000162
 349	3.4626e+01	13.8654	44.660814	0.000304	3.041126	1.030362	0.000122
 350	3.4725e+01	13.8943	44.874782	0.000537	5.372657	1.820305	0.000215
 351	3.4825e+01	13.9408	44.983785	0.000274	2.737014	0.927325	0.000110
 352	3.4925e+01	13.9857	45.129122	0.000365	3.649352	1.236434	0.000146
 353	3.5024e+01	14.0194	45.326941	0.000497	4.967173	1.682924	0.000199
 354	3.5123e+01	14.0611	45.456130	0.000324	3.243868	1.099052	0.000130
 355	3.5223e+01	14.0932	45.633764	0.000446	4.460319	1.511197	0.000179
 356	3.5322e+01	14.1429	45.807361	0.000436	4.358948	1.476852	0.000174
 357	3.5422e+01	14.1894	45.920400	0.000284	2.838385	0.961671	0.000114
 358	3.5522e+01	14.2263	46.085923	0.000416	4.156206	1.408161	0.000166
 359	3.5621e+01	14.2584	46.198963	0.000284	2.838385	0.961671	0.000114
 360	3.5721e+01	14.3017	46.368523	0.000426	4.257577	1.442506	0.000170
 361	3.5820e+01	14.3467	46.485599	0.000294	2.939756	0.996016	0.000118
 362	3.5919e+01	14.3868	46.614788	0.000324	3.243868	1.099052	0.000130
 363	3.6019e+01	14.4237	46.735902	0.000304	3.041126	1.030362	0.000122
 364	3.6118e+01	14.4622	46.861053	0.000314	3.142497	1.064707	0.000126
 365	3.6218e+01	14.5087	47.034650	0.000436	4.358948	1.476852	0.000174
 366	3.6318e+01	14.5327	47.184024	0.000375	3.750723	1.270779	0.000150
 367	3.6417e+01	14.5777	47.293027	0.000274	2.737014	0.927325	0.000110
 368	3.6517e+01	14.6178	47.506995	0.000537	5.372657	1.820305	0.000215
 369	3.6616e+01	14.6531	47.636183	0.000324	3.243868	1.099052	0.000130
 370	3.6715e+01	14.6964	47.825929	0.000476	4.764431	1.614233	0.000191
 371	3.6815e+01	14.7285	47.991451	0.000416	4.156206	1.408161	0.000166
 372	3.6914e+01	14.7766	48.116602	0.000314	3.142497	1.064707	0.000126
 373	3.7014e+01	14.8199	48.302311	0.000466	4.663061	1.579888	0.000187
 374	3.7114e+01	14.8584	48.455722	0.000385	3.852093	1.305125	0.000154
 375	3.7213e+01	14.8969	48.605096	0.000375	3.750723	1.270779	0.000150
 376	3.7313e+01	14.9306	48.718136	0.000284	2.838385	0.961671	0.000114
 377	3.7412e+01	14.9707	48.867510	0.000375	3.750723	1.270779	0.000150
 378	3.7511e+01	15.0188	49.033032	0.000416	4.156206	1.408161	0.000166
 379	3.7611e+01	15.0525	49.158183	0.000314	3.142497	1.064707	0.000126
 380	3.7711e+01	15.0910	49.299483	0.000355	3.547981	1.202088	0.000142
 381	3.7810e+01	15.1440	49.404449	0.000264	2.635643	0.892980	0.000105
 382	3.7910e+01	15.1712	49.521526	0.000294	2.939756	0.996016	0.000118
 383	3.8009e+01	15.2145	49.687048	0.000416	4.156206	1.408161	0.000166
 384	3.8108e+01	15.2482	49.844496	0.000395	3.953464	1.339470	0.000158
 385	3.8208e+01	15.2948	49.965610	0.000304	3.041126	1.030362	0.000122
 386	3.8307e+01	15.3333	50.098836	0.000335	3.345239	1.133398	0.000134
 387	3.8407e+01	15.3734	50.308767	0.000527	5.271286	1.785960	0.000211
 388	3.8507e+01	15.4087	50.405658	0.000243	2.432901	0.824289	0.000097
 389	3.8606e+01	15.4504	50.631738	0.000568	5.676769	1.923342	0.000227
 390	3.8706e+01	15.4905	50.789186	0.000395	3.953464	1.339470	0.000158
 391	3.8805e+01	15.5290	50.902226	0.000284	2.838385	0.961671	0.000114
 392	3.8904e+01	15.5755	51.047563	0.000365	3.649352	1.236434	0.000146
 393	3.9004e+01	15.6092	51.253457	0.000517	5.169915	1.751615	0.000207
 394	3.9103e+01	15.6637	51.402831	0.000375	3.750723	1.270779	0.000150
 395	3.9203e+01	15.6990	51.548168	0.000365	3.649352	1.236434	0.000146
 396	3.9303e+01	15.7311	51.649096	0.000253	2.534272	0.858635	0.000101
 397	3.9402e+01	15.7792	51.790396	0.000355	3.547981	1.202088	0.000142
 398	3.9502e+01	15.8177	51.931696	0.000355	3.547981	1.202088	0.000142
 399	3.9601e+01	15.8546	52.093181	0.000405	4.054835	1.373815	0.000162
 400	3.9700e+01	15.8979	52.181998	0.000223	2.230159	0.755598	0.000089
 401	3.9800e+01	15.9381	52.343483	0.000405	4.054835	1.373815	0.000162
 402	3.9900e+01	15.9685	52.456523	0.000284	2.838385	0.961671	0.000114
 403	3.9999e+01	16.0086	52.622046	0.000416	4.156206	1.408161	0.000166
 404	4.0099e+01	16.0503	52.767383	0.000365	3.649352	1.236434	0.000146
 405	4.0198e+01	16.0937	52.924831	0.000395	3.953464	1.339470	0.000158
 406	4.0297e+01	16.1257	53.062094	0.000345	3.446610	1.167743	0.000138
 407	4.0397e+01	16.1723	53.243765	0.000456	4.561690	1.545542	0.000183
 408	4.0496e+01	16.2044	53.421399	0.000446	4.460319	1.511197	0.000179
 409	4.0596e+01	16.2557	53.566736	0.000365	3.649352	1.236434	0.000146
 410	4.0696e+01	16.2926	53.736295	0.000426	4.257577	1.442506	0.000170
 411	4.0795e+01	16.3327	53.861446	0.000314	3.142497	1.064707	0.000126
 412	4.0895e+01	16.3632	54.031006	0.000426	4.257577	1.442506	0.000170
 413	4.0994e+01	16.4145	54.188454	0.000395	3.953464	1.339470	0.000158
 414	4.1093e+01	16.4482	54.337828	0.000375	3.750723	1.270779	0.000150
 415	4.1193e+01	16.4819	54.479128	0.000355	3.547981	1.202088	0.000142
 416	4.1292e+01	16.5284	54.600242	0.000304	3.041126	1.030362	0.000122
 417	4.1392e+01	16.5685	54.745579	0.000365	3.649352	1.236434	0.000146
 418	4.1492e+01	16.6150	54.830359	0.000213	2.128789	0.721253	0.000085
 419	4.1591e+01	16.6519	55.012030	0.000456	4.561690	1.545542	0.000183
 420	4.1691e+01	16.6840	55.133144	0.000304	3.041126	1.030362	0.000122
 421	4.1790e+01	16.7354	55.286555	0.000385	3.852093	1.305125	0.000154
 422	4.1889e+01	16.7706	55.480338	0.000487	4.865802	1.648578	0.000195
 423	4.1989e+01	16.8156	55.613563	0.000335	3.345239	1.133398	0.000134
 424	4.2089e+01	16.8525	55.799272	0.000466	4.663061	1.579888	0.000187
 425	4.2188e+01	16.8862	55.960757	0.000405	4.054835	1.373815	0.000162
 426	4.2288e+01	16.9263	56.126280	0.000416	4.156206	1.408161	0.000166
 427	4.2387e+01	16.9680	56.291802	0.000416	4.156206	1.408161	0.000166
 428	4.2486e+01	17.0081	56.433102	0.000355	3.547981	1.202088	0.000142
 429	4.2586e+01	17.0514	56.554216	0.000304	3.041126	1.030362	0.000122
 430	4.2685e+01	17.0915	56.711664	0.000395	3.953464	1.339470	0.000158
 431	4.2785e+01	17.1332	56.897373	0.000466	4.663061	1.579888	0.000187
 432	4.2885e+01	17.1653	57.014449	0.000294	2.939756	0.996016	0.000118
 433	4.2984e+01	17.2054	57.167861	0.000385	3.852093	1.305125	0.000154
 434	4.3084e+01	17.2455	57.276863	0.000274	2.737014	0.927325	0.000110
 435	4.3183e+01	17.2888	57.393940	0.000294	2.939756	0.996016	0.000118
 436	4.3282e+01	17.3321	57.543314	0.000375	3.750723	1.270779	0.000150
 437	4.3382e+01	17.3674	57.716911	0.000436	4.358948	1.476852	0.000174
 438	4.3481e+01	17.4027	57.838025	0.000304	3.041126	1.030362	0.000122
 439	4.3581e+01	17.4476	57.983362	0.000365	3.649352	1.236434	0.000146
 440	4.3681e+01	17.4797	58.124662	0.000355	3.547981	1.202088	0.000142
 441	4.3780e+01	17.5278	58.306333	0.000456	4.561690	1.545542	0.000183
 442	4.3880e+01	17.5631	58.471855	0.000416	4.156206	1.408161	0.000166
 443	4.3979e+01	17.6081	58.649489	0.000446	4.460319	1.511197	0.000179
 444	4.4078e+01	17.6482	58.819049	0.000426	4.257577	1.442506	0.000170
 445	4.4178e+01	17.6835	58.992646	0.000436	4.358948	1.476852	0.000174
 446	4.4278e+01	17.7236	59.142020	0.000375	3.750723	1.270779	0.000150
 447	4.4377e+01	17.7685	59.267171	0.000314	3.142497	1.064707	0.000126
 448	4.4477e+01	17.8006	59.432694	0.000416	4.156206	1.408161	0.000166
 449	4.4576e+01	17.8455	59.573994	0.000355	3.547981	1.202088	0.000142
 450	4.4675e+01	17.8840	59.719330	0.000365	3.649352	1.236434	0.000146
 451	4.4775e+01	17.9257	59.884853	0.000416	4.156206	1.408161	0.000166
 452	4.4874e+01	17.9690	59.989818	0.000264	2.635643	0.892980	0.000105
 453	4.4974e+01	18.0107	60.106895	0.000294	2.939756	0.996016	0.000118
 454	4.5074e+01	18.0444	60.276455	0.000426	4.257577	1.442506	0.000170
 455	4.5173e+01	18.0861	60.429866	0.000385	3.852093	1.305125	0.000154
 456	4.5273e+01	18.1278	60.559055	0.000324	3.243868	1.099052	0.000130
 457	4.5372e+01	18.1615	60.732651	0.000436	4.358948	1.476852	0.000174
 458	4.5471e+01	18.2000	60.902211	0.000426	4.257577	1.442506	0.000170
 459	4.5571e+01	18.2433	61.067734	0.000416	4.156206	1.408161	0.000166
 460	4.5670e+01	18.2850	61.245368	0.000446	4.460319	1.511197	0.000179
 461	4.5770e+01	18.3252	61.423002	0.000446	4.460319	1.511197	0.000179
 462	4.5870e+01	18.3604	61.548153	0.000314	3.142497	1.064707	0.000126
 463	4.5969e+01	18.4006	61.758084	0.000527	5.271286	1.785960	0.000211
 464	4.6069e+01	18.4455	61.871124	0.000284	2.838385	0.961671	0.000114
 465	4.6168e+01	18.4808	62.032609	0.000405	4.054835	1.373815	0.000162
 466	4.6267e+01	18.5241	62.194095	0.000405	4.054835	1.373815	0.000162
 467	4.6367e+01	18.5690	62.379803	0.000466	4.663061	1.579888	0.000187
 468	4.6467e+01	18.6059	62.500917	0.000304	3.041126	1.030362	0.000122
 469	4.6566e+01	18.6396	62.658365	0.000395	3.953464	1.339470	0.000158
 470	4.6666e+01	18.6845	62.787554	0.000324	3.243868	1.099052	0.000130
 471	4.6765e+01	18.7262	62.928853	0.000355	3.547981	1.202088	0.000142
 472	4.6864e+01	18.7647	63.066116	0.000345	3.446610	1.167743	0.000138
 473	4.6964e+01	18.8000	63.235676	0.000426	4.257577	1.442506	0.000170
 474	4.7063e+01	18.8449	63.372938	0.000345	3.446610	1.167743	0.000138
 475	4.7163e+01	18.8818	63.558646	0.000466	4.663061	1.579888	0.000187
 476	4.7263e+01	18.9203	63.699946	0.000355	3.547981	1.202088	0.000142
 477	4.7362e+01	18.9524	63.921989	0.000558	5.575398	1.888996	0.000223
 478	4.7462e+01	19.0053	64.055214	0.000335	3.345239	1.133398	0.000134
 479	4.7561e+01	19.0455	64.220737	0.000416	4.156206	1.408161	0.000166
 480	4.7660e+01	19.0743	64.422594	0.000507	5.068544	1.717269	0.000203
 481	4.7760e+01	19.1241	64.571968	0.000375	3.750723	1.270779	0.000150
 482	4.7859e+01	19.1642	64.737490	0.000416	4.156206	1.408161	0.000166
 483	4.7959e+01	19.2043	64.882827	0.000365	3.649352	1.236434	0.000146
 484	4.8059e+01	19.2380	65.060461	0.000446	4.460319	1.511197	0.000179
 485	4.8158e+01	19.2909	65.230021	0.000426	4.257577	1.442506	0.000170
 486	4.8258e+01	19.3278	65.351135	0.000304	3.041126	1.030362	0.000122
 487	4.8357e+01	19.3631	65.500509	0.000375	3.750723	1.270779	0.000150
 488	4.8456e+01	19.4064	65.678143	0.000446	4.460319	1.511197	0.000179
 489	4.8556e+01	19.4353	65.823480	0.000365	3.649352	1.236434	0.000146
 490	4.8656e+01	19.4786	65.980928	0.000395	3.953464	1.339470	0.000158
 491	4.8755e+01	19.5171	66.073782	0.000233	2.331530	0.789944	0.000093
 492	4.8855e+01	19.5572	66.283713	0.000527	5.271286	1.785960	0.000211
 493	4.8954e+01	19.5973	66.408864	0.000314	3.142497	1.064707	0.000126
 494	4.9053e+01	19.6406	66.610721	0.000507	5.068544	1.717269	0.000203
 495	4.9153e+01	19.6743	66.756058	0.000365	3.649352	1.236434	0.000146
 496	4.9252e+01	19.7160	66.957915	0.000507	5.068544	1.717269	0.000203
 497	4.9352e+01	19.7593	67.171883	0.000537	5.372657	1.820305	0.000215
 498	4.9452e+01	19.7978	67.301071	0.000324	3.243868	1.099052	0.000130
 499	4.9551e+01	19.8347	67.482742	0.000456	4.561690	1.545542	0.000183
 500	4.9651e+01	19.8797	67.656339	0.000436	4.358948	1.476852	0.000174
 501	4.9750e+01	19.9230	67.821862	0.000416	4.156206	1.408161	0.000166
 502	4.9849e+01	19.9502	68.003533	0.000456	4.561690	1.545542	0.000183
 503	4.9949e+01	19.9952	68.156944	0.000385	3.852093	1.305125	0.000154
 504	5.0048e+01	19.9631	68.051979	0.000264	2.635643	0.892980	-0.000105
 505	5.0148e+01	19.9198	67.999496	0.000132	1.317821	0.446490	-0.000053
 506	5.0248e+01	19.8732	67.938939	0.000152	1.520563	0.515181	-0.000061
 507	5.0347e+01	19.8428	67.829936	0.000274	2.737014	0.927325	-0.000110
 508	5.0447e+01	19.7994	67.708822	0.000304	3.041126	1.030362	-0.000122
 509	5.0546e+01	19.7641	67.620005	0.000223	2.230159	0.755598	-0.000089
 510	5.0645e+01	19.7192	67.527151	0.000233	2.331530	0.789944	-0.000093
 511	5.0745e+01	19.6775	67.426223	0.000253	2.534272	0.858635	-0.000101
 512	5.0844e+01	19.6246	67.341443	0.000213	2.128789	0.721253	-0.000085
 513	5.0944e+01	19.5973	67.276849	0.000162	1.621934	0.549526	-0.000065
 514	5.1044e+01	19.5604	67.188032	0.000223	2.230159	0.755598	-0.000089
 515	5.1143e+01	19.5235	67.135549	0.000132	1.317821	0.446490	-0.000053
 516	5.1242e+01	19.4850	67.030583	0.000264	2.635643	0.892980	-0.000105
 517	5.1342e+01	19.4433	66.965989	0.000162	1.621934	0.549526	-0.000065
 518	5.1441e+01	19.3888	66.861024	0.000264	2.635643	0.892980	-0.000105
 519	5.1541e+01	19.3551	66.816615	0.000112	1.115080	0.377799	-0.000045
 520	5.1641e+01	19.3214	66.691464	0.000314	3.142497	1.064707	-0.000126
 521	5.1740e+01	19.2861	66.582461	0.000274	2.737014	0.927325	-0.000110
 522	5.1840e+01	19.2412	66.493644	0.000223	2.230159	0.755598	-0.000089
 523	5.1939e+01	19.1995	66.396753	0.000243	2.432901	0.824289	-0.000097
 524	5.2038e+01	19.1626	66.287750	0.000274	2.737014	0.927325	-0.000110
 525	5.2138e+01	19.1273	66.190859	0.000243	2.432901	0.824289	-0.000097
 526	5.2237e+01	19.0856	66.025336	0.000416	4.156206	1.408161	-0.000166
 527	5.2337e+01	19.0438	65.908259	0.000294	2.939756	0.996016	-0.000118
 528	5.2437e+01	19.0005	65.811368	0.000243	2.432901	0.824289	-0.000097
 529	5.2536e+01	18.9572	65.718514	0.000233	2.331530	0.789944	-0.000093
 530	5.2636e+01	18.9203	65.589326	0.000324	3.243868	1.099052	-0.000130
 531	5.2735e+01	18.8850	65.492435	0.000243	2.432901	0.824289	-0.000097
 532	5.2834e+01	18.8465	65.435915	0.000142	1.419192	0.480835	-0.000057
 533	5.2934e+01	18.7936	65.314801	0.000304	3.041126	1.030362	-0.000122
 534	5.3033e+01	18.7631	65.270392	0.000112	1.115080	0.377799	-0.000045
 535	5.3133e+01	18.7278	65.173501	0.000243	2.432901	0.824289	-0.000097
 536	5.3233e+01	18.6765	65.064498	0.000274	2.737014	0.927325	-0.000110
 537	5.3332e+01	18.6412	64.975681	0.000223	2.230159	0.755598	-0.000089
 538	5.3431e+01	18.6059	64.842456	0.000335	3.345239	1.133398	-0.000134
 539	5.3531e+01	18.5594	64.757676	0.000213	2.128789	0.721253	-0.000085
 540	5.3630e+01	18.5257	64.624450	0.000335	3.345239	1.133398	-0.000134
 541	5.3730e+01	18.4743	64.479113	0.000365	3.649352	1.236434	-0.000146
 542	5.3830e+01	18.4439	64.406445	0.000182	1.824676	0.618217	-0.000073
 543	5.3929e+01	18.4006	64.321665	0.000213	2.128789	0.721253	-0.000085
 544	5.4029e+01	18.3653	64.172291	0.000375	3.750723	1.270779	-0.000150
 545	5.4128e+01	18.3332	64.006769	0.000416	4.156206	1.408161	-0.000166
 546	5.4227e+01	18.2834	63.873543	0.000335	3.345239	1.133398	-0.000134
 547	5.4327e+01	18.2449	63.752429	0.000304	3.041126	1.030362	-0.000122
 548	5.4426e+01	18.2048	63.679761	0.000182	1.824676	0.618217	-0.000073
 549	5.4526e+01	18.1631	63.603055	0.000193	1.926047	0.652562	-0.000077
 550	5.4626e+01	18.1150	63.461755	0.000355	3.547981	1.202088	-0.000142
 551	5.4725e+01	18.0813	63.368901	0.000233	2.331530	0.789944	-0.000093
 552	5.4825e+01	18.0428	63.292196	0.000193	1.926047	0.652562	-0.000077
 553	5.4924e+01	18.0139	63.183193	0.000274	2.737014	0.927325	-0.000110
 554	5.5023e+01	17.9642	63.086302	0.000243	2.432901	0.824289	-0.000097
 555	5.5123e+01	17.9273	62.940965	0.000365	3.649352	1.236434	-0.000146
 556	5.5222e+01	17.8840	62.840036	0.000253	2.534272	0.858635	-0.000101
 557	5.5322e+01	17.8407	62.739108	0.000253	2.534272	0.858635	-0.000101
 558	5.5422e+01	17.7958	62.605882	0.000335	3.345239	1.133398	-0.000134
 559	5.5521e+01	17.7589	62.513028	0.000233	2.331530	0.789944	-0.000093
 560	5.5620e+01	17.7236	62.363654	0.000375	3.750723	1.270779	-0.000150
 561	5.5720e+01	17.6883	62.250615	0.000284	2.838385	0.961671	-0.000114
 562	5.5819e+01	17.6417	62.133538	0.000294	2.939756	0.996016	-0.000118
 563	5.5919e+01	17.6129	61.963978	0.000426	4.257577	1.442506	-0.000170
 564	5.6019e+01	17.5599	61.822678	0.000355	3.547981	1.202088	-0.000142
 565	5.6118e+01	17.5278	61.701564	0.000304	3.041126	1.030362	-0.000122
 566	5.6218e+01	17.4926	61.592561	0.000274	2.737014	0.927325	-0.000110
 567	5.6317e+01	17.4428	61.471447	0.000304	3.041126	1.030362	-0.000122
 568	5.6416e+01	17.4075	61.338222	0.000335	3.345239	1.133398	-0.000134
 569	5.6516e+01	17.3658	61.204996	0.000335	3.345239	1.133398	-0.000134
 570	5.6615e+01	17.3241	61.156551	0.000122	1.216451	0.412145	-0.000049
 571	5.6715e+01	17.2856	61.047548	0.000274	2.737014	0.927325	-0.000110
 572	5.6815e+01	17.2583	60.898174	0.000375	3.750723	1.270779	-0.000150
 573	5.6914e+01	17.2102	60.809357	0.000223	2.230159	0.755598	-0.000089
 574	5.7014e+01	17.1765	60.664020	0.000365	3.649352	1.236434	-0.000146
 575	5.7113e+01	17.1300	60.550980	0.000284	2.838385	0.961671	-0.000114
 576	5.7212e+01	17.0931	60.450052	0.000253	2.534272	0.858635	-0.000101
 577	5.7312e+01	17.0482	60.332975	0.000294	2.939756	0.996016	-0.000118
 578	5.7411e+01	17.0049	60.191675	0.000355	3.547981	1.202088	-0.000142
 579	5.7511e+01	16.9664	60.050376	0.000355	3.547981	1.202088	-0.000142
 580	5.7611e+01	16.9343	59.925224	0.000314	3.142497	1.064707	-0.000126
 581	5.7710e+01	16.8846	59.816222	0.000274	2.737014	0.927325	-0.000110
 582	5.7809e+01	16.8444	59.666848	0.000375	3.750723	1.270779	-0.000150
 583	5.7909e+01	16.8124	59.517474	0.000375	3.750723	1.270779	-0.000150
 584	5.8008e+01	16.7771	59.404434	0.000284	2.838385	0.961671	-0.000114
 585	5.8108e+01	16.7305	59.234874	0.000426	4.257577	1.442506	-0.000170
 586	5.8208e+01	16.6969	59.146057	0.000223	2.230159	0.755598	-0.000089
 587	5.8307e+01	16.6567	59.053203	0.000233	2.331530	0.789944	-0.000093
 588	5.8407e+01	16.6102	58.940163	0.000284	2.838385	0.961671	-0.000114
 589	5.8506e+01	16.5685	58.827123	0.000284	2.838385	0.961671	-0.000114
 590	5.8605e+01	16.5284	58.730232	0.000243	2.432901	0.824289	-0.000097
 591	5.8705e+01	16.4931	58.560672	0.000426	4.257577	1.442506	-0.000170
 592	5.8804e+01	16.4546	58.467818	0.000233	2.331530	0.789944	-0.000093
 593	5.8904e+01	16.4113	58.350741	0.000294	2.939756	0.996016	-0.000118
 594	5.9004e+01	16.3712	58.185219	0.000416	4.156206	1.408161	-0.000166
 595	5.9103e+01	16.3295	58.043919	0.000355	3.547981	1.202088	-0.000142
 596	5.9203e+01	16.2910	57.951065	0.000233	2.331530	0.789944	-0.000093
 597	5.9302e+01	16.2477	57.833988	0.000294	2.939756	0.996016	-0.000118
 598	5.9401e+01	16.2011	57.684614	0.000375	3.750723	1.270779	-0.000150
 599	5.9501e+01	16.1819	57.563500	0.000304	3.041126	1.030362	-0.000122
 600	5.9600e+01	16.1193	57.389903	0.000436	4.358948	1.476852	-0.000174
 601	5.9700e+01	16.0937	57.280900	0.000274	2.737014	0.927325	-0.000110
 602	5.9800e+01	16.0552	57.127489	0.000385	3.852093	1.305125	-0.000154
 603	5.9899e+01	16.0167	56.974078	0.000385	3.852093	1.305125	-0.000154
 604	5.9998e+01	15.9717	56.897373	0.000193	1.926047	0.652562	-0.000077
 605	6.0098e+01	15.9364	56.723776	0.000436	4.358948	1.476852	-0.000174
 606	6.0197e+01	15.8851	56.614773	0.000274	2.737014	0.927325	-0.000110
 607	6.0297e+01	15.8562	56.534030	0.000203	2.027418	0.686908	-0.000081
 608	6.0397e+01	15.8129	56.404842	0.000324	3.243868	1.099052	-0.000130
 609	6.0496e+01	15.7760	56.271616	0.000335	3.345239	1.133398	-0.000134
 610	6.0596e+01	15.7295	56.114168	0.000395	3.953464	1.339470	-0.000158
 611	6.0695e+01	15.6878	56.021314	0.000233	2.331530	0.789944	-0.000093
 612	6.0794e+01	15.6605	55.839643	0.000456	4.561690	1.545542	-0.000183
 613	6.0894e+01	15.6028	55.738715	0.000253	2.534272	0.858635	-0.000101
 614	6.0993e+01	15.5739	55.633749	0.000264	2.635643	0.892980	-0.000105
 615	6.1093e+01	15.5338	55.492449	0.000355	3.547981	1.202088	-0.000142
 616	6.1193e+01	15.4889	55.367298	0.000314	3.142497	1.064707	-0.000126
 617	6.1292e+01	15.4520	55.230035	0.000345	3.446610	1.167743	-0.000138
 618	6.1392e+01	15.4215	55.072587	0.000395	3.953464	1.339470	-0.000158
 619	6.1491e+01	15.3814	54.911102	0.000405	4.054835	1.373815	-0.000162
 620	6.1590e+01	15.3300	54.798062	0.000284	2.838385	0.961671	-0.000114
 621	6.1690e+01	15.2899	54.632539	0.000416	4.156206	1.408161	-0.000166
 622	6.1789e+01	15.2579	54.543722	0.000223	2.230159	0.755598	-0.000089
 623	6.1889e+01	15.2178	54.374163	0.000426	4.257577	1.442506	-0.000170
 624	6.1989e+01	15.1776	54.293420	0.000203	2.027418	0.686908	-0.000081
 625	6.2088e+01	15.1327	54.168269	0.000314	3.142497	1.064707	-0.000126
 626	6.2188e+01	15.0942	54.075415	0.000233	2.331530	0.789944	-0.000093
 627	6.2287e+01	15.0573	53.926041	0.000375	3.750723	1.270779	-0.000150
 628	6.2386e+01	15.0156	53.776667	0.000375	3.750723	1.270779	-0.000150
 629	6.2486e+01	14.9803	53.647478	0.000324	3.243868	1.099052	-0.000130
 630	6.2586e+01	14.9370	53.530401	0.000294	2.939756	0.996016	-0.000118
 631	6.2685e+01	14.8937	53.368916	0.000405	4.054835	1.373815	-0.000162
 632	6.2785e+01	14.8632	53.280099	0.000223	2.230159	0.755598	-0.000089
 633	6.2884e+01	14.8151	53.146873	0.000335	3.345239	1.133398	-0.000134
 634	6.2983e+01	14.7798	53.029796	0.000294	2.939756	0.996016	-0.000118
 635	6.3083e+01	14.7381	52.876385	0.000385	3.852093	1.305125	-0.000154
 636	6.3182e+01	14.7028	52.727011	0.000375	3.750723	1.270779	-0.000150
 637	6.3282e+01	14.6595	52.581674	0.000365	3.649352	1.236434	-0.000146
 638	6.3382e+01	14.6178	52.420189	0.000405	4.054835	1.373815	-0.000162
 639	6.3481e+01	14.5729	52.254666	0.000416	4.156206	1.408161	-0.000166
 640	6.3581e+01	14.5343	52.149701	0.000264	2.635643	0.892980	-0.000105
 641	6.3680e+01	14.5023	52.024550	0.000314	3.142497	1.064707	-0.000126
 642	6.3779e+01	14.4590	51.879213	0.000365	3.649352	1.236434	-0.000146
 643	6.3879e+01	14.4204	51.806544	0.000182	1.824676	0.618217	-0.000073
 644	6.3978e+01	14.3868	51.669282	0.000345	3.446610	1.167743	-0.000138
 645	6.4078e+01	14.3467	51.532019	0.000345	3.446610	1.167743	-0.000138
 646	6.4177e+01	14.3065	51.406868	0.000314	3.142497	1.064707	-0.000126
 647	6.4277e+01	14.2600	51.269605	0.000345	3.446610	1.167743	-0.000138
 648	6.4376e+01	14.2199	51.128306	0.000355	3.547981	1.202088	-0.000142
 649	6.4476e+01	14.1846	51.011229	0.000294	2.939756	0.996016	-0.000118
 650	6.4576e+01	14.1445	50.890115	0.000304	3.041126	1.030362	-0.000122
 651	6.4675e+01	14.0884	50.688258	0.000507	5.068544	1.717269	-0.000203
 652	6.4775e+01	14.0627	50.591367	0.000243	2.432901	0.824289	-0.000097
 653	6.4874e+01	14.0210	50.498512	0.000233	2.331530	0.789944	-0.000093
 654	6.4974e+01	13.9841	50.296656	0.000507	5.068544	1.717269	-0.000203
 655	6.5073e+01	13.9376	50.159393	0.000345	3.446610	1.167743	-0.000138
 656	6.5172e+01	13.9007	50.026167	0.000335	3.345239	1.133398	-0.000134
 657	6.5272e+01	13.8606	49.868719	0.000395	3.953464	1.339470	-0.000158
 658	6.5371e+01	13.8269	49.743568	0.000314	3.142497	1.064707	-0.000126
 659	6.5471e+01	13.7868	49.642640	0.000253	2.534272	0.858635	-0.000101
 660	6.5570e+01	13.7467	49.505377	0.000345	3.446610	1.167743	-0.000138
 661	6.5670e+01	13.7066	49.364077	0.000355	3.547981	1.202088	-0.000142
 662	6.5769e+01	13.6616	49.279297	0.000213	2.128789	0.721253	-0.000085
 663	6.5869e+01	13.6231	49.137998	0.000355	3.547981	1.202088	-0.000142
 664	6.5969e+01	13.5879	48.952289	0.000466	4.663061	1.579888	-0.000187
 665	6.6068e+01	13.5461	48.859435	0.000233	2.331530	0.789944	-0.000093
 666	6.6168e+01	13.4964	48.714098	0.000365	3.649352	1.236434	-0.000146
 667	6.6267e+01	13.4627	48.605096	0.000274	2.737014	0.927325	-0.000110
 668	6.6367e+01	13.4290	48.471870	0.000335	3.345239	1.133398	-0.000134
 669	6.6466e+01	13.3825	48.322496	0.000375	3.750723	1.270779	-0.000150
 670	6.6566e+01	13.3376	48.197345	0.000314	3.142497	1.064707	-0.000126
 671	6.6665e+01	13.3023	48.056045	0.000355	3.547981	1.202088	-0.000142
 672	6.6764e+01	13.2686	47.902634	0.000385	3.852093	1.305125	-0.000154
 673	6.6864e+01	13.2253	47.708852	0.000487	4.865802	1.648578	-0.000195
 674	6.6963e+01	13.1804	47.595812	0.000284	2.838385	0.961671	-0.000114
 675	6.7063e+01	13.1483	47.422215	0.000436	4.358948	1.476852	-0.000174
 676	6.7162e+01	13.1082	47.317249	0.000264	2.635643	0.892980	-0.000105
 677	6.7262e+01	13.0665	47.151727	0.000416	4.156206	1.408161	-0.000166
 678	6.7362e+01	13.0216	47.075021	0.000193	1.926047	0.652562	-0.000077
 679	6.7461e+01	12.9831	46.909499	0.000416	4.156206	1.408161	-0.000166
 680	6.7561e+01	12.9510	46.812607	0.000243	2.432901	0.824289	-0.000097
 681	6.7660e+01	12.8948	46.667271	0.000365	3.649352	1.236434	-0.000146
 682	6.7760e+01	12.8595	46.521934	0.000365	3.649352	1.236434	-0.000146
 683	6.7859e+01	12.8162	46.421005	0.000253	2.534272	0.858635	-0.000101
 684	6.7959e+01	12.7938	46.275668	0.000365	3.649352	1.236434	-0.000146
 685	6.8058e+01	12.7488	46.154554	0.000304	3.041126	1.030362	-0.000122
 686	6.8157e+01	12.7103	46.037477	0.000294	2.939756	0.996016	-0.000118
 687	6.8257e+01	12.6574	45.880029	0.000395	3.953464	1.339470	-0.000158
 688	6.8356e+01	12.6269	45.742766	0.000345	3.446610	1.167743	-0.000138
 689	6.8456e+01	12.5868	45.613578	0.000324	3.243868	1.099052	-0.000130
 690	6.8555e+01	12.5579	45.500538	0.000284	2.838385	0.961671	-0.000114
 691	6.8655e+01	12.5098	45.330979	0.000426	4.257577	1.442506	-0.000170
 692	6.8754e+01	12.4681	45.161419	0.000426	4.257577	1.442506	-0.000170
 693	6.8854e+01	12.4280	44.991859	0.000426	4.257577	1.442506	-0.000170
 694	6.8954e+01	12.3927	44.886894	0.000264	2.635643	0.892980	-0.000105
 695	6.9053e+01	12.3510	44.749631	0.000345	3.446610	1.167743	-0.000138
 696	6.9153e+01	12.3189	44.664851	0.000213	2.128789	0.721253	-0.000085
 697	6.9252e+01	12.2676	44.495292	0.000426	4.257577	1.442506	-0.000170
 698	6.9352e+01	12.2371	44.370140	0.000314	3.142497	1.064707	-0.000126
 699	6.9451e+01	12.1954	44.208655	0.000405	4.054835	1.373815	-0.000162
 700	6.9550e+01	12.1440	44.103689	0.000264	2.635643	0.892980	-0.000105
 701	6.9650e+01	12.1136	43.938167	0.000416	4.156206	1.408161	-0.000166
 702	6.9749e+01	12.0606	43.833201	0.000264	2.635643	0.892980	-0.000105
 703	6.9849e+01	12.0398	43.699976	0.000335	3.345239	1.133398	-0.000134
 704	6.9948e+01	11.9884	43.570787	0.000324	3.243868	1.099052	-0.000130
 705	7.0048e+01	11.9499	43.397191	0.000436	4.358948	1.476852	-0.000174
 706	7.0147e+01	11.9066	43.251854	0.000365	3.649352	1.236434	-0.000146
 707	7.0247e+01	11.8713	43.122665	0.000324	3.243868	1.099052	-0.000130
 708	7.0347e+01	11.8328	42.940994	0.000456	4.561690	1.545542	-0.000183
 709	7.0446e+01	11.7975	42.852177	0.000223	2.230159	0.755598	-0.000089
 710	7.0546e+01	11.7542	42.662432	0.000476	4.764431	1.614233	-0.000191
 711	7.0645e+01	11.7125	42.525169	0.000345	3.446610	1.167743	-0.000138
 712	7.0745e+01	11.6724	42.371758	0.000385	3.852093	1.305125	-0.000154
 713	7.0844e+01	11.6403	42.262755	0.000274	2.737014	0.927325	-0.000110
 714	7.0944e+01	11.5986	42.149716	0.000284	2.838385	0.961671	-0.000114
 715	7.1043e+01	11.5633	42.020527	0.000324	3.243868	1.099052	-0.000130
 716	7.1142e+01	11.5184	41.875190	0.000365	3.649352	1.236434	-0.000146
 717	7.1242e+01	11.4751	41.762151	0.000284	2.838385	0.961671	-0.000114
 718	7.1341e+01	11.4350	41.604702	0.000395	3.953464	1.339470	-0.000158
 719	7.1441e+01	11.3884	41.455328	0.000375	3.750723	1.270779	-0.000150
 720	7.1540e+01	11.3564	41.342289	0.000284	2.838385	0.961671	-0.000114
 721	7.1640e+01	11.3130	41.188877	0.000385	3.852093	1.305125	-0.000154
 722	7.1740e+01	11.2713	41.043540	0.000365	3.649352	1.236434	-0.000146
 723	7.1839e+01	11.2328	40.914352	0.000324	3.243868	1.099052	-0.000130
 724	7.1939e+01	11.1975	40.736718	0.000446	4.460319	1.511197	-0.000179
 725	7.2038e+01	11.1478	40.643864	0.000233	2.331530	0.789944	-0.000093
 726	7.2138e+01	11.1093	40.470267	0.000436	4.358948	1.476852	-0.000174
 727	7.2237e+01	11.0740	40.316856	0.000385	3.852093	1.305125	-0.000154
 728	7.2337e+01	11.0403	40.167482	0.000375	3.750723	1.270779	-0.000150
 729	7.2436e+01	10.9906	40.018108	0.000375	3.750723	1.270779	-0.000150
 730	7.2535e+01	10.9569	39.868734	0.000375	3.750723	1.270779	-0.000150
 731	7.2635e+01	10.9200	39.739546	0.000324	3.243868	1.099052	-0.000130
 732	7.2734e+01	10.8815	39.626506	0.000284	2.838385	0.961671	-0.000114
 733	7.2834e+01	10.8366	39.452909	0.000436	4.358948	1.476852	-0.000174
 734	7.2933e+01	10.7949	39.364092	0.000223	2.230159	0.755598	-0.000089
 735	7.3033e+01	10.7452	39.214718	0.000375	3.750723	1.270779	-0.000150
 736	7.3132e+01	10.7147	39.081493	0.000335	3.345239	1.133398	-0.000134
 737	7.3232e+01	10.6826	38.936156	0.000365	3.649352	1.236434	-0.000146
 738	7.3332e+01	10.6313	38.794856	0.000355	3.547981	1.202088	-0.000142
 739	7.3431e+01	10.5960	38.653556	0.000355	3.547981	1.202088	-0.000142
 740	7.3531e+01	10.5510	38.524368	0.000324	3.243868	1.099052	-0.000130
 741	7.3630e+01	10.5125	38.383068	0.000355	3.547981	1.202088	-0.000142
 742	7.3730e+01	10.4805	38.241768	0.000355	3.547981	1.202088	-0.000142
 743	7.3829e+01	10.4355	38.092394	0.000375	3.750723	1.270779	-0.000150
 744	7.3928e+01	10.3970	37.922835	0.000426	4.257577	1.442506	-0.000170
 745	7.4028e+01	10.3569	37.793646	0.000324	3.243868	1.099052	-0.000130
 746	7.4127e+01	10.3216	37.672532	0.000304	3.041126	1.030362	-0.000122
 747	7.4227e+01	10.2799	37.494898	0.000446	4.460319	1.511197	-0.000179
 748	7.4326e+01	10.2318	37.345524	0.000375	3.750723	1.270779	-0.000150
 749	7.4426e+01	10.1885	37.200187	0.000365	3.649352	1.236434	-0.000146
 750	7.4525e+01	10.1596	37.099259	0.000253	2.534272	0.858635	-0.000101
 751	7.4625e+01	10.1195	36.945848	0.000385	3.852093	1.305125	-0.000154
 752	7.4725e+01	10.0746	36.808585	0.000345	3.446610	1.167743	-0.000138
 753	7.4824e+01	10.0361	36.699582	0.000274	2.737014	0.927325	-0.000110
 754	7.4924e+01	9.9896	36.538097	0.000405	4.054835	1.373815	-0.000162
 755	7.5023e+01	9.9607	36.408909	0.000324	3.243868	1.099052	-0.000130
 756	7.5123e+01	9.9206	36.243386	0.000416	4.156206	1.408161	-0.000166
 757	7.5222e+01	9.8805	36.138421	0.000264	2.635643	0.892980	-0.000105
 758	7.5322e+01	9.8323	35.993084	0.000365	3.649352	1.236434	-0.000146
 759	7.5421e+01	9.8003	35.839673	0.000385	3.852093	1.305125	-0.000154
 760	7.5520e+01	9.7473	35.698373	0.000355	3.547981	1.202088	-0.000142
 761	7.5620e+01	9.7152	35.573222	0.000314	3.142497	1.064707	-0.000126
 762	7.5719e+01	9.6815	35.399625	0.000436	4.358948	1.476852	-0.000174
 763	7.5819e+01	9.6398	35.234102	0.000416	4.156206	1.408161	-0.000166
 764	7.5918e+01	9.6029	35.157397	0.000193	1.926047	0.652562	-0.000077
 765	7.6018e+01	9.5532	34.947466	0.000527	5.271286	1.785960	-0.000211
 766	7.6118e+01	9.5099	34.834426	0.000284	2.838385	0.961671	-0.000114
 767	7.6217e+01	9.4810	34.652755	0.000456	4.561690	1.545542	-0.000183
 768	7.6317e+01	9.4393	34.519529	0.000335	3.345239	1.133398	-0.000134
 769	7.6416e+01	9.3976	34.358044	0.000405	4.054835	1.373815	-0.000162
 770	7.6516e+01	9.3623	34.269227	0.000223	2.230159	0.755598	-0.000089
 771	7.6615e+01	9.3174	34.111778	0.000395	3.953464	1.339470	-0.000158
 772	7.6715e+01	9.2917	33.998739	0.000284	2.838385	0.961671	-0.000114
 773	7.6814e+01	9.2532	33.804956	0.000487	4.865802	1.648578	-0.000195
 774	7.6913e+01	9.2083	33.659619	0.000365	3.649352	1.236434	-0.000146
 775	7.7013e+01	9.1634	33.530431	0.000324	3.243868	1.099052	-0.000130
 776	7.7112e+01	9.1185	33.377020	0.000385	3.852093	1.305125	-0.000154
 777	7.7212e+01	9.0784	33.227646	0.000375	3.750723	1.270779	-0.000150
 778	7.7311e+01	9.0366	33.114606	0.000284	2.838385	0.961671	-0.000114
 779	7.7411e+01	8.9965	32.977343	0.000345	3.446610	1.167743	-0.000138
 780	7.7510e+01	8.9516	32.791635	0.000466	4.663061	1.579888	-0.000187
 781	7.7610e+01	8.9243	32.654372	0.000345	3.446610	1.167743	-0.000138
 782	7.7710e+01	8.8858	32.509036	0.000365	3.649352	1.236434	-0.000146
 783	7.7809e+01	8.8345	32.359662	0.000375	3.750723	1.270779	-0.000150
 784	7.7909e+01	8.8056	32.234510	0.000314	3.142497	1.064707	-0.000126
 785	7.8008e+01	8.7623	32.068988	0.000416	4.156206	1.408161	-0.000166
 786	7.8108e+01	8.7318	31.923651	0.000365	3.649352	1.236434	-0.000146
 787	7.8207e+01	8.6789	31.758128	0.000416	4.156206	1.408161	-0.000166
 788	7.8306e+01	8.6468	31.608754	0.000375	3.750723	1.270779	-0.000150
 789	7.8406e+01	8.6019	31.467455	0.000355	3.547981	1.202088	-0.000142
 790	7.8505e+01	8.5618	31.362489	0.000264	2.635643	0.892980	-0.000105
 791	7.8605e+01	8.5201	31.205041	0.000395	3.953464	1.339470	-0.000158
 792	7.8704e+01	8.4832	31.087964	0.000294	2.939756	0.996016	-0.000118
 793	7.8804e+01	8.4479	30.922441	0.000416	4.156206	1.408161	-0.000166
 794	7.8903e+01	8.3998	30.805364	0.000294	2.939756	0.996016	-0.000118
 795	7.9003e+01	8.3629	30.635805	0.000426	4.257577	1.442506	-0.000170
 796	7.9103e+01	8.3196	30.514690	0.000304	3.041126	1.030362	-0.000122
 797	7.9202e+01	8.2778	30.320908	0.000487	4.865802	1.648578	-0.000195
 798	7.9302e+01	8.2442	30.183645	0.000345	3.446610	1.167743	-0.000138
 799	7.9401e+01	8.2137	30.066568	0.000294	2.939756	0.996016	-0.000118
 800	7.9501e+01	8.1607	29.880860	0.000466	4.663061	1.579888	-0.000187
 801	7.9600e+01	8.1142	29.735523	0.000365	3.649352	1.236434	-0.000146
 802	7.9700e+01	8.0853	29.614409	0.000304	3.041126	1.030362	-0.000122
 803	7.9799e+01	8.0516	29.452924	0.000405	4.054835	1.373815	-0.000162
 804	7.9898e+01	8.0147	29.311624	0.000355	3.547981	1.202088	-0.000142
 805	7.9998e+01	7.9618	29.142064	0.000426	4.257577	1.442506	-0.000170
 806	8.0097e+01	7.9201	28.996727	0.000365	3.649352	1.236434	-0.000146
 807	8.0197e+01	7.8912	28.847353	0.000375	3.750723	1.270779	-0.000150
 808	8.0296e+01	7.8495	28.710091	0.000345	3.446610	1.167743	-0.000138
 809	8.0396e+01	7.7998	28.580902	0.000324	3.243868	1.099052	-0.000130
 810	8.0496e+01	7.7709	28.455751	0.000314	3.142497	1.064707	-0.000126
 811	8.0595e+01	7.7276	28.261969	0.000487	4.865802	1.648578	-0.000195
 812	8.0695e+01	7.6827	28.144892	0.000294	2.939756	0.996016	-0.000118
 813	8.0794e+01	7.6490	28.015703	0.000324	3.243868	1.099052	-0.000130
 814	8.0894e+01	7.6009	27.838069	0.000446	4.460319	1.511197	-0.000179
 815	8.0993e+01	7.5736	27.688695	0.000375	3.750723	1.270779	-0.000150
 816	8.1093e+01	7.5255	27.559507	0.000324	3.243868	1.099052	-0.000130
 817	8.1192e+01	7.4870	27.389947	0.000426	4.257577	1.442506	-0.000170
 818	8.1291e+01	7.4452	27.256722	0.000335	3.345239	1.133398	-0.000134
 819	8.1391e+01	7.4083	27.159831	0.000243	2.432901	0.824289	-0.000097
 820	8.1490e+01	7.3666	27.002382	0.000395	3.953464	1.339470	-0.000158
 821	8.1590e+01	7.3297	26.853008	0.000375	3.750723	1.270779	-0.000150
 822	8.1689e+01	7.2944	26.683449	0.000426	4.257577	1.442506	-0.000170
 823	8.1789e+01	7.2511	26.517926	0.000416	4.156206	1.408161	-0.000166
 824	8.1888e+01	7.2094	26.348366	0.000426	4.257577	1.442506	-0.000170
 825	8.1988e+01	7.1677	26.239364	0.000274	2.737014	0.927325	-0.000110
 826	8.2088e+01	7.1292	26.061730	0.000446	4.460319	1.511197	-0.000179
 827	8.2187e+01	7.0907	25.956764	0.000264	2.635643	0.892980	-0.000105
 828	8.2287e+01	7.0506	25.799316	0.000395	3.953464	1.339470	-0.000158
 829	8.2386e+01	7.0073	25.621682	0.000446	4.460319	1.511197	-0.000179
 830	8.2486e+01	6.9688	25.484419	0.000345	3.446610	1.167743	-0.000138
 831	8.2585e+01	6.9255	25.335045	0.000375	3.750723	1.270779	-0.000150
 832	8.2684e+01	6.8757	25.201820	0.000335	3.345239	1.133398	-0.000134
 833	8.2784e+01	6.8565	25.064557	0.000345	3.446610	1.167743	-0.000138
 834	8.2883e+01	6.8100	24.894998	0.000426	4.257577	1.442506	-0.000170
 835	8.2983e+01	6.7715	24.741586	0.000385	3.852093	1.305125	-0.000154
 836	8.3082e+01	6.7346	24.576064	0.000416	4.156206	1.408161	-0.000166
 837	8.3182e+01	6.6800	24.434764	0.000355	3.547981	1.202088	-0.000142
 838	8.3281e+01	6.6511	24.321724	0.000284	2.838385	0.961671	-0.000114
 839	8.3381e+01	6.6207	24.119867	0.000507	5.068544	1.717269	-0.000203
 840	8.3481e+01	6.5709	23.998753	0.000304	3.041126	1.030362	-0.000122
 841	8.3580e+01	6.5356	23.845342	0.000385	3.852093	1.305125	-0.000154
 842	8.3680e+01	6.5004	23.663671	0.000456	4.561690	1.545542	-0.000183
 843	8.3779e+01	6.4651	23.538520	0.000314	3.142497	1.064707	-0.000126
 844	8.3879e+01	6.4105	23.425480	0.000284	2.838385	0.961671	-0.000114
 845	8.3978e+01	6.3720	23.276106	0.000375	3.750723	1.270779	-0.000150
 846	8.4078e+01	6.3223	23.134806	0.000355	3.547981	1.202088	-0.000142
 847	8.4177e+01	6.2934	22.993507	0.000355	3.547981	1.202088	-0.000142
 848	8.4276e+01	6.2485	22.803761	0.000476	4.764431	1.614233	-0.000191
 849	8.4376e+01	6.2180	22.678610	0.000314	3.142497	1.064707	-0.000126
 850	8.4475e+01	6.1779	22.549422	0.000324	3.243868	1.099052	-0.000130
 851	8.4575e+01	6.1410	22.367751	0.000456	4.561690	1.545542	-0.000183
 852	8.4674e+01	6.0881	22.246636	0.000304	3.041126	1.030362	-0.000122
 853	8.4774e+01	6.0512	22.073040	0.000436	4.358948	1.476852	-0.000174
 854	8.4874e+01	6.0191	21.947888	0.000314	3.142497	1.064707	-0.000126
 855	8.4973e+01	5.9822	21.770254	0.000446	4.460319	1.511197	-0.000179
 856	8.5073e+01	5.9308	21.641066	0.000324	3.243868	1.099052	-0.000130
 857	8.5172e+01	5.8923	21.519952	0.000304	3.041126	1.030362	-0.000122
 858	8.5272e+01	5.8442	21.346355	0.000436	4.358948	1.476852	-0.000174
 859	8.5371e+01	5.8153	21.209093	0.000345	3.446610	1.167743	-0.000138
 860	8.5471e+01	5.7768	21.031459	0.000446	4.460319	1.511197	-0.000179
 861	8.5570e+01	5.7335	20.849788	0.000456	4.561690	1.545542	-0.000183
 862	8.5669e+01	5.6950	20.712525	0.000345	3.446610	1.167743	-0.000138
 863	8.5769e+01	5.6678	20.619671	0.000233	2.331530	0.789944	-0.000093
 864	8.5868e+01	5.6164	20.470297	0.000375	3.750723	1.270779	-0.000150
 865	8.5968e+01	5.5811	20.308811	0.000405	4.054835	1.373815	-0.000162
 866	8.6067e+01	5.5394	20.155400	0.000385	3.852093	1.305125	-0.000154
 867	8.6167e+01	5.4945	19.989878	0.000416	4.156206	1.408161	-0.000166
 868	8.6266e+01	5.4544	19.876838	0.000284	2.838385	0.961671	-0.000114
 869	8.6366e+01	5.4175	19.695167	0.000456	4.561690	1.545542	-0.000183
 870	8.6466e+01	5.3902	19.541756	0.000385	3.852093	1.305125	-0.000154
 871	8.6565e+01	5.3373	19.388344	0.000385	3.852093	1.305125	-0.000154
 872	8.6665e+01	5.3004	19.218785	0.000426	4.257577	1.442506	-0.000170
 873	8.6764e+01	5.2555	19.093633	0.000314	3.142497	1.064707	-0.000126
 874	8.6864e+01	5.2170	18.924074	0.000426	4.257577	1.442506	-0.000170
 875	8.6963e+01	5.1849	18.794885	0.000324	3.243868	1.099052	-0.000130
 876	8.7063e+01	5.1335	18.677808	0.000294	2.939756	0.996016	-0.000118
 877	8.7162e+01	5.0999	18.496137	0.000456	4.561690	1.545542	-0.000183
 878	8.7261e+01	5.0549	18.338689	0.000395	3.953464	1.339470	-0.000158
 879	8.7361e+01	5.0164	18.221612	0.000294	2.939756	0.996016	-0.000118
 880	8.7460e+01	4.9892	18.072238	0.000375	3.750723	1.270779	-0.000150
 881	8.7560e+01	4.9362	17.898641	0.000436	4.358948	1.476852	-0.000174
 882	8.7659e+01	4.9025	17.745230	0.000385	3.852093	1.305125	-0.000154
 883	8.7759e+01	4.8496	17.587782	0.000395	3.953464	1.339470	-0.000158
 884	8.7859e+01	4.8175	17.438408	0.000375	3.750723	1.270779	-0.000150
 885	8.7958e+01	4.7742	17.284997	0.000385	3.852093	1.305125	-0.000154
 886	8.8058e+01	4.7405	17.139660	0.000365	3.649352	1.236434	-0.000146
 887	8.8157e+01	4.6972	16.982211	0.000395	3.953464	1.339470	-0.000158
 888	8.8257e+01	4.6539	16.848986	0.000335	3.345239	1.133398	-0.000134
 889	8.8356e+01	4.6154	16.703649	0.000365	3.649352	1.236434	-0.000146
 890	8.8456e+01	4.5737	16.534089	0.000426	4.257577	1.442506	-0.000170
 891	8.8555e+01	4.5336	16.392790	0.000355	3.547981	1.202088	-0.000142
 892	8.8654e+01	4.5015	16.243416	0.000375	3.750723	1.270779	-0.000150
 893	8.8754e+01	4.4566	16.085967	0.000395	3.953464	1.339470	-0.000158
 894	8.8853e+01	4.4245	15.928519	0.000395	3.953464	1.339470	-0.000158
 895	8.8953e+01	4.3828	15.791256	0.000345	3.446610	1.167743	-0.000138
 896	8.9052e+01	4.3427	15.629771	0.000405	4.054835	1.373815	-0.000162
 897	8.9152e+01	4.3058	15.492508	0.000345	3.446610	1.167743	-0.000138
 898	8.9251e+01	4.2592	15.379469	0.000284	2.838385	0.961671	-0.000114
 899	8.9351e+01	4.2272	15.149352	0.000578	5.778140	1.957687	-0.000231
 900	8.9451e+01	4.1887	14.991904	0.000395	3.953464	1.339470	-0.000158
 901	8.9550e+01	4.1453	14.874827	0.000294	2.939756	0.996016	-0.000118
 902	8.9650e+01	4.0940	14.729490	0.000365	3.649352	1.236434	-0.000146
 903	8.9749e+01	4.0635	14.568004	0.000405	4.054835	1.373815	-0.000162
 904	8.9849e+01	4.0186	14.450927	0.000294	2.939756	0.996016	-0.000118
 905	8.9948e+01	3.9737	14.305590	0.000365	3.649352	1.236434	-0.000146
 906	9.0047e+01	3.9416	14.115845	0.000476	4.764431	1.614233	-0.000191
 907	9.0147e+01	3.8999	13.958397	0.000395	3.953464	1.339470	-0.000158
 908	9.0246e+01	3.8630	13.817097	0.000355	3.547981	1.202088	-0.000142
 909	9.0346e+01	3.8229	13.651574	0.000416	4.156206	1.408161	-0.000166
 910	9.0445e+01	3.7812	13.477978	0.000436	4.358948	1.476852	-0.000174
 911	9.0545e+01	3.7330	13.364938	0.000284	2.838385	0.961671	-0.000114
 912	9.0644e+01	3.7058	13.171155	0.000487	4.865802	1.648578	-0.000195
 913	9.0744e+01	3.6705	13.050041	0.000304	3.041126	1.030362	-0.000122
 914	9.0844e+01	3.6208	12.937001	0.000284	2.838385	0.961671	-0.000114
 915	9.0943e+01	3.5774	12.763405	0.000436	4.358948	1.476852	-0.000174
 916	9.1043e+01	3.5405	12.605956	0.000395	3.953464	1.339470	-0.000158
 917	9.1142e+01	3.5133	12.468694	0.000345	3.446610	1.167743	-0.000138
 918	9.1242e+01	3.4780	12.319320	0.000375	3.750723	1.270779	-0.000150
 919	9.1341e+01	3.4315	12.165909	0.000385	3.852093	1.305125	-0.000154
 920	9.1441e+01	3.3930	11.980200	0.000466	4.663061	1.579888	-0.000187
 921	9.1540e+01	3.3448	11.834863	0.000365	3.649352	1.236434	-0.000146
 922	9.1639e+01	3.3079	11.673378	0.000405	4.054835	1.373815	-0.000162
 923	9.1739e+01	3.2678	11.548227	0.000314	3.142497	1.064707	-0.000126
 924	9.1838e+01	3.2229	11.419038	0.000324	3.243868	1.099052	-0.000130
 925	9.1938e+01	3.1924	11.245442	0.000436	4.358948	1.476852	-0.000174
 926	9.2037e+01	3.1411	11.092030	0.000385	3.852093	1.305125	-0.000154
 927	9.2137e+01	3.1026	10.926508	0.000416	4.156206	1.408161	-0.000166
 928	9.2237e+01	3.0705	10.740800	0.000466	4.663061	1.579888	-0.000187
 929	9.2336e+01	3.0224	10.611611	0.000324	3.243868	1.099052	-0.000130
 930	9.2436e+01	2.9823	10.458200	0.000385	3.852093	1.305125	-0.000154
 931	9.2535e+01	2.9390	10.345160	0.000284	2.838385	0.961671	-0.000114
 932	9.2635e+01	2.9133	10.203861	0.000355	3.547981	1.202088	-0.000142
 933	9.2734e+01	2.8555	10.042375	0.000405	4.054835	1.373815	-0.000162
 934	9.2834e+01	2.8251	9.868778	0.000436	4.358948	1.476852	-0.000174
 935	9.2933e+01	2.7978	9.715367	0.000385	3.852093	1.305125	-0.000154
 936	9.3032e+01	2.7545	9.570030	0.000365	3.649352	1.236434	-0.000146
 937	9.3132e+01	2.7079	9.424693	0.000365	3.649352	1.236434	-0.000146
 938	9.3231e+01	2.6759	9.267245	0.000395	3.953464	1.339470	-0.000158
 939	9.3331e+01	2.6293	9.065388	0.000507	5.068544	1.717269	-0.000203
 940	9.3430e+01	2.5860	8.928126	0.000345	3.446610	1.167743	-0.000138
 941	9.3530e+01	2.5411	8.762603	0.000416	4.156206	1.408161	-0.000166
 942	9.3629e+01	2.5090	8.629378	0.000335	3.345239	1.133398	-0.000134
 943	9.3729e+01	2.4689	8.447707	0.000456	4.561690	1.545542	-0.000183
 944	9.3829e+01	2.4240	8.314481	0.000335	3.345239	1.133398	-0.000134
 945	9.3928e+01	2.3887	8.144921	0.000426	4.257577	1.442506	-0.000170
 946	9.4028e+01	2.3550	8.003622	0.000355	3.547981	1.202088	-0.000142
 947	9.4127e+01	2.3005	7.870396	0.000335	3.345239	1.133398	-0.000134
 948	9.4227e+01	2.2668	7.684688	0.000466	4.663061	1.579888	-0.000187
 949	9.4326e+01	2.2283	7.555500	0.000324	3.243868	1.099052	-0.000130
 950	9.4425e+01	2.2010	7.470720	0.000213	2.128789	0.721253	-0.000085
 951	9.4525e+01	2.1497	7.260789	0.000527	5.271286	1.785960	-0.000211
 952	9.4624e+01	2.1015	7.123526	0.000345	3.446610	1.167743	-0.000138
 953	9.4724e+01	2.0646	7.002412	0.000304	3.041126	1.030362	-0.000122
 954	9.4823e+01	2.0310	6.800555	0.000507	5.068544	1.717269	-0.000203
 955	9.4923e+01	1.9860	6.622921	0.000446	4.460319	1.511197	-0.000179
 956	9.5022e+01	1.9491	6.441250	0.000456	4.561690	1.545542	-0.000183
 957	9.5122e+01	1.9042	6.303987	0.000345	3.446610	1.167743	-0.000138
 958	9.5222e+01	1.8737	6.146539	0.000395	3.953464	1.339470	-0.000158
 959	9.5321e+01	1.8336	6.001202	0.000365	3.649352	1.236434	-0.000146
 960	9.5421e+01	1.7967	5.835680	0.000416	4.156206	1.408161	-0.000166
 961	9.5520e+01	1.7518	5.682269	0.000385	3.852093	1.305125	-0.000154
 962	9.5620e+01	1.7101	5.536932	0.000365	3.649352	1.236434	-0.000146
 963	9.5719e+01	1.6748	5.411780	0.000314	3.142497	1.064707	-0.000126
 964	9.5819e+01	1.6267	5.254332	0.000395	3.953464	1.339470	-0.000158
 965	9.5918e+01	1.5914	5.129181	0.000314	3.142497	1.064707	-0.000126
 966	9.6017e+01	1.5545	4.959621	0.000426	4.257577	1.442506	-0.000170
 967	9.6117e+01	1.5144	4.826396	0.000335	3.345239	1.133398	-0.000134
 968	9.6216e+01	1.4647	4.689133	0.000345	3.446610	1.167743	-0.000138
 969	9.6316e+01	1.4310	4.527648	0.000405	4.054835	1.373815	-0.000162
 970	9.6415e+01	1.3925	4.358088	0.000426	4.257577	1.442506	-0.000170
 971	9.6515e+01	1.3588	4.245048	0.000284	2.838385	0.961671	-0.000114
 972	9.6615e+01	1.3155	4.063377	0.000456	4.561690	1.545542	-0.000183
 973	9.6714e+01	1.2770	3.849409	0.000537	5.372657	1.820305	-0.000215
 974	9.6814e+01	1.2256	3.700035	0.000375	3.750723	1.270779	-0.000150
 975	9.6913e+01	1.1952	3.554698	0.000365	3.649352	1.236434	-0.000146
 976	9.7013e+01	1.1502	3.364953	0.000476	4.764431	1.614233	-0.000191
 977	9.7112e+01	1.1117	3.255950	0.000274	2.737014	0.927325	-0.000110
 978	9.7212e+01	1.0716	3.094465	0.000405	4.054835	1.373815	-0.000162
 979	9.7311e+01	1.0299	2.924905	0.000426	4.257577	1.442506	-0.000170
 980	9.7410e+01	0.9898	2.783605	0.000355	3.547981	1.202088	-0.000142
 981	9.7510e+01	0.9545	2.614045	0.000426	4.257577	1.442506	-0.000170
 982	9.7609e+01	0.9176	2.460634	0.000385	3.852093	1.305125	-0.000154
 983	9.7709e+01	0.8695	2.343557	0.000294	2.939756	0.996016	-0.000118
 984	9.7808e+01	0.8310	2.214369	0.000324	3.243868	1.099052	-0.000130
 985	9.7908e+01	0.7957	2.056921	0.000395	3.953464	1.339470	-0.000158
 986	9.8007e+01	0.7508	1.964067	0.000233	2.331530	0.789944	-0.000093
 987	9.8107e+01	0.7091	1.746061	0.000547	5.474028	1.854651	-0.000219
 988	9.8207e+01	0.6738	1.624947	0.000304	3.041126	1.030362	-0.000122
 989	9.8306e+01	0.6401	1.447313	0.000446	4.460319	1.511197	-0.000179
 990	9.8406e+01	0.6048	1.289865	0.000395	3.953464	1.339470	-0.000158
 991	9.8505e+01	0.5583	1.088008	0.000507	5.068544	1.717269	-0.000203
 992	9.8605e+01	0.5278	0.938634	0.000375	3.750723	1.270779	-0.000150
 993	9.8704e+01	0.4797	0.797334	0.000355	3.547981	1.202088	-0.000142
 994	9.8803e+01	0.4396	0.651997	0.000365	3.649352	1.236434	-0.000146
 995	9.8903e+01	0.3962	0.474363	0.000446	4.460319	1.511197	-0.000179
 996	9.9002e+01	0.3497	0.316915	0.000395	3.953464	1.339470	-0.000158
 997	9.9102e+01	0.3160	0.187727	0.000324	3.243868	1.099052	-0.000130
 998	9.9201e+01	0.2791	0.042390	0.000365	3.649352	1.236434	-0.000146
 999	9.9301e+01	0.2326	-0.111021	0.000385	3.852093	1.305125	-0.000154
1000	9.9400e+01	0.1925	-0.260395	0.000375	3.750723	1.270779	-0.000150
1001	9.9500e+01	0.1572	-0.413806	0.000385	3.852093	1.305125	-0.000154
1002	9.9600e+01	0.1155	-0.555106	0.000355	3.547981	1.202088	-0.000142
1003	9.9699e+01	0.0754	-0.708517	0.000385	3.852093	1.305125	-0.000154
1004	9.9799e+01	0.0353	-0.857891	0.000375	3.750723	1.270779	-0.000150
1005	9.9898e+01	0.0016	-0.918448	0.000152	1.520563	0.515181	-0.000061
1006	9.9998e+01	-0.0337	-1.148565	0.000578	5.778140	1.957687	-0.000231
1007	1.0010e+02	-0.0722	-1.289865	0.000355	3.547981	1.202088	-0.000142
1008	1.0020e+02	-0.1155	-1.491722	0.000507	5.068544	1.717269	-0.000203
1009	1.0030e+02	-0.1524	-1.641096	0.000375	3.750723	1.270779	-0.000150
1010	1.0040e+02	-0.1893	-1.774321	0.000335	3.345239	1.133398	-0.000134
1011	1.0050e+02	-0.2310	-1.927732	0.000385	3.852093	1.305125	-0.000154
1012	1.0059e+02	-0.2791	-2.113441	0.000466	4.663061	1.579888	-0.000187
1013	1.0069e+02	-0.3064	-2.250703	0.000345	3.446610	1.167743	-0.000138
1014	1.0079e+02	-0.3545	-2.412189	0.000405	4.054835	1.373815	-0.000162
1015	1.0089e+02	-0.3898	-2.577711	0.000416	4.156206	1.408161	-0.000166
1016	1.0099e+02	-0.4267	-2.767457	0.000476	4.764431	1.614233	-0.000191
1017	1.0109e+02	-0.4781	-2.860311	0.000233	2.331530	0.789944	-0.000093
1018	1.0119e+02	-0.5198	-3.029870	0.000426	4.257577	1.442506	-0.000170
1019	1.0129e+02	-0.5535	-3.150984	0.000304	3.041126	1.030362	-0.000122
1020	1.0139e+02	-0.5936	-3.288247	0.000345	3.446610	1.167743	-0.000138
1021	1.0149e+02	-0.6385	-3.425510	0.000345	3.446610	1.167743	-0.000138
1022	1.0159e+02	-0.6738	-3.595069	0.000426	4.257577	1.442506	-0.000170
1023	1.0169e+02	-0.7075	-3.708109	0.000284	2.838385	0.961671	-0.000114
1024	1.0179e+02	-0.7524	-3.857483	0.000375	3.750723	1.270779	-0.000150
1025	1.0189e+02	-0.7893	-4.014931	0.000395	3.953464	1.339470	-0.000158
1026	1.0199e+02	-0.8358	-4.180454	0.000416	4.156206	1.408161	-0.000166
1027	1.0209e+02	-0.8631	-4.354051	0.000436	4.358948	1.476852	-0.000174
1028	1.0219e+02	-0.9080	-4.519573	0.000416	4.156206	1.408161	-0.000166
1029	1.0229e+02	-0.9481	-4.693170	0.000436	4.358948	1.476852	-0.000174
1030	1.0239e+02	-0.9930	-4.850619	0.000395	3.953464	1.339470	-0.000158
1031	1.0248e+02	-1.0331	-4.999993	0.000375	3.750723	1.270779	-0.000150
1032	1.0258e+02	-1.0620	-5.169552	0.000426	4.257577	1.442506	-0.000170
1033	1.0268e+02	-1.1117	-5.278555	0.000274	2.737014	0.927325	-0.000110
1034	1.0278e+02	-1.1470	-5.444078	0.000416	4.156206	1.408161	-0.000166
1035	1.0288e+02	-1.1903	-5.601526	0.000395	3.953464	1.339470	-0.000158
1036	1.0298e+02	-1.2337	-5.771086	0.000426	4.257577	1.442506	-0.000170
1037	1.0308e+02	-1.2754	-5.884125	0.000284	2.838385	0.961671	-0.000114
1038	1.0318e+02	-1.3091	-6.041574	0.000395	3.953464	1.339470	-0.000158
1039	1.0328e+02	-1.3572	-6.178836	0.000345	3.446610	1.167743	-0.000138
1040	1.0338e+02	-1.3893	-6.308025	0.000324	3.243868	1.099052	-0.000130
1041	1.0348e+02	-1.4262	-6.469510	0.000405	4.054835	1.373815	-0.000162
1042	1.0358e+02	-1.4807	-6.590624	0.000304	3.041126	1.030362	-0.000122
1043	1.0368e+02	-1.5080	-6.748072	0.000395	3.953464	1.339470	-0.000158
1044	1.0378e+02	-1.5545	-6.905521	0.000395	3.953464	1.339470	-0.000158
1045	1.0388e+02	-1.5850	-7.091229	0.000466	4.663061	1.579888	-0.000187
1046	1.0398e+02	-1.6331	-7.244640	0.000385	3.852093	1.305125	-0.000154
1047	1.0408e+02	-1.6780	-7.430348	0.000466	4.663061	1.579888	-0.000187
1048	1.0418e+02	-1.7021	-7.571648	0.000355	3.547981	1.202088	-0.000142
1049	1.0428e+02	-1.7438	-7.729096	0.000395	3.953464	1.339470	-0.000158
1050	1.0438e+02	-1.7839	-7.850210	0.000304	3.041126	1.030362	-0.000122
1051	1.0447e+02	-1.8240	-7.999584	0.000375	3.750723	1.270779	-0.000150
1052	1.0457e+02	-1.8705	-8.152996	0.000385	3.852093	1.305125	-0.000154
1053	1.0467e+02	-1.9058	-8.318518	0.000416	4.156206	1.408161	-0.000166
1054	1.0477e+02	-1.9524	-8.463855	0.000365	3.649352	1.236434	-0.000146
1055	1.0487e+02	-1.9876	-8.657638	0.000487	4.865802	1.648578	-0.000195
1056	1.0497e+02	-2.0342	-8.778752	0.000304	3.041126	1.030362	-0.000122
1057	1.0507e+02	-2.0614	-8.895829	0.000294	2.939756	0.996016	-0.000118
1058	1.0517e+02	-2.1080	-9.012906	0.000294	2.939756	0.996016	-0.000118
1059	1.0527e+02	-2.1513	-9.142094	0.000324	3.243868	1.099052	-0.000130
1060	1.0537e+02	-2.1866	-9.347988	0.000517	5.169915	1.751615	-0.000207
1061	1.0547e+02	-2.2315	-9.452953	0.000264	2.635643	0.892980	-0.000105
1062	1.0557e+02	-2.2636	-9.646736	0.000487	4.865802	1.648578	-0.000195
1063	1.0567e+02	-2.3069	-9.800147	0.000385	3.852093	1.305125	-0.000154
1064	1.0577e+02	-2.3406	-9.973744	0.000436	4.358948	1.476852	-0.000174
1065	1.0587e+02	-2.3823	-10.119081	0.000365	3.649352	1.236434	-0.000146
1066	1.0597e+02	-2.4336	-10.284603	0.000416	4.156206	1.408161	-0.000166
1067	1.0607e+02	-2.4609	-10.409755	0.000314	3.142497	1.064707	-0.000126
1068	1.0617e+02	-2.5058	-10.575277	0.000416	4.156206	1.408161	-0.000166
1069	1.0627e+02	-2.5395	-10.704465	0.000324	3.243868	1.099052	-0.000130
1070	1.0637e+02	-2.5860	-10.894211	0.000476	4.764431	1.614233	-0.000191
1071	1.0647e+02	-2.6213	-11.027436	0.000335	3.345239	1.133398	-0.000134
1072	1.0656e+02	-2.6710	-11.156625	0.000324	3.243868	1.099052	-0.000130
1073	1.0666e+02	-2.7192	-11.318110	0.000405	4.054835	1.373815	-0.000162
1074	1.0676e+02	-2.7497	-11.471521	0.000385	3.852093	1.305125	-0.000154
1075	1.0686e+02	-2.7882	-11.616858	0.000365	3.649352	1.236434	-0.000146
1076	1.0696e+02	-2.8251	-11.725861	0.000274	2.737014	0.927325	-0.000110
1077	1.0706e+02	-2.8603	-11.855049	0.000324	3.243868	1.099052	-0.000130
1078	1.0716e+02	-2.9037	-12.016535	0.000405	4.054835	1.373815	-0.000162
1079	1.0726e+02	-2.9486	-12.153797	0.000345	3.446610	1.167743	-0.000138
1080	1.0736e+02	-2.9919	-12.287023	0.000335	3.345239	1.133398	-0.000134
1081	1.0746e+02	-3.0288	-12.468694	0.000456	4.561690	1.545542	-0.000183
1082	1.0756e+02	-3.0689	-12.654402	0.000466	4.663061	1.579888	-0.000187
1083	1.0766e+02	-3.0962	-12.791665	0.000345	3.446610	1.167743	-0.000138
1084	1.0776e+02	-3.1523	-12.961224	0.000426	4.257577	1.442506	-0.000170
1085	1.0786e+02	-3.1796	-13.066190	0.000264	2.635643	0.892980	-0.000105
1086	1.0796e+02	-3.2245	-13.259972	0.000487	4.865802	1.648578	-0.000195
1087	1.0806e+02	-3.2502	-13.389161	0.000324	3.243868	1.099052	-0.000130
1088	1.0816e+02	-3.3031	-13.538535	0.000375	3.750723	1.270779	-0.000150
1089	1.0826e+02	-3.3496	-13.671760	0.000335	3.345239	1.133398	-0.000134
1090	1.0836e+02	-3.3833	-13.821134	0.000375	3.750723	1.270779	-0.000150
1091	1.0845e+02	-3.4218	-13.958397	0.000345	3.446610	1.167743	-0.000138
1092	1.0855e+02	-3.4571	-14.188514	0.000578	5.778140	1.957687	-0.000231
1093	1.0865e+02	-3.5036	-14.281368	0.000233	2.331530	0.789944	-0.000093
1094	1.0875e+02	-3.5341	-14.442853	0.000405	4.054835	1.373815	-0.000162
1095	1.0885e+02	-3.5871	-14.563967	0.000304	3.041126	1.030362	-0.000122
1096	1.0895e+02	-3.6175	-14.660858	0.000243	2.432901	0.824289	-0.000097
1097	1.0905e+02	-3.6657	-14.842530	0.000456	4.561690	1.545542	-0.000183
1098	1.0915e+02	-3.6962	-14.975755	0.000335	3.345239	1.133398	-0.000134
1099	1.0925e+02	-3.7395	-15.145315	0.000426	4.257577	1.442506	-0.000170
1100	1.0935e+02	-3.7748	-15.282577	0.000345	3.446610	1.167743	-0.000138
1101	1.0945e+02	-3.8197	-15.423877	0.000355	3.547981	1.202088	-0.000142
1102	1.0955e+02	-3.8518	-15.601511	0.000446	4.460319	1.511197	-0.000179
1103	1.0965e+02	-3.8951	-15.738774	0.000345	3.446610	1.167743	-0.000138
1104	1.0975e+02	-3.9288	-15.928519	0.000476	4.764431	1.614233	-0.000191
1105	1.0985e+02	-3.9833	-16.025410	0.000243	2.432901	0.824289	-0.000097
1106	1.0995e+02	-4.0186	-16.223230	0.000497	4.967173	1.682924	-0.000199
1107	1.1005e+02	-4.0619	-16.364530	0.000355	3.547981	1.202088	-0.000142
1108	1.1015e+02	-4.0988	-16.493718	0.000324	3.243868	1.099052	-0.000130
1109	1.1025e+02	-4.1421	-16.630981	0.000345	3.446610	1.167743	-0.000138
1110	1.1035e+02	-4.1806	-16.808615	0.000446	4.460319	1.511197	-0.000179
1111	1.1044e+02	-4.2127	-16.937803	0.000324	3.243868	1.099052	-0.000130
1112	1.1054e+02	-4.2705	-17.107363	0.000426	4.257577	1.442506	-0.000170
1113	1.1064e+02	-4.3009	-17.228477	0.000304	3.041126	1.030362	-0.000122
1114	1.1074e+02	-4.3459	-17.325368	0.000243	2.432901	0.824289	-0.000097
1115	1.1084e+02	-4.3828	-17.470705	0.000365	3.649352	1.236434	-0.000146
1116	1.1094e+02	-4.4116	-17.607968	0.000345	3.446610	1.167743	-0.000138
1117	1.1104e+02	-4.4630	-17.813861	0.000517	5.169915	1.751615	-0.000207
1118	1.1114e+02	-4.4967	-17.930938	0.000294	2.939756	0.996016	-0.000118
1119	1.1124e+02	-4.5432	-18.112609	0.000456	4.561690	1.545542	-0.000183
1120	1.1134e+02	-4.5737	-18.286206	0.000436	4.358948	1.476852	-0.000174
1121	1.1144e+02	-4.6170	-18.383098	0.000243	2.432901	0.824289	-0.000097
1122	1.1154e+02	-4.6619	-18.524397	0.000355	3.547981	1.202088	-0.000142
1123	1.1164e+02	-4.7020	-18.653586	0.000324	3.243868	1.099052	-0.000130
1124	1.1174e+02	-4.7469	-18.815071	0.000405	4.054835	1.373815	-0.000162
1125	1.1184e+02	-4.7774	-18.968482	0.000385	3.852093	1.305125	-0.000154
1126	1.1194e+02	-4.8159	-19.121893	0.000385	3.852093	1.305125	-0.000154
1127	1.1204e+02	-4.8544	-19.259156	0.000345	3.446610	1.167743	-0.000138
1128	1.1214e+02	-4.9025	-19.408530	0.000375	3.750723	1.270779	-0.000150
1129	1.1224e+02	-4.9394	-19.497347	0.000223	2.230159	0.755598	-0.000089
1130	1.1234e+02	-4.9667	-19.683055	0.000466	4.663061	1.579888	-0.000187
1131	1.1244e+02	-5.0148	-19.832429	0.000375	3.750723	1.270779	-0.000150
1132	1.1253e+02	-5.0549	-19.961618	0.000324	3.243868	1.099052	-0.000130
1133	1.1263e+02	-5.0983	-20.070620	0.000274	2.737014	0.927325	-0.000110
1134	1.1273e+02	-5.1319	-20.248254	0.000446	4.460319	1.511197	-0.000179
1135	1.1283e+02	-5.1769	-20.377443	0.000324	3.243868	1.099052	-0.000130
1136	1.1293e+02	-5.2138	-20.538928	0.000405	4.054835	1.373815	-0.000162
1137	1.1303e+02	-5.2523	-20.688302	0.000375	3.750723	1.270779	-0.000150
1138	1.1313e+02	-5.2940	-20.821528	0.000335	3.345239	1.133398	-0.000134
1139	1.1323e+02	-5.3277	-20.991087	0.000426	4.257577	1.442506	-0.000170
1140	1.1333e+02	-5.3758	-21.108164	0.000294	2.939756	0.996016	-0.000118
1141	1.1343e+02	-5.4191	-21.277724	0.000426	4.257577	1.442506	-0.000170
1142	1.1353e+02	-5.4480	-21.402875	0.000314	3.142497	1.064707	-0.000126
1143	1.1363e+02	-5.4913	-21.576472	0.000436	4.358948	1.476852	-0.000174
1144	1.1373e+02	-5.5394	-21.709697	0.000335	3.345239	1.133398	-0.000134
1145	1.1383e+02	-5.5747	-21.859071	0.000375	3.750723	1.270779	-0.000150
1146	1.1393e+02	-5.6100	-21.972111	0.000284	2.838385	0.961671	-0.000114
1147	1.1403e+02	-5.6533	-22.133597	0.000405	4.054835	1.373815	-0.000162
1148	1.1413e+02	-5.6982	-22.262785	0.000324	3.243868	1.099052	-0.000130
1149	1.1423e+02	-5.7399	-22.404085	0.000355	3.547981	1.202088	-0.000142
1150	1.1433e+02	-5.7768	-22.561533	0.000395	3.953464	1.339470	-0.000158
1151	1.1442e+02	-5.8073	-22.698796	0.000345	3.446610	1.167743	-0.000138
1152	1.1452e+02	-5.8538	-22.787613	0.000223	2.230159	0.755598	-0.000089
1153	1.1462e+02	-5.8875	-22.949098	0.000405	4.054835	1.373815	-0.000162
1154	1.1472e+02	-5.9276	-23.106546	0.000395	3.953464	1.339470	-0.000158
1155	1.1482e+02	-5.9694	-23.268032	0.000405	4.054835	1.373815	-0.000162
1156	1.1492e+02	-6.0127	-23.401257	0.000335	3.345239	1.133398	-0.000134
1157	1.1502e+02	-6.0496	-23.570817	0.000426	4.257577	1.442506	-0.000170
1158	1.1512e+02	-6.0945	-23.683857	0.000284	2.838385	0.961671	-0.000114
1159	1.1522e+02	-6.1314	-23.792859	0.000274	2.737014	0.927325	-0.000110
1160	1.1532e+02	-6.1763	-23.966456	0.000436	4.358948	1.476852	-0.000174
1161	1.1542e+02	-6.2084	-24.131979	0.000416	4.156206	1.408161	-0.000166
1162	1.1552e+02	-6.2565	-24.245019	0.000284	2.838385	0.961671	-0.000114
1163	1.1562e+02	-6.2934	-24.378244	0.000335	3.345239	1.133398	-0.000134
1164	1.1572e+02	-6.3303	-24.527618	0.000375	3.750723	1.270779	-0.000150
1165	1.1582e+02	-6.3768	-24.668918	0.000355	3.547981	1.202088	-0.000142
1166	1.1592e+02	-6.4153	-24.810218	0.000355	3.547981	1.202088	-0.000142
1167	1.1602e+02	-6.4458	-24.931332	0.000304	3.041126	1.030362	-0.000122
1168	1.1612e+02	-6.4907	-25.108966	0.000446	4.460319	1.511197	-0.000179
1169	1.1622e+02	-6.5228	-25.217968	0.000274	2.737014	0.927325	-0.000110
1170	1.1632e+02	-6.5677	-25.310823	0.000233	2.331530	0.789944	-0.000093
1171	1.1642e+02	-6.6062	-25.476345	0.000416	4.156206	1.408161	-0.000166
1172	1.1651e+02	-6.6415	-25.625719	0.000375	3.750723	1.270779	-0.000150
1173	1.1661e+02	-6.6832	-25.754907	0.000324	3.243868	1.099052	-0.000130
1174	1.1671e+02	-6.7298	-25.904281	0.000375	3.750723	1.270779	-0.000150
1175	1.1681e+02	-6.7618	-26.081915	0.000446	4.460319	1.511197	-0.000179
1176	1.1691e+02	-6.8068	-26.194955	0.000284	2.838385	0.961671	-0.000114
1177	1.1701e+02	-6.8388	-26.336255	0.000355	3.547981	1.202088	-0.000142
1178	1.1711e+02	-6.8950	-26.481592	0.000365	3.649352	1.236434	-0.000146
1179	1.1721e+02	-6.9207	-26.639040	0.000395	3.953464	1.339470	-0.000158
1180	1.1731e+02	-6.9672	-26.752080	0.000284	2.838385	0.961671	-0.000114
1181	1.1741e+02	-7.0137	-26.893380	0.000355	3.547981	1.202088	-0.000142
1182	1.1751e+02	-7.0458	-27.054865	0.000405	4.054835	1.373815	-0.000162
1183	1.1761e+02	-7.0955	-27.192128	0.000345	3.446610	1.167743	-0.000138
1184	1.1771e+02	-7.1228	-27.321316	0.000324	3.243868	1.099052	-0.000130
1185	1.1781e+02	-7.1677	-27.446467	0.000314	3.142497	1.064707	-0.000126
1186	1.1791e+02	-7.2062	-27.599878	0.000385	3.852093	1.305125	-0.000154
1187	1.1801e+02	-7.2351	-27.708881	0.000274	2.737014	0.927325	-0.000110
1188	1.1811e+02	-7.2848	-27.854218	0.000365	3.649352	1.236434	-0.000146
1189	1.1821e+02	-7.3217	-27.943035	0.000223	2.230159	0.755598	-0.000089
1190	1.1831e+02	-7.3602	-28.120669	0.000446	4.460319	1.511197	-0.000179
1191	1.1841e+02	-7.4051	-28.290229	0.000426	4.257577	1.442506	-0.000170
1192	1.1850e+02	-7.4388	-28.395194	0.000264	2.635643	0.892980	-0.000105
1193	1.1860e+02	-7.4805	-28.556680	0.000405	4.054835	1.373815	-0.000162
1194	1.1870e+02	-7.5206	-28.617237	0.000152	1.520563	0.515181	-0.000061
1195	1.1880e+02	-7.5543	-28.794871	0.000446	4.460319	1.511197	-0.000179
1196	1.1890e+02	-7.6089	-28.964430	0.000426	4.257577	1.442506	-0.000170
1197	1.1900e+02	-7.6426	-29.097656	0.000335	3.345239	1.133398	-0.000134
1198	1.1910e+02	-7.6875	-29.206658	0.000274	2.737014	0.927325	-0.000110
1199	1.1920e+02	-7.7276	-29.388330	0.000456	4.561690	1.545542	-0.000183
1200	1.1930e+02	-7.7597	-29.485221	0.000243	2.432901	0.824289	-0.000097
1201	1.1940e+02	-7.8062	-29.650743	0.000416	4.156206	1.408161	-0.000166
1202	1.1950e+02	-7.8431	-29.779932	0.000324	3.243868	1.099052	-0.000130
1203	1.1960e+02	-7.8800	-29.888934	0.000274	2.737014	0.927325	-0.000110
1204	1.1970e+02	-7.9201	-30.054457	0.000416	4.156206	1.408161	-0.000166
1205	1.1980e+02	-7.9682	-30.179608	0.000314	3.142497	1.064707	-0.000126
1206	1.1990e+02	-8.0115	-30.328982	0.000375	3.750723	1.270779	-0.000150
1207	1.2000e+02	-8.0340	-30.429911	0.000253	2.534272	0.858635	-0.000101
1208	1.2010e+02	-8.0805	-30.599470	0.000426	4.257577	1.442506	-0.000170
1209	1.2020e+02	-8.1126	-30.716547	0.000294	2.939756	0.996016	-0.000118
1210	1.2030e+02	-8.1623	-30.878033	0.000405	4.054835	1.373815	-0.000162
1211	1.2039e+02	-8.2089	-31.035481	0.000395	3.953464	1.339470	-0.000158
1212	1.2049e+02	-8.2409	-31.096038	0.000152	1.520563	0.515181	-0.000061
1213	1.2059e+02	-8.2778	-31.233301	0.000345	3.446610	1.167743	-0.000138
1214	1.2069e+02	-8.3276	-31.374600	0.000355	3.547981	1.202088	-0.000142
1215	1.2079e+02	-8.3645	-31.540123	0.000416	4.156206	1.408161	-0.000166
1216	1.2089e+02	-8.4030	-31.665274	0.000314	3.142497	1.064707	-0.000126
1217	1.2099e+02	-8.4318	-31.830797	0.000416	4.156206	1.408161	-0.000166
1218	1.2109e+02	-8.4880	-31.919614	0.000223	2.230159	0.755598	-0.000089
1219	1.2119e+02	-8.5201	-32.089173	0.000426	4.257577	1.442506	-0.000170
1220	1.2129e+02	-8.5602	-32.226436	0.000345	3.446610	1.167743	-0.000138
1221	1.2139e+02	-8.6051	-32.307179	0.000203	2.027418	0.686908	-0.000081
1222	1.2149e+02	-8.6420	-32.452516	0.000365	3.649352	1.236434	-0.000146
1223	1.2159e+02	-8.6773	-32.618038	0.000416	4.156206	1.408161	-0.000166
1224	1.2169e+02	-8.7094	-32.731078	0.000284	2.838385	0.961671	-0.000114
1225	1.2179e+02	-8.7575	-32.904675	0.000436	4.358948	1.476852	-0.000174
1226	1.2189e+02	-8.7960	-32.989455	0.000213	2.128789	0.721253	-0.000085
1227	1.2199e+02	-8.8425	-33.138829	0.000375	3.750723	1.270779	-0.000150
1228	1.2209e+02	-8.8794	-33.276091	0.000345	3.446610	1.167743	-0.000138
1229	1.2219e+02	-8.9131	-33.389131	0.000284	2.838385	0.961671	-0.000114
1230	1.2229e+02	-8.9548	-33.522357	0.000335	3.345239	1.133398	-0.000134
1231	1.2239e+02	-9.0046	-33.671731	0.000375	3.750723	1.270779	-0.000150
1232	1.2248e+02	-9.0366	-33.804956	0.000335	3.345239	1.133398	-0.000134
1233	1.2258e+02	-9.0832	-33.930107	0.000314	3.142497	1.064707	-0.000126
1234	1.2268e+02	-9.1185	-34.063333	0.000335	3.345239	1.133398	-0.000134
1235	1.2278e+02	-9.1586	-34.188484	0.000314	3.142497	1.064707	-0.000126
1236	1.2288e+02	-9.1971	-34.321709	0.000335	3.345239	1.133398	-0.000134
1237	1.2298e+02	-9.2388	-34.450898	0.000324	3.243868	1.099052	-0.000130
1238	1.2308e+02	-9.2869	-34.576049	0.000314	3.142497	1.064707	-0.000126
1239	1.2318e+02	-9.3206	-34.733497	0.000395	3.953464	1.339470	-0.000158
1240	1.2328e+02	-9.3511	-34.886908	0.000385	3.852093	1.305125	-0.000154
1241	1.2338e+02	-9.3928	-35.016097	0.000324	3.243868	1.099052	-0.000130
1242	1.2348e+02	-9.4361	-35.173545	0.000395	3.953464	1.339470	-0.000158
1243	1.2358e+02	-9.4746	-35.306771	0.000335	3.345239	1.133398	-0.000134
1244	1.2368e+02	-9.5147	-35.403662	0.000243	2.432901	0.824289	-0.000097
1245	1.2378e+02	-9.5532	-35.540924	0.000345	3.446610	1.167743	-0.000138
1246	1.2388e+02	-9.5965	-35.662039	0.000304	3.041126	1.030362	-0.000122
1247	1.2398e+02	-9.6334	-35.775078	0.000284	2.838385	0.961671	-0.000114
1248	1.2408e+02	-9.6783	-35.888118	0.000284	2.838385	0.961671	-0.000114
1249	1.2418e+02	-9.7152	-36.033455	0.000365	3.649352	1.236434	-0.000146
1250	1.2428e+02	-9.7457	-36.162643	0.000324	3.243868	1.099052	-0.000130
1251	1.2438e+02	-9.8051	-36.316055	0.000385	3.852093	1.305125	-0.000154
1252	1.2447e+02	-9.8259	-36.392760	0.000193	1.926047	0.652562	-0.000077
1253	1.2457e+02	-9.8741	-36.578468	0.000466	4.663061	1.579888	-0.000187
1254	1.2467e+02	-9.9045	-36.675360	0.000243	2.432901	0.824289	-0.000097
1255	1.2477e+02	-9.9511	-36.812622	0.000345	3.446610	1.167743	-0.000138
1256	1.2487e+02	-9.9960	-36.933736	0.000304	3.041126	1.030362	-0.000122
1257	1.2497e+02	-10.0377	-37.091185	0.000395	3.953464	1.339470	-0.000158
1258	1.2507e+02	-10.0730	-37.208262	0.000294	2.939756	0.996016	-0.000118
1259	1.2517e+02	-10.1147	-37.381858	0.000436	4.358948	1.476852	-0.000174
1260	1.2527e+02	-10.1516	-37.543344	0.000405	4.054835	1.373815	-0.000162
1261	1.2537e+02	-10.1885	-37.620049	0.000193	1.926047	0.652562	-0.000077
1262	1.2547e+02	-10.2286	-37.745201	0.000314	3.142497	1.064707	-0.000126
1263	1.2557e+02	-10.2767	-37.862278	0.000294	2.939756	0.996016	-0.000118
1264	1.2567e+02	-10.3104	-37.971280	0.000274	2.737014	0.927325	-0.000110
1265	1.2577e+02	-10.3553	-38.148914	0.000446	4.460319	1.511197	-0.000179
1266	1.2587e+02	-10.3938	-38.229657	0.000203	2.027418	0.686908	-0.000081
1267	1.2597e+02	-10.4371	-38.362882	0.000335	3.345239	1.133398	-0.000134
1268	1.2607e+02	-10.4724	-38.516294	0.000385	3.852093	1.305125	-0.000154
1269	1.2617e+02	-10.5157	-38.649519	0.000335	3.345239	1.133398	-0.000134
1270	1.2627e+02	-10.5430	-38.762559	0.000284	2.838385	0.961671	-0.000114
1271	1.2636e+02	-10.5960	-38.867524	0.000264	2.635643	0.892980	-0.000105
1272	1.2646e+02	-10.6361	-39.016898	0.000375	3.750723	1.270779	-0.000150
1273	1.2656e+02	-10.6810	-39.158198	0.000355	3.547981	1.202088	-0.000142
1274	1.2666e+02	-10.7083	-39.238941	0.000203	2.027418	0.686908	-0.000081
1275	1.2676e+02	-10.7500	-39.424649	0.000466	4.663061	1.579888	-0.000187
1276	1.2686e+02	-10.8013	-39.565949	0.000355	3.547981	1.202088	-0.000142
1277	1.2696e+02	-10.8302	-39.723397	0.000395	3.953464	1.339470	-0.000158
1278	1.2706e+02	-10.8687	-39.800103	0.000193	1.926047	0.652562	-0.000077
1279	1.2716e+02	-10.9104	-39.953514	0.000385	3.852093	1.305125	-0.000154
1280	1.2726e+02	-10.9425	-40.102888	0.000375	3.750723	1.270779	-0.000150
1281	1.2736e+02	-10.9906	-40.203816	0.000253	2.534272	0.858635	-0.000101
1282	1.2746e+02	-11.0307	-40.337042	0.000335	3.345239	1.133398	-0.000134
1283	1.2756e+02	-11.0644	-40.462193	0.000314	3.142497	1.064707	-0.000126
1284	1.2766e+02	-11.1045	-40.595418	0.000335	3.345239	1.133398	-0.000134
1285	1.2776e+02	-11.1542	-40.724607	0.000324	3.243868	1.099052	-0.000130
1286	1.2786e+02	-11.1879	-40.849758	0.000314	3.142497	1.064707	-0.000126
1287	1.2796e+02	-11.2312	-40.958761	0.000274	2.737014	0.927325	-0.000110
1288	1.2806e+02	-11.2617	-41.079875	0.000304	3.041126	1.030362	-0.000122
1289	1.2816e+02	-11.3114	-41.205026	0.000314	3.142497	1.064707	-0.000126
1290	1.2826e+02	-11.3499	-41.314029	0.000274	2.737014	0.927325	-0.000110
1291	1.2835e+02	-11.3981	-41.499737	0.000466	4.663061	1.579888	-0.000187
1292	1.2845e+02	-11.4302	-41.624888	0.000314	3.142497	1.064707	-0.000126
1293	1.2855e+02	-11.4638	-41.778299	0.000385	3.852093	1.305125	-0.000154
1294	1.2865e+02	-11.5072	-41.842893	0.000162	1.621934	0.549526	-0.000065
1295	1.2875e+02	-11.5489	-42.052824	0.000527	5.271286	1.785960	-0.000211
1296	1.2885e+02	-11.5842	-42.157790	0.000264	2.635643	0.892980	-0.000105
1297	1.2895e+02	-11.6179	-42.319275	0.000405	4.054835	1.373815	-0.000162
1298	1.2905e+02	-11.6676	-42.404055	0.000213	2.128789	0.721253	-0.000085
1299	1.2915e+02	-11.7029	-42.500946	0.000243	2.432901	0.824289	-0.000097
1300	1.2925e+02	-11.7478	-42.622061	0.000304	3.041126	1.030362	-0.000122
1301	1.2935e+02	-11.7959	-42.755286	0.000335	3.345239	1.133398	-0.000134
1302	1.2945e+02	-11.8200	-42.880437	0.000314	3.142497	1.064707	-0.000126
1303	1.2955e+02	-11.8697	-43.070183	0.000476	4.764431	1.614233	-0.000191
1304	1.2965e+02	-11.9066	-43.098443	0.000071	0.709596	0.240418	-0.000028
1305	1.2975e+02	-11.9467	-43.247817	0.000375	3.750723	1.270779	-0.000150
1306	1.2985e+02	-11.9884	-43.364894	0.000294	2.939756	0.996016	-0.000118
1307	1.2995e+02	-12.0301	-43.510230	0.000365	3.649352	1.236434	-0.000146
1308	1.3005e+02	-12.0654	-43.643456	0.000335	3.345239	1.133398	-0.000134
1309	1.3015e+02	-12.1087	-43.760533	0.000294	2.939756	0.996016	-0.000118
1310	1.3025e+02	-12.1585	-43.930093	0.000426	4.257577	1.442506	-0.000170
1311	1.3034e+02	-12.1906	-43.982575	0.000132	1.317821	0.446490	-0.000053
1312	1.3044e+02	-12.2162	-44.148098	0.000416	4.156206	1.408161	-0.000166
1313	1.3054e+02	-12.2628	-44.277286	0.000324	3.243868	1.099052	-0.000130
1314	1.3064e+02	-12.3029	-44.430697	0.000385	3.852093	1.305125	-0.000154
1315	1.3074e+02	-12.3446	-44.559886	0.000324	3.243868	1.099052	-0.000130
1316	1.3084e+02	-12.3702	-44.660814	0.000253	2.534272	0.858635	-0.000101
1317	1.3094e+02	-12.4232	-44.737520	0.000193	1.926047	0.652562	-0.000077
1318	1.3104e+02	-12.4649	-44.899005	0.000405	4.054835	1.373815	-0.000162
1319	1.3114e+02	-12.4986	-44.979748	0.000203	2.027418	0.686908	-0.000081
1320	1.3124e+02	-12.5451	-45.153345	0.000436	4.358948	1.476852	-0.000174
1321	1.3134e+02	-12.5820	-45.234087	0.000203	2.027418	0.686908	-0.000081
1322	1.3144e+02	-12.6221	-45.395573	0.000405	4.054835	1.373815	-0.000162
1323	1.3154e+02	-12.6686	-45.480353	0.000213	2.128789	0.721253	-0.000085
1324	1.3164e+02	-12.6991	-45.678172	0.000497	4.967173	1.682924	-0.000199
1325	1.3174e+02	-12.7408	-45.783138	0.000264	2.635643	0.892980	-0.000105
1326	1.3184e+02	-12.7841	-45.859843	0.000193	1.926047	0.652562	-0.000077
1327	1.3194e+02	-12.8290	-46.005180	0.000365	3.649352	1.236434	-0.000146
1328	1.3204e+02	-12.8595	-46.150517	0.000365	3.649352	1.236434	-0.000146
1329	1.3214e+02	-12.9044	-46.291817	0.000355	3.547981	1.202088	-0.000142
1330	1.3224e+02	-12.9430	-46.400820	0.000274	2.737014	0.927325	-0.000110
1331	1.3234e+02	-12.9702	-46.546156	0.000365	3.649352	1.236434	-0.000146
1332	1.3243e+02	-13.0232	-46.671308	0.000314	3.142497	1.064707	-0.000126
1333	1.3253e+02	-13.0520	-46.808570	0.000345	3.446610	1.167743	-0.000138
1334	1.3263e+02	-13.0986	-46.921610	0.000284	2.838385	0.961671	-0.000114
1335	1.3273e+02	-13.1419	-46.986204	0.000162	1.621934	0.549526	-0.000065
1336	1.3283e+02	-13.1852	-47.131541	0.000365	3.649352	1.236434	-0.000146
1337	1.3293e+02	-13.2189	-47.208247	0.000193	1.926047	0.652562	-0.000077
1338	1.3303e+02	-13.2622	-47.357621	0.000375	3.750723	1.270779	-0.000150
1339	1.3313e+02	-13.3023	-47.474698	0.000294	2.939756	0.996016	-0.000118
1340	1.3323e+02	-13.3456	-47.615997	0.000355	3.547981	1.202088	-0.000142
1341	1.3333e+02	-13.3825	-47.737112	0.000304	3.041126	1.030362	-0.000122
1342	1.3343e+02	-13.4210	-47.870337	0.000335	3.345239	1.133398	-0.000134
1343	1.3353e+02	-13.4611	-48.011637	0.000355	3.547981	1.202088	-0.000142
1344	1.3363e+02	-13.5028	-48.108528	0.000243	2.432901	0.824289	-0.000097
1345	1.3373e+02	-13.5494	-48.274051	0.000416	4.156206	1.408161	-0.000166
1346	1.3383e+02	-13.5782	-48.383053	0.000274	2.737014	0.927325	-0.000110
1347	1.3393e+02	-13.6167	-48.500130	0.000294	2.939756	0.996016	-0.000118
1348	1.3403e+02	-13.6552	-48.609133	0.000274	2.737014	0.927325	-0.000110
1349	1.3413e+02	-13.6921	-48.815027	0.000517	5.169915	1.751615	-0.000207
1350	1.3423e+02	-13.7435	-48.899807	0.000213	2.128789	0.721253	-0.000085
1351	1.3432e+02	-13.7772	-49.008809	0.000274	2.737014	0.927325	-0.000110
1352	1.3442e+02	-13.8092	-49.133960	0.000314	3.142497	1.064707	-0.000126
1353	1.3452e+02	-13.8477	-49.222777	0.000223	2.230159	0.755598	-0.000089
1354	1.3462e+02	-13.8894	-49.323706	0.000253	2.534272	0.858635	-0.000101
1355	1.3472e+02	-13.9424	-49.444820	0.000304	3.041126	1.030362	-0.000122
1356	1.3482e+02	-13.9745	-49.578045	0.000335	3.345239	1.133398	-0.000134
1357	1.3492e+02	-14.0178	-49.703197	0.000314	3.142497	1.064707	-0.000126
1358	1.3502e+02	-14.0611	-49.824311	0.000304	3.041126	1.030362	-0.000122
1359	1.3512e+02	-14.0964	-49.957536	0.000335	3.345239	1.133398	-0.000134
1360	1.3522e+02	-14.1381	-50.042316	0.000213	2.128789	0.721253	-0.000085
1361	1.3532e+02	-14.1798	-50.171504	0.000324	3.243868	1.099052	-0.000130
1362	1.3542e+02	-14.2247	-50.276470	0.000264	2.635643	0.892980	-0.000105
1363	1.3552e+02	-14.2664	-50.462178	0.000466	4.663061	1.579888	-0.000187
1364	1.3562e+02	-14.2969	-50.575218	0.000284	2.838385	0.961671	-0.000114
1365	1.3572e+02	-14.3258	-50.724592	0.000375	3.750723	1.270779	-0.000150
1366	1.3582e+02	-14.3771	-50.865892	0.000355	3.547981	1.202088	-0.000142
1367	1.3592e+02	-14.4140	-50.954709	0.000223	2.230159	0.755598	-0.000089
1368	1.3602e+02	-14.4525	-51.079860	0.000314	3.142497	1.064707	-0.000126
1369	1.3612e+02	-14.4975	-51.205011	0.000314	3.142497	1.064707	-0.000126
1370	1.3622e+02	-14.5199	-51.297865	0.000233	2.331530	0.789944	-0.000093
1371	1.3631e+02	-14.5841	-51.431091	0.000335	3.345239	1.133398	-0.000134
1372	1.3641e+02	-14.6065	-51.544131	0.000284	2.838385	0.961671	-0.000114
1373	1.3651e+02	-14.6579	-51.669282	0.000314	3.142497	1.064707	-0.000126
1374	1.3661e+02	-14.6964	-51.774247	0.000264	2.635643	0.892980	-0.000105
1375	1.3671e+02	-14.7349	-51.846916	0.000182	1.824676	0.618217	-0.000073
1376	1.3681e+02	-14.7734	-52.028587	0.000456	4.561690	1.545542	-0.000183
1377	1.3691e+02	-14.8055	-52.089144	0.000152	1.520563	0.515181	-0.000061
1378	1.3701e+02	-14.8568	-52.226406	0.000345	3.446610	1.167743	-0.000138
1379	1.3711e+02	-14.8937	-52.371743	0.000365	3.649352	1.236434	-0.000146
1380	1.3721e+02	-14.9434	-52.509006	0.000345	3.446610	1.167743	-0.000138
1381	1.3731e+02	-14.9771	-52.589749	0.000203	2.027418	0.686908	-0.000081
1382	1.3741e+02	-15.0076	-52.747197	0.000395	3.953464	1.339470	-0.000158
1383	1.3751e+02	-15.0525	-52.864274	0.000294	2.939756	0.996016	-0.000118
1384	1.3761e+02	-15.0910	-53.001537	0.000345	3.446610	1.167743	-0.000138
1385	1.3771e+02	-15.1327	-53.086316	0.000213	2.128789	0.721253	-0.000085
1386	1.3781e+02	-15.1728	-53.276062	0.000476	4.764431	1.614233	-0.000191
1387	1.3791e+02	-15.2065	-53.360842	0.000213	2.128789	0.721253	-0.000085
1388	1.3801e+02	-15.2530	-53.502141	0.000355	3.547981	1.202088	-0.000142
1389	1.3811e+02	-15.3012	-53.558661	0.000142	1.419192	0.480835	-0.000057
1390	1.3821e+02	-15.3429	-53.647478	0.000223	2.230159	0.755598	-0.000089
1391	1.3831e+02	-15.3686	-53.784741	0.000345	3.446610	1.167743	-0.000138
1392	1.3840e+02	-15.4183	-53.913929	0.000324	3.243868	1.099052	-0.000130
1393	1.3850e+02	-15.4632	-54.031006	0.000294	2.939756	0.996016	-0.000118
1394	1.3860e+02	-15.4985	-54.115786	0.000213	2.128789	0.721253	-0.000085
1395	1.3870e+02	-15.5354	-54.257086	0.000355	3.547981	1.202088	-0.000142
1396	1.3880e+02	-15.5707	-54.366088	0.000274	2.737014	0.927325	-0.000110
1397	1.3890e+02	-15.6092	-54.479128	0.000284	2.838385	0.961671	-0.000114
1398	1.3900e+02	-15.6461	-54.672911	0.000487	4.865802	1.648578	-0.000195
1399	1.3910e+02	-15.6910	-54.785951	0.000284	2.838385	0.961671	-0.000114
1400	1.3920e+02	-15.7327	-54.943399	0.000395	3.953464	1.339470	-0.000158
1401	1.3930e+02	-15.7760	-55.028179	0.000213	2.128789	0.721253	-0.000085
1402	1.3940e+02	-15.8097	-55.149293	0.000304	3.041126	1.030362	-0.000122
1403	1.3950e+02	-15.8466	-55.282518	0.000335	3.345239	1.133398	-0.000134
1404	1.3960e+02	-15.8947	-55.387484	0.000264	2.635643	0.892980	-0.000105
1405	1.3970e+02	-15.9284	-55.508598	0.000304	3.041126	1.030362	-0.000122
1406	1.3980e+02	-15.9621	-55.641823	0.000335	3.345239	1.133398	-0.000134
1407	1.3990e+02	-16.0135	-55.714492	0.000182	1.824676	0.618217	-0.000073
1408	1.4000e+02	-16.0487	-55.815420	0.000253	2.534272	0.858635	-0.000101
1409	1.4010e+02	-16.0985	-55.944608	0.000324	3.243868	1.099052	-0.000130
1410	1.4020e+02	-16.1257	-56.077834	0.000335	3.345239	1.133398	-0.000134
1411	1.4029e+02	-16.1723	-56.154540	0.000193	1.926047	0.652562	-0.000077
1412	1.4039e+02	-16.2108	-56.271616	0.000294	2.939756	0.996016	-0.000118
1413	1.4049e+02	-16.2493	-56.425028	0.000385	3.852093	1.305125	-0.000154
1414	1.4059e+02	-16.2765	-56.542105	0.000294	2.939756	0.996016	-0.000118
1415	1.4069e+02	-16.3279	-56.671293	0.000324	3.243868	1.099052	-0.000130
1416	1.4079e+02	-16.3664	-56.816630	0.000365	3.649352	1.236434	-0.000146
1417	1.4089e+02	-16.4081	-56.957930	0.000355	3.547981	1.202088	-0.000142
1418	1.4099e+02	-16.4418	-57.070969	0.000284	2.838385	0.961671	-0.000114
1419	1.4109e+02	-16.4851	-57.224381	0.000385	3.852093	1.305125	-0.000154
1420	1.4119e+02	-16.5252	-57.337420	0.000284	2.838385	0.961671	-0.000114
1421	1.4129e+02	-16.5701	-57.430274	0.000233	2.331530	0.789944	-0.000093
1422	1.4139e+02	-16.6134	-57.535240	0.000264	2.635643	0.892980	-0.000105
1423	1.4149e+02	-16.6503	-57.640205	0.000264	2.635643	0.892980	-0.000105
1424	1.4159e+02	-16.6792	-57.769394	0.000324	3.243868	1.099052	-0.000130
1425	1.4169e+02	-16.7273	-57.850137	0.000203	2.027418	0.686908	-0.000081
1426	1.4179e+02	-16.7690	-57.959139	0.000274	2.737014	0.927325	-0.000110
1427	1.4189e+02	-16.8027	-58.072179	0.000284	2.838385	0.961671	-0.000114
1428	1.4199e+02	-16.8477	-58.173107	0.000253	2.534272	0.858635	-0.000101
1429	1.4209e+02	-16.8797	-58.306333	0.000335	3.345239	1.133398	-0.000134
1430	1.4219e+02	-16.9263	-58.435521	0.000324	3.243868	1.099052	-0.000130
1431	1.4228e+02	-16.9648	-58.548561	0.000284	2.838385	0.961671	-0.000114
1432	1.4238e+02	-17.0033	-58.645452	0.000243	2.432901	0.824289	-0.000097
1433	1.4248e+02	-17.0386	-58.802901	0.000395	3.953464	1.339470	-0.000158
1434	1.4258e+02	-17.0787	-58.996683	0.000487	4.865802	1.648578	-0.000195
1435	1.4268e+02	-17.1252	-59.113760	0.000294	2.939756	0.996016	-0.000118
1436	1.4278e+02	-17.1701	-59.214688	0.000253	2.534272	0.858635	-0.000101
1437	1.4288e+02	-17.2054	-59.331765	0.000294	2.939756	0.996016	-0.000118
1438	1.4298e+02	-17.2439	-59.416545	0.000213	2.128789	0.721253	-0.000085
1439	1.4308e+02	-17.2824	-59.557845	0.000355	3.547981	1.202088	-0.000142
1440	1.4318e+02	-17.3257	-59.703182	0.000365	3.649352	1.236434	-0.000146
1441	1.4328e+02	-17.3610	-59.791999	0.000223	2.230159	0.755598	-0.000089
1442	1.4338e+02	-17.4011	-59.901002	0.000274	2.737014	0.927325	-0.000110
1443	1.4348e+02	-17.4428	-60.022116	0.000304	3.041126	1.030362	-0.000122
1444	1.4358e+02	-17.4910	-60.135155	0.000284	2.838385	0.961671	-0.000114
1445	1.4368e+02	-17.5278	-60.228010	0.000233	2.331530	0.789944	-0.000093
1446	1.4378e+02	-17.5663	-60.409681	0.000456	4.561690	1.545542	-0.000183
1447	1.4388e+02	-17.6081	-60.462163	0.000132	1.317821	0.446490	-0.000053
1448	1.4398e+02	-17.6450	-60.591352	0.000324	3.243868	1.099052	-0.000130
1449	1.4408e+02	-17.6899	-60.728614	0.000345	3.446610	1.167743	-0.000138
1450	1.4418e+02	-17.7188	-60.873951	0.000365	3.649352	1.236434	-0.000146
1451	1.4428e+02	-17.7540	-61.019288	0.000365	3.649352	1.236434	-0.000146
1452	1.4437e+02	-17.7893	-61.091957	0.000182	1.824676	0.618217	-0.000073
1453	1.4447e+02	-17.8391	-61.285739	0.000487	4.865802	1.648578	-0.000195
1454	1.4457e+02	-17.8728	-61.362445	0.000193	1.926047	0.652562	-0.000077
1455	1.4467e+02	-17.9161	-61.471447	0.000274	2.737014	0.927325	-0.000110
1456	1.4477e+02	-17.9642	-61.592561	0.000304	3.041126	1.030362	-0.000122
1457	1.4487e+02	-18.0011	-61.705601	0.000284	2.838385	0.961671	-0.000114
1458	1.4497e+02	-18.0444	-61.867087	0.000405	4.054835	1.373815	-0.000162
1459	1.4507e+02	-18.0781	-61.992238	0.000314	3.142497	1.064707	-0.000126
1460	1.4517e+02	-18.1198	-62.089129	0.000243	2.432901	0.824289	-0.000097
1461	1.4527e+02	-18.1679	-62.161798	0.000182	1.824676	0.618217	-0.000073
1462	1.4537e+02	-18.2048	-62.270800	0.000274	2.737014	0.927325	-0.000110
1463	1.4547e+02	-18.2417	-62.404026	0.000335	3.345239	1.133398	-0.000134
1464	1.4557e+02	-18.2786	-62.537251	0.000335	3.345239	1.133398	-0.000134
1465	1.4567e+02	-18.3203	-62.622031	0.000213	2.128789	0.721253	-0.000085
1466	1.4577e+02	-18.3524	-62.779479	0.000395	3.953464	1.339470	-0.000158
1467	1.4587e+02	-18.3973	-62.940965	0.000405	4.054835	1.373815	-0.000162
1468	1.4597e+02	-18.4310	-63.066116	0.000314	3.142497	1.064707	-0.000126
1469	1.4607e+02	-18.4888	-63.203379	0.000345	3.446610	1.167743	-0.000138
1470	1.4617e+02	-18.5145	-63.324493	0.000304	3.041126	1.030362	-0.000122
1471	1.4626e+02	-18.5594	-63.445607	0.000304	3.041126	1.030362	-0.000122
1472	1.4636e+02	-18.5947	-63.566721	0.000304	3.041126	1.030362	-0.000122
1473	1.4646e+02	-18.6396	-63.687835	0.000304	3.041126	1.030362	-0.000122
1474	1.4656e+02	-18.6845	-63.825097	0.000345	3.446610	1.167743	-0.000138
1475	1.4666e+02	-18.7166	-63.950249	0.000314	3.142497	1.064707	-0.000126
1476	1.4676e+02	-18.7471	-64.063288	0.000284	2.838385	0.961671	-0.000114
1477	1.4686e+02	-18.8096	-64.180365	0.000294	2.939756	0.996016	-0.000118
1478	1.4696e+02	-18.8401	-64.277257	0.000243	2.432901	0.824289	-0.000097
1479	1.4706e+02	-18.8754	-64.422594	0.000365	3.649352	1.236434	-0.000146
1480	1.4716e+02	-18.9187	-64.531596	0.000274	2.737014	0.927325	-0.000110
1481	1.4726e+02	-18.9620	-64.648673	0.000294	2.939756	0.996016	-0.000118
1482	1.4736e+02	-19.0021	-64.765750	0.000294	2.939756	0.996016	-0.000118
1483	1.4746e+02	-19.0406	-64.903013	0.000345	3.446610	1.167743	-0.000138
1484	1.4756e+02	-19.0856	-65.064498	0.000405	4.054835	1.373815	-0.000162
1485	1.4766e+02	-19.1144	-65.205798	0.000355	3.547981	1.202088	-0.000142
1486	1.4776e+02	-19.1594	-65.310763	0.000264	2.635643	0.892980	-0.000105
1487	1.4786e+02	-19.1962	-65.464175	0.000385	3.852093	1.305125	-0.000154
1488	1.4796e+02	-19.2315	-65.605474	0.000355	3.547981	1.202088	-0.000142
1489	1.4806e+02	-19.2797	-65.738700	0.000335	3.345239	1.133398	-0.000134
1490	1.4816e+02	-19.3230	-65.871925	0.000335	3.345239	1.133398	-0.000134
1491	1.4825e+02	-19.3503	-65.989002	0.000294	2.939756	0.996016	-0.000118
1492	1.4835e+02	-19.3952	-66.138376	0.000375	3.750723	1.270779	-0.000150
1493	1.4845e+02	-19.4337	-66.287750	0.000375	3.750723	1.270779	-0.000150
1494	1.4855e+02	-19.4593	-66.372530	0.000213	2.128789	0.721253	-0.000085
1495	1.4865e+02	-19.5123	-66.517867	0.000365	3.649352	1.236434	-0.000146
1496	1.4875e+02	-19.5540	-66.663204	0.000365	3.649352	1.236434	-0.000146
1497	1.4885e+02	-19.5909	-66.780281	0.000294	2.939756	0.996016	-0.000118
1498	1.4895e+02	-19.6294	-66.877172	0.000243	2.432901	0.824289	-0.000097
1499	1.4905e+02	-19.6823	-66.978100	0.000253	2.534272	0.858635	-0.000101
1500	1.4915e+02	-19.7048	-67.127474	0.000375	3.750723	1.270779	-0.000150
1501	1.4925e+02	-19.7529	-67.313183	0.000466	4.663061	1.579888	-0.000187
1502	1.4935e+02	-19.7946	-67.470631	0.000395	3.953464	1.339470	-0.000158
1503	1.4945e+02	-19.8379	-67.632116	0.000405	4.054835	1.373815	-0.000162
1504	1.4955e+02	-19.8748	-67.745156	0.000284	2.838385	0.961671	-0.000114
1505	1.4965e+02	-19.9101	-67.870307	0.000314	3.142497	1.064707	-0.000126
1506	1.4975e+02	-19.9599	-67.991422	0.000304	3.041126	1.030362	-0.000122
1507	1.4985e+02	-19.9903	-68.156944	0.000416	4.156206	1.408161	-0.000166
1508	1.4995e+02	-19.9502	-68.084276	0.000182	1.824676	0.618217	0.000073
1509	1.5005e+02	-19.9166	-68.088313	-0.000010	-0.101371	-0.034345	-0.000004
1510	1.5015e+02	-19.8748	-68.003533	0.000213	2.128789	0.721253	0.000085
1511	1.5025e+02	-19.8395	-67.934902	0.000172	1.723305	0.583872	0.000069
1512	1.5034e+02	-19.7978	-67.898567	0.000091	0.912338	0.309108	0.000037
1513	1.5044e+02	-19.7513	-67.777453	0.000304	3.041126	1.030362	0.000122
1514	1.5054e+02	-19.7064	-67.773416	0.000010	0.101371	0.034345	0.000004
1515	1.5064e+02	-19.6679	-67.664414	0.000274	2.737014	0.927325	0.000110
1516	1.5074e+02	-19.6326	-67.603857	0.000152	1.520563	0.515181	0.000061
1517	1.5084e+02	-19.6005	-67.498891	0.000264	2.635643	0.892980	0.000105
1518	1.5094e+02	-19.5556	-67.446408	0.000132	1.317821	0.446490	0.000053
1519	1.5104e+02	-19.5059	-67.430260	0.000041	0.405484	0.137382	0.000016
1520	1.5114e+02	-19.4706	-67.373740	0.000142	1.419192	0.480835	0.000057
1521	1.5124e+02	-19.4305	-67.321257	0.000132	1.317821	0.446490	0.000053
1522	1.5134e+02	-19.3888	-67.228403	0.000233	2.331530	0.789944	0.000093
1523	1.5144e+02	-19.3470	-67.163809	0.000162	1.621934	0.549526	0.000065
1524	1.5154e+02	-19.3166	-67.091140	0.000182	1.824676	0.618217	0.000073
1525	1.5164e+02	-19.2749	-66.986175	0.000264	2.635643	0.892980	0.000105
1526	1.5174e+02	-19.2299	-66.921581	0.000162	1.621934	0.549526	0.000065
1527	1.5184e+02	-19.1979	-66.820652	0.000253	2.534272	0.858635	0.000101
1528	1.5194e+02	-19.1594	-66.764132	0.000142	1.419192	0.480835	0.000057
1529	1.5204e+02	-19.1160	-66.663204	0.000253	2.534272	0.858635	0.000101
1530	1.5214e+02	-19.0888	-66.578424	0.000213	2.128789	0.721253	0.000085
1531	1.5224e+02	-19.0406	-66.513830	0.000162	1.621934	0.549526	0.000065
1532	1.5233e+02	-19.0037	-66.469421	0.000112	1.115080	0.377799	0.000045
1533	1.5243e+02	-18.9636	-66.372530	0.000243	2.432901	0.824289	0.000097
1534	1.5253e+02	-18.9235	-66.219119	0.000385	3.852093	1.305125	0.000154
1535	1.5263e+02	-18.8818	-66.146450	0.000182	1.824676	0.618217	0.000073
1536	1.5273e+02	-18.8289	-66.077819	0.000172	1.723305	0.583872	0.000069
1537	1.5283e+02	-18.7968	-65.993039	0.000213	2.128789	0.721253	0.000085
1538	1.5293e+02	-18.7519	-65.928445	0.000162	1.621934	0.549526	0.000065
1539	1.5303e+02	-18.7086	-65.880000	0.000122	1.216451	0.412145	0.000049
1540	1.5313e+02	-18.6765	-65.758885	0.000304	3.041126	1.030362	0.000122
1541	1.5323e+02	-18.6396	-65.702366	0.000142	1.419192	0.480835	0.000057
1542	1.5333e+02	-18.5995	-65.617586	0.000213	2.128789	0.721253	0.000085
1543	1.5343e+02	-18.5626	-65.524732	0.000233	2.331530	0.789944	0.000093
1544	1.5353e+02	-18.5225	-65.443989	0.000203	2.027418	0.686908	0.000081
1545	1.5363e+02	-18.4759	-65.371320	0.000182	1.824676	0.618217	0.000073
1546	1.5373e+02	-18.4471	-65.262318	0.000274	2.737014	0.927325	0.000110
1547	1.5383e+02	-18.3909	-65.157352	0.000264	2.635643	0.892980	0.000105
1548	1.5393e+02	-18.3524	-65.088721	0.000172	1.723305	0.583872	0.000069
1549	1.5403e+02	-18.3219	-65.024127	0.000162	1.621934	0.549526	0.000065
1550	1.5413e+02	-18.2770	-64.915124	0.000274	2.737014	0.927325	0.000110
1551	1.5422e+02	-18.2481	-64.806121	0.000274	2.737014	0.927325	0.000110
1552	1.5432e+02	-18.2064	-64.733453	0.000182	1.824676	0.618217	0.000073
1553	1.5442e+02	-18.1551	-64.620413	0.000284	2.838385	0.961671	0.000114
1554	1.5452e+02	-18.1246	-64.555819	0.000162	1.621934	0.549526	0.000065
1555	1.5462e+02	-18.0717	-64.438742	0.000294	2.939756	0.996016	0.000118
1556	1.5472e+02	-18.0444	-64.374148	0.000162	1.621934	0.549526	0.000065
1557	1.5482e+02	-17.9963	-64.257071	0.000294	2.939756	0.996016	0.000118
1558	1.5492e+02	-17.9594	-64.152105	0.000264	2.635643	0.892980	0.000105
1559	1.5502e+02	-17.9225	-64.107697	0.000112	1.115080	0.377799	0.000045
1560	1.5512e+02	-17.8760	-64.035029	0.000182	1.824676	0.618217	0.000073
1561	1.5522e+02	-17.8407	-63.926026	0.000274	2.737014	0.927325	0.000110
1562	1.5532e+02	-17.7990	-63.792800	0.000335	3.345239	1.133398	0.000134
1563	1.5542e+02	-17.7669	-63.728206	0.000162	1.621934	0.549526	0.000065
1564	1.5552e+02	-17.7236	-63.675723	0.000132	1.317821	0.446490	0.000053
1565	1.5562e+02	-17.6835	-63.562684	0.000284	2.838385	0.961671	0.000114
1566	1.5572e+02	-17.6498	-63.485978	0.000193	1.926047	0.652562	0.000077
1567	1.5582e+02	-17.6032	-63.348715	0.000345	3.446610	1.167743	0.000138
1568	1.5592e+02	-17.5631	-63.304307	0.000112	1.115080	0.377799	0.000045
1569	1.5602e+02	-17.5166	-63.203379	0.000253	2.534272	0.858635	0.000101
1570	1.5612e+02	-17.4845	-63.090339	0.000284	2.838385	0.961671	0.000114
1571	1.5622e+02	-17.4444	-63.005559	0.000213	2.128789	0.721253	0.000085
1572	1.5631e+02	-17.4043	-62.928853	0.000193	1.926047	0.652562	0.000077
1573	1.5641e+02	-17.3594	-62.771405	0.000395	3.953464	1.339470	0.000158
1574	1.5651e+02	-17.3225	-62.706811	0.000162	1.621934	0.549526	0.000065
1575	1.5661e+02	-17.2856	-62.630105	0.000193	1.926047	0.652562	0.000077
1576	1.5671e+02	-17.2407	-62.517065	0.000284	2.838385	0.961671	0.000114
1577	1.5681e+02	-17.2118	-62.448434	0.000172	1.723305	0.583872	0.000069
1578	1.5691e+02	-17.1717	-62.303097	0.000365	3.649352	1.236434	0.000146
1579	1.5701e+02	-17.1268	-62.226392	0.000193	1.926047	0.652562	0.000077
1580	1.5711e+02	-17.0883	-62.149686	0.000193	1.926047	0.652562	0.000077
1581	1.5721e+02	-17.0402	-62.044721	0.000264	2.635643	0.892980	0.000105
1582	1.5731e+02	-17.0129	-61.972052	0.000182	1.824676	0.618217	0.000073
1583	1.5741e+02	-16.9696	-61.842864	0.000324	3.243868	1.099052	0.000130
1584	1.5751e+02	-16.9166	-61.782307	0.000152	1.520563	0.515181	0.000061
1585	1.5761e+02	-16.8862	-61.661193	0.000304	3.041126	1.030362	0.000122
1586	1.5771e+02	-16.8444	-61.523930	0.000345	3.446610	1.167743	0.000138
1587	1.5781e+02	-16.8027	-61.491633	0.000081	0.810967	0.274763	0.000032
1588	1.5791e+02	-16.7594	-61.431076	0.000152	1.520563	0.515181	0.000061
1589	1.5801e+02	-16.7209	-61.285739	0.000365	3.649352	1.236434	0.000146
1590	1.5811e+02	-16.6792	-61.164625	0.000304	3.041126	1.030362	0.000122
1591	1.5821e+02	-16.6391	-61.079845	0.000213	2.128789	0.721253	0.000085
1592	1.5830e+02	-16.6038	-60.974880	0.000264	2.635643	0.892980	0.000105
1593	1.5840e+02	-16.5589	-60.861840	0.000284	2.838385	0.961671	0.000114
1594	1.5850e+02	-16.5252	-60.797246	0.000162	1.621934	0.549526	0.000065
1595	1.5860e+02	-16.4899	-60.696317	0.000253	2.534272	0.858635	0.000101
1596	1.5870e+02	-16.4546	-60.583277	0.000284	2.838385	0.961671	0.000114
1597	1.5880e+02	-16.4145	-60.502535	0.000203	2.027418	0.686908	0.000081
1598	1.5890e+02	-16.3760	-60.377384	0.000314	3.142497	1.064707	0.000126
1599	1.5900e+02	-16.3199	-60.272418	0.000264	2.635643	0.892980	0.000105
1600	1.5910e+02	-16.2910	-60.223972	0.000122	1.216451	0.412145	0.000049
1601	1.5920e+02	-16.2445	-60.094784	0.000324	3.243868	1.099052	0.000130
1602	1.5930e+02	-16.2092	-59.973670	0.000304	3.041126	1.030362	0.000122
1603	1.5940e+02	-16.1739	-59.888890	0.000213	2.128789	0.721253	0.000085
1604	1.5950e+02	-16.1322	-59.775850	0.000284	2.838385	0.961671	0.000114
1605	1.5960e+02	-16.0889	-59.751627	0.000061	0.608225	0.206072	0.000024
1606	1.5970e+02	-16.0455	-59.630513	0.000304	3.041126	1.030362	0.000122
1607	1.5980e+02	-16.0151	-59.553808	0.000193	1.926047	0.652562	0.000077
1608	1.5990e+02	-15.9637	-59.372137	0.000456	4.561690	1.545542	0.000183
1609	1.6000e+02	-15.9364	-59.303505	0.000172	1.723305	0.583872	0.000069
1610	1.6010e+02	-15.8931	-59.238911	0.000162	1.621934	0.549526	0.000065
1611	1.6019e+02	-15.8530	-59.093574	0.000365	3.649352	1.236434	0.000146
1612	1.6029e+02	-15.8097	-59.000720	0.000233	2.331530	0.789944	0.000093
1613	1.6039e+02	-15.7664	-58.924015	0.000193	1.926047	0.652562	0.000077
1614	1.6049e+02	-15.7343	-58.815012	0.000274	2.737014	0.927325	0.000110
1615	1.6059e+02	-15.6942	-58.697935	0.000294	2.939756	0.996016	0.000118
1616	1.6069e+02	-15.6525	-58.601044	0.000243	2.432901	0.824289	0.000097
1617	1.6079e+02	-15.6172	-58.500115	0.000253	2.534272	0.858635	0.000101
1618	1.6089e+02	-15.5739	-58.431484	0.000172	1.723305	0.583872	0.000069
1619	1.6099e+02	-15.5370	-58.286147	0.000365	3.649352	1.236434	0.000146
1620	1.6109e+02	-15.4953	-58.213479	0.000182	1.824676	0.618217	0.000073
1621	1.6119e+02	-15.4600	-58.092365	0.000304	3.041126	1.030362	0.000122
1622	1.6129e+02	-15.4135	-58.031808	0.000152	1.520563	0.515181	0.000061
1623	1.6139e+02	-15.3653	-57.955102	0.000193	1.926047	0.652562	0.000077
1624	1.6149e+02	-15.3333	-57.825914	0.000324	3.243868	1.099052	0.000130
1625	1.6159e+02	-15.2932	-57.733060	0.000233	2.331530	0.789944	0.000093
1626	1.6169e+02	-15.2498	-57.607908	0.000314	3.142497	1.064707	0.000126
1627	1.6179e+02	-15.2161	-57.486794	0.000304	3.041126	1.030362	0.000122
1628	1.6189e+02	-15.1696	-57.365680	0.000304	3.041126	1.030362	0.000122
1629	1.6199e+02	-15.1391	-57.264752	0.000253	2.534272	0.858635	0.000101
1630	1.6209e+02	-15.0942	-57.192083	0.000182	1.824676	0.618217	0.000073
1631	1.6219e+02	-15.0525	-57.095192	0.000243	2.432901	0.824289	0.000097
1632	1.6228e+02	-15.0108	-56.937744	0.000395	3.953464	1.339470	0.000158
1633	1.6238e+02	-14.9739	-56.881224	0.000142	1.419192	0.480835	0.000057
1634	1.6248e+02	-14.9322	-56.800481	0.000203	2.027418	0.686908	0.000081
1635	1.6258e+02	-14.9001	-56.691479	0.000274	2.737014	0.927325	0.000110
1636	1.6268e+02	-14.8520	-56.546142	0.000365	3.649352	1.236434	0.000146
1637	1.6278e+02	-14.8279	-56.425028	0.000304	3.041126	1.030362	0.000122
1638	1.6288e+02	-14.7718	-56.368508	0.000142	1.419192	0.480835	0.000057
1639	1.6298e+02	-14.7301	-56.271616	0.000243	2.432901	0.824289	0.000097
1640	1.6308e+02	-14.6932	-56.158577	0.000284	2.838385	0.961671	0.000114
1641	1.6318e+02	-14.6482	-56.065723	0.000233	2.331530	0.789944	0.000093
1642	1.6328e+02	-14.6130	-55.993054	0.000182	1.824676	0.618217	0.000073
1643	1.6338e+02	-14.5745	-55.888089	0.000264	2.635643	0.892980	0.000105
1644	1.6348e+02	-14.5408	-55.730640	0.000395	3.953464	1.339470	0.000158
1645	1.6358e+02	-14.4830	-55.637786	0.000233	2.331530	0.789944	0.000093
1646	1.6368e+02	-14.4541	-55.512635	0.000314	3.142497	1.064707	0.000126
1647	1.6378e+02	-14.4221	-55.431892	0.000203	2.027418	0.686908	0.000081
1648	1.6388e+02	-14.3819	-55.314815	0.000294	2.939756	0.996016	0.000118
1649	1.6398e+02	-14.3386	-55.213887	0.000253	2.534272	0.858635	0.000101
1650	1.6408e+02	-14.2921	-55.108921	0.000264	2.635643	0.892980	0.000105
1651	1.6418e+02	-14.2664	-55.020104	0.000223	2.230159	0.755598	0.000089
1652	1.6427e+02	-14.2183	-54.862656	0.000395	3.953464	1.339470	0.000158
1653	1.6437e+02	-14.1798	-54.794025	0.000172	1.723305	0.583872	0.000069
1654	1.6447e+02	-14.1317	-54.697134	0.000243	2.432901	0.824289	0.000097
1655	1.6457e+02	-14.1028	-54.559871	0.000345	3.446610	1.167743	0.000138
1656	1.6467e+02	-14.0611	-54.454905	0.000264	2.635643	0.892980	0.000105
1657	1.6477e+02	-14.0146	-54.366088	0.000223	2.230159	0.755598	0.000089
1658	1.6487e+02	-13.9841	-54.289383	0.000193	1.926047	0.652562	0.000077
1659	1.6497e+02	-13.9328	-54.152120	0.000345	3.446610	1.167743	0.000138
1660	1.6507e+02	-13.8911	-54.079452	0.000182	1.824676	0.618217	0.000073
1661	1.6517e+02	-13.8493	-54.002746	0.000193	1.926047	0.652562	0.000077
1662	1.6527e+02	-13.8157	-53.833186	0.000426	4.257577	1.442506	0.000170
1663	1.6537e+02	-13.7788	-53.740332	0.000233	2.331530	0.789944	0.000093
1664	1.6547e+02	-13.7435	-53.639404	0.000253	2.534272	0.858635	0.000101
1665	1.6557e+02	-13.6905	-53.457733	0.000456	4.561690	1.545542	0.000183
1666	1.6567e+02	-13.6568	-53.405250	0.000132	1.317821	0.446490	0.000053
1667	1.6577e+02	-13.6183	-53.308359	0.000243	2.432901	0.824289	0.000097
1668	1.6587e+02	-13.5798	-53.187245	0.000304	3.041126	1.030362	0.000122
1669	1.6597e+02	-13.5349	-53.086316	0.000253	2.534272	0.858635	0.000101
1670	1.6607e+02	-13.4948	-52.949054	0.000345	3.446610	1.167743	0.000138
1671	1.6616e+02	-13.4627	-52.836014	0.000284	2.838385	0.961671	0.000114
1672	1.6626e+02	-13.4210	-52.743160	0.000233	2.331530	0.789944	0.000093
1673	1.6636e+02	-13.3841	-52.597823	0.000365	3.649352	1.236434	0.000146
1674	1.6646e+02	-13.3376	-52.565526	0.000081	0.810967	0.274763	0.000032
1675	1.6656e+02	-13.3055	-52.460560	0.000264	2.635643	0.892980	0.000105
1676	1.6666e+02	-13.2542	-52.379818	0.000203	2.027418	0.686908	0.000081
1677	1.6676e+02	-13.2221	-52.291001	0.000223	2.230159	0.755598	0.000089
1678	1.6686e+02	-13.1868	-52.141627	0.000375	3.750723	1.270779	0.000150
1679	1.6696e+02	-13.1387	-52.028587	0.000284	2.838385	0.961671	0.000114
1680	1.6706e+02	-13.0937	-51.875176	0.000385	3.852093	1.305125	0.000154
1681	1.6716e+02	-13.0569	-51.762136	0.000284	2.838385	0.961671	0.000114
1682	1.6726e+02	-13.0151	-51.677356	0.000213	2.128789	0.721253	0.000085
1683	1.6736e+02	-12.9847	-51.552205	0.000314	3.142497	1.064707	0.000126
1684	1.6746e+02	-12.9397	-51.431091	0.000304	3.041126	1.030362	0.000122
1685	1.6756e+02	-12.9044	-51.346311	0.000213	2.128789	0.721253	0.000085
1686	1.6766e+02	-12.8740	-51.221160	0.000314	3.142497	1.064707	0.000126
1687	1.6776e+02	-12.8194	-51.136380	0.000213	2.128789	0.721253	0.000085
1688	1.6786e+02	-12.7873	-51.035451	0.000253	2.534272	0.858635	0.000101
1689	1.6796e+02	-12.7472	-50.878003	0.000395	3.953464	1.339470	0.000158
1690	1.6806e+02	-12.7023	-50.777075	0.000253	2.534272	0.858635	0.000101
1691	1.6816e+02	-12.6606	-50.672109	0.000264	2.635643	0.892980	0.000105
1692	1.6825e+02	-12.6205	-50.550995	0.000304	3.041126	1.030362	0.000122
1693	1.6835e+02	-12.5916	-50.450067	0.000253	2.534272	0.858635	0.000101
1694	1.6845e+02	-12.5451	-50.353175	0.000243	2.432901	0.824289	0.000097
1695	1.6855e+02	-12.4986	-50.264359	0.000223	2.230159	0.755598	0.000089
1696	1.6865e+02	-12.4761	-50.127096	0.000345	3.446610	1.167743	0.000138
1697	1.6875e+02	-12.4264	-49.997908	0.000324	3.243868	1.099052	0.000130
1698	1.6885e+02	-12.3783	-49.901016	0.000243	2.432901	0.824289	0.000097
1699	1.6895e+02	-12.3430	-49.751642	0.000375	3.750723	1.270779	0.000150
1700	1.6905e+02	-12.3013	-49.683011	0.000172	1.723305	0.583872	0.000069
1701	1.6915e+02	-12.2660	-49.541711	0.000355	3.547981	1.202088	0.000142
1702	1.6925e+02	-12.2243	-49.428671	0.000284	2.838385	0.961671	0.000114
1703	1.6935e+02	-12.1809	-49.343892	0.000213	2.128789	0.721253	0.000085
1704	1.6945e+02	-12.1456	-49.251037	0.000233	2.331530	0.789944	0.000093
1705	1.6955e+02	-12.0991	-49.125886	0.000314	3.142497	1.064707	0.000126
1706	1.6965e+02	-12.0574	-49.012846	0.000284	2.838385	0.961671	0.000114
1707	1.6975e+02	-12.0141	-48.879621	0.000335	3.345239	1.133398	0.000134
1708	1.6985e+02	-11.9852	-48.774655	0.000264	2.635643	0.892980	0.000105
1709	1.6995e+02	-11.9483	-48.653541	0.000304	3.041126	1.030362	0.000122
1710	1.7005e+02	-11.9146	-48.504167	0.000375	3.750723	1.270779	0.000150
1711	1.7015e+02	-11.8665	-48.447647	0.000142	1.419192	0.480835	0.000057
1712	1.7024e+02	-11.8264	-48.342682	0.000264	2.635643	0.892980	0.000105
1713	1.7034e+02	-11.7815	-48.225605	0.000294	2.939756	0.996016	0.000118
1714	1.7044e+02	-11.7334	-48.108528	0.000294	2.939756	0.996016	0.000118
1715	1.7054e+02	-11.7045	-47.934931	0.000436	4.358948	1.476852	0.000174
1716	1.7064e+02	-11.6644	-47.870337	0.000162	1.621934	0.549526	0.000065
1717	1.7074e+02	-11.6243	-47.725000	0.000365	3.649352	1.236434	0.000146
1718	1.7084e+02	-11.5906	-47.595812	0.000324	3.243868	1.099052	0.000130
1719	1.7094e+02	-11.5473	-47.474698	0.000304	3.041126	1.030362	0.000122
1720	1.7104e+02	-11.5136	-47.389918	0.000213	2.128789	0.721253	0.000085
1721	1.7114e+02	-11.4687	-47.264767	0.000314	3.142497	1.064707	0.000126
1722	1.7124e+02	-11.4286	-47.167875	0.000243	2.432901	0.824289	0.000097
1723	1.7134e+02	-11.3917	-47.014464	0.000385	3.852093	1.305125	0.000154
1724	1.7144e+02	-11.3499	-46.949870	0.000162	1.621934	0.549526	0.000065
1725	1.7154e+02	-11.3211	-46.796459	0.000385	3.852093	1.305125	0.000154
1726	1.7164e+02	-11.2681	-46.715716	0.000203	2.027418	0.686908	0.000081
1727	1.7174e+02	-11.2344	-46.546156	0.000426	4.257577	1.442506	0.000170
1728	1.7184e+02	-11.1911	-46.497711	0.000122	1.216451	0.412145	0.000049
1729	1.7194e+02	-11.1606	-46.336225	0.000405	4.054835	1.373815	0.000162
1730	1.7204e+02	-11.0981	-46.219148	0.000294	2.939756	0.996016	0.000118
1731	1.7213e+02	-11.0708	-46.134369	0.000213	2.128789	0.721253	0.000085
1732	1.7223e+02	-11.0323	-46.057663	0.000193	1.926047	0.652562	0.000077
1733	1.7233e+02	-10.9906	-45.884066	0.000436	4.358948	1.476852	0.000174
1734	1.7243e+02	-10.9441	-45.783138	0.000253	2.534272	0.858635	0.000101
1735	1.7253e+02	-10.9024	-45.637801	0.000365	3.649352	1.236434	0.000146
1736	1.7263e+02	-10.8687	-45.504575	0.000335	3.345239	1.133398	0.000134
1737	1.7273e+02	-10.8222	-45.379424	0.000314	3.142497	1.064707	0.000126
1738	1.7283e+02	-10.7965	-45.302719	0.000193	1.926047	0.652562	0.000077
1739	1.7293e+02	-10.7500	-45.173530	0.000324	3.243868	1.099052	0.000130
1740	1.7303e+02	-10.7115	-45.028193	0.000365	3.649352	1.236434	0.000146
1741	1.7313e+02	-10.6746	-44.959562	0.000172	1.723305	0.583872	0.000069
1742	1.7323e+02	-10.6248	-44.850559	0.000274	2.737014	0.927325	0.000110
1743	1.7333e+02	-10.5847	-44.725408	0.000314	3.142497	1.064707	0.000126
1744	1.7343e+02	-10.5542	-44.571997	0.000385	3.852093	1.305125	0.000154
1745	1.7353e+02	-10.5109	-44.426660	0.000365	3.649352	1.236434	0.000146
1746	1.7363e+02	-10.4772	-44.382252	0.000112	1.115080	0.377799	0.000045
1747	1.7373e+02	-10.4323	-44.249026	0.000335	3.345239	1.133398	0.000134
1748	1.7383e+02	-10.3890	-44.148098	0.000253	2.534272	0.858635	0.000101
1749	1.7393e+02	-10.3489	-43.990650	0.000395	3.953464	1.339470	0.000158
1750	1.7403e+02	-10.3120	-43.893758	0.000243	2.432901	0.824289	0.000097
1751	1.7413e+02	-10.2687	-43.744384	0.000375	3.750723	1.270779	0.000150
1752	1.7422e+02	-10.2318	-43.663642	0.000203	2.027418	0.686908	0.000081
1753	1.7432e+02	-10.1917	-43.498119	0.000416	4.156206	1.408161	0.000166
1754	1.7442e+02	-10.1612	-43.417376	0.000203	2.027418	0.686908	0.000081
1755	1.7452e+02	-10.1163	-43.268002	0.000375	3.750723	1.270779	0.000150
1756	1.7462e+02	-10.0650	-43.183222	0.000213	2.128789	0.721253	0.000085
1757	1.7472e+02	-10.0265	-43.033848	0.000375	3.750723	1.270779	0.000150
1758	1.7482e+02	-9.9944	-42.900623	0.000335	3.345239	1.133398	0.000134
1759	1.7492e+02	-9.9543	-42.803732	0.000243	2.432901	0.824289	0.000097
1760	1.7502e+02	-9.9126	-42.666469	0.000345	3.446610	1.167743	0.000138
1761	1.7512e+02	-9.8724	-42.553429	0.000284	2.838385	0.961671	0.000114
1762	1.7522e+02	-9.8388	-42.440389	0.000284	2.838385	0.961671	0.000114
1763	1.7532e+02	-9.8003	-42.343498	0.000243	2.432901	0.824289	0.000097
1764	1.7542e+02	-9.7537	-42.202198	0.000355	3.547981	1.202088	0.000142
1765	1.7552e+02	-9.7184	-42.105307	0.000243	2.432901	0.824289	0.000097
1766	1.7562e+02	-9.6767	-41.972082	0.000335	3.345239	1.133398	0.000134
1767	1.7572e+02	-9.6270	-41.871153	0.000253	2.534272	0.858635	0.000101
1768	1.7582e+02	-9.5933	-41.746002	0.000314	3.142497	1.064707	0.000126
1769	1.7592e+02	-9.5628	-41.536071	0.000527	5.271286	1.785960	0.000211
1770	1.7602e+02	-9.5147	-41.467440	0.000172	1.723305	0.583872	0.000069
1771	1.7612e+02	-9.4762	-41.322103	0.000365	3.649352	1.236434	0.000146
1772	1.7621e+02	-9.4281	-41.249434	0.000182	1.824676	0.618217	0.000073
1773	1.7631e+02	-9.3976	-41.108135	0.000355	3.547981	1.202088	0.000142
1774	1.7641e+02	-9.3543	-41.003169	0.000264	2.635643	0.892980	0.000105
1775	1.7651e+02	-9.3206	-40.882055	0.000304	3.041126	1.030362	0.000122
1776	1.7661e+02	-9.2741	-40.748830	0.000335	3.345239	1.133398	0.000134
1777	1.7671e+02	-9.2372	-40.619641	0.000324	3.243868	1.099052	0.000130
1778	1.7681e+02	-9.1955	-40.510639	0.000274	2.737014	0.927325	0.000110
1779	1.7691e+02	-9.1618	-40.389524	0.000304	3.041126	1.030362	0.000122
1780	1.7701e+02	-9.1201	-40.264373	0.000314	3.142497	1.064707	0.000126
1781	1.7711e+02	-9.0767	-40.139222	0.000314	3.142497	1.064707	0.000126
1782	1.7721e+02	-9.0382	-40.001959	0.000345	3.446610	1.167743	0.000138
1783	1.7731e+02	-8.9965	-39.880845	0.000304	3.041126	1.030362	0.000122
1784	1.7741e+02	-8.9468	-39.828363	0.000132	1.317821	0.446490	0.000053
1785	1.7751e+02	-8.9163	-39.707249	0.000304	3.041126	1.030362	0.000122
1786	1.7761e+02	-8.8810	-39.541726	0.000416	4.156206	1.408161	0.000166
1787	1.7771e+02	-8.8345	-39.392352	0.000375	3.750723	1.270779	0.000150
1788	1.7781e+02	-8.7976	-39.283349	0.000274	2.737014	0.927325	0.000110
1789	1.7791e+02	-8.7607	-39.129938	0.000385	3.852093	1.305125	0.000154
1790	1.7801e+02	-8.7158	-38.992676	0.000345	3.446610	1.167743	0.000138
1791	1.7810e+02	-8.6869	-38.887710	0.000264	2.635643	0.892980	0.000105
1792	1.7820e+02	-8.6340	-38.774670	0.000284	2.838385	0.961671	0.000114
1793	1.7830e+02	-8.5987	-38.637408	0.000345	3.446610	1.167743	0.000138
1794	1.7840e+02	-8.5554	-38.520331	0.000294	2.939756	0.996016	0.000118
1795	1.7850e+02	-8.5281	-38.419402	0.000253	2.534272	0.858635	0.000101
1796	1.7860e+02	-8.4848	-38.265991	0.000385	3.852093	1.305125	0.000154
1797	1.7870e+02	-8.4431	-38.132766	0.000335	3.345239	1.133398	0.000134
1798	1.7880e+02	-8.3966	-38.035874	0.000243	2.432901	0.824289	0.000097
1799	1.7890e+02	-8.3597	-37.930909	0.000264	2.635643	0.892980	0.000105
1800	1.7900e+02	-8.3212	-37.805758	0.000314	3.142497	1.064707	0.000126
1801	1.7910e+02	-8.2730	-37.660421	0.000365	3.649352	1.236434	0.000146
1802	1.7920e+02	-8.2409	-37.551418	0.000274	2.737014	0.927325	0.000110
1803	1.7930e+02	-8.1896	-37.438378	0.000284	2.838385	0.961671	0.000114
1804	1.7940e+02	-8.1591	-37.268819	0.000426	4.257577	1.442506	0.000170
1805	1.7950e+02	-8.1222	-37.147704	0.000304	3.041126	1.030362	0.000122
1806	1.7960e+02	-8.0789	-37.022553	0.000314	3.142497	1.064707	0.000126
1807	1.7970e+02	-8.0372	-36.889328	0.000335	3.345239	1.133398	0.000134
1808	1.7980e+02	-8.0099	-36.772251	0.000294	2.939756	0.996016	0.000118
1809	1.7990e+02	-7.9698	-36.630951	0.000355	3.547981	1.202088	0.000142
1810	1.8000e+02	-7.9233	-36.485614	0.000365	3.649352	1.236434	0.000146
1811	1.8009e+02	-7.8816	-36.340277	0.000365	3.649352	1.236434	0.000146
1812	1.8019e+02	-7.8527	-36.243386	0.000243	2.432901	0.824289	0.000097
1813	1.8029e+02	-7.7998	-36.085938	0.000395	3.953464	1.339470	0.000158
1814	1.8039e+02	-7.7693	-36.025381	0.000152	1.520563	0.515181	0.000061
1815	1.8049e+02	-7.7244	-35.912341	0.000284	2.838385	0.961671	0.000114
1816	1.8059e+02	-7.6907	-35.767004	0.000365	3.649352	1.236434	0.000146
1817	1.8069e+02	-7.6426	-35.658001	0.000274	2.737014	0.927325	0.000110
1818	1.8079e+02	-7.5993	-35.492479	0.000416	4.156206	1.408161	0.000166
1819	1.8089e+02	-7.5591	-35.379439	0.000284	2.838385	0.961671	0.000114
1820	1.8099e+02	-7.5271	-35.262362	0.000294	2.939756	0.996016	0.000118
1821	1.8109e+02	-7.4821	-35.112988	0.000375	3.750723	1.270779	0.000150
1822	1.8119e+02	-7.4324	-34.983800	0.000324	3.243868	1.099052	0.000130
1823	1.8129e+02	-7.4067	-34.838463	0.000365	3.649352	1.236434	0.000146
1824	1.8139e+02	-7.3698	-34.717349	0.000304	3.041126	1.030362	0.000122
1825	1.8149e+02	-7.3217	-34.572012	0.000365	3.649352	1.236434	0.000146
1826	1.8159e+02	-7.2848	-34.467046	0.000264	2.635643	0.892980	0.000105
1827	1.8169e+02	-7.2495	-34.321709	0.000365	3.649352	1.236434	0.000146
1828	1.8179e+02	-7.2046	-34.200595	0.000304	3.041126	1.030362	0.000122
1829	1.8189e+02	-7.1725	-34.071407	0.000324	3.243868	1.099052	0.000130
1830	1.8199e+02	-7.1228	-33.946256	0.000314	3.142497	1.064707	0.000126
1831	1.8209e+02	-7.0971	-33.813030	0.000335	3.345239	1.133398	0.000134
1832	1.8218e+02	-7.0474	-33.671731	0.000355	3.547981	1.202088	0.000142
1833	1.8228e+02	-7.0041	-33.530431	0.000355	3.547981	1.202088	0.000142
1834	1.8238e+02	-6.9640	-33.457762	0.000182	1.824676	0.618217	0.000073
1835	1.8248e+02	-6.9207	-33.276091	0.000456	4.561690	1.545542	0.000183
1836	1.8258e+02	-6.8854	-33.187274	0.000223	2.230159	0.755598	0.000089
1837	1.8268e+02	-6.8421	-33.045975	0.000355	3.547981	1.202088	0.000142
1838	1.8278e+02	-6.8052	-32.908712	0.000345	3.446610	1.167743	0.000138
1839	1.8288e+02	-6.7618	-32.787598	0.000304	3.041126	1.030362	0.000122
1840	1.8298e+02	-6.7249	-32.642261	0.000365	3.649352	1.236434	0.000146
1841	1.8308e+02	-6.6897	-32.468664	0.000436	4.358948	1.476852	0.000174
1842	1.8318e+02	-6.6415	-32.387921	0.000203	2.027418	0.686908	0.000081
1843	1.8328e+02	-6.5982	-32.238547	0.000375	3.750723	1.270779	0.000150
1844	1.8338e+02	-6.5725	-32.125508	0.000284	2.838385	0.961671	0.000114
1845	1.8348e+02	-6.5196	-31.955948	0.000426	4.257577	1.442506	0.000170
1846	1.8358e+02	-6.4955	-31.826760	0.000324	3.243868	1.099052	0.000130
1847	1.8368e+02	-6.4506	-31.697571	0.000324	3.243868	1.099052	0.000130
1848	1.8378e+02	-6.4105	-31.568383	0.000324	3.243868	1.099052	0.000130
1849	1.8388e+02	-6.3720	-31.447269	0.000304	3.041126	1.030362	0.000122
1850	1.8398e+02	-6.3319	-31.289821	0.000395	3.953464	1.339470	0.000158
1851	1.8407e+02	-6.2886	-31.176781	0.000284	2.838385	0.961671	0.000114
1852	1.8417e+02	-6.2501	-31.055667	0.000304	3.041126	1.030362	0.000122
1853	1.8427e+02	-6.2036	-30.950701	0.000264	2.635643	0.892980	0.000105
1854	1.8437e+02	-6.1715	-30.857847	0.000233	2.331530	0.789944	0.000093
1855	1.8447e+02	-6.1378	-30.696362	0.000405	4.054835	1.373815	0.000162
1856	1.8457e+02	-6.0913	-30.567173	0.000324	3.243868	1.099052	0.000130
1857	1.8467e+02	-6.0464	-30.421836	0.000365	3.649352	1.236434	0.000146
1858	1.8477e+02	-6.0095	-30.288611	0.000335	3.345239	1.133398	0.000134
1859	1.8487e+02	-5.9726	-30.098865	0.000476	4.764431	1.614233	0.000191
1860	1.8497e+02	-5.9325	-29.945454	0.000385	3.852093	1.305125	0.000154
1861	1.8507e+02	-5.8923	-29.844526	0.000253	2.534272	0.858635	0.000101
1862	1.8517e+02	-5.8506	-29.691115	0.000385	3.852093	1.305125	0.000154
1863	1.8527e+02	-5.8121	-29.529629	0.000405	4.054835	1.373815	0.000162
1864	1.8537e+02	-5.7736	-29.380255	0.000375	3.750723	1.270779	0.000150
1865	1.8547e+02	-5.7383	-29.259141	0.000304	3.041126	1.030362	0.000122
1866	1.8557e+02	-5.6918	-29.133990	0.000314	3.142497	1.064707	0.000126
1867	1.8567e+02	-5.6469	-29.000765	0.000335	3.345239	1.133398	0.000134
1868	1.8577e+02	-5.6100	-28.855428	0.000365	3.649352	1.236434	0.000146
1869	1.8587e+02	-5.5667	-28.758536	0.000243	2.432901	0.824289	0.000097
1870	1.8597e+02	-5.5282	-28.637422	0.000304	3.041126	1.030362	0.000122
1871	1.8606e+02	-5.4961	-28.524383	0.000284	2.838385	0.961671	0.000114
1872	1.8616e+02	-5.4528	-28.395194	0.000324	3.243868	1.099052	0.000130
1873	1.8626e+02	-5.4143	-28.241783	0.000385	3.852093	1.305125	0.000154
1874	1.8636e+02	-5.3774	-28.088372	0.000385	3.852093	1.305125	0.000154
1875	1.8646e+02	-5.3373	-27.987444	0.000253	2.534272	0.858635	0.000101
1876	1.8656e+02	-5.2876	-27.801735	0.000466	4.663061	1.579888	0.000187
1877	1.8666e+02	-5.2523	-27.652361	0.000375	3.750723	1.270779	0.000150
1878	1.8676e+02	-5.2186	-27.498950	0.000385	3.852093	1.305125	0.000154
1879	1.8686e+02	-5.1801	-27.389947	0.000274	2.737014	0.927325	0.000110
1880	1.8696e+02	-5.1335	-27.212313	0.000446	4.460319	1.511197	0.000179
1881	1.8706e+02	-5.0918	-27.066977	0.000365	3.649352	1.236434	0.000146
1882	1.8716e+02	-5.0630	-26.933751	0.000335	3.345239	1.133398	0.000134
1883	1.8726e+02	-5.0164	-26.812637	0.000304	3.041126	1.030362	0.000122
1884	1.8736e+02	-4.9827	-26.651152	0.000405	4.054835	1.373815	0.000162
1885	1.8746e+02	-4.9346	-26.517926	0.000335	3.345239	1.133398	0.000134
1886	1.8756e+02	-4.8993	-26.380663	0.000345	3.446610	1.167743	0.000138
1887	1.8766e+02	-4.8576	-26.239364	0.000355	3.547981	1.202088	0.000142
1888	1.8776e+02	-4.8159	-26.134398	0.000264	2.635643	0.892980	0.000105
1889	1.8786e+02	-4.7758	-26.049618	0.000213	2.128789	0.721253	0.000085
1890	1.8796e+02	-4.7389	-25.892170	0.000395	3.953464	1.339470	0.000158
1891	1.8806e+02	-4.6956	-25.746833	0.000365	3.649352	1.236434	0.000146
1892	1.8815e+02	-4.6555	-25.625719	0.000304	3.041126	1.030362	0.000122
1893	1.8825e+02	-4.6138	-25.460197	0.000416	4.156206	1.408161	0.000166
1894	1.8835e+02	-4.5801	-25.322934	0.000345	3.446610	1.167743	0.000138
1895	1.8845e+02	-4.5368	-25.121077	0.000507	5.068544	1.717269	0.000203
1896	1.8855e+02	-4.4951	-25.004000	0.000294	2.939756	0.996016	0.000118
1897	1.8865e+02	-4.4534	-24.854626	0.000375	3.750723	1.270779	0.000150
1898	1.8875e+02	-4.4181	-24.733512	0.000304	3.041126	1.030362	0.000122
1899	1.8885e+02	-4.3780	-24.567990	0.000416	4.156206	1.408161	0.000166
1900	1.8895e+02	-4.3394	-24.398430	0.000426	4.257577	1.442506	0.000170
1901	1.8905e+02	-4.3106	-24.265204	0.000335	3.345239	1.133398	0.000134
1902	1.8915e+02	-4.2705	-24.148127	0.000294	2.939756	0.996016	0.000118
1903	1.8925e+02	-4.2175	-23.986642	0.000405	4.054835	1.373815	0.000162
1904	1.8935e+02	-4.1758	-23.857454	0.000324	3.243868	1.099052	0.000130
1905	1.8945e+02	-4.1405	-23.724228	0.000335	3.345239	1.133398	0.000134
1906	1.8955e+02	-4.1020	-23.651560	0.000182	1.824676	0.618217	0.000073
1907	1.8965e+02	-4.0523	-23.494111	0.000395	3.953464	1.339470	0.000158
1908	1.8975e+02	-4.0218	-23.320515	0.000436	4.358948	1.476852	0.000174
1909	1.8985e+02	-3.9833	-23.231698	0.000223	2.230159	0.755598	0.000089
1910	1.8995e+02	-3.9384	-23.045989	0.000466	4.663061	1.579888	0.000187
1911	1.9004e+02	-3.8999	-22.936987	0.000274	2.737014	0.927325	0.000110
1912	1.9014e+02	-3.8614	-22.779538	0.000395	3.953464	1.339470	0.000158
1913	1.9024e+02	-3.8245	-22.622090	0.000395	3.953464	1.339470	0.000158
1914	1.9034e+02	-3.7732	-22.428308	0.000487	4.865802	1.648578	0.000195
1915	1.9044e+02	-3.7443	-22.299119	0.000324	3.243868	1.099052	0.000130
1916	1.9054e+02	-3.7074	-22.169931	0.000324	3.243868	1.099052	0.000130
1917	1.9064e+02	-3.6641	-21.996334	0.000436	4.358948	1.476852	0.000174
1918	1.9074e+02	-3.6272	-21.879257	0.000294	2.939756	0.996016	0.000118
1919	1.9084e+02	-3.5855	-21.689512	0.000476	4.764431	1.614233	0.000191
1920	1.9094e+02	-3.5389	-21.588583	0.000253	2.534272	0.858635	0.000101
1921	1.9104e+02	-3.4924	-21.459395	0.000324	3.243868	1.099052	0.000130
1922	1.9114e+02	-3.4571	-21.330207	0.000324	3.243868	1.099052	0.000130
1923	1.9124e+02	-3.4170	-21.192944	0.000345	3.446610	1.167743	0.000138
1924	1.9134e+02	-3.3849	-21.043570	0.000375	3.750723	1.270779	0.000150
1925	1.9144e+02	-3.3416	-20.890159	0.000385	3.852093	1.305125	0.000154
1926	1.9154e+02	-3.2999	-20.777119	0.000284	2.838385	0.961671	0.000114
1927	1.9164e+02	-3.2566	-20.651968	0.000314	3.142497	1.064707	0.000126
1928	1.9174e+02	-3.2165	-20.446074	0.000517	5.169915	1.751615	0.000207
1929	1.9184e+02	-3.1940	-20.341108	0.000264	2.635643	0.892980	0.000105
1930	1.9194e+02	-3.1363	-20.191734	0.000375	3.750723	1.270779	0.000150
1931	1.9203e+02	-3.0978	-20.001989	0.000476	4.764431	1.614233	0.000191
1932	1.9213e+02	-3.0689	-19.840504	0.000405	4.054835	1.373815	0.000162
1933	1.9223e+02	-3.0192	-19.666907	0.000436	4.358948	1.476852	0.000174
1934	1.9233e+02	-2.9871	-19.545793	0.000304	3.041126	1.030362	0.000122
1935	1.9243e+02	-2.9486	-19.428716	0.000294	2.939756	0.996016	0.000118
1936	1.9253e+02	-2.9085	-19.243007	0.000466	4.663061	1.579888	0.000187
1937	1.9263e+02	-2.8636	-19.073448	0.000426	4.257577	1.442506	0.000170
1938	1.9273e+02	-2.8202	-18.968482	0.000264	2.635643	0.892980	0.000105
1939	1.9283e+02	-2.7849	-18.782774	0.000466	4.663061	1.579888	0.000187
1940	1.9293e+02	-2.7336	-18.742403	0.000101	1.013709	0.343454	0.000041
1941	1.9303e+02	-2.6999	-18.568806	0.000436	4.358948	1.476852	0.000174
1942	1.9313e+02	-2.6550	-18.435580	0.000335	3.345239	1.133398	0.000134
1943	1.9323e+02	-2.6229	-18.278132	0.000395	3.953464	1.339470	0.000158
1944	1.9333e+02	-2.5748	-18.144907	0.000335	3.345239	1.133398	0.000134
1945	1.9343e+02	-2.5395	-17.995533	0.000375	3.750723	1.270779	0.000150
1946	1.9353e+02	-2.5026	-17.838084	0.000395	3.953464	1.339470	0.000158
1947	1.9363e+02	-2.4657	-17.692747	0.000365	3.649352	1.236434	0.000146
1948	1.9373e+02	-2.4272	-17.555485	0.000345	3.446610	1.167743	0.000138
1949	1.9383e+02	-2.3887	-17.389962	0.000416	4.156206	1.408161	0.000166
1950	1.9393e+02	-2.3438	-17.196180	0.000487	4.865802	1.648578	0.000195
1951	1.9403e+02	-2.3037	-17.062954	0.000335	3.345239	1.133398	0.000134
1952	1.9412e+02	-2.2684	-16.921654	0.000355	3.547981	1.202088	0.000142
1953	1.9422e+02	-2.2219	-16.768243	0.000385	3.852093	1.305125	0.000154
1954	1.9432e+02	-2.1866	-16.610795	0.000395	3.953464	1.339470	0.000158
1955	1.9442e+02	-2.1481	-16.465458	0.000365	3.649352	1.236434	0.000146
1956	1.9452e+02	-2.1112	-16.344344	0.000304	3.041126	1.030362	0.000122
1957	1.9462e+02	-2.0711	-16.190933	0.000385	3.852093	1.305125	0.000154
1958	1.9472e+02	-2.0213	-16.085967	0.000264	2.635643	0.892980	0.000105
1959	1.9482e+02	-1.9860	-15.940630	0.000365	3.649352	1.236434	0.000146
1960	1.9492e+02	-1.9395	-15.775108	0.000416	4.156206	1.408161	0.000166
1961	1.9502e+02	-1.8994	-15.641882	0.000335	3.345239	1.133398	0.000134
1962	1.9512e+02	-1.8641	-15.496546	0.000365	3.649352	1.236434	0.000146
1963	1.9522e+02	-1.8240	-15.302763	0.000487	4.865802	1.648578	0.000195
1964	1.9532e+02	-1.7871	-15.169538	0.000335	3.345239	1.133398	0.000134
1965	1.9542e+02	-1.7518	-15.040349	0.000324	3.243868	1.099052	0.000130
1966	1.9552e+02	-1.7117	-14.850604	0.000476	4.764431	1.614233	0.000191
1967	1.9562e+02	-1.6716	-14.693156	0.000395	3.953464	1.339470	0.000158
1968	1.9572e+02	-1.6347	-14.527633	0.000416	4.156206	1.408161	0.000166
1969	1.9582e+02	-1.5930	-14.333850	0.000487	4.865802	1.648578	0.000195
1970	1.9592e+02	-1.5561	-14.236959	0.000243	2.432901	0.824289	0.000097
1971	1.9601e+02	-1.5064	-14.055288	0.000456	4.561690	1.545542	0.000183
1972	1.9611e+02	-1.4695	-13.918025	0.000345	3.446610	1.167743	0.000138
1973	1.9621e+02	-1.4358	-13.776726	0.000355	3.547981	1.202088	0.000142
1974	1.9631e+02	-1.3989	-13.631389	0.000365	3.649352	1.236434	0.000146
1975	1.9641e+02	-1.3443	-13.469903	0.000405	4.054835	1.373815	0.000162
1976	1.9651e+02	-1.3123	-13.356864	0.000284	2.838385	0.961671	0.000114
1977	1.9661e+02	-1.2706	-13.215564	0.000355	3.547981	1.202088	0.000142
1978	1.9671e+02	-1.2337	-13.066190	0.000375	3.750723	1.270779	0.000150
1979	1.9681e+02	-1.1952	-12.916816	0.000375	3.750723	1.270779	0.000150
1980	1.9691e+02	-1.1502	-12.751293	0.000416	4.156206	1.408161	0.000166
1981	1.9701e+02	-1.1117	-12.638253	0.000284	2.838385	0.961671	0.000114
1982	1.9711e+02	-1.0684	-12.448508	0.000476	4.764431	1.614233	0.000191
1983	1.9721e+02	-1.0315	-12.331431	0.000294	2.939756	0.996016	0.000118
1984	1.9731e+02	-0.9898	-12.125537	0.000517	5.169915	1.751615	0.000207
1985	1.9741e+02	-0.9577	-12.004423	0.000304	3.041126	1.030362	0.000122
1986	1.9751e+02	-0.9048	-11.810641	0.000487	4.865802	1.648578	0.000195
1987	1.9761e+02	-0.8695	-11.653192	0.000395	3.953464	1.339470	0.000158
1988	1.9771e+02	-0.8374	-11.503818	0.000375	3.750723	1.270779	0.000150
1989	1.9781e+02	-0.8005	-11.330221	0.000436	4.358948	1.476852	0.000174
1990	1.9791e+02	-0.7476	-11.172773	0.000395	3.953464	1.339470	0.000158
1991	1.9800e+02	-0.7171	-11.019362	0.000385	3.852093	1.305125	0.000154
1992	1.9810e+02	-0.6802	-10.861914	0.000395	3.953464	1.339470	0.000158
1993	1.9820e+02	-0.6385	-10.744837	0.000294	2.939756	0.996016	0.000118
1994	1.9830e+02	-0.6000	-10.639871	0.000264	2.635643	0.892980	0.000105
1995	1.9840e+02	-0.5486	-10.474349	0.000416	4.156206	1.408161	0.000166
1996	1.9850e+02	-0.5037	-10.373420	0.000253	2.534272	0.858635	0.000101
1997	1.9860e+02	-0.4732	-10.179638	0.000487	4.865802	1.648578	0.000195
1998	1.9870e+02	-0.4251	-10.042375	0.000345	3.446610	1.167743	0.000138
1999	1.9880e+02	-0.3995	-9.860704	0.000456	4.561690	1.545542	0.000183
2000	1.9890e+02	-0.3497	-9.739590	0.000304	3.041126	1.030362	0.000122
2001	1.9900e+02	-0.3160	-9.525622	0.000537	5.372657	1.820305	0.000215
2002	1.9910e+02	-0.2775	-9.404508	0.000304	3.041126	1.030362	0.000122
2003	1.9920e+02	-0.2342	-9.222837	0.000456	4.561690	1.545542	0.000183
2004	1.9930e+02	-0.2005	-9.065388	0.000395	3.953464	1.339470	0.000158
2005	1.9940e+02	-0.1508	-8.887754	0.000446	4.460319	1.511197	0.000179
2006	1.9950e+02	-0.1139	-8.738380	0.000375	3.750723	1.270779	0.000150
2007	1.9960e+02	-0.0642	-8.584969	0.000385	3.852093	1.305125	0.000154
2008	1.9970e+02	-0.0417	-8.395224	0.000476	4.764431	1.614233	0.000191
2009	1.9980e+02	0.0048	-8.249887	0.000476	4.764431	1.614233	0.000146

PMax (uC/cm2):	7.64e+01
Pr (uC/cm2):	7.36e+00
-Pr (uC/cm2):	4.04e-02
PLoss (uC/cm2):	1.41e-01
Vc:	-8.11e-03
-Vc:	-1.90e+00
C (Max-Eff) (nF):	3.82e-01
K (Eff):	1.30e+03
Vert. (+/-Pr) Shift (uC/cm2):	3.70e+00
Horiz. Shift (+/-Vc):	-9.54e-01
Offset (uC/cm2):	8.29e+00

A (Loop Area - uC/cm2·Volts):	1.41e-03



Hysteresis Version: 5.48.1 - Radiant Technologies, Inc., 1999 - 9/12/24

