»»»»»»»»»»»»»»»»»»»»»»»»»»»»»»»»»»»» Hysteresis ««««««««««««««««««««««««««««««««««««
»»»  Executed Version:	5.48.1
»»»  Vision Version:	5.48.4 (R)
»»»  Vision Compiled:	9/18/24
»»»  Driver Version:	5.47.0
»»»  Windows Version:	Windows 8 or 8.1
»»»  Processor Information:	x86 (AMD or Intel) - 32 Processors
»»»  Tester Name:	PMF21124-494 (100V)
»»»  Tester S/N:	PMF21124-494
»»»  Internal Amp Type:	100V RevK 270k
»»»  Internal Amp S/N:	iAB2-596/K     
»»»  Execution Count:	1
»»»»»»»»»»»»»»»»»»»»»»»»»»»»»»»»»»»»»»»»»»««««««««««««««««««««««««««««««««««««««««««

Stored:	6/19/2025 - 19:58:31
Configured:	06/19/25 10:04:32 AM
Executed:	06/19/25 07:58:01 PM

»»»»»»»»»»»»»»»»»»»»»»»»»»»»»»»»»»» Sample Info ««««««««««««««««««««««««««««««««««««
Sample Name:	
Lot Name:	
Wafer Name:	
Die Row/Column:	0/0
Capacitor Number:	0
Sample Area (cm2):	1.00e-04
Sample Thickness (microns):	3.00e-01

Amplifier:	Internal

»»»»»»»»»»»»»»»»»»»»»»»»»»»»»»»»»»» Tester Info «««««««««««««««««««««««««««««««««««
Tester Name:	PMF21124-494 (100V)
Tester Serial Number:	PMF21124-494
Return Signal Amp. Level:	0.19 [Index: 3]

»»»»»»»»»»»»»»»»»»»»»»»»»»»»»»»» Hysteresis Info ««««««««««««««««««««««««««««««««««
Task Name:	Hyst-1168
Volts:	20.00
Field:	666.67 (kV/cm)
DCBias:	0.00
DCField:	0.00 (kV/cm)
Hysteresis Period (ms):	2.00e+02
Preset:	Enabled
Preset Delay (ms):	1.00e+03
Profile:	Standard Bipolar

»»»»»»»»»»»»»»»»»»»»»»»»»»»»»»»»»»»»»» Data «««««««««««««««««««««««««««««««««««««««
Points:	2009

Valid Data

Point	Time (ms)	Drive Voltage	Measured Polarization (uC/cm2)	Capacitance (uF)	Normalized Capacitance (uF/cm2)	Dielectric Constant	Instantaneous Current (mA)
   1	0.0000e+00	0.0048	-5.964868	0.000213	2.129087	0.721354	0.000085
   2	9.9500e-02	0.0353	-5.880088	0.000213	2.129087	0.721354	0.000085
   3	1.9900e-01	0.0802	-5.779160	0.000253	2.534628	0.858755	0.000101
   4	2.9850e-01	0.1251	-5.645934	0.000335	3.345709	1.133557	0.000134
   5	3.9800e-01	0.1588	-5.488486	0.000395	3.954020	1.339658	0.000158
   6	4.9750e-01	0.1989	-5.371409	0.000294	2.940168	0.996156	0.000118
   7	5.9700e-01	0.2406	-5.242221	0.000324	3.244324	1.099207	0.000130
   8	6.9650e-01	0.2679	-5.052475	0.000477	4.765101	1.614460	0.000191
   9	7.9600e-01	0.3192	-4.967696	0.000213	2.129087	0.721354	0.000085
  10	8.9550e-01	0.3626	-4.842544	0.000314	3.142939	1.064856	0.000126
  11	9.9500e-01	0.3898	-4.697207	0.000365	3.649864	1.236607	0.000146
  12	1.0945e+00	0.4428	-4.519573	0.000446	4.460945	1.511409	0.000179
  13	1.1940e+00	0.4797	-4.418645	0.000253	2.534628	0.858755	0.000101
  14	1.2935e+00	0.5166	-4.313680	0.000264	2.636013	0.893105	0.000105
  15	1.3930e+00	0.5486	-4.180454	0.000335	3.345709	1.133557	0.000134
  16	1.4925e+00	0.5888	-4.055303	0.000314	3.142939	1.064856	0.000126
  17	1.5920e+00	0.6417	-3.885743	0.000426	4.258175	1.442709	0.000170
  18	1.6915e+00	0.6754	-3.712146	0.000436	4.359560	1.477059	0.000174
  19	1.7910e+00	0.7139	-3.562772	0.000375	3.751249	1.270958	0.000150
  20	1.8905e+00	0.7636	-3.465881	0.000243	2.433243	0.824405	0.000097
  21	1.9900e+00	0.8005	-3.381101	0.000213	2.129087	0.721354	0.000085
  22	2.0895e+00	0.8422	-3.239801	0.000355	3.548479	1.202257	0.000142
  23	2.1890e+00	0.8743	-3.066205	0.000436	4.359560	1.477059	0.000174
  24	2.2885e+00	0.9032	-2.965276	0.000253	2.534628	0.858755	0.000101
  25	2.3880e+00	0.9529	-2.803791	0.000406	4.055405	1.374008	0.000162
  26	2.4875e+00	0.9994	-2.674602	0.000324	3.244324	1.099207	0.000130
  27	2.5870e+00	1.0363	-2.501006	0.000436	4.359560	1.477059	0.000174
  28	2.6865e+00	1.0796	-2.387966	0.000284	2.838783	0.961806	0.000114
  29	2.7860e+00	1.1214	-2.266852	0.000304	3.041554	1.030506	0.000122
  30	2.8855e+00	1.1502	-2.121515	0.000365	3.649864	1.236607	0.000146
  31	2.9850e+00	1.2016	-1.947918	0.000436	4.359560	1.477059	0.000174
  32	3.0845e+00	1.2401	-1.846990	0.000253	2.534628	0.858755	0.000101
  33	3.1840e+00	1.2786	-1.709727	0.000345	3.447094	1.167907	0.000138
  34	3.2835e+00	1.3058	-1.568427	0.000355	3.548479	1.202257	0.000142
  35	3.3830e+00	1.3572	-1.398868	0.000426	4.258175	1.442709	0.000170
  36	3.4825e+00	1.3989	-1.269679	0.000324	3.244324	1.099207	0.000130
  37	3.5820e+00	1.4278	-1.063785	0.000517	5.170641	1.751861	0.000207
  38	3.6815e+00	1.4759	-0.974968	0.000223	2.230473	0.755705	0.000089
  39	3.7810e+00	1.5112	-0.857891	0.000294	2.940168	0.996156	0.000118
  40	3.8805e+00	1.5545	-0.704480	0.000385	3.852634	1.305308	0.000154
  41	3.9800e+00	1.5930	-0.547032	0.000395	3.954020	1.339658	0.000158
  42	4.0795e+00	1.6379	-0.454178	0.000233	2.331858	0.790055	0.000093
  43	4.1790e+00	1.6684	-0.296729	0.000395	3.954020	1.339658	0.000158
  44	4.2785e+00	1.7117	-0.143318	0.000385	3.852634	1.305308	0.000154
  45	4.3780e+00	1.7550	-0.014130	0.000324	3.244324	1.099207	0.000130
  46	4.4775e+00	1.7951	0.119096	0.000335	3.345709	1.133557	0.000134
  47	4.5770e+00	1.8256	0.260395	0.000355	3.548479	1.202257	0.000142
  48	4.6765e+00	1.8657	0.417844	0.000395	3.954020	1.339658	0.000158
  49	4.7760e+00	1.9042	0.522809	0.000264	2.636013	0.893105	0.000105
  50	4.8755e+00	1.9443	0.704480	0.000456	4.562330	1.545759	0.000183
  51	4.9750e+00	1.9844	0.849817	0.000365	3.649864	1.236607	0.000146
  52	5.0745e+00	2.0261	0.950745	0.000253	2.534628	0.858755	0.000101
  53	5.1740e+00	2.0727	1.128379	0.000446	4.460945	1.511409	0.000179
  54	5.2735e+00	2.1015	1.293902	0.000416	4.156790	1.408359	0.000166
  55	5.3730e+00	2.1449	1.415016	0.000304	3.041554	1.030506	0.000122
  56	5.4725e+00	2.1866	1.564390	0.000375	3.751249	1.270958	0.000150
  57	5.5720e+00	2.2331	1.681467	0.000294	2.940168	0.996156	0.000118
  58	5.6715e+00	2.2716	1.855064	0.000436	4.359560	1.477059	0.000174
  59	5.7710e+00	2.3149	1.984252	0.000324	3.244324	1.099207	0.000130
  60	5.8705e+00	2.3486	2.097292	0.000284	2.838783	0.961806	0.000114
  61	5.9700e+00	2.3855	2.214369	0.000294	2.940168	0.996156	0.000118
  62	6.0695e+00	2.4304	2.363743	0.000375	3.751249	1.270958	0.000150
  63	6.1690e+00	2.4641	2.525228	0.000406	4.055405	1.374008	0.000162
  64	6.2685e+00	2.5026	2.630194	0.000264	2.636013	0.893105	0.000105
  65	6.3680e+00	2.5475	2.783605	0.000385	3.852634	1.305308	0.000154
  66	6.4675e+00	2.5876	2.912793	0.000324	3.244324	1.099207	0.000130
  67	6.5670e+00	2.6181	3.082353	0.000426	4.258175	1.442709	0.000170
  68	6.6665e+00	2.6614	3.227690	0.000365	3.649864	1.236607	0.000146
  69	6.7660e+00	2.6999	3.348804	0.000304	3.041554	1.030506	0.000122
  70	6.8655e+00	2.7448	3.498178	0.000375	3.751249	1.270958	0.000150
  71	6.9650e+00	2.7866	3.683886	0.000466	4.663715	1.580110	0.000187
  72	7.0645e+00	2.8202	3.877669	0.000487	4.866486	1.648810	0.000195
  73	7.1640e+00	2.8587	4.002820	0.000314	3.142939	1.064856	0.000126
  74	7.2635e+00	2.9021	4.152194	0.000375	3.751249	1.270958	0.000150
  75	7.3630e+00	2.9438	4.269271	0.000294	2.940168	0.996156	0.000118
  76	7.4625e+00	2.9839	4.382311	0.000284	2.838783	0.961806	0.000114
  77	7.5620e+00	3.0304	4.531685	0.000375	3.751249	1.270958	0.000150
  78	7.6615e+00	3.0641	4.656836	0.000314	3.142939	1.064856	0.000126
  79	7.7610e+00	3.1122	4.826396	0.000426	4.258175	1.442709	0.000170
  80	7.8605e+00	3.1491	4.963658	0.000345	3.447094	1.167907	0.000138
  81	7.9600e+00	3.1876	5.141292	0.000446	4.460945	1.511409	0.000179
  82	8.0595e+00	3.2325	5.254332	0.000284	2.838783	0.961806	0.000114
  83	8.1590e+00	3.2662	5.436003	0.000456	4.562330	1.545759	0.000183
  84	8.2585e+00	3.3063	5.540969	0.000264	2.636013	0.893105	0.000105
  85	8.3580e+00	3.3480	5.674194	0.000335	3.345709	1.133557	0.000134
  86	8.4575e+00	3.3833	5.843754	0.000426	4.258175	1.442709	0.000170
  87	8.5570e+00	3.4282	5.997165	0.000385	3.852634	1.305308	0.000154
  88	8.6565e+00	3.4619	6.154613	0.000395	3.954020	1.339658	0.000158
  89	8.7560e+00	3.5101	6.328210	0.000436	4.359560	1.477059	0.000174
  90	8.8555e+00	3.5421	6.477584	0.000375	3.751249	1.270958	0.000150
  91	8.9550e+00	3.5855	6.618884	0.000355	3.548479	1.202257	0.000142
  92	9.0545e+00	3.6175	6.752110	0.000335	3.345709	1.133557	0.000134
  93	9.1540e+00	3.6657	6.877261	0.000314	3.142939	1.064856	0.000126
  94	9.2535e+00	3.7090	6.970115	0.000233	2.331858	0.790055	0.000093
  95	9.3530e+00	3.7459	7.163897	0.000487	4.866486	1.648810	0.000195
  96	9.4525e+00	3.7876	7.301160	0.000345	3.447094	1.167907	0.000138
  97	9.5520e+00	3.8261	7.430348	0.000324	3.244324	1.099207	0.000130
  98	9.6515e+00	3.8678	7.579722	0.000375	3.751249	1.270958	0.000150
  99	9.7510e+00	3.8999	7.721022	0.000355	3.548479	1.202257	0.000142
 100	9.8505e+00	3.9464	7.902693	0.000456	4.562330	1.545759	0.000183
 101	9.9500e+00	3.9833	8.011696	0.000274	2.737398	0.927456	0.000110
 102	1.0050e+01	4.0122	8.177218	0.000416	4.156790	1.408359	0.000166
 103	1.0149e+01	4.0667	8.302370	0.000314	3.142939	1.064856	0.000126
 104	1.0248e+01	4.0988	8.480004	0.000446	4.460945	1.511409	0.000179
 105	1.0348e+01	4.1309	8.605155	0.000314	3.142939	1.064856	0.000126
 106	1.0447e+01	4.1887	8.762603	0.000395	3.954020	1.339658	0.000158
 107	1.0547e+01	4.2320	8.944274	0.000456	4.562330	1.545759	0.000183
 108	1.0646e+01	4.2624	9.134020	0.000477	4.765101	1.614460	0.000191
 109	1.0746e+01	4.3058	9.291468	0.000395	3.954020	1.339658	0.000158
 110	1.0845e+01	4.3443	9.392396	0.000253	2.534628	0.858755	0.000101
 111	1.0945e+01	4.3812	9.521585	0.000324	3.244324	1.099207	0.000130
 112	1.1044e+01	4.4148	9.630587	0.000274	2.737398	0.927456	0.000110
 113	1.1144e+01	4.4646	9.783998	0.000385	3.852634	1.305308	0.000154
 114	1.1243e+01	4.5079	9.945484	0.000406	4.055405	1.374008	0.000162
 115	1.1343e+01	4.5352	10.094858	0.000375	3.751249	1.270958	0.000150
 116	1.1443e+01	4.5769	10.244232	0.000375	3.751249	1.270958	0.000150
 117	1.1542e+01	4.6058	10.373420	0.000324	3.244324	1.099207	0.000130
 118	1.1642e+01	4.6523	10.466274	0.000233	2.331858	0.790055	0.000093
 119	1.1741e+01	4.6972	10.672168	0.000517	5.170641	1.751861	0.000207
 120	1.1841e+01	4.7437	10.821542	0.000375	3.751249	1.270958	0.000150
 121	1.1940e+01	4.7694	10.974954	0.000385	3.852634	1.305308	0.000154
 122	1.2040e+01	4.8127	11.100105	0.000314	3.142939	1.064856	0.000126
 123	1.2139e+01	4.8560	11.249479	0.000375	3.751249	1.270958	0.000150
 124	1.2239e+01	4.9025	11.374630	0.000314	3.142939	1.064856	0.000126
 125	1.2338e+01	4.9410	11.588598	0.000537	5.373411	1.820561	0.000215
 126	1.2438e+01	4.9747	11.717786	0.000324	3.244324	1.099207	0.000130
 127	1.2537e+01	5.0164	11.891383	0.000436	4.359560	1.477059	0.000174
 128	1.2636e+01	5.0614	12.028646	0.000345	3.447094	1.167907	0.000138
 129	1.2736e+01	5.0918	12.149760	0.000304	3.041554	1.030506	0.000122
 130	1.2835e+01	5.1351	12.278948	0.000324	3.244324	1.099207	0.000130
 131	1.2935e+01	5.1849	12.404100	0.000314	3.142939	1.064856	0.000126
 132	1.3034e+01	5.2298	12.561548	0.000395	3.954020	1.339658	0.000158
 133	1.3134e+01	5.2555	12.710922	0.000375	3.751249	1.270958	0.000150
 134	1.3233e+01	5.2924	12.832036	0.000304	3.041554	1.030506	0.000122
 135	1.3333e+01	5.3325	12.941039	0.000274	2.737398	0.927456	0.000110
 136	1.3432e+01	5.3694	13.130784	0.000477	4.765101	1.614460	0.000191
 137	1.3532e+01	5.4191	13.280158	0.000375	3.751249	1.270958	0.000150
 138	1.3632e+01	5.4528	13.401272	0.000304	3.041554	1.030506	0.000122
 139	1.3731e+01	5.4977	13.566795	0.000416	4.156790	1.408359	0.000166
 140	1.3831e+01	5.5346	13.748466	0.000456	4.562330	1.545759	0.000183
 141	1.3930e+01	5.5795	13.885728	0.000345	3.447094	1.167907	0.000138
 142	1.4030e+01	5.6116	14.022991	0.000345	3.447094	1.167907	0.000138
 143	1.4129e+01	5.6469	14.204662	0.000456	4.562330	1.545759	0.000183
 144	1.4229e+01	5.6982	14.406519	0.000507	5.069256	1.717510	0.000203
 145	1.4328e+01	5.7351	14.527633	0.000304	3.041554	1.030506	0.000122
 146	1.4428e+01	5.7704	14.628561	0.000253	2.534628	0.858755	0.000101
 147	1.4527e+01	5.8186	14.826381	0.000497	4.967871	1.683160	0.000199
 148	1.4627e+01	5.8635	14.890975	0.000162	1.622162	0.549603	0.000065
 149	1.4726e+01	5.9036	15.056498	0.000416	4.156790	1.408359	0.000166
 150	1.4825e+01	5.9373	15.222020	0.000416	4.156790	1.408359	0.000166
 151	1.4925e+01	5.9854	15.363320	0.000355	3.548479	1.202257	0.000142
 152	1.5024e+01	6.0127	15.460211	0.000243	2.433243	0.824405	0.000097
 153	1.5124e+01	6.0608	15.658031	0.000497	4.967871	1.683160	0.000199
 154	1.5223e+01	6.0929	15.783182	0.000314	3.142939	1.064856	0.000126
 155	1.5323e+01	6.1346	15.916408	0.000335	3.345709	1.133557	0.000134
 156	1.5422e+01	6.1763	16.081930	0.000416	4.156790	1.408359	0.000166
 157	1.5522e+01	6.2116	16.243416	0.000406	4.055405	1.374008	0.000162
 158	1.5621e+01	6.2629	16.352418	0.000274	2.737398	0.927456	0.000110
 159	1.5721e+01	6.2934	16.550238	0.000497	4.967871	1.683160	0.000199
 160	1.5820e+01	6.3367	16.703649	0.000385	3.852634	1.305308	0.000154
 161	1.5920e+01	6.3704	16.881283	0.000446	4.460945	1.511409	0.000179
 162	1.6020e+01	6.4169	16.990286	0.000274	2.737398	0.927456	0.000110
 163	1.6119e+01	6.4474	17.139660	0.000375	3.751249	1.270958	0.000150
 164	1.6218e+01	6.4891	17.293071	0.000385	3.852634	1.305308	0.000154
 165	1.6318e+01	6.5389	17.422259	0.000324	3.244324	1.099207	0.000130
 166	1.6418e+01	6.5758	17.498965	0.000193	1.926317	0.652654	0.000077
 167	1.6517e+01	6.6078	17.668525	0.000426	4.258175	1.442709	0.000170
 168	1.6616e+01	6.6544	17.781564	0.000284	2.838783	0.961806	0.000114
 169	1.6716e+01	6.6977	17.930938	0.000375	3.751249	1.270958	0.000150
 170	1.6816e+01	6.7298	18.100498	0.000426	4.258175	1.442709	0.000170
 171	1.6915e+01	6.7731	18.253909	0.000385	3.852634	1.305308	0.000154
 172	1.7015e+01	6.8036	18.375023	0.000304	3.041554	1.030506	0.000122
 173	1.7114e+01	6.8533	18.512286	0.000345	3.447094	1.167907	0.000138
 174	1.7213e+01	6.8854	18.689920	0.000446	4.460945	1.511409	0.000179
 175	1.7313e+01	6.9255	18.819108	0.000324	3.244324	1.099207	0.000130
 176	1.7413e+01	6.9736	18.924074	0.000264	2.636013	0.893105	0.000105
 177	1.7512e+01	7.0073	19.109782	0.000466	4.663715	1.580110	0.000187
 178	1.7611e+01	7.0394	19.243007	0.000335	3.345709	1.133557	0.000134
 179	1.7711e+01	7.0827	19.436790	0.000487	4.866486	1.648810	0.000195
 180	1.7811e+01	7.1196	19.594238	0.000395	3.954020	1.339658	0.000158
 181	1.7910e+01	7.1677	19.771872	0.000446	4.460945	1.511409	0.000179
 182	1.8009e+01	7.2046	19.880875	0.000274	2.737398	0.927456	0.000110
 183	1.8109e+01	7.2592	20.070620	0.000477	4.765101	1.614460	0.000191
 184	1.8209e+01	7.2896	20.106955	0.000091	0.912466	0.309152	0.000037
 185	1.8308e+01	7.3281	20.268440	0.000406	4.055405	1.374008	0.000162
 186	1.8407e+01	7.3714	20.421851	0.000385	3.852634	1.305308	0.000154
 187	1.8507e+01	7.4067	20.551039	0.000324	3.244324	1.099207	0.000130
 188	1.8607e+01	7.4533	20.716562	0.000416	4.156790	1.408359	0.000166
 189	1.8706e+01	7.4934	20.865936	0.000375	3.751249	1.270958	0.000150
 190	1.8805e+01	7.5239	21.031459	0.000416	4.156790	1.408359	0.000166
 191	1.8905e+01	7.5607	21.140461	0.000274	2.737398	0.927456	0.000110
 192	1.9005e+01	7.6089	21.273687	0.000335	3.345709	1.133557	0.000134
 193	1.9104e+01	7.6490	21.447284	0.000436	4.359560	1.477059	0.000174
 194	1.9203e+01	7.6923	21.588583	0.000355	3.548479	1.202257	0.000142
 195	1.9303e+01	7.7308	21.750069	0.000406	4.055405	1.374008	0.000162
 196	1.9402e+01	7.7693	21.871183	0.000304	3.041554	1.030506	0.000122
 197	1.9502e+01	7.7982	22.024594	0.000385	3.852634	1.305308	0.000154
 198	1.9602e+01	7.8463	22.169931	0.000365	3.649864	1.236607	0.000146
 199	1.9701e+01	7.8784	22.351602	0.000456	4.562330	1.545759	0.000183
 200	1.9800e+01	7.9313	22.484827	0.000335	3.345709	1.133557	0.000134
 201	1.9900e+01	7.9666	22.626127	0.000355	3.548479	1.202257	0.000142
 202	2.0000e+01	8.0147	22.727056	0.000253	2.534628	0.858755	0.000101
 203	2.0099e+01	8.0388	22.864318	0.000345	3.447094	1.167907	0.000138
 204	2.0198e+01	8.0821	23.025804	0.000406	4.055405	1.374008	0.000162
 205	2.0298e+01	8.1319	23.159029	0.000335	3.345709	1.133557	0.000134
 206	2.0398e+01	8.1639	23.308403	0.000375	3.751249	1.270958	0.000150
 207	2.0497e+01	8.2073	23.486037	0.000446	4.460945	1.511409	0.000179
 208	2.0596e+01	8.2425	23.599077	0.000284	2.838783	0.961806	0.000114
 209	2.0696e+01	8.2810	23.732302	0.000335	3.345709	1.133557	0.000134
 210	2.0796e+01	8.3292	23.873602	0.000355	3.548479	1.202257	0.000142
 211	2.0895e+01	8.3629	24.043162	0.000426	4.258175	1.442709	0.000170
 212	2.0994e+01	8.4062	24.208684	0.000416	4.156790	1.408359	0.000166
 213	2.1094e+01	8.4399	24.329799	0.000304	3.041554	1.030506	0.000122
 214	2.1194e+01	8.4848	24.475135	0.000365	3.649864	1.236607	0.000146
 215	2.1293e+01	8.5201	24.624509	0.000375	3.751249	1.270958	0.000150
 216	2.1392e+01	8.5666	24.781958	0.000395	3.954020	1.339658	0.000158
 217	2.1492e+01	8.6083	24.927295	0.000365	3.649864	1.236607	0.000146
 218	2.1591e+01	8.6420	25.092817	0.000416	4.156790	1.408359	0.000166
 219	2.1691e+01	8.6821	25.201820	0.000274	2.737398	0.927456	0.000110
 220	2.1791e+01	8.7254	25.331008	0.000324	3.244324	1.099207	0.000130
 221	2.1890e+01	8.7703	25.492494	0.000406	4.055405	1.374008	0.000162
 222	2.1989e+01	8.8072	25.561125	0.000172	1.723547	0.583954	0.000069
 223	2.2089e+01	8.8457	25.762982	0.000507	5.069256	1.717510	0.000203
 224	2.2189e+01	8.8923	25.884096	0.000304	3.041554	1.030506	0.000122
 225	2.2288e+01	8.9227	26.041544	0.000395	3.954020	1.339658	0.000158
 226	2.2387e+01	8.9548	26.162658	0.000304	3.041554	1.030506	0.000122
 227	2.2487e+01	9.0078	26.336255	0.000436	4.359560	1.477059	0.000174
 228	2.2587e+01	9.0447	26.433146	0.000243	2.433243	0.824405	0.000097
 229	2.2686e+01	9.0784	26.639040	0.000517	5.170641	1.751861	0.000207
 230	2.2785e+01	9.1185	26.768229	0.000324	3.244324	1.099207	0.000130
 231	2.2885e+01	9.1570	26.885305	0.000294	2.940168	0.996156	0.000118
 232	2.2985e+01	9.2019	27.042754	0.000395	3.954020	1.339658	0.000158
 233	2.3084e+01	9.2324	27.208276	0.000416	4.156790	1.408359	0.000166
 234	2.3183e+01	9.2853	27.381873	0.000436	4.359560	1.477059	0.000174
 235	2.3283e+01	9.3222	27.539321	0.000395	3.954020	1.339658	0.000158
 236	2.3383e+01	9.3559	27.648324	0.000274	2.737398	0.927456	0.000110
 237	2.3482e+01	9.4136	27.761364	0.000284	2.838783	0.961806	0.000114
 238	2.3581e+01	9.4473	27.890552	0.000324	3.244324	1.099207	0.000130
 239	2.3681e+01	9.4794	28.048001	0.000395	3.954020	1.339658	0.000158
 240	2.3780e+01	9.5243	28.217560	0.000426	4.258175	1.442709	0.000170
 241	2.3880e+01	9.5596	28.326563	0.000274	2.737398	0.927456	0.000110
 242	2.3980e+01	9.6029	28.467863	0.000355	3.548479	1.202257	0.000142
 243	2.4079e+01	9.6382	28.633385	0.000416	4.156790	1.408359	0.000166
 244	2.4178e+01	9.6831	28.754499	0.000304	3.041554	1.030506	0.000122
 245	2.4278e+01	9.7217	28.899836	0.000365	3.649864	1.236607	0.000146
 246	2.4378e+01	9.7602	29.024987	0.000314	3.142939	1.064856	0.000126
 247	2.4477e+01	9.8051	29.210696	0.000466	4.663715	1.580110	0.000187
 248	2.4576e+01	9.8372	29.360070	0.000375	3.751249	1.270958	0.000150
 249	2.4676e+01	9.8724	29.420627	0.000152	1.520777	0.515253	0.000061
 250	2.4776e+01	9.9174	29.626521	0.000517	5.170641	1.751861	0.000207
 251	2.4875e+01	9.9623	29.792043	0.000416	4.156790	1.408359	0.000166
 252	2.4974e+01	9.9896	29.953529	0.000406	4.055405	1.374008	0.000162
 253	2.5074e+01	10.0313	30.110977	0.000395	3.954020	1.339658	0.000158
 254	2.5174e+01	10.0698	30.211905	0.000253	2.534628	0.858755	0.000101
 255	2.5273e+01	10.1291	30.381465	0.000426	4.258175	1.442709	0.000170
 256	2.5372e+01	10.1596	30.486431	0.000264	2.636013	0.893105	0.000105
 257	2.5472e+01	10.1981	30.607545	0.000304	3.041554	1.030506	0.000122
 258	2.5572e+01	10.2462	30.764993	0.000395	3.954020	1.339658	0.000158
 259	2.5671e+01	10.2944	30.922441	0.000395	3.954020	1.339658	0.000158
 260	2.5770e+01	10.3216	31.039518	0.000294	2.940168	0.996156	0.000118
 261	2.5870e+01	10.3521	31.192929	0.000385	3.852634	1.305308	0.000154
 262	2.5970e+01	10.3970	31.350378	0.000395	3.954020	1.339658	0.000158
 263	2.6069e+01	10.4339	31.495714	0.000365	3.649864	1.236607	0.000146
 264	2.6169e+01	10.4724	31.616829	0.000304	3.041554	1.030506	0.000122
 265	2.6268e+01	10.5093	31.733905	0.000294	2.940168	0.996156	0.000118
 266	2.6367e+01	10.5591	31.903465	0.000426	4.258175	1.442709	0.000170
 267	2.6467e+01	10.5847	32.081099	0.000446	4.460945	1.511409	0.000179
 268	2.6567e+01	10.6409	32.198176	0.000294	2.940168	0.996156	0.000118
 269	2.6666e+01	10.6778	32.327364	0.000324	3.244324	1.099207	0.000130
 270	2.6765e+01	10.7131	32.525184	0.000497	4.967871	1.683160	0.000199
 271	2.6865e+01	10.7548	32.678595	0.000385	3.852634	1.305308	0.000154
 272	2.6965e+01	10.7949	32.856229	0.000446	4.460945	1.511409	0.000179
 273	2.7064e+01	10.8334	32.928898	0.000182	1.824932	0.618304	0.000073
 274	2.7163e+01	10.8671	33.062123	0.000335	3.345709	1.133557	0.000134
 275	2.7263e+01	10.9184	33.183237	0.000304	3.041554	1.030506	0.000122
 276	2.7363e+01	10.9505	33.332611	0.000375	3.751249	1.270958	0.000150
 277	2.7462e+01	10.9922	33.473911	0.000355	3.548479	1.202257	0.000142
 278	2.7561e+01	11.0500	33.639434	0.000416	4.156790	1.408359	0.000166
 279	2.7661e+01	11.0708	33.772659	0.000335	3.345709	1.133557	0.000134
 280	2.7761e+01	11.1173	33.889736	0.000294	2.940168	0.996156	0.000118
 281	2.7860e+01	11.1462	34.014887	0.000314	3.142939	1.064856	0.000126
 282	2.7959e+01	11.1943	34.156187	0.000355	3.548479	1.202257	0.000142
 283	2.8059e+01	11.2312	34.301524	0.000365	3.649864	1.236607	0.000146
 284	2.8159e+01	11.2713	34.442824	0.000355	3.548479	1.202257	0.000142
 285	2.8258e+01	11.3195	34.620458	0.000446	4.460945	1.511409	0.000179
 286	2.8358e+01	11.3596	34.725423	0.000264	2.636013	0.893105	0.000105
 287	2.8457e+01	11.3949	34.907094	0.000456	4.562330	1.545759	0.000183
 288	2.8556e+01	11.4302	35.032245	0.000314	3.142939	1.064856	0.000126
 289	2.8656e+01	11.4767	35.185657	0.000385	3.852634	1.305308	0.000154
 290	2.8756e+01	11.5152	35.379439	0.000487	4.866486	1.648810	0.000195
 291	2.8855e+01	11.5521	35.520739	0.000355	3.548479	1.202257	0.000142
 292	2.8954e+01	11.5890	35.617630	0.000243	2.433243	0.824405	0.000097
 293	2.9054e+01	11.6323	35.726633	0.000274	2.737398	0.927456	0.000110
 294	2.9154e+01	11.6724	35.908304	0.000456	4.562330	1.545759	0.000183
 295	2.9253e+01	11.7061	36.005195	0.000243	2.433243	0.824405	0.000097
 296	2.9352e+01	11.7526	36.134383	0.000324	3.244324	1.099207	0.000130
 297	2.9452e+01	11.7879	36.307980	0.000436	4.359560	1.477059	0.000174
 298	2.9552e+01	11.8392	36.429094	0.000304	3.041554	1.030506	0.000122
 299	2.9651e+01	11.8697	36.586543	0.000395	3.954020	1.339658	0.000158
 300	2.9750e+01	11.9050	36.735917	0.000375	3.751249	1.270958	0.000150
 301	2.9850e+01	11.9515	36.844919	0.000274	2.737398	0.927456	0.000110
 302	2.9950e+01	11.9804	36.994293	0.000375	3.751249	1.270958	0.000150
 303	3.0049e+01	12.0285	37.139630	0.000365	3.649864	1.236607	0.000146
 304	3.0148e+01	12.0590	37.280930	0.000355	3.548479	1.202257	0.000142
 305	3.0248e+01	12.1039	37.410118	0.000324	3.244324	1.099207	0.000130
 306	3.0348e+01	12.1408	37.547381	0.000345	3.447094	1.167907	0.000138
 307	3.0447e+01	12.1874	37.716941	0.000426	4.258175	1.442709	0.000170
 308	3.0547e+01	12.2259	37.906686	0.000477	4.765101	1.614460	0.000191
 309	3.0646e+01	12.2692	38.043949	0.000345	3.447094	1.167907	0.000138
 310	3.0745e+01	12.3173	38.136803	0.000233	2.331858	0.790055	0.000093
 311	3.0845e+01	12.3526	38.294251	0.000395	3.954020	1.339658	0.000158
 312	3.0945e+01	12.3879	38.411328	0.000294	2.940168	0.996156	0.000118
 313	3.1044e+01	12.4280	38.544553	0.000335	3.345709	1.133557	0.000134
 314	3.1143e+01	12.4713	38.706039	0.000406	4.055405	1.374008	0.000162
 315	3.1243e+01	12.5082	38.794856	0.000223	2.230473	0.755705	0.000089
 316	3.1343e+01	12.5403	38.952304	0.000395	3.954020	1.339658	0.000158
 317	3.1442e+01	12.5964	39.105715	0.000385	3.852634	1.305308	0.000154
 318	3.1541e+01	12.6269	39.226829	0.000304	3.041554	1.030506	0.000122
 319	3.1641e+01	12.6654	39.388315	0.000406	4.055405	1.374008	0.000162
 320	3.1741e+01	12.7168	39.549800	0.000406	4.055405	1.374008	0.000162
 321	3.1840e+01	12.7424	39.654766	0.000264	2.636013	0.893105	0.000105
 322	3.1939e+01	12.7922	39.779917	0.000314	3.142939	1.064856	0.000126
 323	3.2039e+01	12.8178	39.909105	0.000324	3.244324	1.099207	0.000130
 324	3.2139e+01	12.8724	40.070591	0.000406	4.055405	1.374008	0.000162
 325	3.2238e+01	12.9093	40.195742	0.000314	3.142939	1.064856	0.000126
 326	3.2337e+01	12.9446	40.373376	0.000446	4.460945	1.511409	0.000179
 327	3.2437e+01	12.9766	40.518713	0.000365	3.649864	1.236607	0.000146
 328	3.2536e+01	13.0232	40.631753	0.000284	2.838783	0.961806	0.000114
 329	3.2636e+01	13.0681	40.789201	0.000395	3.954020	1.339658	0.000158
 330	3.2736e+01	13.1050	40.890129	0.000253	2.534628	0.858755	0.000101
 331	3.2835e+01	13.1387	41.035466	0.000365	3.649864	1.236607	0.000146
 332	3.2934e+01	13.1916	41.156580	0.000304	3.041554	1.030506	0.000122
 333	3.3034e+01	13.2237	41.293843	0.000345	3.447094	1.167907	0.000138
 334	3.3133e+01	13.2670	41.386697	0.000233	2.331858	0.790055	0.000093
 335	3.3233e+01	13.2943	41.523960	0.000345	3.447094	1.167907	0.000138
 336	3.3333e+01	13.3456	41.693519	0.000426	4.258175	1.442709	0.000170
 337	3.3432e+01	13.3793	41.850968	0.000395	3.954020	1.339658	0.000158
 338	3.3532e+01	13.4114	41.955933	0.000264	2.636013	0.893105	0.000105
 339	3.3631e+01	13.4627	42.093196	0.000345	3.447094	1.167907	0.000138
 340	3.3730e+01	13.4980	42.210273	0.000294	2.940168	0.996156	0.000118
 341	3.3830e+01	13.5349	42.400018	0.000477	4.765101	1.614460	0.000191
 342	3.3929e+01	13.5846	42.529206	0.000324	3.244324	1.099207	0.000130
 343	3.4029e+01	13.6183	42.662432	0.000335	3.345709	1.133557	0.000134
 344	3.4129e+01	13.6600	42.852177	0.000477	4.765101	1.614460	0.000191
 345	3.4228e+01	13.6985	43.005588	0.000385	3.852634	1.305308	0.000154
 346	3.4328e+01	13.7370	43.146888	0.000355	3.548479	1.202257	0.000142
 347	3.4427e+01	13.7836	43.251854	0.000264	2.636013	0.893105	0.000105
 348	3.4526e+01	13.8205	43.364894	0.000284	2.838783	0.961806	0.000114
 349	3.4626e+01	13.8606	43.453711	0.000223	2.230473	0.755705	0.000089
 350	3.4725e+01	13.8991	43.603085	0.000375	3.751249	1.270958	0.000150
 351	3.4825e+01	13.9408	43.732273	0.000324	3.244324	1.099207	0.000130
 352	3.4925e+01	13.9889	43.917981	0.000466	4.663715	1.580110	0.000187
 353	3.5024e+01	14.0226	44.002761	0.000213	2.129087	0.721354	0.000085
 354	3.5123e+01	14.0595	44.184432	0.000456	4.562330	1.545759	0.000183
 355	3.5223e+01	14.1060	44.321695	0.000345	3.447094	1.167907	0.000138
 356	3.5322e+01	14.1381	44.438772	0.000294	2.940168	0.996156	0.000118
 357	3.5422e+01	14.1862	44.559886	0.000304	3.041554	1.030506	0.000122
 358	3.5522e+01	14.2167	44.717334	0.000395	3.954020	1.339658	0.000158
 359	3.5621e+01	14.2568	44.890931	0.000436	4.359560	1.477059	0.000174
 360	3.5721e+01	14.3033	44.971674	0.000203	2.027702	0.687004	0.000081
 361	3.5820e+01	14.3515	45.133159	0.000406	4.055405	1.374008	0.000162
 362	3.5919e+01	14.3787	45.330979	0.000497	4.967871	1.683160	0.000199
 363	3.6019e+01	14.4156	45.423833	0.000233	2.331858	0.790055	0.000093
 364	3.6118e+01	14.4654	45.609541	0.000466	4.663715	1.580110	0.000187
 365	3.6218e+01	14.5023	45.726618	0.000294	2.940168	0.996156	0.000118
 366	3.6318e+01	14.5424	45.847732	0.000304	3.041554	1.030506	0.000122
 367	3.6417e+01	14.5825	45.944623	0.000243	2.433243	0.824405	0.000097
 368	3.6517e+01	14.6146	46.089960	0.000365	3.649864	1.236607	0.000146
 369	3.6616e+01	14.6579	46.231260	0.000355	3.548479	1.202257	0.000142
 370	3.6715e+01	14.6851	46.368523	0.000345	3.447094	1.167907	0.000138
 371	3.6815e+01	14.7317	46.481562	0.000284	2.838783	0.961806	0.000114
 372	3.6914e+01	14.7814	46.634973	0.000385	3.852634	1.305308	0.000154
 373	3.7014e+01	14.8135	46.776273	0.000355	3.548479	1.202257	0.000142
 374	3.7114e+01	14.8600	46.941796	0.000416	4.156790	1.408359	0.000166
 375	3.7213e+01	14.8969	47.050798	0.000274	2.737398	0.927456	0.000110
 376	3.7313e+01	14.9386	47.200172	0.000375	3.751249	1.270958	0.000150
 377	3.7412e+01	14.9723	47.341472	0.000355	3.548479	1.202257	0.000142
 378	3.7511e+01	15.0156	47.466623	0.000314	3.142939	1.064856	0.000126
 379	3.7611e+01	15.0557	47.676554	0.000527	5.272026	1.786211	0.000211
 380	3.7711e+01	15.1022	47.801706	0.000314	3.142939	1.064856	0.000126
 381	3.7810e+01	15.1263	47.926857	0.000314	3.142939	1.064856	0.000126
 382	3.7910e+01	15.1744	48.084305	0.000395	3.954020	1.339658	0.000158
 383	3.8009e+01	15.2161	48.209456	0.000314	3.142939	1.064856	0.000126
 384	3.8108e+01	15.2627	48.334608	0.000314	3.142939	1.064856	0.000126
 385	3.8208e+01	15.2883	48.492056	0.000395	3.954020	1.339658	0.000158
 386	3.8307e+01	15.3252	48.548576	0.000142	1.419392	0.480903	0.000057
 387	3.8407e+01	15.3750	48.689876	0.000355	3.548479	1.202257	0.000142
 388	3.8507e+01	15.4103	48.839250	0.000375	3.751249	1.270958	0.000150
 389	3.8606e+01	15.4439	48.924029	0.000213	2.129087	0.721354	0.000085
 390	3.8706e+01	15.4889	49.077441	0.000385	3.852634	1.305308	0.000154
 391	3.8805e+01	15.5386	49.222777	0.000365	3.649864	1.236607	0.000146
 392	3.8904e+01	15.5723	49.360040	0.000345	3.447094	1.167907	0.000138
 393	3.9004e+01	15.6140	49.505377	0.000365	3.649864	1.236607	0.000146
 394	3.9103e+01	15.6477	49.634565	0.000324	3.244324	1.099207	0.000130
 395	3.9203e+01	15.6926	49.763754	0.000324	3.244324	1.099207	0.000130
 396	3.9303e+01	15.7391	49.929276	0.000416	4.156790	1.408359	0.000166
 397	3.9402e+01	15.7728	50.066539	0.000345	3.447094	1.167907	0.000138
 398	3.9502e+01	15.8145	50.211876	0.000365	3.649864	1.236607	0.000146
 399	3.9601e+01	15.8530	50.373361	0.000406	4.055405	1.374008	0.000162
 400	3.9700e+01	15.8899	50.466215	0.000233	2.331858	0.790055	0.000093
 401	3.9800e+01	15.9397	50.647886	0.000456	4.562330	1.545759	0.000183
 402	3.9900e+01	15.9701	50.748815	0.000253	2.534628	0.858755	0.000101
 403	3.9999e+01	16.0135	50.894152	0.000365	3.649864	1.236607	0.000146
 404	4.0099e+01	16.0536	50.999117	0.000264	2.636013	0.893105	0.000105
 405	4.0198e+01	16.0937	51.132343	0.000335	3.345709	1.133557	0.000134
 406	4.0297e+01	16.1354	51.213085	0.000203	2.027702	0.687004	0.000081
 407	4.0397e+01	16.1707	51.386682	0.000436	4.359560	1.477059	0.000174
 408	4.0496e+01	16.2124	51.507796	0.000304	3.041554	1.030506	0.000122
 409	4.0596e+01	16.2509	51.701579	0.000487	4.866486	1.648810	0.000195
 410	4.0696e+01	16.2830	51.794433	0.000233	2.331858	0.790055	0.000093
 411	4.0795e+01	16.3279	51.939770	0.000365	3.649864	1.236607	0.000146
 412	4.0895e+01	16.3648	52.060884	0.000304	3.041554	1.030506	0.000122
 413	4.0994e+01	16.4081	52.242555	0.000456	4.562330	1.545759	0.000183
 414	4.1093e+01	16.4482	52.371743	0.000324	3.244324	1.099207	0.000130
 415	4.1193e+01	16.4867	52.549377	0.000446	4.460945	1.511409	0.000179
 416	4.1292e+01	16.5332	52.698751	0.000375	3.751249	1.270958	0.000150
 417	4.1392e+01	16.5701	52.807754	0.000274	2.737398	0.927456	0.000110
 418	4.1492e+01	16.6086	52.989425	0.000456	4.562330	1.545759	0.000183
 419	4.1591e+01	16.6551	53.122651	0.000335	3.345709	1.133557	0.000134
 420	4.1691e+01	16.6953	53.247802	0.000314	3.142939	1.064856	0.000126
 421	4.1790e+01	16.7338	53.336619	0.000223	2.230473	0.755705	0.000089
 422	4.1889e+01	16.7674	53.457733	0.000304	3.041554	1.030506	0.000122
 423	4.1989e+01	16.8075	53.578847	0.000304	3.041554	1.030506	0.000122
 424	4.2089e+01	16.8509	53.748407	0.000426	4.258175	1.442709	0.000170
 425	4.2188e+01	16.8926	53.849335	0.000253	2.534628	0.858755	0.000101
 426	4.2288e+01	16.9263	53.974486	0.000314	3.142939	1.064856	0.000126
 427	4.2387e+01	16.9744	54.131935	0.000395	3.954020	1.339658	0.000158
 428	4.2486e+01	17.0097	54.261123	0.000324	3.244324	1.099207	0.000130
 429	4.2586e+01	17.0514	54.418571	0.000395	3.954020	1.339658	0.000158
 430	4.2685e+01	17.0803	54.547760	0.000324	3.244324	1.099207	0.000130
 431	4.2785e+01	17.1332	54.676948	0.000324	3.244324	1.099207	0.000130
 432	4.2885e+01	17.1669	54.842470	0.000416	4.156790	1.408359	0.000166
 433	4.2984e+01	17.2070	55.012030	0.000426	4.258175	1.442709	0.000170
 434	4.3084e+01	17.2519	55.141218	0.000324	3.244324	1.099207	0.000130
 435	4.3183e+01	17.2760	55.286555	0.000365	3.649864	1.236607	0.000146
 436	4.3282e+01	17.3273	55.367298	0.000203	2.027702	0.687004	0.000081
 437	4.3382e+01	17.3642	55.488412	0.000304	3.041554	1.030506	0.000122
 438	4.3481e+01	17.4188	55.641823	0.000385	3.852634	1.305308	0.000154
 439	4.3581e+01	17.4476	55.726603	0.000213	2.129087	0.721354	0.000085
 440	4.3681e+01	17.4958	55.867903	0.000355	3.548479	1.202257	0.000142
 441	4.3780e+01	17.5214	56.041500	0.000436	4.359560	1.477059	0.000174
 442	4.3880e+01	17.5551	56.122242	0.000203	2.027702	0.687004	0.000081
 443	4.3979e+01	17.6081	56.303914	0.000456	4.562330	1.545759	0.000183
 444	4.4078e+01	17.6450	56.408879	0.000264	2.636013	0.893105	0.000105
 445	4.4178e+01	17.6883	56.574402	0.000416	4.156790	1.408359	0.000166
 446	4.4278e+01	17.7268	56.675330	0.000253	2.534628	0.858755	0.000101
 447	4.4377e+01	17.7653	56.816630	0.000355	3.548479	1.202257	0.000142
 448	4.4477e+01	17.8022	56.921595	0.000264	2.636013	0.893105	0.000105
 449	4.4576e+01	17.8503	57.123452	0.000507	5.069256	1.717510	0.000203
 450	4.4675e+01	17.8792	57.260715	0.000345	3.447094	1.167907	0.000138
 451	4.4775e+01	17.9225	57.430274	0.000426	4.258175	1.442709	0.000170
 452	4.4874e+01	17.9610	57.555426	0.000314	3.142939	1.064856	0.000126
 453	4.4974e+01	18.0043	57.737097	0.000456	4.562330	1.545759	0.000183
 454	4.5074e+01	18.0396	57.785542	0.000122	1.216621	0.412202	0.000049
 455	4.5173e+01	18.0813	57.947028	0.000406	4.055405	1.374008	0.000162
 456	4.5273e+01	18.1278	58.072179	0.000314	3.142939	1.064856	0.000126
 457	4.5372e+01	18.1663	58.189256	0.000294	2.940168	0.996156	0.000118
 458	4.5471e+01	18.2016	58.286147	0.000243	2.433243	0.824405	0.000097
 459	4.5571e+01	18.2498	58.387076	0.000253	2.534628	0.858755	0.000101
 460	4.5670e+01	18.2850	58.556635	0.000426	4.258175	1.442709	0.000170
 461	4.5770e+01	18.3268	58.677749	0.000304	3.041554	1.030506	0.000122
 462	4.5870e+01	18.3653	58.823086	0.000365	3.649864	1.236607	0.000146
 463	4.5969e+01	18.4022	58.952275	0.000324	3.244324	1.099207	0.000130
 464	4.6069e+01	18.4487	59.089537	0.000345	3.447094	1.167907	0.000138
 465	4.6168e+01	18.4776	59.230837	0.000355	3.548479	1.202257	0.000142
 466	4.6267e+01	18.5257	59.372137	0.000355	3.548479	1.202257	0.000142
 467	4.6367e+01	18.5642	59.529585	0.000395	3.954020	1.339658	0.000158
 468	4.6467e+01	18.6123	59.662811	0.000335	3.345709	1.133557	0.000134
 469	4.6566e+01	18.6428	59.804110	0.000355	3.548479	1.202257	0.000142
 470	4.6666e+01	18.6813	59.921187	0.000294	2.940168	0.996156	0.000118
 471	4.6765e+01	18.7182	60.078635	0.000395	3.954020	1.339658	0.000158
 472	4.6864e+01	18.7663	60.219935	0.000355	3.548479	1.202257	0.000142
 473	4.6964e+01	18.8000	60.324901	0.000264	2.636013	0.893105	0.000105
 474	4.7063e+01	18.8385	60.486386	0.000406	4.055405	1.374008	0.000162
 475	4.7163e+01	18.8818	60.575203	0.000223	2.230473	0.755705	0.000089
 476	4.7263e+01	18.9187	60.692280	0.000294	2.940168	0.996156	0.000118
 477	4.7362e+01	18.9572	60.813394	0.000304	3.041554	1.030506	0.000122
 478	4.7462e+01	19.0086	60.926434	0.000284	2.838783	0.961806	0.000114
 479	4.7561e+01	19.0390	61.083882	0.000395	3.954020	1.339658	0.000158
 480	4.7660e+01	19.0888	61.209033	0.000314	3.142939	1.064856	0.000126
 481	4.7760e+01	19.1225	61.374556	0.000416	4.156790	1.408359	0.000166
 482	4.7859e+01	19.1577	61.487596	0.000284	2.838783	0.961806	0.000114
 483	4.7959e+01	19.1995	61.632933	0.000365	3.649864	1.236607	0.000146
 484	4.8059e+01	19.2444	61.766158	0.000335	3.345709	1.133557	0.000134
 485	4.8158e+01	19.2797	61.895347	0.000324	3.244324	1.099207	0.000130
 486	4.8258e+01	19.3246	62.077018	0.000456	4.562330	1.545759	0.000183
 487	4.8357e+01	19.3631	62.202169	0.000314	3.142939	1.064856	0.000126
 488	4.8456e+01	19.3952	62.383840	0.000456	4.562330	1.545759	0.000183
 489	4.8556e+01	19.4337	62.468620	0.000213	2.129087	0.721354	0.000085
 490	4.8656e+01	19.4738	62.605882	0.000345	3.447094	1.167907	0.000138
 491	4.8755e+01	19.5203	62.751219	0.000365	3.649864	1.236607	0.000146
 492	4.8855e+01	19.5636	62.892519	0.000355	3.548479	1.202257	0.000142
 493	4.8954e+01	19.6021	63.005559	0.000284	2.838783	0.961806	0.000114
 494	4.9053e+01	19.6486	63.122636	0.000294	2.940168	0.996156	0.000118
 495	4.9153e+01	19.6807	63.211453	0.000223	2.230473	0.755705	0.000089
 496	4.9252e+01	19.7208	63.316418	0.000264	2.636013	0.893105	0.000105
 497	4.9352e+01	19.7609	63.425421	0.000274	2.737398	0.927456	0.000110
 498	4.9452e+01	19.7978	63.574795	0.000375	3.751249	1.270958	0.000150
 499	4.9551e+01	19.8379	63.724169	0.000375	3.751249	1.270958	0.000150
 500	4.9651e+01	19.8700	63.853357	0.000324	3.244324	1.099207	0.000130
 501	4.9750e+01	19.9166	63.950249	0.000243	2.433243	0.824405	0.000097
 502	4.9849e+01	19.9567	64.111734	0.000406	4.055405	1.374008	0.000162
 503	4.9949e+01	19.9839	64.216700	0.000264	2.636013	0.893105	0.000105
 504	5.0048e+01	19.9567	64.111734	0.000264	2.636013	0.893105	-0.000105
 505	5.0148e+01	19.9182	64.111734	-0.000000	-0.000000	-0.000000	0.000000
 506	5.0248e+01	19.8748	63.982546	0.000324	3.244324	1.099207	-0.000130
 507	5.0347e+01	19.8428	63.889692	0.000233	2.331858	0.790055	-0.000093
 508	5.0447e+01	19.7898	63.808949	0.000203	2.027702	0.687004	-0.000081
 509	5.0546e+01	19.7529	63.691872	0.000294	2.940168	0.996156	-0.000118
 510	5.0645e+01	19.7176	63.635352	0.000142	1.419392	0.480903	-0.000057
 511	5.0745e+01	19.6839	63.518275	0.000294	2.940168	0.996156	-0.000118
 512	5.0844e+01	19.6486	63.401198	0.000294	2.940168	0.996156	-0.000118
 513	5.0944e+01	19.5957	63.255861	0.000365	3.649864	1.236607	-0.000146
 514	5.1044e+01	19.5636	63.138784	0.000294	2.940168	0.996156	-0.000118
 515	5.1143e+01	19.5267	63.029782	0.000274	2.737398	0.927456	-0.000110
 516	5.1242e+01	19.4754	62.940965	0.000223	2.230473	0.755705	-0.000089
 517	5.1342e+01	19.4449	62.827925	0.000284	2.838783	0.961806	-0.000114
 518	5.1441e+01	19.4032	62.726997	0.000253	2.534628	0.858755	-0.000101
 519	5.1541e+01	19.3615	62.630105	0.000243	2.433243	0.824405	-0.000097
 520	5.1641e+01	19.3230	62.517065	0.000284	2.838783	0.961806	-0.000114
 521	5.1740e+01	19.2829	62.432286	0.000213	2.129087	0.721354	-0.000085
 522	5.1840e+01	19.2412	62.315209	0.000294	2.940168	0.996156	-0.000118
 523	5.1939e+01	19.1995	62.282912	0.000081	0.811081	0.274802	-0.000032
 524	5.2038e+01	19.1529	62.121426	0.000406	4.055405	1.374008	-0.000162
 525	5.2138e+01	19.1225	62.028572	0.000233	2.331858	0.790055	-0.000093
 526	5.2237e+01	19.0840	61.907458	0.000304	3.041554	1.030506	-0.000122
 527	5.2337e+01	19.0374	61.806530	0.000253	2.534628	0.858755	-0.000101
 528	5.2437e+01	19.0070	61.750010	0.000142	1.419392	0.480903	-0.000057
 529	5.2536e+01	18.9604	61.608710	0.000355	3.548479	1.202257	-0.000142
 530	5.2636e+01	18.9267	61.479522	0.000324	3.244324	1.099207	-0.000130
 531	5.2735e+01	18.8818	61.350333	0.000324	3.244324	1.099207	-0.000130
 532	5.2834e+01	18.8401	61.209033	0.000355	3.548479	1.202257	-0.000142
 533	5.2934e+01	18.8032	61.124254	0.000213	2.129087	0.721354	-0.000085
 534	5.3033e+01	18.7615	60.986991	0.000345	3.447094	1.167907	-0.000138
 535	5.3133e+01	18.7310	60.894137	0.000233	2.331858	0.790055	-0.000093
 536	5.3233e+01	18.6877	60.781097	0.000284	2.838783	0.961806	-0.000114
 537	5.3332e+01	18.6380	60.651909	0.000324	3.244324	1.099207	-0.000130
 538	5.3431e+01	18.6027	60.542906	0.000274	2.737398	0.927456	-0.000110
 539	5.3531e+01	18.5610	60.437941	0.000264	2.636013	0.893105	-0.000105
 540	5.3630e+01	18.5257	60.385458	0.000132	1.318007	0.446553	-0.000053
 541	5.3730e+01	18.4840	60.276455	0.000274	2.737398	0.927456	-0.000110
 542	5.3830e+01	18.4455	60.159378	0.000294	2.940168	0.996156	-0.000118
 543	5.3929e+01	18.4086	60.062487	0.000243	2.433243	0.824405	-0.000097
 544	5.4029e+01	18.3653	59.937336	0.000314	3.142939	1.064856	-0.000126
 545	5.4128e+01	18.3268	59.828333	0.000274	2.737398	0.927456	-0.000110
 546	5.4227e+01	18.2866	59.699145	0.000324	3.244324	1.099207	-0.000130
 547	5.4327e+01	18.2498	59.606291	0.000233	2.331858	0.790055	-0.000093
 548	5.4426e+01	18.2096	59.497288	0.000274	2.737398	0.927456	-0.000110
 549	5.4526e+01	18.1631	59.347914	0.000375	3.751249	1.270958	-0.000150
 550	5.4626e+01	18.1262	59.206614	0.000355	3.548479	1.202257	-0.000142
 551	5.4725e+01	18.0813	59.065314	0.000355	3.548479	1.202257	-0.000142
 552	5.4825e+01	18.0508	58.984572	0.000203	2.027702	0.687004	-0.000081
 553	5.4924e+01	17.9979	58.871532	0.000284	2.838783	0.961806	-0.000114
 554	5.5023e+01	17.9642	58.762529	0.000274	2.737398	0.927456	-0.000110
 555	5.5123e+01	17.9193	58.633341	0.000324	3.244324	1.099207	-0.000130
 556	5.5222e+01	17.8824	58.508190	0.000314	3.142939	1.064856	-0.000126
 557	5.5322e+01	17.8487	58.391113	0.000294	2.940168	0.996156	-0.000118
 558	5.5422e+01	17.8102	58.318444	0.000182	1.824932	0.618304	-0.000073
 559	5.5521e+01	17.7717	58.205405	0.000284	2.838783	0.961806	-0.000114
 560	5.5620e+01	17.7268	58.096402	0.000274	2.737398	0.927456	-0.000110
 561	5.5720e+01	17.6851	58.011622	0.000213	2.129087	0.721354	-0.000085
 562	5.5819e+01	17.6482	57.886471	0.000314	3.142939	1.064856	-0.000126
 563	5.5919e+01	17.6000	57.773431	0.000284	2.838783	0.961806	-0.000114
 564	5.6019e+01	17.5696	57.636168	0.000345	3.447094	1.167907	-0.000138
 565	5.6118e+01	17.5262	57.559463	0.000193	1.926317	0.652654	-0.000077
 566	5.6218e+01	17.4910	57.458534	0.000253	2.534628	0.858755	-0.000101
 567	5.6317e+01	17.4605	57.252640	0.000517	5.170641	1.751861	-0.000207
 568	5.6416e+01	17.4091	57.115378	0.000345	3.447094	1.167907	-0.000138
 569	5.6516e+01	17.3642	57.006375	0.000274	2.737398	0.927456	-0.000110
 570	5.6615e+01	17.3273	56.905447	0.000253	2.534628	0.858755	-0.000101
 571	5.6715e+01	17.2872	56.776258	0.000324	3.244324	1.099207	-0.000130
 572	5.6815e+01	17.2519	56.651107	0.000314	3.142939	1.064856	-0.000126
 573	5.6914e+01	17.2102	56.525956	0.000314	3.142939	1.064856	-0.000126
 574	5.7014e+01	17.1653	56.412916	0.000284	2.838783	0.961806	-0.000114
 575	5.7113e+01	17.1332	56.311988	0.000253	2.534628	0.858755	-0.000101
 576	5.7212e+01	17.0819	56.231245	0.000203	2.027702	0.687004	-0.000081
 577	5.7312e+01	17.0450	56.110131	0.000304	3.041554	1.030506	-0.000122
 578	5.7411e+01	17.0017	56.041500	0.000172	1.723547	0.583954	-0.000069
 579	5.7511e+01	16.9680	55.916349	0.000314	3.142939	1.064856	-0.000126
 580	5.7611e+01	16.9343	55.799272	0.000294	2.940168	0.996156	-0.000118
 581	5.7710e+01	16.8797	55.702380	0.000243	2.433243	0.824405	-0.000097
 582	5.7809e+01	16.8525	55.557043	0.000365	3.649864	1.236607	-0.000146
 583	5.7909e+01	16.8172	55.460152	0.000243	2.433243	0.824405	-0.000097
 584	5.8008e+01	16.7771	55.351150	0.000274	2.737398	0.927456	-0.000110
 585	5.8108e+01	16.7257	55.238110	0.000284	2.838783	0.961806	-0.000114
 586	5.8208e+01	16.6904	55.056439	0.000456	4.562330	1.545759	-0.000183
 587	5.8307e+01	16.6535	54.927250	0.000324	3.244324	1.099207	-0.000130
 588	5.8407e+01	16.6086	54.850545	0.000193	1.926317	0.652654	-0.000077
 589	5.8506e+01	16.5749	54.689059	0.000406	4.055405	1.374008	-0.000162
 590	5.8605e+01	16.5252	54.588131	0.000253	2.534628	0.858755	-0.000101
 591	5.8705e+01	16.4947	54.418571	0.000426	4.258175	1.442709	-0.000170
 592	5.8804e+01	16.4562	54.325717	0.000233	2.331858	0.790055	-0.000093
 593	5.8904e+01	16.4225	54.249011	0.000193	1.926317	0.652654	-0.000077
 594	5.9004e+01	16.3680	54.091563	0.000395	3.954020	1.339658	-0.000158
 595	5.9103e+01	16.3391	53.986598	0.000264	2.636013	0.893105	-0.000105
 596	5.9203e+01	16.2958	53.922003	0.000162	1.622162	0.549603	-0.000065
 597	5.9302e+01	16.2525	53.817038	0.000264	2.636013	0.893105	-0.000105
 598	5.9401e+01	16.2108	53.720147	0.000243	2.433243	0.824405	-0.000097
 599	5.9501e+01	16.1675	53.611144	0.000274	2.737398	0.927456	-0.000110
 600	5.9600e+01	16.1322	53.417362	0.000487	4.866486	1.648810	-0.000195
 601	5.9700e+01	16.0937	53.360842	0.000142	1.419392	0.480903	-0.000057
 602	5.9800e+01	16.0568	53.211468	0.000375	3.751249	1.270958	-0.000150
 603	5.9899e+01	16.0054	53.106502	0.000264	2.636013	0.893105	-0.000105
 604	5.9998e+01	15.9814	52.973277	0.000335	3.345709	1.133557	-0.000134
 605	6.0098e+01	15.9413	52.823903	0.000375	3.751249	1.270958	-0.000150
 606	6.0197e+01	15.8899	52.706826	0.000294	2.940168	0.996156	-0.000118
 607	6.0297e+01	15.8675	52.561489	0.000365	3.649864	1.236607	-0.000146
 608	6.0397e+01	15.8065	52.452486	0.000274	2.737398	0.927456	-0.000110
 609	6.0496e+01	15.7808	52.323298	0.000324	3.244324	1.099207	-0.000130
 610	6.0596e+01	15.7279	52.198147	0.000314	3.142939	1.064856	-0.000126
 611	6.0695e+01	15.7038	52.097218	0.000253	2.534628	0.858755	-0.000101
 612	6.0794e+01	15.6493	51.963993	0.000335	3.345709	1.133557	-0.000134
 613	6.0894e+01	15.6140	51.859027	0.000264	2.636013	0.893105	-0.000105
 614	6.0993e+01	15.5707	51.741950	0.000294	2.940168	0.996156	-0.000118
 615	6.1093e+01	15.5482	51.681393	0.000152	1.520777	0.515253	-0.000061
 616	6.1193e+01	15.4985	51.536056	0.000365	3.649864	1.236607	-0.000146
 617	6.1292e+01	15.4584	51.427054	0.000274	2.737398	0.927456	-0.000110
 618	6.1392e+01	15.4263	51.334199	0.000233	2.331858	0.790055	-0.000093
 619	6.1491e+01	15.3782	51.164640	0.000426	4.258175	1.442709	-0.000170
 620	6.1590e+01	15.3300	51.047563	0.000294	2.940168	0.996156	-0.000118
 621	6.1690e+01	15.2867	50.934523	0.000284	2.838783	0.961806	-0.000114
 622	6.1789e+01	15.2563	50.817446	0.000294	2.940168	0.996156	-0.000118
 623	6.1889e+01	15.2194	50.647886	0.000426	4.258175	1.442709	-0.000170
 624	6.1989e+01	15.1712	50.494475	0.000385	3.852634	1.305308	-0.000154
 625	6.2088e+01	15.1440	50.413733	0.000203	2.027702	0.687004	-0.000081
 626	6.2188e+01	15.1039	50.300693	0.000284	2.838783	0.961806	-0.000114
 627	6.2287e+01	15.0670	50.151319	0.000375	3.751249	1.270958	-0.000150
 628	6.2386e+01	15.0124	50.022130	0.000324	3.244324	1.099207	-0.000130
 629	6.2486e+01	14.9771	49.929276	0.000233	2.331858	0.790055	-0.000093
 630	6.2586e+01	14.9402	49.828348	0.000253	2.534628	0.858755	-0.000101
 631	6.2685e+01	14.9033	49.683011	0.000365	3.649864	1.236607	-0.000146
 632	6.2785e+01	14.8504	49.630528	0.000132	1.318007	0.446553	-0.000053
 633	6.2884e+01	14.8183	49.460968	0.000426	4.258175	1.442709	-0.000170
 634	6.2983e+01	14.7830	49.351966	0.000274	2.737398	0.927456	-0.000110
 635	6.3083e+01	14.7349	49.275260	0.000193	1.926317	0.652654	-0.000077
 636	6.3182e+01	14.6980	49.097626	0.000446	4.460945	1.511409	-0.000179
 637	6.3282e+01	14.6499	48.988624	0.000274	2.737398	0.927456	-0.000110
 638	6.3382e+01	14.6162	48.879621	0.000274	2.737398	0.927456	-0.000110
 639	6.3481e+01	14.5761	48.774655	0.000264	2.636013	0.893105	-0.000105
 640	6.3581e+01	14.5424	48.625281	0.000375	3.751249	1.270958	-0.000150
 641	6.3680e+01	14.5023	48.439573	0.000466	4.663715	1.580110	-0.000187
 642	6.3779e+01	14.4573	48.306348	0.000335	3.345709	1.133557	-0.000134
 643	6.3879e+01	14.4188	48.185234	0.000304	3.041554	1.030506	-0.000122
 644	6.3978e+01	14.3819	48.084305	0.000253	2.534628	0.858755	-0.000101
 645	6.4078e+01	14.3450	47.959154	0.000314	3.142939	1.064856	-0.000126
 646	6.4177e+01	14.3001	47.842077	0.000294	2.940168	0.996156	-0.000118
 647	6.4277e+01	14.2568	47.712889	0.000324	3.244324	1.099207	-0.000130
 648	6.4376e+01	14.2231	47.615997	0.000243	2.433243	0.824405	-0.000097
 649	6.4476e+01	14.1814	47.515069	0.000253	2.534628	0.858755	-0.000101
 650	6.4576e+01	14.1365	47.389918	0.000314	3.142939	1.064856	-0.000126
 651	6.4675e+01	14.0948	47.256692	0.000335	3.345709	1.133557	-0.000134
 652	6.4775e+01	14.0627	47.159801	0.000243	2.433243	0.824405	-0.000097
 653	6.4874e+01	14.0274	47.030613	0.000324	3.244324	1.099207	-0.000130
 654	6.4974e+01	13.9793	46.905462	0.000314	3.142939	1.064856	-0.000126
 655	6.5073e+01	13.9472	46.772236	0.000335	3.345709	1.133557	-0.000134
 656	6.5172e+01	13.8911	46.655159	0.000294	2.940168	0.996156	-0.000118
 657	6.5272e+01	13.8606	46.566342	0.000223	2.230473	0.755705	-0.000089
 658	6.5371e+01	13.8237	46.404857	0.000406	4.055405	1.374008	-0.000162
 659	6.5471e+01	13.7820	46.275668	0.000324	3.244324	1.099207	-0.000130
 660	6.5570e+01	13.7419	46.130332	0.000365	3.649864	1.236607	-0.000146
 661	6.5670e+01	13.7082	45.993069	0.000345	3.447094	1.167907	-0.000138
 662	6.5769e+01	13.6665	45.819472	0.000436	4.359560	1.477059	-0.000174
 663	6.5869e+01	13.6183	45.750841	0.000172	1.723547	0.583954	-0.000069
 664	6.5969e+01	13.5782	45.573207	0.000446	4.460945	1.511409	-0.000179
 665	6.6068e+01	13.5526	45.488427	0.000213	2.129087	0.721354	-0.000085
 666	6.6168e+01	13.4964	45.355201	0.000335	3.345709	1.133557	-0.000134
 667	6.6267e+01	13.4659	45.250236	0.000264	2.636013	0.893105	-0.000105
 668	6.6367e+01	13.4258	45.112973	0.000345	3.447094	1.167907	-0.000138
 669	6.6466e+01	13.3793	45.012045	0.000253	2.534628	0.858755	-0.000101
 670	6.6566e+01	13.3440	44.923228	0.000223	2.230473	0.755705	-0.000089
 671	6.6665e+01	13.3039	44.741557	0.000456	4.562330	1.545759	-0.000183
 672	6.6764e+01	13.2590	44.656777	0.000213	2.129087	0.721354	-0.000085
 673	6.6864e+01	13.2173	44.511440	0.000365	3.649864	1.236607	-0.000146
 674	6.6963e+01	13.1884	44.378215	0.000335	3.345709	1.133557	-0.000134
 675	6.7063e+01	13.1499	44.249026	0.000324	3.244324	1.099207	-0.000130
 676	6.7162e+01	13.1034	44.127912	0.000304	3.041554	1.030506	-0.000122
 677	6.7262e+01	13.0617	43.982575	0.000365	3.649864	1.236607	-0.000146
 678	6.7362e+01	13.0216	43.825127	0.000395	3.954020	1.339658	-0.000158
 679	6.7461e+01	12.9911	43.691902	0.000335	3.345709	1.133557	-0.000134
 680	6.7561e+01	12.9413	43.566750	0.000314	3.142939	1.064856	-0.000126
 681	6.7660e+01	12.9061	43.429488	0.000345	3.447094	1.167907	-0.000138
 682	6.7760e+01	12.8595	43.324522	0.000264	2.636013	0.893105	-0.000105
 683	6.7859e+01	12.8339	43.219557	0.000264	2.636013	0.893105	-0.000105
 684	6.7959e+01	12.7873	43.118628	0.000253	2.534628	0.858755	-0.000101
 685	6.8058e+01	12.7488	42.981366	0.000345	3.447094	1.167907	-0.000138
 686	6.8157e+01	12.7071	42.876400	0.000264	2.636013	0.893105	-0.000105
 687	6.8257e+01	12.6686	42.771435	0.000264	2.636013	0.893105	-0.000105
 688	6.8356e+01	12.6317	42.613986	0.000395	3.954020	1.339658	-0.000158
 689	6.8456e+01	12.5868	42.492872	0.000304	3.041554	1.030506	-0.000122
 690	6.8555e+01	12.5563	42.359647	0.000335	3.345709	1.133557	-0.000134
 691	6.8655e+01	12.5018	42.218347	0.000355	3.548479	1.202257	-0.000142
 692	6.8754e+01	12.4665	42.105307	0.000284	2.838783	0.961806	-0.000114
 693	6.8854e+01	12.4312	41.988230	0.000294	2.940168	0.996156	-0.000118
 694	6.8954e+01	12.3815	41.887302	0.000253	2.534628	0.858755	-0.000101
 695	6.9053e+01	12.3574	41.713705	0.000436	4.359560	1.477059	-0.000174
 696	6.9153e+01	12.3029	41.527997	0.000466	4.663715	1.580110	-0.000187
 697	6.9252e+01	12.2724	41.418994	0.000274	2.737398	0.927456	-0.000110
 698	6.9352e+01	12.2355	41.257509	0.000406	4.055405	1.374008	-0.000162
 699	6.9451e+01	12.1922	41.144469	0.000284	2.838783	0.961806	-0.000114
 700	6.9550e+01	12.1473	41.043540	0.000253	2.534628	0.858755	-0.000101
 701	6.9650e+01	12.1152	40.878018	0.000416	4.156790	1.408359	-0.000166
 702	6.9749e+01	12.0654	40.752867	0.000314	3.142939	1.064856	-0.000126
 703	6.9849e+01	12.0285	40.728644	0.000061	0.608311	0.206101	-0.000024
 704	6.9948e+01	11.9916	40.575233	0.000385	3.852634	1.305308	-0.000154
 705	7.0048e+01	11.9451	40.409710	0.000416	4.156790	1.408359	-0.000166
 706	7.0147e+01	11.9162	40.304745	0.000264	2.636013	0.893105	-0.000105
 707	7.0247e+01	11.8777	40.163445	0.000355	3.548479	1.202257	-0.000142
 708	7.0347e+01	11.8280	40.062516	0.000253	2.534628	0.858755	-0.000101
 709	7.0446e+01	11.7911	39.949477	0.000284	2.838783	0.961806	-0.000114
 710	7.0546e+01	11.7462	39.792028	0.000395	3.954020	1.339658	-0.000158
 711	7.0645e+01	11.7157	39.666877	0.000314	3.142939	1.064856	-0.000126
 712	7.0745e+01	11.6612	39.557875	0.000274	2.737398	0.927456	-0.000110
 713	7.0844e+01	11.6259	39.440798	0.000294	2.940168	0.996156	-0.000118
 714	7.0944e+01	11.5890	39.279312	0.000406	4.055405	1.374008	-0.000162
 715	7.1043e+01	11.5585	39.150124	0.000324	3.244324	1.099207	-0.000130
 716	7.1142e+01	11.5216	38.976527	0.000436	4.359560	1.477059	-0.000174
 717	7.1242e+01	11.4703	38.843302	0.000335	3.345709	1.133557	-0.000134
 718	7.1341e+01	11.4334	38.722187	0.000304	3.041554	1.030506	-0.000122
 719	7.1441e+01	11.3901	38.572813	0.000375	3.751249	1.270958	-0.000150
 720	7.1540e+01	11.3516	38.483996	0.000223	2.230473	0.755705	-0.000089
 721	7.1640e+01	11.3098	38.379031	0.000264	2.636013	0.893105	-0.000105
 722	7.1740e+01	11.2729	38.233694	0.000365	3.649864	1.236607	-0.000146
 723	7.1839e+01	11.2409	38.104506	0.000324	3.244324	1.099207	-0.000130
 724	7.1939e+01	11.1991	37.991466	0.000284	2.838783	0.961806	-0.000114
 725	7.2038e+01	11.1574	37.821906	0.000426	4.258175	1.442709	-0.000170
 726	7.2138e+01	11.1205	37.708866	0.000284	2.838783	0.961806	-0.000114
 727	7.2237e+01	11.0628	37.599864	0.000274	2.737398	0.927456	-0.000110
 728	7.2337e+01	11.0403	37.458564	0.000355	3.548479	1.202257	-0.000142
 729	7.2436e+01	10.9874	37.337450	0.000304	3.041554	1.030506	-0.000122
 730	7.2535e+01	10.9537	37.171927	0.000416	4.156790	1.408359	-0.000166
 731	7.2635e+01	10.9072	37.070999	0.000253	2.534628	0.858755	-0.000101
 732	7.2734e+01	10.8655	36.913551	0.000395	3.954020	1.339658	-0.000158
 733	7.2834e+01	10.8382	36.784362	0.000324	3.244324	1.099207	-0.000130
 734	7.2933e+01	10.7997	36.659211	0.000314	3.142939	1.064856	-0.000126
 735	7.3033e+01	10.7516	36.473503	0.000466	4.663715	1.580110	-0.000187
 736	7.3132e+01	10.7034	36.388723	0.000213	2.129087	0.721354	-0.000085
 737	7.3232e+01	10.6649	36.239349	0.000375	3.751249	1.270958	-0.000150
 738	7.3332e+01	10.6280	36.114198	0.000314	3.142939	1.064856	-0.000126
 739	7.3431e+01	10.5960	35.976935	0.000345	3.447094	1.167907	-0.000138
 740	7.3531e+01	10.5559	35.876007	0.000253	2.534628	0.858755	-0.000101
 741	7.3630e+01	10.5190	35.734707	0.000355	3.548479	1.202257	-0.000142
 742	7.3730e+01	10.4772	35.601482	0.000335	3.345709	1.133557	-0.000134
 743	7.3829e+01	10.4355	35.448070	0.000385	3.852634	1.305308	-0.000154
 744	7.3928e+01	10.3890	35.363290	0.000213	2.129087	0.721354	-0.000085
 745	7.4028e+01	10.3569	35.213916	0.000375	3.751249	1.270958	-0.000150
 746	7.4127e+01	10.3248	35.104914	0.000274	2.737398	0.927456	-0.000110
 747	7.4227e+01	10.2735	34.963614	0.000355	3.548479	1.202257	-0.000142
 748	7.4326e+01	10.2334	34.818277	0.000365	3.649864	1.236607	-0.000146
 749	7.4426e+01	10.1917	34.705237	0.000284	2.838783	0.961806	-0.000114
 750	7.4525e+01	10.1580	34.584123	0.000304	3.041554	1.030506	-0.000122
 751	7.4625e+01	10.1179	34.446861	0.000345	3.447094	1.167907	-0.000138
 752	7.4725e+01	10.0778	34.333821	0.000284	2.838783	0.961806	-0.000114
 753	7.4824e+01	10.0425	34.156187	0.000446	4.460945	1.511409	-0.000179
 754	7.4924e+01	9.9928	34.031036	0.000314	3.142939	1.064856	-0.000126
 755	7.5023e+01	9.9623	33.877625	0.000385	3.852634	1.305308	-0.000154
 756	7.5123e+01	9.9190	33.760548	0.000294	2.940168	0.996156	-0.000118
 757	7.5222e+01	9.8853	33.675768	0.000213	2.129087	0.721354	-0.000085
 758	7.5322e+01	9.8356	33.522357	0.000385	3.852634	1.305308	-0.000154
 759	7.5421e+01	9.8067	33.413354	0.000274	2.737398	0.927456	-0.000110
 760	7.5520e+01	9.7650	33.296277	0.000294	2.940168	0.996156	-0.000118
 761	7.5620e+01	9.7200	33.130754	0.000416	4.156790	1.408359	-0.000166
 762	7.5719e+01	9.6799	33.050012	0.000203	2.027702	0.687004	-0.000081
 763	7.5819e+01	9.6463	32.904675	0.000365	3.649864	1.236607	-0.000146
 764	7.5918e+01	9.6078	32.771449	0.000335	3.345709	1.133557	-0.000134
 765	7.6018e+01	9.5628	32.638224	0.000335	3.345709	1.133557	-0.000134
 766	7.6118e+01	9.5163	32.492887	0.000365	3.649864	1.236607	-0.000146
 767	7.6217e+01	9.4826	32.335439	0.000395	3.954020	1.339658	-0.000158
 768	7.6317e+01	9.4409	32.202213	0.000335	3.345709	1.133557	-0.000134
 769	7.6416e+01	9.3992	32.093211	0.000274	2.737398	0.927456	-0.000110
 770	7.6516e+01	9.3623	31.919614	0.000436	4.359560	1.477059	-0.000174
 771	7.6615e+01	9.3190	31.786388	0.000335	3.345709	1.133557	-0.000134
 772	7.6715e+01	9.2757	31.632977	0.000385	3.852634	1.305308	-0.000154
 773	7.6814e+01	9.2468	31.487640	0.000365	3.649864	1.236607	-0.000146
 774	7.6913e+01	9.2019	31.362489	0.000314	3.142939	1.064856	-0.000126
 775	7.7013e+01	9.1538	31.289821	0.000182	1.824932	0.618304	-0.000073
 776	7.7112e+01	9.1281	31.164669	0.000314	3.142939	1.064856	-0.000126
 777	7.7212e+01	9.0767	31.027407	0.000345	3.447094	1.167907	-0.000138
 778	7.7311e+01	9.0431	30.910330	0.000294	2.940168	0.996156	-0.000118
 779	7.7411e+01	8.9965	30.773067	0.000345	3.447094	1.167907	-0.000138
 780	7.7510e+01	8.9628	30.615619	0.000395	3.954020	1.339658	-0.000158
 781	7.7610e+01	8.9179	30.482393	0.000335	3.345709	1.133557	-0.000134
 782	7.7710e+01	8.8842	30.373391	0.000274	2.737398	0.927456	-0.000110
 783	7.7809e+01	8.8425	30.191720	0.000456	4.562330	1.545759	-0.000183
 784	7.7909e+01	8.7960	30.066568	0.000314	3.142939	1.064856	-0.000126
 785	7.8008e+01	8.7719	29.973714	0.000233	2.331858	0.790055	-0.000093
 786	7.8108e+01	8.7206	29.832415	0.000355	3.548479	1.202257	-0.000142
 787	7.8207e+01	8.6853	29.674966	0.000395	3.954020	1.339658	-0.000158
 788	7.8306e+01	8.6436	29.521555	0.000385	3.852634	1.305308	-0.000154
 789	7.8406e+01	8.5955	29.376218	0.000365	3.649864	1.236607	-0.000146
 790	7.8505e+01	8.5666	29.271253	0.000264	2.636013	0.893105	-0.000105
 791	7.8605e+01	8.5249	29.085544	0.000466	4.663715	1.580110	-0.000187
 792	7.8704e+01	8.4816	28.960393	0.000314	3.142939	1.064856	-0.000126
 793	7.8804e+01	8.4527	28.863502	0.000243	2.433243	0.824405	-0.000097
 794	7.8903e+01	8.4110	28.758536	0.000264	2.636013	0.893105	-0.000105
 795	7.9003e+01	8.3677	28.597051	0.000406	4.055405	1.374008	-0.000162
 796	7.9103e+01	8.3260	28.455751	0.000355	3.548479	1.202257	-0.000142
 797	7.9202e+01	8.2730	28.334637	0.000304	3.041554	1.030506	-0.000122
 798	7.9302e+01	8.2458	28.221597	0.000284	2.838783	0.961806	-0.000114
 799	7.9401e+01	8.2008	28.092409	0.000324	3.244324	1.099207	-0.000130
 800	7.9501e+01	8.1607	27.951109	0.000355	3.548479	1.202257	-0.000142
 801	7.9600e+01	8.1158	27.842107	0.000274	2.737398	0.927456	-0.000110
 802	7.9700e+01	8.0741	27.680621	0.000406	4.055405	1.374008	-0.000162
 803	7.9799e+01	8.0468	27.559507	0.000304	3.041554	1.030506	-0.000122
 804	7.9898e+01	7.9971	27.422245	0.000345	3.447094	1.167907	-0.000138
 805	7.9998e+01	7.9714	27.264796	0.000395	3.954020	1.339658	-0.000158
 806	8.0097e+01	7.9217	27.135608	0.000324	3.244324	1.099207	-0.000130
 807	8.0197e+01	7.8928	26.937788	0.000497	4.967871	1.683160	-0.000199
 808	8.0296e+01	7.8399	26.788414	0.000375	3.751249	1.270958	-0.000150
 809	8.0396e+01	7.8078	26.659226	0.000324	3.244324	1.099207	-0.000130
 810	8.0496e+01	7.7725	26.534075	0.000314	3.142939	1.064856	-0.000126
 811	8.0595e+01	7.7292	26.437183	0.000243	2.433243	0.824405	-0.000097
 812	8.0695e+01	7.6923	26.312032	0.000314	3.142939	1.064856	-0.000126
 813	8.0794e+01	7.6442	26.178807	0.000335	3.345709	1.133557	-0.000134
 814	8.0894e+01	7.6153	26.073841	0.000264	2.636013	0.893105	-0.000105
 815	8.0993e+01	7.5752	25.952727	0.000304	3.041554	1.030506	-0.000122
 816	8.1093e+01	7.5287	25.779130	0.000436	4.359560	1.477059	-0.000174
 817	8.1192e+01	7.4902	25.658016	0.000304	3.041554	1.030506	-0.000122
 818	8.1291e+01	7.4501	25.549014	0.000274	2.737398	0.927456	-0.000110
 819	8.1391e+01	7.4132	25.367342	0.000456	4.562330	1.545759	-0.000183
 820	8.1490e+01	7.3602	25.205857	0.000406	4.055405	1.374008	-0.000162
 821	8.1590e+01	7.3249	25.096854	0.000274	2.737398	0.927456	-0.000110
 822	8.1689e+01	7.2912	24.955555	0.000355	3.548479	1.202257	-0.000142
 823	8.1789e+01	7.2575	24.834440	0.000304	3.041554	1.030506	-0.000122
 824	8.1888e+01	7.2046	24.632584	0.000507	5.069256	1.717510	-0.000203
 825	8.1988e+01	7.1645	24.519544	0.000284	2.838783	0.961806	-0.000114
 826	8.2088e+01	7.1308	24.341910	0.000446	4.460945	1.511409	-0.000179
 827	8.2187e+01	7.0843	24.265204	0.000193	1.926317	0.652654	-0.000077
 828	8.2287e+01	7.0442	24.083533	0.000456	4.562330	1.545759	-0.000183
 829	8.2386e+01	7.0073	23.950308	0.000335	3.345709	1.133557	-0.000134
 830	8.2486e+01	6.9720	23.865528	0.000213	2.129087	0.721354	-0.000085
 831	8.2585e+01	6.9303	23.691931	0.000436	4.359560	1.477059	-0.000174
 832	8.2684e+01	6.8902	23.554668	0.000345	3.447094	1.167907	-0.000138
 833	8.2784e+01	6.8485	23.482000	0.000182	1.824932	0.618304	-0.000073
 834	8.2883e+01	6.8100	23.276106	0.000517	5.170641	1.751861	-0.000207
 835	8.2983e+01	6.7715	23.163066	0.000284	2.838783	0.961806	-0.000114
 836	8.3082e+01	6.7298	23.025804	0.000345	3.447094	1.167907	-0.000138
 837	8.3182e+01	6.6864	22.868355	0.000395	3.954020	1.339658	-0.000158
 838	8.3281e+01	6.6544	22.727056	0.000355	3.548479	1.202257	-0.000142
 839	8.3381e+01	6.5982	22.622090	0.000264	2.636013	0.893105	-0.000105
 840	8.3481e+01	6.5758	22.509050	0.000284	2.838783	0.961806	-0.000114
 841	8.3580e+01	6.5340	22.295082	0.000537	5.373411	1.820561	-0.000215
 842	8.3680e+01	6.4875	22.202228	0.000233	2.331858	0.790055	-0.000093
 843	8.3779e+01	6.4554	22.056891	0.000365	3.649864	1.236607	-0.000146
 844	8.3879e+01	6.4089	21.863109	0.000487	4.866486	1.648810	-0.000195
 845	8.3978e+01	6.3800	21.697586	0.000416	4.156790	1.408359	-0.000166
 846	8.4078e+01	6.3351	21.596658	0.000253	2.534628	0.858755	-0.000101
 847	8.4177e+01	6.3014	21.487655	0.000274	2.737398	0.927456	-0.000110
 848	8.4276e+01	6.2533	21.362504	0.000314	3.142939	1.064856	-0.000126
 849	8.4376e+01	6.2196	21.221204	0.000355	3.548479	1.202257	-0.000142
 850	8.4475e+01	6.1731	21.075867	0.000365	3.649864	1.236607	-0.000146
 851	8.4575e+01	6.1362	20.946679	0.000324	3.244324	1.099207	-0.000130
 852	8.4674e+01	6.0913	20.793268	0.000385	3.852634	1.305308	-0.000154
 853	8.4774e+01	6.0528	20.647931	0.000365	3.649864	1.236607	-0.000146
 854	8.4874e+01	6.0127	20.547002	0.000253	2.534628	0.858755	-0.000101
 855	8.4973e+01	5.9742	20.369368	0.000446	4.460945	1.511409	-0.000179
 856	8.5073e+01	5.9389	20.232106	0.000345	3.447094	1.167907	-0.000138
 857	8.5172e+01	5.8907	20.106955	0.000314	3.142939	1.064856	-0.000126
 858	8.5272e+01	5.8458	19.961618	0.000365	3.649864	1.236607	-0.000146
 859	8.5371e+01	5.8041	19.816281	0.000365	3.649864	1.236607	-0.000146
 860	8.5471e+01	5.7768	19.699204	0.000294	2.940168	0.996156	-0.000118
 861	8.5570e+01	5.7319	19.521570	0.000446	4.460945	1.511409	-0.000179
 862	8.5669e+01	5.6886	19.364122	0.000395	3.954020	1.339658	-0.000158
 863	8.5769e+01	5.6629	19.226859	0.000345	3.447094	1.167907	-0.000138
 864	8.5868e+01	5.6196	19.097671	0.000324	3.244324	1.099207	-0.000130
 865	8.5968e+01	5.5875	18.988668	0.000274	2.737398	0.927456	-0.000110
 866	8.6067e+01	5.5346	18.827183	0.000406	4.055405	1.374008	-0.000162
 867	8.6167e+01	5.4945	18.706068	0.000304	3.041554	1.030506	-0.000122
 868	8.6266e+01	5.4608	18.576880	0.000324	3.244324	1.099207	-0.000130
 869	8.6366e+01	5.4175	18.451729	0.000314	3.142939	1.064856	-0.000126
 870	8.6466e+01	5.3678	18.237761	0.000537	5.373411	1.820561	-0.000215
 871	8.6565e+01	5.3389	18.128758	0.000274	2.737398	0.927456	-0.000110
 872	8.6665e+01	5.2892	18.035904	0.000233	2.331858	0.790055	-0.000093
 873	8.6764e+01	5.2587	17.898641	0.000345	3.447094	1.167907	-0.000138
 874	8.6864e+01	5.2105	17.721007	0.000446	4.460945	1.511409	-0.000179
 875	8.6963e+01	5.1737	17.583745	0.000345	3.447094	1.167907	-0.000138
 876	8.7063e+01	5.1335	17.486853	0.000243	2.433243	0.824405	-0.000097
 877	8.7162e+01	5.0999	17.317294	0.000426	4.258175	1.442709	-0.000170
 878	8.7261e+01	5.0581	17.196180	0.000304	3.041554	1.030506	-0.000122
 879	8.7361e+01	5.0164	17.022583	0.000436	4.359560	1.477059	-0.000174
 880	8.7460e+01	4.9811	16.853023	0.000426	4.258175	1.442709	-0.000170
 881	8.7560e+01	4.9378	16.711723	0.000355	3.548479	1.202257	-0.000142
 882	8.7659e+01	4.9025	16.562349	0.000375	3.751249	1.270958	-0.000150
 883	8.7759e+01	4.8512	16.461421	0.000253	2.534628	0.858755	-0.000101
 884	8.7859e+01	4.8095	16.360493	0.000253	2.534628	0.858755	-0.000101
 885	8.7958e+01	4.7726	16.150562	0.000527	5.272026	1.786211	-0.000211
 886	8.8058e+01	4.7421	16.065782	0.000213	2.129087	0.721354	-0.000085
 887	8.8157e+01	4.7020	15.940630	0.000314	3.142939	1.064856	-0.000126
 888	8.8257e+01	4.6603	15.787219	0.000385	3.852634	1.305308	-0.000154
 889	8.8356e+01	4.6138	15.617660	0.000426	4.258175	1.442709	-0.000170
 890	8.8456e+01	4.5865	15.480397	0.000345	3.447094	1.167907	-0.000138
 891	8.8555e+01	4.5416	15.367357	0.000284	2.838783	0.961806	-0.000114
 892	8.8654e+01	4.5015	15.217983	0.000375	3.751249	1.270958	-0.000150
 893	8.8754e+01	4.4517	15.104943	0.000284	2.838783	0.961806	-0.000114
 894	8.8853e+01	4.4148	14.919235	0.000466	4.663715	1.580110	-0.000187
 895	8.8953e+01	4.3844	14.725453	0.000487	4.866486	1.648810	-0.000195
 896	8.9052e+01	4.3459	14.604339	0.000304	3.041554	1.030506	-0.000122
 897	8.9152e+01	4.3026	14.467076	0.000345	3.447094	1.167907	-0.000138
 898	8.9251e+01	4.2657	14.333850	0.000335	3.345709	1.133557	-0.000134
 899	8.9351e+01	4.2223	14.156216	0.000446	4.460945	1.511409	-0.000179
 900	8.9451e+01	4.1838	14.027028	0.000324	3.244324	1.099207	-0.000130
 901	8.9550e+01	4.1389	13.853431	0.000436	4.359560	1.477059	-0.000174
 902	8.9650e+01	4.1052	13.760577	0.000233	2.331858	0.790055	-0.000093
 903	8.9749e+01	4.0539	13.655612	0.000264	2.636013	0.893105	-0.000105
 904	8.9849e+01	4.0266	13.469903	0.000466	4.663715	1.580110	-0.000187
 905	8.9948e+01	3.9897	13.340715	0.000324	3.244324	1.099207	-0.000130
 906	9.0047e+01	3.9400	13.195378	0.000365	3.649864	1.236607	-0.000146
 907	9.0147e+01	3.9063	13.066190	0.000324	3.244324	1.099207	-0.000130
 908	9.0246e+01	3.8646	12.920853	0.000365	3.649864	1.236607	-0.000146
 909	9.0346e+01	3.8309	12.823962	0.000243	2.433243	0.824405	-0.000097
 910	9.0445e+01	3.7748	12.609993	0.000537	5.373411	1.820561	-0.000215
 911	9.0545e+01	3.7427	12.476768	0.000335	3.345709	1.133557	-0.000134
 912	9.0644e+01	3.6962	12.327394	0.000375	3.751249	1.270958	-0.000150
 913	9.0744e+01	3.6641	12.182057	0.000365	3.649864	1.236607	-0.000146
 914	9.0844e+01	3.6159	12.097277	0.000213	2.129087	0.721354	-0.000085
 915	9.0943e+01	3.5790	11.943866	0.000385	3.852634	1.305308	-0.000154
 916	9.1043e+01	3.5421	11.778344	0.000416	4.156790	1.408359	-0.000166
 917	9.1142e+01	3.5004	11.657229	0.000304	3.041554	1.030506	-0.000122
 918	9.1242e+01	3.4796	11.552264	0.000264	2.636013	0.893105	-0.000105
 919	9.1341e+01	3.4315	11.374630	0.000446	4.460945	1.511409	-0.000179
 920	9.1441e+01	3.3817	11.217182	0.000395	3.954020	1.339658	-0.000158
 921	9.1540e+01	3.3480	11.128365	0.000223	2.230473	0.755705	-0.000089
 922	9.1639e+01	3.3079	10.995139	0.000335	3.345709	1.133557	-0.000134
 923	9.1739e+01	3.2678	10.841728	0.000385	3.852634	1.305308	-0.000154
 924	9.1838e+01	3.2197	10.684280	0.000395	3.954020	1.339658	-0.000158
 925	9.1938e+01	3.1764	10.526831	0.000395	3.954020	1.339658	-0.000158
 926	9.2037e+01	3.1443	10.417829	0.000274	2.737398	0.927456	-0.000110
 927	9.2137e+01	3.1090	10.240195	0.000446	4.460945	1.511409	-0.000179
 928	9.2237e+01	3.0657	10.155415	0.000213	2.129087	0.721354	-0.000085
 929	9.2336e+01	3.0176	9.973744	0.000456	4.562330	1.545759	-0.000183
 930	9.2436e+01	2.9791	9.812258	0.000406	4.055405	1.374008	-0.000162
 931	9.2535e+01	2.9534	9.695181	0.000294	2.940168	0.996156	-0.000118
 932	9.2635e+01	2.9069	9.529659	0.000416	4.156790	1.408359	-0.000166
 933	9.2734e+01	2.8620	9.448916	0.000203	2.027702	0.687004	-0.000081
 934	9.2834e+01	2.8251	9.295505	0.000385	3.852634	1.305308	-0.000154
 935	9.2933e+01	2.7769	9.142094	0.000385	3.852634	1.305308	-0.000154
 936	9.3032e+01	2.7513	8.996757	0.000365	3.649864	1.236607	-0.000146
 937	9.3132e+01	2.7112	8.823160	0.000436	4.359560	1.477059	-0.000174
 938	9.3231e+01	2.6759	8.681860	0.000355	3.548479	1.202257	-0.000142
 939	9.3331e+01	2.6165	8.564783	0.000294	2.940168	0.996156	-0.000118
 940	9.3430e+01	2.5908	8.423484	0.000355	3.548479	1.202257	-0.000142
 941	9.3530e+01	2.5491	8.266035	0.000395	3.954020	1.339658	-0.000158
 942	9.3629e+01	2.5026	8.116661	0.000375	3.751249	1.270958	-0.000150
 943	9.3729e+01	2.4721	8.003622	0.000284	2.838783	0.961806	-0.000114
 944	9.3829e+01	2.4400	7.862322	0.000355	3.548479	1.202257	-0.000142
 945	9.3928e+01	2.3919	7.692762	0.000426	4.258175	1.442709	-0.000170
 946	9.4028e+01	2.3502	7.571648	0.000304	3.041554	1.030506	-0.000122
 947	9.4127e+01	2.3069	7.458608	0.000284	2.838783	0.961806	-0.000114
 948	9.4227e+01	2.2700	7.276937	0.000456	4.562330	1.545759	-0.000183
 949	9.4326e+01	2.2331	7.151786	0.000314	3.142939	1.064856	-0.000126
 950	9.4425e+01	2.1930	7.018560	0.000335	3.345709	1.133557	-0.000134
 951	9.4525e+01	2.1417	6.881298	0.000345	3.447094	1.167907	-0.000138
 952	9.4624e+01	2.1112	6.695590	0.000466	4.663715	1.580110	-0.000187
 953	9.4724e+01	2.0598	6.590624	0.000264	2.636013	0.893105	-0.000105
 954	9.4823e+01	2.0310	6.445287	0.000365	3.649864	1.236607	-0.000146
 955	9.4923e+01	1.9989	6.303987	0.000355	3.548479	1.202257	-0.000142
 956	9.5022e+01	1.9491	6.110205	0.000487	4.866486	1.648810	-0.000195
 957	9.5122e+01	1.9203	5.993128	0.000294	2.940168	0.996156	-0.000118
 958	9.5222e+01	1.8705	5.847791	0.000365	3.649864	1.236607	-0.000146
 959	9.5321e+01	1.8288	5.690343	0.000395	3.954020	1.339658	-0.000158
 960	9.5421e+01	1.7871	5.553080	0.000345	3.447094	1.167907	-0.000138
 961	9.5520e+01	1.7470	5.411780	0.000355	3.548479	1.202257	-0.000142
 962	9.5620e+01	1.7117	5.266444	0.000365	3.649864	1.236607	-0.000146
 963	9.5719e+01	1.6700	5.145329	0.000304	3.041554	1.030506	-0.000122
 964	9.5819e+01	1.6267	4.991918	0.000385	3.852634	1.305308	-0.000154
 965	9.5918e+01	1.5930	4.814284	0.000446	4.460945	1.511409	-0.000179
 966	9.6017e+01	1.5529	4.693170	0.000304	3.041554	1.030506	-0.000122
 967	9.6117e+01	1.5176	4.559945	0.000335	3.345709	1.133557	-0.000134
 968	9.6216e+01	1.4695	4.414608	0.000365	3.649864	1.236607	-0.000146
 969	9.6316e+01	1.4262	4.281382	0.000335	3.345709	1.133557	-0.000134
 970	9.6415e+01	1.3845	4.164306	0.000294	2.940168	0.996156	-0.000118
 971	9.6515e+01	1.3476	4.059340	0.000264	2.636013	0.893105	-0.000105
 972	9.6615e+01	1.3042	3.865557	0.000487	4.866486	1.648810	-0.000195
 973	9.6714e+01	1.2706	3.748481	0.000294	2.940168	0.996156	-0.000118
 974	9.6814e+01	1.2256	3.566809	0.000456	4.562330	1.545759	-0.000183
 975	9.6913e+01	1.2032	3.449732	0.000294	2.940168	0.996156	-0.000118
 976	9.7013e+01	1.1486	3.300358	0.000375	3.751249	1.270958	-0.000150
 977	9.7112e+01	1.1133	3.167133	0.000335	3.345709	1.133557	-0.000134
 978	9.7212e+01	1.0684	3.001610	0.000416	4.156790	1.408359	-0.000166
 979	9.7311e+01	1.0395	2.884533	0.000294	2.940168	0.996156	-0.000118
 980	9.7410e+01	0.9994	2.747271	0.000345	3.447094	1.167907	-0.000138
 981	9.7510e+01	0.9513	2.573674	0.000436	4.359560	1.477059	-0.000174
 982	9.7609e+01	0.9080	2.444486	0.000324	3.244324	1.099207	-0.000130
 983	9.7709e+01	0.8727	2.254740	0.000477	4.765101	1.614460	-0.000191
 984	9.7808e+01	0.8278	2.133626	0.000304	3.041554	1.030506	-0.000122
 985	9.7908e+01	0.7877	2.028661	0.000264	2.636013	0.893105	-0.000105
 986	9.8007e+01	0.7556	1.883324	0.000365	3.649864	1.236607	-0.000146
 987	9.8107e+01	0.7171	1.725876	0.000395	3.954020	1.339658	-0.000158
 988	9.8207e+01	0.6786	1.564390	0.000406	4.055405	1.374008	-0.000162
 989	9.8306e+01	0.6273	1.483647	0.000203	2.027702	0.687004	-0.000081
 990	9.8406e+01	0.5952	1.322162	0.000406	4.055405	1.374008	-0.000162
 991	9.8505e+01	0.5486	1.188936	0.000335	3.345709	1.133557	-0.000134
 992	9.8605e+01	0.5118	1.047637	0.000355	3.548479	1.202257	-0.000142
 993	9.8704e+01	0.4765	0.865966	0.000456	4.562330	1.545759	-0.000183
 994	9.8803e+01	0.4283	0.744852	0.000304	3.041554	1.030506	-0.000122
 995	9.8903e+01	0.3914	0.542995	0.000507	5.069256	1.717510	-0.000203
 996	9.9002e+01	0.3545	0.442066	0.000253	2.534628	0.858755	-0.000101
 997	9.9102e+01	0.3112	0.280581	0.000406	4.055405	1.374008	-0.000162
 998	9.9201e+01	0.2823	0.102947	0.000446	4.460945	1.511409	-0.000179
 999	9.9301e+01	0.2422	-0.018167	0.000304	3.041554	1.030506	-0.000122
1000	9.9400e+01	0.2005	-0.147355	0.000324	3.244324	1.099207	-0.000130
1001	9.9500e+01	0.1444	-0.324989	0.000446	4.460945	1.511409	-0.000179
1002	9.9600e+01	0.1171	-0.470326	0.000365	3.649864	1.236607	-0.000146
1003	9.9699e+01	0.0770	-0.583366	0.000284	2.838783	0.961806	-0.000114
1004	9.9799e+01	0.0321	-0.773111	0.000477	4.765101	1.614460	-0.000191
1005	9.9898e+01	0.0096	-0.829631	0.000142	1.419392	0.480903	-0.000057
1006	9.9998e+01	-0.0401	-1.011303	0.000456	4.562330	1.545759	-0.000183
1007	1.0010e+02	-0.0722	-1.100119	0.000223	2.230473	0.755705	-0.000089
1008	1.0020e+02	-0.1203	-1.241419	0.000355	3.548479	1.202257	-0.000142
1009	1.0030e+02	-0.1556	-1.370608	0.000324	3.244324	1.099207	-0.000130
1010	1.0040e+02	-0.1909	-1.499796	0.000324	3.244324	1.099207	-0.000130
1011	1.0050e+02	-0.2294	-1.633021	0.000335	3.345709	1.133557	-0.000134
1012	1.0059e+02	-0.2695	-1.851027	0.000547	5.474796	1.854911	-0.000219
1013	1.0069e+02	-0.3160	-1.996364	0.000365	3.649864	1.236607	-0.000146
1014	1.0079e+02	-0.3561	-2.161886	0.000416	4.156790	1.408359	-0.000166
1015	1.0089e+02	-0.3898	-2.295112	0.000335	3.345709	1.133557	-0.000134
1016	1.0099e+02	-0.4331	-2.464671	0.000426	4.258175	1.442709	-0.000170
1017	1.0109e+02	-0.4845	-2.593860	0.000324	3.244324	1.099207	-0.000130
1018	1.0119e+02	-0.5182	-2.755345	0.000406	4.055405	1.374008	-0.000162
1019	1.0129e+02	-0.5519	-2.884533	0.000324	3.244324	1.099207	-0.000130
1020	1.0139e+02	-0.5888	-3.013722	0.000324	3.244324	1.099207	-0.000130
1021	1.0149e+02	-0.6337	-3.163096	0.000375	3.751249	1.270958	-0.000150
1022	1.0159e+02	-0.6770	-3.304396	0.000355	3.548479	1.202257	-0.000142
1023	1.0169e+02	-0.7075	-3.385138	0.000203	2.027702	0.687004	-0.000081
1024	1.0179e+02	-0.7508	-3.534512	0.000375	3.751249	1.270958	-0.000150
1025	1.0189e+02	-0.7925	-3.683886	0.000375	3.751249	1.270958	-0.000150
1026	1.0199e+02	-0.8358	-3.809038	0.000314	3.142939	1.064856	-0.000126
1027	1.0209e+02	-0.8823	-3.994746	0.000466	4.663715	1.580110	-0.000187
1028	1.0219e+02	-0.9112	-4.067414	0.000182	1.824932	0.618304	-0.000073
1029	1.0229e+02	-0.9545	-4.277345	0.000527	5.272026	1.786211	-0.000211
1030	1.0239e+02	-0.9962	-4.394422	0.000294	2.940168	0.996156	-0.000118
1031	1.0248e+02	-1.0267	-4.592242	0.000497	4.967871	1.683160	-0.000199
1032	1.0258e+02	-1.0700	-4.753727	0.000406	4.055405	1.374008	-0.000162
1033	1.0268e+02	-1.1117	-4.870804	0.000294	2.940168	0.996156	-0.000118
1034	1.0278e+02	-1.1422	-5.048438	0.000446	4.460945	1.511409	-0.000179
1035	1.0288e+02	-1.1968	-5.177627	0.000324	3.244324	1.099207	-0.000130
1036	1.0298e+02	-1.2337	-5.274518	0.000243	2.433243	0.824405	-0.000097
1037	1.0308e+02	-1.2641	-5.415818	0.000355	3.548479	1.202257	-0.000142
1038	1.0318e+02	-1.3171	-5.589414	0.000436	4.359560	1.477059	-0.000174
1039	1.0328e+02	-1.3540	-5.726677	0.000345	3.447094	1.167907	-0.000138
1040	1.0338e+02	-1.3973	-5.863940	0.000345	3.447094	1.167907	-0.000138
1041	1.0348e+02	-1.4294	-6.005239	0.000355	3.548479	1.202257	-0.000142
1042	1.0358e+02	-1.4727	-6.077908	0.000182	1.824932	0.618304	-0.000073
1043	1.0368e+02	-1.5128	-6.259579	0.000456	4.562330	1.545759	-0.000183
1044	1.0378e+02	-1.5481	-6.400879	0.000355	3.548479	1.202257	-0.000142
1045	1.0388e+02	-1.5914	-6.513919	0.000284	2.838783	0.961806	-0.000114
1046	1.0398e+02	-1.6427	-6.671367	0.000395	3.954020	1.339658	-0.000158
1047	1.0408e+02	-1.6732	-6.832852	0.000406	4.055405	1.374008	-0.000162
1048	1.0418e+02	-1.7037	-6.986263	0.000385	3.852634	1.305308	-0.000154
1049	1.0428e+02	-1.7438	-7.107377	0.000304	3.041554	1.030506	-0.000122
1050	1.0438e+02	-1.7935	-7.276937	0.000426	4.258175	1.442709	-0.000170
1051	1.0447e+02	-1.8256	-7.454571	0.000446	4.460945	1.511409	-0.000179
1052	1.0457e+02	-1.8721	-7.587797	0.000335	3.345709	1.133557	-0.000134
1053	1.0467e+02	-1.9090	-7.733134	0.000365	3.649864	1.236607	-0.000146
1054	1.0477e+02	-1.9491	-7.858285	0.000314	3.142939	1.064856	-0.000126
1055	1.0487e+02	-1.9860	-8.011696	0.000385	3.852634	1.305308	-0.000154
1056	1.0497e+02	-2.0229	-8.157033	0.000365	3.649864	1.236607	-0.000146
1057	1.0507e+02	-2.0727	-8.286221	0.000324	3.244324	1.099207	-0.000130
1058	1.0517e+02	-2.1080	-8.423484	0.000345	3.447094	1.167907	-0.000138
1059	1.0527e+02	-2.1513	-8.540561	0.000294	2.940168	0.996156	-0.000118
1060	1.0537e+02	-2.1930	-8.677823	0.000345	3.447094	1.167907	-0.000138
1061	1.0547e+02	-2.2251	-8.819123	0.000355	3.548479	1.202257	-0.000142
1062	1.0557e+02	-2.2636	-8.980608	0.000406	4.055405	1.374008	-0.000162
1063	1.0567e+02	-2.2957	-9.081537	0.000253	2.534628	0.858755	-0.000101
1064	1.0577e+02	-2.3454	-9.263208	0.000456	4.562330	1.545759	-0.000183
1065	1.0587e+02	-2.3791	-9.364136	0.000253	2.534628	0.858755	-0.000101
1066	1.0597e+02	-2.4336	-9.493325	0.000324	3.244324	1.099207	-0.000130
1067	1.0607e+02	-2.4609	-9.670959	0.000446	4.460945	1.511409	-0.000179
1068	1.0617e+02	-2.5026	-9.832444	0.000406	4.055405	1.374008	-0.000162
1069	1.0627e+02	-2.5363	-10.010078	0.000446	4.460945	1.511409	-0.000179
1070	1.0637e+02	-2.5812	-10.106969	0.000243	2.433243	0.824405	-0.000097
1071	1.0647e+02	-2.6213	-10.292678	0.000466	4.663715	1.580110	-0.000187
1072	1.0656e+02	-2.6662	-10.417829	0.000314	3.142939	1.064856	-0.000126
1073	1.0666e+02	-2.6903	-10.542980	0.000314	3.142939	1.064856	-0.000126
1074	1.0676e+02	-2.7432	-10.724651	0.000456	4.562330	1.545759	-0.000183
1075	1.0686e+02	-2.7914	-10.857877	0.000335	3.345709	1.133557	-0.000134
1076	1.0696e+02	-2.8154	-10.954768	0.000243	2.433243	0.824405	-0.000097
1077	1.0706e+02	-2.8700	-11.071845	0.000294	2.940168	0.996156	-0.000118
1078	1.0716e+02	-2.8956	-11.213145	0.000355	3.548479	1.202257	-0.000142
1079	1.0726e+02	-2.9438	-11.362519	0.000375	3.751249	1.270958	-0.000150
1080	1.0736e+02	-2.9871	-11.507855	0.000365	3.649864	1.236607	-0.000146
1081	1.0746e+02	-3.0272	-11.624932	0.000294	2.940168	0.996156	-0.000118
1082	1.0756e+02	-3.0673	-11.754121	0.000324	3.244324	1.099207	-0.000130
1083	1.0766e+02	-3.1074	-11.859086	0.000264	2.636013	0.893105	-0.000105
1084	1.0776e+02	-3.1427	-12.028646	0.000426	4.258175	1.442709	-0.000170
1085	1.0786e+02	-3.1668	-12.190131	0.000406	4.055405	1.374008	-0.000162
1086	1.0796e+02	-3.2229	-12.311245	0.000304	3.041554	1.030506	-0.000122
1087	1.0806e+02	-3.2614	-12.513102	0.000507	5.069256	1.717510	-0.000203
1088	1.0816e+02	-3.3015	-12.618068	0.000264	2.636013	0.893105	-0.000105
1089	1.0826e+02	-3.3368	-12.743219	0.000314	3.142939	1.064856	-0.000126
1090	1.0836e+02	-3.3689	-12.916816	0.000436	4.359560	1.477059	-0.000174
1091	1.0845e+02	-3.4266	-13.033893	0.000294	2.940168	0.996156	-0.000118
1092	1.0855e+02	-3.4571	-13.179230	0.000365	3.649864	1.236607	-0.000146
1093	1.0865e+02	-3.5020	-13.364938	0.000466	4.663715	1.580110	-0.000187
1094	1.0875e+02	-3.5454	-13.449718	0.000213	2.129087	0.721354	-0.000085
1095	1.0885e+02	-3.5823	-13.578906	0.000324	3.244324	1.099207	-0.000130
1096	1.0895e+02	-3.6191	-13.700020	0.000304	3.041554	1.030506	-0.000122
1097	1.0905e+02	-3.6721	-13.821134	0.000304	3.041554	1.030506	-0.000122
1098	1.0915e+02	-3.6994	-13.958397	0.000345	3.447094	1.167907	-0.000138
1099	1.0925e+02	-3.7395	-14.107771	0.000375	3.751249	1.270958	-0.000150
1100	1.0935e+02	-3.7780	-14.192551	0.000213	2.129087	0.721354	-0.000085
1101	1.0945e+02	-3.8181	-14.382296	0.000477	4.765101	1.614460	-0.000191
1102	1.0955e+02	-3.8614	-14.479187	0.000243	2.433243	0.824405	-0.000097
1103	1.0965e+02	-3.8999	-14.656821	0.000446	4.460945	1.511409	-0.000179
1104	1.0975e+02	-3.9416	-14.818307	0.000406	4.055405	1.374008	-0.000162
1105	1.0985e+02	-3.9817	-14.971718	0.000385	3.852634	1.305308	-0.000154
1106	1.0995e+02	-4.0218	-15.096869	0.000314	3.142939	1.064856	-0.000126
1107	1.1005e+02	-4.0539	-15.250280	0.000385	3.852634	1.305308	-0.000154
1108	1.1015e+02	-4.0972	-15.371394	0.000304	3.041554	1.030506	-0.000122
1109	1.1025e+02	-4.1357	-15.516731	0.000365	3.649864	1.236607	-0.000146
1110	1.1035e+02	-4.1806	-15.653994	0.000345	3.447094	1.167907	-0.000138
1111	1.1044e+02	-4.2159	-15.819516	0.000416	4.156790	1.408359	-0.000166
1112	1.1054e+02	-4.2576	-15.924482	0.000264	2.636013	0.893105	-0.000105
1113	1.1064e+02	-4.2977	-16.053670	0.000324	3.244324	1.099207	-0.000130
1114	1.1074e+02	-4.3475	-16.158636	0.000264	2.636013	0.893105	-0.000105
1115	1.1084e+02	-4.3796	-16.340307	0.000456	4.562330	1.545759	-0.000183
1116	1.1094e+02	-4.4229	-16.372604	0.000081	0.811081	0.274802	-0.000032
1117	1.1104e+02	-4.4598	-16.546201	0.000436	4.359560	1.477059	-0.000174
1118	1.1114e+02	-4.5015	-16.723835	0.000446	4.460945	1.511409	-0.000179
1119	1.1124e+02	-4.5352	-16.828800	0.000264	2.636013	0.893105	-0.000105
1120	1.1134e+02	-4.5753	-16.949914	0.000304	3.041554	1.030506	-0.000122
1121	1.1144e+02	-4.6138	-17.111400	0.000406	4.055405	1.374008	-0.000162
1122	1.1154e+02	-4.6571	-17.309219	0.000497	4.967871	1.683160	-0.000199
1123	1.1164e+02	-4.6956	-17.402074	0.000233	2.331858	0.790055	-0.000093
1124	1.1174e+02	-4.7373	-17.555485	0.000385	3.852634	1.305308	-0.000154
1125	1.1184e+02	-4.7790	-17.692747	0.000345	3.447094	1.167907	-0.000138
1126	1.1194e+02	-4.8127	-17.809824	0.000294	2.940168	0.996156	-0.000118
1127	1.1204e+02	-4.8576	-17.967273	0.000395	3.954020	1.339658	-0.000158
1128	1.1214e+02	-4.8881	-18.112609	0.000365	3.649864	1.236607	-0.000146
1129	1.1224e+02	-4.9458	-18.253909	0.000355	3.548479	1.202257	-0.000142
1130	1.1234e+02	-4.9747	-18.375023	0.000304	3.041554	1.030506	-0.000122
1131	1.1244e+02	-5.0196	-18.500175	0.000314	3.142939	1.064856	-0.000126
1132	1.1253e+02	-5.0517	-18.629363	0.000324	3.244324	1.099207	-0.000130
1133	1.1263e+02	-5.0966	-18.782774	0.000385	3.852634	1.305308	-0.000154
1134	1.1273e+02	-5.1368	-18.883702	0.000253	2.534628	0.858755	-0.000101
1135	1.1283e+02	-5.1737	-19.016928	0.000335	3.345709	1.133557	-0.000134
1136	1.1293e+02	-5.2073	-19.134005	0.000294	2.940168	0.996156	-0.000118
1137	1.1303e+02	-5.2603	-19.247045	0.000284	2.838783	0.961806	-0.000114
1138	1.1313e+02	-5.2892	-19.428716	0.000456	4.562330	1.545759	-0.000183
1139	1.1323e+02	-5.3357	-19.570015	0.000355	3.548479	1.202257	-0.000142
1140	1.1333e+02	-5.3710	-19.687092	0.000294	2.940168	0.996156	-0.000118
1141	1.1343e+02	-5.4111	-19.872801	0.000466	4.663715	1.580110	-0.000187
1142	1.1353e+02	-5.4592	-19.985840	0.000284	2.838783	0.961806	-0.000114
1143	1.1363e+02	-5.4945	-20.102917	0.000294	2.940168	0.996156	-0.000118
1144	1.1373e+02	-5.5394	-20.280551	0.000446	4.460945	1.511409	-0.000179
1145	1.1383e+02	-5.5779	-20.369368	0.000223	2.230473	0.755705	-0.000089
1146	1.1393e+02	-5.6084	-20.502594	0.000335	3.345709	1.133557	-0.000134
1147	1.1403e+02	-5.6501	-20.643894	0.000355	3.548479	1.202257	-0.000142
1148	1.1413e+02	-5.6886	-20.785193	0.000355	3.548479	1.202257	-0.000142
1149	1.1423e+02	-5.7351	-20.938605	0.000385	3.852634	1.305308	-0.000154
1150	1.1433e+02	-5.7720	-21.051644	0.000284	2.838783	0.961806	-0.000114
1151	1.1442e+02	-5.8121	-21.156610	0.000264	2.636013	0.893105	-0.000105
1152	1.1452e+02	-5.8522	-21.273687	0.000294	2.940168	0.996156	-0.000118
1153	1.1462e+02	-5.8956	-21.402875	0.000324	3.244324	1.099207	-0.000130
1154	1.1472e+02	-5.9308	-21.528026	0.000314	3.142939	1.064856	-0.000126
1155	1.1482e+02	-5.9726	-21.657215	0.000324	3.244324	1.099207	-0.000130
1156	1.1492e+02	-6.0191	-21.806589	0.000375	3.751249	1.270958	-0.000150
1157	1.1502e+02	-6.0480	-21.972111	0.000416	4.156790	1.408359	-0.000166
1158	1.1512e+02	-6.0897	-22.125522	0.000385	3.852634	1.305308	-0.000154
1159	1.1522e+02	-6.1298	-22.258748	0.000335	3.345709	1.133557	-0.000134
1160	1.1532e+02	-6.1699	-22.359676	0.000253	2.534628	0.858755	-0.000101
1161	1.1542e+02	-6.2148	-22.521162	0.000406	4.055405	1.374008	-0.000162
1162	1.1552e+02	-6.2597	-22.630164	0.000274	2.737398	0.927456	-0.000110
1163	1.1562e+02	-6.2902	-22.791650	0.000406	4.055405	1.374008	-0.000162
1164	1.1572e+02	-6.3351	-22.912764	0.000304	3.041554	1.030506	-0.000122
1165	1.1582e+02	-6.3704	-23.062138	0.000375	3.751249	1.270958	-0.000150
1166	1.1592e+02	-6.4073	-23.191326	0.000324	3.244324	1.099207	-0.000130
1167	1.1602e+02	-6.4490	-23.296292	0.000264	2.636013	0.893105	-0.000105
1168	1.1612e+02	-6.4763	-23.445666	0.000375	3.751249	1.270958	-0.000150
1169	1.1622e+02	-6.5180	-23.586966	0.000355	3.548479	1.202257	-0.000142
1170	1.1632e+02	-6.5709	-23.704042	0.000294	2.940168	0.996156	-0.000118
1171	1.1642e+02	-6.6143	-23.813045	0.000274	2.737398	0.927456	-0.000110
1172	1.1651e+02	-6.6479	-23.877639	0.000162	1.622162	0.549603	-0.000065
1173	1.1661e+02	-6.6816	-24.067385	0.000477	4.765101	1.614460	-0.000191
1174	1.1671e+02	-6.7298	-24.212722	0.000365	3.649864	1.236607	-0.000146
1175	1.1681e+02	-6.7634	-24.370170	0.000395	3.954020	1.339658	-0.000158
1176	1.1691e+02	-6.8052	-24.523581	0.000385	3.852634	1.305308	-0.000154
1177	1.1701e+02	-6.8437	-24.576064	0.000132	1.318007	0.446553	-0.000053
1178	1.1711e+02	-6.8854	-24.757735	0.000456	4.562330	1.545759	-0.000183
1179	1.1721e+02	-6.9239	-24.947480	0.000477	4.765101	1.614460	-0.000191
1180	1.1731e+02	-6.9640	-25.004000	0.000142	1.419392	0.480903	-0.000057
1181	1.1741e+02	-6.9945	-25.149337	0.000365	3.649864	1.236607	-0.000146
1182	1.1751e+02	-7.0426	-25.274488	0.000314	3.142939	1.064856	-0.000126
1183	1.1761e+02	-7.0923	-25.435974	0.000406	4.055405	1.374008	-0.000162
1184	1.1771e+02	-7.1212	-25.565162	0.000324	3.244324	1.099207	-0.000130
1185	1.1781e+02	-7.1741	-25.666090	0.000253	2.534628	0.858755	-0.000101
1186	1.1791e+02	-7.2014	-25.807390	0.000355	3.548479	1.202257	-0.000142
1187	1.1801e+02	-7.2511	-25.908319	0.000253	2.534628	0.858755	-0.000101
1188	1.1811e+02	-7.2832	-26.053655	0.000365	3.649864	1.236607	-0.000146
1189	1.1821e+02	-7.3233	-26.154584	0.000253	2.534628	0.858755	-0.000101
1190	1.1831e+02	-7.3570	-26.295884	0.000355	3.548479	1.202257	-0.000142
1191	1.1841e+02	-7.4083	-26.400849	0.000264	2.636013	0.893105	-0.000105
1192	1.1850e+02	-7.4372	-26.570409	0.000426	4.258175	1.442709	-0.000170
1193	1.1860e+02	-7.4821	-26.752080	0.000456	4.562330	1.545759	-0.000183
1194	1.1870e+02	-7.5158	-26.873194	0.000304	3.041554	1.030506	-0.000122
1195	1.1880e+02	-7.5624	-26.990271	0.000294	2.940168	0.996156	-0.000118
1196	1.1890e+02	-7.5993	-27.083125	0.000233	2.331858	0.790055	-0.000093
1197	1.1900e+02	-7.6410	-27.248648	0.000416	4.156790	1.408359	-0.000166
1198	1.1910e+02	-7.6859	-27.385910	0.000345	3.447094	1.167907	-0.000138
1199	1.1920e+02	-7.7228	-27.498950	0.000284	2.838783	0.961806	-0.000114
1200	1.1930e+02	-7.7661	-27.672547	0.000436	4.359560	1.477059	-0.000174
1201	1.1940e+02	-7.8030	-27.785587	0.000284	2.838783	0.961806	-0.000114
1202	1.1950e+02	-7.8431	-27.910738	0.000314	3.142939	1.064856	-0.000126
1203	1.1960e+02	-7.8880	-28.027815	0.000294	2.940168	0.996156	-0.000118
1204	1.1970e+02	-7.9185	-28.148929	0.000304	3.041554	1.030506	-0.000122
1205	1.1980e+02	-7.9682	-28.270043	0.000304	3.041554	1.030506	-0.000122
1206	1.1990e+02	-8.0003	-28.407306	0.000345	3.447094	1.167907	-0.000138
1207	1.2000e+02	-8.0436	-28.488048	0.000203	2.027702	0.687004	-0.000081
1208	1.2010e+02	-8.0805	-28.621274	0.000335	3.345709	1.133557	-0.000134
1209	1.2020e+02	-8.1190	-28.758536	0.000345	3.447094	1.167907	-0.000138
1210	1.2030e+02	-8.1591	-28.895799	0.000345	3.447094	1.167907	-0.000138
1211	1.2039e+02	-8.1976	-29.049210	0.000385	3.852634	1.305308	-0.000154
1212	1.2049e+02	-8.2442	-29.166287	0.000294	2.940168	0.996156	-0.000118
1213	1.2059e+02	-8.2843	-29.287401	0.000304	3.041554	1.030506	-0.000122
1214	1.2069e+02	-8.3244	-29.452924	0.000416	4.156790	1.408359	-0.000166
1215	1.2079e+02	-8.3548	-29.565964	0.000284	2.838783	0.961806	-0.000114
1216	1.2089e+02	-8.3998	-29.683041	0.000294	2.940168	0.996156	-0.000118
1217	1.2099e+02	-8.4447	-29.848563	0.000416	4.156790	1.408359	-0.000166
1218	1.2109e+02	-8.4848	-29.953529	0.000264	2.636013	0.893105	-0.000105
1219	1.2119e+02	-8.5313	-30.054457	0.000253	2.534628	0.858755	-0.000101
1220	1.2129e+02	-8.5602	-30.179608	0.000314	3.142939	1.064856	-0.000126
1221	1.2139e+02	-8.5939	-30.308797	0.000324	3.244324	1.099207	-0.000130
1222	1.2149e+02	-8.6308	-30.442022	0.000335	3.345709	1.133557	-0.000134
1223	1.2159e+02	-8.6789	-30.555062	0.000284	2.838783	0.961806	-0.000114
1224	1.2169e+02	-8.7158	-30.728659	0.000436	4.359560	1.477059	-0.000174
1225	1.2179e+02	-8.7479	-30.813439	0.000213	2.129087	0.721354	-0.000085
1226	1.2189e+02	-8.8024	-30.878033	0.000162	1.622162	0.549603	-0.000065
1227	1.2199e+02	-8.8313	-31.019332	0.000355	3.548479	1.202257	-0.000142
1228	1.2209e+02	-8.8778	-31.213115	0.000487	4.866486	1.648810	-0.000195
1229	1.2219e+02	-8.9179	-31.342303	0.000324	3.244324	1.099207	-0.000130
1230	1.2229e+02	-8.9516	-31.435157	0.000233	2.331858	0.790055	-0.000093
1231	1.2239e+02	-8.9981	-31.588569	0.000385	3.852634	1.305308	-0.000154
1232	1.2248e+02	-9.0431	-31.705646	0.000294	2.940168	0.996156	-0.000118
1233	1.2258e+02	-9.0880	-31.887317	0.000456	4.562330	1.545759	-0.000183
1234	1.2268e+02	-9.1185	-31.951911	0.000162	1.622162	0.549603	-0.000065
1235	1.2278e+02	-9.1570	-32.093211	0.000355	3.548479	1.202257	-0.000142
1236	1.2288e+02	-9.2019	-32.242585	0.000375	3.751249	1.270958	-0.000150
1237	1.2298e+02	-9.2404	-32.379847	0.000345	3.447094	1.167907	-0.000138
1238	1.2308e+02	-9.2725	-32.484813	0.000264	2.636013	0.893105	-0.000105
1239	1.2318e+02	-9.3238	-32.593815	0.000274	2.737398	0.927456	-0.000110
1240	1.2328e+02	-9.3495	-32.710892	0.000294	2.940168	0.996156	-0.000118
1241	1.2338e+02	-9.4024	-32.888526	0.000446	4.460945	1.511409	-0.000179
1242	1.2348e+02	-9.4377	-32.957158	0.000172	1.723547	0.583954	-0.000069
1243	1.2358e+02	-9.4778	-33.094420	0.000345	3.447094	1.167907	-0.000138
1244	1.2368e+02	-9.5211	-33.199386	0.000264	2.636013	0.893105	-0.000105
1245	1.2378e+02	-9.5596	-33.292240	0.000233	2.331858	0.790055	-0.000093
1246	1.2388e+02	-9.5917	-33.473911	0.000456	4.562330	1.545759	-0.000183
1247	1.2398e+02	-9.6334	-33.582914	0.000274	2.737398	0.927456	-0.000110
1248	1.2408e+02	-9.6767	-33.708065	0.000314	3.142939	1.064856	-0.000126
1249	1.2418e+02	-9.7056	-33.837253	0.000324	3.244324	1.099207	-0.000130
1250	1.2428e+02	-9.7585	-33.950293	0.000284	2.838783	0.961806	-0.000114
1251	1.2438e+02	-9.7938	-34.111778	0.000406	4.055405	1.374008	-0.000162
1252	1.2447e+02	-9.8339	-34.220781	0.000274	2.737398	0.927456	-0.000110
1253	1.2457e+02	-9.8708	-34.317672	0.000243	2.433243	0.824405	-0.000097
1254	1.2467e+02	-9.9222	-34.422638	0.000264	2.636013	0.893105	-0.000105
1255	1.2477e+02	-9.9575	-34.567975	0.000365	3.649864	1.236607	-0.000146
1256	1.2487e+02	-10.0024	-34.656792	0.000223	2.230473	0.755705	-0.000089
1257	1.2497e+02	-10.0345	-34.826351	0.000426	4.258175	1.442709	-0.000170
1258	1.2507e+02	-10.0746	-34.943428	0.000294	2.940168	0.996156	-0.000118
1259	1.2517e+02	-10.1035	-35.072617	0.000324	3.244324	1.099207	-0.000130
1260	1.2527e+02	-10.1564	-35.173545	0.000253	2.534628	0.858755	-0.000101
1261	1.2537e+02	-10.1901	-35.294659	0.000304	3.041554	1.030506	-0.000122
1262	1.2547e+02	-10.2318	-35.387513	0.000233	2.331858	0.790055	-0.000093
1263	1.2557e+02	-10.2607	-35.496516	0.000274	2.737398	0.927456	-0.000110
1264	1.2567e+02	-10.3168	-35.690298	0.000487	4.866486	1.648810	-0.000195
1265	1.2577e+02	-10.3473	-35.746818	0.000142	1.419392	0.480903	-0.000057
1266	1.2587e+02	-10.3922	-35.932527	0.000466	4.663715	1.580110	-0.000187
1267	1.2597e+02	-10.4243	-36.033455	0.000253	2.534628	0.858755	-0.000101
1268	1.2607e+02	-10.4756	-36.174755	0.000355	3.548479	1.202257	-0.000142
1269	1.2617e+02	-10.5125	-36.255497	0.000203	2.027702	0.687004	-0.000081
1270	1.2627e+02	-10.5542	-36.425057	0.000426	4.258175	1.442709	-0.000170
1271	1.2636e+02	-10.5911	-36.538097	0.000284	2.838783	0.961806	-0.000114
1272	1.2646e+02	-10.6313	-36.626914	0.000223	2.230473	0.755705	-0.000089
1273	1.2656e+02	-10.6762	-36.788399	0.000406	4.055405	1.374008	-0.000162
1274	1.2666e+02	-10.7131	-36.885291	0.000243	2.433243	0.824405	-0.000097
1275	1.2676e+02	-10.7516	-37.026590	0.000355	3.548479	1.202257	-0.000142
1276	1.2686e+02	-10.7981	-37.091185	0.000162	1.622162	0.549603	-0.000065
1277	1.2696e+02	-10.8302	-37.240559	0.000375	3.751249	1.270958	-0.000150
1278	1.2706e+02	-10.8687	-37.389933	0.000375	3.751249	1.270958	-0.000150
1279	1.2716e+02	-10.9104	-37.490861	0.000253	2.534628	0.858755	-0.000101
1280	1.2726e+02	-10.9537	-37.624087	0.000335	3.345709	1.133557	-0.000134
1281	1.2736e+02	-10.9874	-37.692718	0.000172	1.723547	0.583954	-0.000069
1282	1.2746e+02	-11.0259	-37.866315	0.000436	4.359560	1.477059	-0.000174
1283	1.2756e+02	-11.0644	-37.971280	0.000264	2.636013	0.893105	-0.000105
1284	1.2766e+02	-11.1125	-38.060097	0.000223	2.230473	0.755705	-0.000089
1285	1.2776e+02	-11.1526	-38.197360	0.000345	3.447094	1.167907	-0.000138
1286	1.2786e+02	-11.1895	-38.318474	0.000304	3.041554	1.030506	-0.000122
1287	1.2796e+02	-11.2280	-38.439588	0.000304	3.041554	1.030506	-0.000122
1288	1.2806e+02	-11.2713	-38.580888	0.000355	3.548479	1.202257	-0.000142
1289	1.2816e+02	-11.3098	-38.665668	0.000213	2.129087	0.721354	-0.000085
1290	1.2826e+02	-11.3451	-38.802930	0.000345	3.447094	1.167907	-0.000138
1291	1.2835e+02	-11.3836	-38.928081	0.000314	3.142939	1.064856	-0.000126
1292	1.2845e+02	-11.4237	-39.053233	0.000314	3.142939	1.064856	-0.000126
1293	1.2855e+02	-11.4751	-39.150124	0.000243	2.433243	0.824405	-0.000097
1294	1.2865e+02	-11.5088	-39.315646	0.000416	4.156790	1.408359	-0.000166
1295	1.2875e+02	-11.5569	-39.400426	0.000213	2.129087	0.721354	-0.000085
1296	1.2885e+02	-11.5858	-39.513466	0.000284	2.838783	0.961806	-0.000114
1297	1.2895e+02	-11.6355	-39.678989	0.000416	4.156790	1.408359	-0.000166
1298	1.2905e+02	-11.6708	-39.804140	0.000314	3.142939	1.064856	-0.000126
1299	1.2915e+02	-11.7109	-39.941402	0.000345	3.447094	1.167907	-0.000138
1300	1.2925e+02	-11.7334	-40.030219	0.000223	2.230473	0.755705	-0.000089
1301	1.2935e+02	-11.7879	-40.159408	0.000324	3.244324	1.099207	-0.000130
1302	1.2945e+02	-11.8280	-40.268410	0.000274	2.737398	0.927456	-0.000110
1303	1.2955e+02	-11.8681	-40.357227	0.000223	2.230473	0.755705	-0.000089
1304	1.2965e+02	-11.9050	-40.526787	0.000426	4.258175	1.442709	-0.000170
1305	1.2975e+02	-11.9403	-40.595418	0.000172	1.723547	0.583954	-0.000069
1306	1.2985e+02	-11.9884	-40.736718	0.000355	3.548479	1.202257	-0.000142
1307	1.2995e+02	-12.0285	-40.865907	0.000324	3.244324	1.099207	-0.000130
1308	1.3005e+02	-12.0670	-40.978946	0.000284	2.838783	0.961806	-0.000114
1309	1.3015e+02	-12.1055	-41.079875	0.000253	2.534628	0.858755	-0.000101
1310	1.3025e+02	-12.1521	-41.200989	0.000304	3.041554	1.030506	-0.000122
1311	1.3034e+02	-12.1938	-41.309991	0.000274	2.737398	0.927456	-0.000110
1312	1.3044e+02	-12.2339	-41.459365	0.000375	3.751249	1.270958	-0.000150
1313	1.3054e+02	-12.2676	-41.544145	0.000213	2.129087	0.721354	-0.000085
1314	1.3064e+02	-12.3093	-41.665259	0.000304	3.041554	1.030506	-0.000122
1315	1.3074e+02	-12.3366	-41.762151	0.000243	2.433243	0.824405	-0.000097
1316	1.3084e+02	-12.3831	-41.903450	0.000355	3.548479	1.202257	-0.000142
1317	1.3094e+02	-12.4200	-42.089159	0.000466	4.663715	1.580110	-0.000187
1318	1.3104e+02	-12.4665	-42.161827	0.000182	1.824932	0.618304	-0.000073
1319	1.3114e+02	-12.5002	-42.230458	0.000172	1.723547	0.583954	-0.000069
1320	1.3124e+02	-12.5403	-42.355610	0.000314	3.142939	1.064856	-0.000126
1321	1.3134e+02	-12.5868	-42.480761	0.000314	3.142939	1.064856	-0.000126
1322	1.3144e+02	-12.6189	-42.585726	0.000264	2.636013	0.893105	-0.000105
1323	1.3154e+02	-12.6590	-42.747212	0.000406	4.055405	1.374008	-0.000162
1324	1.3164e+02	-12.6975	-42.831992	0.000213	2.129087	0.721354	-0.000085
1325	1.3174e+02	-12.7392	-42.997514	0.000416	4.156790	1.408359	-0.000166
1326	1.3184e+02	-12.7825	-43.074220	0.000193	1.926317	0.652654	-0.000077
1327	1.3194e+02	-12.8258	-43.183222	0.000274	2.737398	0.927456	-0.000110
1328	1.3204e+02	-12.8563	-43.288188	0.000264	2.636013	0.893105	-0.000105
1329	1.3214e+02	-12.8932	-43.433525	0.000365	3.649864	1.236607	-0.000146
1330	1.3224e+02	-12.9526	-43.526379	0.000233	2.331858	0.790055	-0.000093
1331	1.3234e+02	-12.9831	-43.667679	0.000355	3.548479	1.202257	-0.000142
1332	1.3243e+02	-13.0135	-43.776681	0.000274	2.737398	0.927456	-0.000110
1333	1.3253e+02	-13.0617	-43.909907	0.000335	3.345709	1.133557	-0.000134
1334	1.3263e+02	-13.1082	-44.047169	0.000345	3.447094	1.167907	-0.000138
1335	1.3273e+02	-13.1290	-44.135986	0.000223	2.230473	0.755705	-0.000089
1336	1.3283e+02	-13.1772	-44.309583	0.000436	4.359560	1.477059	-0.000174
1337	1.3293e+02	-13.2141	-44.418586	0.000274	2.737398	0.927456	-0.000110
1338	1.3303e+02	-13.2590	-44.487217	0.000172	1.723547	0.583954	-0.000069
1339	1.3313e+02	-13.2991	-44.636591	0.000375	3.751249	1.270958	-0.000150
1340	1.3323e+02	-13.3344	-44.769817	0.000335	3.345709	1.133557	-0.000134
1341	1.3333e+02	-13.3777	-44.818262	0.000122	1.216621	0.412202	-0.000049
1342	1.3343e+02	-13.4194	-44.983785	0.000416	4.156790	1.408359	-0.000166
1343	1.3353e+02	-13.4563	-45.084713	0.000253	2.534628	0.858755	-0.000101
1344	1.3363e+02	-13.4932	-45.193716	0.000274	2.737398	0.927456	-0.000110
1345	1.3373e+02	-13.5365	-45.318867	0.000314	3.142939	1.064856	-0.000126
1346	1.3383e+02	-13.5830	-45.448056	0.000324	3.244324	1.099207	-0.000130
1347	1.3393e+02	-13.6183	-45.548984	0.000253	2.534628	0.858755	-0.000101
1348	1.3403e+02	-13.6600	-45.666061	0.000294	2.940168	0.996156	-0.000118
1349	1.3413e+02	-13.7018	-45.762952	0.000243	2.433243	0.824405	-0.000097
1350	1.3423e+02	-13.7370	-45.904252	0.000355	3.548479	1.202257	-0.000142
1351	1.3432e+02	-13.7788	-46.037477	0.000335	3.345709	1.133557	-0.000134
1352	1.3442e+02	-13.8140	-46.142443	0.000264	2.636013	0.893105	-0.000105
1353	1.3452e+02	-13.8509	-46.275668	0.000335	3.345709	1.133557	-0.000134
1354	1.3462e+02	-13.8878	-46.408894	0.000335	3.345709	1.133557	-0.000134
1355	1.3472e+02	-13.9312	-46.505785	0.000243	2.433243	0.824405	-0.000097
1356	1.3482e+02	-13.9777	-46.606714	0.000253	2.534628	0.858755	-0.000101
1357	1.3492e+02	-14.0194	-46.699568	0.000233	2.331858	0.790055	-0.000093
1358	1.3502e+02	-14.0675	-46.844905	0.000365	3.649864	1.236607	-0.000146
1359	1.3512e+02	-14.0900	-46.949870	0.000264	2.636013	0.893105	-0.000105
1360	1.3522e+02	-14.1301	-47.054836	0.000264	2.636013	0.893105	-0.000105
1361	1.3532e+02	-14.1846	-47.163838	0.000274	2.737398	0.927456	-0.000110
1362	1.3542e+02	-14.2199	-47.272841	0.000274	2.737398	0.927456	-0.000110
1363	1.3552e+02	-14.2632	-47.406066	0.000335	3.345709	1.133557	-0.000134
1364	1.3562e+02	-14.2937	-47.527180	0.000304	3.041554	1.030506	-0.000122
1365	1.3572e+02	-14.3402	-47.611960	0.000213	2.129087	0.721354	-0.000085
1366	1.3582e+02	-14.3836	-47.765371	0.000385	3.852634	1.305308	-0.000154
1367	1.3592e+02	-14.4156	-47.878411	0.000284	2.838783	0.961806	-0.000114
1368	1.3602e+02	-14.4541	-47.971265	0.000233	2.331858	0.790055	-0.000093
1369	1.3612e+02	-14.4958	-48.124677	0.000385	3.852634	1.305308	-0.000154
1370	1.3622e+02	-14.5456	-48.213494	0.000223	2.230473	0.755705	-0.000089
1371	1.3631e+02	-14.5777	-48.362868	0.000375	3.751249	1.270958	-0.000150
1372	1.3641e+02	-14.6162	-48.471870	0.000274	2.737398	0.927456	-0.000110
1373	1.3651e+02	-14.6515	-48.613170	0.000355	3.548479	1.202257	-0.000142
1374	1.3661e+02	-14.6964	-48.697950	0.000213	2.129087	0.721354	-0.000085
1375	1.3671e+02	-14.7349	-48.823101	0.000314	3.142939	1.064856	-0.000126
1376	1.3681e+02	-14.7686	-48.907881	0.000213	2.129087	0.721354	-0.000085
1377	1.3691e+02	-14.8151	-48.968438	0.000152	1.520777	0.515253	-0.000061
1378	1.3701e+02	-14.8456	-49.117812	0.000375	3.751249	1.270958	-0.000150
1379	1.3711e+02	-14.8985	-49.242963	0.000314	3.142939	1.064856	-0.000126
1380	1.3721e+02	-14.9290	-49.339854	0.000243	2.433243	0.824405	-0.000097
1381	1.3731e+02	-14.9755	-49.505377	0.000416	4.156790	1.408359	-0.000166
1382	1.3741e+02	-15.0108	-49.578045	0.000182	1.824932	0.618304	-0.000073
1383	1.3751e+02	-15.0493	-49.703197	0.000314	3.142939	1.064856	-0.000126
1384	1.3761e+02	-15.0958	-49.804125	0.000253	2.534628	0.858755	-0.000101
1385	1.3771e+02	-15.1327	-49.901016	0.000243	2.433243	0.824405	-0.000097
1386	1.3781e+02	-15.1728	-50.038279	0.000345	3.447094	1.167907	-0.000138
1387	1.3791e+02	-15.2129	-50.143244	0.000264	2.636013	0.893105	-0.000105
1388	1.3801e+02	-15.2466	-50.248210	0.000264	2.636013	0.893105	-0.000105
1389	1.3811e+02	-15.2899	-50.421807	0.000436	4.359560	1.477059	-0.000174
1390	1.3821e+02	-15.3284	-50.514661	0.000233	2.331858	0.790055	-0.000093
1391	1.3831e+02	-15.3750	-50.647886	0.000335	3.345709	1.133557	-0.000134
1392	1.3840e+02	-15.4135	-50.740741	0.000233	2.331858	0.790055	-0.000093
1393	1.3850e+02	-15.4472	-50.849743	0.000274	2.737398	0.927456	-0.000110
1394	1.3860e+02	-15.4921	-50.966820	0.000294	2.940168	0.996156	-0.000118
1395	1.3870e+02	-15.5338	-51.051600	0.000213	2.129087	0.721354	-0.000085
1396	1.3880e+02	-15.5755	-51.172714	0.000304	3.041554	1.030506	-0.000122
1397	1.3890e+02	-15.6092	-51.330162	0.000395	3.954020	1.339658	-0.000158
1398	1.3900e+02	-15.6509	-51.394757	0.000162	1.622162	0.549603	-0.000065
1399	1.3910e+02	-15.6958	-51.523945	0.000324	3.244324	1.099207	-0.000130
1400	1.3920e+02	-15.7359	-51.628910	0.000264	2.636013	0.893105	-0.000105
1401	1.3930e+02	-15.7824	-51.733876	0.000264	2.636013	0.893105	-0.000105
1402	1.3940e+02	-15.8145	-51.879213	0.000365	3.649864	1.236607	-0.000146
1403	1.3950e+02	-15.8514	-51.976104	0.000243	2.433243	0.824405	-0.000097
1404	1.3960e+02	-15.8899	-52.085107	0.000274	2.737398	0.927456	-0.000110
1405	1.3970e+02	-15.9236	-52.214295	0.000324	3.244324	1.099207	-0.000130
1406	1.3980e+02	-15.9717	-52.327335	0.000284	2.838783	0.961806	-0.000114
1407	1.3990e+02	-16.0086	-52.480746	0.000385	3.852634	1.305308	-0.000154
1408	1.4000e+02	-16.0487	-52.585712	0.000264	2.636013	0.893105	-0.000105
1409	1.4010e+02	-16.0921	-52.702788	0.000294	2.940168	0.996156	-0.000118
1410	1.4020e+02	-16.1306	-52.759308	0.000142	1.419392	0.480903	-0.000057
1411	1.4029e+02	-16.1691	-52.900608	0.000355	3.548479	1.202257	-0.000142
1412	1.4039e+02	-16.2124	-52.997499	0.000243	2.433243	0.824405	-0.000097
1413	1.4049e+02	-16.2445	-53.163022	0.000416	4.156790	1.408359	-0.000166
1414	1.4059e+02	-16.2910	-53.215505	0.000132	1.318007	0.446553	-0.000053
1415	1.4069e+02	-16.3311	-53.324507	0.000274	2.737398	0.927456	-0.000110
1416	1.4079e+02	-16.3648	-53.437547	0.000284	2.838783	0.961806	-0.000114
1417	1.4089e+02	-16.4113	-53.578847	0.000355	3.548479	1.202257	-0.000142
1418	1.4099e+02	-16.4450	-53.635367	0.000142	1.419392	0.480903	-0.000057
1419	1.4109e+02	-16.4867	-53.784741	0.000375	3.751249	1.270958	-0.000150
1420	1.4119e+02	-16.5300	-53.857409	0.000182	1.824932	0.618304	-0.000073
1421	1.4129e+02	-16.5733	-54.018895	0.000406	4.055405	1.374008	-0.000162
1422	1.4139e+02	-16.6070	-54.119823	0.000253	2.534628	0.858755	-0.000101
1423	1.4149e+02	-16.6423	-54.232863	0.000284	2.838783	0.961806	-0.000114
1424	1.4159e+02	-16.6792	-54.366088	0.000335	3.345709	1.133557	-0.000134
1425	1.4169e+02	-16.7193	-54.499314	0.000335	3.345709	1.133557	-0.000134
1426	1.4179e+02	-16.7610	-54.600242	0.000253	2.534628	0.858755	-0.000101
1427	1.4189e+02	-16.8043	-54.713282	0.000284	2.838783	0.961806	-0.000114
1428	1.4199e+02	-16.8509	-54.745579	0.000081	0.811081	0.274802	-0.000032
1429	1.4209e+02	-16.8878	-54.894953	0.000375	3.751249	1.270958	-0.000150
1430	1.4219e+02	-16.9214	-55.036253	0.000355	3.548479	1.202257	-0.000142
1431	1.4228e+02	-16.9599	-55.096810	0.000152	1.520777	0.515253	-0.000061
1432	1.4238e+02	-17.0033	-55.221961	0.000314	3.142939	1.064856	-0.000126
1433	1.4248e+02	-17.0546	-55.314815	0.000233	2.331858	0.790055	-0.000093
1434	1.4258e+02	-17.0883	-55.407669	0.000233	2.331858	0.790055	-0.000093
1435	1.4268e+02	-17.1300	-55.577229	0.000426	4.258175	1.442709	-0.000170
1436	1.4278e+02	-17.1685	-55.698343	0.000304	3.041554	1.030506	-0.000122
1437	1.4288e+02	-17.2118	-55.835606	0.000345	3.447094	1.167907	-0.000138
1438	1.4298e+02	-17.2343	-55.916349	0.000203	2.027702	0.687004	-0.000081
1439	1.4308e+02	-17.2952	-56.045537	0.000324	3.244324	1.099207	-0.000130
1440	1.4318e+02	-17.3241	-56.158577	0.000284	2.838783	0.961806	-0.000114
1441	1.4328e+02	-17.3658	-56.243357	0.000213	2.129087	0.721354	-0.000085
1442	1.4338e+02	-17.3979	-56.364471	0.000304	3.041554	1.030506	-0.000122
1443	1.4348e+02	-17.4460	-56.505770	0.000355	3.548479	1.202257	-0.000142
1444	1.4358e+02	-17.4845	-56.606699	0.000253	2.534628	0.858755	-0.000101
1445	1.4368e+02	-17.5086	-56.707627	0.000253	2.534628	0.858755	-0.000101
1446	1.4378e+02	-17.5567	-56.836815	0.000324	3.244324	1.099207	-0.000130
1447	1.4388e+02	-17.6065	-56.941781	0.000264	2.636013	0.893105	-0.000105
1448	1.4398e+02	-17.6417	-57.010412	0.000172	1.723547	0.583954	-0.000069
1449	1.4408e+02	-17.6786	-57.131526	0.000304	3.041554	1.030506	-0.000122
1450	1.4418e+02	-17.7204	-57.240529	0.000274	2.737398	0.927456	-0.000110
1451	1.4428e+02	-17.7749	-57.345495	0.000264	2.636013	0.893105	-0.000105
1452	1.4437e+02	-17.8102	-57.466609	0.000304	3.041554	1.030506	-0.000122
1453	1.4447e+02	-17.8391	-57.620020	0.000385	3.852634	1.305308	-0.000154
1454	1.4457e+02	-17.8760	-57.684614	0.000162	1.622162	0.549603	-0.000065
1455	1.4467e+02	-17.9289	-57.842062	0.000395	3.954020	1.339658	-0.000158
1456	1.4477e+02	-17.9706	-57.971251	0.000324	3.244324	1.099207	-0.000130
1457	1.4487e+02	-18.0043	-58.096402	0.000314	3.142939	1.064856	-0.000126
1458	1.4497e+02	-18.0364	-58.201367	0.000264	2.636013	0.893105	-0.000105
1459	1.4507e+02	-18.0797	-58.330556	0.000324	3.244324	1.099207	-0.000130
1460	1.4517e+02	-18.1198	-58.475893	0.000365	3.649864	1.236607	-0.000146
1461	1.4527e+02	-18.1583	-58.568747	0.000233	2.331858	0.790055	-0.000093
1462	1.4537e+02	-18.2048	-58.706009	0.000345	3.447094	1.167907	-0.000138
1463	1.4547e+02	-18.2433	-58.750418	0.000112	1.115236	0.377852	-0.000045
1464	1.4557e+02	-18.2738	-58.871532	0.000304	3.041554	1.030506	-0.000122
1465	1.4567e+02	-18.3187	-58.960349	0.000223	2.230473	0.755705	-0.000089
1466	1.4577e+02	-18.3604	-59.097612	0.000345	3.447094	1.167907	-0.000138
1467	1.4587e+02	-18.3973	-59.206614	0.000274	2.737398	0.927456	-0.000110
1468	1.4597e+02	-18.4423	-59.331765	0.000314	3.142939	1.064856	-0.000126
1469	1.4607e+02	-18.4759	-59.420582	0.000223	2.230473	0.755705	-0.000089
1470	1.4617e+02	-18.5161	-59.573994	0.000385	3.852634	1.305308	-0.000154
1471	1.4626e+02	-18.5642	-59.715293	0.000355	3.548479	1.202257	-0.000142
1472	1.4636e+02	-18.6027	-59.812185	0.000243	2.433243	0.824405	-0.000097
1473	1.4646e+02	-18.6444	-59.937336	0.000314	3.142939	1.064856	-0.000126
1474	1.4656e+02	-18.6877	-60.082673	0.000365	3.649864	1.236607	-0.000146
1475	1.4666e+02	-18.7198	-60.191675	0.000274	2.737398	0.927456	-0.000110
1476	1.4676e+02	-18.7599	-60.316826	0.000314	3.142939	1.064856	-0.000126
1477	1.4686e+02	-18.7888	-60.437941	0.000304	3.041554	1.030506	-0.000122
1478	1.4696e+02	-18.8369	-60.555018	0.000294	2.940168	0.996156	-0.000118
1479	1.4706e+02	-18.8834	-60.692280	0.000345	3.447094	1.167907	-0.000138
1480	1.4716e+02	-18.9011	-60.777060	0.000213	2.129087	0.721354	-0.000085
1481	1.4726e+02	-18.9572	-60.926434	0.000375	3.751249	1.270958	-0.000150
1482	1.4736e+02	-18.9973	-61.015251	0.000223	2.230473	0.755705	-0.000089
1483	1.4746e+02	-19.0262	-61.128291	0.000284	2.838783	0.961806	-0.000114
1484	1.4756e+02	-19.0727	-61.200959	0.000182	1.824932	0.618304	-0.000073
1485	1.4766e+02	-19.1080	-61.366482	0.000416	4.156790	1.408359	-0.000166
1486	1.4776e+02	-19.1626	-61.447225	0.000203	2.027702	0.687004	-0.000081
1487	1.4786e+02	-19.1962	-61.620821	0.000436	4.359560	1.477059	-0.000174
1488	1.4796e+02	-19.2348	-61.709638	0.000223	2.230473	0.755705	-0.000089
1489	1.4806e+02	-19.2845	-61.887272	0.000446	4.460945	1.511409	-0.000179
1490	1.4816e+02	-19.3294	-61.988201	0.000253	2.534628	0.858755	-0.000101
1491	1.4825e+02	-19.3567	-62.072981	0.000213	2.129087	0.721354	-0.000085
1492	1.4835e+02	-19.3984	-62.270800	0.000497	4.967871	1.683160	-0.000199
1493	1.4845e+02	-19.4321	-62.399989	0.000324	3.244324	1.099207	-0.000130
1494	1.4855e+02	-19.4626	-62.476694	0.000193	1.926317	0.652654	-0.000077
1495	1.4865e+02	-19.5171	-62.678551	0.000507	5.069256	1.717510	-0.000203
1496	1.4875e+02	-19.5524	-62.795628	0.000294	2.940168	0.996156	-0.000118
1497	1.4885e+02	-19.5909	-62.953076	0.000395	3.954020	1.339658	-0.000158
1498	1.4895e+02	-19.6278	-63.066116	0.000284	2.838783	0.961806	-0.000114
1499	1.4905e+02	-19.6695	-63.199341	0.000335	3.345709	1.133557	-0.000134
1500	1.4915e+02	-19.7096	-63.288158	0.000223	2.230473	0.755705	-0.000089
1501	1.4925e+02	-19.7609	-63.417347	0.000324	3.244324	1.099207	-0.000130
1502	1.4935e+02	-19.7946	-63.570758	0.000385	3.852634	1.305308	-0.000154
1503	1.4945e+02	-19.8315	-63.683798	0.000284	2.838783	0.961806	-0.000114
1504	1.4955e+02	-19.8877	-63.796838	0.000284	2.838783	0.961806	-0.000114
1505	1.4965e+02	-19.9069	-63.942174	0.000365	3.649864	1.236607	-0.000146
1506	1.4975e+02	-19.9502	-64.091548	0.000375	3.751249	1.270958	-0.000150
1507	1.4985e+02	-19.9936	-64.216700	0.000314	3.142939	1.064856	-0.000126
1508	1.4995e+02	-19.9615	-64.188440	0.000071	0.709696	0.240451	0.000028
1509	1.5005e+02	-19.9214	-64.176328	0.000030	0.304155	0.103051	0.000012
1510	1.5015e+02	-19.8716	-64.119808	0.000142	1.419392	0.480903	0.000057
1511	1.5025e+02	-19.8347	-64.071363	0.000122	1.216621	0.412202	0.000049
1512	1.5034e+02	-19.7866	-64.030991	0.000101	1.013851	0.343502	0.000041
1513	1.5044e+02	-19.7417	-63.998694	0.000081	0.811081	0.274802	0.000032
1514	1.5054e+02	-19.7112	-63.942174	0.000142	1.419392	0.480903	0.000057
1515	1.5064e+02	-19.6663	-63.913914	0.000071	0.709696	0.240451	0.000028
1516	1.5074e+02	-19.6278	-63.881617	0.000081	0.811081	0.274802	0.000032
1517	1.5084e+02	-19.5925	-63.780689	0.000253	2.534628	0.858755	0.000101
1518	1.5094e+02	-19.5476	-63.708021	0.000182	1.824932	0.618304	0.000073
1519	1.5104e+02	-19.5091	-63.607092	0.000253	2.534628	0.858755	0.000101
1520	1.5114e+02	-19.4609	-63.522312	0.000213	2.129087	0.721354	0.000085
1521	1.5124e+02	-19.4257	-63.465792	0.000142	1.419392	0.480903	0.000057
1522	1.5134e+02	-19.3936	-63.401198	0.000162	1.622162	0.549603	0.000065
1523	1.5144e+02	-19.3631	-63.364864	0.000091	0.912466	0.309152	0.000037
1524	1.5154e+02	-19.3085	-63.288158	0.000193	1.926317	0.652654	0.000077
1525	1.5164e+02	-19.2845	-63.219527	0.000172	1.723547	0.583954	0.000069
1526	1.5174e+02	-19.2348	-63.146859	0.000182	1.824932	0.618304	0.000073
1527	1.5184e+02	-19.2011	-63.082264	0.000162	1.622162	0.549603	0.000065
1528	1.5194e+02	-19.1577	-63.017670	0.000162	1.622162	0.549603	0.000065
1529	1.5204e+02	-19.1112	-62.936928	0.000203	2.027702	0.687004	0.000081
1530	1.5214e+02	-19.0743	-62.912705	0.000061	0.608311	0.206101	0.000024
1531	1.5224e+02	-19.0406	-62.860222	0.000132	1.318007	0.446553	0.000053
1532	1.5233e+02	-18.9973	-62.775442	0.000213	2.129087	0.721354	0.000085
1533	1.5243e+02	-18.9572	-62.698737	0.000193	1.926317	0.652654	0.000077
1534	1.5253e+02	-18.9139	-62.670477	0.000071	0.709696	0.240451	0.000028
1535	1.5263e+02	-18.8866	-62.537251	0.000335	3.345709	1.133557	0.000134
1536	1.5273e+02	-18.8369	-62.476694	0.000152	1.520777	0.515253	0.000061
1537	1.5283e+02	-18.7968	-62.412100	0.000162	1.622162	0.549603	0.000065
1538	1.5293e+02	-18.7615	-62.311172	0.000253	2.534628	0.858755	0.000101
1539	1.5303e+02	-18.7246	-62.238503	0.000182	1.824932	0.618304	0.000073
1540	1.5313e+02	-18.6829	-62.141612	0.000243	2.433243	0.824405	0.000097
1541	1.5323e+02	-18.6396	-62.024535	0.000294	2.940168	0.996156	0.000118
1542	1.5333e+02	-18.6107	-61.968015	0.000142	1.419392	0.480903	0.000057
1543	1.5343e+02	-18.5562	-61.895347	0.000182	1.824932	0.618304	0.000073
1544	1.5353e+02	-18.5273	-61.830752	0.000162	1.622162	0.549603	0.000065
1545	1.5363e+02	-18.4872	-61.733861	0.000243	2.433243	0.824405	0.000097
1546	1.5373e+02	-18.4423	-61.649081	0.000213	2.129087	0.721354	0.000085
1547	1.5383e+02	-18.3957	-61.576413	0.000182	1.824932	0.618304	0.000073
1548	1.5393e+02	-18.3604	-61.507782	0.000172	1.723547	0.583954	0.000069
1549	1.5403e+02	-18.3091	-61.471447	0.000091	0.912466	0.309152	0.000037
1550	1.5413e+02	-18.2738	-61.370519	0.000253	2.534628	0.858755	0.000101
1551	1.5422e+02	-18.2337	-61.301888	0.000172	1.723547	0.583954	0.000069
1552	1.5432e+02	-18.2000	-61.229219	0.000182	1.824932	0.618304	0.000073
1553	1.5442e+02	-18.1631	-61.168662	0.000152	1.520777	0.515253	0.000061
1554	1.5452e+02	-18.1214	-61.071771	0.000243	2.433243	0.824405	0.000097
1555	1.5462e+02	-18.0829	-60.946620	0.000314	3.142939	1.064856	0.000126
1556	1.5472e+02	-18.0380	-60.873951	0.000182	1.824932	0.618304	0.000073
1557	1.5482e+02	-18.0011	-60.756874	0.000294	2.940168	0.996156	0.000118
1558	1.5492e+02	-17.9642	-60.651909	0.000264	2.636013	0.893105	0.000105
1559	1.5502e+02	-17.9289	-60.571166	0.000203	2.027702	0.687004	0.000081
1560	1.5512e+02	-17.8824	-60.514646	0.000142	1.419392	0.480903	0.000057
1561	1.5522e+02	-17.8375	-60.417755	0.000243	2.433243	0.824405	0.000097
1562	1.5532e+02	-17.8022	-60.337012	0.000203	2.027702	0.687004	0.000081
1563	1.5542e+02	-17.7573	-60.244158	0.000233	2.331858	0.790055	0.000093
1564	1.5552e+02	-17.7155	-60.171490	0.000182	1.824932	0.618304	0.000073
1565	1.5562e+02	-17.6915	-60.123044	0.000122	1.216621	0.412202	0.000049
1566	1.5572e+02	-17.6385	-60.038264	0.000213	2.129087	0.721354	0.000085
1567	1.5582e+02	-17.6032	-59.953484	0.000213	2.129087	0.721354	0.000085
1568	1.5592e+02	-17.5647	-59.933299	0.000051	0.506926	0.171751	0.000020
1569	1.5602e+02	-17.5166	-59.828333	0.000264	2.636013	0.893105	0.000105
1570	1.5612e+02	-17.4845	-59.727405	0.000253	2.534628	0.858755	0.000101
1571	1.5622e+02	-17.4348	-59.618402	0.000274	2.737398	0.927456	0.000110
1572	1.5631e+02	-17.3963	-59.541696	0.000193	1.926317	0.652654	0.000077
1573	1.5641e+02	-17.3690	-59.469028	0.000182	1.824932	0.618304	0.000073
1574	1.5651e+02	-17.3289	-59.339840	0.000324	3.244324	1.099207	0.000130
1575	1.5661e+02	-17.2888	-59.267171	0.000182	1.824932	0.618304	0.000073
1576	1.5671e+02	-17.2439	-59.133946	0.000335	3.345709	1.133557	0.000134
1577	1.5681e+02	-17.2006	-59.085500	0.000122	1.216621	0.412202	0.000049
1578	1.5691e+02	-17.1669	-58.976497	0.000274	2.737398	0.927456	0.000110
1579	1.5701e+02	-17.1268	-58.887680	0.000223	2.230473	0.755705	0.000089
1580	1.5711e+02	-17.0899	-58.794826	0.000233	2.331858	0.790055	0.000093
1581	1.5721e+02	-17.0530	-58.714084	0.000203	2.027702	0.687004	0.000081
1582	1.5731e+02	-17.0065	-58.621229	0.000233	2.331858	0.790055	0.000093
1583	1.5741e+02	-16.9616	-58.580858	0.000101	1.013851	0.343502	0.000041
1584	1.5751e+02	-16.9231	-58.483967	0.000243	2.433243	0.824405	0.000097
1585	1.5761e+02	-16.8846	-58.427447	0.000142	1.419392	0.480903	0.000057
1586	1.5771e+02	-16.8380	-58.322481	0.000264	2.636013	0.893105	0.000105
1587	1.5781e+02	-16.8075	-58.221553	0.000253	2.534628	0.858755	0.000101
1588	1.5791e+02	-16.7626	-58.120625	0.000253	2.534628	0.858755	0.000101
1589	1.5801e+02	-16.7305	-58.039882	0.000203	2.027702	0.687004	0.000081
1590	1.5811e+02	-16.6872	-57.922805	0.000294	2.940168	0.996156	0.000118
1591	1.5821e+02	-16.6375	-57.829951	0.000233	2.331858	0.790055	0.000093
1592	1.5830e+02	-16.5974	-57.741134	0.000223	2.230473	0.755705	0.000089
1593	1.5840e+02	-16.5621	-57.624057	0.000294	2.940168	0.996156	0.000118
1594	1.5850e+02	-16.5364	-57.527166	0.000243	2.433243	0.824405	0.000097
1595	1.5860e+02	-16.4963	-57.446423	0.000203	2.027702	0.687004	0.000081
1596	1.5870e+02	-16.4562	-57.337420	0.000274	2.737398	0.927456	0.000110
1597	1.5880e+02	-16.4129	-57.240529	0.000243	2.433243	0.824405	0.000097
1598	1.5890e+02	-16.3696	-57.127489	0.000284	2.838783	0.961806	0.000114
1599	1.5900e+02	-16.3279	-57.058858	0.000172	1.723547	0.583954	0.000069
1600	1.5910e+02	-16.2894	-56.986190	0.000182	1.824932	0.618304	0.000073
1601	1.5920e+02	-16.2396	-56.937744	0.000122	1.216621	0.412202	0.000049
1602	1.5930e+02	-16.1947	-56.861038	0.000193	1.926317	0.652654	0.000077
1603	1.5940e+02	-16.1626	-56.756073	0.000264	2.636013	0.893105	0.000105
1604	1.5950e+02	-16.1274	-56.651107	0.000264	2.636013	0.893105	0.000105
1605	1.5960e+02	-16.0953	-56.562290	0.000223	2.230473	0.755705	0.000089
1606	1.5970e+02	-16.0439	-56.441176	0.000304	3.041554	1.030506	0.000122
1607	1.5980e+02	-16.0151	-56.384656	0.000142	1.419392	0.480903	0.000057
1608	1.5990e+02	-15.9605	-56.295839	0.000223	2.230473	0.755705	0.000089
1609	1.6000e+02	-15.9268	-56.178762	0.000294	2.940168	0.996156	0.000118
1610	1.6010e+02	-15.8947	-56.065723	0.000284	2.838783	0.961806	0.000114
1611	1.6019e+02	-15.8594	-55.960757	0.000264	2.636013	0.893105	0.000105
1612	1.6029e+02	-15.8129	-55.867903	0.000233	2.331858	0.790055	0.000093
1613	1.6039e+02	-15.7680	-55.754863	0.000284	2.838783	0.961806	0.000114
1614	1.6049e+02	-15.7295	-55.653935	0.000253	2.534628	0.858755	0.000101
1615	1.6059e+02	-15.7038	-55.585303	0.000172	1.723547	0.583954	0.000069
1616	1.6069e+02	-15.6493	-55.468226	0.000294	2.940168	0.996156	0.000118
1617	1.6079e+02	-15.6156	-55.359224	0.000274	2.737398	0.927456	0.000110
1618	1.6089e+02	-15.5659	-55.339038	0.000051	0.506926	0.171751	0.000020
1619	1.6099e+02	-15.5242	-55.282518	0.000142	1.419392	0.480903	0.000057
1620	1.6109e+02	-15.4937	-55.153330	0.000324	3.244324	1.099207	0.000130
1621	1.6119e+02	-15.4488	-55.056439	0.000243	2.433243	0.824405	0.000097
1622	1.6129e+02	-15.4183	-54.991844	0.000162	1.622162	0.549603	0.000065
1623	1.6139e+02	-15.3669	-54.862656	0.000324	3.244324	1.099207	0.000130
1624	1.6149e+02	-15.3317	-54.785951	0.000193	1.926317	0.652654	0.000077
1625	1.6159e+02	-15.3012	-54.676948	0.000274	2.737398	0.927456	0.000110
1626	1.6169e+02	-15.2498	-54.604279	0.000182	1.824932	0.618304	0.000073
1627	1.6179e+02	-15.2129	-54.475091	0.000324	3.244324	1.099207	0.000130
1628	1.6189e+02	-15.1776	-54.370126	0.000264	2.636013	0.893105	0.000105
1629	1.6199e+02	-15.1391	-54.240937	0.000324	3.244324	1.099207	0.000130
1630	1.6209e+02	-15.0894	-54.127897	0.000284	2.838783	0.961806	0.000114
1631	1.6219e+02	-15.0509	-54.051192	0.000193	1.926317	0.652654	0.000077
1632	1.6228e+02	-15.0140	-53.938152	0.000284	2.838783	0.961806	0.000114
1633	1.6238e+02	-14.9723	-53.857409	0.000203	2.027702	0.687004	0.000081
1634	1.6248e+02	-14.9226	-53.784741	0.000182	1.824932	0.618304	0.000073
1635	1.6258e+02	-14.8841	-53.683812	0.000253	2.534628	0.858755	0.000101
1636	1.6268e+02	-14.8568	-53.635367	0.000122	1.216621	0.412202	0.000049
1637	1.6278e+02	-14.8135	-53.578847	0.000142	1.419392	0.480903	0.000057
1638	1.6288e+02	-14.7734	-53.445621	0.000335	3.345709	1.133557	0.000134
1639	1.6298e+02	-14.7381	-53.332582	0.000284	2.838783	0.961806	0.000114
1640	1.6308e+02	-14.6964	-53.243765	0.000223	2.230473	0.755705	0.000089
1641	1.6318e+02	-14.6531	-53.118613	0.000314	3.142939	1.064856	0.000126
1642	1.6328e+02	-14.6146	-53.054019	0.000162	1.622162	0.549603	0.000065
1643	1.6338e+02	-14.5745	-52.965202	0.000223	2.230473	0.755705	0.000089
1644	1.6348e+02	-14.5360	-52.852163	0.000284	2.838783	0.961806	0.000114
1645	1.6358e+02	-14.4942	-52.747197	0.000264	2.636013	0.893105	0.000105
1646	1.6368e+02	-14.4461	-52.597823	0.000375	3.751249	1.270958	0.000150
1647	1.6378e+02	-14.4076	-52.513043	0.000213	2.129087	0.721354	0.000085
1648	1.6388e+02	-14.3787	-52.395966	0.000294	2.940168	0.996156	0.000118
1649	1.6398e+02	-14.3402	-52.307149	0.000223	2.230473	0.755705	0.000089
1650	1.6408e+02	-14.2937	-52.169887	0.000345	3.447094	1.167907	0.000138
1651	1.6418e+02	-14.2552	-52.101255	0.000172	1.723547	0.583954	0.000069
1652	1.6427e+02	-14.2103	-52.012438	0.000223	2.230473	0.755705	0.000089
1653	1.6437e+02	-14.1766	-51.915547	0.000243	2.433243	0.824405	0.000097
1654	1.6447e+02	-14.1237	-51.818656	0.000243	2.433243	0.824405	0.000097
1655	1.6457e+02	-14.0980	-51.733876	0.000213	2.129087	0.721354	0.000085
1656	1.6467e+02	-14.0595	-51.661207	0.000182	1.824932	0.618304	0.000073
1657	1.6477e+02	-14.0178	-51.523945	0.000345	3.447094	1.167907	0.000138
1658	1.6487e+02	-13.9809	-51.471462	0.000132	1.318007	0.446553	0.000053
1659	1.6497e+02	-13.9456	-51.334199	0.000345	3.447094	1.167907	0.000138
1660	1.6507e+02	-13.9007	-51.289791	0.000112	1.115236	0.377852	0.000045
1661	1.6517e+02	-13.8558	-51.160603	0.000324	3.244324	1.099207	0.000130
1662	1.6527e+02	-13.8301	-51.039489	0.000304	3.041554	1.030506	0.000122
1663	1.6537e+02	-13.7804	-50.962783	0.000193	1.926317	0.652654	0.000077
1664	1.6547e+02	-13.7403	-50.825520	0.000345	3.447094	1.167907	0.000138
1665	1.6557e+02	-13.7001	-50.692295	0.000335	3.345709	1.133557	0.000134
1666	1.6567e+02	-13.6649	-50.607515	0.000213	2.129087	0.721354	0.000085
1667	1.6577e+02	-13.6296	-50.482364	0.000314	3.142939	1.064856	0.000126
1668	1.6587e+02	-13.5766	-50.397584	0.000213	2.129087	0.721354	0.000085
1669	1.6597e+02	-13.5365	-50.345101	0.000132	1.318007	0.446553	0.000053
1670	1.6607e+02	-13.4964	-50.215913	0.000324	3.244324	1.099207	0.000130
1671	1.6616e+02	-13.4547	-50.151319	0.000162	1.622162	0.549603	0.000065
1672	1.6626e+02	-13.4194	-50.086725	0.000162	1.622162	0.549603	0.000065
1673	1.6636e+02	-13.3793	-49.989833	0.000243	2.433243	0.824405	0.000097
1674	1.6646e+02	-13.3424	-49.856608	0.000335	3.345709	1.133557	0.000134
1675	1.6656e+02	-13.3087	-49.779902	0.000193	1.926317	0.652654	0.000077
1676	1.6666e+02	-13.2670	-49.658788	0.000304	3.041554	1.030506	0.000122
1677	1.6676e+02	-13.2205	-49.574008	0.000213	2.129087	0.721354	0.000085
1678	1.6686e+02	-13.1900	-49.465006	0.000274	2.737398	0.927456	0.000110
1679	1.6696e+02	-13.1419	-49.356003	0.000274	2.737398	0.927456	0.000110
1680	1.6706e+02	-13.0986	-49.283335	0.000182	1.824932	0.618304	0.000073
1681	1.6716e+02	-13.0585	-49.150109	0.000335	3.345709	1.133557	0.000134
1682	1.6726e+02	-13.0151	-49.057255	0.000233	2.331858	0.790055	0.000093
1683	1.6736e+02	-12.9686	-48.919992	0.000345	3.447094	1.167907	0.000138
1684	1.6746e+02	-12.9462	-48.810990	0.000274	2.737398	0.927456	0.000110
1685	1.6756e+02	-12.8836	-48.718136	0.000233	2.331858	0.790055	0.000093
1686	1.6766e+02	-12.8611	-48.588947	0.000324	3.244324	1.099207	0.000130
1687	1.6776e+02	-12.8258	-48.492056	0.000243	2.433243	0.824405	0.000097
1688	1.6786e+02	-12.7777	-48.415350	0.000193	1.926317	0.652654	0.000077
1689	1.6796e+02	-12.7472	-48.330570	0.000213	2.129087	0.721354	0.000085
1690	1.6806e+02	-12.7055	-48.237716	0.000233	2.331858	0.790055	0.000093
1691	1.6816e+02	-12.6574	-48.148899	0.000223	2.230473	0.755705	0.000089
1692	1.6825e+02	-12.6221	-48.035860	0.000284	2.838783	0.961806	0.000114
1693	1.6835e+02	-12.5788	-47.930894	0.000264	2.636013	0.893105	0.000105
1694	1.6845e+02	-12.5403	-47.834003	0.000243	2.433243	0.824405	0.000097
1695	1.6855e+02	-12.5034	-47.753260	0.000203	2.027702	0.687004	0.000081
1696	1.6865e+02	-12.4729	-47.640220	0.000284	2.838783	0.961806	0.000114
1697	1.6875e+02	-12.4232	-47.527180	0.000284	2.838783	0.961806	0.000114
1698	1.6885e+02	-12.3927	-47.410104	0.000294	2.940168	0.996156	0.000118
1699	1.6895e+02	-12.3462	-47.333398	0.000193	1.926317	0.652654	0.000077
1700	1.6905e+02	-12.3077	-47.184024	0.000375	3.751249	1.270958	0.000150
1701	1.6915e+02	-12.2692	-47.079058	0.000264	2.636013	0.893105	0.000105
1702	1.6925e+02	-12.2291	-46.941796	0.000345	3.447094	1.167907	0.000138
1703	1.6935e+02	-12.1841	-46.832793	0.000274	2.737398	0.927456	0.000110
1704	1.6945e+02	-12.1408	-46.780310	0.000132	1.318007	0.446553	0.000053
1705	1.6955e+02	-12.1136	-46.683419	0.000243	2.433243	0.824405	0.000097
1706	1.6965e+02	-12.0606	-46.570379	0.000284	2.838783	0.961806	0.000114
1707	1.6975e+02	-12.0301	-46.501748	0.000172	1.723547	0.583954	0.000069
1708	1.6985e+02	-11.9820	-46.360448	0.000355	3.548479	1.202257	0.000142
1709	1.6995e+02	-11.9515	-46.267594	0.000233	2.331858	0.790055	0.000093
1710	1.7005e+02	-11.9018	-46.211074	0.000142	1.419392	0.480903	0.000057
1711	1.7015e+02	-11.8617	-46.041515	0.000426	4.258175	1.442709	0.000170
1712	1.7024e+02	-11.8328	-45.944623	0.000243	2.433243	0.824405	0.000097
1713	1.7034e+02	-11.7815	-45.884066	0.000152	1.520777	0.515253	0.000061
1714	1.7044e+02	-11.7398	-45.738729	0.000365	3.649864	1.236607	0.000146
1715	1.7054e+02	-11.7077	-45.674135	0.000162	1.622162	0.549603	0.000065
1716	1.7064e+02	-11.6692	-45.528798	0.000365	3.649864	1.236607	0.000146
1717	1.7074e+02	-11.6259	-45.448056	0.000203	2.027702	0.687004	0.000081
1718	1.7084e+02	-11.5777	-45.298682	0.000375	3.751249	1.270958	0.000150
1719	1.7094e+02	-11.5521	-45.209865	0.000223	2.230473	0.755705	0.000089
1720	1.7104e+02	-11.5152	-45.052416	0.000395	3.954020	1.339658	0.000158
1721	1.7114e+02	-11.4542	-44.959562	0.000233	2.331858	0.790055	0.000093
1722	1.7124e+02	-11.4302	-44.838448	0.000304	3.041554	1.030506	0.000122
1723	1.7134e+02	-11.3804	-44.753668	0.000213	2.129087	0.721354	0.000085
1724	1.7144e+02	-11.3499	-44.689074	0.000162	1.622162	0.549603	0.000065
1725	1.7154e+02	-11.3050	-44.543737	0.000365	3.649864	1.236607	0.000146
1726	1.7164e+02	-11.2617	-44.438772	0.000264	2.636013	0.893105	0.000105
1727	1.7174e+02	-11.2264	-44.313620	0.000314	3.142939	1.064856	0.000126
1728	1.7184e+02	-11.1927	-44.277286	0.000091	0.912466	0.309152	0.000037
1729	1.7194e+02	-11.1542	-44.135986	0.000355	3.548479	1.202257	0.000142
1730	1.7204e+02	-11.1093	-44.055244	0.000203	2.027702	0.687004	0.000081
1731	1.7213e+02	-11.0644	-43.901833	0.000385	3.852634	1.305308	0.000154
1732	1.7223e+02	-11.0339	-43.817053	0.000213	2.129087	0.721354	0.000085
1733	1.7233e+02	-10.9906	-43.728236	0.000223	2.230473	0.755705	0.000089
1734	1.7243e+02	-10.9457	-43.659604	0.000172	1.723547	0.583954	0.000069
1735	1.7253e+02	-10.9104	-43.494082	0.000416	4.156790	1.408359	0.000166
1736	1.7263e+02	-10.8639	-43.393153	0.000253	2.534628	0.858755	0.000101
1737	1.7273e+02	-10.8318	-43.268002	0.000314	3.142939	1.064856	0.000126
1738	1.7283e+02	-10.7917	-43.150925	0.000294	2.940168	0.996156	0.000118
1739	1.7293e+02	-10.7500	-43.009626	0.000355	3.548479	1.202257	0.000142
1740	1.7303e+02	-10.7131	-42.900623	0.000274	2.737398	0.927456	0.000110
1741	1.7313e+02	-10.6633	-42.823917	0.000193	1.926317	0.652654	0.000077
1742	1.7323e+02	-10.6329	-42.731063	0.000233	2.331858	0.790055	0.000093
1743	1.7333e+02	-10.5863	-42.613986	0.000294	2.940168	0.996156	0.000118
1744	1.7343e+02	-10.5494	-42.529206	0.000213	2.129087	0.721354	0.000085
1745	1.7353e+02	-10.5174	-42.424241	0.000264	2.636013	0.893105	0.000105
1746	1.7363e+02	-10.4692	-42.319275	0.000264	2.636013	0.893105	0.000105
1747	1.7373e+02	-10.4291	-42.202198	0.000294	2.940168	0.996156	0.000118
1748	1.7383e+02	-10.3906	-42.081084	0.000304	3.041554	1.030506	0.000122
1749	1.7393e+02	-10.3489	-41.976119	0.000264	2.636013	0.893105	0.000105
1750	1.7403e+02	-10.3200	-41.859042	0.000294	2.940168	0.996156	0.000118
1751	1.7413e+02	-10.2671	-41.778299	0.000203	2.027702	0.687004	0.000081
1752	1.7422e+02	-10.2238	-41.624888	0.000385	3.852634	1.305308	0.000154
1753	1.7432e+02	-10.1949	-41.532034	0.000233	2.331858	0.790055	0.000093
1754	1.7442e+02	-10.1564	-41.390734	0.000355	3.548479	1.202257	0.000142
1755	1.7452e+02	-10.1131	-41.285769	0.000264	2.636013	0.893105	0.000105
1756	1.7462e+02	-10.0746	-41.160617	0.000314	3.142939	1.064856	0.000126
1757	1.7472e+02	-10.0393	-41.023355	0.000345	3.447094	1.167907	0.000138
1758	1.7482e+02	-9.9944	-40.886092	0.000345	3.447094	1.167907	0.000138
1759	1.7492e+02	-9.9398	-40.797275	0.000223	2.230473	0.755705	0.000089
1760	1.7502e+02	-9.9110	-40.708458	0.000223	2.230473	0.755705	0.000089
1761	1.7512e+02	-9.8660	-40.607530	0.000253	2.534628	0.858755	0.000101
1762	1.7522e+02	-9.8372	-40.482379	0.000314	3.142939	1.064856	0.000126
1763	1.7532e+02	-9.7970	-40.413747	0.000172	1.723547	0.583954	0.000069
1764	1.7542e+02	-9.7553	-40.300708	0.000284	2.838783	0.961806	0.000114
1765	1.7552e+02	-9.7136	-40.159408	0.000355	3.548479	1.202257	0.000142
1766	1.7562e+02	-9.6735	-40.070591	0.000223	2.230473	0.755705	0.000089
1767	1.7572e+02	-9.6286	-39.941402	0.000324	3.244324	1.099207	0.000130
1768	1.7582e+02	-9.5965	-39.832400	0.000274	2.737398	0.927456	0.000110
1769	1.7592e+02	-9.5612	-39.711286	0.000304	3.041554	1.030506	0.000122
1770	1.7602e+02	-9.5163	-39.598246	0.000284	2.838783	0.961806	0.000114
1771	1.7612e+02	-9.4762	-39.493280	0.000264	2.636013	0.893105	0.000105
1772	1.7621e+02	-9.4361	-39.384278	0.000274	2.737398	0.927456	0.000110
1773	1.7631e+02	-9.4024	-39.247015	0.000345	3.447094	1.167907	0.000138
1774	1.7641e+02	-9.3559	-39.166272	0.000203	2.027702	0.687004	0.000081
1775	1.7651e+02	-9.3142	-38.956341	0.000527	5.272026	1.786211	0.000211
1776	1.7661e+02	-9.2741	-38.871561	0.000213	2.129087	0.721354	0.000085
1777	1.7671e+02	-9.2388	-38.786782	0.000213	2.129087	0.721354	0.000085
1778	1.7681e+02	-9.1939	-38.677779	0.000274	2.737398	0.927456	0.000110
1779	1.7691e+02	-9.1570	-38.532442	0.000365	3.649864	1.236607	0.000146
1780	1.7701e+02	-9.1120	-38.435551	0.000243	2.433243	0.824405	0.000097
1781	1.7711e+02	-9.0767	-38.374994	0.000152	1.520777	0.515253	0.000061
1782	1.7721e+02	-9.0318	-38.205434	0.000426	4.258175	1.442709	0.000170
1783	1.7731e+02	-8.9933	-38.128728	0.000193	1.926317	0.652654	0.000077
1784	1.7741e+02	-8.9628	-37.979354	0.000375	3.751249	1.270958	0.000150
1785	1.7751e+02	-8.9260	-37.866315	0.000284	2.838783	0.961806	0.000114
1786	1.7761e+02	-8.8826	-37.745201	0.000304	3.041554	1.030506	0.000122
1787	1.7771e+02	-8.8393	-37.684644	0.000152	1.520777	0.515253	0.000061
1788	1.7781e+02	-8.8024	-37.539307	0.000365	3.649864	1.236607	0.000146
1789	1.7791e+02	-8.7687	-37.398007	0.000355	3.548479	1.202257	0.000142
1790	1.7801e+02	-8.7206	-37.228447	0.000426	4.258175	1.442709	0.000170
1791	1.7810e+02	-8.6773	-37.175964	0.000132	1.318007	0.446553	0.000053
1792	1.7820e+02	-8.6372	-37.058888	0.000294	2.940168	0.996156	0.000118
1793	1.7830e+02	-8.5955	-36.957959	0.000253	2.534628	0.858755	0.000101
1794	1.7840e+02	-8.5666	-36.852994	0.000264	2.636013	0.893105	0.000105
1795	1.7850e+02	-8.5201	-36.695545	0.000395	3.954020	1.339658	0.000158
1796	1.7860e+02	-8.4832	-36.598654	0.000243	2.433243	0.824405	0.000097
1797	1.7870e+02	-8.4399	-36.473503	0.000314	3.142939	1.064856	0.000126
1798	1.7880e+02	-8.3998	-36.352389	0.000304	3.041554	1.030506	0.000122
1799	1.7890e+02	-8.3581	-36.263572	0.000223	2.230473	0.755705	0.000089
1800	1.7900e+02	-8.3163	-36.089975	0.000436	4.359560	1.477059	0.000174
1801	1.7910e+02	-8.2810	-35.993084	0.000243	2.433243	0.824405	0.000097
1802	1.7920e+02	-8.2490	-35.884081	0.000274	2.737398	0.927456	0.000110
1803	1.7930e+02	-8.2008	-35.742781	0.000355	3.548479	1.202257	0.000142
1804	1.7940e+02	-8.1639	-35.637816	0.000264	2.636013	0.893105	0.000105
1805	1.7950e+02	-8.1158	-35.532850	0.000264	2.636013	0.893105	0.000105
1806	1.7960e+02	-8.0805	-35.403662	0.000324	3.244324	1.099207	0.000130
1807	1.7970e+02	-8.0565	-35.310808	0.000233	2.331858	0.790055	0.000093
1808	1.7980e+02	-8.0099	-35.185657	0.000314	3.142939	1.064856	0.000126
1809	1.7990e+02	-7.9618	-35.080691	0.000264	2.636013	0.893105	0.000105
1810	1.8000e+02	-7.9217	-34.927280	0.000385	3.852634	1.305308	0.000154
1811	1.8009e+02	-7.8768	-34.830389	0.000243	2.433243	0.824405	0.000097
1812	1.8019e+02	-7.8415	-34.693126	0.000345	3.447094	1.167907	0.000138
1813	1.8029e+02	-7.8014	-34.539715	0.000385	3.852634	1.305308	0.000154
1814	1.8039e+02	-7.7645	-34.442824	0.000243	2.433243	0.824405	0.000097
1815	1.8049e+02	-7.7276	-34.349969	0.000233	2.331858	0.790055	0.000093
1816	1.8059e+02	-7.6811	-34.200595	0.000375	3.751249	1.270958	0.000150
1817	1.8069e+02	-7.6361	-34.071407	0.000324	3.244324	1.099207	0.000130
1818	1.8079e+02	-7.5993	-33.978553	0.000233	2.331858	0.790055	0.000093
1819	1.8089e+02	-7.5656	-33.849365	0.000324	3.244324	1.099207	0.000130
1820	1.8099e+02	-7.5222	-33.724213	0.000314	3.142939	1.064856	0.000126
1821	1.8109e+02	-7.4789	-33.631359	0.000233	2.331858	0.790055	0.000093
1822	1.8119e+02	-7.4501	-33.486022	0.000365	3.649864	1.236607	0.000146
1823	1.8129e+02	-7.4083	-33.372983	0.000284	2.838783	0.961806	0.000114
1824	1.8139e+02	-7.3666	-33.219571	0.000385	3.852634	1.305308	0.000154
1825	1.8149e+02	-7.3249	-33.146903	0.000182	1.824932	0.618304	0.000073
1826	1.8159e+02	-7.2816	-32.977343	0.000426	4.258175	1.442709	0.000170
1827	1.8169e+02	-7.2640	-32.892563	0.000213	2.129087	0.721354	0.000085
1828	1.8179e+02	-7.1918	-32.763375	0.000324	3.244324	1.099207	0.000130
1829	1.8189e+02	-7.1581	-32.650335	0.000284	2.838783	0.961806	0.000114
1830	1.8199e+02	-7.1260	-32.517110	0.000335	3.345709	1.133557	0.000134
1831	1.8209e+02	-7.0955	-32.391959	0.000314	3.142939	1.064856	0.000126
1832	1.8218e+02	-7.0346	-32.274882	0.000294	2.940168	0.996156	0.000118
1833	1.8228e+02	-7.0073	-32.149730	0.000314	3.142939	1.064856	0.000126
1834	1.8238e+02	-6.9576	-32.040728	0.000274	2.737398	0.927456	0.000110
1835	1.8248e+02	-6.9335	-31.923651	0.000294	2.940168	0.996156	0.000118
1836	1.8258e+02	-6.8950	-31.782351	0.000355	3.548479	1.202257	0.000142
1837	1.8268e+02	-6.8469	-31.689497	0.000233	2.331858	0.790055	0.000093
1838	1.8278e+02	-6.8068	-31.532049	0.000395	3.954020	1.339658	0.000158
1839	1.8288e+02	-6.7683	-31.447269	0.000213	2.129087	0.721354	0.000085
1840	1.8298e+02	-6.7217	-31.330192	0.000294	2.940168	0.996156	0.000118
1841	1.8308e+02	-6.6816	-31.213115	0.000294	2.940168	0.996156	0.000118
1842	1.8318e+02	-6.6495	-31.075852	0.000345	3.447094	1.167907	0.000138
1843	1.8328e+02	-6.6110	-30.950701	0.000314	3.142939	1.064856	0.000126
1844	1.8338e+02	-6.5774	-30.829587	0.000304	3.041554	1.030506	0.000122
1845	1.8348e+02	-6.5340	-30.700399	0.000324	3.244324	1.099207	0.000130
1846	1.8358e+02	-6.4907	-30.583322	0.000294	2.940168	0.996156	0.000118
1847	1.8368e+02	-6.4442	-30.462208	0.000304	3.041554	1.030506	0.000122
1848	1.8378e+02	-6.4089	-30.353205	0.000274	2.737398	0.927456	0.000110
1849	1.8388e+02	-6.3672	-30.211905	0.000355	3.548479	1.202257	0.000142
1850	1.8398e+02	-6.3287	-30.074643	0.000345	3.447094	1.167907	0.000138
1851	1.8407e+02	-6.2950	-29.977751	0.000243	2.433243	0.824405	0.000097
1852	1.8417e+02	-6.2501	-29.828377	0.000375	3.751249	1.270958	0.000150
1853	1.8427e+02	-6.2100	-29.719375	0.000274	2.737398	0.927456	0.000110
1854	1.8437e+02	-6.1667	-29.578075	0.000355	3.548479	1.202257	0.000142
1855	1.8447e+02	-6.1298	-29.448887	0.000324	3.244324	1.099207	0.000130
1856	1.8457e+02	-6.0961	-29.343921	0.000264	2.636013	0.893105	0.000105
1857	1.8467e+02	-6.0576	-29.226844	0.000294	2.940168	0.996156	0.000118
1858	1.8477e+02	-6.0095	-29.142064	0.000213	2.129087	0.721354	0.000085
1859	1.8487e+02	-5.9710	-29.000765	0.000355	3.548479	1.202257	0.000142
1860	1.8497e+02	-5.9373	-28.815056	0.000466	4.663715	1.580110	0.000187
1861	1.8507e+02	-5.9004	-28.722202	0.000233	2.331858	0.790055	0.000093
1862	1.8517e+02	-5.8506	-28.593014	0.000324	3.244324	1.099207	0.000130
1863	1.8527e+02	-5.8169	-28.479974	0.000284	2.838783	0.961806	0.000114
1864	1.8537e+02	-5.7704	-28.346749	0.000335	3.345709	1.133557	0.000134
1865	1.8547e+02	-5.7271	-28.249857	0.000243	2.433243	0.824405	0.000097
1866	1.8557e+02	-5.6870	-28.128743	0.000304	3.041554	1.030506	0.000122
1867	1.8567e+02	-5.6533	-28.003592	0.000314	3.142939	1.064856	0.000126
1868	1.8577e+02	-5.6148	-27.862292	0.000355	3.548479	1.202257	0.000142
1869	1.8587e+02	-5.5635	-27.741178	0.000304	3.041554	1.030506	0.000122
1870	1.8597e+02	-5.5282	-27.575656	0.000416	4.156790	1.408359	0.000166
1871	1.8606e+02	-5.4849	-27.458579	0.000294	2.940168	0.996156	0.000118
1872	1.8616e+02	-5.4592	-27.353613	0.000264	2.636013	0.893105	0.000105
1873	1.8626e+02	-5.4111	-27.192128	0.000406	4.055405	1.374008	0.000162
1874	1.8636e+02	-5.3806	-27.111385	0.000203	2.027702	0.687004	0.000081
1875	1.8646e+02	-5.3309	-26.933751	0.000446	4.460945	1.511409	0.000179
1876	1.8656e+02	-5.2876	-26.848971	0.000213	2.129087	0.721354	0.000085
1877	1.8666e+02	-5.2523	-26.711709	0.000345	3.447094	1.167907	0.000138
1878	1.8676e+02	-5.2122	-26.586557	0.000314	3.142939	1.064856	0.000126
1879	1.8686e+02	-5.1672	-26.445258	0.000355	3.548479	1.202257	0.000142
1880	1.8696e+02	-5.1335	-26.324144	0.000304	3.041554	1.030506	0.000122
1881	1.8706e+02	-5.0902	-26.239364	0.000213	2.129087	0.721354	0.000085
1882	1.8716e+02	-5.0485	-26.069804	0.000426	4.258175	1.442709	0.000170
1883	1.8726e+02	-5.0196	-25.964838	0.000264	2.636013	0.893105	0.000105
1884	1.8736e+02	-4.9731	-25.783167	0.000456	4.562330	1.545759	0.000183
1885	1.8746e+02	-4.9394	-25.690313	0.000233	2.331858	0.790055	0.000093
1886	1.8756e+02	-4.8929	-25.544976	0.000365	3.649864	1.236607	0.000146
1887	1.8766e+02	-4.8624	-25.419825	0.000314	3.142939	1.064856	0.000126
1888	1.8776e+02	-4.8207	-25.286600	0.000335	3.345709	1.133557	0.000134
1889	1.8786e+02	-4.7758	-25.125114	0.000406	4.055405	1.374008	0.000162
1890	1.8796e+02	-4.7341	-24.995926	0.000324	3.244324	1.099207	0.000130
1891	1.8806e+02	-4.6972	-24.907109	0.000223	2.230473	0.755705	0.000089
1892	1.8815e+02	-4.6619	-24.785995	0.000304	3.041554	1.030506	0.000122
1893	1.8825e+02	-4.6154	-24.608361	0.000446	4.460945	1.511409	0.000179
1894	1.8835e+02	-4.5801	-24.531655	0.000193	1.926317	0.652654	0.000077
1895	1.8845e+02	-4.5400	-24.418616	0.000284	2.838783	0.961806	0.000114
1896	1.8855e+02	-4.5015	-24.245019	0.000436	4.359560	1.477059	0.000174
1897	1.8865e+02	-4.4630	-24.131979	0.000284	2.838783	0.961806	0.000114
1898	1.8875e+02	-4.4213	-23.982605	0.000375	3.751249	1.270958	0.000150
1899	1.8885e+02	-4.3747	-23.861491	0.000304	3.041554	1.030506	0.000122
1900	1.8895e+02	-4.3427	-23.809008	0.000132	1.318007	0.446553	0.000053
1901	1.8905e+02	-4.2865	-23.611188	0.000497	4.967871	1.683160	0.000199
1902	1.8915e+02	-4.2608	-23.445666	0.000416	4.156790	1.408359	0.000166
1903	1.8925e+02	-4.2239	-23.348775	0.000243	2.433243	0.824405	0.000097
1904	1.8935e+02	-4.1790	-23.235735	0.000284	2.838783	0.961806	0.000114
1905	1.8945e+02	-4.1341	-23.106546	0.000324	3.244324	1.099207	0.000130
1906	1.8955e+02	-4.0940	-22.973321	0.000335	3.345709	1.133557	0.000134
1907	1.8965e+02	-4.0619	-22.840095	0.000335	3.345709	1.133557	0.000134
1908	1.8975e+02	-4.0250	-22.674573	0.000416	4.156790	1.408359	0.000166
1909	1.8985e+02	-3.9785	-22.545385	0.000324	3.244324	1.099207	0.000130
1910	1.8995e+02	-3.9384	-22.408122	0.000345	3.447094	1.167907	0.000138
1911	1.9004e+02	-3.8967	-22.242599	0.000416	4.156790	1.408359	0.000166
1912	1.9014e+02	-3.8534	-22.165894	0.000193	1.926317	0.652654	0.000077
1913	1.9024e+02	-3.8165	-22.012483	0.000385	3.852634	1.305308	0.000154
1914	1.9034e+02	-3.7892	-21.899443	0.000284	2.838783	0.961806	0.000114
1915	1.9044e+02	-3.7314	-21.782366	0.000294	2.940168	0.996156	0.000118
1916	1.9054e+02	-3.7010	-21.620880	0.000406	4.055405	1.374008	0.000162
1917	1.9064e+02	-3.6593	-21.532063	0.000223	2.230473	0.755705	0.000089
1918	1.9074e+02	-3.6191	-21.366541	0.000416	4.156790	1.408359	0.000166
1919	1.9084e+02	-3.5823	-21.213130	0.000385	3.852634	1.305308	0.000154
1920	1.9094e+02	-3.5277	-21.092016	0.000304	3.041554	1.030506	0.000122
1921	1.9104e+02	-3.4972	-20.950716	0.000355	3.548479	1.202257	0.000142
1922	1.9114e+02	-3.4603	-20.809416	0.000355	3.548479	1.202257	0.000142
1923	1.9124e+02	-3.4154	-20.664079	0.000365	3.649864	1.236607	0.000146
1924	1.9134e+02	-3.3785	-20.498557	0.000416	4.156790	1.408359	0.000166
1925	1.9144e+02	-3.3448	-20.417814	0.000203	2.027702	0.687004	0.000081
1926	1.9154e+02	-3.3015	-20.264403	0.000385	3.852634	1.305308	0.000154
1927	1.9164e+02	-3.2678	-20.094843	0.000426	4.258175	1.442709	0.000170
1928	1.9174e+02	-3.2309	-19.969692	0.000314	3.142939	1.064856	0.000126
1929	1.9184e+02	-3.1892	-19.836466	0.000335	3.345709	1.133557	0.000134
1930	1.9194e+02	-3.1411	-19.679018	0.000395	3.954020	1.339658	0.000158
1931	1.9203e+02	-3.1106	-19.570015	0.000274	2.737398	0.927456	0.000110
1932	1.9213e+02	-3.0641	-19.412567	0.000395	3.954020	1.339658	0.000158
1933	1.9223e+02	-3.0240	-19.311639	0.000253	2.534628	0.858755	0.000101
1934	1.9233e+02	-2.9775	-19.190525	0.000304	3.041554	1.030506	0.000122
1935	1.9243e+02	-2.9518	-19.113819	0.000193	1.926317	0.652654	0.000077
1936	1.9253e+02	-2.8972	-18.871591	0.000608	6.083107	2.061012	0.000243
1937	1.9263e+02	-2.8700	-18.762588	0.000274	2.737398	0.927456	0.000110
1938	1.9273e+02	-2.8202	-18.613214	0.000375	3.751249	1.270958	0.000150
1939	1.9283e+02	-2.7866	-18.504212	0.000274	2.737398	0.927456	0.000110
1940	1.9293e+02	-2.7545	-18.350800	0.000385	3.852634	1.305308	0.000154
1941	1.9303e+02	-2.7031	-18.185278	0.000416	4.156790	1.408359	0.000166
1942	1.9313e+02	-2.6614	-18.048015	0.000345	3.447094	1.167907	0.000138
1943	1.9323e+02	-2.6149	-17.898641	0.000375	3.751249	1.270958	0.000150
1944	1.9333e+02	-2.5844	-17.801750	0.000243	2.433243	0.824405	0.000097
1945	1.9343e+02	-2.5539	-17.660450	0.000355	3.548479	1.202257	0.000142
1946	1.9353e+02	-2.5042	-17.503002	0.000395	3.954020	1.339658	0.000158
1947	1.9363e+02	-2.4689	-17.369777	0.000335	3.345709	1.133557	0.000134
1948	1.9373e+02	-2.4320	-17.248662	0.000304	3.041554	1.030506	0.000122
1949	1.9383e+02	-2.3919	-17.111400	0.000345	3.447094	1.167907	0.000138
1950	1.9393e+02	-2.3342	-16.982211	0.000324	3.244324	1.099207	0.000130
1951	1.9403e+02	-2.2957	-16.832837	0.000375	3.751249	1.270958	0.000150
1952	1.9412e+02	-2.2636	-16.719798	0.000284	2.838783	0.961806	0.000114
1953	1.9422e+02	-2.2283	-16.594646	0.000314	3.142939	1.064856	0.000126
1954	1.9432e+02	-2.1866	-16.441235	0.000385	3.852634	1.305308	0.000154
1955	1.9442e+02	-2.1449	-16.267638	0.000436	4.359560	1.477059	0.000174
1956	1.9452e+02	-2.1080	-16.118264	0.000375	3.751249	1.270958	0.000150
1957	1.9462e+02	-2.0663	-15.956779	0.000406	4.055405	1.374008	0.000162
1958	1.9472e+02	-2.0245	-15.839702	0.000294	2.940168	0.996156	0.000118
1959	1.9482e+02	-1.9909	-15.690328	0.000375	3.751249	1.270958	0.000150
1960	1.9492e+02	-1.9491	-15.565177	0.000314	3.142939	1.064856	0.000126
1961	1.9502e+02	-1.8994	-15.411766	0.000385	3.852634	1.305308	0.000154
1962	1.9512e+02	-1.8641	-15.230095	0.000456	4.562330	1.545759	0.000183
1963	1.9522e+02	-1.8240	-15.121092	0.000274	2.737398	0.927456	0.000110
1964	1.9532e+02	-1.7855	-15.008052	0.000284	2.838783	0.961806	0.000114
1965	1.9542e+02	-1.7438	-14.854641	0.000385	3.852634	1.305308	0.000154
1966	1.9552e+02	-1.7117	-14.733527	0.000304	3.041554	1.030506	0.000122
1967	1.9562e+02	-1.6620	-14.648747	0.000213	2.129087	0.721354	0.000085
1968	1.9572e+02	-1.6251	-14.487262	0.000406	4.055405	1.374008	0.000162
1969	1.9582e+02	-1.5866	-14.337888	0.000375	3.751249	1.270958	0.000150
1970	1.9592e+02	-1.5529	-14.240996	0.000243	2.433243	0.824405	0.000097
1971	1.9601e+02	-1.5080	-14.059325	0.000456	4.562330	1.545759	0.000183
1972	1.9611e+02	-1.4615	-13.958397	0.000253	2.534628	0.858755	0.000101
1973	1.9621e+02	-1.4310	-13.740391	0.000547	5.474796	1.854911	0.000219
1974	1.9631e+02	-1.4005	-13.599092	0.000355	3.548479	1.202257	0.000142
1975	1.9641e+02	-1.3556	-13.469903	0.000324	3.244324	1.099207	0.000130
1976	1.9651e+02	-1.3074	-13.292269	0.000446	4.460945	1.511409	0.000179
1977	1.9661e+02	-1.2834	-13.155007	0.000345	3.447094	1.167907	0.000138
1978	1.9671e+02	-1.2288	-13.033893	0.000304	3.041554	1.030506	0.000122
1979	1.9681e+02	-1.1919	-12.856259	0.000446	4.460945	1.511409	0.000179
1980	1.9691e+02	-1.1583	-12.763405	0.000233	2.331858	0.790055	0.000093
1981	1.9701e+02	-1.1117	-12.605956	0.000395	3.954020	1.339658	0.000158
1982	1.9711e+02	-1.0764	-12.464657	0.000355	3.548479	1.202257	0.000142
1983	1.9721e+02	-1.0331	-12.319320	0.000365	3.649864	1.236607	0.000146
1984	1.9731e+02	-0.9914	-12.165909	0.000385	3.852634	1.305308	0.000154
1985	1.9741e+02	-0.9497	-12.052869	0.000284	2.838783	0.961806	0.000114
1986	1.9751e+02	-0.9144	-11.943866	0.000274	2.737398	0.927456	0.000110
1987	1.9761e+02	-0.8711	-11.778344	0.000416	4.156790	1.408359	0.000166
1988	1.9771e+02	-0.8326	-11.624932	0.000385	3.852634	1.305308	0.000154
1989	1.9781e+02	-0.7941	-11.479595	0.000365	3.649864	1.236607	0.000146
1990	1.9791e+02	-0.7444	-11.342333	0.000345	3.447094	1.167907	0.000138
1991	1.9800e+02	-0.7155	-11.188922	0.000385	3.852634	1.305308	0.000154
1992	1.9810e+02	-0.6706	-11.043585	0.000365	3.649864	1.236607	0.000146
1993	1.9820e+02	-0.6353	-10.874025	0.000426	4.258175	1.442709	0.000170
1994	1.9830e+02	-0.5968	-10.712540	0.000406	4.055405	1.374008	0.000162
1995	1.9840e+02	-0.5535	-10.534906	0.000446	4.460945	1.511409	0.000179
1996	1.9850e+02	-0.5182	-10.421866	0.000284	2.838783	0.961806	0.000114
1997	1.9860e+02	-0.4765	-10.292678	0.000324	3.244324	1.099207	0.000130
1998	1.9870e+02	-0.4267	-10.175601	0.000294	2.940168	0.996156	0.000118
1999	1.9880e+02	-0.4011	-10.014115	0.000406	4.055405	1.374008	0.000162
2000	1.9890e+02	-0.3593	-9.844555	0.000426	4.258175	1.442709	0.000170
2001	1.9900e+02	-0.3144	-9.723441	0.000304	3.041554	1.030506	0.000122
2002	1.9910e+02	-0.2679	-9.574067	0.000375	3.751249	1.270958	0.000150
2003	1.9920e+02	-0.2246	-9.461028	0.000284	2.838783	0.961806	0.000114
2004	1.9930e+02	-0.1973	-9.372211	0.000223	2.230473	0.755705	0.000089
2005	1.9940e+02	-0.1540	-9.206688	0.000416	4.156790	1.408359	0.000166
2006	1.9950e+02	-0.1139	-9.085574	0.000304	3.041554	1.030506	0.000122
2007	1.9960e+02	-0.0786	-8.920051	0.000416	4.156790	1.408359	0.000166
2008	1.9970e+02	-0.0321	-8.766640	0.000385	3.852634	1.305308	0.000154
2009	1.9980e+02	0.0080	-8.601118	0.000385	3.852634	1.305308	0.000166

PMax (uC/cm2):	7.02e+01
Pr (uC/cm2):	5.11e+00
-Pr (uC/cm2):	-2.63e+00
PLoss (uC/cm2):	-2.64e+00
-Vc:	-1.42e+00
C (Max-Eff) (nF):	3.51e-01
K (Eff):	1.19e+03
Vert. (+/-Pr) Shift (uC/cm2):	1.24e+00
Offset (uC/cm2):	5.97e+00

A (Loop Area - uC/cm2·Volts):	3.08e-02



Hysteresis Version: 5.48.1 - Radiant Technologies, Inc., 1999 - 9/12/24

