»»»»»»»»»»»»»»»»»»»»»»»»»»»»»»»»»»»» Hysteresis ««««««««««««««««««««««««««««««««««««
»»»  Executed Version:	5.48.1
»»»  Vision Version:	5.48.4 (R)
»»»  Vision Compiled:	9/18/24
»»»  Driver Version:	5.47.0
»»»  Windows Version:	Windows 8 or 8.1
»»»  Processor Information:	x86 (AMD or Intel) - 32 Processors
»»»  Tester Name:	PMF21124-494 (100V)
»»»  Tester S/N:	PMF21124-494
»»»  Internal Amp Type:	100V RevK 270k
»»»  Internal Amp S/N:	iAB2-596/K     
»»»  Execution Count:	1
»»»»»»»»»»»»»»»»»»»»»»»»»»»»»»»»»»»»»»»»»»««««««««««««««««««««««««««««««««««««««««««

Stored:	6/19/2025 - 19:35:5
Configured:	06/19/25 10:04:32 AM
Executed:	06/19/25 07:34:00 PM

»»»»»»»»»»»»»»»»»»»»»»»»»»»»»»»»»»» Sample Info ««««««««««««««««««««««««««««««««««««
Sample Name:	
Lot Name:	
Wafer Name:	
Die Row/Column:	0/0
Capacitor Number:	0
Sample Area (cm2):	1.00e-04
Sample Thickness (microns):	3.00e-01

Amplifier:	Internal

»»»»»»»»»»»»»»»»»»»»»»»»»»»»»»»»»»» Tester Info «««««««««««««««««««««««««««««««««««
Tester Name:	PMF21124-494 (100V)
Tester Serial Number:	PMF21124-494
Return Signal Amp. Level:	0.19 [Index: 3]

»»»»»»»»»»»»»»»»»»»»»»»»»»»»»»»» Hysteresis Info ««««««««««««««««««««««««««««««««««
Task Name:	Hyst-1168
Volts:	20.00
Field:	666.67 (kV/cm)
DCBias:	0.00
DCField:	0.00 (kV/cm)
Hysteresis Period (ms):	2.00e+02
Preset:	Enabled
Preset Delay (ms):	1.00e+03
Profile:	Standard Bipolar

»»»»»»»»»»»»»»»»»»»»»»»»»»»»»»»»»»»»»» Data «««««««««««««««««««««««««««««««««««««««
Points:	2009

Valid Data

Point	Time (ms)	Drive Voltage	Measured Polarization (uC/cm2)	Capacitance (uF)	Normalized Capacitance (uF/cm2)	Dielectric Constant	Instantaneous Current (mA)
   1	0.0000e+00	0.0048	-5.125144	0.000324	3.244063	1.099118	0.000130
   2	9.9500e-02	0.0353	-4.995955	0.000324	3.244063	1.099118	0.000130
   3	1.9900e-01	0.0770	-4.826396	0.000426	4.257833	1.442593	0.000170
   4	2.9850e-01	0.1203	-4.713356	0.000284	2.838555	0.961729	0.000114
   5	3.9800e-01	0.1572	-4.572056	0.000355	3.548194	1.202161	0.000142
   6	4.9750e-01	0.1925	-4.430756	0.000355	3.548194	1.202161	0.000142
   7	5.9700e-01	0.2390	-4.285420	0.000365	3.649571	1.236508	0.000146
   8	6.9650e-01	0.2727	-4.119897	0.000416	4.156456	1.408246	0.000166
   9	7.9600e-01	0.3176	-3.970523	0.000375	3.750948	1.270856	0.000150
  10	8.9550e-01	0.3577	-3.841335	0.000324	3.244063	1.099118	0.000130
  11	9.9500e-01	0.3962	-3.695998	0.000365	3.649571	1.236508	0.000146
  12	1.0945e+00	0.4251	-3.526438	0.000426	4.257833	1.442593	0.000170
  13	1.1940e+00	0.4636	-3.417435	0.000274	2.737179	0.927381	0.000110
  14	1.2935e+00	0.5214	-3.255950	0.000406	4.055079	1.373898	0.000162
  15	1.3930e+00	0.5503	-3.150984	0.000264	2.635802	0.893034	0.000105
  16	1.4925e+00	0.5936	-2.965276	0.000466	4.663341	1.579983	0.000187
  17	1.5920e+00	0.6337	-2.860311	0.000264	2.635802	0.893034	0.000105
  18	1.6915e+00	0.6786	-2.654417	0.000517	5.170226	1.751720	0.000207
  19	1.7910e+00	0.7203	-2.533303	0.000304	3.041309	1.030424	0.000122
  20	1.8905e+00	0.7540	-2.363743	0.000426	4.257833	1.442593	0.000170
  21	1.9900e+00	0.7957	-2.274926	0.000223	2.230294	0.755644	0.000089
  22	2.0895e+00	0.8358	-2.093255	0.000456	4.561964	1.545635	0.000183
  23	2.1890e+00	0.8759	-1.935807	0.000395	3.953702	1.339551	0.000158
  24	2.2885e+00	0.9144	-1.786433	0.000375	3.750948	1.270856	0.000150
  25	2.3880e+00	0.9545	-1.624947	0.000406	4.055079	1.373898	0.000162
  26	2.4875e+00	0.9834	-1.491722	0.000335	3.345440	1.133466	0.000134
  27	2.5870e+00	1.0363	-1.354459	0.000345	3.446817	1.167813	0.000138
  28	2.6865e+00	1.0780	-1.180862	0.000436	4.359210	1.476940	0.000174
  29	2.7860e+00	1.1149	-1.051674	0.000324	3.244063	1.099118	0.000130
  30	2.8855e+00	1.1502	-0.890188	0.000406	4.055079	1.373898	0.000162
  31	2.9850e+00	1.1871	-0.716592	0.000436	4.359210	1.476940	0.000174
  32	3.0845e+00	1.2369	-0.607589	0.000274	2.737179	0.927381	0.000110
  33	3.1840e+00	1.2706	-0.450141	0.000395	3.953702	1.339551	0.000158
  34	3.2835e+00	1.3107	-0.304804	0.000365	3.649571	1.236508	0.000146
  35	3.3830e+00	1.3476	-0.159467	0.000365	3.649571	1.236508	0.000146
  36	3.4825e+00	1.3925	0.022204	0.000456	4.561964	1.545635	0.000183
  37	3.5820e+00	1.4406	0.151393	0.000324	3.244063	1.099118	0.000130
  38	3.6815e+00	1.4647	0.300767	0.000375	3.750948	1.270856	0.000150
  39	3.7810e+00	1.5176	0.470326	0.000426	4.257833	1.442593	0.000170
  40	3.8805e+00	1.5449	0.583366	0.000284	2.838555	0.961729	0.000114
  41	3.9800e+00	1.5946	0.777149	0.000487	4.866095	1.648678	0.000195
  42	4.0795e+00	1.6299	0.898263	0.000304	3.041309	1.030424	0.000122
  43	4.1790e+00	1.6764	1.023414	0.000314	3.142686	1.064771	0.000126
  44	4.2785e+00	1.7197	1.152602	0.000324	3.244063	1.099118	0.000130
  45	4.3780e+00	1.7470	1.362533	0.000527	5.271603	1.786067	0.000211
  46	4.4775e+00	1.7871	1.467499	0.000264	2.635802	0.893034	0.000105
  47	4.5770e+00	1.8336	1.641096	0.000436	4.359210	1.476940	0.000174
  48	4.6765e+00	1.8753	1.754135	0.000284	2.838555	0.961729	0.000114
  49	4.7760e+00	1.9026	1.951955	0.000497	4.967472	1.683025	0.000199
  50	4.8755e+00	1.9459	2.089218	0.000345	3.446817	1.167813	0.000138
  51	4.9750e+00	1.9876	2.206295	0.000294	2.939932	0.996076	0.000118
  52	5.0745e+00	2.0261	2.355669	0.000375	3.750948	1.270856	0.000150
  53	5.1740e+00	2.0759	2.533303	0.000446	4.460587	1.511288	0.000179
  54	5.2735e+00	2.1144	2.654417	0.000304	3.041309	1.030424	0.000122
  55	5.3730e+00	2.1513	2.828014	0.000436	4.359210	1.476940	0.000174
  56	5.4725e+00	2.1962	3.025833	0.000497	4.967472	1.683025	0.000199
  57	5.5720e+00	2.2251	3.155022	0.000324	3.244063	1.099118	0.000130
  58	5.6715e+00	2.2764	3.284210	0.000324	3.244063	1.099118	0.000130
  59	5.7710e+00	2.3021	3.469918	0.000466	4.663341	1.579983	0.000187
  60	5.8705e+00	2.3502	3.591032	0.000304	3.041309	1.030424	0.000122
  61	5.9700e+00	2.3983	3.724258	0.000335	3.345440	1.133466	0.000134
  62	6.0695e+00	2.4384	3.885743	0.000406	4.055079	1.373898	0.000162
  63	6.1690e+00	2.4593	4.023006	0.000345	3.446817	1.167813	0.000138
  64	6.2685e+00	2.5235	4.204677	0.000456	4.561964	1.545635	0.000183
  65	6.3680e+00	2.5571	4.366162	0.000406	4.055079	1.373898	0.000162
  66	6.4675e+00	2.5860	4.487276	0.000304	3.041309	1.030424	0.000122
  67	6.5670e+00	2.6325	4.632613	0.000365	3.649571	1.236508	0.000146
  68	6.6665e+00	2.6710	4.810247	0.000446	4.460587	1.511288	0.000179
  69	6.7660e+00	2.7095	4.951547	0.000355	3.548194	1.202161	0.000142
  70	6.8655e+00	2.7529	5.108995	0.000395	3.953702	1.339551	0.000158
  71	6.9650e+00	2.7833	5.234146	0.000314	3.142686	1.064771	0.000126
  72	7.0645e+00	2.8267	5.403706	0.000426	4.257833	1.442593	0.000170
  73	7.1640e+00	2.8700	5.569229	0.000416	4.156456	1.408246	0.000166
  74	7.2635e+00	2.9085	5.734751	0.000416	4.156456	1.408246	0.000166
  75	7.3630e+00	2.9470	5.851828	0.000294	2.939932	0.996076	0.000118
  76	7.4625e+00	2.9855	6.005239	0.000385	3.852325	1.305203	0.000154
  77	7.5620e+00	3.0352	6.194985	0.000476	4.764718	1.614330	0.000191
  78	7.6615e+00	3.0689	6.295913	0.000253	2.534425	0.858686	0.000101
  79	7.7610e+00	3.1058	6.469510	0.000436	4.359210	1.476940	0.000174
  80	7.8605e+00	3.1427	6.606773	0.000345	3.446817	1.167813	0.000138
  81	7.9600e+00	3.1876	6.752110	0.000365	3.649571	1.236508	0.000146
  82	8.0595e+00	3.2213	6.897446	0.000365	3.649571	1.236508	0.000146
  83	8.1590e+00	3.2726	7.062969	0.000416	4.156456	1.408246	0.000166
  84	8.2585e+00	3.3063	7.180046	0.000294	2.939932	0.996076	0.000118
  85	8.3580e+00	3.3384	7.381903	0.000507	5.068849	1.717373	0.000203
  86	8.4575e+00	3.3833	7.511091	0.000324	3.244063	1.099118	0.000130
  87	8.5570e+00	3.4315	7.644317	0.000335	3.345440	1.133466	0.000134
  88	8.6565e+00	3.4587	7.858285	0.000537	5.372980	1.820415	0.000215
  89	8.7560e+00	3.5052	7.995547	0.000345	3.446817	1.167813	0.000138
  90	8.8555e+00	3.5470	8.124736	0.000324	3.244063	1.099118	0.000130
  91	8.9550e+00	3.5839	8.245850	0.000304	3.041309	1.030424	0.000122
  92	9.0545e+00	3.6175	8.459818	0.000537	5.372980	1.820415	0.000215
  93	9.1540e+00	3.6769	8.552672	0.000233	2.331671	0.789991	0.000093
  94	9.2535e+00	3.7122	8.685898	0.000335	3.345440	1.133466	0.000134
  95	9.3530e+00	3.7395	8.863532	0.000446	4.460587	1.511288	0.000179
  96	9.4525e+00	3.7844	9.008868	0.000365	3.649571	1.236508	0.000146
  97	9.5520e+00	3.8165	9.190540	0.000456	4.561964	1.545635	0.000183
  98	9.6515e+00	3.8598	9.315691	0.000314	3.142686	1.064771	0.000126
  99	9.7510e+00	3.9079	9.465065	0.000375	3.750948	1.270856	0.000150
 100	9.8505e+00	3.9320	9.622513	0.000395	3.953702	1.339551	0.000158
 101	9.9500e+00	3.9929	9.747664	0.000314	3.142686	1.064771	0.000126
 102	1.0050e+01	4.0234	9.929335	0.000456	4.561964	1.545635	0.000183
 103	1.0149e+01	4.0571	10.070635	0.000355	3.548194	1.202161	0.000142
 104	1.0248e+01	4.1068	10.199823	0.000324	3.244063	1.099118	0.000130
 105	1.0348e+01	4.1421	10.333049	0.000335	3.345440	1.133466	0.000134
 106	1.0447e+01	4.1870	10.478386	0.000365	3.649571	1.236508	0.000146
 107	1.0547e+01	4.2223	10.615648	0.000345	3.446817	1.167813	0.000138
 108	1.0646e+01	4.2641	10.817505	0.000507	5.068849	1.717373	0.000203
 109	1.0746e+01	4.3090	10.958805	0.000355	3.548194	1.202161	0.000142
 110	1.0845e+01	4.3346	11.087993	0.000324	3.244063	1.099118	0.000130
 111	1.0945e+01	4.3844	11.257553	0.000426	4.257833	1.442593	0.000170
 112	1.1044e+01	4.4261	11.366556	0.000274	2.737179	0.927381	0.000110
 113	1.1144e+01	4.4582	11.528041	0.000406	4.055079	1.373898	0.000162
 114	1.1243e+01	4.5095	11.713749	0.000466	4.663341	1.579983	0.000187
 115	1.1343e+01	4.5400	11.834863	0.000304	3.041309	1.030424	0.000122
 116	1.1443e+01	4.5753	11.988275	0.000385	3.852325	1.305203	0.000154
 117	1.1542e+01	4.6106	12.117463	0.000324	3.244063	1.099118	0.000130
 118	1.1642e+01	4.6571	12.303171	0.000466	4.663341	1.579983	0.000187
 119	1.1741e+01	4.6940	12.460619	0.000395	3.953702	1.339551	0.000158
 120	1.1841e+01	4.7389	12.593845	0.000335	3.345440	1.133466	0.000134
 121	1.1940e+01	4.7774	12.743219	0.000375	3.750948	1.270856	0.000150
 122	1.2040e+01	4.8207	12.916816	0.000436	4.359210	1.476940	0.000174
 123	1.2139e+01	4.8592	13.054078	0.000345	3.446817	1.167813	0.000138
 124	1.2239e+01	4.8993	13.191341	0.000345	3.446817	1.167813	0.000138
 125	1.2338e+01	4.9362	13.348789	0.000395	3.953702	1.339551	0.000158
 126	1.2438e+01	4.9795	13.522386	0.000436	4.359210	1.476940	0.000174
 127	1.2537e+01	5.0196	13.667723	0.000365	3.649571	1.236508	0.000146
 128	1.2636e+01	5.0565	13.825171	0.000395	3.953702	1.339551	0.000158
 129	1.2736e+01	5.0934	13.958397	0.000335	3.345440	1.133466	0.000134
 130	1.2835e+01	5.1464	14.123919	0.000416	4.156456	1.408246	0.000166
 131	1.2935e+01	5.1769	14.273293	0.000375	3.750948	1.270856	0.000150
 132	1.3034e+01	5.2234	14.446890	0.000436	4.359210	1.476940	0.000174
 133	1.3134e+01	5.2555	14.576079	0.000324	3.244063	1.099118	0.000130
 134	1.3233e+01	5.2956	14.709304	0.000335	3.345440	1.133466	0.000134
 135	1.3333e+01	5.3373	14.903087	0.000487	4.866095	1.648678	0.000195
 136	1.3432e+01	5.3774	15.036312	0.000335	3.345440	1.133466	0.000134
 137	1.3532e+01	5.4255	15.213946	0.000446	4.460587	1.511288	0.000179
 138	1.3632e+01	5.4576	15.318912	0.000264	2.635802	0.893034	0.000105
 139	1.3731e+01	5.5009	15.488471	0.000426	4.257833	1.442593	0.000170
 140	1.3831e+01	5.5442	15.666105	0.000446	4.460587	1.511288	0.000179
 141	1.3930e+01	5.5811	15.771071	0.000264	2.635802	0.893034	0.000105
 142	1.4030e+01	5.6148	15.924482	0.000385	3.852325	1.305203	0.000154
 143	1.4129e+01	5.6613	16.085967	0.000406	4.055079	1.373898	0.000162
 144	1.4229e+01	5.6982	16.227267	0.000355	3.548194	1.202161	0.000142
 145	1.4328e+01	5.7335	16.376641	0.000375	3.750948	1.270856	0.000150
 146	1.4428e+01	5.7768	16.505829	0.000324	3.244063	1.099118	0.000130
 147	1.4527e+01	5.8121	16.699612	0.000487	4.866095	1.648678	0.000195
 148	1.4627e+01	5.8587	16.828800	0.000324	3.244063	1.099118	0.000130
 149	1.4726e+01	5.9004	17.002397	0.000436	4.359210	1.476940	0.000174
 150	1.4825e+01	5.9357	17.131586	0.000324	3.244063	1.099118	0.000130
 151	1.4925e+01	5.9742	17.313257	0.000456	4.561964	1.545635	0.000183
 152	1.5024e+01	6.0175	17.442445	0.000324	3.244063	1.099118	0.000130
 153	1.5124e+01	6.0544	17.599893	0.000395	3.953702	1.339551	0.000158
 154	1.5223e+01	6.0977	17.753304	0.000385	3.852325	1.305203	0.000154
 155	1.5323e+01	6.1394	17.906716	0.000385	3.852325	1.305203	0.000154
 156	1.5422e+01	6.1779	18.027830	0.000304	3.041309	1.030424	0.000122
 157	1.5522e+01	6.2132	18.213538	0.000466	4.663341	1.579983	0.000187
 158	1.5621e+01	6.2613	18.338689	0.000314	3.142686	1.064771	0.000126
 159	1.5721e+01	6.2966	18.532472	0.000487	4.866095	1.648678	0.000195
 160	1.5820e+01	6.3287	18.653586	0.000304	3.041309	1.030424	0.000122
 161	1.5920e+01	6.3656	18.794885	0.000355	3.548194	1.202161	0.000142
 162	1.6020e+01	6.4185	18.972519	0.000446	4.460587	1.511288	0.000179
 163	1.6119e+01	6.4554	19.105745	0.000335	3.345440	1.133466	0.000134
 164	1.6218e+01	6.4891	19.263193	0.000395	3.953702	1.339551	0.000158
 165	1.6318e+01	6.5389	19.416604	0.000385	3.852325	1.305203	0.000154
 166	1.6418e+01	6.5725	19.590201	0.000436	4.359210	1.476940	0.000174
 167	1.6517e+01	6.6110	19.707278	0.000294	2.939932	0.996076	0.000118
 168	1.6616e+01	6.6511	19.921246	0.000537	5.372980	1.820415	0.000215
 169	1.6716e+01	6.6913	20.078695	0.000395	3.953702	1.339551	0.000158
 170	1.6816e+01	6.7314	20.224031	0.000365	3.649571	1.236508	0.000146
 171	1.6915e+01	6.7634	20.353220	0.000324	3.244063	1.099118	0.000130
 172	1.7015e+01	6.8100	20.514705	0.000406	4.055079	1.373898	0.000162
 173	1.7114e+01	6.8549	20.668116	0.000385	3.852325	1.305203	0.000154
 174	1.7213e+01	6.8870	20.813453	0.000365	3.649571	1.236508	0.000146
 175	1.7313e+01	6.9335	20.966864	0.000385	3.852325	1.305203	0.000154
 176	1.7413e+01	6.9736	21.128350	0.000406	4.055079	1.373898	0.000162
 177	1.7512e+01	7.0169	21.277724	0.000375	3.750948	1.270856	0.000150
 178	1.7611e+01	7.0458	21.459395	0.000456	4.561964	1.545635	0.000183
 179	1.7711e+01	7.0891	21.552249	0.000233	2.331671	0.789991	0.000093
 180	1.7811e+01	7.1436	21.750069	0.000497	4.967472	1.683025	0.000199
 181	1.7910e+01	7.1693	21.931740	0.000456	4.561964	1.545635	0.000183
 182	1.8009e+01	7.2030	22.097262	0.000416	4.156456	1.408246	0.000166
 183	1.8109e+01	7.2559	22.202228	0.000264	2.635802	0.893034	0.000105
 184	1.8209e+01	7.2912	22.355639	0.000385	3.852325	1.305203	0.000154
 185	1.8308e+01	7.3362	22.525199	0.000426	4.257833	1.442593	0.000170
 186	1.8407e+01	7.3634	22.674573	0.000375	3.750948	1.270856	0.000150
 187	1.8507e+01	7.4067	22.827984	0.000385	3.852325	1.305203	0.000154
 188	1.8607e+01	7.4549	23.025804	0.000497	4.967472	1.683025	0.000199
 189	1.8706e+01	7.4902	23.146918	0.000304	3.041309	1.030424	0.000122
 190	1.8805e+01	7.5174	23.312440	0.000416	4.156456	1.408246	0.000166
 191	1.8905e+01	7.5736	23.453740	0.000355	3.548194	1.202161	0.000142
 192	1.9005e+01	7.6073	23.599077	0.000365	3.649571	1.236508	0.000146
 193	1.9104e+01	7.6426	23.792859	0.000487	4.866095	1.648678	0.000195
 194	1.9203e+01	7.6955	23.946271	0.000385	3.852325	1.305203	0.000154
 195	1.9303e+01	7.7292	24.095645	0.000375	3.750948	1.270856	0.000150
 196	1.9402e+01	7.7725	24.228870	0.000335	3.345440	1.133466	0.000134
 197	1.9502e+01	7.8030	24.374207	0.000365	3.649571	1.236508	0.000146
 198	1.9602e+01	7.8463	24.519544	0.000365	3.649571	1.236508	0.000146
 199	1.9701e+01	7.8960	24.725438	0.000517	5.170226	1.751720	0.000207
 200	1.9800e+01	7.9297	24.854626	0.000324	3.244063	1.099118	0.000130
 201	1.9900e+01	7.9602	25.004000	0.000375	3.750948	1.270856	0.000150
 202	2.0000e+01	8.0035	25.177597	0.000436	4.359210	1.476940	0.000174
 203	2.0099e+01	8.0484	25.322934	0.000365	3.649571	1.236508	0.000146
 204	2.0198e+01	8.0918	25.452122	0.000324	3.244063	1.099118	0.000130
 205	2.0298e+01	8.1270	25.625719	0.000436	4.359210	1.476940	0.000174
 206	2.0398e+01	8.1607	25.791242	0.000416	4.156456	1.408246	0.000166
 207	2.0497e+01	8.2040	25.972913	0.000456	4.561964	1.545635	0.000183
 208	2.0596e+01	8.2474	26.077878	0.000264	2.635802	0.893034	0.000105
 209	2.0696e+01	8.2859	26.215141	0.000345	3.446817	1.167813	0.000138
 210	2.0796e+01	8.3196	26.392775	0.000446	4.460587	1.511288	0.000179
 211	2.0895e+01	8.3661	26.501778	0.000274	2.737179	0.927381	0.000110
 212	2.0994e+01	8.4142	26.711709	0.000527	5.271603	1.786067	0.000211
 213	2.1094e+01	8.4367	26.836860	0.000314	3.142686	1.064771	0.000126
 214	2.1194e+01	8.4800	27.022568	0.000466	4.663341	1.579983	0.000187
 215	2.1293e+01	8.5121	27.155794	0.000335	3.345440	1.133466	0.000134
 216	2.1392e+01	8.5634	27.325353	0.000426	4.257833	1.442593	0.000170
 217	2.1492e+01	8.6067	27.430319	0.000264	2.635802	0.893034	0.000105
 218	2.1591e+01	8.6404	27.632176	0.000507	5.068849	1.717373	0.000203
 219	2.1691e+01	8.6757	27.797698	0.000416	4.156456	1.408246	0.000166
 220	2.1791e+01	8.7206	27.947072	0.000375	3.750948	1.270856	0.000150
 221	2.1890e+01	8.7639	28.092409	0.000365	3.649571	1.236508	0.000146
 222	2.1989e+01	8.8056	28.237746	0.000365	3.649571	1.236508	0.000146
 223	2.2089e+01	8.8377	28.375009	0.000345	3.446817	1.167813	0.000138
 224	2.2189e+01	8.8826	28.556680	0.000456	4.561964	1.545635	0.000183
 225	2.2288e+01	8.9227	28.665682	0.000274	2.737179	0.927381	0.000110
 226	2.2387e+01	8.9645	28.831205	0.000416	4.156456	1.408246	0.000166
 227	2.2487e+01	9.0030	28.984616	0.000385	3.852325	1.305203	0.000154
 228	2.2587e+01	9.0463	29.174361	0.000476	4.764718	1.614330	0.000191
 229	2.2686e+01	9.0687	29.295475	0.000304	3.041309	1.030424	0.000122
 230	2.2785e+01	9.1169	29.497332	0.000507	5.068849	1.717373	0.000203
 231	2.2885e+01	9.1618	29.638632	0.000355	3.548194	1.202161	0.000142
 232	2.2985e+01	9.2019	29.767820	0.000324	3.244063	1.099118	0.000130
 233	2.3084e+01	9.2452	29.929306	0.000406	4.055079	1.373898	0.000162
 234	2.3183e+01	9.2853	30.086754	0.000395	3.953702	1.339551	0.000158
 235	2.3283e+01	9.3142	30.207868	0.000304	3.041309	1.030424	0.000122
 236	2.3383e+01	9.3623	30.377428	0.000426	4.257833	1.442593	0.000170
 237	2.3482e+01	9.4056	30.490468	0.000284	2.838555	0.961729	0.000114
 238	2.3581e+01	9.4393	30.680213	0.000476	4.764718	1.614330	0.000191
 239	2.3681e+01	9.4666	30.829587	0.000375	3.750948	1.270856	0.000150
 240	2.3780e+01	9.5211	30.999147	0.000426	4.257833	1.442593	0.000170
 241	2.3880e+01	9.5612	31.156595	0.000395	3.953702	1.339551	0.000158
 242	2.3980e+01	9.6061	31.265598	0.000274	2.737179	0.927381	0.000110
 243	2.4079e+01	9.6495	31.410935	0.000365	3.649571	1.236508	0.000146
 244	2.4178e+01	9.6864	31.596643	0.000466	4.663341	1.579983	0.000187
 245	2.4278e+01	9.7168	31.717757	0.000304	3.041309	1.030424	0.000122
 246	2.4378e+01	9.7730	31.903465	0.000466	4.663341	1.579983	0.000187
 247	2.4477e+01	9.7954	32.040728	0.000345	3.446817	1.167813	0.000138
 248	2.4576e+01	9.8388	32.161842	0.000304	3.041309	1.030424	0.000122
 249	2.4676e+01	9.8773	32.347550	0.000466	4.663341	1.579983	0.000187
 250	2.4776e+01	9.9174	32.492887	0.000365	3.649571	1.236508	0.000146
 251	2.4875e+01	9.9639	32.638224	0.000365	3.649571	1.236508	0.000146
 252	2.4974e+01	10.0024	32.783561	0.000365	3.649571	1.236508	0.000146
 253	2.5074e+01	10.0457	32.916786	0.000335	3.345440	1.133466	0.000134
 254	2.5174e+01	10.0794	33.098457	0.000456	4.561964	1.545635	0.000183
 255	2.5273e+01	10.1211	33.211497	0.000284	2.838555	0.961729	0.000114
 256	2.5372e+01	10.1644	33.364908	0.000385	3.852325	1.305203	0.000154
 257	2.5472e+01	10.1981	33.518319	0.000385	3.852325	1.305203	0.000154
 258	2.5572e+01	10.2318	33.639434	0.000304	3.041309	1.030424	0.000122
 259	2.5671e+01	10.2719	33.804956	0.000416	4.156456	1.408246	0.000166
 260	2.5770e+01	10.3120	33.942219	0.000345	3.446817	1.167813	0.000138
 261	2.5870e+01	10.3521	34.043147	0.000253	2.534425	0.858686	0.000101
 262	2.5970e+01	10.4018	34.257115	0.000537	5.372980	1.820415	0.000215
 263	2.6069e+01	10.4275	34.406489	0.000375	3.750948	1.270856	0.000150
 264	2.6169e+01	10.4756	34.515492	0.000274	2.737179	0.927381	0.000110
 265	2.6268e+01	10.5174	34.697163	0.000456	4.561964	1.545635	0.000183
 266	2.6367e+01	10.5575	34.834426	0.000345	3.446817	1.167813	0.000138
 267	2.6467e+01	10.5976	34.955540	0.000304	3.041309	1.030424	0.000122
 268	2.6567e+01	10.6377	35.104914	0.000375	3.750948	1.270856	0.000150
 269	2.6666e+01	10.6778	35.278511	0.000436	4.359210	1.476940	0.000174
 270	2.6765e+01	10.7099	35.415773	0.000345	3.446817	1.167813	0.000138
 271	2.6865e+01	10.7580	35.565147	0.000375	3.750948	1.270856	0.000150
 272	2.6965e+01	10.7869	35.710484	0.000365	3.649571	1.236508	0.000146
 273	2.7064e+01	10.8302	35.847747	0.000345	3.446817	1.167813	0.000138
 274	2.7163e+01	10.8783	35.989047	0.000355	3.548194	1.202161	0.000142
 275	2.7263e+01	10.9184	36.134383	0.000365	3.649571	1.236508	0.000146
 276	2.7363e+01	10.9537	36.275683	0.000355	3.548194	1.202161	0.000142
 277	2.7462e+01	11.0002	36.421020	0.000365	3.649571	1.236508	0.000146
 278	2.7561e+01	11.0371	36.558283	0.000345	3.446817	1.167813	0.000138
 279	2.7661e+01	11.0708	36.719768	0.000406	4.055079	1.373898	0.000162
 280	2.7761e+01	11.1141	36.885291	0.000416	4.156456	1.408246	0.000166
 281	2.7860e+01	11.1510	37.022553	0.000345	3.446817	1.167813	0.000138
 282	2.7959e+01	11.1959	37.151742	0.000324	3.244063	1.099118	0.000130
 283	2.8059e+01	11.2296	37.260744	0.000274	2.737179	0.927381	0.000110
 284	2.8159e+01	11.2762	37.442415	0.000456	4.561964	1.545635	0.000183
 285	2.8258e+01	11.3114	37.579678	0.000345	3.446817	1.167813	0.000138
 286	2.8358e+01	11.3532	37.720978	0.000355	3.548194	1.202161	0.000142
 287	2.8457e+01	11.3884	37.890537	0.000426	4.257833	1.442593	0.000170
 288	2.8556e+01	11.4430	38.031837	0.000355	3.548194	1.202161	0.000142
 289	2.8656e+01	11.4703	38.140840	0.000274	2.737179	0.927381	0.000110
 290	2.8756e+01	11.5168	38.298288	0.000395	3.953702	1.339551	0.000158
 291	2.8855e+01	11.5553	38.459774	0.000406	4.055079	1.373898	0.000162
 292	2.8954e+01	11.5890	38.625296	0.000416	4.156456	1.408246	0.000166
 293	2.9054e+01	11.6387	38.770633	0.000365	3.649571	1.236508	0.000146
 294	2.9154e+01	11.6724	38.895784	0.000314	3.142686	1.064771	0.000126
 295	2.9253e+01	11.7141	39.065344	0.000426	4.257833	1.442593	0.000170
 296	2.9352e+01	11.7526	39.174347	0.000274	2.737179	0.927381	0.000110
 297	2.9452e+01	11.7863	39.315646	0.000355	3.548194	1.202161	0.000142
 298	2.9552e+01	11.8248	39.465020	0.000375	3.750948	1.270856	0.000150
 299	2.9651e+01	11.8777	39.618432	0.000385	3.852325	1.305203	0.000154
 300	2.9750e+01	11.9114	39.783954	0.000416	4.156456	1.408246	0.000166
 301	2.9850e+01	11.9499	39.917180	0.000335	3.345440	1.133466	0.000134
 302	2.9950e+01	11.9868	40.038294	0.000304	3.041309	1.030424	0.000122
 303	3.0049e+01	12.0317	40.215928	0.000446	4.460587	1.511288	0.000179
 304	3.0148e+01	12.0622	40.349153	0.000335	3.345440	1.133466	0.000134
 305	3.0248e+01	12.1120	40.498527	0.000375	3.750948	1.270856	0.000150
 306	3.0348e+01	12.1505	40.627715	0.000324	3.244063	1.099118	0.000130
 307	3.0447e+01	12.1906	40.760941	0.000335	3.345440	1.133466	0.000134
 308	3.0547e+01	12.2371	40.910315	0.000375	3.750948	1.270856	0.000150
 309	3.0646e+01	12.2772	41.063726	0.000385	3.852325	1.305203	0.000154
 310	3.0745e+01	12.3141	41.233286	0.000426	4.257833	1.442593	0.000170
 311	3.0845e+01	12.3430	41.330177	0.000243	2.433048	0.824339	0.000097
 312	3.0945e+01	12.3959	41.507811	0.000446	4.460587	1.511288	0.000179
 313	3.1044e+01	12.4328	41.645074	0.000345	3.446817	1.167813	0.000138
 314	3.1143e+01	12.4665	41.750039	0.000264	2.635802	0.893034	0.000105
 315	3.1243e+01	12.5082	41.879228	0.000324	3.244063	1.099118	0.000130
 316	3.1343e+01	12.5483	42.068973	0.000476	4.764718	1.614330	0.000191
 317	3.1442e+01	12.5820	42.234496	0.000416	4.156456	1.408246	0.000166
 318	3.1541e+01	12.6253	42.367721	0.000335	3.345440	1.133466	0.000134
 319	3.1641e+01	12.6766	42.480761	0.000284	2.838555	0.961729	0.000114
 320	3.1741e+01	12.7087	42.650321	0.000426	4.257833	1.442593	0.000170
 321	3.1840e+01	12.7456	42.779509	0.000324	3.244063	1.099118	0.000130
 322	3.1939e+01	12.7889	42.904660	0.000314	3.142686	1.064771	0.000126
 323	3.2039e+01	12.8290	43.037886	0.000335	3.345440	1.133466	0.000134
 324	3.2139e+01	12.8579	43.227631	0.000476	4.764718	1.614330	0.000191
 325	3.2238e+01	12.8964	43.340671	0.000284	2.838555	0.961729	0.000114
 326	3.2337e+01	12.9510	43.490045	0.000375	3.750948	1.270856	0.000150
 327	3.2437e+01	12.9831	43.635382	0.000365	3.649571	1.236508	0.000146
 328	3.2536e+01	13.0216	43.780719	0.000365	3.649571	1.236508	0.000146
 329	3.2636e+01	13.0665	43.930093	0.000375	3.750948	1.270856	0.000150
 330	3.2736e+01	13.1050	44.059281	0.000324	3.244063	1.099118	0.000130
 331	3.2835e+01	13.1419	44.220766	0.000406	4.055079	1.373898	0.000162
 332	3.2934e+01	13.1708	44.345918	0.000314	3.142686	1.064771	0.000126
 333	3.3034e+01	13.2221	44.519514	0.000436	4.359210	1.476940	0.000174
 334	3.3133e+01	13.2670	44.644666	0.000314	3.142686	1.064771	0.000126
 335	3.3233e+01	13.3007	44.818262	0.000436	4.359210	1.476940	0.000174
 336	3.3333e+01	13.3392	44.955525	0.000345	3.446817	1.167813	0.000138
 337	3.3432e+01	13.3937	45.092788	0.000345	3.446817	1.167813	0.000138
 338	3.3532e+01	13.4210	45.262347	0.000426	4.257833	1.442593	0.000170
 339	3.3631e+01	13.4723	45.387499	0.000314	3.142686	1.064771	0.000126
 340	3.3730e+01	13.5028	45.536873	0.000375	3.750948	1.270856	0.000150
 341	3.3830e+01	13.5494	45.670098	0.000335	3.345440	1.133466	0.000134
 342	3.3929e+01	13.5943	45.859843	0.000476	4.764718	1.614330	0.000191
 343	3.4029e+01	13.6167	45.980957	0.000304	3.041309	1.030424	0.000122
 344	3.4129e+01	13.6649	46.106109	0.000314	3.142686	1.064771	0.000126
 345	3.4228e+01	13.7001	46.251446	0.000365	3.649571	1.236508	0.000146
 346	3.4328e+01	13.7451	46.384671	0.000335	3.345440	1.133466	0.000134
 347	3.4427e+01	13.7836	46.538082	0.000385	3.852325	1.305203	0.000154
 348	3.4526e+01	13.8221	46.703605	0.000416	4.156456	1.408246	0.000166
 349	3.4626e+01	13.8606	46.869127	0.000416	4.156456	1.408246	0.000166
 350	3.4725e+01	13.8991	46.986204	0.000294	2.939932	0.996076	0.000118
 351	3.4825e+01	13.9408	47.147690	0.000406	4.055079	1.373898	0.000162
 352	3.4925e+01	13.9825	47.280915	0.000335	3.345440	1.133466	0.000134
 353	3.5024e+01	14.0210	47.430289	0.000375	3.750948	1.270856	0.000150
 354	3.5123e+01	14.0595	47.595812	0.000416	4.156456	1.408246	0.000166
 355	3.5223e+01	14.1044	47.708852	0.000284	2.838555	0.961729	0.000114
 356	3.5322e+01	14.1445	47.858226	0.000375	3.750948	1.270856	0.000150
 357	3.5422e+01	14.1734	48.003562	0.000365	3.649571	1.236508	0.000146
 358	3.5522e+01	14.2231	48.161011	0.000395	3.953702	1.339551	0.000158
 359	3.5621e+01	14.2552	48.310385	0.000375	3.750948	1.270856	0.000150
 360	3.5721e+01	14.2921	48.447647	0.000345	3.446817	1.167813	0.000138
 361	3.5820e+01	14.3418	48.605096	0.000395	3.953702	1.339551	0.000158
 362	3.5919e+01	14.3755	48.762544	0.000395	3.953702	1.339551	0.000158
 363	3.6019e+01	14.4108	48.911918	0.000375	3.750948	1.270856	0.000150
 364	3.6118e+01	14.4638	49.037069	0.000314	3.142686	1.064771	0.000126
 365	3.6218e+01	14.4975	49.214703	0.000446	4.460587	1.511288	0.000179
 366	3.6318e+01	14.5343	49.339854	0.000314	3.142686	1.064771	0.000126
 367	3.6417e+01	14.5680	49.493266	0.000385	3.852325	1.305203	0.000154
 368	3.6517e+01	14.6114	49.638602	0.000365	3.649571	1.236508	0.000146
 369	3.6616e+01	14.6579	49.800088	0.000406	4.055079	1.373898	0.000162
 370	3.6715e+01	14.6980	49.925239	0.000314	3.142686	1.064771	0.000126
 371	3.6815e+01	14.7365	50.070576	0.000365	3.649571	1.236508	0.000146
 372	3.6914e+01	14.7782	50.203801	0.000335	3.345440	1.133466	0.000134
 373	3.7014e+01	14.8263	50.341064	0.000345	3.446817	1.167813	0.000138
 374	3.7114e+01	14.8520	50.530809	0.000476	4.764718	1.614330	0.000191
 375	3.7213e+01	14.9017	50.623664	0.000233	2.331671	0.789991	0.000093
 376	3.7313e+01	14.9322	50.805335	0.000456	4.561964	1.545635	0.000183
 377	3.7412e+01	14.9787	50.938560	0.000335	3.345440	1.133466	0.000134
 378	3.7511e+01	15.0140	51.091971	0.000385	3.852325	1.305203	0.000154
 379	3.7611e+01	15.0541	51.221160	0.000324	3.244063	1.099118	0.000130
 380	3.7711e+01	15.0974	51.370534	0.000375	3.750948	1.270856	0.000150
 381	3.7810e+01	15.1391	51.483573	0.000284	2.838555	0.961729	0.000114
 382	3.7910e+01	15.1793	51.645059	0.000406	4.055079	1.373898	0.000162
 383	3.8009e+01	15.2145	51.782322	0.000345	3.446817	1.167813	0.000138
 384	3.8108e+01	15.2546	51.963993	0.000456	4.561964	1.545635	0.000183
 385	3.8208e+01	15.2915	52.109330	0.000365	3.649571	1.236508	0.000146
 386	3.8307e+01	15.3333	52.246592	0.000345	3.446817	1.167813	0.000138
 387	3.8407e+01	15.3734	52.400003	0.000385	3.852325	1.305203	0.000154
 388	3.8507e+01	15.4199	52.533229	0.000335	3.345440	1.133466	0.000134
 389	3.8606e+01	15.4616	52.642231	0.000274	2.737179	0.927381	0.000110
 390	3.8706e+01	15.4937	52.807754	0.000416	4.156456	1.408246	0.000166
 391	3.8805e+01	15.5370	52.928868	0.000304	3.041309	1.030424	0.000122
 392	3.8904e+01	15.5739	53.090354	0.000406	4.055079	1.373898	0.000162
 393	3.9004e+01	15.6156	53.247802	0.000395	3.953702	1.339551	0.000158
 394	3.9103e+01	15.6525	53.405250	0.000395	3.953702	1.339551	0.000158
 395	3.9203e+01	15.6894	53.554624	0.000375	3.750948	1.270856	0.000150
 396	3.9303e+01	15.7327	53.679775	0.000314	3.142686	1.064771	0.000126
 397	3.9402e+01	15.7776	53.825112	0.000365	3.649571	1.236508	0.000146
 398	3.9502e+01	15.8081	53.974486	0.000375	3.750948	1.270856	0.000150
 399	3.9601e+01	15.8466	54.115786	0.000355	3.548194	1.202161	0.000142
 400	3.9700e+01	15.8883	54.261123	0.000365	3.649571	1.236508	0.000146
 401	3.9800e+01	15.9300	54.402423	0.000355	3.548194	1.202161	0.000142
 402	3.9900e+01	15.9814	54.531611	0.000324	3.244063	1.099118	0.000130
 403	3.9999e+01	16.0118	54.685022	0.000385	3.852325	1.305203	0.000154
 404	4.0099e+01	16.0552	54.818248	0.000335	3.345440	1.133466	0.000134
 405	4.0198e+01	16.0969	54.947436	0.000324	3.244063	1.099118	0.000130
 406	4.0297e+01	16.1418	55.104884	0.000395	3.953702	1.339551	0.000158
 407	4.0397e+01	16.1739	55.221961	0.000294	2.939932	0.996076	0.000118
 408	4.0496e+01	16.2204	55.399595	0.000446	4.460587	1.511288	0.000179
 409	4.0596e+01	16.2541	55.532821	0.000335	3.345440	1.133466	0.000134
 410	4.0696e+01	16.3054	55.666046	0.000335	3.345440	1.133466	0.000134
 411	4.0795e+01	16.3263	55.811383	0.000365	3.649571	1.236508	0.000146
 412	4.0895e+01	16.3760	55.932497	0.000304	3.041309	1.030424	0.000122
 413	4.0994e+01	16.4081	56.106094	0.000436	4.359210	1.476940	0.000174
 414	4.1093e+01	16.4546	56.235282	0.000324	3.244063	1.099118	0.000130
 415	4.1193e+01	16.4883	56.364471	0.000324	3.244063	1.099118	0.000130
 416	4.1292e+01	16.5316	56.497696	0.000335	3.345440	1.133466	0.000134
 417	4.1392e+01	16.5685	56.683404	0.000466	4.663341	1.579983	0.000187
 418	4.1492e+01	16.6134	56.812593	0.000324	3.244063	1.099118	0.000130
 419	4.1591e+01	16.6519	56.905447	0.000233	2.331671	0.789991	0.000093
 420	4.1691e+01	16.6808	57.054821	0.000375	3.750948	1.270856	0.000150
 421	4.1790e+01	16.7193	57.236492	0.000456	4.561964	1.545635	0.000183
 422	4.1889e+01	16.7723	57.357606	0.000304	3.041309	1.030424	0.000122
 423	4.1989e+01	16.8124	57.466609	0.000274	2.737179	0.927381	0.000110
 424	4.2089e+01	16.8428	57.595797	0.000324	3.244063	1.099118	0.000130
 425	4.2188e+01	16.8910	57.785542	0.000476	4.764718	1.614330	0.000191
 426	4.2288e+01	16.9311	57.959139	0.000436	4.359210	1.476940	0.000174
 427	4.2387e+01	16.9632	58.047956	0.000223	2.230294	0.755644	0.000089
 428	4.2486e+01	17.0097	58.177145	0.000324	3.244063	1.099118	0.000130
 429	4.2586e+01	17.0466	58.306333	0.000324	3.244063	1.099118	0.000130
 430	4.2685e+01	17.0995	58.459744	0.000385	3.852325	1.305203	0.000154
 431	4.2785e+01	17.1348	58.605081	0.000365	3.649571	1.236508	0.000146
 432	4.2885e+01	17.1669	58.718121	0.000284	2.838555	0.961729	0.000114
 433	4.2984e+01	17.2102	58.855383	0.000345	3.446817	1.167813	0.000138
 434	4.3084e+01	17.2551	59.000720	0.000365	3.649571	1.236508	0.000146
 435	4.3183e+01	17.2952	59.158169	0.000395	3.953702	1.339551	0.000158
 436	4.3282e+01	17.3225	59.275245	0.000294	2.939932	0.996076	0.000118
 437	4.3382e+01	17.3642	59.436731	0.000406	4.055079	1.373898	0.000162
 438	4.3481e+01	17.4123	59.533622	0.000243	2.433048	0.824339	0.000097
 439	4.3581e+01	17.4460	59.682996	0.000375	3.750948	1.270856	0.000150
 440	4.3681e+01	17.4893	59.824296	0.000355	3.548194	1.202161	0.000142
 441	4.3780e+01	17.5262	59.965596	0.000355	3.548194	1.202161	0.000142
 442	4.3880e+01	17.5680	60.086710	0.000304	3.041309	1.030424	0.000122
 443	4.3979e+01	17.6000	60.240121	0.000385	3.852325	1.305203	0.000154
 444	4.4078e+01	17.6417	60.365272	0.000314	3.142686	1.064771	0.000126
 445	4.4178e+01	17.6915	60.510609	0.000365	3.649571	1.236508	0.000146
 446	4.4278e+01	17.7268	60.668057	0.000395	3.953702	1.339551	0.000158
 447	4.4377e+01	17.7701	60.764949	0.000243	2.433048	0.824339	0.000097
 448	4.4477e+01	17.8022	60.938545	0.000436	4.359210	1.476940	0.000174
 449	4.4576e+01	17.8487	61.035437	0.000243	2.433048	0.824339	0.000097
 450	4.4675e+01	17.8824	61.209033	0.000436	4.359210	1.476940	0.000174
 451	4.4775e+01	17.9209	61.326110	0.000294	2.939932	0.996076	0.000118
 452	4.4874e+01	17.9610	61.459336	0.000335	3.345440	1.133466	0.000134
 453	4.4974e+01	18.0091	61.604673	0.000365	3.649571	1.236508	0.000146
 454	4.5074e+01	18.0524	61.721750	0.000294	2.939932	0.996076	0.000118
 455	4.5173e+01	18.0829	61.883235	0.000406	4.055079	1.373898	0.000162
 456	4.5273e+01	18.1166	62.012424	0.000324	3.244063	1.099118	0.000130
 457	4.5372e+01	18.1711	62.137575	0.000314	3.142686	1.064771	0.000126
 458	4.5471e+01	18.2032	62.295023	0.000395	3.953702	1.339551	0.000158
 459	4.5571e+01	18.2433	62.436323	0.000355	3.548194	1.202161	0.000142
 460	4.5670e+01	18.2931	62.549363	0.000284	2.838555	0.961729	0.000114
 461	4.5770e+01	18.3300	62.743145	0.000487	4.866095	1.648678	0.000195
 462	4.5870e+01	18.3588	62.868296	0.000314	3.142686	1.064771	0.000126
 463	4.5969e+01	18.4054	62.989410	0.000304	3.041309	1.030424	0.000122
 464	4.6069e+01	18.4439	63.154933	0.000416	4.156456	1.408246	0.000166
 465	4.6168e+01	18.4743	63.267973	0.000284	2.838555	0.961729	0.000114
 466	4.6267e+01	18.5289	63.397161	0.000324	3.244063	1.099118	0.000130
 467	4.6367e+01	18.5562	63.590944	0.000487	4.866095	1.648678	0.000195
 468	4.6467e+01	18.6059	63.667649	0.000193	1.926163	0.652602	0.000077
 469	4.6566e+01	18.6380	63.829135	0.000406	4.055079	1.373898	0.000162
 470	4.6666e+01	18.6925	63.966397	0.000345	3.446817	1.167813	0.000138
 471	4.6765e+01	18.7294	64.083474	0.000294	2.939932	0.996076	0.000118
 472	4.6864e+01	18.7695	64.232848	0.000375	3.750948	1.270856	0.000150
 473	4.6964e+01	18.7968	64.370111	0.000345	3.446817	1.167813	0.000138
 474	4.7063e+01	18.8417	64.495262	0.000314	3.142686	1.064771	0.000126
 475	4.7163e+01	18.8914	64.620413	0.000314	3.142686	1.064771	0.000126
 476	4.7263e+01	18.9251	64.757676	0.000345	3.446817	1.167813	0.000138
 477	4.7362e+01	18.9572	64.898976	0.000355	3.548194	1.202161	0.000142
 478	4.7462e+01	19.0053	65.032201	0.000335	3.345440	1.133466	0.000134
 479	4.7561e+01	19.0342	65.173501	0.000355	3.548194	1.202161	0.000142
 480	4.7660e+01	19.0695	65.322875	0.000375	3.750948	1.270856	0.000150
 481	4.7760e+01	19.1112	65.443989	0.000304	3.041309	1.030424	0.000122
 482	4.7859e+01	19.1561	65.561066	0.000294	2.939932	0.996076	0.000118
 483	4.7959e+01	19.1995	65.734663	0.000436	4.359210	1.476940	0.000174
 484	4.8059e+01	19.2444	65.855777	0.000304	3.041309	1.030424	0.000122
 485	4.8158e+01	19.2845	65.964779	0.000274	2.737179	0.927381	0.000110
 486	4.8258e+01	19.3182	66.114153	0.000375	3.750948	1.270856	0.000150
 487	4.8357e+01	19.3567	66.255453	0.000355	3.548194	1.202161	0.000142
 488	4.8456e+01	19.4032	66.400790	0.000365	3.649571	1.236508	0.000146
 489	4.8556e+01	19.4433	66.554201	0.000385	3.852325	1.305203	0.000154
 490	4.8656e+01	19.4642	66.675315	0.000304	3.041309	1.030424	0.000122
 491	4.8755e+01	19.5171	66.816615	0.000355	3.548194	1.202161	0.000142
 492	4.8855e+01	19.5572	66.957915	0.000355	3.548194	1.202161	0.000142
 493	4.8954e+01	19.5909	67.062880	0.000264	2.635802	0.893034	0.000105
 494	4.9053e+01	19.6342	67.236477	0.000436	4.359210	1.476940	0.000174
 495	4.9153e+01	19.6695	67.353554	0.000294	2.939932	0.996076	0.000118
 496	4.9252e+01	19.7224	67.494854	0.000355	3.548194	1.202161	0.000142
 497	4.9352e+01	19.7561	67.615968	0.000304	3.041309	1.030424	0.000122
 498	4.9452e+01	19.7962	67.753231	0.000345	3.446817	1.167813	0.000138
 499	4.9551e+01	19.8299	67.882419	0.000324	3.244063	1.099118	0.000130
 500	4.9651e+01	19.8813	68.031793	0.000375	3.750948	1.270856	0.000150
 501	4.9750e+01	19.9021	68.193278	0.000406	4.055079	1.373898	0.000162
 502	4.9849e+01	19.9599	68.342652	0.000375	3.750948	1.270856	0.000150
 503	4.9949e+01	19.9903	68.487989	0.000365	3.649571	1.236508	0.000146
 504	5.0048e+01	19.9518	68.350727	0.000345	3.446817	1.167813	-0.000138
 505	5.0148e+01	19.9133	68.286132	0.000162	1.622032	0.549559	-0.000065
 506	5.0248e+01	19.8829	68.169056	0.000294	2.939932	0.996076	-0.000118
 507	5.0347e+01	19.8476	68.060053	0.000274	2.737179	0.927381	-0.000110
 508	5.0447e+01	19.7930	67.975273	0.000213	2.128917	0.721296	-0.000085
 509	5.0546e+01	19.7609	67.886456	0.000223	2.230294	0.755644	-0.000089
 510	5.0645e+01	19.7128	67.745156	0.000355	3.548194	1.202161	-0.000142
 511	5.0745e+01	19.6727	67.640191	0.000264	2.635802	0.893034	-0.000105
 512	5.0844e+01	19.6374	67.527151	0.000284	2.838555	0.961729	-0.000114
 513	5.0944e+01	19.6037	67.414111	0.000284	2.838555	0.961729	-0.000114
 514	5.1044e+01	19.5572	67.297034	0.000294	2.939932	0.996076	-0.000118
 515	5.1143e+01	19.5155	67.192069	0.000264	2.635802	0.893034	-0.000105
 516	5.1242e+01	19.4834	67.074992	0.000294	2.939932	0.996076	-0.000118
 517	5.1342e+01	19.4369	66.974063	0.000253	2.534425	0.858686	-0.000101
 518	5.1441e+01	19.3904	66.861024	0.000284	2.838555	0.961729	-0.000114
 519	5.1541e+01	19.3583	66.756058	0.000264	2.635802	0.893034	-0.000105
 520	5.1641e+01	19.3230	66.643018	0.000284	2.838555	0.961729	-0.000114
 521	5.1740e+01	19.2829	66.538053	0.000264	2.635802	0.893034	-0.000105
 522	5.1840e+01	19.2444	66.441161	0.000243	2.433048	0.824339	-0.000097
 523	5.1939e+01	19.2027	66.287750	0.000385	3.852325	1.305203	-0.000154
 524	5.2038e+01	19.1610	66.202970	0.000213	2.128917	0.721296	-0.000085
 525	5.2138e+01	19.1192	66.106079	0.000243	2.433048	0.824339	-0.000097
 526	5.2237e+01	19.0743	65.956705	0.000375	3.750948	1.270856	-0.000150
 527	5.2337e+01	19.0438	65.875962	0.000203	2.027540	0.686949	-0.000081
 528	5.2437e+01	19.0005	65.779071	0.000243	2.433048	0.824339	-0.000097
 529	5.2536e+01	18.9572	65.645846	0.000335	3.345440	1.133466	-0.000134
 530	5.2636e+01	18.9171	65.561066	0.000213	2.128917	0.721296	-0.000085
 531	5.2735e+01	18.8802	65.431877	0.000324	3.244063	1.099118	-0.000130
 532	5.2834e+01	18.8353	65.318838	0.000284	2.838555	0.961729	-0.000114
 533	5.2934e+01	18.8048	65.189649	0.000324	3.244063	1.099118	-0.000130
 534	5.3033e+01	18.7647	65.064498	0.000314	3.142686	1.064771	-0.000126
 535	5.3133e+01	18.7310	64.939347	0.000314	3.142686	1.064771	-0.000126
 536	5.3233e+01	18.6973	64.854567	0.000213	2.128917	0.721296	-0.000085
 537	5.3332e+01	18.6428	64.693082	0.000406	4.055079	1.373898	-0.000162
 538	5.3431e+01	18.5963	64.592153	0.000253	2.534425	0.858686	-0.000101
 539	5.3531e+01	18.5642	64.479113	0.000284	2.838555	0.961729	-0.000114
 540	5.3630e+01	18.5273	64.398371	0.000203	2.027540	0.686949	-0.000081
 541	5.3730e+01	18.4888	64.257071	0.000355	3.548194	1.202161	-0.000142
 542	5.3830e+01	18.4407	64.119808	0.000345	3.446817	1.167813	-0.000138
 543	5.3929e+01	18.4102	63.974471	0.000365	3.649571	1.236508	-0.000146
 544	5.4029e+01	18.3604	63.897766	0.000193	1.926163	0.652602	-0.000077
 545	5.4128e+01	18.3332	63.788763	0.000274	2.737179	0.927381	-0.000110
 546	5.4227e+01	18.2754	63.603055	0.000466	4.663341	1.579983	-0.000187
 547	5.4327e+01	18.2433	63.546535	0.000142	1.419278	0.480864	-0.000057
 548	5.4426e+01	18.2113	63.425421	0.000304	3.041309	1.030424	-0.000122
 549	5.4526e+01	18.1663	63.296233	0.000324	3.244063	1.099118	-0.000130
 550	5.4626e+01	18.1278	63.150896	0.000365	3.649571	1.236508	-0.000146
 551	5.4725e+01	18.0813	63.033819	0.000294	2.939932	0.996076	-0.000118
 552	5.4825e+01	18.0492	62.936928	0.000243	2.433048	0.824339	-0.000097
 553	5.4924e+01	18.0155	62.823888	0.000284	2.838555	0.961729	-0.000114
 554	5.5023e+01	17.9594	62.702774	0.000304	3.041309	1.030424	-0.000122
 555	5.5123e+01	17.9241	62.569548	0.000335	3.345440	1.133466	-0.000134
 556	5.5222e+01	17.8760	62.484768	0.000213	2.128917	0.721296	-0.000085
 557	5.5322e+01	17.8535	62.355580	0.000324	3.244063	1.099118	-0.000130
 558	5.5422e+01	17.8070	62.218317	0.000345	3.446817	1.167813	-0.000138
 559	5.5521e+01	17.7605	62.097203	0.000304	3.041309	1.030424	-0.000122
 560	5.5620e+01	17.7316	61.963978	0.000335	3.345440	1.133466	-0.000134
 561	5.5720e+01	17.6770	61.846901	0.000294	2.939932	0.996076	-0.000118
 562	5.5819e+01	17.6594	61.689453	0.000395	3.953702	1.339551	-0.000158
 563	5.5919e+01	17.6065	61.564301	0.000314	3.142686	1.064771	-0.000126
 564	5.6019e+01	17.5712	61.507782	0.000142	1.419278	0.480864	-0.000057
 565	5.6118e+01	17.5311	61.394742	0.000284	2.838555	0.961729	-0.000114
 566	5.6218e+01	17.4974	61.261516	0.000335	3.345440	1.133466	-0.000134
 567	5.6317e+01	17.4508	61.124254	0.000345	3.446817	1.167813	-0.000138
 568	5.6416e+01	17.4011	61.015251	0.000274	2.737179	0.927381	-0.000110
 569	5.6516e+01	17.3722	60.882025	0.000335	3.345440	1.133466	-0.000134
 570	5.6615e+01	17.3257	60.760911	0.000304	3.041309	1.030424	-0.000122
 571	5.6715e+01	17.2872	60.639797	0.000304	3.041309	1.030424	-0.000122
 572	5.6815e+01	17.2455	60.534832	0.000264	2.635802	0.893034	-0.000105
 573	5.6914e+01	17.2102	60.373346	0.000406	4.055079	1.373898	-0.000162
 574	5.7014e+01	17.1669	60.276455	0.000243	2.433048	0.824339	-0.000097
 575	5.7113e+01	17.1284	60.147267	0.000324	3.244063	1.099118	-0.000130
 576	5.7212e+01	17.0883	60.022116	0.000314	3.142686	1.064771	-0.000126
 577	5.7312e+01	17.0450	59.896964	0.000314	3.142686	1.064771	-0.000126
 578	5.7411e+01	17.0049	59.771813	0.000314	3.142686	1.064771	-0.000126
 579	5.7511e+01	16.9632	59.638588	0.000335	3.345440	1.133466	-0.000134
 580	5.7611e+01	16.9311	59.505362	0.000335	3.345440	1.133466	-0.000134
 581	5.7710e+01	16.8910	59.392322	0.000284	2.838555	0.961729	-0.000114
 582	5.7809e+01	16.8557	59.279283	0.000284	2.838555	0.961729	-0.000114
 583	5.7909e+01	16.8156	59.113760	0.000416	4.156456	1.408246	-0.000166
 584	5.8008e+01	16.7642	59.008795	0.000264	2.635802	0.893034	-0.000105
 585	5.8108e+01	16.7273	58.883643	0.000314	3.142686	1.064771	-0.000126
 586	5.8208e+01	16.6953	58.697935	0.000466	4.663341	1.579983	-0.000187
 587	5.8307e+01	16.6503	58.637378	0.000152	1.520655	0.515212	-0.000061
 588	5.8407e+01	16.6150	58.512227	0.000314	3.142686	1.064771	-0.000126
 589	5.8506e+01	16.5685	58.334593	0.000446	4.460587	1.511288	-0.000179
 590	5.8605e+01	16.5364	58.221553	0.000284	2.838555	0.961729	-0.000114
 591	5.8705e+01	16.4883	58.104476	0.000294	2.939932	0.996076	-0.000118
 592	5.8804e+01	16.4466	57.999511	0.000264	2.635802	0.893034	-0.000105
 593	5.8904e+01	16.4081	57.862248	0.000345	3.446817	1.167813	-0.000138
 594	5.9004e+01	16.3680	57.737097	0.000314	3.142686	1.064771	-0.000126
 595	5.9103e+01	16.3407	57.583686	0.000385	3.852325	1.305203	-0.000154
 596	5.9203e+01	16.2926	57.474683	0.000274	2.737179	0.927381	-0.000110
 597	5.9302e+01	16.2621	57.341457	0.000335	3.345440	1.133466	-0.000134
 598	5.9401e+01	16.2172	57.224381	0.000294	2.939932	0.996076	-0.000118
 599	5.9501e+01	16.1707	57.079044	0.000365	3.649571	1.236508	-0.000146
 600	5.9600e+01	16.1274	56.953892	0.000314	3.142686	1.064771	-0.000126
 601	5.9700e+01	16.0824	56.832778	0.000304	3.041309	1.030424	-0.000122
 602	5.9800e+01	16.0568	56.683404	0.000375	3.750948	1.270856	-0.000150
 603	5.9899e+01	16.0247	56.570365	0.000284	2.838555	0.961729	-0.000114
 604	5.9998e+01	15.9733	56.449250	0.000304	3.041309	1.030424	-0.000122
 605	6.0098e+01	15.9300	56.311988	0.000345	3.446817	1.167813	-0.000138
 606	6.0197e+01	15.8931	56.166651	0.000365	3.649571	1.236508	-0.000146
 607	6.0297e+01	15.8530	56.017277	0.000375	3.750948	1.270856	-0.000150
 608	6.0397e+01	15.8161	55.875977	0.000355	3.548194	1.202161	-0.000142
 609	6.0496e+01	15.7712	55.766975	0.000274	2.737179	0.927381	-0.000110
 610	6.0596e+01	15.7359	55.613563	0.000385	3.852325	1.305203	-0.000154
 611	6.0695e+01	15.6926	55.496486	0.000294	2.939932	0.996076	-0.000118
 612	6.0794e+01	15.6429	55.339038	0.000395	3.953702	1.339551	-0.000158
 613	6.0894e+01	15.6220	55.246184	0.000233	2.331671	0.789991	-0.000093
 614	6.0993e+01	15.5691	55.088736	0.000395	3.953702	1.339551	-0.000158
 615	6.1093e+01	15.5354	55.003956	0.000213	2.128917	0.721296	-0.000085
 616	6.1193e+01	15.4985	54.842470	0.000406	4.055079	1.373898	-0.000162
 617	6.1292e+01	15.4584	54.689059	0.000385	3.852325	1.305203	-0.000154
 618	6.1392e+01	15.4247	54.555834	0.000335	3.345440	1.133466	-0.000134
 619	6.1491e+01	15.3814	54.454905	0.000253	2.534425	0.858686	-0.000101
 620	6.1590e+01	15.3381	54.333791	0.000304	3.041309	1.030424	-0.000122
 621	6.1690e+01	15.2915	54.200566	0.000335	3.345440	1.133466	-0.000134
 622	6.1789e+01	15.2563	54.063303	0.000345	3.446817	1.167813	-0.000138
 623	6.1889e+01	15.2226	53.901818	0.000406	4.055079	1.373898	-0.000162
 624	6.1989e+01	15.1825	53.784741	0.000294	2.939932	0.996076	-0.000118
 625	6.2088e+01	15.1424	53.667664	0.000294	2.939932	0.996076	-0.000118
 626	6.2188e+01	15.0926	53.534438	0.000335	3.345440	1.133466	-0.000134
 627	6.2287e+01	15.0509	53.409287	0.000314	3.142686	1.064771	-0.000126
 628	6.2386e+01	15.0220	53.255876	0.000385	3.852325	1.305203	-0.000154
 629	6.2486e+01	14.9739	53.086316	0.000426	4.257833	1.442593	-0.000170
 630	6.2586e+01	14.9418	52.985388	0.000253	2.534425	0.858686	-0.000101
 631	6.2685e+01	14.8969	52.888497	0.000243	2.433048	0.824339	-0.000097
 632	6.2785e+01	14.8632	52.710863	0.000446	4.460587	1.511288	-0.000179
 633	6.2884e+01	14.8087	52.618009	0.000233	2.331671	0.789991	-0.000093
 634	6.2983e+01	14.7830	52.480746	0.000345	3.446817	1.167813	-0.000138
 635	6.3083e+01	14.7349	52.319261	0.000406	4.055079	1.373898	-0.000162
 636	6.3182e+01	14.7060	52.210258	0.000274	2.737179	0.927381	-0.000110
 637	6.3282e+01	14.6627	52.068958	0.000355	3.548194	1.202161	-0.000142
 638	6.3382e+01	14.6130	51.943807	0.000314	3.142686	1.064771	-0.000126
 639	6.3481e+01	14.5905	51.774247	0.000426	4.257833	1.442593	-0.000170
 640	6.3581e+01	14.5424	51.721765	0.000132	1.317901	0.446517	-0.000053
 641	6.3680e+01	14.4926	51.527982	0.000487	4.866095	1.648678	-0.000195
 642	6.3779e+01	14.4557	51.443202	0.000213	2.128917	0.721296	-0.000085
 643	6.3879e+01	14.4140	51.261531	0.000456	4.561964	1.545635	-0.000183
 644	6.3978e+01	14.3852	51.132343	0.000324	3.244063	1.099118	-0.000130
 645	6.4078e+01	14.3402	51.019303	0.000284	2.838555	0.961729	-0.000114
 646	6.4177e+01	14.3017	50.845706	0.000436	4.359210	1.476940	-0.000174
 647	6.4277e+01	14.2568	50.724592	0.000304	3.041309	1.030424	-0.000122
 648	6.4376e+01	14.2167	50.607515	0.000294	2.939932	0.996076	-0.000118
 649	6.4476e+01	14.1798	50.466215	0.000355	3.548194	1.202161	-0.000142
 650	6.4576e+01	14.1509	50.337027	0.000324	3.244063	1.099118	-0.000130
 651	6.4675e+01	14.1076	50.223987	0.000284	2.838555	0.961729	-0.000114
 652	6.4775e+01	14.0579	50.042316	0.000456	4.561964	1.545635	-0.000183
 653	6.4874e+01	14.0274	49.957536	0.000213	2.128917	0.721296	-0.000085
 654	6.4974e+01	13.9777	49.787976	0.000426	4.257833	1.442593	-0.000170
 655	6.5073e+01	13.9440	49.650714	0.000345	3.446817	1.167813	-0.000138
 656	6.5172e+01	13.9039	49.529600	0.000304	3.041309	1.030424	-0.000122
 657	6.5272e+01	13.8542	49.396374	0.000335	3.345440	1.133466	-0.000134
 658	6.5371e+01	13.8189	49.247000	0.000375	3.750948	1.270856	-0.000150
 659	6.5471e+01	13.7868	49.166258	0.000203	2.027540	0.686949	-0.000081
 660	6.5570e+01	13.7419	49.008809	0.000395	3.953702	1.339551	-0.000158
 661	6.5670e+01	13.7082	48.831175	0.000446	4.460587	1.511288	-0.000179
 662	6.5769e+01	13.6552	48.758507	0.000182	1.824786	0.618254	-0.000073
 663	6.5869e+01	13.6183	48.641430	0.000294	2.939932	0.996076	-0.000118
 664	6.5969e+01	13.5862	48.443610	0.000497	4.967472	1.683025	-0.000199
 665	6.6068e+01	13.5477	48.290199	0.000385	3.852325	1.305203	-0.000154
 666	6.6168e+01	13.5012	48.205419	0.000213	2.128917	0.721296	-0.000085
 667	6.6267e+01	13.4691	48.076231	0.000324	3.244063	1.099118	-0.000130
 668	6.6367e+01	13.4258	47.930894	0.000365	3.649571	1.236508	-0.000146
 669	6.6466e+01	13.3777	47.850151	0.000203	2.027540	0.686949	-0.000081
 670	6.6566e+01	13.3424	47.676554	0.000436	4.359210	1.476940	-0.000174
 671	6.6665e+01	13.3007	47.567552	0.000274	2.737179	0.927381	-0.000110
 672	6.6764e+01	13.2622	47.406066	0.000406	4.055079	1.373898	-0.000162
 673	6.6864e+01	13.2237	47.248618	0.000395	3.953702	1.339551	-0.000158
 674	6.6963e+01	13.1852	47.131541	0.000294	2.939932	0.996076	-0.000118
 675	6.7063e+01	13.1339	47.018501	0.000284	2.838555	0.961729	-0.000114
 676	6.7162e+01	13.1082	46.852979	0.000416	4.156456	1.408246	-0.000166
 677	6.7262e+01	13.0536	46.739939	0.000284	2.838555	0.961729	-0.000114
 678	6.7362e+01	13.0264	46.610751	0.000324	3.244063	1.099118	-0.000130
 679	6.7461e+01	12.9798	46.461377	0.000375	3.750948	1.270856	-0.000150
 680	6.7561e+01	12.9478	46.344300	0.000294	2.939932	0.996076	-0.000118
 681	6.7660e+01	12.9173	46.194926	0.000375	3.750948	1.270856	-0.000150
 682	6.7760e+01	12.8708	46.037477	0.000395	3.953702	1.339551	-0.000158
 683	6.7859e+01	12.8274	45.936549	0.000253	2.534425	0.858686	-0.000101
 684	6.7959e+01	12.7954	45.827546	0.000274	2.737179	0.927381	-0.000110
 685	6.8058e+01	12.7520	45.653949	0.000436	4.359210	1.476940	-0.000174
 686	6.8157e+01	12.7151	45.544947	0.000274	2.737179	0.927381	-0.000110
 687	6.8257e+01	12.6718	45.419796	0.000314	3.142686	1.064771	-0.000126
 688	6.8356e+01	12.6301	45.310793	0.000274	2.737179	0.927381	-0.000110
 689	6.8456e+01	12.5916	45.137196	0.000436	4.359210	1.476940	-0.000174
 690	6.8555e+01	12.5483	45.024156	0.000284	2.838555	0.961729	-0.000114
 691	6.8655e+01	12.5066	44.874782	0.000375	3.750948	1.270856	-0.000150
 692	6.8754e+01	12.4745	44.753668	0.000304	3.041309	1.030424	-0.000122
 693	6.8854e+01	12.4248	44.624480	0.000324	3.244063	1.099118	-0.000130
 694	6.8954e+01	12.3847	44.499329	0.000314	3.142686	1.064771	-0.000126
 695	6.9053e+01	12.3526	44.353992	0.000365	3.649571	1.236508	-0.000146
 696	6.9153e+01	12.3173	44.212692	0.000355	3.548194	1.202161	-0.000142
 697	6.9252e+01	12.2676	44.127912	0.000213	2.128917	0.721296	-0.000085
 698	6.9352e+01	12.2307	43.958352	0.000426	4.257833	1.442593	-0.000170
 699	6.9451e+01	12.1890	43.788793	0.000426	4.257833	1.442593	-0.000170
 700	6.9550e+01	12.1489	43.695939	0.000233	2.331671	0.789991	-0.000093
 701	6.9650e+01	12.1039	43.586936	0.000274	2.737179	0.927381	-0.000110
 702	6.9749e+01	12.0815	43.409302	0.000446	4.460587	1.511288	-0.000179
 703	6.9849e+01	12.0301	43.268002	0.000355	3.548194	1.202161	-0.000142
 704	6.9948e+01	11.9900	43.138814	0.000324	3.244063	1.099118	-0.000130
 705	7.0048e+01	11.9580	42.993477	0.000365	3.649571	1.236508	-0.000146
 706	7.0147e+01	11.9130	42.892549	0.000253	2.534425	0.858686	-0.000101
 707	7.0247e+01	11.8665	42.767397	0.000314	3.142686	1.064771	-0.000126
 708	7.0347e+01	11.8328	42.597838	0.000426	4.257833	1.442593	-0.000170
 709	7.0446e+01	11.7879	42.476724	0.000304	3.041309	1.030424	-0.000122
 710	7.0546e+01	11.7414	42.327350	0.000375	3.750948	1.270856	-0.000150
 711	7.0645e+01	11.7173	42.206236	0.000304	3.041309	1.030424	-0.000122
 712	7.0745e+01	11.6596	42.064936	0.000355	3.548194	1.202161	-0.000142
 713	7.0844e+01	11.6275	41.927673	0.000345	3.446817	1.167813	-0.000138
 714	7.0944e+01	11.5954	41.802522	0.000314	3.142686	1.064771	-0.000126
 715	7.1043e+01	11.5553	41.657185	0.000365	3.649571	1.236508	-0.000146
 716	7.1142e+01	11.5120	41.532034	0.000314	3.142686	1.064771	-0.000126
 717	7.1242e+01	11.4687	41.402846	0.000324	3.244063	1.099118	-0.000130
 718	7.1341e+01	11.4286	41.221174	0.000456	4.561964	1.545635	-0.000183
 719	7.1441e+01	11.3981	41.083912	0.000345	3.446817	1.167813	-0.000138
 720	7.1540e+01	11.3483	40.987021	0.000243	2.433048	0.824339	-0.000097
 721	7.1640e+01	11.3179	40.857832	0.000324	3.244063	1.099118	-0.000130
 722	7.1740e+01	11.2617	40.712495	0.000365	3.649571	1.236508	-0.000146
 723	7.1839e+01	11.2248	40.583307	0.000324	3.244063	1.099118	-0.000130
 724	7.1939e+01	11.1943	40.437970	0.000365	3.649571	1.236508	-0.000146
 725	7.2038e+01	11.1510	40.260336	0.000446	4.460587	1.511288	-0.000179
 726	7.2138e+01	11.1093	40.171519	0.000223	2.230294	0.755644	-0.000089
 727	7.2237e+01	11.0852	40.001959	0.000426	4.257833	1.442593	-0.000170
 728	7.2337e+01	11.0355	39.929291	0.000182	1.824786	0.618254	-0.000073
 729	7.2436e+01	10.9970	39.723397	0.000517	5.170226	1.751720	-0.000207
 730	7.2535e+01	10.9489	39.610357	0.000284	2.838555	0.961729	-0.000114
 731	7.2635e+01	10.9168	39.477132	0.000335	3.345440	1.133466	-0.000134
 732	7.2734e+01	10.8655	39.315646	0.000406	4.055079	1.373898	-0.000162
 733	7.2834e+01	10.8334	39.150124	0.000416	4.156456	1.408246	-0.000166
 734	7.2933e+01	10.8013	39.065344	0.000213	2.128917	0.721296	-0.000085
 735	7.3033e+01	10.7500	38.903859	0.000406	4.055079	1.373898	-0.000162
 736	7.3132e+01	10.7115	38.750447	0.000385	3.852325	1.305203	-0.000154
 737	7.3232e+01	10.6778	38.625296	0.000314	3.142686	1.064771	-0.000126
 738	7.3332e+01	10.6393	38.492071	0.000335	3.345440	1.133466	-0.000134
 739	7.3431e+01	10.5927	38.370957	0.000304	3.041309	1.030424	-0.000122
 740	7.3531e+01	10.5575	38.217545	0.000385	3.852325	1.305203	-0.000154
 741	7.3630e+01	10.5190	38.084320	0.000335	3.345440	1.133466	-0.000134
 742	7.3730e+01	10.4805	37.934946	0.000375	3.750948	1.270856	-0.000150
 743	7.3829e+01	10.4371	37.842092	0.000233	2.331671	0.789991	-0.000093
 744	7.3928e+01	10.3986	37.648309	0.000487	4.866095	1.648678	-0.000195
 745	7.4028e+01	10.3537	37.535270	0.000284	2.838555	0.961729	-0.000114
 746	7.4127e+01	10.3200	37.389933	0.000365	3.649571	1.236508	-0.000146
 747	7.4227e+01	10.2799	37.228447	0.000406	4.055079	1.373898	-0.000162
 748	7.4326e+01	10.2334	37.111370	0.000294	2.939932	0.996076	-0.000118
 749	7.4426e+01	10.1917	36.982182	0.000324	3.244063	1.099118	-0.000130
 750	7.4525e+01	10.1532	36.832808	0.000375	3.750948	1.270856	-0.000150
 751	7.4625e+01	10.1275	36.663248	0.000426	4.257833	1.442593	-0.000170
 752	7.4725e+01	10.0810	36.521948	0.000355	3.548194	1.202161	-0.000142
 753	7.4824e+01	10.0329	36.380649	0.000355	3.548194	1.202161	-0.000142
 754	7.4924e+01	9.9896	36.255497	0.000314	3.142686	1.064771	-0.000126
 755	7.5023e+01	9.9591	36.094012	0.000406	4.055079	1.373898	-0.000162
 756	7.5123e+01	9.9174	35.940601	0.000385	3.852325	1.305203	-0.000154
 757	7.5222e+01	9.8789	35.803338	0.000345	3.446817	1.167813	-0.000138
 758	7.5322e+01	9.8420	35.702410	0.000253	2.534425	0.858686	-0.000101
 759	7.5421e+01	9.7938	35.561110	0.000355	3.548194	1.202161	-0.000142
 760	7.5520e+01	9.7585	35.403662	0.000395	3.953702	1.339551	-0.000158
 761	7.5620e+01	9.7184	35.254288	0.000375	3.750948	1.270856	-0.000150
 762	7.5719e+01	9.6815	35.084728	0.000426	4.257833	1.442593	-0.000170
 763	7.5819e+01	9.6414	34.967651	0.000294	2.939932	0.996076	-0.000118
 764	7.5918e+01	9.5981	34.846537	0.000304	3.041309	1.030424	-0.000122
 765	7.6018e+01	9.5580	34.656792	0.000476	4.764718	1.614330	-0.000191
 766	7.6118e+01	9.5259	34.555863	0.000253	2.534425	0.858686	-0.000101
 767	7.6217e+01	9.4858	34.430712	0.000314	3.142686	1.064771	-0.000126
 768	7.6317e+01	9.4409	34.269227	0.000406	4.055079	1.373898	-0.000162
 769	7.6416e+01	9.3976	34.127927	0.000355	3.548194	1.202161	-0.000142
 770	7.6516e+01	9.3687	33.954330	0.000436	4.359210	1.476940	-0.000174
 771	7.6615e+01	9.3302	33.808993	0.000365	3.649571	1.236508	-0.000146
 772	7.6715e+01	9.2853	33.712102	0.000243	2.433048	0.824339	-0.000097
 773	7.6814e+01	9.2436	33.498134	0.000537	5.372980	1.820415	-0.000215
 774	7.6913e+01	9.2067	33.417391	0.000203	2.027540	0.686949	-0.000081
 775	7.7013e+01	9.1634	33.239757	0.000446	4.460587	1.511288	-0.000179
 776	7.7112e+01	9.1249	33.086346	0.000385	3.852325	1.305203	-0.000154
 777	7.7212e+01	9.0784	32.936972	0.000375	3.750948	1.270856	-0.000150
 778	7.7311e+01	9.0447	32.779524	0.000395	3.953702	1.339551	-0.000158
 779	7.7411e+01	9.0030	32.638224	0.000355	3.548194	1.202161	-0.000142
 780	7.7510e+01	8.9564	32.480776	0.000395	3.953702	1.339551	-0.000158
 781	7.7610e+01	8.9227	32.351587	0.000324	3.244063	1.099118	-0.000130
 782	7.7710e+01	8.8762	32.202213	0.000375	3.750948	1.270856	-0.000150
 783	7.7809e+01	8.8425	32.052839	0.000375	3.750948	1.270856	-0.000150
 784	7.7909e+01	8.8008	31.915577	0.000345	3.446817	1.167813	-0.000138
 785	7.8008e+01	8.7639	31.766203	0.000375	3.750948	1.270856	-0.000150
 786	7.8108e+01	8.7350	31.616829	0.000375	3.750948	1.270856	-0.000150
 787	7.8207e+01	8.6869	31.463417	0.000385	3.852325	1.305203	-0.000154
 788	7.8306e+01	8.6404	31.322118	0.000355	3.548194	1.202161	-0.000142
 789	7.8406e+01	8.5923	31.164669	0.000395	3.953702	1.339551	-0.000158
 790	7.8505e+01	8.5634	31.003184	0.000406	4.055079	1.373898	-0.000162
 791	7.8605e+01	8.5217	30.922441	0.000203	2.027540	0.686949	-0.000081
 792	7.8704e+01	8.4848	30.744807	0.000446	4.460587	1.511288	-0.000179
 793	7.8804e+01	8.4383	30.571210	0.000436	4.359210	1.476940	-0.000174
 794	7.8903e+01	8.3966	30.442022	0.000324	3.244063	1.099118	-0.000130
 795	7.9003e+01	8.3629	30.296685	0.000365	3.649571	1.236508	-0.000146
 796	7.9103e+01	8.3372	30.167497	0.000324	3.244063	1.099118	-0.000130
 797	7.9202e+01	8.2843	29.989863	0.000446	4.460587	1.511288	-0.000179
 798	7.9302e+01	8.2458	29.888934	0.000253	2.534425	0.858686	-0.000101
 799	7.9401e+01	8.2089	29.739560	0.000375	3.750948	1.270856	-0.000150
 800	7.9501e+01	8.1671	29.586149	0.000385	3.852325	1.305203	-0.000154
 801	7.9600e+01	8.1286	29.412552	0.000436	4.359210	1.476940	-0.000174
 802	7.9700e+01	8.0837	29.315661	0.000243	2.433048	0.824339	-0.000097
 803	7.9799e+01	8.0436	29.154176	0.000406	4.055079	1.373898	-0.000162
 804	7.9898e+01	8.0099	28.992690	0.000406	4.055079	1.373898	-0.000162
 805	7.9998e+01	7.9714	28.867539	0.000314	3.142686	1.064771	-0.000126
 806	8.0097e+01	7.9169	28.702017	0.000416	4.156456	1.408246	-0.000166
 807	8.0197e+01	7.8816	28.564754	0.000345	3.446817	1.167813	-0.000138
 808	8.0296e+01	7.8399	28.383083	0.000456	4.561964	1.545635	-0.000183
 809	8.0396e+01	7.8062	28.229672	0.000385	3.852325	1.305203	-0.000154
 810	8.0496e+01	7.7581	28.120669	0.000274	2.737179	0.927381	-0.000110
 811	8.0595e+01	7.7228	27.951109	0.000426	4.257833	1.442593	-0.000170
 812	8.0695e+01	7.6891	27.797698	0.000385	3.852325	1.305203	-0.000154
 813	8.0794e+01	7.6474	27.660436	0.000345	3.446817	1.167813	-0.000138
 814	8.0894e+01	7.6169	27.490876	0.000426	4.257833	1.442593	-0.000170
 815	8.0993e+01	7.5688	27.345539	0.000365	3.649571	1.236508	-0.000146
 816	8.1093e+01	7.5239	27.216351	0.000324	3.244063	1.099118	-0.000130
 817	8.1192e+01	7.4950	27.054865	0.000406	4.055079	1.373898	-0.000162
 818	8.1291e+01	7.4404	26.905491	0.000375	3.750948	1.270856	-0.000150
 819	8.1391e+01	7.3987	26.764191	0.000355	3.548194	1.202161	-0.000142
 820	8.1490e+01	7.3698	26.614817	0.000375	3.750948	1.270856	-0.000150
 821	8.1590e+01	7.3249	26.505815	0.000274	2.737179	0.927381	-0.000110
 822	8.1689e+01	7.2880	26.316069	0.000476	4.764718	1.614330	-0.000191
 823	8.1789e+01	7.2479	26.178807	0.000345	3.446817	1.167813	-0.000138
 824	8.1888e+01	7.2126	26.001173	0.000446	4.460587	1.511288	-0.000179
 825	8.1988e+01	7.1709	25.876022	0.000314	3.142686	1.064771	-0.000126
 826	8.2088e+01	7.1308	25.730685	0.000365	3.649571	1.236508	-0.000146
 827	8.2187e+01	7.0811	25.577273	0.000385	3.852325	1.305203	-0.000154
 828	8.2287e+01	7.0506	25.460197	0.000294	2.939932	0.996076	-0.000118
 829	8.2386e+01	7.0041	25.318897	0.000355	3.548194	1.202161	-0.000142
 830	8.2486e+01	6.9704	25.177597	0.000355	3.548194	1.202161	-0.000142
 831	8.2585e+01	6.9271	24.995926	0.000456	4.561964	1.545635	-0.000183
 832	8.2684e+01	6.8918	24.866738	0.000324	3.244063	1.099118	-0.000130
 833	8.2784e+01	6.8421	24.741586	0.000314	3.142686	1.064771	-0.000126
 834	8.2883e+01	6.8148	24.551841	0.000476	4.764718	1.614330	-0.000191
 835	8.2983e+01	6.7650	24.398430	0.000385	3.852325	1.305203	-0.000154
 836	8.3082e+01	6.7282	24.261167	0.000345	3.446817	1.167813	-0.000138
 837	8.3182e+01	6.6880	24.099682	0.000406	4.055079	1.373898	-0.000162
 838	8.3281e+01	6.6528	23.978568	0.000304	3.041309	1.030424	-0.000122
 839	8.3381e+01	6.6126	23.813045	0.000416	4.156456	1.408246	-0.000166
 840	8.3481e+01	6.5709	23.700005	0.000284	2.838555	0.961729	-0.000114
 841	8.3580e+01	6.5421	23.554668	0.000365	3.649571	1.236508	-0.000146
 842	8.3680e+01	6.4971	23.393183	0.000406	4.055079	1.373898	-0.000162
 843	8.3779e+01	6.4570	23.288218	0.000264	2.635802	0.893034	-0.000105
 844	8.3879e+01	6.4089	23.106546	0.000456	4.561964	1.545635	-0.000183
 845	8.3978e+01	6.3704	22.941024	0.000416	4.156456	1.408246	-0.000166
 846	8.4078e+01	6.3319	22.827984	0.000284	2.838555	0.961729	-0.000114
 847	8.4177e+01	6.2934	22.666499	0.000406	4.055079	1.373898	-0.000162
 848	8.4276e+01	6.2501	22.529236	0.000345	3.446817	1.167813	-0.000138
 849	8.4376e+01	6.2196	22.404085	0.000314	3.142686	1.064771	-0.000126
 850	8.4475e+01	6.1859	22.246636	0.000395	3.953702	1.339551	-0.000158
 851	8.4575e+01	6.1378	22.101300	0.000365	3.649571	1.236508	-0.000146
 852	8.4674e+01	6.0993	21.972111	0.000324	3.244063	1.099118	-0.000130
 853	8.4774e+01	6.0560	21.818700	0.000385	3.852325	1.305203	-0.000154
 854	8.4874e+01	6.0143	21.653178	0.000416	4.156456	1.408246	-0.000166
 855	8.4973e+01	5.9726	21.503804	0.000375	3.750948	1.270856	-0.000150
 856	8.5073e+01	5.9437	21.374615	0.000324	3.244063	1.099118	-0.000130
 857	8.5172e+01	5.8956	21.229278	0.000365	3.649571	1.236508	-0.000146
 858	8.5272e+01	5.8538	21.055681	0.000436	4.359210	1.476940	-0.000174
 859	8.5371e+01	5.8073	20.922456	0.000335	3.345440	1.133466	-0.000134
 860	8.5471e+01	5.7817	20.845750	0.000193	1.926163	0.652602	-0.000077
 861	8.5570e+01	5.7335	20.651968	0.000487	4.866095	1.648678	-0.000195
 862	8.5669e+01	5.6966	20.506631	0.000365	3.649571	1.236508	-0.000146
 863	8.5769e+01	5.6581	20.357257	0.000375	3.750948	1.270856	-0.000150
 864	8.5868e+01	5.6132	20.211920	0.000365	3.649571	1.236508	-0.000146
 865	8.5968e+01	5.5859	20.078695	0.000335	3.345440	1.133466	-0.000134
 866	8.6067e+01	5.5378	19.925283	0.000385	3.852325	1.305203	-0.000154
 867	8.6167e+01	5.4881	19.792058	0.000335	3.345440	1.133466	-0.000134
 868	8.6266e+01	5.4624	19.638647	0.000385	3.852325	1.305203	-0.000154
 869	8.6366e+01	5.4111	19.505421	0.000335	3.345440	1.133466	-0.000134
 870	8.6466e+01	5.3726	19.347973	0.000395	3.953702	1.339551	-0.000158
 871	8.6565e+01	5.3357	19.182450	0.000416	4.156456	1.408246	-0.000166
 872	8.6665e+01	5.2956	19.045188	0.000345	3.446817	1.167813	-0.000138
 873	8.6764e+01	5.2571	18.895814	0.000375	3.750948	1.270856	-0.000150
 874	8.6864e+01	5.2122	18.750477	0.000365	3.649571	1.236508	-0.000146
 875	8.6963e+01	5.1785	18.593029	0.000395	3.953702	1.339551	-0.000158
 876	8.7063e+01	5.1368	18.451729	0.000355	3.548194	1.202161	-0.000142
 877	8.7162e+01	5.1015	18.278132	0.000436	4.359210	1.476940	-0.000174
 878	8.7261e+01	5.0533	18.169129	0.000274	2.737179	0.927381	-0.000110
 879	8.7361e+01	5.0164	18.031867	0.000345	3.446817	1.167813	-0.000138
 880	8.7460e+01	4.9860	17.838084	0.000487	4.866095	1.648678	-0.000195
 881	8.7560e+01	4.9314	17.692747	0.000365	3.649571	1.236508	-0.000146
 882	8.7659e+01	4.8961	17.579708	0.000284	2.838555	0.961729	-0.000114
 883	8.7759e+01	4.8656	17.406111	0.000436	4.359210	1.476940	-0.000174
 884	8.7859e+01	4.8255	17.260774	0.000365	3.649571	1.236508	-0.000146
 885	8.7958e+01	4.7822	17.111400	0.000375	3.750948	1.270856	-0.000150
 886	8.8058e+01	4.7341	16.974137	0.000345	3.446817	1.167813	-0.000138
 887	8.8157e+01	4.6972	16.820726	0.000385	3.852325	1.305203	-0.000154
 888	8.8257e+01	4.6603	16.671352	0.000375	3.750948	1.270856	-0.000150
 889	8.8356e+01	4.6138	16.530052	0.000355	3.548194	1.202161	-0.000142
 890	8.8456e+01	4.5769	16.360493	0.000426	4.257833	1.442593	-0.000170
 891	8.8555e+01	4.5368	16.243416	0.000294	2.939932	0.996076	-0.000118
 892	8.8654e+01	4.5079	16.098079	0.000365	3.649571	1.236508	-0.000146
 893	8.8754e+01	4.4534	15.924482	0.000436	4.359210	1.476940	-0.000174
 894	8.8853e+01	4.4213	15.807405	0.000294	2.939932	0.996076	-0.000118
 895	8.8953e+01	4.3715	15.658031	0.000375	3.750948	1.270856	-0.000150
 896	8.9052e+01	4.3427	15.496546	0.000406	4.055079	1.373898	-0.000162
 897	8.9152e+01	4.3042	15.351209	0.000365	3.649571	1.236508	-0.000146
 898	8.9251e+01	4.2608	15.209909	0.000355	3.548194	1.202161	-0.000142
 899	8.9351e+01	4.2127	15.044386	0.000416	4.156456	1.408246	-0.000166
 900	8.9451e+01	4.1726	14.899049	0.000365	3.649571	1.236508	-0.000146
 901	8.9550e+01	4.1421	14.753713	0.000365	3.649571	1.236508	-0.000146
 902	8.9650e+01	4.0988	14.596264	0.000395	3.953702	1.339551	-0.000158
 903	8.9749e+01	4.0539	14.499373	0.000243	2.433048	0.824339	-0.000097
 904	8.9849e+01	4.0314	14.345962	0.000385	3.852325	1.305203	-0.000154
 905	8.9948e+01	3.9849	14.180439	0.000416	4.156456	1.408246	-0.000166
 906	9.0047e+01	3.9400	14.022991	0.000395	3.953702	1.339551	-0.000158
 907	9.0147e+01	3.9079	13.865543	0.000395	3.953702	1.339551	-0.000158
 908	9.0246e+01	3.8566	13.679834	0.000466	4.663341	1.579983	-0.000187
 909	9.0346e+01	3.8197	13.566795	0.000284	2.838555	0.961729	-0.000114
 910	9.0445e+01	3.7892	13.429532	0.000345	3.446817	1.167813	-0.000138
 911	9.0545e+01	3.7411	13.268047	0.000406	4.055079	1.373898	-0.000162
 912	9.0644e+01	3.7026	13.098487	0.000426	4.257833	1.442593	-0.000170
 913	9.0744e+01	3.6673	13.001596	0.000243	2.433048	0.824339	-0.000097
 914	9.0844e+01	3.6288	12.819925	0.000456	4.561964	1.545635	-0.000183
 915	9.0943e+01	3.5839	12.662476	0.000395	3.953702	1.339551	-0.000158
 916	9.1043e+01	3.5518	12.517139	0.000365	3.649571	1.236508	-0.000146
 917	9.1142e+01	3.5101	12.347580	0.000426	4.257833	1.442593	-0.000170
 918	9.1242e+01	3.4555	12.190131	0.000395	3.953702	1.339551	-0.000158
 919	9.1341e+01	3.4186	12.052869	0.000345	3.446817	1.167813	-0.000138
 920	9.1441e+01	3.3930	11.911569	0.000355	3.548194	1.202161	-0.000142
 921	9.1540e+01	3.3496	11.750084	0.000406	4.055079	1.373898	-0.000162
 922	9.1639e+01	3.2999	11.600710	0.000375	3.750948	1.270856	-0.000150
 923	9.1739e+01	3.2598	11.427113	0.000436	4.359210	1.476940	-0.000174
 924	9.1838e+01	3.2277	11.314073	0.000284	2.838555	0.961729	-0.000114
 925	9.1938e+01	3.1876	11.148550	0.000416	4.156456	1.408246	-0.000166
 926	9.2037e+01	3.1475	10.995139	0.000385	3.852325	1.305203	-0.000154
 927	9.2137e+01	3.1074	10.865951	0.000324	3.244063	1.099118	-0.000130
 928	9.2237e+01	3.0769	10.668131	0.000497	4.967472	1.683025	-0.000199
 929	9.2336e+01	3.0256	10.575277	0.000233	2.331671	0.789991	-0.000093
 930	9.2436e+01	2.9823	10.438014	0.000345	3.446817	1.167813	-0.000138
 931	9.2535e+01	2.9454	10.220009	0.000547	5.474357	1.854762	-0.000219
 932	9.2635e+01	2.9085	10.098895	0.000304	3.041309	1.030424	-0.000122
 933	9.2734e+01	2.8668	9.921261	0.000446	4.460587	1.511288	-0.000179
 934	9.2834e+01	2.8186	9.767850	0.000385	3.852325	1.305203	-0.000154
 935	9.2933e+01	2.7930	9.610402	0.000395	3.953702	1.339551	-0.000158
 936	9.3032e+01	2.7497	9.469102	0.000355	3.548194	1.202161	-0.000142
 937	9.3132e+01	2.7095	9.343951	0.000314	3.142686	1.064771	-0.000126
 938	9.3231e+01	2.6662	9.166317	0.000446	4.460587	1.511288	-0.000179
 939	9.3331e+01	2.6342	8.988683	0.000446	4.460587	1.511288	-0.000179
 940	9.3430e+01	2.5924	8.871606	0.000294	2.939932	0.996076	-0.000118
 941	9.3530e+01	2.5459	8.702046	0.000426	4.257833	1.442593	-0.000170
 942	9.3629e+01	2.5170	8.552672	0.000375	3.750948	1.270856	-0.000150
 943	9.3729e+01	2.4641	8.395224	0.000395	3.953702	1.339551	-0.000158
 944	9.3829e+01	2.4320	8.241813	0.000385	3.852325	1.305203	-0.000154
 945	9.3928e+01	2.3839	8.064179	0.000446	4.460587	1.511288	-0.000179
 946	9.4028e+01	2.3502	7.910767	0.000385	3.852325	1.305203	-0.000154
 947	9.4127e+01	2.3101	7.749282	0.000406	4.055079	1.373898	-0.000162
 948	9.4227e+01	2.2716	7.607982	0.000355	3.548194	1.202161	-0.000142
 949	9.4326e+01	2.2347	7.446497	0.000406	4.055079	1.373898	-0.000162
 950	9.4425e+01	2.1882	7.268863	0.000446	4.460587	1.511288	-0.000179
 951	9.4525e+01	2.1561	7.139675	0.000324	3.244063	1.099118	-0.000130
 952	9.4624e+01	2.1144	6.970115	0.000426	4.257833	1.442593	-0.000170
 953	9.4724e+01	2.0711	6.792481	0.000446	4.460587	1.511288	-0.000179
 954	9.4823e+01	2.0326	6.691552	0.000253	2.534425	0.858686	-0.000101
 955	9.4923e+01	1.9892	6.554290	0.000345	3.446817	1.167813	-0.000138
 956	9.5022e+01	1.9540	6.400879	0.000385	3.852325	1.305203	-0.000154
 957	9.5122e+01	1.9155	6.243430	0.000395	3.953702	1.339551	-0.000158
 958	9.5222e+01	1.8737	6.057722	0.000466	4.663341	1.579983	-0.000187
 959	9.5321e+01	1.8336	5.904311	0.000385	3.852325	1.305203	-0.000154
 960	9.5421e+01	1.7999	5.771086	0.000335	3.345440	1.133466	-0.000134
 961	9.5520e+01	1.7518	5.621712	0.000375	3.750948	1.270856	-0.000150
 962	9.5620e+01	1.7021	5.492523	0.000324	3.244063	1.099118	-0.000130
 963	9.5719e+01	1.6668	5.318926	0.000436	4.359210	1.476940	-0.000174
 964	9.5819e+01	1.6187	5.185701	0.000335	3.345440	1.133466	-0.000134
 965	9.5918e+01	1.5994	4.979807	0.000517	5.170226	1.751720	-0.000207
 966	9.6017e+01	1.5513	4.866767	0.000284	2.838555	0.961729	-0.000114
 967	9.6117e+01	1.5176	4.717393	0.000375	3.750948	1.270856	-0.000150
 968	9.6216e+01	1.4759	4.551871	0.000416	4.156456	1.408246	-0.000166
 969	9.6316e+01	1.4326	4.406534	0.000365	3.649571	1.236508	-0.000146
 970	9.6415e+01	1.3925	4.261197	0.000365	3.649571	1.236508	-0.000146
 971	9.6515e+01	1.3556	4.115860	0.000365	3.649571	1.236508	-0.000146
 972	9.6615e+01	1.3123	3.942263	0.000436	4.359210	1.476940	-0.000174
 973	9.6714e+01	1.2722	3.792889	0.000375	3.750948	1.270856	-0.000150
 974	9.6814e+01	1.2256	3.619292	0.000436	4.359210	1.476940	-0.000174
 975	9.6913e+01	1.1887	3.490104	0.000324	3.244063	1.099118	-0.000130
 976	9.7013e+01	1.1550	3.356878	0.000335	3.345440	1.133466	-0.000134
 977	9.7112e+01	1.1117	3.183282	0.000436	4.359210	1.476940	-0.000174
 978	9.7212e+01	1.0813	2.985462	0.000497	4.967472	1.683025	-0.000199
 979	9.7311e+01	1.0315	2.856274	0.000324	3.244063	1.099118	-0.000130
 980	9.7410e+01	0.9850	2.714974	0.000355	3.548194	1.202161	-0.000142
 981	9.7510e+01	0.9529	2.553488	0.000406	4.055079	1.373898	-0.000162
 982	9.7609e+01	0.9144	2.367780	0.000466	4.663341	1.579983	-0.000187
 983	9.7709e+01	0.8743	2.246666	0.000304	3.041309	1.030424	-0.000122
 984	9.7808e+01	0.8294	2.097292	0.000375	3.750948	1.270856	-0.000150
 985	9.7908e+01	0.7957	1.923695	0.000436	4.359210	1.476940	-0.000174
 986	9.8007e+01	0.7524	1.790470	0.000335	3.345440	1.133466	-0.000134
 987	9.8107e+01	0.7123	1.592650	0.000497	4.967472	1.683025	-0.000199
 988	9.8207e+01	0.6786	1.495759	0.000243	2.433048	0.824339	-0.000097
 989	9.8306e+01	0.6369	1.330236	0.000416	4.156456	1.408246	-0.000166
 990	9.8406e+01	0.6000	1.180862	0.000375	3.750948	1.270856	-0.000150
 991	9.8505e+01	0.5583	1.011303	0.000426	4.257833	1.442593	-0.000170
 992	9.8605e+01	0.5214	0.861928	0.000375	3.750948	1.270856	-0.000150
 993	9.8704e+01	0.4813	0.773111	0.000223	2.230294	0.755644	-0.000089
 994	9.8803e+01	0.4412	0.579329	0.000487	4.866095	1.648678	-0.000195
 995	9.8903e+01	0.3866	0.393621	0.000466	4.663341	1.579983	-0.000187
 996	9.9002e+01	0.3561	0.260395	0.000335	3.345440	1.133466	-0.000134
 997	9.9102e+01	0.3208	0.119096	0.000355	3.548194	1.202161	-0.000142
 998	9.9201e+01	0.2775	-0.026241	0.000365	3.649571	1.236508	-0.000146
 999	9.9301e+01	0.2246	-0.155430	0.000324	3.244063	1.099118	-0.000130
1000	9.9400e+01	0.1909	-0.345175	0.000476	4.764718	1.614330	-0.000191
1001	9.9500e+01	0.1556	-0.518772	0.000436	4.359210	1.476940	-0.000174
1002	9.9600e+01	0.1139	-0.615663	0.000243	2.433048	0.824339	-0.000097
1003	9.9699e+01	0.0914	-0.756963	0.000355	3.548194	1.202161	-0.000142
1004	9.9799e+01	0.0257	-0.946708	0.000476	4.764718	1.614330	-0.000191
1005	9.9898e+01	0.0000	-1.092045	0.000365	3.649571	1.236508	-0.000146
1006	9.9998e+01	-0.0337	-1.201048	0.000274	2.737179	0.927381	-0.000110
1007	1.0010e+02	-0.0706	-1.350422	0.000375	3.750948	1.270856	-0.000150
1008	1.0020e+02	-0.1203	-1.524019	0.000436	4.359210	1.476940	-0.000174
1009	1.0030e+02	-0.1524	-1.637059	0.000284	2.838555	0.961729	-0.000114
1010	1.0040e+02	-0.1973	-1.818730	0.000456	4.561964	1.545635	-0.000183
1011	1.0050e+02	-0.2374	-1.980215	0.000406	4.055079	1.373898	-0.000162
1012	1.0059e+02	-0.2791	-2.121515	0.000355	3.548194	1.202161	-0.000142
1013	1.0069e+02	-0.3208	-2.299149	0.000446	4.460587	1.511288	-0.000179
1014	1.0079e+02	-0.3513	-2.436411	0.000345	3.446817	1.167813	-0.000138
1015	1.0089e+02	-0.3962	-2.505043	0.000172	1.723409	0.583907	-0.000069
1016	1.0099e+02	-0.4331	-2.686714	0.000456	4.561964	1.545635	-0.000183
1017	1.0109e+02	-0.4732	-2.819939	0.000335	3.345440	1.133466	-0.000134
1018	1.0119e+02	-0.5069	-2.969313	0.000375	3.750948	1.270856	-0.000150
1019	1.0129e+02	-0.5535	-3.106576	0.000345	3.446817	1.167813	-0.000138
1020	1.0139e+02	-0.5920	-3.272099	0.000416	4.156456	1.408246	-0.000166
1021	1.0149e+02	-0.6337	-3.437621	0.000416	4.156456	1.408246	-0.000166
1022	1.0159e+02	-0.6770	-3.566809	0.000324	3.244063	1.099118	-0.000130
1023	1.0169e+02	-0.7091	-3.736369	0.000426	4.257833	1.442593	-0.000170
1024	1.0179e+02	-0.7428	-3.873632	0.000345	3.446817	1.167813	-0.000138
1025	1.0189e+02	-0.7925	-3.990709	0.000294	2.939932	0.996076	-0.000118
1026	1.0199e+02	-0.8214	-4.172380	0.000456	4.561964	1.545635	-0.000183
1027	1.0209e+02	-0.8711	-4.333865	0.000406	4.055079	1.373898	-0.000162
1028	1.0219e+02	-0.9064	-4.422682	0.000223	2.230294	0.755644	-0.000089
1029	1.0229e+02	-0.9593	-4.616465	0.000487	4.866095	1.648678	-0.000195
1030	1.0239e+02	-0.9994	-4.769876	0.000385	3.852325	1.305203	-0.000154
1031	1.0248e+02	-1.0363	-4.870804	0.000253	2.534425	0.858686	-0.000101
1032	1.0258e+02	-1.0668	-5.020178	0.000375	3.750948	1.270856	-0.000150
1033	1.0268e+02	-1.1101	-5.173589	0.000385	3.852325	1.305203	-0.000154
1034	1.0278e+02	-1.1422	-5.331038	0.000395	3.953702	1.339551	-0.000158
1035	1.0288e+02	-1.1855	-5.480412	0.000375	3.750948	1.270856	-0.000150
1036	1.0298e+02	-1.2288	-5.633823	0.000385	3.852325	1.305203	-0.000154
1037	1.0308e+02	-1.2706	-5.779160	0.000365	3.649571	1.236508	-0.000146
1038	1.0318e+02	-1.3042	-5.916422	0.000345	3.446817	1.167813	-0.000138
1039	1.0328e+02	-1.3460	-6.065796	0.000375	3.750948	1.270856	-0.000150
1040	1.0338e+02	-1.3893	-6.194985	0.000324	3.244063	1.099118	-0.000130
1041	1.0348e+02	-1.4310	-6.368582	0.000436	4.359210	1.476940	-0.000174
1042	1.0358e+02	-1.4679	-6.513919	0.000365	3.649571	1.236508	-0.000146
1043	1.0368e+02	-1.5096	-6.659255	0.000365	3.649571	1.236508	-0.000146
1044	1.0378e+02	-1.5529	-6.792481	0.000335	3.345440	1.133466	-0.000134
1045	1.0388e+02	-1.5930	-6.962041	0.000426	4.257833	1.442593	-0.000170
1046	1.0398e+02	-1.6203	-7.127563	0.000416	4.156456	1.408246	-0.000166
1047	1.0408e+02	-1.6668	-7.228492	0.000253	2.534425	0.858686	-0.000101
1048	1.0418e+02	-1.7101	-7.418237	0.000476	4.764718	1.614330	-0.000191
1049	1.0428e+02	-1.7502	-7.567611	0.000375	3.750948	1.270856	-0.000150
1050	1.0438e+02	-1.7887	-7.680651	0.000284	2.838555	0.961729	-0.000114
1051	1.0447e+02	-1.8224	-7.858285	0.000446	4.460587	1.511288	-0.000179
1052	1.0457e+02	-1.8657	-7.995547	0.000345	3.446817	1.167813	-0.000138
1053	1.0467e+02	-1.9042	-8.136847	0.000355	3.548194	1.202161	-0.000142
1054	1.0477e+02	-1.9475	-8.294295	0.000395	3.953702	1.339551	-0.000158
1055	1.0487e+02	-1.9860	-8.459818	0.000416	4.156456	1.408246	-0.000166
1056	1.0497e+02	-2.0229	-8.584969	0.000314	3.142686	1.064771	-0.000126
1057	1.0507e+02	-2.0727	-8.710120	0.000314	3.142686	1.064771	-0.000126
1058	1.0517e+02	-2.1048	-8.859494	0.000375	3.750948	1.270856	-0.000150
1059	1.0527e+02	-2.1577	-8.988683	0.000324	3.244063	1.099118	-0.000130
1060	1.0537e+02	-2.1946	-9.166317	0.000446	4.460587	1.511288	-0.000179
1061	1.0547e+02	-2.2267	-9.311654	0.000365	3.649571	1.236508	-0.000146
1062	1.0557e+02	-2.2732	-9.452953	0.000355	3.548194	1.202161	-0.000142
1063	1.0567e+02	-2.3005	-9.565993	0.000284	2.838555	0.961729	-0.000114
1064	1.0577e+02	-2.3438	-9.723441	0.000395	3.953702	1.339551	-0.000158
1065	1.0587e+02	-2.3871	-9.864741	0.000355	3.548194	1.202161	-0.000142
1066	1.0597e+02	-2.4224	-10.082747	0.000547	5.474357	1.854762	-0.000219
1067	1.0607e+02	-2.4577	-10.155415	0.000182	1.824786	0.618254	-0.000073
1068	1.0617e+02	-2.5106	-10.316900	0.000406	4.055079	1.373898	-0.000162
1069	1.0627e+02	-2.5475	-10.446089	0.000324	3.244063	1.099118	-0.000130
1070	1.0637e+02	-2.5828	-10.599500	0.000385	3.852325	1.305203	-0.000154
1071	1.0647e+02	-2.6213	-10.777134	0.000446	4.460587	1.511288	-0.000179
1072	1.0656e+02	-2.6646	-10.930545	0.000385	3.852325	1.305203	-0.000154
1073	1.0666e+02	-2.7047	-11.051659	0.000304	3.041309	1.030424	-0.000122
1074	1.0676e+02	-2.7481	-11.180847	0.000324	3.244063	1.099118	-0.000130
1075	1.0686e+02	-2.7833	-11.374630	0.000487	4.866095	1.648678	-0.000195
1076	1.0696e+02	-2.8218	-11.463447	0.000223	2.230294	0.755644	-0.000089
1077	1.0706e+02	-2.8620	-11.612821	0.000375	3.750948	1.270856	-0.000150
1078	1.0716e+02	-2.9005	-11.774306	0.000406	4.055079	1.373898	-0.000162
1079	1.0726e+02	-2.9486	-11.951940	0.000446	4.460587	1.511288	-0.000179
1080	1.0736e+02	-2.9807	-12.064980	0.000284	2.838555	0.961729	-0.000114
1081	1.0746e+02	-3.0208	-12.222428	0.000395	3.953702	1.339551	-0.000158
1082	1.0756e+02	-3.0673	-12.335468	0.000284	2.838555	0.961729	-0.000114
1083	1.0766e+02	-3.0946	-12.545399	0.000527	5.271603	1.786067	-0.000211
1084	1.0776e+02	-3.1379	-12.662476	0.000294	2.939932	0.996076	-0.000118
1085	1.0786e+02	-3.1844	-12.811850	0.000375	3.750948	1.270856	-0.000150
1086	1.0796e+02	-3.2229	-12.969299	0.000395	3.953702	1.339551	-0.000158
1087	1.0806e+02	-3.2630	-13.114635	0.000365	3.649571	1.236508	-0.000146
1088	1.0816e+02	-3.2967	-13.255935	0.000355	3.548194	1.202161	-0.000142
1089	1.0826e+02	-3.3400	-13.397235	0.000355	3.548194	1.202161	-0.000142
1090	1.0836e+02	-3.3785	-13.586980	0.000476	4.764718	1.614330	-0.000191
1091	1.0845e+02	-3.4106	-13.708094	0.000304	3.041309	1.030424	-0.000122
1092	1.0855e+02	-3.4555	-13.841320	0.000335	3.345440	1.133466	-0.000134
1093	1.0865e+02	-3.5052	-14.002805	0.000406	4.055079	1.373898	-0.000162
1094	1.0875e+02	-3.5470	-14.144105	0.000355	3.548194	1.202161	-0.000142
1095	1.0885e+02	-3.5774	-14.261182	0.000294	2.939932	0.996076	-0.000118
1096	1.0895e+02	-3.6240	-14.406519	0.000365	3.649571	1.236508	-0.000146
1097	1.0905e+02	-3.6609	-14.588190	0.000456	4.561964	1.545635	-0.000183
1098	1.0915e+02	-3.7026	-14.713341	0.000314	3.142686	1.064771	-0.000126
1099	1.0925e+02	-3.7459	-14.810232	0.000243	2.433048	0.824339	-0.000097
1100	1.0935e+02	-3.7780	-15.020164	0.000527	5.271603	1.786067	-0.000211
1101	1.0945e+02	-3.8181	-15.153389	0.000335	3.345440	1.133466	-0.000134
1102	1.0955e+02	-3.8437	-15.314874	0.000406	4.055079	1.373898	-0.000162
1103	1.0965e+02	-3.8999	-15.435988	0.000304	3.041309	1.030424	-0.000122
1104	1.0975e+02	-3.9416	-15.585363	0.000375	3.750948	1.270856	-0.000150
1105	1.0985e+02	-3.9849	-15.758959	0.000436	4.359210	1.476940	-0.000174
1106	1.0995e+02	-4.0266	-15.936593	0.000446	4.460587	1.511288	-0.000179
1107	1.1005e+02	-4.0635	-16.045596	0.000274	2.737179	0.927381	-0.000110
1108	1.1015e+02	-4.0892	-16.194970	0.000375	3.750948	1.270856	-0.000150
1109	1.1025e+02	-4.1373	-16.320121	0.000314	3.142686	1.064771	-0.000126
1110	1.1035e+02	-4.1758	-16.497755	0.000446	4.460587	1.511288	-0.000179
1111	1.1044e+02	-4.2191	-16.618869	0.000304	3.041309	1.030424	-0.000122
1112	1.1054e+02	-4.2673	-16.776318	0.000395	3.953702	1.339551	-0.000158
1113	1.1064e+02	-4.2961	-16.937803	0.000406	4.055079	1.373898	-0.000162
1114	1.1074e+02	-4.3346	-17.099288	0.000406	4.055079	1.373898	-0.000162
1115	1.1084e+02	-4.3796	-17.228477	0.000324	3.244063	1.099118	-0.000130
1116	1.1094e+02	-4.4245	-17.381888	0.000385	3.852325	1.305203	-0.000154
1117	1.1104e+02	-4.4550	-17.543373	0.000406	4.055079	1.373898	-0.000162
1118	1.1114e+02	-4.4967	-17.660450	0.000294	2.939932	0.996076	-0.000118
1119	1.1124e+02	-4.5448	-17.813861	0.000385	3.852325	1.305203	-0.000154
1120	1.1134e+02	-4.5737	-17.971310	0.000395	3.953702	1.339551	-0.000158
1121	1.1144e+02	-4.6170	-18.124721	0.000385	3.852325	1.305203	-0.000154
1122	1.1154e+02	-4.6539	-18.237761	0.000284	2.838555	0.961729	-0.000114
1123	1.1164e+02	-4.6940	-18.399246	0.000406	4.055079	1.373898	-0.000162
1124	1.1174e+02	-4.7309	-18.536509	0.000345	3.446817	1.167813	-0.000138
1125	1.1184e+02	-4.7790	-18.657623	0.000304	3.041309	1.030424	-0.000122
1126	1.1194e+02	-4.8159	-18.831220	0.000436	4.359210	1.476940	-0.000174
1127	1.1204e+02	-4.8640	-18.976557	0.000365	3.649571	1.236508	-0.000146
1128	1.1214e+02	-4.8977	-19.109782	0.000335	3.345440	1.133466	-0.000134
1129	1.1224e+02	-4.9458	-19.255119	0.000365	3.649571	1.236508	-0.000146
1130	1.1234e+02	-4.9747	-19.376233	0.000304	3.041309	1.030424	-0.000122
1131	1.1244e+02	-5.0116	-19.517533	0.000355	3.548194	1.202161	-0.000142
1132	1.1253e+02	-5.0533	-19.683055	0.000416	4.156456	1.408246	-0.000166
1133	1.1263e+02	-5.0966	-19.848578	0.000416	4.156456	1.408246	-0.000166
1134	1.1273e+02	-5.1480	-19.965655	0.000294	2.939932	0.996076	-0.000118
1135	1.1283e+02	-5.1737	-20.078695	0.000284	2.838555	0.961729	-0.000114
1136	1.1293e+02	-5.2186	-20.292663	0.000537	5.372980	1.820415	-0.000215
1137	1.1303e+02	-5.2587	-20.421851	0.000324	3.244063	1.099118	-0.000130
1138	1.1313e+02	-5.2892	-20.542965	0.000304	3.041309	1.030424	-0.000122
1139	1.1323e+02	-5.3325	-20.647931	0.000264	2.635802	0.893034	-0.000105
1140	1.1333e+02	-5.3822	-20.809416	0.000406	4.055079	1.373898	-0.000162
1141	1.1343e+02	-5.4031	-20.983013	0.000436	4.359210	1.476940	-0.000174
1142	1.1353e+02	-5.4560	-21.108164	0.000314	3.142686	1.064771	-0.000126
1143	1.1363e+02	-5.4977	-21.297910	0.000476	4.764718	1.614330	-0.000191
1144	1.1373e+02	-5.5330	-21.427098	0.000324	3.244063	1.099118	-0.000130
1145	1.1383e+02	-5.5651	-21.532063	0.000264	2.635802	0.893034	-0.000105
1146	1.1393e+02	-5.6132	-21.705660	0.000436	4.359210	1.476940	-0.000174
1147	1.1403e+02	-5.6597	-21.806589	0.000253	2.534425	0.858686	-0.000101
1148	1.1413e+02	-5.6950	-22.000371	0.000487	4.866095	1.648678	-0.000195
1149	1.1423e+02	-5.7383	-22.105337	0.000264	2.635802	0.893034	-0.000105
1150	1.1433e+02	-5.7817	-22.274896	0.000426	4.257833	1.442593	-0.000170
1151	1.1442e+02	-5.8169	-22.391973	0.000294	2.939932	0.996076	-0.000118
1152	1.1452e+02	-5.8538	-22.545385	0.000385	3.852325	1.305203	-0.000154
1153	1.1462e+02	-5.8972	-22.682647	0.000345	3.446817	1.167813	-0.000138
1154	1.1472e+02	-5.9437	-22.819910	0.000345	3.446817	1.167813	-0.000138
1155	1.1482e+02	-5.9822	-22.989469	0.000426	4.257833	1.442593	-0.000170
1156	1.1492e+02	-6.0207	-23.090398	0.000253	2.534425	0.858686	-0.000101
1157	1.1502e+02	-6.0480	-23.268032	0.000446	4.460587	1.511288	-0.000179
1158	1.1512e+02	-6.0849	-23.401257	0.000335	3.345440	1.133466	-0.000134
1159	1.1522e+02	-6.1282	-23.514297	0.000284	2.838555	0.961729	-0.000114
1160	1.1532e+02	-6.1667	-23.671745	0.000395	3.953702	1.339551	-0.000158
1161	1.1542e+02	-6.2084	-23.788822	0.000294	2.939932	0.996076	-0.000118
1162	1.1552e+02	-6.2485	-23.962419	0.000436	4.359210	1.476940	-0.000174
1163	1.1562e+02	-6.2918	-24.123905	0.000406	4.055079	1.373898	-0.000162
1164	1.1572e+02	-6.3207	-24.269241	0.000365	3.649571	1.236508	-0.000146
1165	1.1582e+02	-6.3608	-24.366133	0.000243	2.433048	0.824339	-0.000097
1166	1.1592e+02	-6.3961	-24.523581	0.000395	3.953702	1.339551	-0.000158
1167	1.1602e+02	-6.4426	-24.632584	0.000274	2.737179	0.927381	-0.000110
1168	1.1612e+02	-6.4875	-24.790032	0.000395	3.953702	1.339551	-0.000158
1169	1.1622e+02	-6.5308	-24.915183	0.000314	3.142686	1.064771	-0.000126
1170	1.1632e+02	-6.5645	-25.036297	0.000304	3.041309	1.030424	-0.000122
1171	1.1642e+02	-6.6110	-25.197783	0.000406	4.055079	1.373898	-0.000162
1172	1.1651e+02	-6.6495	-25.326971	0.000324	3.244063	1.099118	-0.000130
1173	1.1661e+02	-6.6816	-25.440011	0.000284	2.838555	0.961729	-0.000114
1174	1.1671e+02	-6.7249	-25.593422	0.000385	3.852325	1.305203	-0.000154
1175	1.1681e+02	-6.7731	-25.754907	0.000406	4.055079	1.373898	-0.000162
1176	1.1691e+02	-6.8100	-25.896207	0.000355	3.548194	1.202161	-0.000142
1177	1.1701e+02	-6.8453	-26.033470	0.000345	3.446817	1.167813	-0.000138
1178	1.1711e+02	-6.8773	-26.126324	0.000233	2.331671	0.789991	-0.000093
1179	1.1721e+02	-6.9271	-26.291846	0.000416	4.156456	1.408246	-0.000166
1180	1.1731e+02	-6.9656	-26.372589	0.000203	2.027540	0.686949	-0.000081
1181	1.1741e+02	-7.0057	-26.542149	0.000426	4.257833	1.442593	-0.000170
1182	1.1751e+02	-7.0442	-26.727857	0.000466	4.663341	1.579983	-0.000187
1183	1.1761e+02	-7.0939	-26.828786	0.000253	2.534425	0.858686	-0.000101
1184	1.1771e+02	-7.1260	-26.945862	0.000294	2.939932	0.996076	-0.000118
1185	1.1781e+02	-7.1629	-27.103311	0.000395	3.953702	1.339551	-0.000158
1186	1.1791e+02	-7.2030	-27.216351	0.000284	2.838555	0.961729	-0.000114
1187	1.1801e+02	-7.2479	-27.381873	0.000416	4.156456	1.408246	-0.000166
1188	1.1811e+02	-7.2912	-27.502987	0.000304	3.041309	1.030424	-0.000122
1189	1.1821e+02	-7.3185	-27.620064	0.000294	2.939932	0.996076	-0.000118
1190	1.1831e+02	-7.3795	-27.741178	0.000304	3.041309	1.030424	-0.000122
1191	1.1841e+02	-7.4019	-27.902664	0.000406	4.055079	1.373898	-0.000162
1192	1.1850e+02	-7.4404	-28.019741	0.000294	2.939932	0.996076	-0.000118
1193	1.1860e+02	-7.4918	-28.157003	0.000345	3.446817	1.167813	-0.000138
1194	1.1870e+02	-7.5222	-28.290229	0.000335	3.345440	1.133466	-0.000134
1195	1.1880e+02	-7.5607	-28.395194	0.000264	2.635802	0.893034	-0.000105
1196	1.1890e+02	-7.5976	-28.540531	0.000365	3.649571	1.236508	-0.000146
1197	1.1900e+02	-7.6522	-28.657608	0.000294	2.939932	0.996076	-0.000118
1198	1.1910e+02	-7.6795	-28.798908	0.000355	3.548194	1.202161	-0.000142
1199	1.1920e+02	-7.7260	-28.940208	0.000355	3.548194	1.202161	-0.000142
1200	1.1930e+02	-7.7597	-29.053247	0.000284	2.838555	0.961729	-0.000114
1201	1.1940e+02	-7.8078	-29.190510	0.000345	3.446817	1.167813	-0.000138
1202	1.1950e+02	-7.8399	-29.356033	0.000416	4.156456	1.408246	-0.000166
1203	1.1960e+02	-7.8800	-29.485221	0.000324	3.244063	1.099118	-0.000130
1204	1.1970e+02	-7.9201	-29.590186	0.000264	2.635802	0.893034	-0.000105
1205	1.1980e+02	-7.9586	-29.691115	0.000253	2.534425	0.858686	-0.000101
1206	1.1990e+02	-8.0019	-29.872786	0.000456	4.561964	1.545635	-0.000183
1207	1.2000e+02	-8.0404	-29.989863	0.000294	2.939932	0.996076	-0.000118
1208	1.2010e+02	-8.0805	-30.163460	0.000436	4.359210	1.476940	-0.000174
1209	1.2020e+02	-8.1222	-30.248240	0.000213	2.128917	0.721296	-0.000085
1210	1.2030e+02	-8.1527	-30.389539	0.000355	3.548194	1.202161	-0.000142
1211	1.2039e+02	-8.1976	-30.551025	0.000406	4.055079	1.373898	-0.000162
1212	1.2049e+02	-8.2442	-30.651953	0.000253	2.534425	0.858686	-0.000101
1213	1.2059e+02	-8.2778	-30.777104	0.000314	3.142686	1.064771	-0.000126
1214	1.2069e+02	-8.3244	-30.902256	0.000314	3.142686	1.064771	-0.000126
1215	1.2079e+02	-8.3613	-31.047592	0.000365	3.649571	1.236508	-0.000146
1216	1.2089e+02	-8.3933	-31.188892	0.000355	3.548194	1.202161	-0.000142
1217	1.2099e+02	-8.4431	-31.285783	0.000243	2.433048	0.824339	-0.000097
1218	1.2109e+02	-8.4768	-31.423046	0.000345	3.446817	1.167813	-0.000138
1219	1.2119e+02	-8.5233	-31.580494	0.000395	3.953702	1.339551	-0.000158
1220	1.2129e+02	-8.5586	-31.693534	0.000284	2.838555	0.961729	-0.000114
1221	1.2139e+02	-8.5971	-31.855020	0.000406	4.055079	1.373898	-0.000162
1222	1.2149e+02	-8.6468	-31.964022	0.000274	2.737179	0.927381	-0.000110
1223	1.2159e+02	-8.6661	-32.097248	0.000335	3.345440	1.133466	-0.000134
1224	1.2169e+02	-8.7142	-32.238547	0.000355	3.548194	1.202161	-0.000142
1225	1.2179e+02	-8.7623	-32.367736	0.000324	3.244063	1.099118	-0.000130
1226	1.2189e+02	-8.8088	-32.517110	0.000375	3.750948	1.270856	-0.000150
1227	1.2199e+02	-8.8313	-32.597853	0.000203	2.027540	0.686949	-0.000081
1228	1.2209e+02	-8.8810	-32.747227	0.000375	3.750948	1.270856	-0.000150
1229	1.2219e+02	-8.9195	-32.872378	0.000314	3.142686	1.064771	-0.000126
1230	1.2229e+02	-8.9548	-32.993492	0.000304	3.041309	1.030424	-0.000122
1231	1.2239e+02	-8.9997	-33.122680	0.000324	3.244063	1.099118	-0.000130
1232	1.2248e+02	-9.0495	-33.272054	0.000375	3.750948	1.270856	-0.000150
1233	1.2258e+02	-9.0687	-33.413354	0.000355	3.548194	1.202161	-0.000142
1234	1.2268e+02	-9.1136	-33.510245	0.000243	2.433048	0.824339	-0.000097
1235	1.2278e+02	-9.1650	-33.679805	0.000426	4.257833	1.442593	-0.000170
1236	1.2288e+02	-9.1939	-33.784770	0.000264	2.635802	0.893034	-0.000105
1237	1.2298e+02	-9.2356	-33.909922	0.000314	3.142686	1.064771	-0.000126
1238	1.2308e+02	-9.2821	-34.075444	0.000416	4.156456	1.408246	-0.000166
1239	1.2318e+02	-9.3110	-34.172335	0.000243	2.433048	0.824339	-0.000097
1240	1.2328e+02	-9.3543	-34.281338	0.000274	2.737179	0.927381	-0.000110
1241	1.2338e+02	-9.3960	-34.434749	0.000385	3.852325	1.305203	-0.000154
1242	1.2348e+02	-9.4409	-34.572012	0.000345	3.446817	1.167813	-0.000138
1243	1.2358e+02	-9.4794	-34.713312	0.000355	3.548194	1.202161	-0.000142
1244	1.2368e+02	-9.5147	-34.810203	0.000243	2.433048	0.824339	-0.000097
1245	1.2378e+02	-9.5452	-34.963614	0.000385	3.852325	1.305203	-0.000154
1246	1.2388e+02	-9.5901	-35.092802	0.000324	3.244063	1.099118	-0.000130
1247	1.2398e+02	-9.6350	-35.234102	0.000355	3.548194	1.202161	-0.000142
1248	1.2408e+02	-9.6848	-35.298696	0.000162	1.622032	0.549559	-0.000065
1249	1.2418e+02	-9.7072	-35.444033	0.000365	3.649571	1.236508	-0.000146
1250	1.2428e+02	-9.7505	-35.577259	0.000335	3.345440	1.133466	-0.000134
1251	1.2438e+02	-9.7938	-35.722596	0.000365	3.649571	1.236508	-0.000146
1252	1.2447e+02	-9.8307	-35.843710	0.000304	3.041309	1.030424	-0.000122
1253	1.2457e+02	-9.8676	-36.005195	0.000406	4.055079	1.373898	-0.000162
1254	1.2467e+02	-9.9126	-36.122272	0.000294	2.939932	0.996076	-0.000118
1255	1.2477e+02	-9.9511	-36.267609	0.000365	3.649571	1.236508	-0.000146
1256	1.2487e+02	-9.9880	-36.348352	0.000203	2.027540	0.686949	-0.000081
1257	1.2497e+02	-10.0297	-36.485614	0.000345	3.446817	1.167813	-0.000138
1258	1.2507e+02	-10.0810	-36.655174	0.000426	4.257833	1.442593	-0.000170
1259	1.2517e+02	-10.1099	-36.788399	0.000335	3.345440	1.133466	-0.000134
1260	1.2527e+02	-10.1468	-36.877216	0.000223	2.230294	0.755644	-0.000089
1261	1.2537e+02	-10.1997	-37.042739	0.000416	4.156456	1.408246	-0.000166
1262	1.2547e+02	-10.2318	-37.159816	0.000294	2.939932	0.996076	-0.000118
1263	1.2557e+02	-10.2767	-37.252670	0.000233	2.331671	0.789991	-0.000093
1264	1.2567e+02	-10.3200	-37.410118	0.000395	3.953702	1.339551	-0.000158
1265	1.2577e+02	-10.3521	-37.511047	0.000253	2.534425	0.858686	-0.000101
1266	1.2587e+02	-10.3922	-37.688681	0.000446	4.460587	1.511288	-0.000179
1267	1.2597e+02	-10.4291	-37.761349	0.000182	1.824786	0.618254	-0.000073
1268	1.2607e+02	-10.4708	-37.922835	0.000406	4.055079	1.373898	-0.000162
1269	1.2617e+02	-10.5093	-38.072209	0.000375	3.750948	1.270856	-0.000150
1270	1.2627e+02	-10.5462	-38.193323	0.000304	3.041309	1.030424	-0.000122
1271	1.2636e+02	-10.5815	-38.350771	0.000395	3.953702	1.339551	-0.000158
1272	1.2646e+02	-10.6345	-38.447662	0.000243	2.433048	0.824339	-0.000097
1273	1.2656e+02	-10.6762	-38.584925	0.000345	3.446817	1.167813	-0.000138
1274	1.2666e+02	-10.7099	-38.665668	0.000203	2.027540	0.686949	-0.000081
1275	1.2676e+02	-10.7516	-38.851376	0.000466	4.663341	1.579983	-0.000187
1276	1.2686e+02	-10.7933	-38.948267	0.000243	2.433048	0.824339	-0.000097
1277	1.2696e+02	-10.8286	-39.085530	0.000345	3.446817	1.167813	-0.000138
1278	1.2706e+02	-10.8703	-39.222792	0.000345	3.446817	1.167813	-0.000138
1279	1.2716e+02	-10.9072	-39.364092	0.000355	3.548194	1.202161	-0.000142
1280	1.2726e+02	-10.9553	-39.473095	0.000274	2.737179	0.927381	-0.000110
1281	1.2736e+02	-10.9858	-39.594209	0.000304	3.041309	1.030424	-0.000122
1282	1.2746e+02	-11.0259	-39.759731	0.000416	4.156456	1.408246	-0.000166
1283	1.2756e+02	-11.0580	-39.856623	0.000243	2.433048	0.824339	-0.000097
1284	1.2766e+02	-11.1045	-39.997922	0.000355	3.548194	1.202161	-0.000142
1285	1.2776e+02	-11.1382	-40.114999	0.000294	2.939932	0.996076	-0.000118
1286	1.2786e+02	-11.1911	-40.276485	0.000406	4.055079	1.373898	-0.000162
1287	1.2796e+02	-11.2360	-40.385487	0.000274	2.737179	0.927381	-0.000110
1288	1.2806e+02	-11.2681	-40.530824	0.000365	3.649571	1.236508	-0.000146
1289	1.2816e+02	-11.3130	-40.631753	0.000253	2.534425	0.858686	-0.000101
1290	1.2826e+02	-11.3419	-40.769015	0.000345	3.446817	1.167813	-0.000138
1291	1.2835e+02	-11.3836	-40.902241	0.000335	3.345440	1.133466	-0.000134
1292	1.2845e+02	-11.4270	-41.039503	0.000345	3.446817	1.167813	-0.000138
1293	1.2855e+02	-11.4638	-41.152543	0.000284	2.838555	0.961729	-0.000114
1294	1.2865e+02	-11.5072	-41.318066	0.000416	4.156456	1.408246	-0.000166
1295	1.2875e+02	-11.5441	-41.418994	0.000253	2.534425	0.858686	-0.000101
1296	1.2885e+02	-11.5826	-41.544145	0.000314	3.142686	1.064771	-0.000126
1297	1.2895e+02	-11.6323	-41.657185	0.000284	2.838555	0.961729	-0.000114
1298	1.2905e+02	-11.6692	-41.758114	0.000253	2.534425	0.858686	-0.000101
1299	1.2915e+02	-11.7157	-41.903450	0.000365	3.649571	1.236508	-0.000146
1300	1.2925e+02	-11.7446	-42.016490	0.000284	2.838555	0.961729	-0.000114
1301	1.2935e+02	-11.7943	-42.190087	0.000436	4.359210	1.476940	-0.000174
1302	1.2945e+02	-11.8200	-42.299090	0.000274	2.737179	0.927381	-0.000110
1303	1.2955e+02	-11.8665	-42.420204	0.000304	3.041309	1.030424	-0.000122
1304	1.2965e+02	-11.9018	-42.549392	0.000324	3.244063	1.099118	-0.000130
1305	1.2975e+02	-11.9483	-42.694729	0.000365	3.649571	1.236508	-0.000146
1306	1.2985e+02	-11.9868	-42.795657	0.000253	2.534425	0.858686	-0.000101
1307	1.2995e+02	-12.0221	-42.904660	0.000274	2.737179	0.927381	-0.000110
1308	1.3005e+02	-12.0606	-43.058071	0.000385	3.852325	1.305203	-0.000154
1309	1.3015e+02	-12.1071	-43.102480	0.000112	1.115147	0.377822	-0.000045
1310	1.3025e+02	-12.1424	-43.304336	0.000507	5.068849	1.717373	-0.000203
1311	1.3034e+02	-12.1809	-43.421413	0.000294	2.939932	0.996076	-0.000118
1312	1.3044e+02	-12.2243	-43.514268	0.000233	2.331671	0.789991	-0.000093
1313	1.3054e+02	-12.2628	-43.687864	0.000436	4.359210	1.476940	-0.000174
1314	1.3064e+02	-12.3045	-43.792830	0.000264	2.635802	0.893034	-0.000105
1315	1.3074e+02	-12.3430	-43.901833	0.000274	2.737179	0.927381	-0.000110
1316	1.3084e+02	-12.3863	-44.018910	0.000294	2.939932	0.996076	-0.000118
1317	1.3094e+02	-12.4264	-44.192506	0.000436	4.359210	1.476940	-0.000174
1318	1.3104e+02	-12.4633	-44.301509	0.000274	2.737179	0.927381	-0.000110
1319	1.3114e+02	-12.4938	-44.402437	0.000253	2.534425	0.858686	-0.000101
1320	1.3124e+02	-12.5387	-44.519514	0.000294	2.939932	0.996076	-0.000118
1321	1.3134e+02	-12.5788	-44.709260	0.000476	4.764718	1.614330	-0.000191
1322	1.3144e+02	-12.6221	-44.818262	0.000274	2.737179	0.927381	-0.000110
1323	1.3154e+02	-12.6638	-44.899005	0.000203	2.027540	0.686949	-0.000081
1324	1.3164e+02	-12.7103	-45.052416	0.000385	3.852325	1.305203	-0.000154
1325	1.3174e+02	-12.7408	-45.165456	0.000284	2.838555	0.961729	-0.000114
1326	1.3184e+02	-12.7857	-45.294644	0.000324	3.244063	1.099118	-0.000130
1327	1.3194e+02	-12.8258	-45.427870	0.000335	3.345440	1.133466	-0.000134
1328	1.3204e+02	-12.8563	-45.548984	0.000304	3.041309	1.030424	-0.000122
1329	1.3214e+02	-12.9044	-45.666061	0.000294	2.939932	0.996076	-0.000118
1330	1.3224e+02	-12.9365	-45.787175	0.000304	3.041309	1.030424	-0.000122
1331	1.3234e+02	-12.9782	-45.867918	0.000203	2.027540	0.686949	-0.000081
1332	1.3243e+02	-13.0216	-46.009217	0.000355	3.548194	1.202161	-0.000142
1333	1.3253e+02	-13.0681	-46.162629	0.000385	3.852325	1.305203	-0.000154
1334	1.3263e+02	-13.1018	-46.291817	0.000324	3.244063	1.099118	-0.000130
1335	1.3273e+02	-13.1371	-46.344300	0.000132	1.317901	0.446517	-0.000053
1336	1.3283e+02	-13.1756	-46.505785	0.000406	4.055079	1.373898	-0.000162
1337	1.3293e+02	-13.2317	-46.639011	0.000335	3.345440	1.133466	-0.000134
1338	1.3303e+02	-13.2526	-46.752050	0.000284	2.838555	0.961729	-0.000114
1339	1.3313e+02	-13.2991	-46.844905	0.000233	2.331671	0.789991	-0.000093
1340	1.3323e+02	-13.3504	-46.986204	0.000355	3.548194	1.202161	-0.000142
1341	1.3333e+02	-13.3777	-47.123467	0.000345	3.446817	1.167813	-0.000138
1342	1.3343e+02	-13.4178	-47.224395	0.000253	2.534425	0.858686	-0.000101
1343	1.3353e+02	-13.4515	-47.345509	0.000304	3.041309	1.030424	-0.000122
1344	1.3363e+02	-13.4980	-47.482772	0.000345	3.446817	1.167813	-0.000138
1345	1.3373e+02	-13.5445	-47.571589	0.000223	2.230294	0.755644	-0.000089
1346	1.3383e+02	-13.5686	-47.712889	0.000355	3.548194	1.202161	-0.000142
1347	1.3393e+02	-13.6183	-47.797669	0.000213	2.128917	0.721296	-0.000085
1348	1.3403e+02	-13.6616	-47.934931	0.000345	3.446817	1.167813	-0.000138
1349	1.3413e+02	-13.6985	-48.084305	0.000375	3.750948	1.270856	-0.000150
1350	1.3423e+02	-13.7403	-48.189271	0.000264	2.635802	0.893034	-0.000105
1351	1.3432e+02	-13.7788	-48.286162	0.000243	2.433048	0.824339	-0.000097
1352	1.3442e+02	-13.8140	-48.431499	0.000365	3.649571	1.236508	-0.000146
1353	1.3452e+02	-13.8606	-48.556650	0.000314	3.142686	1.064771	-0.000126
1354	1.3462e+02	-13.8911	-48.677764	0.000304	3.041309	1.030424	-0.000122
1355	1.3472e+02	-13.9360	-48.766581	0.000223	2.230294	0.755644	-0.000089
1356	1.3482e+02	-13.9745	-48.875584	0.000274	2.737179	0.927381	-0.000110
1357	1.3492e+02	-14.0178	-49.008809	0.000335	3.345440	1.133466	-0.000134
1358	1.3502e+02	-14.0595	-49.154146	0.000365	3.649571	1.236508	-0.000146
1359	1.3512e+02	-14.1060	-49.263149	0.000274	2.737179	0.927381	-0.000110
1360	1.3522e+02	-14.1317	-49.360040	0.000243	2.433048	0.824339	-0.000097
1361	1.3532e+02	-14.1718	-49.477117	0.000294	2.939932	0.996076	-0.000118
1362	1.3542e+02	-14.2103	-49.549785	0.000182	1.824786	0.618254	-0.000073
1363	1.3552e+02	-14.2520	-49.691085	0.000355	3.548194	1.202161	-0.000142
1364	1.3562e+02	-14.2873	-49.816236	0.000314	3.142686	1.064771	-0.000126
1365	1.3572e+02	-14.3386	-49.921202	0.000264	2.635802	0.893034	-0.000105
1366	1.3582e+02	-14.3755	-50.086725	0.000416	4.156456	1.408246	-0.000166
1367	1.3592e+02	-14.4076	-50.171504	0.000213	2.128917	0.721296	-0.000085
1368	1.3602e+02	-14.4541	-50.284544	0.000284	2.838555	0.961729	-0.000114
1369	1.3612e+02	-14.4894	-50.401621	0.000294	2.939932	0.996076	-0.000118
1370	1.3622e+02	-14.5456	-50.534847	0.000335	3.345440	1.133466	-0.000134
1371	1.3631e+02	-14.5745	-50.627701	0.000233	2.331671	0.789991	-0.000093
1372	1.3641e+02	-14.6210	-50.744778	0.000294	2.939932	0.996076	-0.000118
1373	1.3651e+02	-14.6595	-50.861855	0.000294	2.939932	0.996076	-0.000118
1374	1.3661e+02	-14.6948	-50.978932	0.000294	2.939932	0.996076	-0.000118
1375	1.3671e+02	-14.7317	-51.071786	0.000233	2.331671	0.789991	-0.000093
1376	1.3681e+02	-14.7718	-51.237308	0.000416	4.156456	1.408246	-0.000166
1377	1.3691e+02	-14.8135	-51.334199	0.000243	2.433048	0.824339	-0.000097
1378	1.3701e+02	-14.8520	-51.435128	0.000253	2.534425	0.858686	-0.000101
1379	1.3711e+02	-14.8905	-51.564316	0.000324	3.244063	1.099118	-0.000130
1380	1.3721e+02	-14.9290	-51.653133	0.000223	2.230294	0.755644	-0.000089
1381	1.3731e+02	-14.9643	-51.798470	0.000365	3.649571	1.236508	-0.000146
1382	1.3741e+02	-15.0140	-51.927658	0.000324	3.244063	1.099118	-0.000130
1383	1.3751e+02	-15.0541	-52.016475	0.000223	2.230294	0.755644	-0.000089
1384	1.3761e+02	-15.0942	-52.133552	0.000294	2.939932	0.996076	-0.000118
1385	1.3771e+02	-15.1391	-52.295038	0.000406	4.055079	1.373898	-0.000162
1386	1.3781e+02	-15.1760	-52.355595	0.000152	1.520655	0.515212	-0.000061
1387	1.3791e+02	-15.2145	-52.525155	0.000426	4.257833	1.442593	-0.000170
1388	1.3801e+02	-15.2482	-52.638194	0.000284	2.838555	0.961729	-0.000114
1389	1.3811e+02	-15.3060	-52.731048	0.000233	2.331671	0.789991	-0.000093
1390	1.3821e+02	-15.3333	-52.884460	0.000385	3.852325	1.305203	-0.000154
1391	1.3831e+02	-15.3734	-52.912720	0.000071	0.709639	0.240432	-0.000028
1392	1.3840e+02	-15.4135	-53.110539	0.000497	4.967472	1.683025	-0.000199
1393	1.3850e+02	-15.4504	-53.203393	0.000233	2.331671	0.789991	-0.000093
1394	1.3860e+02	-15.4889	-53.304322	0.000253	2.534425	0.858686	-0.000101
1395	1.3870e+02	-15.5306	-53.449659	0.000365	3.649571	1.236508	-0.000146
1396	1.3880e+02	-15.5643	-53.546550	0.000243	2.433048	0.824339	-0.000097
1397	1.3890e+02	-15.6124	-53.651515	0.000264	2.635802	0.893034	-0.000105
1398	1.3900e+02	-15.6477	-53.776667	0.000314	3.142686	1.064771	-0.000126
1399	1.3910e+02	-15.6862	-53.901818	0.000314	3.142686	1.064771	-0.000126
1400	1.3920e+02	-15.7231	-54.039080	0.000345	3.446817	1.167813	-0.000138
1401	1.3930e+02	-15.7712	-54.127897	0.000223	2.230294	0.755644	-0.000089
1402	1.3940e+02	-15.8129	-54.228826	0.000253	2.534425	0.858686	-0.000101
1403	1.3950e+02	-15.8450	-54.374163	0.000365	3.649571	1.236508	-0.000146
1404	1.3960e+02	-15.8947	-54.462980	0.000223	2.230294	0.755644	-0.000089
1405	1.3970e+02	-15.9300	-54.604279	0.000355	3.548194	1.202161	-0.000142
1406	1.3980e+02	-15.9717	-54.697134	0.000233	2.331671	0.789991	-0.000093
1407	1.3990e+02	-16.0006	-54.834396	0.000345	3.446817	1.167813	-0.000138
1408	1.4000e+02	-16.0520	-54.931287	0.000243	2.433048	0.824339	-0.000097
1409	1.4010e+02	-16.0905	-55.072587	0.000355	3.548194	1.202161	-0.000142
1410	1.4020e+02	-16.1290	-55.169478	0.000243	2.433048	0.824339	-0.000097
1411	1.4029e+02	-16.1659	-55.282518	0.000284	2.838555	0.961729	-0.000114
1412	1.4039e+02	-16.2060	-55.419781	0.000345	3.446817	1.167813	-0.000138
1413	1.4049e+02	-16.2445	-55.536858	0.000294	2.939932	0.996076	-0.000118
1414	1.4059e+02	-16.2733	-55.678158	0.000355	3.548194	1.202161	-0.000142
1415	1.4069e+02	-16.3295	-55.742752	0.000162	1.622032	0.549559	-0.000065
1416	1.4079e+02	-16.3696	-55.896163	0.000385	3.852325	1.305203	-0.000154
1417	1.4089e+02	-16.4161	-56.001128	0.000264	2.635802	0.893034	-0.000105
1418	1.4099e+02	-16.4546	-56.146465	0.000365	3.649571	1.236508	-0.000146
1419	1.4109e+02	-16.4899	-56.223171	0.000193	1.926163	0.652602	-0.000077
1420	1.4119e+02	-16.5284	-56.388693	0.000416	4.156456	1.408246	-0.000166
1421	1.4129e+02	-16.5589	-56.493659	0.000264	2.635802	0.893034	-0.000105
1422	1.4139e+02	-16.6022	-56.659182	0.000416	4.156456	1.408246	-0.000166
1423	1.4149e+02	-16.6439	-56.756073	0.000243	2.433048	0.824339	-0.000097
1424	1.4159e+02	-16.6936	-56.901410	0.000365	3.649571	1.236508	-0.000146
1425	1.4169e+02	-16.7289	-56.949855	0.000122	1.216524	0.412169	-0.000049
1426	1.4179e+02	-16.7658	-57.091155	0.000355	3.548194	1.202161	-0.000142
1427	1.4189e+02	-16.8011	-57.204195	0.000284	2.838555	0.961729	-0.000114
1428	1.4199e+02	-16.8525	-57.333383	0.000324	3.244063	1.099118	-0.000130
1429	1.4209e+02	-16.8910	-57.434312	0.000253	2.534425	0.858686	-0.000101
1430	1.4219e+02	-16.9327	-57.583686	0.000375	3.750948	1.270856	-0.000150
1431	1.4228e+02	-16.9616	-57.660391	0.000193	1.926163	0.652602	-0.000077
1432	1.4238e+02	-17.0097	-57.838025	0.000446	4.460587	1.511288	-0.000179
1433	1.4248e+02	-17.0450	-57.975288	0.000345	3.446817	1.167813	-0.000138
1434	1.4258e+02	-17.0835	-58.088328	0.000284	2.838555	0.961729	-0.000114
1435	1.4268e+02	-17.1300	-58.193293	0.000264	2.635802	0.893034	-0.000105
1436	1.4278e+02	-17.1669	-58.334593	0.000355	3.548194	1.202161	-0.000142
1437	1.4288e+02	-17.2054	-58.475893	0.000355	3.548194	1.202161	-0.000142
1438	1.4298e+02	-17.2375	-58.556635	0.000203	2.027540	0.686949	-0.000081
1439	1.4308e+02	-17.2920	-58.673712	0.000294	2.939932	0.996076	-0.000118
1440	1.4318e+02	-17.3225	-58.835198	0.000406	4.055079	1.373898	-0.000162
1441	1.4328e+02	-17.3642	-58.919978	0.000213	2.128917	0.721296	-0.000085
1442	1.4338e+02	-17.4043	-59.033017	0.000284	2.838555	0.961729	-0.000114
1443	1.4348e+02	-17.4364	-59.210651	0.000446	4.460587	1.511288	-0.000179
1444	1.4358e+02	-17.4877	-59.376174	0.000416	4.156456	1.408246	-0.000166
1445	1.4368e+02	-17.5246	-59.473065	0.000243	2.433048	0.824339	-0.000097
1446	1.4378e+02	-17.5615	-59.590142	0.000294	2.939932	0.996076	-0.000118
1447	1.4388e+02	-17.6016	-59.711256	0.000304	3.041309	1.030424	-0.000122
1448	1.4398e+02	-17.6546	-59.856593	0.000365	3.649571	1.236508	-0.000146
1449	1.4408e+02	-17.6786	-59.969633	0.000284	2.838555	0.961729	-0.000114
1450	1.4418e+02	-17.7236	-60.102858	0.000335	3.345440	1.133466	-0.000134
1451	1.4428e+02	-17.7637	-60.191675	0.000223	2.230294	0.755644	-0.000089
1452	1.4437e+02	-17.7942	-60.373346	0.000456	4.561964	1.545635	-0.000183
1453	1.4447e+02	-17.8423	-60.506572	0.000335	3.345440	1.133466	-0.000134
1454	1.4457e+02	-17.8760	-60.631723	0.000314	3.142686	1.064771	-0.000126
1455	1.4467e+02	-17.9241	-60.752837	0.000304	3.041309	1.030424	-0.000122
1456	1.4477e+02	-17.9610	-60.922397	0.000426	4.257833	1.442593	-0.000170
1457	1.4487e+02	-18.0027	-61.023325	0.000253	2.534425	0.858686	-0.000101
1458	1.4497e+02	-18.0348	-61.136365	0.000284	2.838555	0.961729	-0.000114
1459	1.4507e+02	-18.0861	-61.293813	0.000395	3.953702	1.339551	-0.000158
1460	1.4517e+02	-18.1166	-61.390705	0.000243	2.433048	0.824339	-0.000097
1461	1.4527e+02	-18.1679	-61.507782	0.000294	2.939932	0.996076	-0.000118
1462	1.4537e+02	-18.2000	-61.693490	0.000466	4.663341	1.579983	-0.000187
1463	1.4547e+02	-18.2514	-61.794418	0.000253	2.534425	0.858686	-0.000101
1464	1.4557e+02	-18.2899	-61.939755	0.000365	3.649571	1.236508	-0.000146
1465	1.4567e+02	-18.3235	-62.105278	0.000416	4.156456	1.408246	-0.000166
1466	1.4577e+02	-18.3572	-62.218317	0.000284	2.838555	0.961729	-0.000114
1467	1.4587e+02	-18.3973	-62.387877	0.000426	4.257833	1.442593	-0.000170
1468	1.4597e+02	-18.4358	-62.488806	0.000253	2.534425	0.858686	-0.000101
1469	1.4607e+02	-18.4840	-62.646254	0.000395	3.953702	1.339551	-0.000158
1470	1.4617e+02	-18.5161	-62.771405	0.000314	3.142686	1.064771	-0.000126
1471	1.4626e+02	-18.5530	-62.900593	0.000324	3.244063	1.099118	-0.000130
1472	1.4636e+02	-18.5979	-63.017670	0.000294	2.939932	0.996076	-0.000118
1473	1.4646e+02	-18.6492	-63.179156	0.000406	4.055079	1.373898	-0.000162
1474	1.4656e+02	-18.6797	-63.312381	0.000335	3.345440	1.133466	-0.000134
1475	1.4666e+02	-18.7086	-63.494052	0.000456	4.561964	1.545635	-0.000183
1476	1.4676e+02	-18.7599	-63.615166	0.000304	3.041309	1.030424	-0.000122
1477	1.4686e+02	-18.8000	-63.768578	0.000385	3.852325	1.305203	-0.000154
1478	1.4696e+02	-18.8401	-63.913914	0.000365	3.649571	1.236508	-0.000146
1479	1.4706e+02	-18.8642	-64.055214	0.000355	3.548194	1.202161	-0.000142
1480	1.4716e+02	-18.9123	-64.208625	0.000385	3.852325	1.305203	-0.000154
1481	1.4726e+02	-18.9588	-64.329739	0.000304	3.041309	1.030424	-0.000122
1482	1.4736e+02	-18.9989	-64.454891	0.000314	3.142686	1.064771	-0.000126
1483	1.4746e+02	-19.0310	-64.624450	0.000426	4.257833	1.442593	-0.000170
1484	1.4756e+02	-19.0727	-64.810159	0.000466	4.663341	1.579983	-0.000187
1485	1.4766e+02	-19.1112	-64.923198	0.000284	2.838555	0.961729	-0.000114
1486	1.4776e+02	-19.1594	-65.076610	0.000385	3.852325	1.305203	-0.000154
1487	1.4786e+02	-19.1979	-65.225984	0.000375	3.750948	1.270856	-0.000150
1488	1.4796e+02	-19.2348	-65.355172	0.000324	3.244063	1.099118	-0.000130
1489	1.4806e+02	-19.2604	-65.552992	0.000497	4.967472	1.683025	-0.000199
1490	1.4816e+02	-19.3166	-65.718514	0.000416	4.156456	1.408246	-0.000166
1491	1.4825e+02	-19.3503	-65.843665	0.000314	3.142686	1.064771	-0.000126
1492	1.4835e+02	-19.3920	-66.025336	0.000456	4.561964	1.545635	-0.000183
1493	1.4845e+02	-19.4321	-66.174710	0.000375	3.750948	1.270856	-0.000150
1494	1.4855e+02	-19.4706	-66.271602	0.000243	2.433048	0.824339	-0.000097
1495	1.4865e+02	-19.5155	-66.501718	0.000578	5.778488	1.957805	-0.000231
1496	1.4875e+02	-19.5508	-66.586498	0.000213	2.128917	0.721296	-0.000085
1497	1.4885e+02	-19.6053	-66.800466	0.000537	5.372980	1.820415	-0.000215
1498	1.4895e+02	-19.6358	-66.974063	0.000436	4.359210	1.476940	-0.000174
1499	1.4905e+02	-19.6743	-67.111326	0.000345	3.446817	1.167813	-0.000138
1500	1.4915e+02	-19.7048	-67.321257	0.000527	5.271603	1.786067	-0.000211
1501	1.4925e+02	-19.7529	-67.438334	0.000294	2.939932	0.996076	-0.000118
1502	1.4935e+02	-19.8043	-67.595782	0.000395	3.953702	1.339551	-0.000158
1503	1.4945e+02	-19.8444	-67.846085	0.000629	6.285373	2.129542	-0.000252
1504	1.4955e+02	-19.8748	-67.955087	0.000274	2.737179	0.927381	-0.000110
1505	1.4965e+02	-19.9166	-68.116573	0.000406	4.055079	1.373898	-0.000162
1506	1.4975e+02	-19.9502	-68.274021	0.000395	3.953702	1.339551	-0.000158
1507	1.4985e+02	-19.9903	-68.487989	0.000537	5.372980	1.820415	-0.000215
1508	1.4995e+02	-19.9438	-68.455692	0.000081	0.811016	0.274780	0.000032
1509	1.5005e+02	-19.9117	-68.487989	-0.000081	-0.811016	-0.274780	-0.000032
1510	1.5015e+02	-19.8732	-68.427432	0.000152	1.520655	0.515212	0.000061
1511	1.5025e+02	-19.8315	-68.407247	0.000051	0.506885	0.171737	0.000020
1512	1.5034e+02	-19.7882	-68.370912	0.000091	0.912393	0.309127	0.000037
1513	1.5044e+02	-19.7577	-68.354764	0.000041	0.405508	0.137390	0.000016
1514	1.5054e+02	-19.7112	-68.298244	0.000142	1.419278	0.480864	0.000057
1515	1.5064e+02	-19.6631	-68.274021	0.000061	0.608262	0.206085	0.000024
1516	1.5074e+02	-19.6294	-68.213464	0.000152	1.520655	0.515212	0.000061
1517	1.5084e+02	-19.5941	-68.173093	0.000101	1.013770	0.343475	0.000041
1518	1.5094e+02	-19.5604	-68.160981	0.000030	0.304131	0.103042	0.000012
1519	1.5104e+02	-19.5203	-68.104461	0.000142	1.419278	0.480864	0.000057
1520	1.5114e+02	-19.4738	-68.019681	0.000213	2.128917	0.721296	0.000085
1521	1.5124e+02	-19.4353	-67.983347	0.000091	0.912393	0.309127	0.000037
1522	1.5134e+02	-19.3968	-67.906642	0.000193	1.926163	0.652602	0.000077
1523	1.5144e+02	-19.3551	-67.870307	0.000091	0.912393	0.309127	0.000037
1524	1.5154e+02	-19.3069	-67.805713	0.000162	1.622032	0.549559	0.000065
1525	1.5164e+02	-19.2733	-67.761305	0.000112	1.115147	0.377822	0.000045
1526	1.5174e+02	-19.2364	-67.700748	0.000152	1.520655	0.515212	0.000061
1527	1.5184e+02	-19.1914	-67.648265	0.000132	1.317901	0.446517	0.000053
1528	1.5194e+02	-19.1642	-67.571559	0.000193	1.926163	0.652602	0.000077
1529	1.5204e+02	-19.1064	-67.486780	0.000213	2.128917	0.721296	0.000085
1530	1.5214e+02	-19.0807	-67.442371	0.000112	1.115147	0.377822	0.000045
1531	1.5224e+02	-19.0422	-67.349517	0.000233	2.331671	0.789991	0.000093
1532	1.5233e+02	-19.0102	-67.264737	0.000213	2.128917	0.721296	0.000085
1533	1.5243e+02	-18.9572	-67.200143	0.000162	1.622032	0.549559	0.000065
1534	1.5253e+02	-18.9267	-67.135549	0.000162	1.622032	0.549559	0.000065
1535	1.5263e+02	-18.8786	-67.095177	0.000101	1.013770	0.343475	0.000041
1536	1.5273e+02	-18.8369	-67.034620	0.000152	1.520655	0.515212	0.000061
1537	1.5283e+02	-18.7952	-66.901395	0.000335	3.345440	1.133466	0.000134
1538	1.5293e+02	-18.7615	-66.836801	0.000162	1.622032	0.549559	0.000065
1539	1.5303e+02	-18.7246	-66.723761	0.000284	2.838555	0.961729	0.000114
1540	1.5313e+02	-18.6765	-66.675315	0.000122	1.216524	0.412169	0.000049
1541	1.5323e+02	-18.6396	-66.562275	0.000284	2.838555	0.961729	0.000114
1542	1.5333e+02	-18.6027	-66.550164	0.000030	0.304131	0.103042	0.000012
1543	1.5343e+02	-18.5578	-66.449236	0.000253	2.534425	0.858686	0.000101
1544	1.5353e+02	-18.5177	-66.380604	0.000172	1.723409	0.583907	0.000069
1545	1.5363e+02	-18.4743	-66.303899	0.000193	1.926163	0.652602	0.000077
1546	1.5373e+02	-18.4455	-66.235267	0.000172	1.723409	0.583907	0.000069
1547	1.5383e+02	-18.4022	-66.134339	0.000253	2.534425	0.858686	0.000101
1548	1.5393e+02	-18.3588	-66.069745	0.000162	1.622032	0.549559	0.000065
1549	1.5403e+02	-18.3171	-65.997076	0.000182	1.824786	0.618254	0.000073
1550	1.5413e+02	-18.2818	-65.904222	0.000233	2.331671	0.789991	0.000093
1551	1.5422e+02	-18.2465	-65.807331	0.000243	2.433048	0.824339	0.000097
1552	1.5432e+02	-18.1984	-65.738700	0.000172	1.723409	0.583907	0.000069
1553	1.5442e+02	-18.1647	-65.637771	0.000253	2.534425	0.858686	0.000101
1554	1.5452e+02	-18.1166	-65.589326	0.000122	1.216524	0.412169	0.000049
1555	1.5462e+02	-18.0813	-65.500509	0.000223	2.230294	0.755644	0.000089
1556	1.5472e+02	-18.0380	-65.403618	0.000243	2.433048	0.824339	0.000097
1557	1.5482e+02	-17.9931	-65.298652	0.000264	2.635802	0.893034	0.000105
1558	1.5492e+02	-17.9690	-65.234058	0.000162	1.622032	0.549559	0.000065
1559	1.5502e+02	-17.9193	-65.141204	0.000233	2.331671	0.789991	0.000093
1560	1.5512e+02	-17.8792	-65.028164	0.000284	2.838555	0.961729	0.000114
1561	1.5522e+02	-17.8407	-64.935310	0.000233	2.331671	0.789991	0.000093
1562	1.5532e+02	-17.7958	-64.854567	0.000203	2.027540	0.686949	0.000081
1563	1.5542e+02	-17.7717	-64.794010	0.000152	1.520655	0.515212	0.000061
1564	1.5552e+02	-17.7284	-64.660785	0.000335	3.345440	1.133466	0.000134
1565	1.5562e+02	-17.6835	-64.604265	0.000142	1.419278	0.480864	0.000057
1566	1.5572e+02	-17.6482	-64.515448	0.000223	2.230294	0.755644	0.000089
1567	1.5582e+02	-17.6049	-64.406445	0.000274	2.737179	0.927381	0.000110
1568	1.5592e+02	-17.5615	-64.329739	0.000193	1.926163	0.652602	0.000077
1569	1.5602e+02	-17.5262	-64.236885	0.000233	2.331671	0.789991	0.000093
1570	1.5612e+02	-17.4845	-64.152105	0.000213	2.128917	0.721296	0.000085
1571	1.5622e+02	-17.4300	-64.055214	0.000243	2.433048	0.824339	0.000097
1572	1.5631e+02	-17.4107	-63.958323	0.000243	2.433048	0.824339	0.000097
1573	1.5641e+02	-17.3642	-63.857395	0.000253	2.534425	0.858686	0.000101
1574	1.5651e+02	-17.3353	-63.772615	0.000213	2.128917	0.721296	0.000085
1575	1.5661e+02	-17.2888	-63.703983	0.000172	1.723409	0.583907	0.000069
1576	1.5671e+02	-17.2423	-63.578832	0.000314	3.142686	1.064771	0.000126
1577	1.5681e+02	-17.2054	-63.473867	0.000264	2.635802	0.893034	0.000105
1578	1.5691e+02	-17.1653	-63.352753	0.000304	3.041309	1.030424	0.000122
1579	1.5701e+02	-17.1140	-63.304307	0.000122	1.216524	0.412169	0.000049
1580	1.5711e+02	-17.0819	-63.199341	0.000264	2.635802	0.893034	0.000105
1581	1.5721e+02	-17.0434	-63.102450	0.000243	2.433048	0.824339	0.000097
1582	1.5731e+02	-17.0017	-62.989410	0.000284	2.838555	0.961729	0.000114
1583	1.5741e+02	-16.9664	-62.912705	0.000193	1.926163	0.652602	0.000077
1584	1.5751e+02	-16.9327	-62.860222	0.000132	1.317901	0.446517	0.000053
1585	1.5761e+02	-16.8829	-62.763331	0.000243	2.433048	0.824339	0.000097
1586	1.5771e+02	-16.8525	-62.634142	0.000324	3.244063	1.099118	0.000130
1587	1.5781e+02	-16.8092	-62.541288	0.000233	2.331671	0.789991	0.000093
1588	1.5791e+02	-16.7690	-62.440360	0.000253	2.534425	0.858686	0.000101
1589	1.5801e+02	-16.7305	-62.343469	0.000243	2.433048	0.824339	0.000097
1590	1.5811e+02	-16.6888	-62.282912	0.000152	1.520655	0.515212	0.000061
1591	1.5821e+02	-16.6439	-62.145649	0.000345	3.446817	1.167813	0.000138
1592	1.5830e+02	-16.6070	-62.036646	0.000274	2.737179	0.927381	0.000110
1593	1.5840e+02	-16.5733	-61.988201	0.000122	1.216524	0.412169	0.000049
1594	1.5850e+02	-16.5284	-61.875161	0.000284	2.838555	0.961729	0.000114
1595	1.5860e+02	-16.4883	-61.794418	0.000203	2.027540	0.686949	0.000081
1596	1.5870e+02	-16.4482	-61.693490	0.000253	2.534425	0.858686	0.000101
1597	1.5880e+02	-16.4081	-61.564301	0.000324	3.244063	1.099118	0.000130
1598	1.5890e+02	-16.3728	-61.532004	0.000081	0.811016	0.274780	0.000032
1599	1.5900e+02	-16.3295	-61.378593	0.000385	3.852325	1.305203	0.000154
1600	1.5910e+02	-16.2974	-61.293813	0.000213	2.128917	0.721296	0.000085
1601	1.5920e+02	-16.2525	-61.253442	0.000101	1.013770	0.343475	0.000041
1602	1.5930e+02	-16.2060	-61.108105	0.000365	3.649571	1.236508	0.000146
1603	1.5940e+02	-16.1562	-61.043511	0.000162	1.622032	0.549559	0.000065
1604	1.5950e+02	-16.1290	-60.934508	0.000274	2.737179	0.927381	0.000110
1605	1.5960e+02	-16.0872	-60.861840	0.000182	1.824786	0.618254	0.000073
1606	1.5970e+02	-16.0407	-60.712466	0.000375	3.750948	1.270856	0.000150
1607	1.5980e+02	-16.0118	-60.659983	0.000132	1.317901	0.446517	0.000053
1608	1.5990e+02	-15.9750	-60.510609	0.000375	3.750948	1.270856	0.000150
1609	1.6000e+02	-15.9364	-60.437941	0.000182	1.824786	0.618254	0.000073
1610	1.6010e+02	-15.9012	-60.361235	0.000193	1.926163	0.652602	0.000077
1611	1.6019e+02	-15.8530	-60.276455	0.000213	2.128917	0.721296	0.000085
1612	1.6029e+02	-15.8049	-60.171490	0.000264	2.635802	0.893034	0.000105
1613	1.6039e+02	-15.7712	-60.050376	0.000304	3.041309	1.030424	0.000122
1614	1.6049e+02	-15.7279	-59.973670	0.000193	1.926163	0.652602	0.000077
1615	1.6059e+02	-15.6878	-59.860630	0.000284	2.838555	0.961729	0.000114
1616	1.6069e+02	-15.6493	-59.755665	0.000264	2.635802	0.893034	0.000105
1617	1.6079e+02	-15.6044	-59.703182	0.000132	1.317901	0.446517	0.000053
1618	1.6089e+02	-15.5643	-59.582068	0.000304	3.041309	1.030424	0.000122
1619	1.6099e+02	-15.5386	-59.525548	0.000142	1.419278	0.480864	0.000057
1620	1.6109e+02	-15.4937	-59.404434	0.000304	3.041309	1.030424	0.000122
1621	1.6119e+02	-15.4520	-59.311580	0.000233	2.331671	0.789991	0.000093
1622	1.6129e+02	-15.4087	-59.190466	0.000304	3.041309	1.030424	0.000122
1623	1.6139e+02	-15.3669	-59.142020	0.000122	1.216524	0.412169	0.000049
1624	1.6149e+02	-15.3333	-59.004757	0.000345	3.446817	1.167813	0.000138
1625	1.6159e+02	-15.2964	-58.891718	0.000284	2.838555	0.961729	0.000114
1626	1.6169e+02	-15.2514	-58.810975	0.000203	2.027540	0.686949	0.000081
1627	1.6179e+02	-15.2113	-58.697935	0.000284	2.838555	0.961729	0.000114
1628	1.6189e+02	-15.1696	-58.568747	0.000324	3.244063	1.099118	0.000130
1629	1.6199e+02	-15.1343	-58.512227	0.000142	1.419278	0.480864	0.000057
1630	1.6209e+02	-15.0974	-58.407261	0.000264	2.635802	0.893034	0.000105
1631	1.6219e+02	-15.0557	-58.290184	0.000294	2.939932	0.996076	0.000118
1632	1.6228e+02	-15.0108	-58.185219	0.000264	2.635802	0.893034	0.000105
1633	1.6238e+02	-14.9675	-58.072179	0.000284	2.838555	0.961729	0.000114
1634	1.6248e+02	-14.9274	-57.995473	0.000193	1.926163	0.652602	0.000077
1635	1.6258e+02	-14.8969	-57.862248	0.000335	3.345440	1.133466	0.000134
1636	1.6268e+02	-14.8504	-57.801691	0.000152	1.520655	0.515212	0.000061
1637	1.6278e+02	-14.8103	-57.684614	0.000294	2.939932	0.996076	0.000118
1638	1.6288e+02	-14.7750	-57.571574	0.000284	2.838555	0.961729	0.000114
1639	1.6298e+02	-14.7349	-57.466609	0.000264	2.635802	0.893034	0.000105
1640	1.6308e+02	-14.6948	-57.389903	0.000193	1.926163	0.652602	0.000077
1641	1.6318e+02	-14.6482	-57.240529	0.000375	3.750948	1.270856	0.000150
1642	1.6328e+02	-14.6178	-57.175935	0.000162	1.622032	0.549559	0.000065
1643	1.6338e+02	-14.5745	-57.083081	0.000233	2.331671	0.789991	0.000093
1644	1.6348e+02	-14.5327	-56.966004	0.000294	2.939932	0.996076	0.000118
1645	1.6358e+02	-14.4991	-56.865075	0.000253	2.534425	0.858686	0.000101
1646	1.6368e+02	-14.4509	-56.760110	0.000264	2.635802	0.893034	0.000105
1647	1.6378e+02	-14.4172	-56.679367	0.000203	2.027540	0.686949	0.000081
1648	1.6388e+02	-14.3819	-56.542105	0.000345	3.446817	1.167813	0.000138
1649	1.6398e+02	-14.3354	-56.457325	0.000213	2.128917	0.721296	0.000085
1650	1.6408e+02	-14.3033	-56.348322	0.000274	2.737179	0.927381	0.000110
1651	1.6418e+02	-14.2504	-56.259505	0.000223	2.230294	0.755644	0.000089
1652	1.6427e+02	-14.2103	-56.174725	0.000213	2.128917	0.721296	0.000085
1653	1.6437e+02	-14.1734	-56.057648	0.000294	2.939932	0.996076	0.000118
1654	1.6447e+02	-14.1429	-55.960757	0.000243	2.433048	0.824339	0.000097
1655	1.6457e+02	-14.0884	-55.871940	0.000223	2.230294	0.755644	0.000089
1656	1.6467e+02	-14.0499	-55.706417	0.000416	4.156456	1.408246	0.000166
1657	1.6477e+02	-14.0226	-55.613563	0.000233	2.331671	0.789991	0.000093
1658	1.6487e+02	-13.9825	-55.484375	0.000324	3.244063	1.099118	0.000130
1659	1.6497e+02	-13.9392	-55.411707	0.000182	1.824786	0.618254	0.000073
1660	1.6507e+02	-13.8862	-55.302704	0.000274	2.737179	0.927381	0.000110
1661	1.6517e+02	-13.8542	-55.221961	0.000203	2.027540	0.686949	0.000081
1662	1.6527e+02	-13.8092	-55.096810	0.000314	3.142686	1.064771	0.000126
1663	1.6537e+02	-13.7820	-55.007993	0.000223	2.230294	0.755644	0.000089
1664	1.6547e+02	-13.7386	-54.878805	0.000324	3.244063	1.099118	0.000130
1665	1.6557e+02	-13.6889	-54.810173	0.000172	1.723409	0.583907	0.000069
1666	1.6567e+02	-13.6600	-54.664836	0.000365	3.649571	1.236508	0.000146
1667	1.6577e+02	-13.6231	-54.551797	0.000284	2.838555	0.961729	0.000114
1668	1.6587e+02	-13.5750	-54.406460	0.000365	3.649571	1.236508	0.000146
1669	1.6597e+02	-13.5445	-54.325717	0.000203	2.027540	0.686949	0.000081
1670	1.6607e+02	-13.4948	-54.224789	0.000253	2.534425	0.858686	0.000101
1671	1.6616e+02	-13.4659	-54.152120	0.000182	1.824786	0.618254	0.000073
1672	1.6626e+02	-13.4274	-54.022932	0.000324	3.244063	1.099118	0.000130
1673	1.6636e+02	-13.3761	-53.905855	0.000294	2.939932	0.996076	0.000118
1674	1.6646e+02	-13.3376	-53.788778	0.000294	2.939932	0.996076	0.000118
1675	1.6656e+02	-13.2975	-53.728221	0.000152	1.520655	0.515212	0.000061
1676	1.6666e+02	-13.2574	-53.570773	0.000395	3.953702	1.339551	0.000158
1677	1.6676e+02	-13.2173	-53.453696	0.000294	2.939932	0.996076	0.000118
1678	1.6686e+02	-13.1788	-53.376990	0.000193	1.926163	0.652602	0.000077
1679	1.6696e+02	-13.1355	-53.235690	0.000355	3.548194	1.202161	0.000142
1680	1.6706e+02	-13.1018	-53.122651	0.000284	2.838555	0.961729	0.000114
1681	1.6716e+02	-13.0633	-53.037871	0.000213	2.128917	0.721296	0.000085
1682	1.6726e+02	-13.0183	-52.896571	0.000355	3.548194	1.202161	0.000142
1683	1.6736e+02	-12.9766	-52.787568	0.000274	2.737179	0.927381	0.000110
1684	1.6746e+02	-12.9413	-52.690677	0.000243	2.433048	0.824339	0.000097
1685	1.6756e+02	-12.8980	-52.605897	0.000213	2.128917	0.721296	0.000085
1686	1.6766e+02	-12.8563	-52.448449	0.000395	3.953702	1.339551	0.000158
1687	1.6776e+02	-12.8226	-52.335409	0.000284	2.838555	0.961729	0.000114
1688	1.6786e+02	-12.7873	-52.270815	0.000162	1.622032	0.549559	0.000065
1689	1.6796e+02	-12.7472	-52.129515	0.000355	3.548194	1.202161	0.000142
1690	1.6806e+02	-12.7135	-51.992253	0.000345	3.446817	1.167813	0.000138
1691	1.6816e+02	-12.6590	-51.899398	0.000233	2.331671	0.789991	0.000093
1692	1.6825e+02	-12.6301	-51.794433	0.000264	2.635802	0.893034	0.000105
1693	1.6835e+02	-12.5884	-51.665245	0.000324	3.244063	1.099118	0.000130
1694	1.6845e+02	-12.5419	-51.580465	0.000213	2.128917	0.721296	0.000085
1695	1.6855e+02	-12.5066	-51.423016	0.000395	3.953702	1.339551	0.000158
1696	1.6865e+02	-12.4585	-51.322088	0.000253	2.534425	0.858686	0.000101
1697	1.6875e+02	-12.4216	-51.217123	0.000264	2.635802	0.893034	0.000105
1698	1.6885e+02	-12.3815	-51.120231	0.000243	2.433048	0.824339	0.000097
1699	1.6895e+02	-12.3494	-50.938560	0.000456	4.561964	1.545635	0.000183
1700	1.6905e+02	-12.2997	-50.878003	0.000152	1.520655	0.515212	0.000061
1701	1.6915e+02	-12.2644	-50.764963	0.000284	2.838555	0.961729	0.000114
1702	1.6925e+02	-12.2275	-50.619626	0.000365	3.649571	1.236508	0.000146
1703	1.6935e+02	-12.1890	-50.538884	0.000203	2.027540	0.686949	0.000081
1704	1.6945e+02	-12.1489	-50.397584	0.000355	3.548194	1.202161	0.000142
1705	1.6955e+02	-12.1039	-50.276470	0.000304	3.041309	1.030424	0.000122
1706	1.6965e+02	-12.0686	-50.159393	0.000294	2.939932	0.996076	0.000118
1707	1.6975e+02	-12.0285	-50.030205	0.000324	3.244063	1.099118	0.000130
1708	1.6985e+02	-11.9932	-49.917165	0.000284	2.838555	0.961729	0.000114
1709	1.6995e+02	-11.9419	-49.824311	0.000233	2.331671	0.789991	0.000093
1710	1.7005e+02	-11.9034	-49.691085	0.000335	3.345440	1.133466	0.000134
1711	1.7015e+02	-11.8697	-49.565934	0.000314	3.142686	1.064771	0.000126
1712	1.7024e+02	-11.8248	-49.469043	0.000243	2.433048	0.824339	0.000097
1713	1.7034e+02	-11.7879	-49.372152	0.000243	2.433048	0.824339	0.000097
1714	1.7044e+02	-11.7494	-49.251037	0.000304	3.041309	1.030424	0.000122
1715	1.7054e+02	-11.7045	-49.121849	0.000324	3.244063	1.099118	0.000130
1716	1.7064e+02	-11.6596	-49.012846	0.000274	2.737179	0.927381	0.000110
1717	1.7074e+02	-11.6323	-48.883658	0.000324	3.244063	1.099118	0.000130
1718	1.7084e+02	-11.5777	-48.786767	0.000243	2.433048	0.824339	0.000097
1719	1.7094e+02	-11.5553	-48.657578	0.000324	3.244063	1.099118	0.000130
1720	1.7104e+02	-11.5072	-48.528390	0.000324	3.244063	1.099118	0.000130
1721	1.7114e+02	-11.4638	-48.455722	0.000182	1.824786	0.618254	0.000073
1722	1.7124e+02	-11.4237	-48.326533	0.000324	3.244063	1.099118	0.000130
1723	1.7134e+02	-11.3933	-48.205419	0.000304	3.041309	1.030424	0.000122
1724	1.7144e+02	-11.3532	-48.092379	0.000284	2.838555	0.961729	0.000114
1725	1.7154e+02	-11.3066	-48.007600	0.000213	2.128917	0.721296	0.000085
1726	1.7164e+02	-11.2633	-47.858226	0.000375	3.750948	1.270856	0.000150
1727	1.7174e+02	-11.2344	-47.712889	0.000365	3.649571	1.236508	0.000146
1728	1.7184e+02	-11.1991	-47.615997	0.000243	2.433048	0.824339	0.000097
1729	1.7194e+02	-11.1526	-47.474698	0.000355	3.548194	1.202161	0.000142
1730	1.7204e+02	-11.1093	-47.373769	0.000253	2.534425	0.858686	0.000101
1731	1.7213e+02	-11.0660	-47.228432	0.000365	3.649571	1.236508	0.000146
1732	1.7223e+02	-11.0339	-47.127504	0.000253	2.534425	0.858686	0.000101
1733	1.7233e+02	-10.9970	-46.982167	0.000365	3.649571	1.236508	0.000146
1734	1.7243e+02	-10.9489	-46.901424	0.000203	2.027540	0.686949	0.000081
1735	1.7253e+02	-10.9088	-46.756088	0.000365	3.649571	1.236508	0.000146
1736	1.7263e+02	-10.8655	-46.602676	0.000385	3.852325	1.305203	0.000154
1737	1.7273e+02	-10.8270	-46.538082	0.000162	1.622032	0.549559	0.000065
1738	1.7283e+02	-10.7885	-46.421005	0.000294	2.939932	0.996076	0.000118
1739	1.7293e+02	-10.7532	-46.283743	0.000345	3.446817	1.167813	0.000138
1740	1.7303e+02	-10.7018	-46.174740	0.000274	2.737179	0.927381	0.000110
1741	1.7313e+02	-10.6601	-46.033440	0.000355	3.548194	1.202161	0.000142
1742	1.7323e+02	-10.6232	-45.928475	0.000264	2.635802	0.893034	0.000105
1743	1.7333e+02	-10.5879	-45.795249	0.000335	3.345440	1.133466	0.000134
1744	1.7343e+02	-10.5478	-45.686247	0.000274	2.737179	0.927381	0.000110
1745	1.7353e+02	-10.5141	-45.561095	0.000314	3.142686	1.064771	0.000126
1746	1.7363e+02	-10.4805	-45.435944	0.000314	3.142686	1.064771	0.000126
1747	1.7373e+02	-10.4275	-45.318867	0.000294	2.939932	0.996076	0.000118
1748	1.7383e+02	-10.3890	-45.189679	0.000324	3.244063	1.099118	0.000130
1749	1.7393e+02	-10.3553	-45.096825	0.000233	2.331671	0.789991	0.000093
1750	1.7403e+02	-10.3120	-44.987822	0.000274	2.737179	0.927381	0.000110
1751	1.7413e+02	-10.2703	-44.894968	0.000233	2.331671	0.789991	0.000093
1752	1.7422e+02	-10.2254	-44.769817	0.000314	3.142686	1.064771	0.000126
1753	1.7432e+02	-10.1869	-44.604294	0.000416	4.156456	1.408246	0.000166
1754	1.7442e+02	-10.1564	-44.515477	0.000223	2.230294	0.755644	0.000089
1755	1.7452e+02	-10.1067	-44.374177	0.000355	3.548194	1.202161	0.000142
1756	1.7462e+02	-10.0650	-44.289398	0.000213	2.128917	0.721296	0.000085
1757	1.7472e+02	-10.0297	-44.172321	0.000294	2.939932	0.996076	0.000118
1758	1.7482e+02	-9.9847	-44.026984	0.000365	3.649571	1.236508	0.000146
1759	1.7492e+02	-9.9559	-43.913944	0.000284	2.838555	0.961729	0.000114
1760	1.7502e+02	-9.9222	-43.821090	0.000233	2.331671	0.789991	0.000093
1761	1.7512e+02	-9.8821	-43.667679	0.000385	3.852325	1.305203	0.000154
1762	1.7522e+02	-9.8323	-43.530416	0.000345	3.446817	1.167813	0.000138
1763	1.7532e+02	-9.7970	-43.393153	0.000345	3.446817	1.167813	0.000138
1764	1.7542e+02	-9.7569	-43.312411	0.000203	2.027540	0.686949	0.000081
1765	1.7552e+02	-9.7104	-43.183222	0.000324	3.244063	1.099118	0.000130
1766	1.7562e+02	-9.6703	-43.070183	0.000284	2.838555	0.961729	0.000114
1767	1.7572e+02	-9.6366	-42.957143	0.000284	2.838555	0.961729	0.000114
1768	1.7582e+02	-9.5901	-42.803732	0.000385	3.852325	1.305203	0.000154
1769	1.7592e+02	-9.5452	-42.706840	0.000243	2.433048	0.824339	0.000097
1770	1.7602e+02	-9.5131	-42.589763	0.000294	2.939932	0.996076	0.000118
1771	1.7612e+02	-9.4778	-42.500946	0.000223	2.230294	0.755644	0.000089
1772	1.7621e+02	-9.4361	-42.347535	0.000385	3.852325	1.305203	0.000154
1773	1.7631e+02	-9.4008	-42.254681	0.000233	2.331671	0.789991	0.000093
1774	1.7641e+02	-9.3527	-42.121456	0.000335	3.345440	1.133466	0.000134
1775	1.7651e+02	-9.3174	-42.028602	0.000233	2.331671	0.789991	0.000093
1776	1.7661e+02	-9.2837	-41.855005	0.000436	4.359210	1.476940	0.000174
1777	1.7671e+02	-9.2340	-41.798485	0.000142	1.419278	0.480864	0.000057
1778	1.7681e+02	-9.1906	-41.641037	0.000395	3.953702	1.339551	0.000158
1779	1.7691e+02	-9.1650	-41.527997	0.000284	2.838555	0.961729	0.000114
1780	1.7701e+02	-9.1233	-41.427068	0.000253	2.534425	0.858686	0.000101
1781	1.7711e+02	-9.0687	-41.326140	0.000253	2.534425	0.858686	0.000101
1782	1.7721e+02	-9.0318	-41.152543	0.000436	4.359210	1.476940	0.000174
1783	1.7731e+02	-9.0014	-41.035466	0.000294	2.939932	0.996076	0.000118
1784	1.7741e+02	-8.9500	-40.934538	0.000253	2.534425	0.858686	0.000101
1785	1.7751e+02	-8.9195	-40.833609	0.000253	2.534425	0.858686	0.000101
1786	1.7761e+02	-8.8858	-40.724607	0.000274	2.737179	0.927381	0.000110
1787	1.7771e+02	-8.8313	-40.587344	0.000345	3.446817	1.167813	0.000138
1788	1.7781e+02	-8.7976	-40.409710	0.000446	4.460587	1.511288	0.000179
1789	1.7791e+02	-8.7559	-40.328967	0.000203	2.027540	0.686949	0.000081
1790	1.7801e+02	-8.7206	-40.183631	0.000365	3.649571	1.236508	0.000146
1791	1.7810e+02	-8.6773	-40.082702	0.000253	2.534425	0.858686	0.000101
1792	1.7820e+02	-8.6356	-39.957551	0.000314	3.142686	1.064771	0.000126
1793	1.7830e+02	-8.5987	-39.832400	0.000314	3.142686	1.064771	0.000126
1794	1.7840e+02	-8.5618	-39.707249	0.000314	3.142686	1.064771	0.000126
1795	1.7850e+02	-8.5153	-39.602283	0.000264	2.635802	0.893034	0.000105
1796	1.7860e+02	-8.4848	-39.452909	0.000375	3.750948	1.270856	0.000150
1797	1.7870e+02	-8.4335	-39.380241	0.000182	1.824786	0.618254	0.000073
1798	1.7880e+02	-8.4030	-39.198569	0.000456	4.561964	1.545635	0.000183
1799	1.7890e+02	-8.3661	-39.125901	0.000182	1.824786	0.618254	0.000073
1800	1.7900e+02	-8.3147	-39.000750	0.000314	3.142686	1.064771	0.000126
1801	1.7910e+02	-8.2907	-38.839264	0.000406	4.055079	1.373898	0.000162
1802	1.7920e+02	-8.2442	-38.697965	0.000355	3.548194	1.202161	0.000142
1803	1.7930e+02	-8.1992	-38.588962	0.000274	2.737179	0.927381	0.000110
1804	1.7940e+02	-8.1607	-38.455736	0.000335	3.345440	1.133466	0.000134
1805	1.7950e+02	-8.1142	-38.342697	0.000284	2.838555	0.961729	0.000114
1806	1.7960e+02	-8.0869	-38.209471	0.000335	3.345440	1.133466	0.000134
1807	1.7970e+02	-8.0340	-38.072209	0.000345	3.446817	1.167813	0.000138
1808	1.7980e+02	-8.0003	-37.983392	0.000223	2.230294	0.755644	0.000089
1809	1.7990e+02	-7.9634	-37.862278	0.000304	3.041309	1.030424	0.000122
1810	1.8000e+02	-7.9153	-37.700792	0.000406	4.055079	1.373898	0.000162
1811	1.8009e+02	-7.8832	-37.652346	0.000122	1.216524	0.412169	0.000049
1812	1.8019e+02	-7.8399	-37.494898	0.000395	3.953702	1.339551	0.000158
1813	1.8029e+02	-7.7982	-37.329376	0.000416	4.156456	1.408246	0.000166
1814	1.8039e+02	-7.7613	-37.240559	0.000223	2.230294	0.755644	0.000089
1815	1.8049e+02	-7.7180	-37.123482	0.000294	2.939932	0.996076	0.000118
1816	1.8059e+02	-7.6763	-36.982182	0.000355	3.548194	1.202161	0.000142
1817	1.8069e+02	-7.6313	-36.857031	0.000314	3.142686	1.064771	0.000126
1818	1.8079e+02	-7.5960	-36.731880	0.000314	3.142686	1.064771	0.000126
1819	1.8089e+02	-7.5656	-36.598654	0.000335	3.345440	1.133466	0.000134
1820	1.8099e+02	-7.5287	-36.457354	0.000355	3.548194	1.202161	0.000142
1821	1.8109e+02	-7.4854	-36.368537	0.000223	2.230294	0.755644	0.000089
1822	1.8119e+02	-7.4436	-36.219163	0.000375	3.750948	1.270856	0.000150
1823	1.8129e+02	-7.4132	-36.094012	0.000314	3.142686	1.064771	0.000126
1824	1.8139e+02	-7.3634	-35.985009	0.000274	2.737179	0.927381	0.000110
1825	1.8149e+02	-7.3233	-35.811413	0.000436	4.359210	1.476940	0.000174
1826	1.8159e+02	-7.2768	-35.730670	0.000203	2.027540	0.686949	0.000081
1827	1.8169e+02	-7.2463	-35.597444	0.000335	3.345440	1.133466	0.000134
1828	1.8179e+02	-7.2078	-35.456145	0.000355	3.548194	1.202161	0.000142
1829	1.8189e+02	-7.1725	-35.351179	0.000264	2.635802	0.893034	0.000105
1830	1.8199e+02	-7.1308	-35.209879	0.000355	3.548194	1.202161	0.000142
1831	1.8209e+02	-7.0843	-35.072617	0.000345	3.446817	1.167813	0.000138
1832	1.8218e+02	-7.0522	-34.963614	0.000274	2.737179	0.927381	0.000110
1833	1.8228e+02	-6.9945	-34.785980	0.000446	4.460587	1.511288	0.000179
1834	1.8238e+02	-6.9624	-34.689089	0.000243	2.433048	0.824339	0.000097
1835	1.8248e+02	-6.9319	-34.551826	0.000345	3.446817	1.167813	0.000138
1836	1.8258e+02	-6.8806	-34.426675	0.000314	3.142686	1.064771	0.000126
1837	1.8268e+02	-6.8372	-34.325747	0.000253	2.534425	0.858686	0.000101
1838	1.8278e+02	-6.8052	-34.172335	0.000385	3.852325	1.305203	0.000154
1839	1.8288e+02	-6.7650	-34.031036	0.000355	3.548194	1.202161	0.000142
1840	1.8298e+02	-6.7265	-33.917996	0.000284	2.838555	0.961729	0.000114
1841	1.8308e+02	-6.6929	-33.748436	0.000426	4.257833	1.442593	0.000170
1842	1.8318e+02	-6.6447	-33.631359	0.000294	2.939932	0.996076	0.000118
1843	1.8328e+02	-6.6175	-33.518319	0.000284	2.838555	0.961729	0.000114
1844	1.8338e+02	-6.5693	-33.324537	0.000487	4.866095	1.648678	0.000195
1845	1.8348e+02	-6.5228	-33.227646	0.000243	2.433048	0.824339	0.000097
1846	1.8358e+02	-6.4747	-33.086346	0.000355	3.548194	1.202161	0.000142
1847	1.8368e+02	-6.4378	-32.981380	0.000264	2.635802	0.893034	0.000105
1848	1.8378e+02	-6.4057	-32.856229	0.000314	3.142686	1.064771	0.000126
1849	1.8388e+02	-6.3672	-32.690707	0.000416	4.156456	1.408246	0.000166
1850	1.8398e+02	-6.3335	-32.577667	0.000284	2.838555	0.961729	0.000114
1851	1.8407e+02	-6.2854	-32.436367	0.000355	3.548194	1.202161	0.000142
1852	1.8417e+02	-6.2469	-32.311216	0.000314	3.142686	1.064771	0.000126
1853	1.8427e+02	-6.2084	-32.165879	0.000365	3.649571	1.236508	0.000146
1854	1.8437e+02	-6.1747	-32.064951	0.000253	2.534425	0.858686	0.000101
1855	1.8447e+02	-6.1218	-31.883279	0.000456	4.561964	1.545635	0.000183
1856	1.8457e+02	-6.0897	-31.814648	0.000172	1.723409	0.583907	0.000069
1857	1.8467e+02	-6.0528	-31.669311	0.000365	3.649571	1.236508	0.000146
1858	1.8477e+02	-6.0079	-31.519937	0.000375	3.750948	1.270856	0.000150
1859	1.8487e+02	-5.9742	-31.314043	0.000517	5.170226	1.751720	0.000207
1860	1.8497e+02	-5.9308	-31.229264	0.000213	2.128917	0.721296	0.000085
1861	1.8507e+02	-5.8923	-31.120261	0.000274	2.737179	0.927381	0.000110
1862	1.8517e+02	-5.8571	-30.954738	0.000416	4.156456	1.408246	0.000166
1863	1.8527e+02	-5.8153	-30.801327	0.000385	3.852325	1.305203	0.000154
1864	1.8537e+02	-5.7752	-30.676176	0.000314	3.142686	1.064771	0.000126
1865	1.8547e+02	-5.7351	-30.542950	0.000335	3.345440	1.133466	0.000134
1866	1.8557e+02	-5.6918	-30.421836	0.000304	3.041309	1.030424	0.000122
1867	1.8567e+02	-5.6453	-30.256314	0.000416	4.156456	1.408246	0.000166
1868	1.8577e+02	-5.6148	-30.119051	0.000345	3.446817	1.167813	0.000138
1869	1.8587e+02	-5.5667	-29.977751	0.000355	3.548194	1.202161	0.000142
1870	1.8597e+02	-5.5314	-29.836452	0.000355	3.548194	1.202161	0.000142
1871	1.8606e+02	-5.4913	-29.711300	0.000314	3.142686	1.064771	0.000126
1872	1.8616e+02	-5.4496	-29.565964	0.000365	3.649571	1.236508	0.000146
1873	1.8626e+02	-5.4047	-29.432738	0.000335	3.345440	1.133466	0.000134
1874	1.8636e+02	-5.3646	-29.295475	0.000345	3.446817	1.167813	0.000138
1875	1.8646e+02	-5.3373	-29.133990	0.000406	4.055079	1.373898	0.000162
1876	1.8656e+02	-5.2988	-29.061322	0.000182	1.824786	0.618254	0.000073
1877	1.8666e+02	-5.2619	-28.887725	0.000436	4.359210	1.476940	0.000174
1878	1.8676e+02	-5.2073	-28.742388	0.000365	3.649571	1.236508	0.000146
1879	1.8686e+02	-5.1720	-28.621274	0.000304	3.041309	1.030424	0.000122
1880	1.8696e+02	-5.1303	-28.471900	0.000375	3.750948	1.270856	0.000150
1881	1.8706e+02	-5.0902	-28.362897	0.000274	2.737179	0.927381	0.000110
1882	1.8716e+02	-5.0565	-28.201412	0.000406	4.055079	1.373898	0.000162
1883	1.8726e+02	-5.0180	-28.076260	0.000314	3.142686	1.064771	0.000126
1884	1.8736e+02	-4.9699	-27.866329	0.000527	5.271603	1.786067	0.000211
1885	1.8746e+02	-4.9394	-27.773475	0.000233	2.331671	0.789991	0.000093
1886	1.8756e+02	-4.8961	-27.664473	0.000274	2.737179	0.927381	0.000110
1887	1.8766e+02	-4.8576	-27.486839	0.000446	4.460587	1.511288	0.000179
1888	1.8776e+02	-4.8207	-27.341502	0.000365	3.649571	1.236508	0.000146
1889	1.8786e+02	-4.7758	-27.252685	0.000223	2.230294	0.755644	0.000089
1890	1.8796e+02	-4.7325	-27.079088	0.000436	4.359210	1.476940	0.000174
1891	1.8806e+02	-4.6908	-26.957974	0.000304	3.041309	1.030424	0.000122
1892	1.8815e+02	-4.6571	-26.836860	0.000304	3.041309	1.030424	0.000122
1893	1.8825e+02	-4.6186	-26.675374	0.000406	4.055079	1.373898	0.000162
1894	1.8835e+02	-4.5769	-26.534075	0.000355	3.548194	1.202161	0.000142
1895	1.8845e+02	-4.5336	-26.396812	0.000345	3.446817	1.167813	0.000138
1896	1.8855e+02	-4.4983	-26.251475	0.000365	3.649571	1.236508	0.000146
1897	1.8865e+02	-4.4598	-26.089990	0.000406	4.055079	1.373898	0.000162
1898	1.8875e+02	-4.4052	-25.985024	0.000264	2.635802	0.893034	0.000105
1899	1.8885e+02	-4.3683	-25.815464	0.000426	4.257833	1.442593	0.000170
1900	1.8895e+02	-4.3346	-25.706462	0.000274	2.737179	0.927381	0.000110
1901	1.8905e+02	-4.2977	-25.524791	0.000456	4.561964	1.545635	0.000183
1902	1.8915e+02	-4.2576	-25.387528	0.000345	3.446817	1.167813	0.000138
1903	1.8925e+02	-4.2159	-25.254303	0.000335	3.345440	1.133466	0.000134
1904	1.8935e+02	-4.1854	-25.117040	0.000345	3.446817	1.167813	0.000138
1905	1.8945e+02	-4.1502	-24.971703	0.000365	3.649571	1.236508	0.000146
1906	1.8955e+02	-4.0988	-24.854626	0.000294	2.939932	0.996076	0.000118
1907	1.8965e+02	-4.0571	-24.689104	0.000416	4.156456	1.408246	0.000166
1908	1.8975e+02	-4.0218	-24.535692	0.000385	3.852325	1.305203	0.000154
1909	1.8985e+02	-3.9881	-24.430727	0.000264	2.635802	0.893034	0.000105
1910	1.8995e+02	-3.9336	-24.269241	0.000406	4.055079	1.373898	0.000162
1911	1.9004e+02	-3.8983	-24.123905	0.000365	3.649571	1.236508	0.000146
1912	1.9014e+02	-3.8614	-23.966456	0.000395	3.953702	1.339551	0.000158
1913	1.9024e+02	-3.8197	-23.845342	0.000304	3.041309	1.030424	0.000122
1914	1.9034e+02	-3.7940	-23.679820	0.000416	4.156456	1.408246	0.000166
1915	1.9044e+02	-3.7395	-23.554668	0.000314	3.142686	1.064771	0.000126
1916	1.9054e+02	-3.7026	-23.437592	0.000294	2.939932	0.996076	0.000118
1917	1.9064e+02	-3.6641	-23.320515	0.000294	2.939932	0.996076	0.000118
1918	1.9074e+02	-3.6175	-23.154992	0.000416	4.156456	1.408246	0.000166
1919	1.9084e+02	-3.5839	-22.957172	0.000497	4.967472	1.683025	0.000199
1920	1.9094e+02	-3.5470	-22.815873	0.000355	3.548194	1.202161	0.000142
1921	1.9104e+02	-3.5052	-22.723019	0.000233	2.331671	0.789991	0.000093
1922	1.9114e+02	-3.4619	-22.614016	0.000274	2.737179	0.927381	0.000110
1923	1.9124e+02	-3.4234	-22.460605	0.000385	3.852325	1.305203	0.000154
1924	1.9134e+02	-3.3753	-22.307194	0.000385	3.852325	1.305203	0.000154
1925	1.9144e+02	-3.3384	-22.161857	0.000365	3.649571	1.236508	0.000146
1926	1.9154e+02	-3.3031	-22.040743	0.000304	3.041309	1.030424	0.000122
1927	1.9164e+02	-3.2614	-21.875220	0.000416	4.156456	1.408246	0.000166
1928	1.9174e+02	-3.2293	-21.709697	0.000416	4.156456	1.408246	0.000166
1929	1.9184e+02	-3.1748	-21.592620	0.000294	2.939932	0.996076	0.000118
1930	1.9194e+02	-3.1459	-21.447284	0.000365	3.649571	1.236508	0.000146
1931	1.9203e+02	-3.1026	-21.318095	0.000324	3.244063	1.099118	0.000130
1932	1.9213e+02	-3.0577	-21.152573	0.000416	4.156456	1.408246	0.000166
1933	1.9223e+02	-3.0304	-21.027421	0.000314	3.142686	1.064771	0.000126
1934	1.9233e+02	-2.9839	-20.853825	0.000436	4.359210	1.476940	0.000174
1935	1.9243e+02	-2.9422	-20.740785	0.000284	2.838555	0.961729	0.000114
1936	1.9253e+02	-2.9069	-20.619671	0.000304	3.041309	1.030424	0.000122
1937	1.9263e+02	-2.8668	-20.470297	0.000375	3.750948	1.270856	0.000150
1938	1.9273e+02	-2.8251	-20.320923	0.000375	3.750948	1.270856	0.000150
1939	1.9283e+02	-2.7930	-20.183660	0.000345	3.446817	1.167813	0.000138
1940	1.9293e+02	-2.7416	-20.010063	0.000436	4.359210	1.476940	0.000174
1941	1.9303e+02	-2.7063	-19.897023	0.000284	2.838555	0.961729	0.000114
1942	1.9313e+02	-2.6630	-19.800132	0.000243	2.433048	0.824339	0.000097
1943	1.9323e+02	-2.6165	-19.642684	0.000395	3.953702	1.339551	0.000158
1944	1.9333e+02	-2.5956	-19.501384	0.000355	3.548194	1.202161	0.000142
1945	1.9343e+02	-2.5523	-19.303565	0.000497	4.967472	1.683025	0.000199
1946	1.9353e+02	-2.5122	-19.166302	0.000345	3.446817	1.167813	0.000138
1947	1.9363e+02	-2.4721	-19.085559	0.000203	2.027540	0.686949	0.000081
1948	1.9373e+02	-2.4240	-18.936185	0.000375	3.750948	1.270856	0.000150
1949	1.9383e+02	-2.3871	-18.774700	0.000406	4.055079	1.373898	0.000162
1950	1.9393e+02	-2.3438	-18.661660	0.000284	2.838555	0.961729	0.000114
1951	1.9403e+02	-2.3165	-18.504212	0.000395	3.953702	1.339551	0.000158
1952	1.9412e+02	-2.2588	-18.362912	0.000355	3.548194	1.202161	0.000142
1953	1.9422e+02	-2.2203	-18.197389	0.000416	4.156456	1.408246	0.000166
1954	1.9432e+02	-2.1930	-18.052052	0.000365	3.649571	1.236508	0.000146
1955	1.9442e+02	-2.1417	-17.898641	0.000385	3.852325	1.305203	0.000154
1956	1.9452e+02	-2.1015	-17.765416	0.000335	3.345440	1.133466	0.000134
1957	1.9462e+02	-2.0582	-17.660450	0.000264	2.635802	0.893034	0.000105
1958	1.9472e+02	-2.0229	-17.478779	0.000456	4.561964	1.545635	0.000183
1959	1.9482e+02	-1.9957	-17.349591	0.000324	3.244063	1.099118	0.000130
1960	1.9492e+02	-1.9427	-17.200217	0.000375	3.750948	1.270856	0.000150
1961	1.9502e+02	-1.9058	-17.075066	0.000314	3.142686	1.064771	0.000126
1962	1.9512e+02	-1.8673	-16.957989	0.000294	2.939932	0.996076	0.000118
1963	1.9522e+02	-1.8256	-16.764206	0.000487	4.866095	1.648678	0.000195
1964	1.9532e+02	-1.7791	-16.643092	0.000304	3.041309	1.030424	0.000122
1965	1.9542e+02	-1.7470	-16.465458	0.000446	4.460587	1.511288	0.000179
1966	1.9552e+02	-1.7101	-16.332233	0.000335	3.345440	1.133466	0.000134
1967	1.9562e+02	-1.6668	-16.170747	0.000406	4.055079	1.373898	0.000162
1968	1.9572e+02	-1.6347	-16.069819	0.000253	2.534425	0.858686	0.000101
1969	1.9582e+02	-1.5866	-15.876036	0.000487	4.866095	1.648678	0.000195
1970	1.9592e+02	-1.5433	-15.762996	0.000284	2.838555	0.961729	0.000114
1971	1.9601e+02	-1.5192	-15.609585	0.000385	3.852325	1.305203	0.000154
1972	1.9611e+02	-1.4807	-15.452137	0.000395	3.953702	1.339551	0.000158
1973	1.9621e+02	-1.4278	-15.314874	0.000345	3.446817	1.167813	0.000138
1974	1.9631e+02	-1.3925	-15.173575	0.000355	3.548194	1.202161	0.000142
1975	1.9641e+02	-1.3524	-15.016126	0.000395	3.953702	1.339551	0.000158
1976	1.9651e+02	-1.3010	-14.899049	0.000294	2.939932	0.996076	0.000118
1977	1.9661e+02	-1.2561	-14.749675	0.000375	3.750948	1.270856	0.000150
1978	1.9671e+02	-1.2240	-14.588190	0.000406	4.055079	1.373898	0.000162
1979	1.9681e+02	-1.1968	-14.442853	0.000365	3.649571	1.236508	0.000146
1980	1.9691e+02	-1.1567	-14.317702	0.000314	3.142686	1.064771	0.000126
1981	1.9701e+02	-1.1069	-14.127957	0.000476	4.764718	1.614330	0.000191
1982	1.9711e+02	-1.0684	-13.994731	0.000335	3.345440	1.133466	0.000134
1983	1.9721e+02	-1.0235	-13.853431	0.000355	3.548194	1.202161	0.000142
1984	1.9731e+02	-0.9834	-13.728280	0.000314	3.142686	1.064771	0.000126
1985	1.9741e+02	-0.9513	-13.562758	0.000416	4.156456	1.408246	0.000166
1986	1.9751e+02	-0.9080	-13.421458	0.000355	3.548194	1.202161	0.000142
1987	1.9761e+02	-0.8631	-13.259972	0.000406	4.055079	1.373898	0.000162
1988	1.9771e+02	-0.8262	-13.130784	0.000324	3.244063	1.099118	0.000130
1989	1.9781e+02	-0.7877	-12.973336	0.000395	3.953702	1.339551	0.000158
1990	1.9791e+02	-0.7508	-12.840110	0.000335	3.345440	1.133466	0.000134
1991	1.9800e+02	-0.7171	-12.658439	0.000456	4.561964	1.545635	0.000183
1992	1.9810e+02	-0.6722	-12.537325	0.000304	3.041309	1.030424	0.000122
1993	1.9820e+02	-0.6305	-12.432360	0.000264	2.635802	0.893034	0.000105
1994	1.9830e+02	-0.5904	-12.258763	0.000436	4.359210	1.476940	0.000174
1995	1.9840e+02	-0.5567	-12.125537	0.000335	3.345440	1.133466	0.000134
1996	1.9850e+02	-0.5214	-11.964052	0.000406	4.055079	1.373898	0.000162
1997	1.9860e+02	-0.4716	-11.814678	0.000375	3.750948	1.270856	0.000150
1998	1.9870e+02	-0.4283	-11.633007	0.000456	4.561964	1.545635	0.000183
1999	1.9880e+02	-0.4011	-11.487670	0.000365	3.649571	1.236508	0.000146
2000	1.9890e+02	-0.3449	-11.350407	0.000345	3.446817	1.167813	0.000138
2001	1.9900e+02	-0.3176	-11.176810	0.000436	4.359210	1.476940	0.000174
2002	1.9910e+02	-0.2743	-11.083956	0.000233	2.331671	0.789991	0.000093
2003	1.9920e+02	-0.2390	-10.902285	0.000456	4.561964	1.545635	0.000183
2004	1.9930e+02	-0.1893	-10.781171	0.000304	3.041309	1.030424	0.000122
2005	1.9940e+02	-0.1556	-10.591426	0.000476	4.764718	1.614330	0.000191
2006	1.9950e+02	-0.1123	-10.429940	0.000406	4.055079	1.373898	0.000162
2007	1.9960e+02	-0.0738	-10.308826	0.000304	3.041309	1.030424	0.000122
2008	1.9970e+02	-0.0305	-10.139266	0.000426	4.257833	1.442593	0.000170
2009	1.9980e+02	0.0080	-10.002004	0.000426	4.257833	1.442593	0.000138

PMax (uC/cm2):	7.36e+01
Pr (uC/cm2):	4.00e+00
-Pr (uC/cm2):	-4.91e+00
PLoss (uC/cm2):	-4.88e+00
-Vc:	-1.09e+00
C (Max-Eff) (nF):	3.68e-01
K (Eff):	1.25e+03
Vert. (+/-Pr) Shift (uC/cm2):	-4.50e-01
Offset (uC/cm2):	5.10e+00

A (Loop Area - uC/cm2·Volts):	5.60e-02



Hysteresis Version: 5.48.1 - Radiant Technologies, Inc., 1999 - 9/12/24

