»»»»»»»»»»»»»»»»»»»»»»»»»»»»»»»»»»»» Hysteresis ««««««««««««««««««««««««««««««««««««
»»»  Executed Version:	5.48.1
»»»  Vision Version:	5.48.4 (R)
»»»  Vision Compiled:	9/18/24
»»»  Driver Version:	5.47.0
»»»  Windows Version:	Windows 8 or 8.1
»»»  Processor Information:	x86 (AMD or Intel) - 32 Processors
»»»  Tester Name:	PMF21124-494 (100V)
»»»  Tester S/N:	PMF21124-494
»»»  Internal Amp Type:	100V RevK 270k
»»»  Internal Amp S/N:	iAB2-596/K     
»»»  Execution Count:	1
»»»»»»»»»»»»»»»»»»»»»»»»»»»»»»»»»»»»»»»»»»««««««««««««««««««««««««««««««««««««««««««

Stored:	6/19/2025 - 19:38:42
Configured:	06/19/25 10:04:32 AM
Executed:	06/19/25 07:38:15 PM

»»»»»»»»»»»»»»»»»»»»»»»»»»»»»»»»»»» Sample Info ««««««««««««««««««««««««««««««««««««
Sample Name:	
Lot Name:	
Wafer Name:	
Die Row/Column:	0/0
Capacitor Number:	0
Sample Area (cm2):	1.00e-04
Sample Thickness (microns):	3.00e-01

Amplifier:	Internal

»»»»»»»»»»»»»»»»»»»»»»»»»»»»»»»»»»» Tester Info «««««««««««««««««««««««««««««««««««
Tester Name:	PMF21124-494 (100V)
Tester Serial Number:	PMF21124-494
Return Signal Amp. Level:	0.19 [Index: 3]

»»»»»»»»»»»»»»»»»»»»»»»»»»»»»»»» Hysteresis Info ««««««««««««««««««««««««««««««««««
Task Name:	Hyst-1168
Volts:	20.00
Field:	666.67 (kV/cm)
DCBias:	0.00
DCField:	0.00 (kV/cm)
Hysteresis Period (ms):	2.00e+02
Preset:	Enabled
Preset Delay (ms):	1.00e+03
Profile:	Standard Bipolar

»»»»»»»»»»»»»»»»»»»»»»»»»»»»»»»»»»»»»» Data «««««««««««««««««««««««««««««««««««««««
Points:	2009

Valid Data

Point	Time (ms)	Drive Voltage	Measured Polarization (uC/cm2)	Capacitance (uF)	Normalized Capacitance (uF/cm2)	Dielectric Constant	Instantaneous Current (mA)
   1	0.0000e+00	0.0160	-4.870804	0.000375	3.751852	1.271162	0.000150
   2	9.9500e-02	0.0353	-4.721430	0.000375	3.751852	1.271162	0.000150
   3	1.9900e-01	0.0754	-4.592242	0.000324	3.244845	1.099383	0.000130
   4	2.9850e-01	0.1171	-4.475165	0.000294	2.940640	0.996316	0.000118
   5	3.9800e-01	0.1556	-4.321754	0.000385	3.853253	1.305517	0.000154
   6	4.9750e-01	0.1925	-4.136046	0.000466	4.664464	1.580363	0.000187
   7	5.9700e-01	0.2310	-4.039154	0.000243	2.433633	0.824537	0.000097
   8	6.9650e-01	0.2791	-3.885743	0.000385	3.853253	1.305517	0.000154
   9	7.9600e-01	0.3176	-3.736369	0.000375	3.751852	1.271162	0.000150
  10	8.9550e-01	0.3577	-3.582958	0.000385	3.853253	1.305517	0.000154
  11	9.9500e-01	0.3978	-3.473955	0.000274	2.737838	0.927604	0.000110
  12	1.0945e+00	0.4283	-3.292284	0.000456	4.563063	1.546007	0.000183
  13	1.1940e+00	0.4829	-3.175207	0.000294	2.940640	0.996316	0.000118
  14	1.2935e+00	0.5134	-2.985462	0.000477	4.765866	1.614719	0.000191
  15	1.3930e+00	0.5567	-2.892608	0.000233	2.332232	0.790182	0.000093
  16	1.4925e+00	0.5936	-2.714974	0.000446	4.461661	1.511652	0.000179
  17	1.5920e+00	0.6337	-2.565600	0.000375	3.751852	1.271162	0.000150
  18	1.6915e+00	0.6786	-2.416226	0.000375	3.751852	1.271162	0.000150
  19	1.7910e+00	0.7091	-2.295112	0.000304	3.042042	1.030672	0.000122
  20	1.8905e+00	0.7620	-2.149775	0.000365	3.650450	1.236806	0.000146
  21	1.9900e+00	0.8005	-1.964067	0.000466	4.664464	1.580363	0.000187
  22	2.0895e+00	0.8390	-1.810655	0.000385	3.853253	1.305517	0.000154
  23	2.1890e+00	0.8743	-1.673393	0.000345	3.447647	1.168095	0.000138
  24	2.2885e+00	0.9096	-1.536130	0.000345	3.447647	1.168095	0.000138
  25	2.3880e+00	0.9481	-1.354459	0.000456	4.563063	1.546007	0.000183
  26	2.4875e+00	0.9866	-1.209122	0.000365	3.650450	1.236806	0.000146
  27	2.5870e+00	1.0315	-1.083971	0.000314	3.143443	1.065027	0.000126
  28	2.6865e+00	1.0716	-0.906337	0.000446	4.461661	1.511652	0.000179
  29	2.7860e+00	1.1085	-0.789260	0.000294	2.940640	0.996316	0.000118
  30	2.8855e+00	1.1534	-0.599515	0.000477	4.765866	1.614719	0.000191
  31	2.9850e+00	1.1919	-0.466289	0.000335	3.346246	1.133739	0.000134
  32	3.0845e+00	1.2272	-0.260395	0.000517	5.171471	1.752142	0.000207
  33	3.1840e+00	1.2673	-0.147355	0.000284	2.839239	0.961960	0.000114
  34	3.2835e+00	1.3123	0.018167	0.000416	4.157457	1.408585	0.000166
  35	3.3830e+00	1.3508	0.179653	0.000406	4.056056	1.374229	0.000162
  36	3.4825e+00	1.3973	0.304804	0.000314	3.143443	1.065027	0.000126
  37	3.5820e+00	1.4358	0.470326	0.000416	4.157457	1.408585	0.000166
  38	3.6815e+00	1.4727	0.651997	0.000456	4.563063	1.546007	0.000183
  39	3.7810e+00	1.5080	0.801371	0.000375	3.751852	1.271162	0.000150
  40	3.8805e+00	1.5481	0.934597	0.000335	3.346246	1.133739	0.000134
  41	3.9800e+00	1.5930	1.100119	0.000416	4.157457	1.408585	0.000166
  42	4.0795e+00	1.6331	1.221234	0.000304	3.042042	1.030672	0.000122
  43	4.1790e+00	1.6716	1.402905	0.000456	4.563063	1.546007	0.000183
  44	4.2785e+00	1.7117	1.592650	0.000477	4.765866	1.614719	0.000191
  45	4.3780e+00	1.7598	1.758173	0.000416	4.157457	1.408585	0.000166
  46	4.4775e+00	1.7823	1.891398	0.000335	3.346246	1.133739	0.000134
  47	4.5770e+00	1.8304	2.032698	0.000355	3.549049	1.202450	0.000142
  48	4.6765e+00	1.8753	2.178035	0.000365	3.650450	1.236806	0.000146
  49	4.7760e+00	1.9138	2.323372	0.000365	3.650450	1.236806	0.000146
  50	4.8755e+00	1.9507	2.484857	0.000406	4.056056	1.374229	0.000162
  51	4.9750e+00	1.9892	2.662491	0.000446	4.461661	1.511652	0.000179
  52	5.0745e+00	2.0390	2.828014	0.000416	4.157457	1.408585	0.000166
  53	5.1740e+00	2.0695	2.949128	0.000304	3.042042	1.030672	0.000122
  54	5.2735e+00	2.1192	3.102539	0.000385	3.853253	1.305517	0.000154
  55	5.3730e+00	2.1417	3.247876	0.000365	3.650450	1.236806	0.000146
  56	5.4725e+00	2.1850	3.449732	0.000507	5.070070	1.717786	0.000203
  57	5.5720e+00	2.2299	3.611218	0.000406	4.056056	1.374229	0.000162
  58	5.6715e+00	2.2684	3.744443	0.000335	3.346246	1.133739	0.000134
  59	5.7710e+00	2.3053	3.893817	0.000375	3.751852	1.271162	0.000150
  60	5.8705e+00	2.3438	4.103748	0.000527	5.272872	1.786498	0.000211
  61	5.9700e+00	2.3919	4.224863	0.000304	3.042042	1.030672	0.000122
  62	6.0695e+00	2.4320	4.370199	0.000365	3.650450	1.236806	0.000146
  63	6.1690e+00	2.4641	4.531685	0.000406	4.056056	1.374229	0.000162
  64	6.2685e+00	2.5074	4.717393	0.000466	4.664464	1.580363	0.000187
  65	6.3680e+00	2.5555	4.822359	0.000264	2.636436	0.893249	0.000105
  66	6.4675e+00	2.5908	5.016141	0.000487	4.867267	1.649075	0.000195
  67	6.5670e+00	2.6358	5.181664	0.000416	4.157457	1.408585	0.000166
  68	6.6665e+00	2.6710	5.306815	0.000314	3.143443	1.065027	0.000126
  69	6.7660e+00	2.7079	5.496560	0.000477	4.765866	1.614719	0.000191
  70	6.8655e+00	2.7464	5.637860	0.000355	3.549049	1.202450	0.000142
  71	6.9650e+00	2.7849	5.738788	0.000254	2.535035	0.858893	0.000101
  72	7.0645e+00	2.8283	5.968905	0.000578	5.779879	1.958276	0.000231
  73	7.1640e+00	2.8636	6.073871	0.000264	2.636436	0.893249	0.000105
  74	7.2635e+00	2.9101	6.295913	0.000558	5.577077	1.889565	0.000223
  75	7.3630e+00	2.9454	6.408953	0.000284	2.839239	0.961960	0.000114
  76	7.4625e+00	2.9839	6.574476	0.000416	4.157457	1.408585	0.000166
  77	7.5620e+00	3.0176	6.748072	0.000436	4.360260	1.477296	0.000174
  78	7.6615e+00	3.0689	6.901484	0.000385	3.853253	1.305517	0.000154
  79	7.7610e+00	3.1042	7.058932	0.000395	3.954654	1.339873	0.000158
  80	7.8605e+00	3.1459	7.184083	0.000314	3.143443	1.065027	0.000126
  81	7.9600e+00	3.1908	7.357680	0.000436	4.360260	1.477296	0.000174
  82	8.0595e+00	3.2293	7.523202	0.000416	4.157457	1.408585	0.000166
  83	8.1590e+00	3.2726	7.680651	0.000395	3.954654	1.339873	0.000158
  84	8.2585e+00	3.2983	7.830025	0.000375	3.751852	1.271162	0.000150
  85	8.3580e+00	3.3512	7.999584	0.000426	4.258859	1.442940	0.000170
  86	8.4575e+00	3.3978	8.140884	0.000355	3.549049	1.202450	0.000142
  87	8.5570e+00	3.4331	8.306407	0.000416	4.157457	1.408585	0.000166
  88	8.6565e+00	3.4651	8.463855	0.000395	3.954654	1.339873	0.000158
  89	8.7560e+00	3.5069	8.669749	0.000517	5.171471	1.752142	0.000207
  90	8.8555e+00	3.5550	8.794900	0.000314	3.143443	1.065027	0.000126
  91	8.9550e+00	3.5871	8.964460	0.000426	4.258859	1.442940	0.000170
  92	9.0545e+00	3.6208	9.073463	0.000274	2.737838	0.927604	0.000110
  93	9.1540e+00	3.6625	9.267245	0.000487	4.867267	1.649075	0.000195
  94	9.2535e+00	3.6962	9.465065	0.000497	4.968668	1.683430	0.000199
  95	9.3530e+00	3.7443	9.598290	0.000335	3.346246	1.133739	0.000134
  96	9.4525e+00	3.7780	9.747664	0.000375	3.751852	1.271162	0.000150
  97	9.5520e+00	3.8229	9.921261	0.000436	4.360260	1.477296	0.000174
  98	9.6515e+00	3.8614	10.062561	0.000355	3.549049	1.202450	0.000142
  99	9.7510e+00	3.9079	10.236158	0.000436	4.360260	1.477296	0.000174
 100	9.8505e+00	3.9336	10.409755	0.000436	4.360260	1.477296	0.000174
 101	9.9500e+00	3.9785	10.559129	0.000375	3.751852	1.271162	0.000150
 102	1.0050e+01	4.0122	10.724651	0.000416	4.157457	1.408585	0.000166
 103	1.0149e+01	4.0603	10.890174	0.000416	4.157457	1.408585	0.000166
 104	1.0248e+01	4.1052	11.043585	0.000385	3.853253	1.305517	0.000154
 105	1.0348e+01	4.1453	11.217182	0.000436	4.360260	1.477296	0.000174
 106	1.0447e+01	4.1887	11.370593	0.000385	3.853253	1.305517	0.000154
 107	1.0547e+01	4.2255	11.515930	0.000365	3.650450	1.236806	0.000146
 108	1.0646e+01	4.2641	11.669341	0.000385	3.853253	1.305517	0.000154
 109	1.0746e+01	4.3074	11.830826	0.000406	4.056056	1.374229	0.000162
 110	1.0845e+01	4.3507	12.012497	0.000456	4.563063	1.546007	0.000183
 111	1.0945e+01	4.3860	12.161871	0.000375	3.751852	1.271162	0.000150
 112	1.1044e+01	4.4197	12.331431	0.000426	4.258859	1.442940	0.000170
 113	1.1144e+01	4.4550	12.436397	0.000264	2.636436	0.893249	0.000105
 114	1.1243e+01	4.4983	12.601919	0.000416	4.157457	1.408585	0.000166
 115	1.1343e+01	4.5480	12.767442	0.000416	4.157457	1.408585	0.000166
 116	1.1443e+01	4.5753	12.937001	0.000426	4.258859	1.442940	0.000170
 117	1.1542e+01	4.6170	13.090413	0.000385	3.853253	1.305517	0.000154
 118	1.1642e+01	4.6555	13.259972	0.000426	4.258859	1.442940	0.000170
 119	1.1741e+01	4.6972	13.397235	0.000345	3.447647	1.168095	0.000138
 120	1.1841e+01	4.7405	13.522386	0.000314	3.143443	1.065027	0.000126
 121	1.1940e+01	4.7806	13.744429	0.000558	5.577077	1.889565	0.000223
 122	1.2040e+01	4.8207	13.869580	0.000314	3.143443	1.065027	0.000126
 123	1.2139e+01	4.8592	14.014917	0.000365	3.650450	1.236806	0.000146
 124	1.2239e+01	4.9057	14.184476	0.000426	4.258859	1.442940	0.000170
 125	1.2338e+01	4.9346	14.337888	0.000385	3.853253	1.305517	0.000154
 126	1.2438e+01	4.9779	14.507447	0.000426	4.258859	1.442940	0.000170
 127	1.2537e+01	5.0164	14.689118	0.000456	4.563063	1.546007	0.000183
 128	1.2636e+01	5.0630	14.806195	0.000294	2.940640	0.996316	0.000118
 129	1.2736e+01	5.0918	14.975755	0.000426	4.258859	1.442940	0.000170
 130	1.2835e+01	5.1384	15.133203	0.000395	3.954654	1.339873	0.000158
 131	1.2935e+01	5.1849	15.266429	0.000335	3.346246	1.133739	0.000134
 132	1.3034e+01	5.2202	15.440026	0.000436	4.360260	1.477296	0.000174
 133	1.3134e+01	5.2651	15.577288	0.000345	3.447647	1.168095	0.000138
 134	1.3233e+01	5.2972	15.779145	0.000507	5.070070	1.717786	0.000203
 135	1.3333e+01	5.3277	15.908333	0.000324	3.244845	1.099383	0.000130
 136	1.3432e+01	5.3758	16.085967	0.000446	4.461661	1.511652	0.000179
 137	1.3532e+01	5.4143	16.211119	0.000314	3.143443	1.065027	0.000126
 138	1.3632e+01	5.4624	16.380678	0.000426	4.258859	1.442940	0.000170
 139	1.3731e+01	5.5041	16.534089	0.000385	3.853253	1.305517	0.000154
 140	1.3831e+01	5.5378	16.691538	0.000395	3.954654	1.339873	0.000158
 141	1.3930e+01	5.5795	16.909543	0.000548	5.475675	1.855209	0.000219
 142	1.4030e+01	5.6196	17.022583	0.000284	2.839239	0.961960	0.000114
 143	1.4129e+01	5.6662	17.224440	0.000507	5.070070	1.717786	0.000203
 144	1.4229e+01	5.6966	17.337479	0.000284	2.839239	0.961960	0.000114
 145	1.4328e+01	5.7303	17.503002	0.000416	4.157457	1.408585	0.000166
 146	1.4428e+01	5.7736	17.692747	0.000477	4.765866	1.614719	0.000191
 147	1.4527e+01	5.8234	17.809824	0.000294	2.940640	0.996316	0.000118
 148	1.4627e+01	5.8490	17.963235	0.000385	3.853253	1.305517	0.000154
 149	1.4726e+01	5.8923	18.104535	0.000355	3.549049	1.202450	0.000142
 150	1.4825e+01	5.9325	18.294281	0.000477	4.765866	1.614719	0.000191
 151	1.4925e+01	5.9774	18.455766	0.000406	4.056056	1.374229	0.000162
 152	1.5024e+01	6.0159	18.584954	0.000324	3.244845	1.099383	0.000130
 153	1.5124e+01	6.0592	18.794885	0.000527	5.272872	1.786498	0.000211
 154	1.5223e+01	6.1025	18.956371	0.000406	4.056056	1.374229	0.000162
 155	1.5323e+01	6.1410	19.097671	0.000355	3.549049	1.202450	0.000142
 156	1.5422e+01	6.1667	19.251082	0.000385	3.853253	1.305517	0.000154
 157	1.5522e+01	6.2116	19.392382	0.000355	3.549049	1.202450	0.000142
 158	1.5621e+01	6.2421	19.565978	0.000436	4.360260	1.477296	0.000174
 159	1.5721e+01	6.2966	19.707278	0.000355	3.549049	1.202450	0.000142
 160	1.5820e+01	6.3431	19.909135	0.000507	5.070070	1.717786	0.000203
 161	1.5920e+01	6.3720	20.034286	0.000314	3.143443	1.065027	0.000126
 162	1.6020e+01	6.4073	20.211920	0.000446	4.461661	1.511652	0.000179
 163	1.6119e+01	6.4490	20.373406	0.000406	4.056056	1.374229	0.000162
 164	1.6218e+01	6.4907	20.526817	0.000385	3.853253	1.305517	0.000154
 165	1.6318e+01	6.5244	20.660042	0.000335	3.346246	1.133739	0.000134
 166	1.6418e+01	6.5709	20.857862	0.000497	4.968668	1.683430	0.000199
 167	1.6517e+01	6.6078	21.007236	0.000375	3.751852	1.271162	0.000150
 168	1.6616e+01	6.6592	21.140461	0.000335	3.346246	1.133739	0.000134
 169	1.6716e+01	6.6880	21.314058	0.000436	4.360260	1.477296	0.000174
 170	1.6816e+01	6.7330	21.491692	0.000446	4.461661	1.511652	0.000179
 171	1.6915e+01	6.7699	21.620880	0.000324	3.244845	1.099383	0.000130
 172	1.7015e+01	6.8100	21.786403	0.000416	4.157457	1.408585	0.000166
 173	1.7114e+01	6.8421	21.955963	0.000426	4.258859	1.442940	0.000170
 174	1.7213e+01	6.8806	22.133597	0.000446	4.461661	1.511652	0.000179
 175	1.7313e+01	6.9239	22.258748	0.000314	3.143443	1.065027	0.000126
 176	1.7413e+01	6.9736	22.391973	0.000335	3.346246	1.133739	0.000134
 177	1.7512e+01	7.0057	22.597867	0.000517	5.171471	1.752142	0.000207
 178	1.7611e+01	7.0490	22.731093	0.000335	3.346246	1.133739	0.000134
 179	1.7711e+01	7.0827	22.880467	0.000375	3.751852	1.271162	0.000150
 180	1.7811e+01	7.1260	23.050026	0.000426	4.258859	1.442940	0.000170
 181	1.7910e+01	7.1693	23.195363	0.000365	3.650450	1.236806	0.000146
 182	1.8009e+01	7.2142	23.360886	0.000416	4.157457	1.408585	0.000166
 183	1.8109e+01	7.2415	23.506223	0.000365	3.650450	1.236806	0.000146
 184	1.8209e+01	7.2912	23.647523	0.000355	3.549049	1.202450	0.000142
 185	1.8308e+01	7.3329	23.809008	0.000406	4.056056	1.374229	0.000162
 186	1.8407e+01	7.3698	23.986642	0.000446	4.461661	1.511652	0.000179
 187	1.8507e+01	7.4116	24.136016	0.000375	3.751852	1.271162	0.000150
 188	1.8607e+01	7.4468	24.309613	0.000436	4.360260	1.477296	0.000174
 189	1.8706e+01	7.4934	24.475135	0.000416	4.157457	1.408585	0.000166
 190	1.8805e+01	7.5158	24.620472	0.000365	3.650450	1.236806	0.000146
 191	1.8905e+01	7.5607	24.790032	0.000426	4.258859	1.442940	0.000170
 192	1.9005e+01	7.6121	24.882886	0.000233	2.332232	0.790182	0.000093
 193	1.9104e+01	7.6506	25.084743	0.000507	5.070070	1.717786	0.000203
 194	1.9203e+01	7.6859	25.270451	0.000466	4.664464	1.580363	0.000187
 195	1.9303e+01	7.7212	25.440011	0.000426	4.258859	1.442940	0.000170
 196	1.9402e+01	7.7741	25.573236	0.000335	3.346246	1.133739	0.000134
 197	1.9502e+01	7.8030	25.734722	0.000406	4.056056	1.374229	0.000162
 198	1.9602e+01	7.8559	25.916393	0.000456	4.563063	1.546007	0.000183
 199	1.9701e+01	7.8848	26.069804	0.000385	3.853253	1.305517	0.000154
 200	1.9800e+01	7.9249	26.215141	0.000365	3.650450	1.236806	0.000146
 201	1.9900e+01	7.9698	26.380663	0.000416	4.157457	1.408585	0.000166
 202	2.0000e+01	8.0083	26.546186	0.000416	4.157457	1.408585	0.000166
 203	2.0099e+01	8.0388	26.687486	0.000355	3.549049	1.202450	0.000142
 204	2.0198e+01	8.0789	26.840897	0.000385	3.853253	1.305517	0.000154
 205	2.0298e+01	8.1286	27.014494	0.000436	4.360260	1.477296	0.000174
 206	2.0398e+01	8.1688	27.184053	0.000426	4.258859	1.442940	0.000170
 207	2.0497e+01	8.2105	27.361687	0.000446	4.461661	1.511652	0.000179
 208	2.0596e+01	8.2425	27.474727	0.000284	2.839239	0.961960	0.000114
 209	2.0696e+01	8.2794	27.696770	0.000558	5.577077	1.889565	0.000223
 210	2.0796e+01	8.3276	27.821921	0.000314	3.143443	1.065027	0.000126
 211	2.0895e+01	8.3677	27.995518	0.000436	4.360260	1.477296	0.000174
 212	2.0994e+01	8.4110	28.136818	0.000355	3.549049	1.202450	0.000142
 213	2.1094e+01	8.4479	28.298303	0.000406	4.056056	1.374229	0.000162
 214	2.1194e+01	8.4864	28.459788	0.000406	4.056056	1.374229	0.000162
 215	2.1293e+01	8.5297	28.641459	0.000456	4.563063	1.546007	0.000183
 216	2.1392e+01	8.5714	28.786796	0.000365	3.650450	1.236806	0.000146
 217	2.1492e+01	8.6019	28.915985	0.000324	3.244845	1.099383	0.000130
 218	2.1591e+01	8.6468	29.085544	0.000426	4.258859	1.442940	0.000170
 219	2.1691e+01	8.6885	29.279327	0.000487	4.867267	1.649075	0.000195
 220	2.1791e+01	8.7222	29.444850	0.000416	4.157457	1.408585	0.000166
 221	2.1890e+01	8.7591	29.614409	0.000426	4.258859	1.442940	0.000170
 222	2.1989e+01	8.8024	29.731486	0.000294	2.940640	0.996316	0.000118
 223	2.2089e+01	8.8457	29.897009	0.000416	4.157457	1.408585	0.000166
 224	2.2189e+01	8.8858	30.054457	0.000395	3.954654	1.339873	0.000158
 225	2.2288e+01	8.9243	30.240165	0.000466	4.664464	1.580363	0.000187
 226	2.2387e+01	8.9580	30.357242	0.000294	2.940640	0.996316	0.000118
 227	2.2487e+01	9.0030	30.522765	0.000416	4.157457	1.408585	0.000166
 228	2.2587e+01	9.0543	30.700399	0.000446	4.461661	1.511652	0.000179
 229	2.2686e+01	9.0800	30.825550	0.000314	3.143443	1.065027	0.000126
 230	2.2785e+01	9.1153	31.035481	0.000527	5.272872	1.786498	0.000211
 231	2.2885e+01	9.1554	31.144484	0.000274	2.737838	0.927604	0.000110
 232	2.2985e+01	9.2051	31.326155	0.000456	4.563063	1.546007	0.000183
 233	2.3084e+01	9.2452	31.495714	0.000426	4.258859	1.442940	0.000170
 234	2.3183e+01	9.2917	31.628940	0.000335	3.346246	1.133739	0.000134
 235	2.3283e+01	9.3222	31.814648	0.000466	4.664464	1.580363	0.000187
 236	2.3383e+01	9.3687	31.935762	0.000304	3.042042	1.030672	0.000122
 237	2.3482e+01	9.3992	32.101285	0.000416	4.157457	1.408585	0.000166
 238	2.3581e+01	9.4313	32.258733	0.000395	3.954654	1.339873	0.000158
 239	2.3681e+01	9.4746	32.404070	0.000365	3.650450	1.236806	0.000146
 240	2.3780e+01	9.5195	32.577667	0.000436	4.360260	1.477296	0.000174
 241	2.3880e+01	9.5596	32.775486	0.000497	4.968668	1.683430	0.000199
 242	2.3980e+01	9.6078	32.876415	0.000254	2.535035	0.858893	0.000101
 243	2.4079e+01	9.6382	33.054049	0.000446	4.461661	1.511652	0.000179
 244	2.4178e+01	9.6799	33.211497	0.000395	3.954654	1.339873	0.000158
 245	2.4278e+01	9.7217	33.340685	0.000324	3.244845	1.099383	0.000130
 246	2.4378e+01	9.7553	33.534468	0.000487	4.867267	1.649075	0.000195
 247	2.4477e+01	9.8003	33.651545	0.000294	2.940640	0.996316	0.000118
 248	2.4576e+01	9.8452	33.808993	0.000395	3.954654	1.339873	0.000158
 249	2.4676e+01	9.8773	34.010850	0.000507	5.070070	1.717786	0.000203
 250	2.4776e+01	9.9174	34.144076	0.000335	3.346246	1.133739	0.000134
 251	2.4875e+01	9.9511	34.293450	0.000375	3.751852	1.271162	0.000150
 252	2.4974e+01	9.9944	34.422638	0.000324	3.244845	1.099383	0.000130
 253	2.5074e+01	10.0377	34.596235	0.000436	4.360260	1.477296	0.000174
 254	2.5174e+01	10.0794	34.769832	0.000436	4.360260	1.477296	0.000174
 255	2.5273e+01	10.1179	34.931317	0.000406	4.056056	1.374229	0.000162
 256	2.5372e+01	10.1564	35.108951	0.000446	4.461661	1.511652	0.000179
 257	2.5472e+01	10.1965	35.254288	0.000365	3.650450	1.236806	0.000146
 258	2.5572e+01	10.2302	35.371365	0.000294	2.940640	0.996316	0.000118
 259	2.5671e+01	10.2671	35.589370	0.000548	5.475675	1.855209	0.000219
 260	2.5770e+01	10.3136	35.710484	0.000304	3.042042	1.030672	0.000122
 261	2.5870e+01	10.3521	35.867932	0.000395	3.954654	1.339873	0.000158
 262	2.5970e+01	10.4002	36.017306	0.000375	3.751852	1.271162	0.000150
 263	2.6069e+01	10.4436	36.162643	0.000365	3.650450	1.236806	0.000146
 264	2.6169e+01	10.4724	36.324129	0.000406	4.056056	1.374229	0.000162
 265	2.6268e+01	10.5222	36.477540	0.000385	3.853253	1.305517	0.000154
 266	2.6367e+01	10.5575	36.667285	0.000477	4.765866	1.614719	0.000191
 267	2.6467e+01	10.5944	36.812622	0.000365	3.650450	1.236806	0.000146
 268	2.6567e+01	10.6393	36.961996	0.000375	3.751852	1.271162	0.000150
 269	2.6666e+01	10.6698	37.127519	0.000416	4.157457	1.408585	0.000166
 270	2.6765e+01	10.7131	37.252670	0.000314	3.143443	1.065027	0.000126
 271	2.6865e+01	10.7500	37.438378	0.000466	4.664464	1.580363	0.000187
 272	2.6965e+01	10.7997	37.559492	0.000304	3.042042	1.030672	0.000122
 273	2.7064e+01	10.8286	37.753275	0.000487	4.867267	1.649075	0.000195
 274	2.7163e+01	10.8751	37.910723	0.000395	3.954654	1.339873	0.000158
 275	2.7263e+01	10.9184	38.052023	0.000355	3.549049	1.202450	0.000142
 276	2.7363e+01	10.9601	38.197360	0.000365	3.650450	1.236806	0.000146
 277	2.7462e+01	10.9954	38.403254	0.000517	5.171471	1.752142	0.000207
 278	2.7561e+01	11.0307	38.504182	0.000254	2.535035	0.858893	0.000101
 279	2.7661e+01	11.0692	38.657593	0.000385	3.853253	1.305517	0.000154
 280	2.7761e+01	11.1221	38.806967	0.000375	3.751852	1.271162	0.000150
 281	2.7860e+01	11.1510	38.936156	0.000324	3.244845	1.099383	0.000130
 282	2.7959e+01	11.1959	39.101678	0.000416	4.157457	1.408585	0.000166
 283	2.8059e+01	11.2409	39.251052	0.000375	3.751852	1.271162	0.000150
 284	2.8159e+01	11.2649	39.408501	0.000395	3.954654	1.339873	0.000158
 285	2.8258e+01	11.3179	39.545763	0.000345	3.447647	1.168095	0.000138
 286	2.8358e+01	11.3516	39.711286	0.000416	4.157457	1.408585	0.000166
 287	2.8457e+01	11.3965	39.872771	0.000406	4.056056	1.374229	0.000162
 288	2.8556e+01	11.4270	40.014071	0.000355	3.549049	1.202450	0.000142
 289	2.8656e+01	11.4767	40.139222	0.000314	3.143443	1.065027	0.000126
 290	2.8756e+01	11.5120	40.316856	0.000446	4.461661	1.511652	0.000179
 291	2.8855e+01	11.5505	40.478341	0.000406	4.056056	1.374229	0.000162
 292	2.8954e+01	11.5922	40.623678	0.000365	3.650450	1.236806	0.000146
 293	2.9054e+01	11.6323	40.752867	0.000324	3.244845	1.099383	0.000130
 294	2.9154e+01	11.6644	40.914352	0.000406	4.056056	1.374229	0.000162
 295	2.9253e+01	11.7125	41.067763	0.000385	3.853253	1.305517	0.000154
 296	2.9352e+01	11.7574	41.205026	0.000345	3.447647	1.168095	0.000138
 297	2.9452e+01	11.7863	41.358437	0.000385	3.853253	1.305517	0.000154
 298	2.9552e+01	11.8248	41.475514	0.000294	2.940640	0.996316	0.000118
 299	2.9651e+01	11.8729	41.669297	0.000487	4.867267	1.649075	0.000195
 300	2.9750e+01	11.9211	41.798485	0.000324	3.244845	1.099383	0.000130
 301	2.9850e+01	11.9531	41.935747	0.000345	3.447647	1.168095	0.000138
 302	2.9950e+01	11.9916	42.137604	0.000507	5.070070	1.717786	0.000203
 303	3.0049e+01	12.0253	42.262755	0.000314	3.143443	1.065027	0.000126
 304	3.0148e+01	12.0638	42.424241	0.000406	4.056056	1.374229	0.000162
 305	3.0248e+01	12.1136	42.541318	0.000294	2.940640	0.996316	0.000118
 306	3.0348e+01	12.1473	42.710878	0.000426	4.258859	1.442940	0.000170
 307	3.0447e+01	12.1986	42.872363	0.000406	4.056056	1.374229	0.000162
 308	3.0547e+01	12.2307	43.001551	0.000324	3.244845	1.099383	0.000130
 309	3.0646e+01	12.2724	43.171111	0.000426	4.258859	1.442940	0.000170
 310	3.0745e+01	12.3141	43.284151	0.000284	2.839239	0.961960	0.000114
 311	3.0845e+01	12.3462	43.469859	0.000466	4.664464	1.580363	0.000187
 312	3.0945e+01	12.3959	43.607122	0.000345	3.447647	1.168095	0.000138
 313	3.1044e+01	12.4328	43.756496	0.000375	3.751852	1.271162	0.000150
 314	3.1143e+01	12.4697	43.922018	0.000416	4.157457	1.408585	0.000166
 315	3.1243e+01	12.5082	44.095615	0.000436	4.360260	1.477296	0.000174
 316	3.1343e+01	12.5435	44.220766	0.000314	3.143443	1.065027	0.000126
 317	3.1442e+01	12.5868	44.382252	0.000406	4.056056	1.374229	0.000162
 318	3.1541e+01	12.6285	44.551811	0.000426	4.258859	1.442940	0.000170
 319	3.1641e+01	12.6750	44.693111	0.000355	3.549049	1.202450	0.000142
 320	3.1741e+01	12.7055	44.826337	0.000335	3.346246	1.133739	0.000134
 321	3.1840e+01	12.7488	44.983785	0.000395	3.954654	1.339873	0.000158
 322	3.1939e+01	12.7873	45.141233	0.000395	3.954654	1.339873	0.000158
 323	3.2039e+01	12.8307	45.274459	0.000335	3.346246	1.133739	0.000134
 324	3.2139e+01	12.8676	45.395573	0.000304	3.042042	1.030672	0.000122
 325	3.2238e+01	12.9093	45.569170	0.000436	4.360260	1.477296	0.000174
 326	3.2337e+01	12.9558	45.738729	0.000426	4.258859	1.442940	0.000170
 327	3.2437e+01	12.9782	45.871955	0.000335	3.346246	1.133739	0.000134
 328	3.2536e+01	13.0280	46.005180	0.000335	3.346246	1.133739	0.000134
 329	3.2636e+01	13.0601	46.138406	0.000335	3.346246	1.133739	0.000134
 330	3.2736e+01	13.1098	46.324114	0.000466	4.664464	1.580363	0.000187
 331	3.2835e+01	13.1451	46.461377	0.000345	3.447647	1.168095	0.000138
 332	3.2934e+01	13.1852	46.622862	0.000406	4.056056	1.374229	0.000162
 333	3.3034e+01	13.2221	46.756088	0.000335	3.346246	1.133739	0.000134
 334	3.3133e+01	13.2622	46.897387	0.000355	3.549049	1.202450	0.000142
 335	3.3233e+01	13.3055	47.050798	0.000385	3.853253	1.305517	0.000154
 336	3.3333e+01	13.3504	47.220358	0.000426	4.258859	1.442940	0.000170
 337	3.3432e+01	13.3777	47.373769	0.000385	3.853253	1.305517	0.000154
 338	3.3532e+01	13.4258	47.502958	0.000324	3.244845	1.099383	0.000130
 339	3.3631e+01	13.4659	47.632146	0.000324	3.244845	1.099383	0.000130
 340	3.3730e+01	13.5044	47.761334	0.000324	3.244845	1.099383	0.000130
 341	3.3830e+01	13.5429	47.930894	0.000426	4.258859	1.442940	0.000170
 342	3.3929e+01	13.5814	48.132751	0.000507	5.070070	1.717786	0.000203
 343	3.4029e+01	13.6183	48.282125	0.000375	3.751852	1.271162	0.000150
 344	3.4129e+01	13.6584	48.423425	0.000355	3.549049	1.202450	0.000142
 345	3.4228e+01	13.6969	48.528390	0.000264	2.636436	0.893249	0.000105
 346	3.4328e+01	13.7451	48.689876	0.000406	4.056056	1.374229	0.000162
 347	3.4427e+01	13.7836	48.831175	0.000355	3.549049	1.202450	0.000142
 348	3.4526e+01	13.8157	48.984586	0.000385	3.853253	1.305517	0.000154
 349	3.4626e+01	13.8686	49.129923	0.000365	3.650450	1.236806	0.000146
 350	3.4725e+01	13.9023	49.299483	0.000426	4.258859	1.442940	0.000170
 351	3.4825e+01	13.9376	49.412523	0.000284	2.839239	0.961960	0.000114
 352	3.4925e+01	13.9761	49.561897	0.000375	3.751852	1.271162	0.000150
 353	3.5024e+01	14.0210	49.707234	0.000365	3.650450	1.236806	0.000146
 354	3.5123e+01	14.0499	49.888905	0.000456	4.563063	1.546007	0.000183
 355	3.5223e+01	14.1028	50.034242	0.000365	3.650450	1.236806	0.000146
 356	3.5322e+01	14.1381	50.215913	0.000456	4.563063	1.546007	0.000183
 357	3.5422e+01	14.1766	50.320878	0.000264	2.636436	0.893249	0.000105
 358	3.5522e+01	14.2167	50.458141	0.000345	3.447647	1.168095	0.000138
 359	3.5621e+01	14.2536	50.619626	0.000406	4.056056	1.374229	0.000162
 360	3.5721e+01	14.3017	50.748815	0.000324	3.244845	1.099383	0.000130
 361	3.5820e+01	14.3515	50.898189	0.000375	3.751852	1.271162	0.000150
 362	3.5919e+01	14.3868	51.071786	0.000436	4.360260	1.477296	0.000174
 363	3.6019e+01	14.4156	51.205011	0.000335	3.346246	1.133739	0.000134
 364	3.6118e+01	14.4573	51.390719	0.000466	4.664464	1.580363	0.000187
 365	3.6218e+01	14.5023	51.532019	0.000355	3.549049	1.202450	0.000142
 366	3.6318e+01	14.5424	51.665245	0.000335	3.346246	1.133739	0.000134
 367	3.6417e+01	14.5857	51.802507	0.000345	3.447647	1.168095	0.000138
 368	3.6517e+01	14.6258	51.943807	0.000355	3.549049	1.202450	0.000142
 369	3.6616e+01	14.6579	52.157775	0.000537	5.374274	1.820853	0.000215
 370	3.6715e+01	14.6996	52.303112	0.000365	3.650450	1.236806	0.000146
 371	3.6815e+01	14.7461	52.387892	0.000213	2.129429	0.721470	0.000085
 372	3.6914e+01	14.7734	52.577637	0.000477	4.765866	1.614719	0.000191
 373	3.7014e+01	14.8119	52.718937	0.000355	3.549049	1.202450	0.000142
 374	3.7114e+01	14.8536	52.900608	0.000456	4.563063	1.546007	0.000183
 375	3.7213e+01	14.9033	53.037871	0.000345	3.447647	1.168095	0.000138
 376	3.7313e+01	14.9418	53.207430	0.000426	4.258859	1.442940	0.000170
 377	3.7412e+01	14.9723	53.352767	0.000365	3.650450	1.236806	0.000146
 378	3.7511e+01	15.0220	53.514253	0.000406	4.056056	1.374229	0.000162
 379	3.7611e+01	15.0541	53.627293	0.000284	2.839239	0.961960	0.000114
 380	3.7711e+01	15.0926	53.817038	0.000477	4.765866	1.614719	0.000191
 381	3.7810e+01	15.1343	53.962375	0.000365	3.650450	1.236806	0.000146
 382	3.7910e+01	15.1760	54.095600	0.000335	3.346246	1.133739	0.000134
 383	3.8009e+01	15.2161	54.244974	0.000375	3.751852	1.271162	0.000150
 384	3.8108e+01	15.2530	54.382237	0.000345	3.447647	1.168095	0.000138
 385	3.8208e+01	15.2948	54.527574	0.000365	3.650450	1.236806	0.000146
 386	3.8307e+01	15.3300	54.697134	0.000426	4.258859	1.442940	0.000170
 387	3.8407e+01	15.3798	54.854582	0.000395	3.954654	1.339873	0.000158
 388	3.8507e+01	15.4167	54.979733	0.000314	3.143443	1.065027	0.000126
 389	3.8606e+01	15.4648	55.133144	0.000385	3.853253	1.305517	0.000154
 390	3.8706e+01	15.4937	55.302704	0.000426	4.258859	1.442940	0.000170
 391	3.8805e+01	15.5290	55.448041	0.000365	3.650450	1.236806	0.000146
 392	3.8904e+01	15.5755	55.609526	0.000406	4.056056	1.374229	0.000162
 393	3.9004e+01	15.6204	55.738715	0.000324	3.244845	1.099383	0.000130
 394	3.9103e+01	15.6493	55.859829	0.000304	3.042042	1.030672	0.000122
 395	3.9203e+01	15.6942	56.029388	0.000426	4.258859	1.442940	0.000170
 396	3.9303e+01	15.7279	56.150502	0.000304	3.042042	1.030672	0.000122
 397	3.9402e+01	15.7712	56.328136	0.000446	4.461661	1.511652	0.000179
 398	3.9502e+01	15.8145	56.493659	0.000416	4.157457	1.408585	0.000166
 399	3.9601e+01	15.8498	56.594587	0.000254	2.535035	0.858893	0.000101
 400	3.9700e+01	15.8963	56.796444	0.000507	5.070070	1.717786	0.000203
 401	3.9800e+01	15.9316	56.937744	0.000355	3.549049	1.202450	0.000142
 402	3.9900e+01	15.9653	57.083081	0.000365	3.650450	1.236806	0.000146
 403	3.9999e+01	16.0102	57.224381	0.000355	3.549049	1.202450	0.000142
 404	4.0099e+01	16.0584	57.369717	0.000365	3.650450	1.236806	0.000146
 405	4.0198e+01	16.0905	57.470646	0.000254	2.535035	0.858893	0.000101
 406	4.0297e+01	16.1274	57.644243	0.000436	4.360260	1.477296	0.000174
 407	4.0397e+01	16.1787	57.789580	0.000365	3.650450	1.236806	0.000146
 408	4.0496e+01	16.2076	57.926842	0.000345	3.447647	1.168095	0.000138
 409	4.0596e+01	16.2477	58.080253	0.000385	3.853253	1.305517	0.000154
 410	4.0696e+01	16.2942	58.269999	0.000477	4.765866	1.614719	0.000191
 411	4.0795e+01	16.3327	58.391113	0.000304	3.042042	1.030672	0.000122
 412	4.0895e+01	16.3760	58.536450	0.000365	3.650450	1.236806	0.000146
 413	4.0994e+01	16.4097	58.681787	0.000365	3.650450	1.236806	0.000146
 414	4.1093e+01	16.4530	58.831161	0.000375	3.751852	1.271162	0.000150
 415	4.1193e+01	16.4915	58.976497	0.000365	3.650450	1.236806	0.000146
 416	4.1292e+01	16.5284	59.113760	0.000345	3.447647	1.168095	0.000138
 417	4.1392e+01	16.5765	59.299468	0.000466	4.664464	1.580363	0.000187
 418	4.1492e+01	16.6038	59.436731	0.000345	3.447647	1.168095	0.000138
 419	4.1591e+01	16.6471	59.578031	0.000355	3.549049	1.202450	0.000142
 420	4.1691e+01	16.6969	59.711256	0.000335	3.346246	1.133739	0.000134
 421	4.1790e+01	16.7193	59.888890	0.000446	4.461661	1.511652	0.000179
 422	4.1889e+01	16.7674	60.046338	0.000395	3.954654	1.339873	0.000158
 423	4.1989e+01	16.8059	60.187638	0.000355	3.549049	1.202450	0.000142
 424	4.2089e+01	16.8477	60.328938	0.000355	3.549049	1.202450	0.000142
 425	4.2188e+01	16.8862	60.478312	0.000375	3.751852	1.271162	0.000150
 426	4.2288e+01	16.9247	60.639797	0.000406	4.056056	1.374229	0.000162
 427	4.2387e+01	16.9696	60.748800	0.000274	2.737838	0.927604	0.000110
 428	4.2486e+01	17.0129	60.922397	0.000436	4.360260	1.477296	0.000174
 429	4.2586e+01	17.0450	61.015251	0.000233	2.332232	0.790182	0.000093
 430	4.2685e+01	17.0835	61.184811	0.000426	4.258859	1.442940	0.000170
 431	4.2785e+01	17.1140	61.354370	0.000426	4.258859	1.442940	0.000170
 432	4.2885e+01	17.1685	61.479522	0.000314	3.143443	1.065027	0.000126
 433	4.2984e+01	17.2086	61.661193	0.000456	4.563063	1.546007	0.000183
 434	4.3084e+01	17.2407	61.818641	0.000395	3.954654	1.339873	0.000158
 435	4.3183e+01	17.2808	61.951866	0.000335	3.346246	1.133739	0.000134
 436	4.3282e+01	17.3289	62.117389	0.000416	4.157457	1.408585	0.000166
 437	4.3382e+01	17.3642	62.222355	0.000264	2.636436	0.893249	0.000105
 438	4.3481e+01	17.4091	62.359617	0.000345	3.447647	1.168095	0.000138
 439	4.3581e+01	17.4460	62.553400	0.000487	4.867267	1.649075	0.000195
 440	4.3681e+01	17.4861	62.686625	0.000335	3.346246	1.133739	0.000134
 441	4.3780e+01	17.5246	62.840036	0.000385	3.853253	1.305517	0.000154
 442	4.3880e+01	17.5663	62.945002	0.000264	2.636436	0.893249	0.000105
 443	4.3979e+01	17.6145	63.122636	0.000446	4.461661	1.511652	0.000179
 444	4.4078e+01	17.6417	63.247787	0.000314	3.143443	1.065027	0.000126
 445	4.4178e+01	17.6883	63.421384	0.000436	4.360260	1.477296	0.000174
 446	4.4278e+01	17.7236	63.574795	0.000385	3.853253	1.305517	0.000154
 447	4.4377e+01	17.7621	63.708021	0.000335	3.346246	1.133739	0.000134
 448	4.4477e+01	17.8038	63.861432	0.000385	3.853253	1.305517	0.000154
 449	4.4576e+01	17.8503	63.946212	0.000213	2.129429	0.721470	0.000085
 450	4.4675e+01	17.8792	64.103660	0.000395	3.954654	1.339873	0.000158
 451	4.4775e+01	17.9257	64.261108	0.000395	3.954654	1.339873	0.000158
 452	4.4874e+01	17.9738	64.442779	0.000456	4.563063	1.546007	0.000183
 453	4.4974e+01	17.9979	64.563893	0.000304	3.042042	1.030672	0.000122
 454	4.5074e+01	18.0332	64.680970	0.000294	2.940640	0.996316	0.000118
 455	4.5173e+01	18.0797	64.838419	0.000395	3.954654	1.339873	0.000158
 456	4.5273e+01	18.1230	64.999904	0.000406	4.056056	1.374229	0.000162
 457	4.5372e+01	18.1663	65.145241	0.000365	3.650450	1.236806	0.000146
 458	4.5471e+01	18.2080	65.266355	0.000304	3.042042	1.030672	0.000122
 459	4.5571e+01	18.2514	65.431877	0.000416	4.157457	1.408585	0.000166
 460	4.5670e+01	18.2899	65.532806	0.000254	2.535035	0.858893	0.000101
 461	4.5770e+01	18.3284	65.698328	0.000416	4.157457	1.408585	0.000166
 462	4.5870e+01	18.3572	65.859814	0.000406	4.056056	1.374229	0.000162
 463	4.5969e+01	18.4038	65.948631	0.000223	2.230831	0.755826	0.000089
 464	4.6069e+01	18.4423	66.114153	0.000416	4.157457	1.408585	0.000166
 465	4.6168e+01	18.4872	66.263527	0.000375	3.751852	1.271162	0.000150
 466	4.6267e+01	18.5241	66.400790	0.000345	3.447647	1.168095	0.000138
 467	4.6367e+01	18.5578	66.525941	0.000314	3.143443	1.065027	0.000126
 468	4.6467e+01	18.6043	66.727798	0.000507	5.070070	1.717786	0.000203
 469	4.6566e+01	18.6444	66.852949	0.000314	3.143443	1.065027	0.000126
 470	4.6666e+01	18.6893	66.998286	0.000365	3.650450	1.236806	0.000146
 471	4.6765e+01	18.7134	67.099215	0.000254	2.535035	0.858893	0.000101
 472	4.6864e+01	18.7631	67.301071	0.000507	5.070070	1.717786	0.000203
 473	4.6964e+01	18.8064	67.402000	0.000254	2.535035	0.858893	0.000101
 474	4.7063e+01	18.8562	67.591745	0.000477	4.765866	1.614719	0.000191
 475	4.7163e+01	18.8802	67.708822	0.000294	2.940640	0.996316	0.000118
 476	4.7263e+01	18.9219	67.858196	0.000375	3.751852	1.271162	0.000150
 477	4.7362e+01	18.9460	67.991422	0.000335	3.346246	1.133739	0.000134
 478	4.7462e+01	18.9989	68.144833	0.000385	3.853253	1.305517	0.000154
 479	4.7561e+01	19.0519	68.290170	0.000365	3.650450	1.236806	0.000146
 480	4.7660e+01	19.0743	68.431469	0.000355	3.549049	1.202450	0.000142
 481	4.7760e+01	19.1225	68.556621	0.000314	3.143443	1.065027	0.000126
 482	4.7859e+01	19.1610	68.705995	0.000375	3.751852	1.271162	0.000150
 483	4.7959e+01	19.1962	68.871517	0.000416	4.157457	1.408585	0.000166
 484	4.8059e+01	19.2444	69.028965	0.000395	3.954654	1.339873	0.000158
 485	4.8158e+01	19.2797	69.129894	0.000254	2.535035	0.858893	0.000101
 486	4.8258e+01	19.3150	69.323676	0.000487	4.867267	1.649075	0.000195
 487	4.8357e+01	19.3567	69.432679	0.000274	2.737838	0.927604	0.000110
 488	4.8456e+01	19.4080	69.545719	0.000284	2.839239	0.961960	0.000114
 489	4.8556e+01	19.4337	69.719316	0.000436	4.360260	1.477296	0.000174
 490	4.8656e+01	19.4722	69.856578	0.000345	3.447647	1.168095	0.000138
 491	4.8755e+01	19.5203	69.993841	0.000345	3.447647	1.168095	0.000138
 492	4.8855e+01	19.5684	70.139178	0.000365	3.650450	1.236806	0.000146
 493	4.8954e+01	19.5925	70.288552	0.000375	3.751852	1.271162	0.000150
 494	4.9053e+01	19.6390	70.450037	0.000406	4.056056	1.374229	0.000162
 495	4.9153e+01	19.6711	70.607485	0.000395	3.954654	1.339873	0.000158
 496	4.9252e+01	19.7080	70.712451	0.000264	2.636436	0.893249	0.000105
 497	4.9352e+01	19.7561	70.845676	0.000335	3.346246	1.133739	0.000134
 498	4.9452e+01	19.7994	70.978902	0.000335	3.346246	1.133739	0.000134
 499	4.9551e+01	19.8347	71.140387	0.000406	4.056056	1.374229	0.000162
 500	4.9651e+01	19.8829	71.313984	0.000436	4.360260	1.477296	0.000174
 501	4.9750e+01	19.9133	71.451247	0.000345	3.447647	1.168095	0.000138
 502	4.9849e+01	19.9631	71.612732	0.000406	4.056056	1.374229	0.000162
 503	4.9949e+01	19.9952	71.721735	0.000274	2.737838	0.927604	0.000110
 504	5.0048e+01	19.9534	71.620807	0.000254	2.535035	0.858893	-0.000101
 505	5.0148e+01	19.9166	71.544101	0.000193	1.926626	0.652759	-0.000077
 506	5.0248e+01	19.8732	71.414913	0.000324	3.244845	1.099383	-0.000130
 507	5.0347e+01	19.8347	71.313984	0.000254	2.535035	0.858893	-0.000101
 508	5.0447e+01	19.7994	71.209019	0.000264	2.636436	0.893249	-0.000105
 509	5.0546e+01	19.7577	71.104053	0.000264	2.636436	0.893249	-0.000105
 510	5.0645e+01	19.7176	70.938531	0.000416	4.157457	1.408585	-0.000166
 511	5.0745e+01	19.6807	70.877974	0.000152	1.521021	0.515336	-0.000061
 512	5.0844e+01	19.6374	70.736674	0.000355	3.549049	1.202450	-0.000142
 513	5.0944e+01	19.5941	70.631708	0.000264	2.636436	0.893249	-0.000105
 514	5.1044e+01	19.5524	70.494446	0.000345	3.447647	1.168095	-0.000138
 515	5.1143e+01	19.5235	70.385443	0.000274	2.737838	0.927604	-0.000110
 516	5.1242e+01	19.4818	70.272403	0.000284	2.839239	0.961960	-0.000114
 517	5.1342e+01	19.4433	70.139178	0.000335	3.346246	1.133739	-0.000134
 518	5.1441e+01	19.3968	70.042286	0.000243	2.433633	0.824537	-0.000097
 519	5.1541e+01	19.3583	69.921172	0.000304	3.042042	1.030672	-0.000122
 520	5.1641e+01	19.3262	69.816207	0.000264	2.636436	0.893249	-0.000105
 521	5.1740e+01	19.2845	69.670870	0.000365	3.650450	1.236806	-0.000146
 522	5.1840e+01	19.2412	69.565904	0.000264	2.636436	0.893249	-0.000105
 523	5.1939e+01	19.1979	69.473050	0.000233	2.332232	0.790182	-0.000093
 524	5.2038e+01	19.1561	69.327713	0.000365	3.650450	1.236806	-0.000146
 525	5.2138e+01	19.1209	69.198525	0.000324	3.244845	1.099383	-0.000130
 526	5.2237e+01	19.0840	69.105671	0.000233	2.332232	0.790182	-0.000093
 527	5.2337e+01	19.0406	68.968408	0.000345	3.447647	1.168095	-0.000138
 528	5.2437e+01	18.9989	68.879591	0.000223	2.230831	0.755826	-0.000089
 529	5.2536e+01	18.9604	68.718106	0.000406	4.056056	1.374229	-0.000162
 530	5.2636e+01	18.9267	68.629289	0.000223	2.230831	0.755826	-0.000089
 531	5.2735e+01	18.8866	68.508175	0.000304	3.042042	1.030672	-0.000122
 532	5.2834e+01	18.8449	68.411284	0.000243	2.433633	0.824537	-0.000097
 533	5.2934e+01	18.8016	68.245761	0.000416	4.157457	1.408585	-0.000166
 534	5.3033e+01	18.7599	68.152907	0.000233	2.332232	0.790182	-0.000093
 535	5.3133e+01	18.7214	68.043904	0.000274	2.737838	0.927604	-0.000110
 536	5.3233e+01	18.6877	67.902605	0.000355	3.549049	1.202450	-0.000142
 537	5.3332e+01	18.6380	67.765342	0.000345	3.447647	1.168095	-0.000138
 538	5.3431e+01	18.5915	67.640191	0.000314	3.143443	1.065027	-0.000126
 539	5.3531e+01	18.5658	67.555411	0.000213	2.129429	0.721470	-0.000085
 540	5.3630e+01	18.5209	67.389888	0.000416	4.157457	1.408585	-0.000166
 541	5.3730e+01	18.4776	67.284923	0.000264	2.636436	0.893249	-0.000105
 542	5.3830e+01	18.4471	67.179957	0.000264	2.636436	0.893249	-0.000105
 543	5.3929e+01	18.4006	67.062880	0.000294	2.940640	0.996316	-0.000118
 544	5.4029e+01	18.3620	66.974063	0.000223	2.230831	0.755826	-0.000089
 545	5.4128e+01	18.3187	66.808541	0.000416	4.157457	1.408585	-0.000166
 546	5.4227e+01	18.2818	66.731835	0.000193	1.926626	0.652759	-0.000077
 547	5.4327e+01	18.2385	66.594573	0.000345	3.447647	1.168095	-0.000138
 548	5.4426e+01	18.2048	66.481533	0.000284	2.839239	0.961960	-0.000114
 549	5.4526e+01	18.1679	66.328122	0.000385	3.853253	1.305517	-0.000154
 550	5.4626e+01	18.1278	66.190859	0.000345	3.447647	1.168095	-0.000138
 551	5.4725e+01	18.0990	66.130302	0.000152	1.521021	0.515336	-0.000061
 552	5.4825e+01	18.0444	65.976891	0.000385	3.853253	1.305517	-0.000154
 553	5.4924e+01	18.0155	65.859814	0.000294	2.940640	0.996316	-0.000118
 554	5.5023e+01	17.9642	65.694291	0.000416	4.157457	1.408585	-0.000166
 555	5.5123e+01	17.9241	65.597400	0.000243	2.433633	0.824537	-0.000097
 556	5.5222e+01	17.8808	65.484360	0.000284	2.839239	0.961960	-0.000114
 557	5.5322e+01	17.8487	65.371320	0.000284	2.839239	0.961960	-0.000114
 558	5.5422e+01	17.8086	65.205798	0.000416	4.157457	1.408585	-0.000166
 559	5.5521e+01	17.7669	65.088721	0.000294	2.940640	0.996316	-0.000118
 560	5.5620e+01	17.7364	64.947421	0.000355	3.549049	1.202450	-0.000142
 561	5.5720e+01	17.6819	64.846493	0.000254	2.535035	0.858893	-0.000101
 562	5.5819e+01	17.6498	64.725379	0.000304	3.042042	1.030672	-0.000122
 563	5.5919e+01	17.5984	64.596190	0.000324	3.244845	1.099383	-0.000130
 564	5.6019e+01	17.5663	64.462965	0.000335	3.346246	1.133739	-0.000134
 565	5.6118e+01	17.5278	64.337814	0.000314	3.143443	1.065027	-0.000126
 566	5.6218e+01	17.4893	64.240922	0.000243	2.433633	0.824537	-0.000097
 567	5.6317e+01	17.4444	64.087511	0.000385	3.853253	1.305517	-0.000154
 568	5.6416e+01	17.4075	63.930063	0.000395	3.954654	1.339873	-0.000158
 569	5.6516e+01	17.3658	63.829135	0.000254	2.535035	0.858893	-0.000101
 570	5.6615e+01	17.3369	63.687835	0.000355	3.549049	1.202450	-0.000142
 571	5.6715e+01	17.2760	63.562684	0.000314	3.143443	1.065027	-0.000126
 572	5.6815e+01	17.2519	63.441570	0.000304	3.042042	1.030672	-0.000122
 573	5.6914e+01	17.1942	63.328530	0.000284	2.839239	0.961960	-0.000114
 574	5.7014e+01	17.1701	63.211453	0.000294	2.940640	0.996316	-0.000118
 575	5.7113e+01	17.1300	63.086302	0.000314	3.143443	1.065027	-0.000126
 576	5.7212e+01	17.0851	62.932890	0.000385	3.853253	1.305517	-0.000154
 577	5.7312e+01	17.0546	62.823888	0.000274	2.737838	0.927604	-0.000110
 578	5.7411e+01	17.0097	62.690662	0.000335	3.346246	1.133739	-0.000134
 579	5.7511e+01	16.9632	62.549363	0.000355	3.549049	1.202450	-0.000142
 580	5.7611e+01	16.9343	62.472657	0.000193	1.926626	0.652759	-0.000077
 581	5.7710e+01	16.8926	62.266763	0.000517	5.171471	1.752142	-0.000207
 582	5.7809e+01	16.8525	62.173909	0.000233	2.332232	0.790182	-0.000093
 583	5.7909e+01	16.8156	62.064906	0.000274	2.737838	0.927604	-0.000110
 584	5.8008e+01	16.7771	61.891309	0.000436	4.360260	1.477296	-0.000174
 585	5.8108e+01	16.7321	61.745973	0.000365	3.650450	1.236806	-0.000146
 586	5.8208e+01	16.6840	61.657156	0.000223	2.230831	0.755826	-0.000089
 587	5.8307e+01	16.6519	61.560264	0.000243	2.433633	0.824537	-0.000097
 588	5.8407e+01	16.6102	61.406853	0.000385	3.853253	1.305517	-0.000154
 589	5.8506e+01	16.5669	61.269591	0.000345	3.447647	1.168095	-0.000138
 590	5.8605e+01	16.5428	61.144439	0.000314	3.143443	1.065027	-0.000126
 591	5.8705e+01	16.4835	60.999102	0.000365	3.650450	1.236806	-0.000146
 592	5.8804e+01	16.4530	60.873951	0.000314	3.143443	1.065027	-0.000126
 593	5.8904e+01	16.4033	60.732651	0.000355	3.549049	1.202450	-0.000142
 594	5.9004e+01	16.3648	60.619612	0.000284	2.839239	0.961960	-0.000114
 595	5.9103e+01	16.3311	60.486386	0.000335	3.346246	1.133739	-0.000134
 596	5.9203e+01	16.2926	60.373346	0.000284	2.839239	0.961960	-0.000114
 597	5.9302e+01	16.2461	60.252232	0.000304	3.042042	1.030672	-0.000122
 598	5.9401e+01	16.2140	60.098821	0.000385	3.853253	1.305517	-0.000154
 599	5.9501e+01	16.1739	59.957521	0.000355	3.549049	1.202450	-0.000142
 600	5.9600e+01	16.1402	59.820259	0.000345	3.447647	1.168095	-0.000138
 601	5.9700e+01	16.0937	59.731442	0.000223	2.230831	0.755826	-0.000089
 602	5.9800e+01	16.0503	59.598216	0.000335	3.346246	1.133739	-0.000134
 603	5.9899e+01	16.0118	59.452879	0.000365	3.650450	1.236806	-0.000146
 604	5.9998e+01	15.9733	59.335803	0.000294	2.940640	0.996316	-0.000118
 605	6.0098e+01	15.9397	59.210651	0.000314	3.143443	1.065027	-0.000126
 606	6.0197e+01	15.8963	59.057240	0.000385	3.853253	1.305517	-0.000154
 607	6.0297e+01	15.8514	58.940163	0.000294	2.940640	0.996316	-0.000118
 608	6.0397e+01	15.8145	58.831161	0.000274	2.737838	0.927604	-0.000110
 609	6.0496e+01	15.7744	58.673712	0.000395	3.954654	1.339873	-0.000158
 610	6.0596e+01	15.7343	58.548561	0.000314	3.143443	1.065027	-0.000126
 611	6.0695e+01	15.6958	58.431484	0.000294	2.940640	0.996316	-0.000118
 612	6.0794e+01	15.6493	58.278073	0.000385	3.853253	1.305517	-0.000154
 613	6.0894e+01	15.6220	58.152922	0.000314	3.143443	1.065027	-0.000126
 614	6.0993e+01	15.5771	58.011622	0.000355	3.549049	1.202450	-0.000142
 615	6.1093e+01	15.5274	57.882434	0.000324	3.244845	1.099383	-0.000130
 616	6.1193e+01	15.4921	57.761320	0.000304	3.042042	1.030672	-0.000122
 617	6.1292e+01	15.4584	57.624057	0.000345	3.447647	1.168095	-0.000138
 618	6.1392e+01	15.4151	57.482757	0.000355	3.549049	1.202450	-0.000142
 619	6.1491e+01	15.3686	57.301086	0.000456	4.563063	1.546007	-0.000183
 620	6.1590e+01	15.3349	57.184009	0.000294	2.940640	0.996316	-0.000118
 621	6.1690e+01	15.2948	57.083081	0.000254	2.535035	0.858893	-0.000101
 622	6.1789e+01	15.2546	56.909484	0.000436	4.360260	1.477296	-0.000174
 623	6.1889e+01	15.2258	56.772221	0.000345	3.447647	1.168095	-0.000138
 624	6.1989e+01	15.1712	56.647070	0.000314	3.143443	1.065027	-0.000126
 625	6.2088e+01	15.1295	56.525956	0.000304	3.042042	1.030672	-0.000122
 626	6.2188e+01	15.0878	56.376582	0.000375	3.751852	1.271162	-0.000150
 627	6.2287e+01	15.0541	56.211059	0.000416	4.157457	1.408585	-0.000166
 628	6.2386e+01	15.0140	56.118205	0.000233	2.332232	0.790182	-0.000093
 629	6.2486e+01	14.9755	55.944608	0.000436	4.360260	1.477296	-0.000174
 630	6.2586e+01	14.9370	55.827532	0.000294	2.940640	0.996316	-0.000118
 631	6.2685e+01	14.9033	55.682195	0.000365	3.650450	1.236806	-0.000146
 632	6.2785e+01	14.8616	55.544932	0.000345	3.447647	1.168095	-0.000138
 633	6.2884e+01	14.8135	55.391521	0.000385	3.853253	1.305517	-0.000154
 634	6.2983e+01	14.7670	55.290593	0.000254	2.535035	0.858893	-0.000101
 635	6.3083e+01	14.7349	55.129107	0.000406	4.056056	1.374229	-0.000162
 636	6.3182e+01	14.7012	55.003956	0.000314	3.143443	1.065027	-0.000126
 637	6.3282e+01	14.6547	54.834396	0.000426	4.258859	1.442940	-0.000170
 638	6.3382e+01	14.6258	54.725393	0.000274	2.737838	0.927604	-0.000110
 639	6.3481e+01	14.5729	54.584094	0.000355	3.549049	1.202450	-0.000142
 640	6.3581e+01	14.5392	54.458943	0.000314	3.143443	1.065027	-0.000126
 641	6.3680e+01	14.4991	54.329754	0.000324	3.244845	1.099383	-0.000130
 642	6.3779e+01	14.4606	54.192492	0.000345	3.447647	1.168095	-0.000138
 643	6.3879e+01	14.4108	54.035043	0.000395	3.954654	1.339873	-0.000158
 644	6.3978e+01	14.3739	53.950263	0.000213	2.129429	0.721470	-0.000085
 645	6.4078e+01	14.3418	53.788778	0.000406	4.056056	1.374229	-0.000162
 646	6.4177e+01	14.3017	53.619218	0.000426	4.258859	1.442940	-0.000170
 647	6.4277e+01	14.2584	53.485993	0.000335	3.346246	1.133739	-0.000134
 648	6.4376e+01	14.2167	53.372953	0.000284	2.839239	0.961960	-0.000114
 649	6.4476e+01	14.1734	53.239728	0.000335	3.346246	1.133739	-0.000134
 650	6.4576e+01	14.1349	53.070168	0.000426	4.258859	1.442940	-0.000170
 651	6.4675e+01	14.0980	52.920794	0.000375	3.751852	1.271162	-0.000150
 652	6.4775e+01	14.0643	52.840051	0.000203	2.028028	0.687114	-0.000081
 653	6.4874e+01	14.0194	52.686640	0.000385	3.853253	1.305517	-0.000154
 654	6.4974e+01	13.9841	52.525155	0.000406	4.056056	1.374229	-0.000162
 655	6.5073e+01	13.9440	52.432300	0.000233	2.332232	0.790182	-0.000093
 656	6.5172e+01	13.9071	52.270815	0.000406	4.056056	1.374229	-0.000162
 657	6.5272e+01	13.8606	52.129515	0.000355	3.549049	1.202450	-0.000142
 658	6.5371e+01	13.8173	51.984178	0.000365	3.650450	1.236806	-0.000146
 659	6.5471e+01	13.7755	51.871139	0.000284	2.839239	0.961960	-0.000114
 660	6.5570e+01	13.7435	51.750024	0.000304	3.042042	1.030672	-0.000122
 661	6.5670e+01	13.6937	51.568353	0.000456	4.563063	1.546007	-0.000183
 662	6.5769e+01	13.6633	51.431091	0.000345	3.447647	1.168095	-0.000138
 663	6.5869e+01	13.6247	51.281717	0.000375	3.751852	1.271162	-0.000150
 664	6.5969e+01	13.5798	51.176751	0.000264	2.636436	0.893249	-0.000105
 665	6.6068e+01	13.5349	51.027377	0.000375	3.751852	1.271162	-0.000150
 666	6.6168e+01	13.5012	50.869929	0.000395	3.954654	1.339873	-0.000158
 667	6.6267e+01	13.4547	50.736703	0.000335	3.346246	1.133739	-0.000134
 668	6.6367e+01	13.4242	50.615589	0.000304	3.042042	1.030672	-0.000122
 669	6.6466e+01	13.3729	50.466215	0.000375	3.751852	1.271162	-0.000150
 670	6.6566e+01	13.3472	50.300693	0.000416	4.157457	1.408585	-0.000166
 671	6.6665e+01	13.3103	50.175542	0.000314	3.143443	1.065027	-0.000126
 672	6.6764e+01	13.2638	50.098836	0.000193	1.926626	0.652759	-0.000077
 673	6.6864e+01	13.2221	49.892942	0.000517	5.171471	1.752142	-0.000207
 674	6.6963e+01	13.1820	49.783939	0.000274	2.737838	0.927604	-0.000110
 675	6.7063e+01	13.1563	49.598231	0.000466	4.664464	1.580363	-0.000187
 676	6.7162e+01	13.1098	49.493266	0.000264	2.636436	0.893249	-0.000105
 677	6.7262e+01	13.0649	49.343892	0.000375	3.751852	1.271162	-0.000150
 678	6.7362e+01	13.0264	49.210666	0.000335	3.346246	1.133739	-0.000134
 679	6.7461e+01	12.9847	49.069366	0.000355	3.549049	1.202450	-0.000142
 680	6.7561e+01	12.9430	48.956327	0.000284	2.839239	0.961960	-0.000114
 681	6.7660e+01	12.9093	48.778693	0.000446	4.461661	1.511652	-0.000179
 682	6.7760e+01	12.8643	48.649504	0.000324	3.244845	1.099383	-0.000130
 683	6.7859e+01	12.8194	48.540502	0.000274	2.737838	0.927604	-0.000110
 684	6.7959e+01	12.7922	48.387090	0.000385	3.853253	1.305517	-0.000154
 685	6.8058e+01	12.7537	48.217531	0.000426	4.258859	1.442940	-0.000170
 686	6.8157e+01	12.7135	48.088342	0.000324	3.244845	1.099383	-0.000130
 687	6.8257e+01	12.6702	47.951080	0.000345	3.447647	1.168095	-0.000138
 688	6.8356e+01	12.6333	47.789594	0.000406	4.056056	1.374229	-0.000162
 689	6.8456e+01	12.5916	47.640220	0.000375	3.751852	1.271162	-0.000150
 690	6.8555e+01	12.5531	47.523143	0.000294	2.940640	0.996316	-0.000118
 691	6.8655e+01	12.5098	47.385881	0.000345	3.447647	1.168095	-0.000138
 692	6.8754e+01	12.4633	47.232470	0.000385	3.853253	1.305517	-0.000154
 693	6.8854e+01	12.4376	47.123467	0.000274	2.737838	0.927604	-0.000110
 694	6.8954e+01	12.3879	46.945833	0.000446	4.461661	1.511652	-0.000179
 695	6.9053e+01	12.3478	46.800496	0.000365	3.650450	1.236806	-0.000146
 696	6.9153e+01	12.3045	46.651122	0.000375	3.751852	1.271162	-0.000150
 697	6.9252e+01	12.2756	46.525971	0.000314	3.143443	1.065027	-0.000126
 698	6.9352e+01	12.2259	46.408894	0.000294	2.940640	0.996316	-0.000118
 699	6.9451e+01	12.1922	46.320077	0.000223	2.230831	0.755826	-0.000089
 700	6.9550e+01	12.1521	46.118220	0.000507	5.070070	1.717786	-0.000203
 701	6.9650e+01	12.1104	46.017292	0.000254	2.535035	0.858893	-0.000101
 702	6.9749e+01	12.0702	45.867918	0.000375	3.751852	1.271162	-0.000150
 703	6.9849e+01	12.0221	45.714507	0.000385	3.853253	1.305517	-0.000154
 704	6.9948e+01	11.9852	45.569170	0.000365	3.650450	1.236806	-0.000146
 705	7.0048e+01	11.9435	45.439981	0.000324	3.244845	1.099383	-0.000130
 706	7.0147e+01	11.9146	45.302719	0.000345	3.447647	1.168095	-0.000138
 707	7.0247e+01	11.8713	45.149308	0.000385	3.853253	1.305517	-0.000154
 708	7.0347e+01	11.8392	45.020119	0.000324	3.244845	1.099383	-0.000130
 709	7.0446e+01	11.8007	44.899005	0.000304	3.042042	1.030672	-0.000122
 710	7.0546e+01	11.7478	44.737520	0.000406	4.056056	1.374229	-0.000162
 711	7.0645e+01	11.7189	44.608331	0.000324	3.244845	1.099383	-0.000130
 712	7.0745e+01	11.6708	44.503366	0.000264	2.636436	0.893249	-0.000105
 713	7.0844e+01	11.6227	44.305546	0.000497	4.968668	1.683430	-0.000199
 714	7.0944e+01	11.5938	44.184432	0.000304	3.042042	1.030672	-0.000122
 715	7.1043e+01	11.5537	44.071392	0.000284	2.839239	0.961960	-0.000114
 716	7.1142e+01	11.5232	43.905870	0.000416	4.157457	1.408585	-0.000166
 717	7.1242e+01	11.4815	43.780719	0.000314	3.143443	1.065027	-0.000126
 718	7.1341e+01	11.4302	43.623270	0.000395	3.954654	1.339873	-0.000158
 719	7.1441e+01	11.3949	43.477933	0.000365	3.650450	1.236806	-0.000146
 720	7.1540e+01	11.3564	43.316448	0.000406	4.056056	1.374229	-0.000162
 721	7.1640e+01	11.3163	43.219557	0.000243	2.433633	0.824537	-0.000097
 722	7.1740e+01	11.2697	43.066145	0.000385	3.853253	1.305517	-0.000154
 723	7.1839e+01	11.2296	42.892549	0.000436	4.360260	1.477296	-0.000174
 724	7.1939e+01	11.1975	42.791620	0.000254	2.535035	0.858893	-0.000101
 725	7.2038e+01	11.1606	42.630135	0.000406	4.056056	1.374229	-0.000162
 726	7.2138e+01	11.1173	42.444427	0.000466	4.664464	1.580363	-0.000187
 727	7.2237e+01	11.0788	42.335424	0.000274	2.737838	0.927604	-0.000110
 728	7.2337e+01	11.0307	42.186050	0.000375	3.751852	1.271162	-0.000150
 729	7.2436e+01	10.9810	42.048787	0.000345	3.447647	1.168095	-0.000138
 730	7.2535e+01	10.9601	41.939785	0.000274	2.737838	0.927604	-0.000110
 731	7.2635e+01	10.9120	41.790411	0.000375	3.751852	1.271162	-0.000150
 732	7.2734e+01	10.8655	41.641037	0.000375	3.751852	1.271162	-0.000150
 733	7.2834e+01	10.8350	41.519922	0.000304	3.042042	1.030672	-0.000122
 734	7.2933e+01	10.7981	41.354400	0.000416	4.157457	1.408585	-0.000166
 735	7.3033e+01	10.7516	41.229249	0.000314	3.143443	1.065027	-0.000126
 736	7.3132e+01	10.7195	41.051615	0.000446	4.461661	1.511652	-0.000179
 737	7.3232e+01	10.6842	40.914352	0.000345	3.447647	1.168095	-0.000138
 738	7.3332e+01	10.6313	40.744792	0.000426	4.258859	1.442940	-0.000170
 739	7.3431e+01	10.5895	40.603493	0.000355	3.549049	1.202450	-0.000142
 740	7.3531e+01	10.5510	40.458156	0.000365	3.650450	1.236806	-0.000146
 741	7.3630e+01	10.5125	40.333005	0.000314	3.143443	1.065027	-0.000126
 742	7.3730e+01	10.4740	40.183631	0.000375	3.751852	1.271162	-0.000150
 743	7.3829e+01	10.4323	40.074628	0.000274	2.737838	0.927604	-0.000110
 744	7.3928e+01	10.3954	39.913142	0.000406	4.056056	1.374229	-0.000162
 745	7.4028e+01	10.3569	39.711286	0.000507	5.070070	1.717786	-0.000203
 746	7.4127e+01	10.3264	39.634580	0.000193	1.926626	0.652759	-0.000077
 747	7.4227e+01	10.2735	39.477132	0.000395	3.954654	1.339873	-0.000158
 748	7.4326e+01	10.2286	39.323721	0.000385	3.853253	1.305517	-0.000154
 749	7.4426e+01	10.2013	39.190495	0.000335	3.346246	1.133739	-0.000134
 750	7.4525e+01	10.1548	39.016898	0.000436	4.360260	1.477296	-0.000174
 751	7.4625e+01	10.1211	38.891747	0.000314	3.143443	1.065027	-0.000126
 752	7.4725e+01	10.0730	38.730262	0.000406	4.056056	1.374229	-0.000162
 753	7.4824e+01	10.0361	38.601073	0.000324	3.244845	1.099383	-0.000130
 754	7.4924e+01	9.9928	38.427477	0.000436	4.360260	1.477296	-0.000174
 755	7.5023e+01	9.9623	38.286177	0.000355	3.549049	1.202450	-0.000142
 756	7.5123e+01	9.9045	38.116617	0.000426	4.258859	1.442940	-0.000170
 757	7.5222e+01	9.8773	38.035874	0.000203	2.028028	0.687114	-0.000081
 758	7.5322e+01	9.8339	37.906686	0.000324	3.244845	1.099383	-0.000130
 759	7.5421e+01	9.8019	37.725015	0.000456	4.563063	1.546007	-0.000183
 760	7.5520e+01	9.7602	37.603901	0.000304	3.042042	1.030672	-0.000122
 761	7.5620e+01	9.7249	37.422230	0.000456	4.563063	1.546007	-0.000183
 762	7.5719e+01	9.6864	37.325338	0.000243	2.433633	0.824537	-0.000097
 763	7.5819e+01	9.6382	37.151742	0.000436	4.360260	1.477296	-0.000174
 764	7.5918e+01	9.5997	37.026590	0.000314	3.143443	1.065027	-0.000126
 765	7.6018e+01	9.5580	36.865105	0.000406	4.056056	1.374229	-0.000162
 766	7.6118e+01	9.5259	36.703620	0.000406	4.056056	1.374229	-0.000162
 767	7.6217e+01	9.4858	36.602691	0.000254	2.535035	0.858893	-0.000101
 768	7.6317e+01	9.4377	36.437169	0.000416	4.157457	1.408585	-0.000166
 769	7.6416e+01	9.4024	36.307980	0.000324	3.244845	1.099383	-0.000130
 770	7.6516e+01	9.3607	36.154569	0.000385	3.853253	1.305517	-0.000154
 771	7.6615e+01	9.3174	36.013269	0.000355	3.549049	1.202450	-0.000142
 772	7.6715e+01	9.2757	35.851784	0.000406	4.056056	1.374229	-0.000162
 773	7.6814e+01	9.2404	35.714521	0.000345	3.447647	1.168095	-0.000138
 774	7.6913e+01	9.2083	35.569184	0.000365	3.650450	1.236806	-0.000146
 775	7.7013e+01	9.1570	35.423848	0.000365	3.650450	1.236806	-0.000146
 776	7.7112e+01	9.1233	35.302733	0.000304	3.042042	1.030672	-0.000122
 777	7.7212e+01	9.0864	35.137211	0.000416	4.157457	1.408585	-0.000166
 778	7.7311e+01	9.0431	34.975725	0.000406	4.056056	1.374229	-0.000162
 779	7.7411e+01	8.9965	34.822314	0.000385	3.853253	1.305517	-0.000154
 780	7.7510e+01	8.9645	34.676977	0.000365	3.650450	1.236806	-0.000146
 781	7.7610e+01	8.9260	34.531641	0.000365	3.650450	1.236806	-0.000146
 782	7.7710e+01	8.8874	34.378229	0.000385	3.853253	1.305517	-0.000154
 783	7.7809e+01	8.8377	34.216744	0.000406	4.056056	1.374229	-0.000162
 784	7.7909e+01	8.8008	34.123890	0.000233	2.332232	0.790182	-0.000093
 785	7.8008e+01	8.7639	33.893773	0.000578	5.779879	1.958276	-0.000231
 786	7.8108e+01	8.7222	33.768622	0.000314	3.143443	1.065027	-0.000126
 787	7.8207e+01	8.6853	33.635396	0.000335	3.346246	1.133739	-0.000134
 788	7.8306e+01	8.6468	33.465837	0.000426	4.258859	1.442940	-0.000170
 789	7.8406e+01	8.5987	33.280128	0.000466	4.664464	1.580363	-0.000187
 790	7.8505e+01	8.5682	33.183237	0.000243	2.433633	0.824537	-0.000097
 791	7.8605e+01	8.5201	33.009640	0.000436	4.360260	1.477296	-0.000174
 792	7.8704e+01	8.4848	32.868341	0.000355	3.549049	1.202450	-0.000142
 793	7.8804e+01	8.4367	32.706855	0.000406	4.056056	1.374229	-0.000162
 794	7.8903e+01	8.4094	32.577667	0.000324	3.244845	1.099383	-0.000130
 795	7.9003e+01	8.3645	32.424256	0.000385	3.853253	1.305517	-0.000154
 796	7.9103e+01	8.3356	32.262770	0.000406	4.056056	1.374229	-0.000162
 797	7.9202e+01	8.2827	32.089173	0.000436	4.360260	1.477296	-0.000174
 798	7.9302e+01	8.2442	31.955948	0.000335	3.346246	1.133739	-0.000134
 799	7.9401e+01	8.2137	31.822722	0.000335	3.346246	1.133739	-0.000134
 800	7.9501e+01	8.1655	31.665274	0.000395	3.954654	1.339873	-0.000158
 801	7.9600e+01	8.1270	31.487640	0.000446	4.461661	1.511652	-0.000179
 802	7.9700e+01	8.0869	31.346340	0.000355	3.549049	1.202450	-0.000142
 803	7.9799e+01	8.0468	31.164669	0.000456	4.563063	1.546007	-0.000183
 804	7.9898e+01	8.0115	31.011258	0.000385	3.853253	1.305517	-0.000154
 805	7.9998e+01	7.9634	30.906293	0.000264	2.636436	0.893249	-0.000105
 806	8.0097e+01	7.9313	30.716547	0.000477	4.765866	1.614719	-0.000191
 807	8.0197e+01	7.8864	30.603507	0.000284	2.839239	0.961960	-0.000114
 808	8.0296e+01	7.8447	30.462208	0.000355	3.549049	1.202450	-0.000142
 809	8.0396e+01	7.8078	30.292648	0.000426	4.258859	1.442940	-0.000170
 810	8.0496e+01	7.7597	30.110977	0.000456	4.563063	1.546007	-0.000183
 811	8.0595e+01	7.7244	29.985826	0.000314	3.143443	1.065027	-0.000126
 812	8.0695e+01	7.6955	29.848563	0.000345	3.447647	1.168095	-0.000138
 813	8.0794e+01	7.6490	29.699189	0.000375	3.751852	1.271162	-0.000150
 814	8.0894e+01	7.6121	29.509444	0.000477	4.765866	1.614719	-0.000191
 815	8.0993e+01	7.5688	29.392367	0.000294	2.940640	0.996316	-0.000118
 816	8.1093e+01	7.5287	29.214733	0.000446	4.461661	1.511652	-0.000179
 817	8.1192e+01	7.4886	29.089582	0.000314	3.143443	1.065027	-0.000126
 818	8.1291e+01	7.4485	28.932133	0.000395	3.954654	1.339873	-0.000158
 819	8.1391e+01	7.4019	28.823131	0.000274	2.737838	0.927604	-0.000110
 820	8.1490e+01	7.3698	28.601088	0.000558	5.577077	1.889565	-0.000223
 821	8.1590e+01	7.3265	28.488048	0.000284	2.839239	0.961960	-0.000114
 822	8.1689e+01	7.2928	28.334637	0.000385	3.853253	1.305517	-0.000154
 823	8.1789e+01	7.2543	28.201412	0.000335	3.346246	1.133739	-0.000134
 824	8.1888e+01	7.2110	28.003592	0.000497	4.968668	1.683430	-0.000199
 825	8.1988e+01	7.1709	27.886515	0.000294	2.940640	0.996316	-0.000118
 826	8.2088e+01	7.1276	27.733104	0.000385	3.853253	1.305517	-0.000154
 827	8.2187e+01	7.0923	27.563544	0.000426	4.258859	1.442940	-0.000170
 828	8.2287e+01	7.0570	27.438393	0.000314	3.143443	1.065027	-0.000126
 829	8.2386e+01	7.0121	27.236536	0.000507	5.070070	1.717786	-0.000203
 830	8.2486e+01	6.9688	27.111385	0.000314	3.143443	1.065027	-0.000126
 831	8.2585e+01	6.9239	26.957974	0.000385	3.853253	1.305517	-0.000154
 832	8.2684e+01	6.8854	26.812637	0.000365	3.650450	1.236806	-0.000146
 833	8.2784e+01	6.8565	26.602706	0.000527	5.272872	1.786498	-0.000211
 834	8.2883e+01	6.8164	26.509852	0.000233	2.332232	0.790182	-0.000093
 835	8.2983e+01	6.7699	26.360478	0.000375	3.751852	1.271162	-0.000150
 836	8.3082e+01	6.7249	26.215141	0.000365	3.650450	1.236806	-0.000146
 837	8.3182e+01	6.6993	26.029433	0.000466	4.664464	1.580363	-0.000187
 838	8.3281e+01	6.6544	25.884096	0.000365	3.650450	1.236806	-0.000146
 839	8.3381e+01	6.6126	25.722610	0.000406	4.056056	1.374229	-0.000162
 840	8.3481e+01	6.5790	25.613608	0.000274	2.737838	0.927604	-0.000110
 841	8.3580e+01	6.5244	25.423862	0.000477	4.765866	1.614719	-0.000191
 842	8.3680e+01	6.4939	25.262377	0.000406	4.056056	1.374229	-0.000162
 843	8.3779e+01	6.4522	25.129151	0.000335	3.346246	1.133739	-0.000134
 844	8.3879e+01	6.4089	24.955555	0.000436	4.360260	1.477296	-0.000174
 845	8.3978e+01	6.3752	24.822329	0.000335	3.346246	1.133739	-0.000134
 846	8.4078e+01	6.3383	24.660844	0.000406	4.056056	1.374229	-0.000162
 847	8.4177e+01	6.2934	24.495321	0.000416	4.157457	1.408585	-0.000166
 848	8.4276e+01	6.2549	24.374207	0.000304	3.042042	1.030672	-0.000122
 849	8.4376e+01	6.2164	24.220796	0.000385	3.853253	1.305517	-0.000154
 850	8.4475e+01	6.1699	24.039125	0.000456	4.563063	1.546007	-0.000183
 851	8.4575e+01	6.1410	23.865528	0.000436	4.360260	1.477296	-0.000174
 852	8.4674e+01	6.0961	23.732302	0.000335	3.346246	1.133739	-0.000134
 853	8.4774e+01	6.0576	23.591003	0.000355	3.549049	1.202450	-0.000142
 854	8.4874e+01	6.0127	23.401257	0.000477	4.765866	1.614719	-0.000191
 855	8.4973e+01	5.9726	23.276106	0.000314	3.143443	1.065027	-0.000126
 856	8.5073e+01	5.9341	23.102509	0.000436	4.360260	1.477296	-0.000174
 857	8.5172e+01	5.8972	22.973321	0.000324	3.244845	1.099383	-0.000130
 858	8.5272e+01	5.8538	22.795687	0.000446	4.461661	1.511652	-0.000179
 859	8.5371e+01	5.8121	22.589793	0.000517	5.171471	1.752142	-0.000207
 860	8.5471e+01	5.7704	22.464642	0.000314	3.143443	1.065027	-0.000126
 861	8.5570e+01	5.7351	22.327379	0.000345	3.447647	1.168095	-0.000138
 862	8.5669e+01	5.7014	22.190117	0.000345	3.447647	1.168095	-0.000138
 863	8.5769e+01	5.6581	22.032668	0.000395	3.954654	1.339873	-0.000158
 864	8.5868e+01	5.6148	21.883294	0.000375	3.751852	1.271162	-0.000150
 865	8.5968e+01	5.5827	21.737957	0.000365	3.650450	1.236806	-0.000146
 866	8.6067e+01	5.5394	21.600695	0.000345	3.447647	1.168095	-0.000138
 867	8.6167e+01	5.4977	21.447284	0.000385	3.853253	1.305517	-0.000154
 868	8.6266e+01	5.4496	21.233315	0.000537	5.374274	1.820853	-0.000215
 869	8.6366e+01	5.4223	21.120276	0.000284	2.839239	0.961960	-0.000114
 870	8.6466e+01	5.3774	20.954753	0.000416	4.157457	1.408585	-0.000166
 871	8.6565e+01	5.3341	20.813453	0.000355	3.549049	1.202450	-0.000142
 872	8.6665e+01	5.3068	20.635819	0.000446	4.461661	1.511652	-0.000179
 873	8.6764e+01	5.2587	20.551039	0.000213	2.129429	0.721470	-0.000085
 874	8.6864e+01	5.2154	20.377443	0.000436	4.360260	1.477296	-0.000174
 875	8.6963e+01	5.1785	20.195772	0.000456	4.563063	1.546007	-0.000183
 876	8.7063e+01	5.1351	20.074657	0.000304	3.042042	1.030672	-0.000122
 877	8.7162e+01	5.0950	19.852615	0.000558	5.577077	1.889565	-0.000223
 878	8.7261e+01	5.0565	19.759761	0.000233	2.332232	0.790182	-0.000093
 879	8.7361e+01	5.0164	19.598275	0.000406	4.056056	1.374229	-0.000162
 880	8.7460e+01	4.9747	19.448901	0.000375	3.751852	1.271162	-0.000150
 881	8.7560e+01	4.9394	19.295490	0.000385	3.853253	1.305517	-0.000154
 882	8.7659e+01	4.8961	19.174376	0.000304	3.042042	1.030672	-0.000122
 883	8.7759e+01	4.8640	18.988668	0.000466	4.664464	1.580363	-0.000187
 884	8.7859e+01	4.8239	18.851405	0.000345	3.447647	1.168095	-0.000138
 885	8.7958e+01	4.7822	18.685883	0.000416	4.157457	1.408585	-0.000166
 886	8.8058e+01	4.7485	18.524397	0.000406	4.056056	1.374229	-0.000162
 887	8.8157e+01	4.7004	18.362912	0.000406	4.056056	1.374229	-0.000162
 888	8.8257e+01	4.6651	18.205464	0.000395	3.954654	1.339873	-0.000158
 889	8.8356e+01	4.6234	18.060127	0.000365	3.650450	1.236806	-0.000146
 890	8.8456e+01	4.5721	17.874418	0.000466	4.664464	1.580363	-0.000187
 891	8.8555e+01	4.5464	17.761379	0.000284	2.839239	0.961960	-0.000114
 892	8.8654e+01	4.5015	17.656413	0.000264	2.636436	0.893249	-0.000105
 893	8.8754e+01	4.4646	17.458593	0.000497	4.968668	1.683430	-0.000199
 894	8.8853e+01	4.4100	17.289034	0.000426	4.258859	1.442940	-0.000170
 895	8.8953e+01	4.3747	17.143697	0.000365	3.650450	1.236806	-0.000146
 896	8.9052e+01	4.3378	16.966063	0.000446	4.461661	1.511652	-0.000179
 897	8.9152e+01	4.3122	16.820726	0.000365	3.650450	1.236806	-0.000146
 898	8.9251e+01	4.2624	16.675389	0.000365	3.650450	1.236806	-0.000146
 899	8.9351e+01	4.2239	16.513904	0.000406	4.056056	1.374229	-0.000162
 900	8.9451e+01	4.1822	16.425087	0.000223	2.230831	0.755826	-0.000089
 901	8.9550e+01	4.1469	16.227267	0.000497	4.968668	1.683430	-0.000199
 902	8.9650e+01	4.1004	16.085967	0.000355	3.549049	1.202450	-0.000142
 903	8.9749e+01	4.0683	15.928519	0.000395	3.954654	1.339873	-0.000158
 904	8.9849e+01	4.0202	15.726662	0.000507	5.070070	1.717786	-0.000203
 905	8.9948e+01	3.9721	15.601511	0.000314	3.143443	1.065027	-0.000126
 906	9.0047e+01	3.9400	15.419840	0.000456	4.563063	1.546007	-0.000183
 907	9.0147e+01	3.9047	15.310837	0.000274	2.737838	0.927604	-0.000110
 908	9.0246e+01	3.8758	15.133203	0.000446	4.461661	1.511652	-0.000179
 909	9.0346e+01	3.8181	14.975755	0.000395	3.954654	1.339873	-0.000158
 910	9.0445e+01	3.7860	14.794084	0.000456	4.563063	1.546007	-0.000183
 911	9.0545e+01	3.7443	14.652784	0.000355	3.549049	1.202450	-0.000142
 912	9.0644e+01	3.7058	14.519559	0.000335	3.346246	1.133739	-0.000134
 913	9.0744e+01	3.6705	14.390370	0.000324	3.244845	1.099383	-0.000130
 914	9.0844e+01	3.6224	14.180439	0.000527	5.272872	1.786498	-0.000211
 915	9.0943e+01	3.5839	14.035102	0.000365	3.650450	1.236806	-0.000146
 916	9.1043e+01	3.5373	13.885728	0.000375	3.751852	1.271162	-0.000150
 917	9.1142e+01	3.4972	13.764614	0.000304	3.042042	1.030672	-0.000122
 918	9.1242e+01	3.4684	13.558720	0.000517	5.171471	1.752142	-0.000207
 919	9.1341e+01	3.4266	13.449718	0.000274	2.737838	0.927604	-0.000110
 920	9.1441e+01	3.3849	13.223638	0.000568	5.678478	1.923920	-0.000227
 921	9.1540e+01	3.3464	13.086375	0.000345	3.447647	1.168095	-0.000138
 922	9.1639e+01	3.3111	12.953150	0.000335	3.346246	1.133739	-0.000134
 923	9.1739e+01	3.2566	12.803776	0.000375	3.751852	1.271162	-0.000150
 924	9.1838e+01	3.2373	12.614031	0.000477	4.765866	1.614719	-0.000191
 925	9.1938e+01	3.1844	12.488879	0.000314	3.143443	1.065027	-0.000126
 926	9.2037e+01	3.1507	12.351617	0.000345	3.447647	1.168095	-0.000138
 927	9.2137e+01	3.1090	12.173983	0.000446	4.461661	1.511652	-0.000179
 928	9.2237e+01	3.0657	12.048832	0.000314	3.143443	1.065027	-0.000126
 929	9.2336e+01	3.0352	11.842938	0.000517	5.171471	1.752142	-0.000207
 930	9.2436e+01	2.9951	11.717786	0.000314	3.143443	1.065027	-0.000126
 931	9.2535e+01	2.9518	11.572450	0.000365	3.650450	1.236806	-0.000146
 932	9.2635e+01	2.9037	11.402890	0.000426	4.258859	1.442940	-0.000170
 933	9.2734e+01	2.8668	11.241404	0.000406	4.056056	1.374229	-0.000162
 934	9.2834e+01	2.8299	11.140476	0.000254	2.535035	0.858893	-0.000101
 935	9.2933e+01	2.7882	10.938619	0.000507	5.070070	1.717786	-0.000203
 936	9.3032e+01	2.7432	10.793282	0.000365	3.650450	1.236806	-0.000146
 937	9.3132e+01	2.7079	10.607574	0.000466	4.664464	1.580363	-0.000187
 938	9.3231e+01	2.6710	10.458200	0.000375	3.751852	1.271162	-0.000150
 939	9.3331e+01	2.6358	10.308826	0.000375	3.751852	1.271162	-0.000150
 940	9.3430e+01	2.5956	10.211935	0.000243	2.433633	0.824537	-0.000097
 941	9.3530e+01	2.5507	9.985855	0.000568	5.678478	1.923920	-0.000227
 942	9.3629e+01	2.5090	9.840518	0.000365	3.650450	1.236806	-0.000146
 943	9.3729e+01	2.4705	9.695181	0.000365	3.650450	1.236806	-0.000146
 944	9.3829e+01	2.4256	9.578105	0.000294	2.940640	0.996316	-0.000118
 945	9.3928e+01	2.3855	9.380285	0.000497	4.968668	1.683430	-0.000199
 946	9.4028e+01	2.3406	9.210725	0.000426	4.258859	1.442940	-0.000170
 947	9.4127e+01	2.3085	9.081537	0.000324	3.244845	1.099383	-0.000130
 948	9.4227e+01	2.2732	8.920051	0.000406	4.056056	1.374229	-0.000162
 949	9.4326e+01	2.2283	8.726269	0.000487	4.867267	1.649075	-0.000195
 950	9.4425e+01	2.1866	8.629378	0.000243	2.433633	0.824537	-0.000097
 951	9.4525e+01	2.1577	8.399261	0.000578	5.779879	1.958276	-0.000231
 952	9.4624e+01	2.1144	8.261998	0.000345	3.447647	1.168095	-0.000138
 953	9.4724e+01	2.0791	8.096476	0.000416	4.157457	1.408585	-0.000166
 954	9.4823e+01	2.0358	7.951139	0.000365	3.650450	1.236806	-0.000146
 955	9.4923e+01	1.9860	7.817913	0.000335	3.346246	1.133739	-0.000134
 956	9.5022e+01	1.9491	7.632205	0.000466	4.664464	1.580363	-0.000187
 957	9.5122e+01	1.9187	7.490905	0.000355	3.549049	1.202450	-0.000142
 958	9.5222e+01	1.8721	7.309234	0.000456	4.563063	1.546007	-0.000183
 959	9.5321e+01	1.8368	7.171972	0.000345	3.447647	1.168095	-0.000138
 960	9.5421e+01	1.7887	7.002412	0.000426	4.258859	1.442940	-0.000170
 961	9.5520e+01	1.7550	6.812667	0.000477	4.765866	1.614719	-0.000191
 962	9.5620e+01	1.7149	6.663293	0.000375	3.751852	1.271162	-0.000150
 963	9.5719e+01	1.6716	6.542178	0.000304	3.042042	1.030672	-0.000122
 964	9.5819e+01	1.6347	6.340322	0.000507	5.070070	1.717786	-0.000203
 965	9.5918e+01	1.5850	6.199022	0.000355	3.549049	1.202450	-0.000142
 966	9.6017e+01	1.5433	6.021388	0.000446	4.461661	1.511652	-0.000179
 967	9.6117e+01	1.5128	5.884125	0.000345	3.447647	1.168095	-0.000138
 968	9.6216e+01	1.4711	5.690343	0.000487	4.867267	1.649075	-0.000195
 969	9.6316e+01	1.4374	5.545006	0.000365	3.650450	1.236806	-0.000146
 970	9.6415e+01	1.3941	5.371409	0.000436	4.360260	1.477296	-0.000174
 971	9.6515e+01	1.3604	5.262406	0.000274	2.737838	0.927604	-0.000110
 972	9.6615e+01	1.3139	5.088810	0.000436	4.360260	1.477296	-0.000174
 973	9.6714e+01	1.2689	4.907138	0.000456	4.563063	1.546007	-0.000183
 974	9.6814e+01	1.2304	4.753727	0.000385	3.853253	1.305517	-0.000154
 975	9.6913e+01	1.1952	4.620502	0.000335	3.346246	1.133739	-0.000134
 976	9.7013e+01	1.1502	4.438831	0.000456	4.563063	1.546007	-0.000183
 977	9.7112e+01	1.1182	4.273308	0.000416	4.157457	1.408585	-0.000166
 978	9.7212e+01	1.0732	4.091637	0.000456	4.563063	1.546007	-0.000183
 979	9.7311e+01	1.0363	3.962449	0.000324	3.244845	1.099383	-0.000130
 980	9.7410e+01	1.0026	3.805000	0.000395	3.954654	1.339873	-0.000158
 981	9.7510e+01	0.9545	3.675812	0.000324	3.244845	1.099383	-0.000130
 982	9.7609e+01	0.9048	3.530475	0.000365	3.650450	1.236806	-0.000146
 983	9.7709e+01	0.8759	3.332656	0.000497	4.968668	1.683430	-0.000199
 984	9.7808e+01	0.8326	3.175207	0.000395	3.954654	1.339873	-0.000158
 985	9.7908e+01	0.7957	3.009685	0.000416	4.157457	1.408585	-0.000166
 986	9.8007e+01	0.7476	2.852236	0.000395	3.954654	1.339873	-0.000158
 987	9.8107e+01	0.7123	2.682677	0.000426	4.258859	1.442940	-0.000170
 988	9.8207e+01	0.6738	2.577711	0.000264	2.636436	0.893249	-0.000105
 989	9.8306e+01	0.6353	2.355669	0.000558	5.577077	1.889565	-0.000223
 990	9.8406e+01	0.5888	2.234555	0.000304	3.042042	1.030672	-0.000122
 991	9.8505e+01	0.5551	2.101329	0.000335	3.346246	1.133739	-0.000134
 992	9.8605e+01	0.5134	1.927732	0.000436	4.360260	1.477296	-0.000174
 993	9.8704e+01	0.4781	1.742024	0.000466	4.664464	1.580363	-0.000187
 994	9.8803e+01	0.4412	1.580539	0.000406	4.056056	1.374229	-0.000162
 995	9.8903e+01	0.3978	1.410979	0.000426	4.258859	1.442940	-0.000170
 996	9.9002e+01	0.3497	1.297939	0.000284	2.839239	0.961960	-0.000114
 997	9.9102e+01	0.3208	1.112231	0.000466	4.664464	1.580363	-0.000187
 998	9.9201e+01	0.2759	0.954783	0.000395	3.954654	1.339873	-0.000158
 999	9.9301e+01	0.2342	0.817520	0.000345	3.447647	1.168095	-0.000138
1000	9.9400e+01	0.2021	0.656035	0.000406	4.056056	1.374229	-0.000162
1001	9.9500e+01	0.1620	0.518772	0.000345	3.447647	1.168095	-0.000138
1002	9.9600e+01	0.1123	0.304804	0.000537	5.374274	1.820853	-0.000215
1003	9.9699e+01	0.0770	0.175615	0.000324	3.244845	1.099383	-0.000130
1004	9.9799e+01	0.0417	0.018167	0.000395	3.954654	1.339873	-0.000158
1005	9.9898e+01	0.0016	-0.086798	0.000264	2.636436	0.893249	-0.000105
1006	9.9998e+01	-0.0465	-0.272507	0.000466	4.664464	1.580363	-0.000187
1007	1.0010e+02	-0.0754	-0.405732	0.000335	3.346246	1.133739	-0.000134
1008	1.0020e+02	-0.1091	-0.559143	0.000385	3.853253	1.305517	-0.000154
1009	1.0030e+02	-0.1604	-0.773111	0.000537	5.374274	1.820853	-0.000215
1010	1.0040e+02	-0.1941	-0.910374	0.000345	3.447647	1.168095	-0.000138
1011	1.0050e+02	-0.2342	-1.027451	0.000294	2.940640	0.996316	-0.000118
1012	1.0059e+02	-0.2775	-1.205085	0.000446	4.461661	1.511652	-0.000179
1013	1.0069e+02	-0.3096	-1.370608	0.000416	4.157457	1.408585	-0.000166
1014	1.0079e+02	-0.3465	-1.524019	0.000385	3.853253	1.305517	-0.000154
1015	1.0089e+02	-0.3914	-1.677430	0.000385	3.853253	1.305517	-0.000154
1016	1.0099e+02	-0.4331	-1.883324	0.000517	5.171471	1.752142	-0.000207
1017	1.0109e+02	-0.4781	-1.988289	0.000264	2.636436	0.893249	-0.000105
1018	1.0119e+02	-0.5053	-2.129589	0.000355	3.549049	1.202450	-0.000142
1019	1.0129e+02	-0.5567	-2.303186	0.000436	4.360260	1.477296	-0.000174
1020	1.0139e+02	-0.5920	-2.501006	0.000497	4.968668	1.683430	-0.000199
1021	1.0149e+02	-0.6257	-2.626157	0.000314	3.143443	1.065027	-0.000126
1022	1.0159e+02	-0.6674	-2.803791	0.000446	4.461661	1.511652	-0.000179
1023	1.0169e+02	-0.7123	-2.949128	0.000365	3.650450	1.236806	-0.000146
1024	1.0179e+02	-0.7476	-3.102539	0.000385	3.853253	1.305517	-0.000154
1025	1.0189e+02	-0.7893	-3.264024	0.000406	4.056056	1.374229	-0.000162
1026	1.0199e+02	-0.8310	-3.469918	0.000517	5.171471	1.752142	-0.000207
1027	1.0209e+02	-0.8711	-3.550661	0.000203	2.028028	0.687114	-0.000081
1028	1.0219e+02	-0.9128	-3.744443	0.000487	4.867267	1.649075	-0.000195
1029	1.0229e+02	-0.9497	-3.889780	0.000365	3.650450	1.236806	-0.000146
1030	1.0239e+02	-1.0010	-4.055303	0.000416	4.157457	1.408585	-0.000166
1031	1.0248e+02	-1.0251	-4.212751	0.000395	3.954654	1.339873	-0.000158
1032	1.0258e+02	-1.0748	-4.370199	0.000395	3.954654	1.339873	-0.000158
1033	1.0268e+02	-1.1149	-4.503425	0.000335	3.346246	1.133739	-0.000134
1034	1.0278e+02	-1.1454	-4.685096	0.000456	4.563063	1.546007	-0.000183
1035	1.0288e+02	-1.1919	-4.802173	0.000294	2.940640	0.996316	-0.000118
1036	1.0298e+02	-1.2144	-4.947510	0.000365	3.650450	1.236806	-0.000146
1037	1.0308e+02	-1.2657	-5.145329	0.000497	4.968668	1.683430	-0.000199
1038	1.0318e+02	-1.3074	-5.298741	0.000385	3.853253	1.305517	-0.000154
1039	1.0328e+02	-1.3556	-5.411780	0.000284	2.839239	0.961960	-0.000114
1040	1.0338e+02	-1.3877	-5.605563	0.000487	4.867267	1.649075	-0.000195
1041	1.0348e+02	-1.4342	-5.738788	0.000335	3.346246	1.133739	-0.000134
1042	1.0358e+02	-1.4727	-5.912385	0.000436	4.360260	1.477296	-0.000174
1043	1.0368e+02	-1.5000	-6.041574	0.000324	3.244845	1.099383	-0.000130
1044	1.0378e+02	-1.5577	-6.203059	0.000406	4.056056	1.374229	-0.000162
1045	1.0388e+02	-1.5882	-6.316099	0.000284	2.839239	0.961960	-0.000114
1046	1.0398e+02	-1.6267	-6.509881	0.000487	4.867267	1.649075	-0.000195
1047	1.0408e+02	-1.6700	-6.655218	0.000365	3.650450	1.236806	-0.000146
1048	1.0418e+02	-1.7021	-6.800555	0.000365	3.650450	1.236806	-0.000146
1049	1.0428e+02	-1.7486	-6.929743	0.000324	3.244845	1.099383	-0.000130
1050	1.0438e+02	-1.7887	-7.111415	0.000456	4.563063	1.546007	-0.000183
1051	1.0447e+02	-1.8368	-7.260789	0.000375	3.751852	1.271162	-0.000150
1052	1.0457e+02	-1.8721	-7.398051	0.000345	3.447647	1.168095	-0.000138
1053	1.0467e+02	-1.9042	-7.555500	0.000395	3.954654	1.339873	-0.000158
1054	1.0477e+02	-1.9427	-7.741208	0.000466	4.664464	1.580363	-0.000187
1055	1.0487e+02	-1.9796	-7.854248	0.000284	2.839239	0.961960	-0.000114
1056	1.0497e+02	-2.0294	-8.015733	0.000406	4.056056	1.374229	-0.000162
1057	1.0507e+02	-2.0727	-8.209516	0.000487	4.867267	1.649075	-0.000195
1058	1.0517e+02	-2.1064	-8.338704	0.000324	3.244845	1.099383	-0.000130
1059	1.0527e+02	-2.1513	-8.496152	0.000395	3.954654	1.339873	-0.000158
1060	1.0537e+02	-2.1818	-8.641489	0.000365	3.650450	1.236806	-0.000146
1061	1.0547e+02	-2.2187	-8.790863	0.000375	3.751852	1.271162	-0.000150
1062	1.0557e+02	-2.2652	-8.944274	0.000385	3.853253	1.305517	-0.000154
1063	1.0567e+02	-2.3037	-9.081537	0.000345	3.447647	1.168095	-0.000138
1064	1.0577e+02	-2.3470	-9.255134	0.000436	4.360260	1.477296	-0.000174
1065	1.0587e+02	-2.3935	-9.424693	0.000426	4.258859	1.442940	-0.000170
1066	1.0597e+02	-2.4224	-9.529659	0.000264	2.636436	0.893249	-0.000105
1067	1.0607e+02	-2.4721	-9.703256	0.000436	4.360260	1.477296	-0.000174
1068	1.0617e+02	-2.5106	-9.876853	0.000436	4.360260	1.477296	-0.000174
1069	1.0627e+02	-2.5475	-10.010078	0.000335	3.346246	1.133739	-0.000134
1070	1.0637e+02	-2.5796	-10.163489	0.000385	3.853253	1.305517	-0.000154
1071	1.0647e+02	-2.6261	-10.264418	0.000254	2.535035	0.858893	-0.000101
1072	1.0656e+02	-2.6678	-10.482423	0.000548	5.475675	1.855209	-0.000219
1073	1.0666e+02	-2.7128	-10.651983	0.000426	4.258859	1.442940	-0.000170
1074	1.0676e+02	-2.7448	-10.789245	0.000345	3.447647	1.168095	-0.000138
1075	1.0686e+02	-2.7817	-10.942656	0.000385	3.853253	1.305517	-0.000154
1076	1.0696e+02	-2.8186	-11.120290	0.000446	4.461661	1.511652	-0.000179
1077	1.0706e+02	-2.8668	-11.229293	0.000274	2.737838	0.927604	-0.000110
1078	1.0716e+02	-2.9069	-11.382704	0.000385	3.853253	1.305517	-0.000154
1079	1.0726e+02	-2.9454	-11.560338	0.000446	4.461661	1.511652	-0.000179
1080	1.0736e+02	-2.9887	-11.673378	0.000284	2.839239	0.961960	-0.000114
1081	1.0746e+02	-3.0095	-11.838901	0.000416	4.157457	1.408585	-0.000166
1082	1.0756e+02	-3.0705	-12.036720	0.000497	4.968668	1.683430	-0.000199
1083	1.0766e+02	-3.1058	-12.125537	0.000223	2.230831	0.755826	-0.000089
1084	1.0776e+02	-3.1427	-12.319320	0.000487	4.867267	1.649075	-0.000195
1085	1.0786e+02	-3.1668	-12.436397	0.000294	2.940640	0.996316	-0.000118
1086	1.0796e+02	-3.2181	-12.597882	0.000406	4.056056	1.374229	-0.000162
1087	1.0806e+02	-3.2598	-12.763405	0.000416	4.157457	1.408585	-0.000166
1088	1.0816e+02	-3.2983	-12.945076	0.000456	4.563063	1.546007	-0.000183
1089	1.0826e+02	-3.3528	-13.062153	0.000294	2.940640	0.996316	-0.000118
1090	1.0836e+02	-3.3833	-13.243824	0.000456	4.563063	1.546007	-0.000183
1091	1.0845e+02	-3.4266	-13.381086	0.000345	3.447647	1.168095	-0.000138
1092	1.0855e+02	-3.4619	-13.522386	0.000355	3.549049	1.202450	-0.000142
1093	1.0865e+02	-3.5101	-13.647537	0.000314	3.143443	1.065027	-0.000126
1094	1.0875e+02	-3.5470	-13.829208	0.000456	4.563063	1.546007	-0.000183
1095	1.0885e+02	-3.5742	-13.950323	0.000304	3.042042	1.030672	-0.000122
1096	1.0895e+02	-3.6159	-14.148142	0.000497	4.968668	1.683430	-0.000199
1097	1.0905e+02	-3.6641	-14.277331	0.000324	3.244845	1.099383	-0.000130
1098	1.0915e+02	-3.6978	-14.414593	0.000345	3.447647	1.168095	-0.000138
1099	1.0925e+02	-3.7411	-14.535707	0.000304	3.042042	1.030672	-0.000122
1100	1.0935e+02	-3.7844	-14.733527	0.000497	4.968668	1.683430	-0.000199
1101	1.0945e+02	-3.8245	-14.826381	0.000233	2.332232	0.790182	-0.000093
1102	1.0955e+02	-3.8566	-15.040349	0.000537	5.374274	1.820853	-0.000215
1103	1.0965e+02	-3.9015	-15.141278	0.000254	2.535035	0.858893	-0.000101
1104	1.0975e+02	-3.9320	-15.298726	0.000395	3.954654	1.339873	-0.000158
1105	1.0985e+02	-3.9897	-15.476360	0.000446	4.461661	1.511652	-0.000179
1106	1.0995e+02	-4.0250	-15.621697	0.000365	3.650450	1.236806	-0.000146
1107	1.1005e+02	-4.0555	-15.771071	0.000375	3.751852	1.271162	-0.000150
1108	1.1015e+02	-4.1004	-15.896222	0.000314	3.143443	1.065027	-0.000126
1109	1.1025e+02	-4.1421	-16.041559	0.000365	3.650450	1.236806	-0.000146
1110	1.1035e+02	-4.1822	-16.186896	0.000365	3.650450	1.236806	-0.000146
1111	1.1044e+02	-4.2175	-16.328195	0.000355	3.549049	1.202450	-0.000142
1112	1.1054e+02	-4.2560	-16.521978	0.000487	4.867267	1.649075	-0.000195
1113	1.1064e+02	-4.2993	-16.643092	0.000304	3.042042	1.030672	-0.000122
1114	1.1074e+02	-4.3394	-16.808615	0.000416	4.157457	1.408585	-0.000166
1115	1.1084e+02	-4.3780	-16.945877	0.000345	3.447647	1.168095	-0.000138
1116	1.1094e+02	-4.4229	-17.095251	0.000375	3.751852	1.271162	-0.000150
1117	1.1104e+02	-4.4614	-17.232514	0.000345	3.447647	1.168095	-0.000138
1118	1.1114e+02	-4.4951	-17.422259	0.000477	4.765866	1.614719	-0.000191
1119	1.1124e+02	-4.5336	-17.531262	0.000274	2.737838	0.927604	-0.000110
1120	1.1134e+02	-4.5801	-17.712933	0.000456	4.563063	1.546007	-0.000183
1121	1.1144e+02	-4.6170	-17.850196	0.000345	3.447647	1.168095	-0.000138
1122	1.1154e+02	-4.6555	-18.048015	0.000497	4.968668	1.683430	-0.000199
1123	1.1164e+02	-4.6924	-18.169129	0.000304	3.042042	1.030672	-0.000122
1124	1.1174e+02	-4.7405	-18.326578	0.000395	3.954654	1.339873	-0.000158
1125	1.1184e+02	-4.7742	-18.431543	0.000264	2.636436	0.893249	-0.000105
1126	1.1194e+02	-4.8143	-18.609177	0.000446	4.461661	1.511652	-0.000179
1127	1.1204e+02	-4.8592	-18.742403	0.000335	3.346246	1.133739	-0.000134
1128	1.1214e+02	-4.8961	-18.944259	0.000507	5.070070	1.717786	-0.000203
1129	1.1224e+02	-4.9314	-19.101708	0.000395	3.954654	1.339873	-0.000158
1130	1.1234e+02	-4.9779	-19.194562	0.000233	2.332232	0.790182	-0.000093
1131	1.1244e+02	-5.0245	-19.368159	0.000436	4.360260	1.477296	-0.000174
1132	1.1253e+02	-5.0517	-19.549830	0.000456	4.563063	1.546007	-0.000183
1133	1.1263e+02	-5.1031	-19.719390	0.000426	4.258859	1.442940	-0.000170
1134	1.1273e+02	-5.1368	-19.840504	0.000304	3.042042	1.030672	-0.000122
1135	1.1283e+02	-5.1720	-19.989878	0.000375	3.751852	1.271162	-0.000150
1136	1.1293e+02	-5.2089	-20.135214	0.000365	3.650450	1.236806	-0.000146
1137	1.1303e+02	-5.2587	-20.284589	0.000375	3.751852	1.271162	-0.000150
1138	1.1313e+02	-5.2940	-20.425888	0.000355	3.549049	1.202450	-0.000142
1139	1.1323e+02	-5.3261	-20.575262	0.000375	3.751852	1.271162	-0.000150
1140	1.1333e+02	-5.3822	-20.732711	0.000395	3.954654	1.339873	-0.000158
1141	1.1343e+02	-5.4111	-20.853825	0.000304	3.042042	1.030672	-0.000122
1142	1.1353e+02	-5.4656	-21.027421	0.000436	4.360260	1.477296	-0.000174
1143	1.1363e+02	-5.4945	-21.180833	0.000385	3.853253	1.305517	-0.000154
1144	1.1373e+02	-5.5314	-21.338281	0.000395	3.954654	1.339873	-0.000158
1145	1.1383e+02	-5.5811	-21.483618	0.000365	3.650450	1.236806	-0.000146
1146	1.1393e+02	-5.6148	-21.632992	0.000375	3.751852	1.271162	-0.000150
1147	1.1403e+02	-5.6565	-21.770254	0.000345	3.447647	1.168095	-0.000138
1148	1.1413e+02	-5.6934	-21.907517	0.000345	3.447647	1.168095	-0.000138
1149	1.1423e+02	-5.7351	-22.069003	0.000406	4.056056	1.374229	-0.000162
1150	1.1433e+02	-5.7704	-22.202228	0.000335	3.346246	1.133739	-0.000134
1151	1.1442e+02	-5.8073	-22.355639	0.000385	3.853253	1.305517	-0.000154
1152	1.1452e+02	-5.8538	-22.513087	0.000395	3.954654	1.339873	-0.000158
1153	1.1462e+02	-5.8940	-22.626127	0.000284	2.839239	0.961960	-0.000114
1154	1.1472e+02	-5.9325	-22.787613	0.000406	4.056056	1.374229	-0.000162
1155	1.1482e+02	-5.9677	-22.924875	0.000345	3.447647	1.168095	-0.000138
1156	1.1492e+02	-6.0079	-23.102509	0.000446	4.461661	1.511652	-0.000179
1157	1.1502e+02	-6.0528	-23.211512	0.000274	2.737838	0.927604	-0.000110
1158	1.1512e+02	-6.0865	-23.385109	0.000436	4.360260	1.477296	-0.000174
1159	1.1522e+02	-6.1282	-23.518334	0.000335	3.346246	1.133739	-0.000134
1160	1.1532e+02	-6.1667	-23.667708	0.000375	3.751852	1.271162	-0.000150
1161	1.1542e+02	-6.2132	-23.825157	0.000395	3.954654	1.339873	-0.000158
1162	1.1552e+02	-6.2485	-23.966456	0.000355	3.549049	1.202450	-0.000142
1163	1.1562e+02	-6.2854	-24.107756	0.000355	3.549049	1.202450	-0.000142
1164	1.1572e+02	-6.3335	-24.249056	0.000355	3.549049	1.202450	-0.000142
1165	1.1582e+02	-6.3656	-24.422653	0.000436	4.360260	1.477296	-0.000174
1166	1.1592e+02	-6.4089	-24.543767	0.000304	3.042042	1.030672	-0.000122
1167	1.1602e+02	-6.4506	-24.685066	0.000355	3.549049	1.202450	-0.000142
1168	1.1612e+02	-6.4747	-24.818292	0.000335	3.346246	1.133739	-0.000134
1169	1.1622e+02	-6.5132	-24.959592	0.000355	3.549049	1.202450	-0.000142
1170	1.1632e+02	-6.5661	-25.088780	0.000324	3.244845	1.099383	-0.000130
1171	1.1642e+02	-6.6062	-25.274488	0.000466	4.664464	1.580363	-0.000187
1172	1.1651e+02	-6.6479	-25.391565	0.000294	2.940640	0.996316	-0.000118
1173	1.1661e+02	-6.6945	-25.565162	0.000436	4.360260	1.477296	-0.000174
1174	1.1671e+02	-6.7282	-25.662053	0.000243	2.433633	0.824537	-0.000097
1175	1.1681e+02	-6.7683	-25.823539	0.000406	4.056056	1.374229	-0.000162
1176	1.1691e+02	-6.8100	-25.964838	0.000355	3.549049	1.202450	-0.000142
1177	1.1701e+02	-6.8501	-26.106138	0.000355	3.549049	1.202450	-0.000142
1178	1.1711e+02	-6.8725	-26.283772	0.000446	4.461661	1.511652	-0.000179
1179	1.1721e+02	-6.9255	-26.400849	0.000294	2.940640	0.996316	-0.000118
1180	1.1731e+02	-6.9720	-26.570409	0.000426	4.258859	1.442940	-0.000170
1181	1.1741e+02	-7.0073	-26.667300	0.000243	2.433633	0.824537	-0.000097
1182	1.1751e+02	-7.0394	-26.832823	0.000416	4.157457	1.408585	-0.000166
1183	1.1761e+02	-7.0843	-26.982197	0.000375	3.751852	1.271162	-0.000150
1184	1.1771e+02	-7.1308	-27.159831	0.000446	4.461661	1.511652	-0.000179
1185	1.1781e+02	-7.1677	-27.284982	0.000314	3.143443	1.065027	-0.000126
1186	1.1791e+02	-7.2062	-27.446467	0.000406	4.056056	1.374229	-0.000162
1187	1.1801e+02	-7.2479	-27.555470	0.000274	2.737838	0.927604	-0.000110
1188	1.1811e+02	-7.2800	-27.716955	0.000406	4.056056	1.374229	-0.000162
1189	1.1821e+02	-7.3297	-27.842107	0.000314	3.143443	1.065027	-0.000126
1190	1.1831e+02	-7.3570	-28.003592	0.000406	4.056056	1.374229	-0.000162
1191	1.1841e+02	-7.4051	-28.148929	0.000365	3.650450	1.236806	-0.000146
1192	1.1850e+02	-7.4436	-28.278117	0.000324	3.244845	1.099383	-0.000130
1193	1.1860e+02	-7.4773	-28.419417	0.000355	3.549049	1.202450	-0.000142
1194	1.1870e+02	-7.5206	-28.536494	0.000294	2.940640	0.996316	-0.000118
1195	1.1880e+02	-7.5591	-28.697979	0.000406	4.056056	1.374229	-0.000162
1196	1.1890e+02	-7.6025	-28.879651	0.000456	4.563063	1.546007	-0.000183
1197	1.1900e+02	-7.6458	-28.980579	0.000254	2.535035	0.858893	-0.000101
1198	1.1910e+02	-7.6763	-29.142064	0.000406	4.056056	1.374229	-0.000162
1199	1.1920e+02	-7.7228	-29.299513	0.000395	3.954654	1.339873	-0.000158
1200	1.1930e+02	-7.7581	-29.412552	0.000284	2.839239	0.961960	-0.000114
1201	1.1940e+02	-7.8078	-29.557889	0.000365	3.650450	1.236806	-0.000146
1202	1.1950e+02	-7.8399	-29.699189	0.000355	3.549049	1.202450	-0.000142
1203	1.1960e+02	-7.8816	-29.820303	0.000304	3.042042	1.030672	-0.000122
1204	1.1970e+02	-7.9217	-29.933343	0.000284	2.839239	0.961960	-0.000114
1205	1.1980e+02	-7.9618	-30.102903	0.000426	4.258859	1.442940	-0.000170
1206	1.1990e+02	-8.0035	-30.228054	0.000314	3.143443	1.065027	-0.000126
1207	1.2000e+02	-8.0388	-30.397614	0.000426	4.258859	1.442940	-0.000170
1208	1.2010e+02	-8.0757	-30.522765	0.000314	3.143443	1.065027	-0.000126
1209	1.2020e+02	-8.1319	-30.631767	0.000274	2.737838	0.927604	-0.000110
1210	1.2030e+02	-8.1623	-30.789216	0.000395	3.954654	1.339873	-0.000158
1211	1.2039e+02	-8.1944	-30.914367	0.000314	3.143443	1.065027	-0.000126
1212	1.2049e+02	-8.2329	-31.051630	0.000345	3.447647	1.168095	-0.000138
1213	1.2059e+02	-8.2891	-31.176781	0.000314	3.143443	1.065027	-0.000126
1214	1.2069e+02	-8.3179	-31.310006	0.000335	3.346246	1.133739	-0.000134
1215	1.2079e+02	-8.3597	-31.427083	0.000294	2.940640	0.996316	-0.000118
1216	1.2089e+02	-8.4014	-31.592606	0.000416	4.157457	1.408585	-0.000166
1217	1.2099e+02	-8.4318	-31.746017	0.000385	3.853253	1.305517	-0.000154
1218	1.2109e+02	-8.4896	-31.846945	0.000254	2.535035	0.858893	-0.000101
1219	1.2119e+02	-8.5217	-32.012468	0.000416	4.157457	1.408585	-0.000166
1220	1.2129e+02	-8.5586	-32.165879	0.000385	3.853253	1.305517	-0.000154
1221	1.2139e+02	-8.5875	-32.303142	0.000345	3.447647	1.168095	-0.000138
1222	1.2149e+02	-8.6452	-32.379847	0.000193	1.926626	0.652759	-0.000077
1223	1.2159e+02	-8.6789	-32.549407	0.000426	4.258859	1.442940	-0.000170
1224	1.2169e+02	-8.7190	-32.686670	0.000345	3.447647	1.168095	-0.000138
1225	1.2179e+02	-8.7495	-32.795672	0.000274	2.737838	0.927604	-0.000110
1226	1.2189e+02	-8.7944	-32.953120	0.000395	3.954654	1.339873	-0.000158
1227	1.2199e+02	-8.8345	-33.098457	0.000365	3.650450	1.236806	-0.000146
1228	1.2209e+02	-8.8810	-33.219571	0.000304	3.042042	1.030672	-0.000122
1229	1.2219e+02	-8.9067	-33.356834	0.000345	3.447647	1.168095	-0.000138
1230	1.2229e+02	-8.9580	-33.490060	0.000335	3.346246	1.133739	-0.000134
1231	1.2239e+02	-9.0014	-33.615211	0.000314	3.143443	1.065027	-0.000126
1232	1.2248e+02	-9.0366	-33.776696	0.000406	4.056056	1.374229	-0.000162
1233	1.2258e+02	-9.0832	-33.901847	0.000314	3.143443	1.065027	-0.000126
1234	1.2268e+02	-9.1297	-34.039110	0.000345	3.447647	1.168095	-0.000138
1235	1.2278e+02	-9.1554	-34.156187	0.000294	2.940640	0.996316	-0.000118
1236	1.2288e+02	-9.1939	-34.317672	0.000406	4.056056	1.374229	-0.000162
1237	1.2298e+02	-9.2388	-34.450898	0.000335	3.346246	1.133739	-0.000134
1238	1.2308e+02	-9.2805	-34.576049	0.000314	3.143443	1.065027	-0.000126
1239	1.2318e+02	-9.3174	-34.737534	0.000406	4.056056	1.374229	-0.000162
1240	1.2328e+02	-9.3527	-34.850574	0.000284	2.839239	0.961960	-0.000114
1241	1.2338e+02	-9.3992	-35.008023	0.000395	3.954654	1.339873	-0.000158
1242	1.2348e+02	-9.4345	-35.121062	0.000284	2.839239	0.961960	-0.000114
1243	1.2358e+02	-9.4762	-35.250251	0.000324	3.244845	1.099383	-0.000130
1244	1.2368e+02	-9.5083	-35.399625	0.000375	3.751852	1.271162	-0.000150
1245	1.2378e+02	-9.5532	-35.524776	0.000314	3.143443	1.065027	-0.000126
1246	1.2388e+02	-9.5949	-35.678187	0.000385	3.853253	1.305517	-0.000154
1247	1.2398e+02	-9.6254	-35.803338	0.000314	3.143443	1.065027	-0.000126
1248	1.2408e+02	-9.6799	-35.944638	0.000355	3.549049	1.202450	-0.000142
1249	1.2418e+02	-9.7104	-36.106123	0.000406	4.056056	1.374229	-0.000162
1250	1.2428e+02	-9.7569	-36.194940	0.000223	2.230831	0.755826	-0.000089
1251	1.2438e+02	-9.7987	-36.320092	0.000314	3.143443	1.065027	-0.000126
1252	1.2447e+02	-9.8388	-36.453317	0.000335	3.346246	1.133739	-0.000134
1253	1.2457e+02	-9.8805	-36.602691	0.000375	3.751852	1.271162	-0.000150
1254	1.2467e+02	-9.9110	-36.735917	0.000335	3.346246	1.133739	-0.000134
1255	1.2477e+02	-9.9543	-36.921625	0.000466	4.664464	1.580363	-0.000187
1256	1.2487e+02	-10.0008	-36.990256	0.000172	1.723824	0.584047	-0.000069
1257	1.2497e+02	-10.0313	-37.151742	0.000406	4.056056	1.374229	-0.000162
1258	1.2507e+02	-10.0666	-37.268819	0.000294	2.940640	0.996316	-0.000118
1259	1.2517e+02	-10.1083	-37.434341	0.000416	4.157457	1.408585	-0.000166
1260	1.2527e+02	-10.1484	-37.543344	0.000274	2.737838	0.927604	-0.000110
1261	1.2537e+02	-10.1917	-37.668495	0.000314	3.143443	1.065027	-0.000126
1262	1.2547e+02	-10.2302	-37.829980	0.000406	4.056056	1.374229	-0.000162
1263	1.2557e+02	-10.2719	-37.930909	0.000254	2.535035	0.858893	-0.000101
1264	1.2567e+02	-10.3024	-38.043949	0.000284	2.839239	0.961960	-0.000114
1265	1.2577e+02	-10.3457	-38.185248	0.000355	3.549049	1.202450	-0.000142
1266	1.2587e+02	-10.3938	-38.326548	0.000355	3.549049	1.202450	-0.000142
1267	1.2597e+02	-10.4243	-38.451699	0.000314	3.143443	1.065027	-0.000126
1268	1.2607e+02	-10.4628	-38.584925	0.000335	3.346246	1.133739	-0.000134
1269	1.2617e+02	-10.5109	-38.734299	0.000375	3.751852	1.271162	-0.000150
1270	1.2627e+02	-10.5398	-38.823116	0.000223	2.230831	0.755826	-0.000089
1271	1.2636e+02	-10.5927	-39.004787	0.000456	4.563063	1.546007	-0.000183
1272	1.2646e+02	-10.6280	-39.142050	0.000345	3.447647	1.168095	-0.000138
1273	1.2656e+02	-10.6714	-39.251052	0.000274	2.737838	0.927604	-0.000110
1274	1.2666e+02	-10.7179	-39.380241	0.000324	3.244845	1.099383	-0.000130
1275	1.2676e+02	-10.7532	-39.477132	0.000243	2.433633	0.824537	-0.000097
1276	1.2686e+02	-10.7933	-39.646692	0.000426	4.258859	1.442940	-0.000170
1277	1.2696e+02	-10.8318	-39.771843	0.000314	3.143443	1.065027	-0.000126
1278	1.2706e+02	-10.8735	-39.880845	0.000274	2.737838	0.927604	-0.000110
1279	1.2716e+02	-10.9040	-40.030219	0.000375	3.751852	1.271162	-0.000150
1280	1.2726e+02	-10.9425	-40.167482	0.000345	3.447647	1.168095	-0.000138
1281	1.2736e+02	-10.9906	-40.284559	0.000294	2.940640	0.996316	-0.000118
1282	1.2746e+02	-11.0323	-40.425859	0.000355	3.549049	1.202450	-0.000142
1283	1.2756e+02	-11.0660	-40.575233	0.000375	3.751852	1.271162	-0.000150
1284	1.2766e+02	-11.1045	-40.720570	0.000365	3.650450	1.236806	-0.000146
1285	1.2776e+02	-11.1510	-40.878018	0.000395	3.954654	1.339873	-0.000158
1286	1.2786e+02	-11.1895	-40.974909	0.000243	2.433633	0.824537	-0.000097
1287	1.2796e+02	-11.2312	-41.079875	0.000264	2.636436	0.893249	-0.000105
1288	1.2806e+02	-11.2601	-41.237323	0.000395	3.954654	1.339873	-0.000158
1289	1.2816e+02	-11.3179	-41.334214	0.000243	2.433633	0.824537	-0.000097
1290	1.2826e+02	-11.3419	-41.483588	0.000375	3.751852	1.271162	-0.000150
1291	1.2835e+02	-11.3901	-41.636999	0.000385	3.853253	1.305517	-0.000154
1292	1.2845e+02	-11.4286	-41.766188	0.000324	3.244845	1.099383	-0.000130
1293	1.2855e+02	-11.4719	-41.895376	0.000324	3.244845	1.099383	-0.000130
1294	1.2865e+02	-11.5023	-42.036676	0.000355	3.549049	1.202450	-0.000142
1295	1.2875e+02	-11.5553	-42.145679	0.000274	2.737838	0.927604	-0.000110
1296	1.2885e+02	-11.5890	-42.295053	0.000375	3.751852	1.271162	-0.000150
1297	1.2895e+02	-11.6259	-42.432315	0.000345	3.447647	1.168095	-0.000138
1298	1.2905e+02	-11.6596	-42.569578	0.000345	3.447647	1.168095	-0.000138
1299	1.2915e+02	-11.7077	-42.702803	0.000335	3.346246	1.133739	-0.000134
1300	1.2925e+02	-11.7430	-42.827954	0.000314	3.143443	1.065027	-0.000126
1301	1.2935e+02	-11.7863	-42.989440	0.000406	4.056056	1.374229	-0.000162
1302	1.2945e+02	-11.8296	-43.066145	0.000193	1.926626	0.652759	-0.000077
1303	1.2955e+02	-11.8569	-43.179185	0.000284	2.839239	0.961960	-0.000114
1304	1.2965e+02	-11.8986	-43.340671	0.000406	4.056056	1.374229	-0.000162
1305	1.2975e+02	-11.9435	-43.494082	0.000385	3.853253	1.305517	-0.000154
1306	1.2985e+02	-11.9836	-43.619233	0.000314	3.143443	1.065027	-0.000126
1307	1.2995e+02	-12.0237	-43.736310	0.000294	2.940640	0.996316	-0.000118
1308	1.3005e+02	-12.0638	-43.857424	0.000304	3.042042	1.030672	-0.000122
1309	1.3015e+02	-12.1039	-44.010835	0.000385	3.853253	1.305517	-0.000154
1310	1.3025e+02	-12.1408	-44.115801	0.000264	2.636436	0.893249	-0.000105
1311	1.3034e+02	-12.1809	-44.293435	0.000446	4.461661	1.511652	-0.000179
1312	1.3044e+02	-12.2226	-44.406475	0.000284	2.839239	0.961960	-0.000114
1313	1.3054e+02	-12.2788	-44.515477	0.000274	2.737838	0.927604	-0.000110
1314	1.3064e+02	-12.3109	-44.660814	0.000365	3.650450	1.236806	-0.000146
1315	1.3074e+02	-12.3494	-44.790002	0.000324	3.244845	1.099383	-0.000130
1316	1.3084e+02	-12.3751	-44.899005	0.000274	2.737838	0.927604	-0.000110
1317	1.3094e+02	-12.4216	-45.044342	0.000365	3.650450	1.236806	-0.000146
1318	1.3104e+02	-12.4649	-45.193716	0.000375	3.751852	1.271162	-0.000150
1319	1.3114e+02	-12.5066	-45.286570	0.000233	2.332232	0.790182	-0.000093
1320	1.3124e+02	-12.5419	-45.419796	0.000335	3.346246	1.133739	-0.000134
1321	1.3134e+02	-12.5852	-45.548984	0.000324	3.244845	1.099383	-0.000130
1322	1.3144e+02	-12.6173	-45.666061	0.000294	2.940640	0.996316	-0.000118
1323	1.3154e+02	-12.6606	-45.799286	0.000335	3.346246	1.133739	-0.000134
1324	1.3164e+02	-12.7007	-45.936549	0.000345	3.447647	1.168095	-0.000138
1325	1.3174e+02	-12.7440	-46.053626	0.000294	2.940640	0.996316	-0.000118
1326	1.3184e+02	-12.7905	-46.203000	0.000375	3.751852	1.271162	-0.000150
1327	1.3194e+02	-12.8258	-46.380634	0.000446	4.461661	1.511652	-0.000179
1328	1.3204e+02	-12.8531	-46.489637	0.000274	2.737838	0.927604	-0.000110
1329	1.3214e+02	-12.9012	-46.554231	0.000162	1.622422	0.549692	-0.000065
1330	1.3224e+02	-12.9365	-46.719753	0.000416	4.157457	1.408585	-0.000166
1331	1.3234e+02	-12.9831	-46.840867	0.000304	3.042042	1.030672	-0.000122
1332	1.3243e+02	-13.0151	-46.990241	0.000375	3.751852	1.271162	-0.000150
1333	1.3253e+02	-13.0520	-47.075021	0.000213	2.129429	0.721470	-0.000085
1334	1.3263e+02	-13.1018	-47.248618	0.000436	4.360260	1.477296	-0.000174
1335	1.3273e+02	-13.1371	-47.333398	0.000213	2.129429	0.721470	-0.000085
1336	1.3283e+02	-13.1804	-47.474698	0.000355	3.549049	1.202450	-0.000142
1337	1.3293e+02	-13.2237	-47.571589	0.000243	2.433633	0.824537	-0.000097
1338	1.3303e+02	-13.2574	-47.741149	0.000426	4.258859	1.442940	-0.000170
1339	1.3313e+02	-13.3039	-47.850151	0.000274	2.737838	0.927604	-0.000110
1340	1.3323e+02	-13.3424	-47.987414	0.000345	3.447647	1.168095	-0.000138
1341	1.3333e+02	-13.3809	-48.076231	0.000223	2.230831	0.755826	-0.000089
1342	1.3343e+02	-13.4146	-48.233679	0.000395	3.954654	1.339873	-0.000158
1343	1.3353e+02	-13.4579	-48.362868	0.000324	3.244845	1.099383	-0.000130
1344	1.3363e+02	-13.5044	-48.475907	0.000284	2.839239	0.961960	-0.000114
1345	1.3373e+02	-13.5413	-48.617207	0.000355	3.549049	1.202450	-0.000142
1346	1.3383e+02	-13.5766	-48.758507	0.000355	3.549049	1.202450	-0.000142
1347	1.3393e+02	-13.6264	-48.887695	0.000324	3.244845	1.099383	-0.000130
1348	1.3403e+02	-13.6568	-48.976512	0.000223	2.230831	0.755826	-0.000089
1349	1.3413e+02	-13.6985	-49.133960	0.000395	3.954654	1.339873	-0.000158
1350	1.3423e+02	-13.7386	-49.267186	0.000335	3.346246	1.133739	-0.000134
1351	1.3432e+02	-13.7723	-49.388300	0.000304	3.042042	1.030672	-0.000122
1352	1.3442e+02	-13.8205	-49.505377	0.000294	2.940640	0.996316	-0.000118
1353	1.3452e+02	-13.8558	-49.626491	0.000304	3.042042	1.030672	-0.000122
1354	1.3462e+02	-13.8991	-49.800088	0.000436	4.360260	1.477296	-0.000174
1355	1.3472e+02	-13.9344	-49.876793	0.000193	1.926626	0.652759	-0.000077
1356	1.3482e+02	-13.9745	-50.038279	0.000406	4.056056	1.374229	-0.000162
1357	1.3492e+02	-14.0130	-50.163430	0.000314	3.143443	1.065027	-0.000126
1358	1.3502e+02	-14.0547	-50.284544	0.000304	3.042042	1.030672	-0.000122
1359	1.3512e+02	-14.0964	-50.393547	0.000274	2.737838	0.927604	-0.000110
1360	1.3522e+02	-14.1397	-50.526772	0.000335	3.346246	1.133739	-0.000134
1361	1.3532e+02	-14.1782	-50.631738	0.000264	2.636436	0.893249	-0.000105
1362	1.3542e+02	-14.2119	-50.769000	0.000345	3.447647	1.168095	-0.000138
1363	1.3552e+02	-14.2664	-50.926449	0.000395	3.954654	1.339873	-0.000158
1364	1.3562e+02	-14.2985	-51.027377	0.000254	2.535035	0.858893	-0.000101
1365	1.3572e+02	-14.3306	-51.156566	0.000324	3.244845	1.099383	-0.000130
1366	1.3582e+02	-14.3755	-51.277680	0.000304	3.042042	1.030672	-0.000122
1367	1.3592e+02	-14.4204	-51.390719	0.000284	2.839239	0.961960	-0.000114
1368	1.3602e+02	-14.4557	-51.479536	0.000223	2.230831	0.755826	-0.000089
1369	1.3612e+02	-14.4942	-51.653133	0.000436	4.360260	1.477296	-0.000174
1370	1.3622e+02	-14.5343	-51.762136	0.000274	2.737838	0.927604	-0.000110
1371	1.3631e+02	-14.5712	-51.883250	0.000304	3.042042	1.030672	-0.000122
1372	1.3641e+02	-14.6146	-52.004364	0.000304	3.042042	1.030672	-0.000122
1373	1.3651e+02	-14.6450	-52.125478	0.000304	3.042042	1.030672	-0.000122
1374	1.3661e+02	-14.6851	-52.303112	0.000446	4.461661	1.511652	-0.000179
1375	1.3671e+02	-14.7349	-52.404040	0.000254	2.535035	0.858893	-0.000101
1376	1.3681e+02	-14.7734	-52.480746	0.000193	1.926626	0.652759	-0.000077
1377	1.3691e+02	-14.8119	-52.613972	0.000335	3.346246	1.133739	-0.000134
1378	1.3701e+02	-14.8568	-52.755271	0.000355	3.549049	1.202450	-0.000142
1379	1.3711e+02	-14.8937	-52.844088	0.000223	2.230831	0.755826	-0.000089
1380	1.3721e+02	-14.9306	-52.997499	0.000385	3.853253	1.305517	-0.000154
1381	1.3731e+02	-14.9787	-53.094391	0.000243	2.433633	0.824537	-0.000097
1382	1.3741e+02	-15.0220	-53.219542	0.000314	3.143443	1.065027	-0.000126
1383	1.3751e+02	-15.0445	-53.324507	0.000264	2.636436	0.893249	-0.000105
1384	1.3761e+02	-15.0942	-53.498104	0.000436	4.360260	1.477296	-0.000174
1385	1.3771e+02	-15.1279	-53.611144	0.000284	2.839239	0.961960	-0.000114
1386	1.3781e+02	-15.1616	-53.716110	0.000264	2.636436	0.893249	-0.000105
1387	1.3791e+02	-15.2097	-53.821075	0.000264	2.636436	0.893249	-0.000105
1388	1.3801e+02	-15.2498	-53.938152	0.000294	2.940640	0.996316	-0.000118
1389	1.3811e+02	-15.2883	-54.059266	0.000304	3.042042	1.030672	-0.000122
1390	1.3821e+02	-15.3429	-54.188454	0.000324	3.244845	1.099383	-0.000130
1391	1.3831e+02	-15.3702	-54.329754	0.000355	3.549049	1.202450	-0.000142
1392	1.3840e+02	-15.4135	-54.442794	0.000284	2.839239	0.961960	-0.000114
1393	1.3850e+02	-15.4488	-54.588131	0.000365	3.650450	1.236806	-0.000146
1394	1.3860e+02	-15.4889	-54.693096	0.000264	2.636436	0.893249	-0.000105
1395	1.3870e+02	-15.5322	-54.826322	0.000335	3.346246	1.133739	-0.000134
1396	1.3880e+02	-15.5723	-54.931287	0.000264	2.636436	0.893249	-0.000105
1397	1.3890e+02	-15.6108	-55.064513	0.000335	3.346246	1.133739	-0.000134
1398	1.3900e+02	-15.6477	-55.189664	0.000314	3.143443	1.065027	-0.000126
1399	1.3910e+02	-15.6846	-55.347112	0.000395	3.954654	1.339873	-0.000158
1400	1.3920e+02	-15.7295	-55.415744	0.000172	1.723824	0.584047	-0.000069
1401	1.3930e+02	-15.7664	-55.593378	0.000446	4.461661	1.511652	-0.000179
1402	1.3940e+02	-15.8081	-55.682195	0.000223	2.230831	0.755826	-0.000089
1403	1.3950e+02	-15.8498	-55.799272	0.000294	2.940640	0.996316	-0.000118
1404	1.3960e+02	-15.8867	-55.948646	0.000375	3.751852	1.271162	-0.000150
1405	1.3970e+02	-15.9300	-56.102057	0.000385	3.853253	1.305517	-0.000154
1406	1.3980e+02	-15.9717	-56.198948	0.000243	2.433633	0.824537	-0.000097
1407	1.3990e+02	-16.0135	-56.307951	0.000274	2.737838	0.927604	-0.000110
1408	1.4000e+02	-16.0455	-56.420991	0.000284	2.839239	0.961960	-0.000114
1409	1.4010e+02	-16.0872	-56.590550	0.000426	4.258859	1.442940	-0.000170
1410	1.4020e+02	-16.1338	-56.723776	0.000335	3.346246	1.133739	-0.000134
1411	1.4029e+02	-16.1691	-56.852964	0.000324	3.244845	1.099383	-0.000130
1412	1.4039e+02	-16.2124	-56.974078	0.000304	3.042042	1.030672	-0.000122
1413	1.4049e+02	-16.2493	-57.058858	0.000213	2.129429	0.721470	-0.000085
1414	1.4059e+02	-16.2798	-57.196121	0.000345	3.447647	1.168095	-0.000138
1415	1.4069e+02	-16.3231	-57.349532	0.000385	3.853253	1.305517	-0.000154
1416	1.4079e+02	-16.3744	-57.430274	0.000203	2.028028	0.687114	-0.000081
1417	1.4089e+02	-16.4113	-57.583686	0.000385	3.853253	1.305517	-0.000154
1418	1.4099e+02	-16.4530	-57.737097	0.000385	3.853253	1.305517	-0.000154
1419	1.4109e+02	-16.4883	-57.821877	0.000213	2.129429	0.721470	-0.000085
1420	1.4119e+02	-16.5204	-57.942991	0.000304	3.042042	1.030672	-0.000122
1421	1.4129e+02	-16.5653	-58.080253	0.000345	3.447647	1.168095	-0.000138
1422	1.4139e+02	-16.6022	-58.205405	0.000314	3.143443	1.065027	-0.000126
1423	1.4149e+02	-16.6423	-58.338630	0.000335	3.346246	1.133739	-0.000134
1424	1.4159e+02	-16.6840	-58.475893	0.000345	3.447647	1.168095	-0.000138
1425	1.4169e+02	-16.7338	-58.625267	0.000375	3.751852	1.271162	-0.000150
1426	1.4179e+02	-16.7642	-58.774641	0.000375	3.751852	1.271162	-0.000150
1427	1.4189e+02	-16.8011	-58.895755	0.000304	3.042042	1.030672	-0.000122
1428	1.4199e+02	-16.8412	-58.960349	0.000162	1.622422	0.549692	-0.000065
1429	1.4209e+02	-16.8781	-59.125871	0.000416	4.157457	1.408585	-0.000166
1430	1.4219e+02	-16.9263	-59.267171	0.000355	3.549049	1.202450	-0.000142
1431	1.4228e+02	-16.9632	-59.360025	0.000233	2.332232	0.790182	-0.000093
1432	1.4238e+02	-17.0113	-59.501325	0.000355	3.549049	1.202450	-0.000142
1433	1.4248e+02	-17.0434	-59.630513	0.000324	3.244845	1.099383	-0.000130
1434	1.4258e+02	-17.0819	-59.759702	0.000324	3.244845	1.099383	-0.000130
1435	1.4268e+02	-17.1236	-59.888890	0.000324	3.244845	1.099383	-0.000130
1436	1.4278e+02	-17.1573	-60.038264	0.000375	3.751852	1.271162	-0.000150
1437	1.4288e+02	-17.2006	-60.167452	0.000324	3.244845	1.099383	-0.000130
1438	1.4298e+02	-17.2407	-60.292604	0.000314	3.143443	1.065027	-0.000126
1439	1.4308e+02	-17.2840	-60.458126	0.000416	4.157457	1.408585	-0.000166
1440	1.4318e+02	-17.3161	-60.583277	0.000314	3.143443	1.065027	-0.000126
1441	1.4328e+02	-17.3626	-60.712466	0.000324	3.244845	1.099383	-0.000130
1442	1.4338e+02	-17.3963	-60.817431	0.000264	2.636436	0.893249	-0.000105
1443	1.4348e+02	-17.4460	-60.954694	0.000345	3.447647	1.168095	-0.000138
1444	1.4358e+02	-17.4813	-61.108105	0.000385	3.853253	1.305517	-0.000154
1445	1.4368e+02	-17.5230	-61.277665	0.000426	4.258859	1.442940	-0.000170
1446	1.4378e+02	-17.5663	-61.394742	0.000294	2.940640	0.996316	-0.000118
1447	1.4388e+02	-17.5968	-61.532004	0.000345	3.447647	1.168095	-0.000138
1448	1.4398e+02	-17.6305	-61.677341	0.000365	3.650450	1.236806	-0.000146
1449	1.4408e+02	-17.6883	-61.838827	0.000406	4.056056	1.374229	-0.000162
1450	1.4418e+02	-17.7252	-61.923607	0.000213	2.129429	0.721470	-0.000085
1451	1.4428e+02	-17.7573	-62.064906	0.000355	3.549049	1.202450	-0.000142
1452	1.4437e+02	-17.7990	-62.230429	0.000416	4.157457	1.408585	-0.000166
1453	1.4447e+02	-17.8503	-62.383840	0.000385	3.853253	1.305517	-0.000154
1454	1.4457e+02	-17.8792	-62.488806	0.000264	2.636436	0.893249	-0.000105
1455	1.4467e+02	-17.9241	-62.666439	0.000446	4.461661	1.511652	-0.000179
1456	1.4477e+02	-17.9626	-62.819851	0.000385	3.853253	1.305517	-0.000154
1457	1.4487e+02	-18.0075	-62.969225	0.000375	3.751852	1.271162	-0.000150
1458	1.4497e+02	-18.0572	-63.114562	0.000365	3.650450	1.236806	-0.000146
1459	1.4507e+02	-18.0861	-63.255861	0.000355	3.549049	1.202450	-0.000142
1460	1.4517e+02	-18.1198	-63.445607	0.000477	4.765866	1.614719	-0.000191
1461	1.4527e+02	-18.1615	-63.562684	0.000294	2.940640	0.996316	-0.000118
1462	1.4537e+02	-18.2032	-63.724169	0.000406	4.056056	1.374229	-0.000162
1463	1.4547e+02	-18.2337	-63.889692	0.000416	4.157457	1.408585	-0.000166
1464	1.4557e+02	-18.2818	-64.010806	0.000304	3.042042	1.030672	-0.000122
1465	1.4567e+02	-18.3107	-64.188440	0.000446	4.461661	1.511652	-0.000179
1466	1.4577e+02	-18.3524	-64.309554	0.000304	3.042042	1.030672	-0.000122
1467	1.4587e+02	-18.4022	-64.499299	0.000477	4.765866	1.614719	-0.000191
1468	1.4597e+02	-18.4407	-64.664822	0.000416	4.157457	1.408585	-0.000166
1469	1.4607e+02	-18.4759	-64.826307	0.000406	4.056056	1.374229	-0.000162
1470	1.4617e+02	-18.5193	-64.983755	0.000395	3.954654	1.339873	-0.000158
1471	1.4626e+02	-18.5674	-65.141204	0.000395	3.954654	1.339873	-0.000158
1472	1.4636e+02	-18.5979	-65.270392	0.000324	3.244845	1.099383	-0.000130
1473	1.4646e+02	-18.6476	-65.439952	0.000426	4.258859	1.442940	-0.000170
1474	1.4656e+02	-18.6781	-65.577214	0.000345	3.447647	1.168095	-0.000138
1475	1.4666e+02	-18.7182	-65.766960	0.000477	4.765866	1.614719	-0.000191
1476	1.4676e+02	-18.7599	-65.944594	0.000446	4.461661	1.511652	-0.000179
1477	1.4686e+02	-18.7968	-66.085893	0.000355	3.549049	1.202450	-0.000142
1478	1.4696e+02	-18.8385	-66.263527	0.000446	4.461661	1.511652	-0.000179
1479	1.4706e+02	-18.8818	-66.461347	0.000497	4.968668	1.683430	-0.000199
1480	1.4716e+02	-18.9203	-66.570350	0.000274	2.737838	0.927604	-0.000110
1481	1.4726e+02	-18.9556	-66.788355	0.000548	5.475675	1.855209	-0.000219
1482	1.4736e+02	-18.9925	-66.949841	0.000406	4.056056	1.374229	-0.000162
1483	1.4746e+02	-19.0294	-67.115363	0.000416	4.157457	1.408585	-0.000166
1484	1.4756e+02	-19.0840	-67.305108	0.000477	4.765866	1.614719	-0.000191
1485	1.4766e+02	-19.1080	-67.482742	0.000446	4.461661	1.511652	-0.000179
1486	1.4776e+02	-19.1594	-67.672488	0.000477	4.765866	1.614719	-0.000191
1487	1.4786e+02	-19.1946	-67.805713	0.000335	3.346246	1.133739	-0.000134
1488	1.4796e+02	-19.2412	-68.031793	0.000568	5.678478	1.923920	-0.000227
1489	1.4806e+02	-19.2684	-68.173093	0.000355	3.549049	1.202450	-0.000142
1490	1.4816e+02	-19.3134	-68.338615	0.000416	4.157457	1.408585	-0.000166
1491	1.4825e+02	-19.3567	-68.512212	0.000436	4.360260	1.477296	-0.000174
1492	1.4835e+02	-19.3823	-68.746366	0.000588	5.881281	1.992632	-0.000235
1493	1.4845e+02	-19.4401	-68.932074	0.000466	4.664464	1.580363	-0.000187
1494	1.4855e+02	-19.4674	-69.089522	0.000395	3.954654	1.339873	-0.000158
1495	1.4865e+02	-19.5107	-69.279268	0.000477	4.765866	1.614719	-0.000191
1496	1.4875e+02	-19.5444	-69.456902	0.000446	4.461661	1.511652	-0.000179
1497	1.4885e+02	-19.5989	-69.682981	0.000568	5.678478	1.923920	-0.000227
1498	1.4895e+02	-19.6262	-69.864653	0.000456	4.563063	1.546007	-0.000183
1499	1.4905e+02	-19.6647	-70.050361	0.000466	4.664464	1.580363	-0.000187
1500	1.4915e+02	-19.7128	-70.252218	0.000507	5.070070	1.717786	-0.000203
1501	1.4925e+02	-19.7401	-70.425814	0.000436	4.360260	1.477296	-0.000174
1502	1.4935e+02	-19.7978	-70.651894	0.000568	5.678478	1.923920	-0.000227
1503	1.4945e+02	-19.8123	-70.837602	0.000466	4.664464	1.580363	-0.000187
1504	1.4955e+02	-19.8700	-71.071756	0.000588	5.881281	1.992632	-0.000235
1505	1.4965e+02	-19.9085	-71.281687	0.000527	5.272872	1.786498	-0.000211
1506	1.4975e+02	-19.9470	-71.483544	0.000507	5.070070	1.717786	-0.000203
1507	1.4985e+02	-19.9839	-71.669252	0.000466	4.664464	1.580363	-0.000187
1508	1.4995e+02	-19.9551	-71.681364	-0.000030	-0.304204	-0.103067	-0.000012
1509	1.5005e+02	-19.9037	-71.713661	-0.000081	-0.811211	-0.274846	-0.000032
1510	1.5015e+02	-19.8732	-71.661178	0.000132	1.318218	0.446624	0.000053
1511	1.5025e+02	-19.8379	-71.721735	-0.000152	-1.521021	-0.515336	-0.000061
1512	1.5034e+02	-19.7866	-71.681364	0.000101	1.014014	0.343557	0.000041
1513	1.5044e+02	-19.7545	-71.705586	-0.000061	-0.608408	-0.206134	-0.000024
1514	1.5054e+02	-19.7112	-71.669252	0.000091	0.912613	0.309201	0.000037
1515	1.5064e+02	-19.6727	-71.649067	0.000051	0.507007	0.171779	0.000020
1516	1.5074e+02	-19.6326	-71.628881	0.000051	0.507007	0.171779	0.000020
1517	1.5084e+02	-19.5925	-71.620807	0.000020	0.202803	0.068711	0.000008
1518	1.5094e+02	-19.5428	-71.612732	0.000020	0.202803	0.068711	0.000008
1519	1.5104e+02	-19.5171	-71.576398	0.000091	0.912613	0.309201	0.000037
1520	1.5114e+02	-19.4770	-71.491618	0.000213	2.129429	0.721470	0.000085
1521	1.5124e+02	-19.4369	-71.503730	-0.000030	-0.304204	-0.103067	-0.000012
1522	1.5134e+02	-19.3968	-71.475470	0.000071	0.709810	0.240490	0.000028
1523	1.5144e+02	-19.3567	-71.378578	0.000243	2.433633	0.824537	0.000097
1524	1.5154e+02	-19.3053	-71.378578	0.000000	0.000000	0.000000	0.000000
1525	1.5164e+02	-19.2765	-71.309947	0.000172	1.723824	0.584047	0.000069
1526	1.5174e+02	-19.2331	-71.293799	0.000041	0.405606	0.137423	0.000016
1527	1.5184e+02	-19.1946	-71.277650	0.000041	0.405606	0.137423	0.000016
1528	1.5194e+02	-19.1626	-71.196907	0.000203	2.028028	0.687114	0.000081
1529	1.5204e+02	-19.1176	-71.148462	0.000122	1.216817	0.412269	0.000049
1530	1.5214e+02	-19.0759	-71.095979	0.000132	1.318218	0.446624	0.000053
1531	1.5224e+02	-19.0406	-71.047533	0.000122	1.216817	0.412269	0.000049
1532	1.5233e+02	-18.9973	-70.902196	0.000365	3.650450	1.236806	0.000146
1533	1.5243e+02	-18.9556	-70.930456	-0.000071	-0.709810	-0.240490	-0.000028
1534	1.5253e+02	-18.9107	-70.841639	0.000223	2.230831	0.755826	0.000089
1535	1.5263e+02	-18.8802	-70.773008	0.000172	1.723824	0.584047	0.000069
1536	1.5273e+02	-18.8353	-70.684191	0.000223	2.230831	0.755826	0.000089
1537	1.5283e+02	-18.8032	-70.607485	0.000193	1.926626	0.652759	0.000077
1538	1.5293e+02	-18.7583	-70.571151	0.000091	0.912613	0.309201	0.000037
1539	1.5303e+02	-18.7134	-70.502520	0.000172	1.723824	0.584047	0.000069
1540	1.5313e+02	-18.6749	-70.401592	0.000254	2.535035	0.858893	0.000101
1541	1.5323e+02	-18.6316	-70.353146	0.000122	1.216817	0.412269	0.000049
1542	1.5333e+02	-18.6075	-70.288552	0.000162	1.622422	0.549692	0.000065
1543	1.5343e+02	-18.5546	-70.199735	0.000223	2.230831	0.755826	0.000089
1544	1.5353e+02	-18.5177	-70.082658	0.000294	2.940640	0.996316	0.000118
1545	1.5363e+02	-18.4888	-70.046324	0.000091	0.912613	0.309201	0.000037
1546	1.5373e+02	-18.4407	-69.981729	0.000162	1.622422	0.549692	0.000065
1547	1.5383e+02	-18.3941	-69.880801	0.000254	2.535035	0.858893	0.000101
1548	1.5393e+02	-18.3588	-69.751613	0.000324	3.244845	1.099383	0.000130
1549	1.5403e+02	-18.3139	-69.711241	0.000101	1.014014	0.343557	0.000041
1550	1.5413e+02	-18.2754	-69.634536	0.000193	1.926626	0.652759	0.000077
1551	1.5422e+02	-18.2337	-69.517459	0.000294	2.940640	0.996316	0.000118
1552	1.5432e+02	-18.1984	-69.448828	0.000172	1.723824	0.584047	0.000069
1553	1.5442e+02	-18.1615	-69.372122	0.000193	1.926626	0.652759	0.000077
1554	1.5452e+02	-18.1166	-69.283305	0.000223	2.230831	0.755826	0.000089
1555	1.5462e+02	-18.0717	-69.210637	0.000183	1.825225	0.618403	0.000073
1556	1.5472e+02	-18.0428	-69.150079	0.000152	1.521021	0.515336	0.000061
1557	1.5482e+02	-17.9979	-69.037040	0.000284	2.839239	0.961960	0.000114
1558	1.5492e+02	-17.9610	-68.936111	0.000254	2.535035	0.858893	0.000101
1559	1.5502e+02	-17.9241	-68.879591	0.000142	1.419620	0.480980	0.000057
1560	1.5512e+02	-17.8840	-68.754440	0.000314	3.143443	1.065027	0.000126
1561	1.5522e+02	-17.8359	-68.685809	0.000172	1.723824	0.584047	0.000069
1562	1.5532e+02	-17.8038	-68.584880	0.000254	2.535035	0.858893	0.000101
1563	1.5542e+02	-17.7589	-68.504138	0.000203	2.028028	0.687114	0.000081
1564	1.5552e+02	-17.7252	-68.415321	0.000223	2.230831	0.755826	0.000089
1565	1.5562e+02	-17.6819	-68.306318	0.000274	2.737838	0.927604	0.000110
1566	1.5572e+02	-17.6369	-68.221538	0.000213	2.129429	0.721470	0.000085
1567	1.5582e+02	-17.6161	-68.140796	0.000203	2.028028	0.687114	0.000081
1568	1.5592e+02	-17.5696	-68.003533	0.000345	3.447647	1.168095	0.000138
1569	1.5602e+02	-17.5198	-67.959124	0.000112	1.115415	0.377913	0.000045
1570	1.5612e+02	-17.4829	-67.870307	0.000223	2.230831	0.755826	0.000089
1571	1.5622e+02	-17.4428	-67.789565	0.000203	2.028028	0.687114	0.000081
1572	1.5631e+02	-17.4011	-67.700748	0.000223	2.230831	0.755826	0.000089
1573	1.5641e+02	-17.3578	-67.583671	0.000294	2.940640	0.996316	0.000118
1574	1.5651e+02	-17.3241	-67.494854	0.000223	2.230831	0.755826	0.000089
1575	1.5661e+02	-17.2824	-67.414111	0.000203	2.028028	0.687114	0.000081
1576	1.5671e+02	-17.2407	-67.317220	0.000243	2.433633	0.824537	0.000097
1577	1.5681e+02	-17.2118	-67.224366	0.000233	2.332232	0.790182	0.000093
1578	1.5691e+02	-17.1605	-67.099215	0.000314	3.143443	1.065027	0.000126
1579	1.5701e+02	-17.1236	-67.046732	0.000132	1.318218	0.446624	0.000053
1580	1.5711e+02	-17.0931	-66.921581	0.000314	3.143443	1.065027	0.000126
1581	1.5721e+02	-17.0450	-66.800466	0.000304	3.042042	1.030672	0.000122
1582	1.5731e+02	-17.0049	-66.743947	0.000142	1.419620	0.480980	0.000057
1583	1.5741e+02	-16.9696	-66.638981	0.000264	2.636436	0.893249	0.000105
1584	1.5751e+02	-16.9182	-66.513830	0.000314	3.143443	1.065027	0.000126
1585	1.5761e+02	-16.8926	-66.425013	0.000223	2.230831	0.755826	0.000089
1586	1.5771e+02	-16.8589	-66.328122	0.000243	2.433633	0.824537	0.000097
1587	1.5781e+02	-16.7995	-66.259490	0.000172	1.723824	0.584047	0.000069
1588	1.5791e+02	-16.7658	-66.158562	0.000254	2.535035	0.858893	0.000101
1589	1.5801e+02	-16.7241	-66.081856	0.000193	1.926626	0.652759	0.000077
1590	1.5811e+02	-16.6953	-65.968817	0.000284	2.839239	0.961960	0.000114
1591	1.5821e+02	-16.6535	-65.843665	0.000314	3.143443	1.065027	0.000126
1592	1.5830e+02	-16.6086	-65.742737	0.000254	2.535035	0.858893	0.000101
1593	1.5840e+02	-16.5653	-65.633734	0.000274	2.737838	0.927604	0.000110
1594	1.5850e+02	-16.5140	-65.581251	0.000132	1.318218	0.446624	0.000053
1595	1.5860e+02	-16.4947	-65.452063	0.000324	3.244845	1.099383	0.000130
1596	1.5870e+02	-16.4402	-65.371320	0.000203	2.028028	0.687114	0.000081
1597	1.5880e+02	-16.4081	-65.262318	0.000274	2.737838	0.927604	0.000110
1598	1.5890e+02	-16.3696	-65.149278	0.000284	2.839239	0.961960	0.000114
1599	1.5900e+02	-16.3231	-65.056424	0.000233	2.332232	0.790182	0.000093
1600	1.5910e+02	-16.2878	-64.955495	0.000254	2.535035	0.858893	0.000101
1601	1.5920e+02	-16.2493	-64.798047	0.000395	3.954654	1.339873	0.000158
1602	1.5930e+02	-16.2028	-64.741527	0.000142	1.419620	0.480980	0.000057
1603	1.5940e+02	-16.1659	-64.648673	0.000233	2.332232	0.790182	0.000093
1604	1.5950e+02	-16.1322	-64.580042	0.000172	1.723824	0.584047	0.000069
1605	1.5960e+02	-16.0921	-64.454891	0.000314	3.143443	1.065027	0.000126
1606	1.5970e+02	-16.0487	-64.341851	0.000284	2.839239	0.961960	0.000114
1607	1.5980e+02	-16.0102	-64.232848	0.000274	2.737838	0.927604	0.000110
1608	1.5990e+02	-15.9733	-64.148068	0.000213	2.129429	0.721470	0.000085
1609	1.6000e+02	-15.9348	-64.022917	0.000314	3.143443	1.065027	0.000126
1610	1.6010e+02	-15.8915	-63.938137	0.000213	2.129429	0.721470	0.000085
1611	1.6019e+02	-15.8498	-63.804912	0.000335	3.346246	1.133739	0.000134
1612	1.6029e+02	-15.8001	-63.720132	0.000213	2.129429	0.721470	0.000085
1613	1.6039e+02	-15.7728	-63.631315	0.000223	2.230831	0.755826	0.000089
1614	1.6049e+02	-15.7343	-63.498089	0.000335	3.346246	1.133739	0.000134
1615	1.6059e+02	-15.6910	-63.409272	0.000223	2.230831	0.755826	0.000089
1616	1.6069e+02	-15.6509	-63.300270	0.000274	2.737838	0.927604	0.000110
1617	1.6079e+02	-15.6092	-63.227601	0.000183	1.825225	0.618403	0.000073
1618	1.6089e+02	-15.5707	-63.098413	0.000324	3.244845	1.099383	0.000130
1619	1.6099e+02	-15.5354	-62.985373	0.000284	2.839239	0.961960	0.000114
1620	1.6109e+02	-15.4953	-62.848111	0.000345	3.447647	1.168095	0.000138
1621	1.6119e+02	-15.4472	-62.787554	0.000152	1.521021	0.515336	0.000061
1622	1.6129e+02	-15.4087	-62.682588	0.000264	2.636436	0.893249	0.000105
1623	1.6139e+02	-15.3766	-62.589734	0.000233	2.332232	0.790182	0.000093
1624	1.6149e+02	-15.3317	-62.504954	0.000213	2.129429	0.721470	0.000085
1625	1.6159e+02	-15.2915	-62.383840	0.000304	3.042042	1.030672	0.000122
1626	1.6169e+02	-15.2514	-62.250615	0.000335	3.346246	1.133739	0.000134
1627	1.6179e+02	-15.2113	-62.198132	0.000132	1.318218	0.446624	0.000053
1628	1.6189e+02	-15.1632	-62.105278	0.000233	2.332232	0.790182	0.000093
1629	1.6199e+02	-15.1359	-61.972052	0.000335	3.346246	1.133739	0.000134
1630	1.6209e+02	-15.0958	-61.871124	0.000254	2.535035	0.858893	0.000101
1631	1.6219e+02	-15.0557	-61.806530	0.000162	1.622422	0.549692	0.000065
1632	1.6228e+02	-15.0092	-61.665230	0.000355	3.549049	1.202450	0.000142
1633	1.6238e+02	-14.9611	-61.560264	0.000264	2.636436	0.893249	0.000105
1634	1.6248e+02	-14.9306	-61.479522	0.000203	2.028028	0.687114	0.000081
1635	1.6258e+02	-14.8889	-61.370519	0.000274	2.737838	0.927604	0.000110
1636	1.6268e+02	-14.8488	-61.253442	0.000294	2.940640	0.996316	0.000118
1637	1.6278e+02	-14.8247	-61.152514	0.000254	2.535035	0.858893	0.000101
1638	1.6288e+02	-14.7766	-61.104068	0.000122	1.216817	0.412269	0.000049
1639	1.6298e+02	-14.7381	-60.938545	0.000416	4.157457	1.408585	0.000166
1640	1.6308e+02	-14.6980	-60.849728	0.000223	2.230831	0.755826	0.000089
1641	1.6318e+02	-14.6547	-60.740726	0.000274	2.737838	0.927604	0.000110
1642	1.6328e+02	-14.6065	-60.627686	0.000284	2.839239	0.961960	0.000114
1643	1.6338e+02	-14.5729	-60.506572	0.000304	3.042042	1.030672	0.000122
1644	1.6348e+02	-14.5424	-60.405643	0.000254	2.535035	0.858893	0.000101
1645	1.6358e+02	-14.4975	-60.312789	0.000233	2.332232	0.790182	0.000093
1646	1.6368e+02	-14.4509	-60.207824	0.000264	2.636436	0.893249	0.000105
1647	1.6378e+02	-14.4156	-60.090747	0.000294	2.940640	0.996316	0.000118
1648	1.6388e+02	-14.3723	-59.981744	0.000274	2.737838	0.927604	0.000110
1649	1.6398e+02	-14.3386	-59.880816	0.000254	2.535035	0.858893	0.000101
1650	1.6408e+02	-14.3017	-59.767776	0.000284	2.839239	0.961960	0.000114
1651	1.6418e+02	-14.2488	-59.678959	0.000223	2.230831	0.755826	0.000089
1652	1.6427e+02	-14.2119	-59.594179	0.000213	2.129429	0.721470	0.000085
1653	1.6437e+02	-14.1750	-59.428657	0.000416	4.157457	1.408585	0.000166
1654	1.6447e+02	-14.1365	-59.368100	0.000152	1.521021	0.515336	0.000061
1655	1.6457e+02	-14.0948	-59.218726	0.000375	3.751852	1.271162	0.000150
1656	1.6467e+02	-14.0611	-59.170280	0.000122	1.216817	0.412269	0.000049
1657	1.6477e+02	-14.0210	-59.037054	0.000335	3.346246	1.133739	0.000134
1658	1.6487e+02	-13.9777	-58.919978	0.000294	2.940640	0.996316	0.000118
1659	1.6497e+02	-13.9360	-58.790789	0.000324	3.244845	1.099383	0.000130
1660	1.6507e+02	-13.9023	-58.722158	0.000172	1.723824	0.584047	0.000069
1661	1.6517e+02	-13.8638	-58.564710	0.000395	3.954654	1.339873	0.000158
1662	1.6527e+02	-13.8108	-58.483967	0.000203	2.028028	0.687114	0.000081
1663	1.6537e+02	-13.7788	-58.370927	0.000284	2.839239	0.961960	0.000114
1664	1.6547e+02	-13.7354	-58.257887	0.000284	2.839239	0.961960	0.000114
1665	1.6557e+02	-13.6873	-58.120625	0.000345	3.447647	1.168095	0.000138
1666	1.6567e+02	-13.6488	-58.003548	0.000294	2.940640	0.996316	0.000118
1667	1.6577e+02	-13.6151	-57.886471	0.000294	2.940640	0.996316	0.000118
1668	1.6587e+02	-13.5670	-57.801691	0.000213	2.129429	0.721470	0.000085
1669	1.6597e+02	-13.5413	-57.716911	0.000213	2.129429	0.721470	0.000085
1670	1.6607e+02	-13.5012	-57.615983	0.000254	2.535035	0.858893	0.000101
1671	1.6616e+02	-13.4531	-57.474683	0.000355	3.549049	1.202450	0.000142
1672	1.6626e+02	-13.4178	-57.353569	0.000304	3.042042	1.030672	0.000122
1673	1.6636e+02	-13.3777	-57.248603	0.000264	2.636436	0.893249	0.000105
1674	1.6646e+02	-13.3408	-57.143638	0.000264	2.636436	0.893249	0.000105
1675	1.6656e+02	-13.2959	-57.026561	0.000294	2.940640	0.996316	0.000118
1676	1.6666e+02	-13.2606	-56.925632	0.000254	2.535035	0.858893	0.000101
1677	1.6676e+02	-13.2269	-56.804518	0.000304	3.042042	1.030672	0.000122
1678	1.6686e+02	-13.1884	-56.695516	0.000274	2.737838	0.927604	0.000110
1679	1.6696e+02	-13.1322	-56.570365	0.000314	3.143443	1.065027	0.000126
1680	1.6706e+02	-13.0954	-56.445213	0.000314	3.143443	1.065027	0.000126
1681	1.6716e+02	-13.0520	-56.348322	0.000243	2.433633	0.824537	0.000097
1682	1.6726e+02	-13.0248	-56.251431	0.000243	2.433633	0.824537	0.000097
1683	1.6736e+02	-12.9798	-56.126280	0.000314	3.143443	1.065027	0.000126
1684	1.6746e+02	-12.9413	-55.997091	0.000324	3.244845	1.099383	0.000130
1685	1.6756e+02	-12.8996	-55.920386	0.000193	1.926626	0.652759	0.000077
1686	1.6766e+02	-12.8579	-55.807346	0.000284	2.839239	0.961960	0.000114
1687	1.6776e+02	-12.8210	-55.678158	0.000324	3.244845	1.099383	0.000130
1688	1.6786e+02	-12.7777	-55.593378	0.000213	2.129429	0.721470	0.000085
1689	1.6796e+02	-12.7408	-55.431892	0.000406	4.056056	1.374229	0.000162
1690	1.6806e+02	-12.7055	-55.347112	0.000213	2.129429	0.721470	0.000085
1691	1.6816e+02	-12.6574	-55.225998	0.000304	3.042042	1.030672	0.000122
1692	1.6825e+02	-12.6269	-55.145256	0.000203	2.028028	0.687114	0.000081
1693	1.6835e+02	-12.5836	-55.016067	0.000324	3.244845	1.099383	0.000130
1694	1.6845e+02	-12.5435	-54.947436	0.000172	1.723824	0.584047	0.000069
1695	1.6855e+02	-12.4970	-54.769802	0.000446	4.461661	1.511652	0.000179
1696	1.6865e+02	-12.4585	-54.656762	0.000284	2.839239	0.961960	0.000114
1697	1.6875e+02	-12.4184	-54.592168	0.000162	1.622422	0.549692	0.000065
1698	1.6885e+02	-12.3927	-54.406460	0.000466	4.664464	1.580363	0.000187
1699	1.6895e+02	-12.3478	-54.341866	0.000162	1.622422	0.549692	0.000065
1700	1.6905e+02	-12.3045	-54.220752	0.000304	3.042042	1.030672	0.000122
1701	1.6915e+02	-12.2708	-54.103675	0.000294	2.940640	0.996316	0.000118
1702	1.6925e+02	-12.2210	-53.998709	0.000264	2.636436	0.893249	0.000105
1703	1.6935e+02	-12.1777	-53.853372	0.000365	3.650450	1.236806	0.000146
1704	1.6945e+02	-12.1360	-53.740332	0.000284	2.839239	0.961960	0.000114
1705	1.6955e+02	-12.1136	-53.615181	0.000314	3.143443	1.065027	0.000126
1706	1.6965e+02	-12.0606	-53.494067	0.000304	3.042042	1.030672	0.000122
1707	1.6975e+02	-12.0269	-53.397176	0.000243	2.433633	0.824537	0.000097
1708	1.6985e+02	-11.9788	-53.267987	0.000324	3.244845	1.099383	0.000130
1709	1.6995e+02	-11.9403	-53.114576	0.000385	3.853253	1.305517	0.000154
1710	1.7005e+02	-11.9066	-53.021722	0.000233	2.332232	0.790182	0.000093
1711	1.7015e+02	-11.8569	-52.896571	0.000314	3.143443	1.065027	0.000126
1712	1.7024e+02	-11.8248	-52.775457	0.000304	3.042042	1.030672	0.000122
1713	1.7034e+02	-11.7799	-52.630120	0.000365	3.650450	1.236806	0.000146
1714	1.7044e+02	-11.7398	-52.537266	0.000233	2.332232	0.790182	0.000093
1715	1.7054e+02	-11.6965	-52.400003	0.000345	3.447647	1.168095	0.000138
1716	1.7064e+02	-11.6531	-52.307149	0.000233	2.332232	0.790182	0.000093
1717	1.7074e+02	-11.6323	-52.173924	0.000335	3.346246	1.133739	0.000134
1718	1.7084e+02	-11.5938	-52.048773	0.000314	3.143443	1.065027	0.000126
1719	1.7094e+02	-11.5457	-51.943807	0.000264	2.636436	0.893249	0.000105
1720	1.7104e+02	-11.5136	-51.798470	0.000365	3.650450	1.236806	0.000146
1721	1.7114e+02	-11.4751	-51.713690	0.000213	2.129429	0.721470	0.000085
1722	1.7124e+02	-11.4334	-51.580465	0.000335	3.346246	1.133739	0.000134
1723	1.7134e+02	-11.3788	-51.479536	0.000254	2.535035	0.858893	0.000101
1724	1.7144e+02	-11.3387	-51.330162	0.000375	3.751852	1.271162	0.000150
1725	1.7154e+02	-11.3098	-51.209048	0.000304	3.042042	1.030672	0.000122
1726	1.7164e+02	-11.2713	-51.096008	0.000284	2.839239	0.961960	0.000114
1727	1.7174e+02	-11.2264	-50.987006	0.000274	2.737838	0.927604	0.000110
1728	1.7184e+02	-11.1847	-50.857817	0.000324	3.244845	1.099383	0.000130
1729	1.7194e+02	-11.1414	-50.736703	0.000304	3.042042	1.030672	0.000122
1730	1.7204e+02	-11.1061	-50.611552	0.000314	3.143443	1.065027	0.000126
1731	1.7213e+02	-11.0756	-50.454104	0.000395	3.954654	1.339873	0.000158
1732	1.7223e+02	-11.0227	-50.349138	0.000264	2.636436	0.893249	0.000105
1733	1.7233e+02	-10.9794	-50.228024	0.000304	3.042042	1.030672	0.000122
1734	1.7243e+02	-10.9585	-50.110947	0.000294	2.940640	0.996316	0.000118
1735	1.7253e+02	-10.9104	-49.969648	0.000355	3.549049	1.202450	0.000142
1736	1.7263e+02	-10.8655	-49.876793	0.000233	2.332232	0.790182	0.000093
1737	1.7273e+02	-10.8318	-49.755679	0.000304	3.042042	1.030672	0.000122
1738	1.7283e+02	-10.7965	-49.630528	0.000314	3.143443	1.065027	0.000126
1739	1.7293e+02	-10.7500	-49.529600	0.000254	2.535035	0.858893	0.000101
1740	1.7303e+02	-10.7083	-49.380226	0.000375	3.751852	1.271162	0.000150
1741	1.7313e+02	-10.6649	-49.247000	0.000335	3.346246	1.133739	0.000134
1742	1.7323e+02	-10.6313	-49.117812	0.000324	3.244845	1.099383	0.000130
1743	1.7333e+02	-10.5944	-48.992661	0.000314	3.143443	1.065027	0.000126
1744	1.7343e+02	-10.5494	-48.911918	0.000203	2.028028	0.687114	0.000081
1745	1.7353e+02	-10.5206	-48.758507	0.000385	3.853253	1.305517	0.000154
1746	1.7363e+02	-10.4821	-48.649504	0.000274	2.737838	0.927604	0.000110
1747	1.7373e+02	-10.4275	-48.588947	0.000152	1.521021	0.515336	0.000061
1748	1.7383e+02	-10.3970	-48.415350	0.000436	4.360260	1.477296	0.000174
1749	1.7393e+02	-10.3649	-48.278088	0.000345	3.447647	1.168095	0.000138
1750	1.7403e+02	-10.3088	-48.156974	0.000304	3.042042	1.030672	0.000122
1751	1.7413e+02	-10.2703	-48.043934	0.000284	2.839239	0.961960	0.000114
1752	1.7422e+02	-10.2382	-47.914746	0.000324	3.244845	1.099383	0.000130
1753	1.7432e+02	-10.1901	-47.805743	0.000274	2.737838	0.927604	0.000110
1754	1.7442e+02	-10.1532	-47.660406	0.000365	3.650450	1.236806	0.000146
1755	1.7452e+02	-10.1131	-47.523143	0.000345	3.447647	1.168095	0.000138
1756	1.7462e+02	-10.0714	-47.446438	0.000193	1.926626	0.652759	0.000077
1757	1.7472e+02	-10.0345	-47.264767	0.000456	4.563063	1.546007	0.000183
1758	1.7482e+02	-9.9863	-47.175950	0.000223	2.230831	0.755826	0.000089
1759	1.7492e+02	-9.9527	-47.046761	0.000324	3.244845	1.099383	0.000130
1760	1.7502e+02	-9.9110	-46.917573	0.000324	3.244845	1.099383	0.000130
1761	1.7512e+02	-9.8741	-46.832793	0.000213	2.129429	0.721470	0.000085
1762	1.7522e+02	-9.8307	-46.626899	0.000517	5.171471	1.752142	0.000207
1763	1.7532e+02	-9.7970	-46.517897	0.000274	2.737838	0.927604	0.000110
1764	1.7542e+02	-9.7618	-46.437154	0.000203	2.028028	0.687114	0.000081
1765	1.7552e+02	-9.7120	-46.271631	0.000416	4.157457	1.408585	0.000166
1766	1.7562e+02	-9.6767	-46.162629	0.000274	2.737838	0.927604	0.000110
1767	1.7572e+02	-9.6414	-45.997106	0.000416	4.157457	1.408585	0.000166
1768	1.7582e+02	-9.5917	-45.892141	0.000264	2.636436	0.893249	0.000105
1769	1.7592e+02	-9.5612	-45.779101	0.000284	2.839239	0.961960	0.000114
1770	1.7602e+02	-9.5163	-45.637801	0.000355	3.549049	1.202450	0.000142
1771	1.7612e+02	-9.4762	-45.500538	0.000345	3.447647	1.168095	0.000138
1772	1.7621e+02	-9.4281	-45.399610	0.000254	2.535035	0.858893	0.000101
1773	1.7631e+02	-9.3896	-45.274459	0.000314	3.143443	1.065027	0.000126
1774	1.7641e+02	-9.3543	-45.121048	0.000385	3.853253	1.305517	0.000154
1775	1.7651e+02	-9.3190	-44.983785	0.000345	3.447647	1.168095	0.000138
1776	1.7661e+02	-9.2821	-44.894968	0.000223	2.230831	0.755826	0.000089
1777	1.7671e+02	-9.2340	-44.749631	0.000365	3.650450	1.236806	0.000146
1778	1.7681e+02	-9.2003	-44.608331	0.000355	3.549049	1.202450	0.000142
1779	1.7691e+02	-9.1505	-44.539700	0.000172	1.723824	0.584047	0.000069
1780	1.7701e+02	-9.1233	-44.374177	0.000416	4.157457	1.408585	0.000166
1781	1.7711e+02	-9.0800	-44.244989	0.000324	3.244845	1.099383	0.000130
1782	1.7721e+02	-9.0447	-44.087541	0.000395	3.954654	1.339873	0.000158
1783	1.7731e+02	-8.9949	-43.986612	0.000254	2.535035	0.858893	0.000101
1784	1.7741e+02	-8.9628	-43.873573	0.000284	2.839239	0.961960	0.000114
1785	1.7751e+02	-8.9211	-43.760533	0.000284	2.839239	0.961960	0.000114
1786	1.7761e+02	-8.8730	-43.631344	0.000324	3.244845	1.099383	0.000130
1787	1.7771e+02	-8.8265	-43.490045	0.000355	3.549049	1.202450	0.000142
1788	1.7781e+02	-8.7992	-43.356819	0.000335	3.346246	1.133739	0.000134
1789	1.7791e+02	-8.7591	-43.211482	0.000365	3.650450	1.236806	0.000146
1790	1.7801e+02	-8.7142	-43.098443	0.000284	2.839239	0.961960	0.000114
1791	1.7810e+02	-8.6805	-42.977328	0.000304	3.042042	1.030672	0.000122
1792	1.7820e+02	-8.6388	-42.876400	0.000254	2.535035	0.858893	0.000101
1793	1.7830e+02	-8.5891	-42.727026	0.000375	3.751852	1.271162	0.000150
1794	1.7840e+02	-8.5666	-42.601875	0.000314	3.143443	1.065027	0.000126
1795	1.7850e+02	-8.5089	-42.468649	0.000335	3.346246	1.133739	0.000134
1796	1.7860e+02	-8.4864	-42.331387	0.000345	3.447647	1.168095	0.000138
1797	1.7870e+02	-8.4399	-42.218347	0.000284	2.839239	0.961960	0.000114
1798	1.7880e+02	-8.4078	-42.105307	0.000284	2.839239	0.961960	0.000114
1799	1.7890e+02	-8.3581	-42.008416	0.000243	2.433633	0.824537	0.000097
1800	1.7900e+02	-8.3228	-41.830782	0.000446	4.461661	1.511652	0.000179
1801	1.7910e+02	-8.2794	-41.733891	0.000243	2.433633	0.824537	0.000097
1802	1.7920e+02	-8.2458	-41.600665	0.000335	3.346246	1.133739	0.000134
1803	1.7930e+02	-8.2024	-41.475514	0.000314	3.143443	1.065027	0.000126
1804	1.7940e+02	-8.1671	-41.326140	0.000375	3.751852	1.271162	0.000150
1805	1.7950e+02	-8.1286	-41.213100	0.000284	2.839239	0.961960	0.000114
1806	1.7960e+02	-8.0805	-41.071800	0.000355	3.549049	1.202450	0.000142
1807	1.7970e+02	-8.0420	-40.966835	0.000264	2.636436	0.893249	0.000105
1808	1.7980e+02	-8.0019	-40.801312	0.000416	4.157457	1.408585	0.000166
1809	1.7990e+02	-7.9586	-40.692310	0.000274	2.737838	0.927604	0.000110
1810	1.8000e+02	-7.9153	-40.546973	0.000365	3.650450	1.236806	0.000146
1811	1.8009e+02	-7.8736	-40.393562	0.000385	3.853253	1.305517	0.000154
1812	1.8019e+02	-7.8415	-40.268410	0.000314	3.143443	1.065027	0.000126
1813	1.8029e+02	-7.7966	-40.143259	0.000314	3.143443	1.065027	0.000126
1814	1.8039e+02	-7.7661	-40.042331	0.000254	2.535035	0.858893	0.000101
1815	1.8049e+02	-7.7180	-39.921217	0.000304	3.042042	1.030672	0.000122
1816	1.8059e+02	-7.6891	-39.816251	0.000264	2.636436	0.893249	0.000105
1817	1.8069e+02	-7.6474	-39.662840	0.000385	3.853253	1.305517	0.000154
1818	1.8079e+02	-7.6041	-39.513466	0.000375	3.751852	1.271162	0.000150
1819	1.8089e+02	-7.5640	-39.368129	0.000365	3.650450	1.236806	0.000146
1820	1.8099e+02	-7.5239	-39.226829	0.000355	3.549049	1.202450	0.000142
1821	1.8109e+02	-7.4821	-39.125901	0.000254	2.535035	0.858893	0.000101
1822	1.8119e+02	-7.4404	-38.948267	0.000446	4.461661	1.511652	0.000179
1823	1.8129e+02	-7.4035	-38.827153	0.000304	3.042042	1.030672	0.000122
1824	1.8139e+02	-7.3618	-38.726225	0.000254	2.535035	0.858893	0.000101
1825	1.8149e+02	-7.3297	-38.597036	0.000324	3.244845	1.099383	0.000130
1826	1.8159e+02	-7.2832	-38.439588	0.000395	3.954654	1.339873	0.000158
1827	1.8169e+02	-7.2319	-38.326548	0.000284	2.839239	0.961960	0.000114
1828	1.8179e+02	-7.2014	-38.173137	0.000385	3.853253	1.305517	0.000154
1829	1.8189e+02	-7.1677	-38.052023	0.000304	3.042042	1.030672	0.000122
1830	1.8199e+02	-7.1260	-37.938983	0.000284	2.839239	0.961960	0.000114
1831	1.8209e+02	-7.0747	-37.801720	0.000345	3.447647	1.168095	0.000138
1832	1.8218e+02	-7.0426	-37.636198	0.000416	4.157457	1.408585	0.000166
1833	1.8228e+02	-7.0073	-37.527195	0.000274	2.737838	0.927604	0.000110
1834	1.8238e+02	-6.9704	-37.389933	0.000345	3.447647	1.168095	0.000138
1835	1.8248e+02	-6.9255	-37.252670	0.000345	3.447647	1.168095	0.000138
1836	1.8258e+02	-6.8902	-37.123482	0.000324	3.244845	1.099383	0.000130
1837	1.8268e+02	-6.8388	-36.986219	0.000345	3.447647	1.168095	0.000138
1838	1.8278e+02	-6.8100	-36.820696	0.000416	4.157457	1.408585	0.000166
1839	1.8288e+02	-6.7650	-36.760139	0.000152	1.521021	0.515336	0.000061
1840	1.8298e+02	-6.7249	-36.582505	0.000446	4.461661	1.511652	0.000179
1841	1.8308e+02	-6.6784	-36.441206	0.000355	3.549049	1.202450	0.000142
1842	1.8318e+02	-6.6415	-36.299906	0.000355	3.549049	1.202450	0.000142
1843	1.8328e+02	-6.6078	-36.158606	0.000355	3.549049	1.202450	0.000142
1844	1.8338e+02	-6.5645	-36.029418	0.000324	3.244845	1.099383	0.000130
1845	1.8348e+02	-6.5260	-35.884081	0.000365	3.650450	1.236806	0.000146
1846	1.8358e+02	-6.4891	-35.767004	0.000294	2.940640	0.996316	0.000118
1847	1.8368e+02	-6.4538	-35.613593	0.000385	3.853253	1.305517	0.000154
1848	1.8378e+02	-6.4089	-35.520739	0.000233	2.332232	0.790182	0.000093
1849	1.8388e+02	-6.3672	-35.375402	0.000365	3.650450	1.236806	0.000146
1850	1.8398e+02	-6.3303	-35.221991	0.000385	3.853253	1.305517	0.000154
1851	1.8407e+02	-6.2870	-35.104914	0.000294	2.940640	0.996316	0.000118
1852	1.8417e+02	-6.2485	-34.987837	0.000294	2.940640	0.996316	0.000118
1853	1.8427e+02	-6.2084	-34.866723	0.000304	3.042042	1.030672	0.000122
1854	1.8437e+02	-6.1683	-34.745609	0.000304	3.042042	1.030672	0.000122
1855	1.8447e+02	-6.1346	-34.580086	0.000416	4.157457	1.408585	0.000166
1856	1.8457e+02	-6.0929	-34.471083	0.000274	2.737838	0.927604	0.000110
1857	1.8467e+02	-6.0528	-34.261152	0.000527	5.272872	1.786498	0.000211
1858	1.8477e+02	-6.0143	-34.164261	0.000243	2.433633	0.824537	0.000097
1859	1.8487e+02	-5.9790	-33.998739	0.000416	4.157457	1.408585	0.000166
1860	1.8497e+02	-5.9325	-33.889736	0.000274	2.737838	0.927604	0.000110
1861	1.8507e+02	-5.9036	-33.780733	0.000274	2.737838	0.927604	0.000110
1862	1.8517e+02	-5.8474	-33.607136	0.000436	4.360260	1.477296	0.000174
1863	1.8527e+02	-5.8073	-33.486022	0.000304	3.042042	1.030672	0.000122
1864	1.8537e+02	-5.7801	-33.332611	0.000385	3.853253	1.305517	0.000154
1865	1.8547e+02	-5.7319	-33.215534	0.000294	2.940640	0.996316	0.000118
1866	1.8557e+02	-5.6870	-33.086346	0.000324	3.244845	1.099383	0.000130
1867	1.8567e+02	-5.6517	-32.924861	0.000406	4.056056	1.374229	0.000162
1868	1.8577e+02	-5.6132	-32.807784	0.000294	2.940640	0.996316	0.000118
1869	1.8587e+02	-5.5699	-32.658410	0.000375	3.751852	1.271162	0.000150
1870	1.8597e+02	-5.5330	-32.492887	0.000416	4.157457	1.408585	0.000166
1871	1.8606e+02	-5.4945	-32.343513	0.000375	3.751852	1.271162	0.000150
1872	1.8616e+02	-5.4480	-32.182028	0.000406	4.056056	1.374229	0.000162
1873	1.8626e+02	-5.4063	-32.068988	0.000284	2.839239	0.961960	0.000114
1874	1.8636e+02	-5.3758	-31.931725	0.000345	3.447647	1.168095	0.000138
1875	1.8646e+02	-5.3277	-31.737943	0.000487	4.867267	1.649075	0.000195
1876	1.8656e+02	-5.2892	-31.665274	0.000183	1.825225	0.618403	0.000073
1877	1.8666e+02	-5.2587	-31.495714	0.000426	4.258859	1.442940	0.000170
1878	1.8676e+02	-5.2138	-31.390749	0.000264	2.636436	0.893249	0.000105
1879	1.8686e+02	-5.1737	-31.196966	0.000487	4.867267	1.649075	0.000195
1880	1.8696e+02	-5.1496	-31.108149	0.000223	2.230831	0.755826	0.000089
1881	1.8706e+02	-5.0886	-30.914367	0.000487	4.867267	1.649075	0.000195
1882	1.8716e+02	-5.0533	-30.760956	0.000385	3.853253	1.305517	0.000154
1883	1.8726e+02	-5.0212	-30.619656	0.000355	3.549049	1.202450	0.000142
1884	1.8736e+02	-4.9747	-30.486431	0.000335	3.346246	1.133739	0.000134
1885	1.8746e+02	-4.9266	-30.341094	0.000365	3.650450	1.236806	0.000146
1886	1.8756e+02	-4.9057	-30.147311	0.000487	4.867267	1.649075	0.000195
1887	1.8766e+02	-4.8512	-30.026197	0.000304	3.042042	1.030672	0.000122
1888	1.8776e+02	-4.8175	-29.929306	0.000243	2.433633	0.824537	0.000097
1889	1.8786e+02	-4.7726	-29.788006	0.000355	3.549049	1.202450	0.000142
1890	1.8796e+02	-4.7405	-29.618446	0.000426	4.258859	1.442940	0.000170
1891	1.8806e+02	-4.6940	-29.497332	0.000304	3.042042	1.030672	0.000122
1892	1.8815e+02	-4.6523	-29.339884	0.000395	3.954654	1.339873	0.000158
1893	1.8825e+02	-4.6250	-29.166287	0.000436	4.360260	1.477296	0.000174
1894	1.8835e+02	-4.5769	-29.029025	0.000345	3.447647	1.168095	0.000138
1895	1.8845e+02	-4.5432	-28.907910	0.000304	3.042042	1.030672	0.000122
1896	1.8855e+02	-4.4967	-28.774685	0.000335	3.346246	1.133739	0.000134
1897	1.8865e+02	-4.4614	-28.580902	0.000487	4.867267	1.649075	0.000195
1898	1.8875e+02	-4.4277	-28.447677	0.000335	3.346246	1.133739	0.000134
1899	1.8885e+02	-4.3635	-28.310414	0.000345	3.447647	1.168095	0.000138
1900	1.8895e+02	-4.3314	-28.161040	0.000375	3.751852	1.271162	0.000150
1901	1.8905e+02	-4.2961	-28.003592	0.000395	3.954654	1.339873	0.000158
1902	1.8915e+02	-4.2560	-27.906701	0.000243	2.433633	0.824537	0.000097
1903	1.8925e+02	-4.2191	-27.737141	0.000426	4.258859	1.442940	0.000170
1904	1.8935e+02	-4.1726	-27.616027	0.000304	3.042042	1.030672	0.000122
1905	1.8945e+02	-4.1357	-27.446467	0.000426	4.258859	1.442940	0.000170
1906	1.8955e+02	-4.0924	-27.268833	0.000446	4.461661	1.511652	0.000179
1907	1.8965e+02	-4.0555	-27.163868	0.000264	2.636436	0.893249	0.000105
1908	1.8975e+02	-4.0202	-27.030642	0.000335	3.346246	1.133739	0.000134
1909	1.8985e+02	-3.9785	-26.865120	0.000416	4.157457	1.408585	0.000166
1910	1.8995e+02	-3.9432	-26.707671	0.000395	3.954654	1.339873	0.000158
1911	1.9004e+02	-3.9047	-26.586557	0.000304	3.042042	1.030672	0.000122
1912	1.9014e+02	-3.8566	-26.392775	0.000487	4.867267	1.649075	0.000195
1913	1.9024e+02	-3.8197	-26.271661	0.000304	3.042042	1.030672	0.000122
1914	1.9034e+02	-3.7892	-26.122287	0.000375	3.751852	1.271162	0.000150
1915	1.9044e+02	-3.7363	-25.976950	0.000365	3.650450	1.236806	0.000146
1916	1.9054e+02	-3.7010	-25.827576	0.000375	3.751852	1.271162	0.000150
1917	1.9064e+02	-3.6625	-25.694350	0.000335	3.346246	1.133739	0.000134
1918	1.9074e+02	-3.6191	-25.553051	0.000355	3.549049	1.202450	0.000142
1919	1.9084e+02	-3.5839	-25.411751	0.000355	3.549049	1.202450	0.000142
1920	1.9094e+02	-3.5373	-25.217968	0.000487	4.867267	1.649075	0.000195
1921	1.9104e+02	-3.4956	-25.096854	0.000304	3.042042	1.030672	0.000122
1922	1.9114e+02	-3.4667	-24.935369	0.000406	4.056056	1.374229	0.000162
1923	1.9124e+02	-3.4218	-24.830403	0.000264	2.636436	0.893249	0.000105
1924	1.9134e+02	-3.3817	-24.672955	0.000395	3.954654	1.339873	0.000158
1925	1.9144e+02	-3.3416	-24.543767	0.000324	3.244845	1.099383	0.000130
1926	1.9154e+02	-3.2967	-24.362096	0.000456	4.563063	1.546007	0.000183
1927	1.9164e+02	-3.2630	-24.245019	0.000294	2.940640	0.996316	0.000118
1928	1.9174e+02	-3.2277	-24.071422	0.000436	4.360260	1.477296	0.000174
1929	1.9184e+02	-3.1908	-23.934159	0.000345	3.447647	1.168095	0.000138
1930	1.9194e+02	-3.1379	-23.788822	0.000365	3.650450	1.236806	0.000146
1931	1.9203e+02	-3.1026	-23.615225	0.000436	4.360260	1.477296	0.000174
1932	1.9213e+02	-3.0641	-23.486037	0.000324	3.244845	1.099383	0.000130
1933	1.9223e+02	-3.0336	-23.352812	0.000335	3.346246	1.133739	0.000134
1934	1.9233e+02	-2.9823	-23.183252	0.000426	4.258859	1.442940	0.000170
1935	1.9243e+02	-2.9390	-23.009655	0.000436	4.360260	1.477296	0.000174
1936	1.9253e+02	-2.9005	-22.876430	0.000335	3.346246	1.133739	0.000134
1937	1.9263e+02	-2.8636	-22.718981	0.000395	3.954654	1.339873	0.000158
1938	1.9273e+02	-2.8234	-22.601904	0.000294	2.940640	0.996316	0.000118
1939	1.9283e+02	-2.7817	-22.420233	0.000456	4.563063	1.546007	0.000183
1940	1.9293e+02	-2.7545	-22.274896	0.000365	3.650450	1.236806	0.000146
1941	1.9303e+02	-2.6951	-22.105337	0.000426	4.258859	1.442940	0.000170
1942	1.9313e+02	-2.6566	-21.988260	0.000294	2.940640	0.996316	0.000118
1943	1.9323e+02	-2.6229	-21.794477	0.000487	4.867267	1.649075	0.000195
1944	1.9333e+02	-2.5908	-21.665289	0.000324	3.244845	1.099383	0.000130
1945	1.9343e+02	-2.5523	-21.479581	0.000466	4.664464	1.580363	0.000187
1946	1.9353e+02	-2.5090	-21.346355	0.000335	3.346246	1.133739	0.000134
1947	1.9363e+02	-2.4673	-21.217167	0.000324	3.244845	1.099383	0.000130
1948	1.9373e+02	-2.4352	-21.092016	0.000314	3.143443	1.065027	0.000126
1949	1.9383e+02	-2.3791	-20.914382	0.000446	4.461661	1.511652	0.000179
1950	1.9393e+02	-2.3438	-20.777119	0.000345	3.447647	1.168095	0.000138
1951	1.9403e+02	-2.3085	-20.619671	0.000395	3.954654	1.339873	0.000158
1952	1.9412e+02	-2.2732	-20.474334	0.000365	3.650450	1.236806	0.000146
1953	1.9422e+02	-2.2251	-20.333034	0.000355	3.549049	1.202450	0.000142
1954	1.9432e+02	-2.1818	-20.179623	0.000385	3.853253	1.305517	0.000154
1955	1.9442e+02	-2.1497	-20.014100	0.000416	4.157457	1.408585	0.000166
1956	1.9452e+02	-2.1128	-19.868764	0.000365	3.650450	1.236806	0.000146
1957	1.9462e+02	-2.0695	-19.727464	0.000355	3.549049	1.202450	0.000142
1958	1.9472e+02	-2.0278	-19.561941	0.000416	4.157457	1.408585	0.000166
1959	1.9482e+02	-1.9957	-19.388344	0.000436	4.360260	1.477296	0.000174
1960	1.9492e+02	-1.9524	-19.255119	0.000335	3.346246	1.133739	0.000134
1961	1.9502e+02	-1.9106	-19.113819	0.000355	3.549049	1.202450	0.000142
1962	1.9512e+02	-1.8753	-18.976557	0.000345	3.447647	1.168095	0.000138
1963	1.9522e+02	-1.8256	-18.823145	0.000385	3.853253	1.305517	0.000154
1964	1.9532e+02	-1.7823	-18.689920	0.000335	3.346246	1.133739	0.000134
1965	1.9542e+02	-1.7502	-18.528434	0.000406	4.056056	1.374229	0.000162
1966	1.9552e+02	-1.7005	-18.391172	0.000345	3.447647	1.168095	0.000138
1967	1.9562e+02	-1.6652	-18.233724	0.000395	3.954654	1.339873	0.000158
1968	1.9572e+02	-1.6283	-18.060127	0.000436	4.360260	1.477296	0.000174
1969	1.9582e+02	-1.5962	-17.947087	0.000284	2.839239	0.961960	0.000114
1970	1.9592e+02	-1.5481	-17.781564	0.000416	4.157457	1.408585	0.000166
1971	1.9601e+02	-1.5096	-17.624116	0.000395	3.954654	1.339873	0.000158
1972	1.9611e+02	-1.4631	-17.470705	0.000385	3.853253	1.305517	0.000154
1973	1.9621e+02	-1.4294	-17.317294	0.000385	3.853253	1.305517	0.000154
1974	1.9631e+02	-1.3828	-17.167920	0.000375	3.751852	1.271162	0.000150
1975	1.9641e+02	-1.3460	-17.034694	0.000335	3.346246	1.133739	0.000134
1976	1.9651e+02	-1.3074	-16.881283	0.000385	3.853253	1.305517	0.000154
1977	1.9661e+02	-1.2770	-16.699612	0.000456	4.563063	1.546007	0.000183
1978	1.9671e+02	-1.2256	-16.558312	0.000355	3.549049	1.202450	0.000142
1979	1.9681e+02	-1.1903	-16.400864	0.000395	3.954654	1.339873	0.000158
1980	1.9691e+02	-1.1550	-16.275713	0.000314	3.143443	1.065027	0.000126
1981	1.9701e+02	-1.1133	-16.098079	0.000446	4.461661	1.511652	0.000179
1982	1.9711e+02	-1.0700	-15.981002	0.000294	2.940640	0.996316	0.000118
1983	1.9721e+02	-1.0379	-15.783182	0.000497	4.968668	1.683430	0.000199
1984	1.9731e+02	-0.9850	-15.653994	0.000324	3.244845	1.099383	0.000130
1985	1.9741e+02	-0.9513	-15.492508	0.000406	4.056056	1.374229	0.000162
1986	1.9751e+02	-0.9176	-15.355246	0.000345	3.447647	1.168095	0.000138
1987	1.9761e+02	-0.8807	-15.189723	0.000416	4.157457	1.408585	0.000166
1988	1.9771e+02	-0.8214	-15.024201	0.000416	4.157457	1.408585	0.000166
1989	1.9781e+02	-0.7957	-14.846567	0.000446	4.461661	1.511652	0.000179
1990	1.9791e+02	-0.7492	-14.721415	0.000314	3.143443	1.065027	0.000126
1991	1.9800e+02	-0.7123	-14.572041	0.000375	3.751852	1.271162	0.000150
1992	1.9810e+02	-0.6754	-14.438816	0.000335	3.346246	1.133739	0.000134
1993	1.9820e+02	-0.6224	-14.277331	0.000406	4.056056	1.374229	0.000162
1994	1.9830e+02	-0.5839	-14.119882	0.000395	3.954654	1.339873	0.000158
1995	1.9840e+02	-0.5519	-13.966471	0.000385	3.853253	1.305517	0.000154
1996	1.9850e+02	-0.5118	-13.800949	0.000416	4.157457	1.408585	0.000166
1997	1.9860e+02	-0.4749	-13.647537	0.000385	3.853253	1.305517	0.000154
1998	1.9870e+02	-0.4428	-13.518349	0.000324	3.244845	1.099383	0.000130
1999	1.9880e+02	-0.3962	-13.300344	0.000548	5.475675	1.855209	0.000219
2000	1.9890e+02	-0.3626	-13.191341	0.000274	2.737838	0.927604	0.000110
2001	1.9900e+02	-0.3225	-12.993521	0.000497	4.968668	1.683430	0.000199
2002	1.9910e+02	-0.2775	-12.832036	0.000406	4.056056	1.374229	0.000162
2003	1.9920e+02	-0.2262	-12.678625	0.000385	3.853253	1.305517	0.000154
2004	1.9930e+02	-0.1941	-12.569622	0.000274	2.737838	0.927604	0.000110
2005	1.9940e+02	-0.1476	-12.408137	0.000406	4.056056	1.374229	0.000162
2006	1.9950e+02	-0.1155	-12.278948	0.000324	3.244845	1.099383	0.000130
2007	1.9960e+02	-0.0738	-12.097277	0.000456	4.563063	1.546007	0.000183
2008	1.9970e+02	-0.0289	-11.935792	0.000406	4.056056	1.374229	0.000162
2009	1.9980e+02	0.0032	-11.762195	0.000406	4.056056	1.374229	0.000174

PMax (uC/cm2):	7.66e+01
Pr (uC/cm2):	4.77e+00
-Pr (uC/cm2):	-6.90e+00
PLoss (uC/cm2):	-6.89e+00
-Vc:	-1.20e+00
C (Max-Eff) (nF):	3.83e-01
K (Eff):	1.30e+03
Vert. (+/-Pr) Shift (uC/cm2):	-1.07e+00
Offset (uC/cm2):	4.86e+00

A (Loop Area - uC/cm2·Volts):	5.89e-02



Hysteresis Version: 5.48.1 - Radiant Technologies, Inc., 1999 - 9/12/24

